"rt","url","trial_type","trial_index","time_elapsed","internal_node_id","assignmentID","mturkID","hitID","success","view_history","stimulus","key_press","reactionTime","a","r","s","reward_cond","responses"
"5308.699999928474","consent.html","external-html","0","5357","0.0-0.0","3PB5A5BD0WSM76SGXGEUPZMEFX67GO","A3I40B0FATY8VH","37S0QRNUFB29SLTNXLPAM35NX0F88U","","","","","","","","","",""
"","","fullscreen","1","7358","0.0-1.0","3PB5A5BD0WSM76SGXGEUPZMEFX67GO","A3I40B0FATY8VH","37S0QRNUFB29SLTNXLPAM35NX0F88U","true","","","","","","","","",""
"52062.200000047684","","instructions","2","59421","0.0-2.0","3PB5A5BD0WSM76SGXGEUPZMEFX67GO","A3I40B0FATY8VH","37S0QRNUFB29SLTNXLPAM35NX0F88U","","[{""page_index"":0,""viewing_time"":4381},{""page_index"":1,""viewing_time"":5659.100000023842},{""page_index"":2,""viewing_time"":9002.700000047684},{""page_index"":3,""viewing_time"":9624.399999976158},{""page_index"":4,""viewing_time"":7584.699999928474},{""page_index"":5,""viewing_time"":15810}]","","","","","","","",""
"14266.199999928474","","instructions","3","73688","0.0-3.0","3PB5A5BD0WSM76SGXGEUPZMEFX67GO","A3I40B0FATY8VH","37S0QRNUFB29SLTNXLPAM35NX0F88U","","[{""page_index"":0,""viewing_time"":14266}]","","","","","","","",""
"618.3999999761581","","image-keyboard-response","4","74308","0.0-4.0","3PB5A5BD0WSM76SGXGEUPZMEFX67GO","A3I40B0FATY8VH","37S0QRNUFB29SLTNXLPAM35NX0F88U","","","img/flower4.png","74","619.9000000953674","1","1","1","",""
"null","","html-keyboard-response","5","74612","0.0-5.0","3PB5A5BD0WSM76SGXGEUPZMEFX67GO","A3I40B0FATY8VH","37S0QRNUFB29SLTNXLPAM35NX0F88U","","","<img src=""img/flower4.png"" style=""width:200px; border:14px solid green;"">","null","","","","","",""
"1523.3000000715256","","image-keyboard-response","6","76136","0.0-6.0","3PB5A5BD0WSM76SGXGEUPZMEFX67GO","A3I40B0FATY8VH","37S0QRNUFB29SLTNXLPAM35NX0F88U","","","img/flower4.png","74","1524.2000000476837","1","1","1","",""
"null","","html-keyboard-response","7","76439","0.0-7.0","3PB5A5BD0WSM76SGXGEUPZMEFX67GO","A3I40B0FATY8VH","37S0QRNUFB29SLTNXLPAM35NX0F88U","","","<img src=""img/flower4.png"" style=""width:200px; border:14px solid green;"">","null","","","","","",""
"501.2000000476837","","image-keyboard-response","8","76942","0.0-8.0","3PB5A5BD0WSM76SGXGEUPZMEFX67GO","A3I40B0FATY8VH","37S0QRNUFB29SLTNXLPAM35NX0F88U","","","img/flower5.png","75","502.90000009536743","2","0","2","",""
"null","","html-keyboard-response","9","77246","0.0-9.0","3PB5A5BD0WSM76SGXGEUPZMEFX67GO","A3I40B0FATY8VH","37S0QRNUFB29SLTNXLPAM35NX0F88U","","","<img src=""img/flower5.png"" style=""width:200px;border:14px solid red;"">","null","","","","","",""
"1447.8999999761581","","image-keyboard-response","10","78694","0.0-10.0","3PB5A5BD0WSM76SGXGEUPZMEFX67GO","A3I40B0FATY8VH","37S0QRNUFB29SLTNXLPAM35NX0F88U","","","img/flower6.png","76","1448.3999999761581","3","1","3","",""
"null","","html-keyboard-response","11","78997","0.0-11.0","3PB5A5BD0WSM76SGXGEUPZMEFX67GO","A3I40B0FATY8VH","37S0QRNUFB29SLTNXLPAM35NX0F88U","","","<img src=""img/flower6.png"" style=""width:200px; border:14px solid green;"">","null","","","","","",""
"565.5","","image-keyboard-response","12","79565","0.0-12.0","3PB5A5BD0WSM76SGXGEUPZMEFX67GO","A3I40B0FATY8VH","37S0QRNUFB29SLTNXLPAM35NX0F88U","","","img/flower5.png","75","567.2999999523163","2","1","2","",""
"null","","html-keyboard-response","13","79868","0.0-13.0","3PB5A5BD0WSM76SGXGEUPZMEFX67GO","A3I40B0FATY8VH","37S0QRNUFB29SLTNXLPAM35NX0F88U","","","<img src=""img/flower5.png"" style=""width:200px; border:14px solid green;"">","null","","","","","",""
"483.59999990463257","","image-keyboard-response","14","80354","0.0-14.0","3PB5A5BD0WSM76SGXGEUPZMEFX67GO","A3I40B0FATY8VH","37S0QRNUFB29SLTNXLPAM35NX0F88U","","","img/flower4.png","74","485.39999997615814","1","0","1","",""
"null","","html-keyboard-response","15","80657","0.0-15.0","3PB5A5BD0WSM76SGXGEUPZMEFX67GO","A3I40B0FATY8VH","37S0QRNUFB29SLTNXLPAM35NX0F88U","","","<img src=""img/flower4.png"" style=""width:200px;border:14px solid red;"">","null","","","","","",""
"474.7000000476837","","image-keyboard-response","16","81133","0.0-16.0","3PB5A5BD0WSM76SGXGEUPZMEFX67GO","A3I40B0FATY8VH","37S0QRNUFB29SLTNXLPAM35NX0F88U","","","img/flower4.png","74","475.8000000715256","1","0","1","",""
"null","","html-keyboard-response","17","81435","0.0-17.0","3PB5A5BD0WSM76SGXGEUPZMEFX67GO","A3I40B0FATY8VH","37S0QRNUFB29SLTNXLPAM35NX0F88U","","","<img src=""img/flower4.png"" style=""width:200px;border:14px solid red;"">","null","","","","","",""
"667.8000000715256","","image-keyboard-response","18","82104","0.0-18.0","3PB5A5BD0WSM76SGXGEUPZMEFX67GO","A3I40B0FATY8VH","37S0QRNUFB29SLTNXLPAM35NX0F88U","","","img/flower5.png","75","668.1999999284744","2","0","2","",""
"null","","html-keyboard-response","19","82405","0.0-19.0","3PB5A5BD0WSM76SGXGEUPZMEFX67GO","A3I40B0FATY8VH","37S0QRNUFB29SLTNXLPAM35NX0F88U","","","<img src=""img/flower5.png"" style=""width:200px;border:14px solid red;"">","null","","","","","",""
"700.6000000238419","","image-keyboard-response","20","83106","0.0-20.0","3PB5A5BD0WSM76SGXGEUPZMEFX67GO","A3I40B0FATY8VH","37S0QRNUFB29SLTNXLPAM35NX0F88U","","","img/flower5.png","75","701.1000000238419","2","1","2","",""
"null","","html-keyboard-response","21","83409","0.0-21.0","3PB5A5BD0WSM76SGXGEUPZMEFX67GO","A3I40B0FATY8VH","37S0QRNUFB29SLTNXLPAM35NX0F88U","","","<img src=""img/flower5.png"" style=""width:200px; border:14px solid green;"">","null","","","","","",""
"571.8999999761581","","image-keyboard-response","22","83981","0.0-22.0","3PB5A5BD0WSM76SGXGEUPZMEFX67GO","A3I40B0FATY8VH","37S0QRNUFB29SLTNXLPAM35NX0F88U","","","img/flower6.png","76","572.6000000238419","3","0","3","",""
"null","","html-keyboard-response","23","84283","0.0-23.0","3PB5A5BD0WSM76SGXGEUPZMEFX67GO","A3I40B0FATY8VH","37S0QRNUFB29SLTNXLPAM35NX0F88U","","","<img src=""img/flower6.png"" style=""width:200px;border:14px solid red;"">","null","","","","","",""
"570.8999999761581","","image-keyboard-response","24","84856","0.0-24.0","3PB5A5BD0WSM76SGXGEUPZMEFX67GO","A3I40B0FATY8VH","37S0QRNUFB29SLTNXLPAM35NX0F88U","","","img/flower4.png","74","572.3000000715256","1","1","1","",""
"null","","html-keyboard-response","25","85158","0.0-25.0","3PB5A5BD0WSM76SGXGEUPZMEFX67GO","A3I40B0FATY8VH","37S0QRNUFB29SLTNXLPAM35NX0F88U","","","<img src=""img/flower4.png"" style=""width:200px; border:14px solid green;"">","null","","","","","",""
"593.5","","image-keyboard-response","26","85752","0.0-26.0","3PB5A5BD0WSM76SGXGEUPZMEFX67GO","A3I40B0FATY8VH","37S0QRNUFB29SLTNXLPAM35NX0F88U","","","img/flower6.png","76","594.1000000238419","3","0","3","",""
"null","","html-keyboard-response","27","86055","0.0-27.0","3PB5A5BD0WSM76SGXGEUPZMEFX67GO","A3I40B0FATY8VH","37S0QRNUFB29SLTNXLPAM35NX0F88U","","","<img src=""img/flower6.png"" style=""width:200px;border:14px solid red;"">","null","","","","","",""
"572.1000000238419","","image-keyboard-response","28","86628","0.0-28.0","3PB5A5BD0WSM76SGXGEUPZMEFX67GO","A3I40B0FATY8VH","37S0QRNUFB29SLTNXLPAM35NX0F88U","","","img/flower5.png","75","572.5999999046326","2","0","2","",""
"null","","html-keyboard-response","29","86930","0.0-29.0","3PB5A5BD0WSM76SGXGEUPZMEFX67GO","A3I40B0FATY8VH","37S0QRNUFB29SLTNXLPAM35NX0F88U","","","<img src=""img/flower5.png"" style=""width:200px;border:14px solid red;"">","null","","","","","",""
"698.6999999284744","","image-keyboard-response","30","87630","0.0-30.0","3PB5A5BD0WSM76SGXGEUPZMEFX67GO","A3I40B0FATY8VH","37S0QRNUFB29SLTNXLPAM35NX0F88U","","","img/flower6.png","76","700.1999999284744","3","0","3","",""
"null","","html-keyboard-response","31","87933","0.0-31.0","3PB5A5BD0WSM76SGXGEUPZMEFX67GO","A3I40B0FATY8VH","37S0QRNUFB29SLTNXLPAM35NX0F88U","","","<img src=""img/flower6.png"" style=""width:200px;border:14px solid red;"">","null","","","","","",""
"482.2999999523163","","image-keyboard-response","32","88416","0.0-32.0","3PB5A5BD0WSM76SGXGEUPZMEFX67GO","A3I40B0FATY8VH","37S0QRNUFB29SLTNXLPAM35NX0F88U","","","img/flower4.png","74","482.7000000476837","1","1","1","",""
"null","","html-keyboard-response","33","88717","0.0-33.0","3PB5A5BD0WSM76SGXGEUPZMEFX67GO","A3I40B0FATY8VH","37S0QRNUFB29SLTNXLPAM35NX0F88U","","","<img src=""img/flower4.png"" style=""width:200px; border:14px solid green;"">","null","","","","","",""
"658.1000000238419","","image-keyboard-response","34","89376","0.0-34.0","3PB5A5BD0WSM76SGXGEUPZMEFX67GO","A3I40B0FATY8VH","37S0QRNUFB29SLTNXLPAM35NX0F88U","","","img/flower5.png","75","658.7000000476837","2","1","2","",""
"null","","html-keyboard-response","35","89678","0.0-35.0","3PB5A5BD0WSM76SGXGEUPZMEFX67GO","A3I40B0FATY8VH","37S0QRNUFB29SLTNXLPAM35NX0F88U","","","<img src=""img/flower5.png"" style=""width:200px; border:14px solid green;"">","null","","","","","",""
"649.7000000476837","","image-keyboard-response","36","90329","0.0-36.0","3PB5A5BD0WSM76SGXGEUPZMEFX67GO","A3I40B0FATY8VH","37S0QRNUFB29SLTNXLPAM35NX0F88U","","","img/flower6.png","76","650.5","3","1","3","",""
"null","","html-keyboard-response","37","90633","0.0-37.0","3PB5A5BD0WSM76SGXGEUPZMEFX67GO","A3I40B0FATY8VH","37S0QRNUFB29SLTNXLPAM35NX0F88U","","","<img src=""img/flower6.png"" style=""width:200px; border:14px solid green;"">","null","","","","","",""
"620.6000000238419","","image-keyboard-response","38","91255","0.0-38.0","3PB5A5BD0WSM76SGXGEUPZMEFX67GO","A3I40B0FATY8VH","37S0QRNUFB29SLTNXLPAM35NX0F88U","","","img/flower6.png","76","622.2999999523163","3","1","3","",""
"null","","html-keyboard-response","39","91559","0.0-39.0","3PB5A5BD0WSM76SGXGEUPZMEFX67GO","A3I40B0FATY8VH","37S0QRNUFB29SLTNXLPAM35NX0F88U","","","<img src=""img/flower6.png"" style=""width:200px; border:14px solid green;"">","null","","","","","",""
"537.7999999523163","","image-keyboard-response","40","92098","0.0-40.0","3PB5A5BD0WSM76SGXGEUPZMEFX67GO","A3I40B0FATY8VH","37S0QRNUFB29SLTNXLPAM35NX0F88U","","","img/flower4.png","74","539.1999999284744","1","1","1","",""
"null","","html-keyboard-response","41","92402","0.0-41.0","3PB5A5BD0WSM76SGXGEUPZMEFX67GO","A3I40B0FATY8VH","37S0QRNUFB29SLTNXLPAM35NX0F88U","","","<img src=""img/flower4.png"" style=""width:200px; border:14px solid green;"">","null","","","","","",""
"554","","image-keyboard-response","42","92957","0.0-42.0","3PB5A5BD0WSM76SGXGEUPZMEFX67GO","A3I40B0FATY8VH","37S0QRNUFB29SLTNXLPAM35NX0F88U","","","img/flower5.png","75","555.5","2","0","2","",""
"null","","html-keyboard-response","43","93261","0.0-43.0","3PB5A5BD0WSM76SGXGEUPZMEFX67GO","A3I40B0FATY8VH","37S0QRNUFB29SLTNXLPAM35NX0F88U","","","<img src=""img/flower5.png"" style=""width:200px;border:14px solid red;"">","null","","","","","",""
"687.3999999761581","","image-keyboard-response","44","93950","0.0-44.0","3PB5A5BD0WSM76SGXGEUPZMEFX67GO","A3I40B0FATY8VH","37S0QRNUFB29SLTNXLPAM35NX0F88U","","","img/flower4.png","74","688.5","1","1","1","",""
"null","","html-keyboard-response","45","94252","0.0-45.0","3PB5A5BD0WSM76SGXGEUPZMEFX67GO","A3I40B0FATY8VH","37S0QRNUFB29SLTNXLPAM35NX0F88U","","","<img src=""img/flower4.png"" style=""width:200px; border:14px solid green;"">","null","","","","","",""
"521.7999999523163","","image-keyboard-response","46","94776","0.0-46.0","3PB5A5BD0WSM76SGXGEUPZMEFX67GO","A3I40B0FATY8VH","37S0QRNUFB29SLTNXLPAM35NX0F88U","","","img/flower6.png","76","523.2999999523163","3","1","3","",""
"null","","html-keyboard-response","47","95080","0.0-47.0","3PB5A5BD0WSM76SGXGEUPZMEFX67GO","A3I40B0FATY8VH","37S0QRNUFB29SLTNXLPAM35NX0F88U","","","<img src=""img/flower6.png"" style=""width:200px; border:14px solid green;"">","null","","","","","",""
"562","","image-keyboard-response","48","95643","0.0-48.0","3PB5A5BD0WSM76SGXGEUPZMEFX67GO","A3I40B0FATY8VH","37S0QRNUFB29SLTNXLPAM35NX0F88U","","","img/flower4.png","74","563.6000000238419","1","1","1","",""
"null","","html-keyboard-response","49","95946","0.0-49.0","3PB5A5BD0WSM76SGXGEUPZMEFX67GO","A3I40B0FATY8VH","37S0QRNUFB29SLTNXLPAM35NX0F88U","","","<img src=""img/flower4.png"" style=""width:200px; border:14px solid green;"">","null","","","","","",""
"494.7000000476837","","image-keyboard-response","50","96442","0.0-50.0","3PB5A5BD0WSM76SGXGEUPZMEFX67GO","A3I40B0FATY8VH","37S0QRNUFB29SLTNXLPAM35NX0F88U","","","img/flower5.png","75","496.3000000715256","2","1","2","",""
"null","","html-keyboard-response","51","96746","0.0-51.0","3PB5A5BD0WSM76SGXGEUPZMEFX67GO","A3I40B0FATY8VH","37S0QRNUFB29SLTNXLPAM35NX0F88U","","","<img src=""img/flower5.png"" style=""width:200px; border:14px solid green;"">","null","","","","","",""
"653.5999999046326","","image-keyboard-response","52","97400","0.0-52.0","3PB5A5BD0WSM76SGXGEUPZMEFX67GO","A3I40B0FATY8VH","37S0QRNUFB29SLTNXLPAM35NX0F88U","","","img/flower6.png","76","654.3000000715256","3","1","3","",""
"null","","html-keyboard-response","53","97702","0.0-53.0","3PB5A5BD0WSM76SGXGEUPZMEFX67GO","A3I40B0FATY8VH","37S0QRNUFB29SLTNXLPAM35NX0F88U","","","<img src=""img/flower6.png"" style=""width:200px; border:14px solid green;"">","null","","","","","",""
"519.5999999046326","","image-keyboard-response","54","98223","0.0-54.0","3PB5A5BD0WSM76SGXGEUPZMEFX67GO","A3I40B0FATY8VH","37S0QRNUFB29SLTNXLPAM35NX0F88U","","","img/flower4.png","74","520.5","1","1","1","",""
"null","","html-keyboard-response","55","98526","0.0-55.0","3PB5A5BD0WSM76SGXGEUPZMEFX67GO","A3I40B0FATY8VH","37S0QRNUFB29SLTNXLPAM35NX0F88U","","","<img src=""img/flower4.png"" style=""width:200px; border:14px solid green;"">","null","","","","","",""
"644.5","","image-keyboard-response","56","99172","0.0-56.0","3PB5A5BD0WSM76SGXGEUPZMEFX67GO","A3I40B0FATY8VH","37S0QRNUFB29SLTNXLPAM35NX0F88U","","","img/flower6.png","76","645.7000000476837","3","1","3","",""
"null","","html-keyboard-response","57","99474","0.0-57.0","3PB5A5BD0WSM76SGXGEUPZMEFX67GO","A3I40B0FATY8VH","37S0QRNUFB29SLTNXLPAM35NX0F88U","","","<img src=""img/flower6.png"" style=""width:200px; border:14px solid green;"">","null","","","","","",""
"525.5","","image-keyboard-response","58","100000","0.0-58.0","3PB5A5BD0WSM76SGXGEUPZMEFX67GO","A3I40B0FATY8VH","37S0QRNUFB29SLTNXLPAM35NX0F88U","","","img/flower5.png","75","526.1000000238419","2","1","2","",""
"null","","html-keyboard-response","59","100303","0.0-59.0","3PB5A5BD0WSM76SGXGEUPZMEFX67GO","A3I40B0FATY8VH","37S0QRNUFB29SLTNXLPAM35NX0F88U","","","<img src=""img/flower5.png"" style=""width:200px; border:14px solid green;"">","null","","","","","",""
"882.0999999046326","","image-keyboard-response","60","101186","0.0-60.0","3PB5A5BD0WSM76SGXGEUPZMEFX67GO","A3I40B0FATY8VH","37S0QRNUFB29SLTNXLPAM35NX0F88U","","","img/flower5.png","75","883.2999999523163","2","1","2","",""
"null","","html-keyboard-response","61","101488","0.0-61.0","3PB5A5BD0WSM76SGXGEUPZMEFX67GO","A3I40B0FATY8VH","37S0QRNUFB29SLTNXLPAM35NX0F88U","","","<img src=""img/flower5.png"" style=""width:200px; border:14px solid green;"">","null","","","","","",""
"529.2000000476837","","image-keyboard-response","62","102018","0.0-62.0","3PB5A5BD0WSM76SGXGEUPZMEFX67GO","A3I40B0FATY8VH","37S0QRNUFB29SLTNXLPAM35NX0F88U","","","img/flower6.png","76","530","3","0","3","",""
"null","","html-keyboard-response","63","102320","0.0-63.0","3PB5A5BD0WSM76SGXGEUPZMEFX67GO","A3I40B0FATY8VH","37S0QRNUFB29SLTNXLPAM35NX0F88U","","","<img src=""img/flower6.png"" style=""width:200px;border:14px solid red;"">","null","","","","","",""
"12678.200000047684","","instructions","64","114998","0.0-64.0","3PB5A5BD0WSM76SGXGEUPZMEFX67GO","A3I40B0FATY8VH","37S0QRNUFB29SLTNXLPAM35NX0F88U","","[{""page_index"":0,""viewing_time"":4745.300000071526},{""page_index"":1,""viewing_time"":7932.799999952316}]","","","","","","","",""
"588.6999999284744","","image-keyboard-response","65","115588","0.0-65.0","3PB5A5BD0WSM76SGXGEUPZMEFX67GO","A3I40B0FATY8VH","37S0QRNUFB29SLTNXLPAM35NX0F88U","","","img/flower4.png","74","589.3000000715256","1","1","1","",""
"null","","html-keyboard-response","66","115891","0.0-66.0","3PB5A5BD0WSM76SGXGEUPZMEFX67GO","A3I40B0FATY8VH","37S0QRNUFB29SLTNXLPAM35NX0F88U","","","<img src=""img/flower4.png"" style=""width:200px; border:14px solid green;"">","null","","","","","",""
"850.2000000476837","","image-keyboard-response","67","116742","0.0-67.0","3PB5A5BD0WSM76SGXGEUPZMEFX67GO","A3I40B0FATY8VH","37S0QRNUFB29SLTNXLPAM35NX0F88U","","","img/flower5.png","75","851.1999999284744","2","0","2","",""
"null","","html-keyboard-response","68","117045","0.0-68.0","3PB5A5BD0WSM76SGXGEUPZMEFX67GO","A3I40B0FATY8VH","37S0QRNUFB29SLTNXLPAM35NX0F88U","","","<img src=""img/flower5.png"" style=""width:200px;border:14px solid red;"">","null","","","","","",""
"606.6000000238419","","image-keyboard-response","69","117653","0.0-69.0","3PB5A5BD0WSM76SGXGEUPZMEFX67GO","A3I40B0FATY8VH","37S0QRNUFB29SLTNXLPAM35NX0F88U","","","img/flower4.png","74","607.8999999761581","1","1","1","",""
"null","","html-keyboard-response","70","117956","0.0-70.0","3PB5A5BD0WSM76SGXGEUPZMEFX67GO","A3I40B0FATY8VH","37S0QRNUFB29SLTNXLPAM35NX0F88U","","","<img src=""img/flower4.png"" style=""width:200px; border:14px solid green;"">","null","","","","","",""
"526.3999999761581","","image-keyboard-response","71","118484","0.0-71.0","3PB5A5BD0WSM76SGXGEUPZMEFX67GO","A3I40B0FATY8VH","37S0QRNUFB29SLTNXLPAM35NX0F88U","","","img/flower6.png","76","527.8999999761581","3","1","3","",""
"null","","html-keyboard-response","72","118787","0.0-72.0","3PB5A5BD0WSM76SGXGEUPZMEFX67GO","A3I40B0FATY8VH","37S0QRNUFB29SLTNXLPAM35NX0F88U","","","<img src=""img/flower6.png"" style=""width:200px; border:14px solid green;"">","null","","","","","",""
"1033.7999999523163","","image-keyboard-response","73","119823","0.0-73.0","3PB5A5BD0WSM76SGXGEUPZMEFX67GO","A3I40B0FATY8VH","37S0QRNUFB29SLTNXLPAM35NX0F88U","","","img/flower5.png","75","1035.2999999523163","2","0","2","",""
"null","","html-keyboard-response","74","120126","0.0-74.0","3PB5A5BD0WSM76SGXGEUPZMEFX67GO","A3I40B0FATY8VH","37S0QRNUFB29SLTNXLPAM35NX0F88U","","","<img src=""img/flower5.png"" style=""width:200px;border:14px solid red;"">","null","","","","","",""
"492.2999999523163","","image-keyboard-response","75","120620","0.0-75.0","3PB5A5BD0WSM76SGXGEUPZMEFX67GO","A3I40B0FATY8VH","37S0QRNUFB29SLTNXLPAM35NX0F88U","","","img/flower5.png","75","493.6999999284744","2","0","2","",""
"null","","html-keyboard-response","76","120924","0.0-76.0","3PB5A5BD0WSM76SGXGEUPZMEFX67GO","A3I40B0FATY8VH","37S0QRNUFB29SLTNXLPAM35NX0F88U","","","<img src=""img/flower5.png"" style=""width:200px;border:14px solid red;"">","null","","","","","",""
"1712","","image-keyboard-response","77","122637","0.0-77.0","3PB5A5BD0WSM76SGXGEUPZMEFX67GO","A3I40B0FATY8VH","37S0QRNUFB29SLTNXLPAM35NX0F88U","","","img/flower6.png","76","1713","3","1","3","",""
"null","","html-keyboard-response","78","122940","0.0-78.0","3PB5A5BD0WSM76SGXGEUPZMEFX67GO","A3I40B0FATY8VH","37S0QRNUFB29SLTNXLPAM35NX0F88U","","","<img src=""img/flower6.png"" style=""width:200px; border:14px solid green;"">","null","","","","","",""
"925.3000000715256","","image-keyboard-response","79","123867","0.0-79.0","3PB5A5BD0WSM76SGXGEUPZMEFX67GO","A3I40B0FATY8VH","37S0QRNUFB29SLTNXLPAM35NX0F88U","","","img/flower4.png","74","926.1000000238419","1","0","1","",""
"null","","html-keyboard-response","80","124168","0.0-80.0","3PB5A5BD0WSM76SGXGEUPZMEFX67GO","A3I40B0FATY8VH","37S0QRNUFB29SLTNXLPAM35NX0F88U","","","<img src=""img/flower4.png"" style=""width:200px;border:14px solid red;"">","null","","","","","",""
"828.2000000476837","","image-keyboard-response","81","124997","0.0-81.0","3PB5A5BD0WSM76SGXGEUPZMEFX67GO","A3I40B0FATY8VH","37S0QRNUFB29SLTNXLPAM35NX0F88U","","","img/flower5.png","76","828.7000000476837","3","1","2","",""
"null","","html-keyboard-response","82","125299","0.0-82.0","3PB5A5BD0WSM76SGXGEUPZMEFX67GO","A3I40B0FATY8VH","37S0QRNUFB29SLTNXLPAM35NX0F88U","","","<img src=""img/flower5.png"" style=""width:200px; border:14px solid green;"">","null","","","","","",""
"613.5","","image-keyboard-response","83","125914","0.0-83.0","3PB5A5BD0WSM76SGXGEUPZMEFX67GO","A3I40B0FATY8VH","37S0QRNUFB29SLTNXLPAM35NX0F88U","","","img/flower6.png","76","614.7000000476837","3","1","3","",""
"null","","html-keyboard-response","84","126215","0.0-84.0","3PB5A5BD0WSM76SGXGEUPZMEFX67GO","A3I40B0FATY8VH","37S0QRNUFB29SLTNXLPAM35NX0F88U","","","<img src=""img/flower6.png"" style=""width:200px; border:14px solid green;"">","null","","","","","",""
"651.3000000715256","","image-keyboard-response","85","126868","0.0-85.0","3PB5A5BD0WSM76SGXGEUPZMEFX67GO","A3I40B0FATY8VH","37S0QRNUFB29SLTNXLPAM35NX0F88U","","","img/flower4.png","74","652.8000000715256","1","1","1","",""
"null","","html-keyboard-response","86","127172","0.0-86.0","3PB5A5BD0WSM76SGXGEUPZMEFX67GO","A3I40B0FATY8VH","37S0QRNUFB29SLTNXLPAM35NX0F88U","","","<img src=""img/flower4.png"" style=""width:200px; border:14px solid green;"">","null","","","","","",""
"790.6000000238419","","image-keyboard-response","87","127963","0.0-87.0","3PB5A5BD0WSM76SGXGEUPZMEFX67GO","A3I40B0FATY8VH","37S0QRNUFB29SLTNXLPAM35NX0F88U","","","img/flower4.png","74","791.2000000476837","1","1","1","",""
"null","","html-keyboard-response","88","128265","0.0-88.0","3PB5A5BD0WSM76SGXGEUPZMEFX67GO","A3I40B0FATY8VH","37S0QRNUFB29SLTNXLPAM35NX0F88U","","","<img src=""img/flower4.png"" style=""width:200px; border:14px solid green;"">","null","","","","","",""
"655.7999999523163","","image-keyboard-response","89","128923","0.0-89.0","3PB5A5BD0WSM76SGXGEUPZMEFX67GO","A3I40B0FATY8VH","37S0QRNUFB29SLTNXLPAM35NX0F88U","","","img/flower6.png","76","657","3","1","3","",""
"null","","html-keyboard-response","90","129224","0.0-90.0","3PB5A5BD0WSM76SGXGEUPZMEFX67GO","A3I40B0FATY8VH","37S0QRNUFB29SLTNXLPAM35NX0F88U","","","<img src=""img/flower6.png"" style=""width:200px; border:14px solid green;"">","null","","","","","",""
"681.8999999761581","","image-keyboard-response","91","129908","0.0-91.0","3PB5A5BD0WSM76SGXGEUPZMEFX67GO","A3I40B0FATY8VH","37S0QRNUFB29SLTNXLPAM35NX0F88U","","","img/flower6.png","76","683.3999999761581","3","1","3","",""
"null","","html-keyboard-response","92","130211","0.0-92.0","3PB5A5BD0WSM76SGXGEUPZMEFX67GO","A3I40B0FATY8VH","37S0QRNUFB29SLTNXLPAM35NX0F88U","","","<img src=""img/flower6.png"" style=""width:200px; border:14px solid green;"">","null","","","","","",""
"533.5","","image-keyboard-response","93","130746","0.0-93.0","3PB5A5BD0WSM76SGXGEUPZMEFX67GO","A3I40B0FATY8VH","37S0QRNUFB29SLTNXLPAM35NX0F88U","","","img/flower6.png","76","534.6999999284744","3","1","3","",""
"null","","html-keyboard-response","94","131049","0.0-94.0","3PB5A5BD0WSM76SGXGEUPZMEFX67GO","A3I40B0FATY8VH","37S0QRNUFB29SLTNXLPAM35NX0F88U","","","<img src=""img/flower6.png"" style=""width:200px; border:14px solid green;"">","null","","","","","",""
"603.6000000238419","","image-keyboard-response","95","131654","0.0-95.0","3PB5A5BD0WSM76SGXGEUPZMEFX67GO","A3I40B0FATY8VH","37S0QRNUFB29SLTNXLPAM35NX0F88U","","","img/flower5.png","75","605","2","1","2","",""
"null","","html-keyboard-response","96","131956","0.0-96.0","3PB5A5BD0WSM76SGXGEUPZMEFX67GO","A3I40B0FATY8VH","37S0QRNUFB29SLTNXLPAM35NX0F88U","","","<img src=""img/flower5.png"" style=""width:200px; border:14px solid green;"">","null","","","","","",""
"562","","image-keyboard-response","97","132518","0.0-97.0","3PB5A5BD0WSM76SGXGEUPZMEFX67GO","A3I40B0FATY8VH","37S0QRNUFB29SLTNXLPAM35NX0F88U","","","img/flower4.png","74","562.7999999523163","1","1","1","",""
"null","","html-keyboard-response","98","132821","0.0-98.0","3PB5A5BD0WSM76SGXGEUPZMEFX67GO","A3I40B0FATY8VH","37S0QRNUFB29SLTNXLPAM35NX0F88U","","","<img src=""img/flower4.png"" style=""width:200px; border:14px solid green;"">","null","","","","","",""
"637.6000000238419","","image-keyboard-response","99","133460","0.0-99.0","3PB5A5BD0WSM76SGXGEUPZMEFX67GO","A3I40B0FATY8VH","37S0QRNUFB29SLTNXLPAM35NX0F88U","","","img/flower6.png","76","638.8999999761581","3","0","3","",""
"null","","html-keyboard-response","100","133762","0.0-100.0","3PB5A5BD0WSM76SGXGEUPZMEFX67GO","A3I40B0FATY8VH","37S0QRNUFB29SLTNXLPAM35NX0F88U","","","<img src=""img/flower6.png"" style=""width:200px;border:14px solid red;"">","null","","","","","",""
"444.2000000476837","","image-keyboard-response","101","134207","0.0-101.0","3PB5A5BD0WSM76SGXGEUPZMEFX67GO","A3I40B0FATY8VH","37S0QRNUFB29SLTNXLPAM35NX0F88U","","","img/flower6.png","76","445.2000000476837","3","0","3","",""
"null","","html-keyboard-response","102","134510","0.0-102.0","3PB5A5BD0WSM76SGXGEUPZMEFX67GO","A3I40B0FATY8VH","37S0QRNUFB29SLTNXLPAM35NX0F88U","","","<img src=""img/flower6.png"" style=""width:200px;border:14px solid red;"">","null","","","","","",""
"573.2999999523163","","image-keyboard-response","103","135085","0.0-103.0","3PB5A5BD0WSM76SGXGEUPZMEFX67GO","A3I40B0FATY8VH","37S0QRNUFB29SLTNXLPAM35NX0F88U","","","img/flower4.png","74","574.7999999523163","1","0","1","",""
"null","","html-keyboard-response","104","135388","0.0-104.0","3PB5A5BD0WSM76SGXGEUPZMEFX67GO","A3I40B0FATY8VH","37S0QRNUFB29SLTNXLPAM35NX0F88U","","","<img src=""img/flower4.png"" style=""width:200px;border:14px solid red;"">","null","","","","","",""
"603.7999999523163","","image-keyboard-response","105","135993","0.0-105.0","3PB5A5BD0WSM76SGXGEUPZMEFX67GO","A3I40B0FATY8VH","37S0QRNUFB29SLTNXLPAM35NX0F88U","","","img/flower5.png","75","605.1000000238419","2","1","2","",""
"null","","html-keyboard-response","106","136296","0.0-106.0","3PB5A5BD0WSM76SGXGEUPZMEFX67GO","A3I40B0FATY8VH","37S0QRNUFB29SLTNXLPAM35NX0F88U","","","<img src=""img/flower5.png"" style=""width:200px; border:14px solid green;"">","null","","","","","",""
"506.7999999523163","","image-keyboard-response","107","136804","0.0-107.0","3PB5A5BD0WSM76SGXGEUPZMEFX67GO","A3I40B0FATY8VH","37S0QRNUFB29SLTNXLPAM35NX0F88U","","","img/flower4.png","74","508","1","1","1","",""
"null","","html-keyboard-response","108","137107","0.0-108.0","3PB5A5BD0WSM76SGXGEUPZMEFX67GO","A3I40B0FATY8VH","37S0QRNUFB29SLTNXLPAM35NX0F88U","","","<img src=""img/flower4.png"" style=""width:200px; border:14px solid green;"">","null","","","","","",""
"487.60000002384186","","image-keyboard-response","109","137596","0.0-109.0","3PB5A5BD0WSM76SGXGEUPZMEFX67GO","A3I40B0FATY8VH","37S0QRNUFB29SLTNXLPAM35NX0F88U","","","img/flower6.png","76","489","3","1","3","",""
"null","","html-keyboard-response","110","137899","0.0-110.0","3PB5A5BD0WSM76SGXGEUPZMEFX67GO","A3I40B0FATY8VH","37S0QRNUFB29SLTNXLPAM35NX0F88U","","","<img src=""img/flower6.png"" style=""width:200px; border:14px solid green;"">","null","","","","","",""
"689.5","","image-keyboard-response","111","138591","0.0-111.0","3PB5A5BD0WSM76SGXGEUPZMEFX67GO","A3I40B0FATY8VH","37S0QRNUFB29SLTNXLPAM35NX0F88U","","","img/flower4.png","74","691","1","1","1","",""
"null","","html-keyboard-response","112","138893","0.0-112.0","3PB5A5BD0WSM76SGXGEUPZMEFX67GO","A3I40B0FATY8VH","37S0QRNUFB29SLTNXLPAM35NX0F88U","","","<img src=""img/flower4.png"" style=""width:200px; border:14px solid green;"">","null","","","","","",""
"520.7000000476837","","image-keyboard-response","113","139415","0.0-113.0","3PB5A5BD0WSM76SGXGEUPZMEFX67GO","A3I40B0FATY8VH","37S0QRNUFB29SLTNXLPAM35NX0F88U","","","img/flower6.png","76","521.3999999761581","3","1","3","",""
"null","","html-keyboard-response","114","139717","0.0-114.0","3PB5A5BD0WSM76SGXGEUPZMEFX67GO","A3I40B0FATY8VH","37S0QRNUFB29SLTNXLPAM35NX0F88U","","","<img src=""img/flower6.png"" style=""width:200px; border:14px solid green;"">","null","","","","","",""
"501","","image-keyboard-response","115","140219","0.0-115.0","3PB5A5BD0WSM76SGXGEUPZMEFX67GO","A3I40B0FATY8VH","37S0QRNUFB29SLTNXLPAM35NX0F88U","","","img/flower5.png","75","501.7000000476837","2","1","2","",""
"null","","html-keyboard-response","116","140521","0.0-116.0","3PB5A5BD0WSM76SGXGEUPZMEFX67GO","A3I40B0FATY8VH","37S0QRNUFB29SLTNXLPAM35NX0F88U","","","<img src=""img/flower5.png"" style=""width:200px; border:14px solid green;"">","null","","","","","",""
"562.7999999523163","","image-keyboard-response","117","141085","0.0-117.0","3PB5A5BD0WSM76SGXGEUPZMEFX67GO","A3I40B0FATY8VH","37S0QRNUFB29SLTNXLPAM35NX0F88U","","","img/flower4.png","74","564.1000000238419","1","1","1","",""
"null","","html-keyboard-response","118","141387","0.0-118.0","3PB5A5BD0WSM76SGXGEUPZMEFX67GO","A3I40B0FATY8VH","37S0QRNUFB29SLTNXLPAM35NX0F88U","","","<img src=""img/flower4.png"" style=""width:200px; border:14px solid green;"">","null","","","","","",""
"549","","image-keyboard-response","119","141938","0.0-119.0","3PB5A5BD0WSM76SGXGEUPZMEFX67GO","A3I40B0FATY8VH","37S0QRNUFB29SLTNXLPAM35NX0F88U","","","img/flower5.png","74","550.5","1","0","2","",""
"null","","html-keyboard-response","120","142241","0.0-120.0","3PB5A5BD0WSM76SGXGEUPZMEFX67GO","A3I40B0FATY8VH","37S0QRNUFB29SLTNXLPAM35NX0F88U","","","<img src=""img/flower5.png"" style=""width:200px;border:14px solid red;"">","null","","","","","",""
"1037.5999999046326","","image-keyboard-response","121","143281","0.0-121.0","3PB5A5BD0WSM76SGXGEUPZMEFX67GO","A3I40B0FATY8VH","37S0QRNUFB29SLTNXLPAM35NX0F88U","","","img/flower5.png","75","1039.1999999284744","2","1","2","",""
"null","","html-keyboard-response","122","143584","0.0-122.0","3PB5A5BD0WSM76SGXGEUPZMEFX67GO","A3I40B0FATY8VH","37S0QRNUFB29SLTNXLPAM35NX0F88U","","","<img src=""img/flower5.png"" style=""width:200px; border:14px solid green;"">","null","","","","","",""
"407.10000002384186","","image-keyboard-response","123","143993","0.0-123.0","3PB5A5BD0WSM76SGXGEUPZMEFX67GO","A3I40B0FATY8VH","37S0QRNUFB29SLTNXLPAM35NX0F88U","","","img/flower5.png","75","408.60000002384186","2","0","2","",""
"null","","html-keyboard-response","124","144296","0.0-124.0","3PB5A5BD0WSM76SGXGEUPZMEFX67GO","A3I40B0FATY8VH","37S0QRNUFB29SLTNXLPAM35NX0F88U","","","<img src=""img/flower5.png"" style=""width:200px;border:14px solid red;"">","null","","","","","",""
"2314.5999999046326","","instructions","125","146612","0.0-125.0","3PB5A5BD0WSM76SGXGEUPZMEFX67GO","A3I40B0FATY8VH","37S0QRNUFB29SLTNXLPAM35NX0F88U","","[{""page_index"":0,""viewing_time"":2314.5999999046326}]","","","","","","","",""
"1038.5","","image-keyboard-response","126","147651","0.0-126.0","3PB5A5BD0WSM76SGXGEUPZMEFX67GO","A3I40B0FATY8VH","37S0QRNUFB29SLTNXLPAM35NX0F88U","","","img/flower6.png","76","1039.1999999284744","3","1","3","0.7,0.2,0,0,0.7,0.2,0.2,0,0.7",""
"null","","html-keyboard-response","127","147955","0.0-127.0","3PB5A5BD0WSM76SGXGEUPZMEFX67GO","A3I40B0FATY8VH","37S0QRNUFB29SLTNXLPAM35NX0F88U","","","<img src=""img/flower6.png"" style=""width:200px; border:14px solid green;"">","null","","","","","",""
"508","","image-keyboard-response","128","148465","0.0-128.0","3PB5A5BD0WSM76SGXGEUPZMEFX67GO","A3I40B0FATY8VH","37S0QRNUFB29SLTNXLPAM35NX0F88U","","","img/flower6.png","76","509.39999997615814","3","1","3","0.7,0.2,0,0,0.7,0.2,0.2,0,0.7",""
"null","","html-keyboard-response","129","148768","0.0-129.0","3PB5A5BD0WSM76SGXGEUPZMEFX67GO","A3I40B0FATY8VH","37S0QRNUFB29SLTNXLPAM35NX0F88U","","","<img src=""img/flower6.png"" style=""width:200px; border:14px solid green;"">","null","","","","","",""
"1078.8000000715256","","image-keyboard-response","130","149848","0.0-130.0","3PB5A5BD0WSM76SGXGEUPZMEFX67GO","A3I40B0FATY8VH","37S0QRNUFB29SLTNXLPAM35NX0F88U","","","img/flower3.png","74","1080.2000000476837","1","0","2","0.7,0.2,0,0,0.7,0.2,0.2,0,0.7",""
"null","","html-keyboard-response","131","150151","0.0-131.0","3PB5A5BD0WSM76SGXGEUPZMEFX67GO","A3I40B0FATY8VH","37S0QRNUFB29SLTNXLPAM35NX0F88U","","","<img src=""img/flower3.png"" style=""width:200px;border:14px solid red;"">","null","","","","","",""
"1264.1999999284744","","image-keyboard-response","132","151416","0.0-132.0","3PB5A5BD0WSM76SGXGEUPZMEFX67GO","A3I40B0FATY8VH","37S0QRNUFB29SLTNXLPAM35NX0F88U","","","img/flower3.png","74","1264.7999999523163","1","0","2","0.7,0.2,0,0,0.7,0.2,0.2,0,0.7",""
"null","","html-keyboard-response","133","151717","0.0-133.0","3PB5A5BD0WSM76SGXGEUPZMEFX67GO","A3I40B0FATY8VH","37S0QRNUFB29SLTNXLPAM35NX0F88U","","","<img src=""img/flower3.png"" style=""width:200px;border:14px solid red;"">","null","","","","","",""
"870.7999999523163","","image-keyboard-response","134","152588","0.0-134.0","3PB5A5BD0WSM76SGXGEUPZMEFX67GO","A3I40B0FATY8VH","37S0QRNUFB29SLTNXLPAM35NX0F88U","","","img/flower4.png","74","871.6000000238419","1","1","1","0.7,0.2,0,0,0.7,0.2,0.2,0,0.7",""
"null","","html-keyboard-response","135","152892","0.0-135.0","3PB5A5BD0WSM76SGXGEUPZMEFX67GO","A3I40B0FATY8VH","37S0QRNUFB29SLTNXLPAM35NX0F88U","","","<img src=""img/flower4.png"" style=""width:200px; border:14px solid green;"">","null","","","","","",""
"328.10000002384186","","image-keyboard-response","136","153221","0.0-136.0","3PB5A5BD0WSM76SGXGEUPZMEFX67GO","A3I40B0FATY8VH","37S0QRNUFB29SLTNXLPAM35NX0F88U","","","img/flower4.png","74","328.8000000715256","1","0","1","0.7,0.2,0,0,0.7,0.2,0.2,0,0.7",""
"null","","html-keyboard-response","137","153524","0.0-137.0","3PB5A5BD0WSM76SGXGEUPZMEFX67GO","A3I40B0FATY8VH","37S0QRNUFB29SLTNXLPAM35NX0F88U","","","<img src=""img/flower4.png"" style=""width:200px;border:14px solid red;"">","null","","","","","",""
"709.0999999046326","","image-keyboard-response","138","154235","0.0-138.0","3PB5A5BD0WSM76SGXGEUPZMEFX67GO","A3I40B0FATY8VH","37S0QRNUFB29SLTNXLPAM35NX0F88U","","","img/flower4.png","74","710.5999999046326","1","0","1","0.7,0.2,0,0,0.7,0.2,0.2,0,0.7",""
"null","","html-keyboard-response","139","154539","0.0-139.0","3PB5A5BD0WSM76SGXGEUPZMEFX67GO","A3I40B0FATY8VH","37S0QRNUFB29SLTNXLPAM35NX0F88U","","","<img src=""img/flower4.png"" style=""width:200px;border:14px solid red;"">","null","","","","","",""
"774.6000000238419","","image-keyboard-response","140","155315","0.0-140.0","3PB5A5BD0WSM76SGXGEUPZMEFX67GO","A3I40B0FATY8VH","37S0QRNUFB29SLTNXLPAM35NX0F88U","","","img/flower3.png","75","776","2","0","2","0.7,0.2,0,0,0.7,0.2,0.2,0,0.7",""
"null","","html-keyboard-response","141","155618","0.0-141.0","3PB5A5BD0WSM76SGXGEUPZMEFX67GO","A3I40B0FATY8VH","37S0QRNUFB29SLTNXLPAM35NX0F88U","","","<img src=""img/flower3.png"" style=""width:200px;border:14px solid red;"">","null","","","","","",""
"211.69999992847443","","image-keyboard-response","142","155832","0.0-142.0","3PB5A5BD0WSM76SGXGEUPZMEFX67GO","A3I40B0FATY8VH","37S0QRNUFB29SLTNXLPAM35NX0F88U","","","img/flower6.png","75","212.89999997615814","2","0","3","0.7,0.2,0,0,0.7,0.2,0.2,0,0.7",""
"null","","html-keyboard-response","143","156134","0.0-143.0","3PB5A5BD0WSM76SGXGEUPZMEFX67GO","A3I40B0FATY8VH","37S0QRNUFB29SLTNXLPAM35NX0F88U","","","<img src=""img/flower6.png"" style=""width:200px;border:14px solid red;"">","null","","","","","",""
"649.2000000476837","","image-keyboard-response","144","156785","0.0-144.0","3PB5A5BD0WSM76SGXGEUPZMEFX67GO","A3I40B0FATY8VH","37S0QRNUFB29SLTNXLPAM35NX0F88U","","","img/flower4.png","74","650.8999999761581","1","1","1","0.7,0.2,0,0,0.7,0.2,0.2,0,0.7",""
"null","","html-keyboard-response","145","157087","0.0-145.0","3PB5A5BD0WSM76SGXGEUPZMEFX67GO","A3I40B0FATY8VH","37S0QRNUFB29SLTNXLPAM35NX0F88U","","","<img src=""img/flower4.png"" style=""width:200px; border:14px solid green;"">","null","","","","","",""
"818.1999999284744","","image-keyboard-response","146","157907","0.0-146.0","3PB5A5BD0WSM76SGXGEUPZMEFX67GO","A3I40B0FATY8VH","37S0QRNUFB29SLTNXLPAM35NX0F88U","","","img/flower3.png","75","819.7000000476837","2","0","2","0.7,0.2,0,0,0.7,0.2,0.2,0,0.7",""
"null","","html-keyboard-response","147","158210","0.0-147.0","3PB5A5BD0WSM76SGXGEUPZMEFX67GO","A3I40B0FATY8VH","37S0QRNUFB29SLTNXLPAM35NX0F88U","","","<img src=""img/flower3.png"" style=""width:200px;border:14px solid red;"">","null","","","","","",""
"668.1000000238419","","image-keyboard-response","148","158879","0.0-148.0","3PB5A5BD0WSM76SGXGEUPZMEFX67GO","A3I40B0FATY8VH","37S0QRNUFB29SLTNXLPAM35NX0F88U","","","img/flower6.png","76","668.8999999761581","3","1","3","0.7,0.2,0,0,0.7,0.2,0.2,0,0.7",""
"null","","html-keyboard-response","149","159183","0.0-149.0","3PB5A5BD0WSM76SGXGEUPZMEFX67GO","A3I40B0FATY8VH","37S0QRNUFB29SLTNXLPAM35NX0F88U","","","<img src=""img/flower6.png"" style=""width:200px; border:14px solid green;"">","null","","","","","",""
"632.3999999761581","","image-keyboard-response","150","159817","0.0-150.0","3PB5A5BD0WSM76SGXGEUPZMEFX67GO","A3I40B0FATY8VH","37S0QRNUFB29SLTNXLPAM35NX0F88U","","","img/flower3.png","76","633.7999999523163","3","0","2","0.7,0.2,0,0,0.7,0.2,0.2,0,0.7",""
"null","","html-keyboard-response","151","160120","0.0-151.0","3PB5A5BD0WSM76SGXGEUPZMEFX67GO","A3I40B0FATY8VH","37S0QRNUFB29SLTNXLPAM35NX0F88U","","","<img src=""img/flower3.png"" style=""width:200px;border:14px solid red;"">","null","","","","","",""
"765.5","","image-keyboard-response","152","160888","0.0-152.0","3PB5A5BD0WSM76SGXGEUPZMEFX67GO","A3I40B0FATY8VH","37S0QRNUFB29SLTNXLPAM35NX0F88U","","","img/flower4.png","74","767","1","0","1","0.7,0.2,0,0,0.7,0.2,0.2,0,0.7",""
"null","","html-keyboard-response","153","161190","0.0-153.0","3PB5A5BD0WSM76SGXGEUPZMEFX67GO","A3I40B0FATY8VH","37S0QRNUFB29SLTNXLPAM35NX0F88U","","","<img src=""img/flower4.png"" style=""width:200px;border:14px solid red;"">","null","","","","","",""
"353.10000002384186","","image-keyboard-response","154","161544","0.0-154.0","3PB5A5BD0WSM76SGXGEUPZMEFX67GO","A3I40B0FATY8VH","37S0QRNUFB29SLTNXLPAM35NX0F88U","","","img/flower4.png","74","353.7999999523163","1","1","1","0.7,0.2,0,0,0.7,0.2,0.2,0,0.7",""
"null","","html-keyboard-response","155","161847","0.0-155.0","3PB5A5BD0WSM76SGXGEUPZMEFX67GO","A3I40B0FATY8VH","37S0QRNUFB29SLTNXLPAM35NX0F88U","","","<img src=""img/flower4.png"" style=""width:200px; border:14px solid green;"">","null","","","","","",""
"679.1000000238419","","image-keyboard-response","156","162528","0.0-156.0","3PB5A5BD0WSM76SGXGEUPZMEFX67GO","A3I40B0FATY8VH","37S0QRNUFB29SLTNXLPAM35NX0F88U","","","img/flower6.png","76","680.6000000238419","3","1","3","0.7,0.2,0,0,0.7,0.2,0.2,0,0.7",""
"null","","html-keyboard-response","157","162831","0.0-157.0","3PB5A5BD0WSM76SGXGEUPZMEFX67GO","A3I40B0FATY8VH","37S0QRNUFB29SLTNXLPAM35NX0F88U","","","<img src=""img/flower6.png"" style=""width:200px; border:14px solid green;"">","null","","","","","",""
"852","","image-keyboard-response","158","163684","0.0-158.0","3PB5A5BD0WSM76SGXGEUPZMEFX67GO","A3I40B0FATY8VH","37S0QRNUFB29SLTNXLPAM35NX0F88U","","","img/flower4.png","74","853.5","1","1","1","0.7,0.2,0,0,0.7,0.2,0.2,0,0.7",""
"null","","html-keyboard-response","159","163987","0.0-159.0","3PB5A5BD0WSM76SGXGEUPZMEFX67GO","A3I40B0FATY8VH","37S0QRNUFB29SLTNXLPAM35NX0F88U","","","<img src=""img/flower4.png"" style=""width:200px; border:14px solid green;"">","null","","","","","",""
"289.60000002384186","","image-keyboard-response","160","164279","0.0-160.0","3PB5A5BD0WSM76SGXGEUPZMEFX67GO","A3I40B0FATY8VH","37S0QRNUFB29SLTNXLPAM35NX0F88U","","","img/flower4.png","74","291.2000000476837","1","1","1","0.7,0.2,0,0,0.7,0.2,0.2,0,0.7",""
"null","","html-keyboard-response","161","164582","0.0-161.0","3PB5A5BD0WSM76SGXGEUPZMEFX67GO","A3I40B0FATY8VH","37S0QRNUFB29SLTNXLPAM35NX0F88U","","","<img src=""img/flower4.png"" style=""width:200px; border:14px solid green;"">","null","","","","","",""
"495.59999990463257","","image-keyboard-response","162","165080","0.0-162.0","3PB5A5BD0WSM76SGXGEUPZMEFX67GO","A3I40B0FATY8VH","37S0QRNUFB29SLTNXLPAM35NX0F88U","","","img/flower6.png","76","497.39999997615814","3","1","3","0.7,0.2,0,0,0.7,0.2,0.2,0,0.7",""
"null","","html-keyboard-response","163","165382","0.0-163.0","3PB5A5BD0WSM76SGXGEUPZMEFX67GO","A3I40B0FATY8VH","37S0QRNUFB29SLTNXLPAM35NX0F88U","","","<img src=""img/flower6.png"" style=""width:200px; border:14px solid green;"">","null","","","","","",""
"289.6999999284744","","image-keyboard-response","164","165673","0.0-164.0","3PB5A5BD0WSM76SGXGEUPZMEFX67GO","A3I40B0FATY8VH","37S0QRNUFB29SLTNXLPAM35NX0F88U","","","img/flower6.png","76","291.2999999523163","3","0","3","0.7,0.2,0,0,0.7,0.2,0.2,0,0.7",""
"null","","html-keyboard-response","165","165976","0.0-165.0","3PB5A5BD0WSM76SGXGEUPZMEFX67GO","A3I40B0FATY8VH","37S0QRNUFB29SLTNXLPAM35NX0F88U","","","<img src=""img/flower6.png"" style=""width:200px;border:14px solid red;"">","null","","","","","",""
"875.7999999523163","","image-keyboard-response","166","166853","0.0-166.0","3PB5A5BD0WSM76SGXGEUPZMEFX67GO","A3I40B0FATY8VH","37S0QRNUFB29SLTNXLPAM35NX0F88U","","","img/flower4.png","74","876.6000000238419","1","0","1","0.7,0.2,0,0,0.7,0.2,0.2,0,0.7",""
"null","","html-keyboard-response","167","167156","0.0-167.0","3PB5A5BD0WSM76SGXGEUPZMEFX67GO","A3I40B0FATY8VH","37S0QRNUFB29SLTNXLPAM35NX0F88U","","","<img src=""img/flower4.png"" style=""width:200px;border:14px solid red;"">","null","","","","","",""
"664.8999999761581","","image-keyboard-response","168","167822","0.0-168.0","3PB5A5BD0WSM76SGXGEUPZMEFX67GO","A3I40B0FATY8VH","37S0QRNUFB29SLTNXLPAM35NX0F88U","","","img/flower3.png","75","666.1999999284744","2","1","2","0.7,0.2,0,0,0.7,0.2,0.2,0,0.7",""
"null","","html-keyboard-response","169","168125","0.0-169.0","3PB5A5BD0WSM76SGXGEUPZMEFX67GO","A3I40B0FATY8VH","37S0QRNUFB29SLTNXLPAM35NX0F88U","","","<img src=""img/flower3.png"" style=""width:200px; border:14px solid green;"">","null","","","","","",""
"831","","image-keyboard-response","170","168958","0.0-170.0","3PB5A5BD0WSM76SGXGEUPZMEFX67GO","A3I40B0FATY8VH","37S0QRNUFB29SLTNXLPAM35NX0F88U","","","img/flower4.png","74","832.2000000476837","1","0","1","0.7,0.2,0,0,0.7,0.2,0.2,0,0.7",""
"null","","html-keyboard-response","171","169260","0.0-171.0","3PB5A5BD0WSM76SGXGEUPZMEFX67GO","A3I40B0FATY8VH","37S0QRNUFB29SLTNXLPAM35NX0F88U","","","<img src=""img/flower4.png"" style=""width:200px;border:14px solid red;"">","null","","","","","",""
"485.2000000476837","","image-keyboard-response","172","169745","0.0-172.0","3PB5A5BD0WSM76SGXGEUPZMEFX67GO","A3I40B0FATY8VH","37S0QRNUFB29SLTNXLPAM35NX0F88U","","","img/flower6.png","76","485.7999999523163","3","0","3","0.7,0.2,0,0,0.7,0.2,0.2,0,0.7",""
"null","","html-keyboard-response","173","170048","0.0-173.0","3PB5A5BD0WSM76SGXGEUPZMEFX67GO","A3I40B0FATY8VH","37S0QRNUFB29SLTNXLPAM35NX0F88U","","","<img src=""img/flower6.png"" style=""width:200px;border:14px solid red;"">","null","","","","","",""
"284.2999999523163","","image-keyboard-response","174","170334","0.0-174.0","3PB5A5BD0WSM76SGXGEUPZMEFX67GO","A3I40B0FATY8VH","37S0QRNUFB29SLTNXLPAM35NX0F88U","","","img/flower4.png","75","285.89999997615814","2","0","1","0.7,0.2,0,0,0.7,0.2,0.2,0,0.7",""
"null","","html-keyboard-response","175","170637","0.0-175.0","3PB5A5BD0WSM76SGXGEUPZMEFX67GO","A3I40B0FATY8VH","37S0QRNUFB29SLTNXLPAM35NX0F88U","","","<img src=""img/flower4.png"" style=""width:200px;border:14px solid red;"">","null","","","","","",""
"584.3000000715256","","image-keyboard-response","176","171224","0.0-176.0","3PB5A5BD0WSM76SGXGEUPZMEFX67GO","A3I40B0FATY8VH","37S0QRNUFB29SLTNXLPAM35NX0F88U","","","img/flower4.png","74","585.7999999523163","1","0","1","0.7,0.2,0,0,0.7,0.2,0.2,0,0.7",""
"null","","html-keyboard-response","177","171527","0.0-177.0","3PB5A5BD0WSM76SGXGEUPZMEFX67GO","A3I40B0FATY8VH","37S0QRNUFB29SLTNXLPAM35NX0F88U","","","<img src=""img/flower4.png"" style=""width:200px;border:14px solid red;"">","null","","","","","",""
"604.6000000238419","","image-keyboard-response","178","172134","0.0-178.0","3PB5A5BD0WSM76SGXGEUPZMEFX67GO","A3I40B0FATY8VH","37S0QRNUFB29SLTNXLPAM35NX0F88U","","","img/flower3.png","75","606","2","1","2","0.7,0.2,0,0,0.7,0.2,0.2,0,0.7",""
"null","","html-keyboard-response","179","172437","0.0-179.0","3PB5A5BD0WSM76SGXGEUPZMEFX67GO","A3I40B0FATY8VH","37S0QRNUFB29SLTNXLPAM35NX0F88U","","","<img src=""img/flower3.png"" style=""width:200px; border:14px solid green;"">","null","","","","","",""
"572","","image-keyboard-response","180","173010","0.0-180.0","3PB5A5BD0WSM76SGXGEUPZMEFX67GO","A3I40B0FATY8VH","37S0QRNUFB29SLTNXLPAM35NX0F88U","","","img/flower4.png","74","573.3999999761581","1","1","1","0.7,0.2,0,0,0.7,0.2,0.2,0,0.7",""
"null","","html-keyboard-response","181","173313","0.0-181.0","3PB5A5BD0WSM76SGXGEUPZMEFX67GO","A3I40B0FATY8VH","37S0QRNUFB29SLTNXLPAM35NX0F88U","","","<img src=""img/flower4.png"" style=""width:200px; border:14px solid green;"">","null","","","","","",""
"466.3000000715256","","image-keyboard-response","182","173780","0.0-182.0","3PB5A5BD0WSM76SGXGEUPZMEFX67GO","A3I40B0FATY8VH","37S0QRNUFB29SLTNXLPAM35NX0F88U","","","img/flower3.png","75","467","2","1","2","0.7,0.2,0,0,0.7,0.2,0.2,0,0.7",""
"null","","html-keyboard-response","183","174084","0.0-183.0","3PB5A5BD0WSM76SGXGEUPZMEFX67GO","A3I40B0FATY8VH","37S0QRNUFB29SLTNXLPAM35NX0F88U","","","<img src=""img/flower3.png"" style=""width:200px; border:14px solid green;"">","null","","","","","",""
"304.5","","image-keyboard-response","184","174390","0.0-184.0","3PB5A5BD0WSM76SGXGEUPZMEFX67GO","A3I40B0FATY8VH","37S0QRNUFB29SLTNXLPAM35NX0F88U","","","img/flower3.png","75","305.89999997615814","2","0","2","0.7,0.2,0,0,0.7,0.2,0.2,0,0.7",""
"null","","html-keyboard-response","185","174694","0.0-185.0","3PB5A5BD0WSM76SGXGEUPZMEFX67GO","A3I40B0FATY8VH","37S0QRNUFB29SLTNXLPAM35NX0F88U","","","<img src=""img/flower3.png"" style=""width:200px;border:14px solid red;"">","null","","","","","",""
"498.09999990463257","","image-keyboard-response","186","175193","0.0-186.0","3PB5A5BD0WSM76SGXGEUPZMEFX67GO","A3I40B0FATY8VH","37S0QRNUFB29SLTNXLPAM35NX0F88U","","","img/flower4.png","76","498.90000009536743","3","0","1","0.7,0.2,0,0,0.7,0.2,0.2,0,0.7",""
"null","","html-keyboard-response","187","175495","0.0-187.0","3PB5A5BD0WSM76SGXGEUPZMEFX67GO","A3I40B0FATY8VH","37S0QRNUFB29SLTNXLPAM35NX0F88U","","","<img src=""img/flower4.png"" style=""width:200px;border:14px solid red;"">","null","","","","","",""
"923.3999999761581","","image-keyboard-response","188","176419","0.0-188.0","3PB5A5BD0WSM76SGXGEUPZMEFX67GO","A3I40B0FATY8VH","37S0QRNUFB29SLTNXLPAM35NX0F88U","","","img/flower3.png","75","924.2999999523163","2","0","2","0.7,0.2,0,0,0.7,0.2,0.2,0,0.7",""
"null","","html-keyboard-response","189","176723","0.0-189.0","3PB5A5BD0WSM76SGXGEUPZMEFX67GO","A3I40B0FATY8VH","37S0QRNUFB29SLTNXLPAM35NX0F88U","","","<img src=""img/flower3.png"" style=""width:200px;border:14px solid red;"">","null","","","","","",""
"292.10000002384186","","image-keyboard-response","190","177016","0.0-190.0","3PB5A5BD0WSM76SGXGEUPZMEFX67GO","A3I40B0FATY8VH","37S0QRNUFB29SLTNXLPAM35NX0F88U","","","img/flower3.png","75","293","2","0","2","0.7,0.2,0,0,0.7,0.2,0.2,0,0.7",""
"null","","html-keyboard-response","191","177319","0.0-191.0","3PB5A5BD0WSM76SGXGEUPZMEFX67GO","A3I40B0FATY8VH","37S0QRNUFB29SLTNXLPAM35NX0F88U","","","<img src=""img/flower3.png"" style=""width:200px;border:14px solid red;"">","null","","","","","",""
"491.89999997615814","","image-keyboard-response","192","177812","0.0-192.0","3PB5A5BD0WSM76SGXGEUPZMEFX67GO","A3I40B0FATY8VH","37S0QRNUFB29SLTNXLPAM35NX0F88U","","","img/flower4.png","74","493.09999990463257","1","1","1","0.7,0.2,0,0,0.7,0.2,0.2,0,0.7",""
"null","","html-keyboard-response","193","178116","0.0-193.0","3PB5A5BD0WSM76SGXGEUPZMEFX67GO","A3I40B0FATY8VH","37S0QRNUFB29SLTNXLPAM35NX0F88U","","","<img src=""img/flower4.png"" style=""width:200px; border:14px solid green;"">","null","","","","","",""
"523","","image-keyboard-response","194","178640","0.0-194.0","3PB5A5BD0WSM76SGXGEUPZMEFX67GO","A3I40B0FATY8VH","37S0QRNUFB29SLTNXLPAM35NX0F88U","","","img/flower6.png","76","524","3","0","3","0.7,0.2,0,0,0.7,0.2,0.2,0,0.7",""
"null","","html-keyboard-response","195","178942","0.0-195.0","3PB5A5BD0WSM76SGXGEUPZMEFX67GO","A3I40B0FATY8VH","37S0QRNUFB29SLTNXLPAM35NX0F88U","","","<img src=""img/flower6.png"" style=""width:200px;border:14px solid red;"">","null","","","","","",""
"317.39999997615814","","image-keyboard-response","196","179261","0.0-196.0","3PB5A5BD0WSM76SGXGEUPZMEFX67GO","A3I40B0FATY8VH","37S0QRNUFB29SLTNXLPAM35NX0F88U","","","img/flower6.png","76","318.7000000476837","3","1","3","0.7,0.2,0,0,0.7,0.2,0.2,0,0.7",""
"null","","html-keyboard-response","197","179564","0.0-197.0","3PB5A5BD0WSM76SGXGEUPZMEFX67GO","A3I40B0FATY8VH","37S0QRNUFB29SLTNXLPAM35NX0F88U","","","<img src=""img/flower6.png"" style=""width:200px; border:14px solid green;"">","null","","","","","",""
"473.6999999284744","","image-keyboard-response","198","180039","0.0-198.0","3PB5A5BD0WSM76SGXGEUPZMEFX67GO","A3I40B0FATY8VH","37S0QRNUFB29SLTNXLPAM35NX0F88U","","","img/flower6.png","76","475.09999990463257","3","1","3","0.7,0.2,0,0,0.7,0.2,0.2,0,0.7",""
"null","","html-keyboard-response","199","180342","0.0-199.0","3PB5A5BD0WSM76SGXGEUPZMEFX67GO","A3I40B0FATY8VH","37S0QRNUFB29SLTNXLPAM35NX0F88U","","","<img src=""img/flower6.png"" style=""width:200px; border:14px solid green;"">","null","","","","","",""
"709.3999999761581","","image-keyboard-response","200","181052","0.0-200.0","3PB5A5BD0WSM76SGXGEUPZMEFX67GO","A3I40B0FATY8VH","37S0QRNUFB29SLTNXLPAM35NX0F88U","","","img/flower3.png","75","710","2","1","2","0.7,0.2,0,0,0.7,0.2,0.2,0,0.7",""
"null","","html-keyboard-response","201","181354","0.0-201.0","3PB5A5BD0WSM76SGXGEUPZMEFX67GO","A3I40B0FATY8VH","37S0QRNUFB29SLTNXLPAM35NX0F88U","","","<img src=""img/flower3.png"" style=""width:200px; border:14px solid green;"">","null","","","","","",""
"430.89999997615814","","image-keyboard-response","202","181785","0.0-202.0","3PB5A5BD0WSM76SGXGEUPZMEFX67GO","A3I40B0FATY8VH","37S0QRNUFB29SLTNXLPAM35NX0F88U","","","img/flower4.png","74","431.59999990463257","1","1","1","0.7,0.2,0,0,0.7,0.2,0.2,0,0.7",""
"null","","html-keyboard-response","203","182088","0.0-203.0","3PB5A5BD0WSM76SGXGEUPZMEFX67GO","A3I40B0FATY8VH","37S0QRNUFB29SLTNXLPAM35NX0F88U","","","<img src=""img/flower4.png"" style=""width:200px; border:14px solid green;"">","null","","","","","",""
"294.2999999523163","","image-keyboard-response","204","182384","0.0-204.0","3PB5A5BD0WSM76SGXGEUPZMEFX67GO","A3I40B0FATY8VH","37S0QRNUFB29SLTNXLPAM35NX0F88U","","","img/flower4.png","74","295.60000002384186","1","0","1","0.7,0.2,0,0,0.7,0.2,0.2,0,0.7",""
"null","","html-keyboard-response","205","182687","0.0-205.0","3PB5A5BD0WSM76SGXGEUPZMEFX67GO","A3I40B0FATY8VH","37S0QRNUFB29SLTNXLPAM35NX0F88U","","","<img src=""img/flower4.png"" style=""width:200px;border:14px solid red;"">","null","","","","","",""
"624","","image-keyboard-response","206","183312","0.0-206.0","3PB5A5BD0WSM76SGXGEUPZMEFX67GO","A3I40B0FATY8VH","37S0QRNUFB29SLTNXLPAM35NX0F88U","","","img/flower6.png","76","624.8000000715256","3","0","3","0.7,0.2,0,0,0.7,0.2,0.2,0,0.7",""
"null","","html-keyboard-response","207","183615","0.0-207.0","3PB5A5BD0WSM76SGXGEUPZMEFX67GO","A3I40B0FATY8VH","37S0QRNUFB29SLTNXLPAM35NX0F88U","","","<img src=""img/flower6.png"" style=""width:200px;border:14px solid red;"">","null","","","","","",""
"302.89999997615814","","image-keyboard-response","208","183919","0.0-208.0","3PB5A5BD0WSM76SGXGEUPZMEFX67GO","A3I40B0FATY8VH","37S0QRNUFB29SLTNXLPAM35NX0F88U","","","img/flower6.png","76","303.39999997615814","3","1","3","0.7,0.2,0,0,0.7,0.2,0.2,0,0.7",""
"null","","html-keyboard-response","209","184222","0.0-209.0","3PB5A5BD0WSM76SGXGEUPZMEFX67GO","A3I40B0FATY8VH","37S0QRNUFB29SLTNXLPAM35NX0F88U","","","<img src=""img/flower6.png"" style=""width:200px; border:14px solid green;"">","null","","","","","",""
"295.1999999284744","","image-keyboard-response","210","184519","0.0-210.0","3PB5A5BD0WSM76SGXGEUPZMEFX67GO","A3I40B0FATY8VH","37S0QRNUFB29SLTNXLPAM35NX0F88U","","","img/flower6.png","76","296.6999999284744","3","1","3","0.7,0.2,0,0,0.7,0.2,0.2,0,0.7",""
"null","","html-keyboard-response","211","184822","0.0-211.0","3PB5A5BD0WSM76SGXGEUPZMEFX67GO","A3I40B0FATY8VH","37S0QRNUFB29SLTNXLPAM35NX0F88U","","","<img src=""img/flower6.png"" style=""width:200px; border:14px solid green;"">","null","","","","","",""
"274.89999997615814","","image-keyboard-response","212","185099","0.0-212.0","3PB5A5BD0WSM76SGXGEUPZMEFX67GO","A3I40B0FATY8VH","37S0QRNUFB29SLTNXLPAM35NX0F88U","","","img/flower6.png","76","276.5","3","1","3","0.7,0.2,0,0,0.7,0.2,0.2,0,0.7",""
"null","","html-keyboard-response","213","185402","0.0-213.0","3PB5A5BD0WSM76SGXGEUPZMEFX67GO","A3I40B0FATY8VH","37S0QRNUFB29SLTNXLPAM35NX0F88U","","","<img src=""img/flower6.png"" style=""width:200px; border:14px solid green;"">","null","","","","","",""
"399","","image-keyboard-response","214","185802","0.0-214.0","3PB5A5BD0WSM76SGXGEUPZMEFX67GO","A3I40B0FATY8VH","37S0QRNUFB29SLTNXLPAM35NX0F88U","","","img/flower3.png","75","400.2000000476837","2","1","2","0.7,0.2,0,0,0.7,0.2,0.2,0,0.7",""
"null","","html-keyboard-response","215","186106","0.0-215.0","3PB5A5BD0WSM76SGXGEUPZMEFX67GO","A3I40B0FATY8VH","37S0QRNUFB29SLTNXLPAM35NX0F88U","","","<img src=""img/flower3.png"" style=""width:200px; border:14px solid green;"">","null","","","","","",""
"475.89999997615814","","image-keyboard-response","216","186584","0.0-216.0","3PB5A5BD0WSM76SGXGEUPZMEFX67GO","A3I40B0FATY8VH","37S0QRNUFB29SLTNXLPAM35NX0F88U","","","img/flower4.png","74","477.1999999284744","1","1","1","0.7,0.2,0,0,0.7,0.2,0.2,0,0.7",""
"null","","html-keyboard-response","217","186887","0.0-217.0","3PB5A5BD0WSM76SGXGEUPZMEFX67GO","A3I40B0FATY8VH","37S0QRNUFB29SLTNXLPAM35NX0F88U","","","<img src=""img/flower4.png"" style=""width:200px; border:14px solid green;"">","null","","","","","",""
"822.5","","image-keyboard-response","218","187711","0.0-218.0","3PB5A5BD0WSM76SGXGEUPZMEFX67GO","A3I40B0FATY8VH","37S0QRNUFB29SLTNXLPAM35NX0F88U","","","img/flower6.png","76","823.3999999761581","3","1","3","0.7,0.2,0,0,0.7,0.2,0.2,0,0.7",""
"null","","html-keyboard-response","219","188013","0.0-219.0","3PB5A5BD0WSM76SGXGEUPZMEFX67GO","A3I40B0FATY8VH","37S0QRNUFB29SLTNXLPAM35NX0F88U","","","<img src=""img/flower6.png"" style=""width:200px; border:14px solid green;"">","null","","","","","",""
"591.7000000476837","","image-keyboard-response","220","188606","0.0-220.0","3PB5A5BD0WSM76SGXGEUPZMEFX67GO","A3I40B0FATY8VH","37S0QRNUFB29SLTNXLPAM35NX0F88U","","","img/flower3.png","75","593","2","0","2","0.7,0.2,0,0,0.7,0.2,0.2,0,0.7",""
"null","","html-keyboard-response","221","188910","0.0-221.0","3PB5A5BD0WSM76SGXGEUPZMEFX67GO","A3I40B0FATY8VH","37S0QRNUFB29SLTNXLPAM35NX0F88U","","","<img src=""img/flower3.png"" style=""width:200px;border:14px solid red;"">","null","","","","","",""
"501.5","","image-keyboard-response","222","189413","0.0-222.0","3PB5A5BD0WSM76SGXGEUPZMEFX67GO","A3I40B0FATY8VH","37S0QRNUFB29SLTNXLPAM35NX0F88U","","","img/flower6.png","76","502.7999999523163","3","1","3","0.7,0.2,0,0,0.7,0.2,0.2,0,0.7",""
"null","","html-keyboard-response","223","189715","0.0-223.0","3PB5A5BD0WSM76SGXGEUPZMEFX67GO","A3I40B0FATY8VH","37S0QRNUFB29SLTNXLPAM35NX0F88U","","","<img src=""img/flower6.png"" style=""width:200px; border:14px solid green;"">","null","","","","","",""
"450.8000000715256","","image-keyboard-response","224","190167","0.0-224.0","3PB5A5BD0WSM76SGXGEUPZMEFX67GO","A3I40B0FATY8VH","37S0QRNUFB29SLTNXLPAM35NX0F88U","","","img/flower3.png","75","451.2999999523163","2","1","2","0.7,0.2,0,0,0.7,0.2,0.2,0,0.7",""
"null","","html-keyboard-response","225","190468","0.0-225.0","3PB5A5BD0WSM76SGXGEUPZMEFX67GO","A3I40B0FATY8VH","37S0QRNUFB29SLTNXLPAM35NX0F88U","","","<img src=""img/flower3.png"" style=""width:200px; border:14px solid green;"">","null","","","","","",""
"280.39999997615814","","image-keyboard-response","226","190749","0.0-226.0","3PB5A5BD0WSM76SGXGEUPZMEFX67GO","A3I40B0FATY8VH","37S0QRNUFB29SLTNXLPAM35NX0F88U","","","img/flower3.png","75","280.89999997615814","2","1","2","0.7,0.2,0,0,0.7,0.2,0.2,0,0.7",""
"null","","html-keyboard-response","227","191051","0.0-227.0","3PB5A5BD0WSM76SGXGEUPZMEFX67GO","A3I40B0FATY8VH","37S0QRNUFB29SLTNXLPAM35NX0F88U","","","<img src=""img/flower3.png"" style=""width:200px; border:14px solid green;"">","null","","","","","",""
"265.2000000476837","","image-keyboard-response","228","191318","0.0-228.0","3PB5A5BD0WSM76SGXGEUPZMEFX67GO","A3I40B0FATY8VH","37S0QRNUFB29SLTNXLPAM35NX0F88U","","","img/flower3.png","75","266.40000009536743","2","1","2","0.7,0.2,0,0,0.7,0.2,0.2,0,0.7",""
"null","","html-keyboard-response","229","191619","0.0-229.0","3PB5A5BD0WSM76SGXGEUPZMEFX67GO","A3I40B0FATY8VH","37S0QRNUFB29SLTNXLPAM35NX0F88U","","","<img src=""img/flower3.png"" style=""width:200px; border:14px solid green;"">","null","","","","","",""
"471.60000002384186","","image-keyboard-response","230","192093","0.0-230.0","3PB5A5BD0WSM76SGXGEUPZMEFX67GO","A3I40B0FATY8VH","37S0QRNUFB29SLTNXLPAM35NX0F88U","","","img/flower6.png","76","473.2000000476837","3","0","3","0.7,0.2,0,0,0.7,0.2,0.2,0,0.7",""
"null","","html-keyboard-response","231","192395","0.0-231.0","3PB5A5BD0WSM76SGXGEUPZMEFX67GO","A3I40B0FATY8VH","37S0QRNUFB29SLTNXLPAM35NX0F88U","","","<img src=""img/flower6.png"" style=""width:200px;border:14px solid red;"">","null","","","","","",""
"535.3000000715256","","image-keyboard-response","232","192931","0.0-232.0","3PB5A5BD0WSM76SGXGEUPZMEFX67GO","A3I40B0FATY8VH","37S0QRNUFB29SLTNXLPAM35NX0F88U","","","img/flower3.png","75","536","2","1","2","0.7,0.2,0,0,0.7,0.2,0.2,0,0.7",""
"null","","html-keyboard-response","233","193234","0.0-233.0","3PB5A5BD0WSM76SGXGEUPZMEFX67GO","A3I40B0FATY8VH","37S0QRNUFB29SLTNXLPAM35NX0F88U","","","<img src=""img/flower3.png"" style=""width:200px; border:14px solid green;"">","null","","","","","",""
"524.3000000715256","","image-keyboard-response","234","193760","0.0-234.0","3PB5A5BD0WSM76SGXGEUPZMEFX67GO","A3I40B0FATY8VH","37S0QRNUFB29SLTNXLPAM35NX0F88U","","","img/flower4.png","74","525.8000000715256","1","0","1","0.7,0.2,0,0,0.7,0.2,0.2,0,0.7",""
"null","","html-keyboard-response","235","194063","0.0-235.0","3PB5A5BD0WSM76SGXGEUPZMEFX67GO","A3I40B0FATY8VH","37S0QRNUFB29SLTNXLPAM35NX0F88U","","","<img src=""img/flower4.png"" style=""width:200px;border:14px solid red;"">","null","","","","","",""
"264.2000000476837","","image-keyboard-response","236","194329","0.0-236.0","3PB5A5BD0WSM76SGXGEUPZMEFX67GO","A3I40B0FATY8VH","37S0QRNUFB29SLTNXLPAM35NX0F88U","","","img/flower4.png","74","265.5","1","1","1","0.7,0.2,0,0,0.7,0.2,0.2,0,0.7",""
"null","","html-keyboard-response","237","194632","0.0-237.0","3PB5A5BD0WSM76SGXGEUPZMEFX67GO","A3I40B0FATY8VH","37S0QRNUFB29SLTNXLPAM35NX0F88U","","","<img src=""img/flower4.png"" style=""width:200px; border:14px solid green;"">","null","","","","","",""
"470.7999999523163","","image-keyboard-response","238","195104","0.0-238.0","3PB5A5BD0WSM76SGXGEUPZMEFX67GO","A3I40B0FATY8VH","37S0QRNUFB29SLTNXLPAM35NX0F88U","","","img/flower6.png","76","472.10000002384186","3","1","3","0.7,0.2,0,0,0.7,0.2,0.2,0,0.7",""
"null","","html-keyboard-response","239","195408","0.0-239.0","3PB5A5BD0WSM76SGXGEUPZMEFX67GO","A3I40B0FATY8VH","37S0QRNUFB29SLTNXLPAM35NX0F88U","","","<img src=""img/flower6.png"" style=""width:200px; border:14px solid green;"">","null","","","","","",""
"605.3999999761581","","image-keyboard-response","240","196014","0.0-240.0","3PB5A5BD0WSM76SGXGEUPZMEFX67GO","A3I40B0FATY8VH","37S0QRNUFB29SLTNXLPAM35NX0F88U","","","img/flower4.png","74","606.2999999523163","1","1","1","0.7,0.2,0,0,0.7,0.2,0.2,0,0.7",""
"null","","html-keyboard-response","241","196317","0.0-241.0","3PB5A5BD0WSM76SGXGEUPZMEFX67GO","A3I40B0FATY8VH","37S0QRNUFB29SLTNXLPAM35NX0F88U","","","<img src=""img/flower4.png"" style=""width:200px; border:14px solid green;"">","null","","","","","",""
"499.2000000476837","","image-keyboard-response","242","196818","0.0-242.0","3PB5A5BD0WSM76SGXGEUPZMEFX67GO","A3I40B0FATY8VH","37S0QRNUFB29SLTNXLPAM35NX0F88U","","","img/flower3.png","75","500.90000009536743","2","0","2","0.7,0.2,0,0,0.7,0.2,0.2,0,0.7",""
"null","","html-keyboard-response","243","197122","0.0-243.0","3PB5A5BD0WSM76SGXGEUPZMEFX67GO","A3I40B0FATY8VH","37S0QRNUFB29SLTNXLPAM35NX0F88U","","","<img src=""img/flower3.png"" style=""width:200px;border:14px solid red;"">","null","","","","","",""
"495.5","","image-keyboard-response","244","197619","0.0-244.0","3PB5A5BD0WSM76SGXGEUPZMEFX67GO","A3I40B0FATY8VH","37S0QRNUFB29SLTNXLPAM35NX0F88U","","","img/flower4.png","74","497","1","1","1","0.7,0.2,0,0,0.7,0.2,0.2,0,0.7",""
"null","","html-keyboard-response","245","197923","0.0-245.0","3PB5A5BD0WSM76SGXGEUPZMEFX67GO","A3I40B0FATY8VH","37S0QRNUFB29SLTNXLPAM35NX0F88U","","","<img src=""img/flower4.png"" style=""width:200px; border:14px solid green;"">","null","","","","","",""
"568.2000000476837","","image-keyboard-response","246","198493","0.0-246.0","3PB5A5BD0WSM76SGXGEUPZMEFX67GO","A3I40B0FATY8VH","37S0QRNUFB29SLTNXLPAM35NX0F88U","","","img/flower3.png","75","569.5","2","1","2","0.7,0.2,0,0,0.7,0.2,0.2,0,0.7",""
"null","","html-keyboard-response","247","198796","0.0-247.0","3PB5A5BD0WSM76SGXGEUPZMEFX67GO","A3I40B0FATY8VH","37S0QRNUFB29SLTNXLPAM35NX0F88U","","","<img src=""img/flower3.png"" style=""width:200px; border:14px solid green;"">","null","","","","","",""
"455.39999997615814","","image-keyboard-response","248","199253","0.0-248.0","3PB5A5BD0WSM76SGXGEUPZMEFX67GO","A3I40B0FATY8VH","37S0QRNUFB29SLTNXLPAM35NX0F88U","","","img/flower6.png","76","457","3","0","3","0.7,0.2,0,0,0.7,0.2,0.2,0,0.7",""
"null","","html-keyboard-response","249","199557","0.0-249.0","3PB5A5BD0WSM76SGXGEUPZMEFX67GO","A3I40B0FATY8VH","37S0QRNUFB29SLTNXLPAM35NX0F88U","","","<img src=""img/flower6.png"" style=""width:200px;border:14px solid red;"">","null","","","","","",""
"444.2999999523163","","image-keyboard-response","250","200002","0.0-250.0","3PB5A5BD0WSM76SGXGEUPZMEFX67GO","A3I40B0FATY8VH","37S0QRNUFB29SLTNXLPAM35NX0F88U","","","img/flower3.png","75","445.39999997615814","2","1","2","0.7,0.2,0,0,0.7,0.2,0.2,0,0.7",""
"null","","html-keyboard-response","251","200305","0.0-251.0","3PB5A5BD0WSM76SGXGEUPZMEFX67GO","A3I40B0FATY8VH","37S0QRNUFB29SLTNXLPAM35NX0F88U","","","<img src=""img/flower3.png"" style=""width:200px; border:14px solid green;"">","null","","","","","",""
"338.2000000476837","","image-keyboard-response","252","200644","0.0-252.0","3PB5A5BD0WSM76SGXGEUPZMEFX67GO","A3I40B0FATY8VH","37S0QRNUFB29SLTNXLPAM35NX0F88U","","","img/flower3.png","75","339.10000002384186","2","1","2","0.7,0.2,0,0,0.7,0.2,0.2,0,0.7",""
"null","","html-keyboard-response","253","200947","0.0-253.0","3PB5A5BD0WSM76SGXGEUPZMEFX67GO","A3I40B0FATY8VH","37S0QRNUFB29SLTNXLPAM35NX0F88U","","","<img src=""img/flower3.png"" style=""width:200px; border:14px solid green;"">","null","","","","","",""
"449.89999997615814","","image-keyboard-response","254","201398","0.0-254.0","3PB5A5BD0WSM76SGXGEUPZMEFX67GO","A3I40B0FATY8VH","37S0QRNUFB29SLTNXLPAM35NX0F88U","","","img/flower6.png","76","450.7999999523163","3","1","3","0.7,0.2,0,0,0.7,0.2,0.2,0,0.7",""
"null","","html-keyboard-response","255","201701","0.0-255.0","3PB5A5BD0WSM76SGXGEUPZMEFX67GO","A3I40B0FATY8VH","37S0QRNUFB29SLTNXLPAM35NX0F88U","","","<img src=""img/flower6.png"" style=""width:200px; border:14px solid green;"">","null","","","","","",""
"324.7000000476837","","image-keyboard-response","256","202028","0.0-256.0","3PB5A5BD0WSM76SGXGEUPZMEFX67GO","A3I40B0FATY8VH","37S0QRNUFB29SLTNXLPAM35NX0F88U","","","img/flower6.png","76","326.39999997615814","3","1","3","0.7,0.2,0,0,0.7,0.2,0.2,0,0.7",""
"null","","html-keyboard-response","257","202331","0.0-257.0","3PB5A5BD0WSM76SGXGEUPZMEFX67GO","A3I40B0FATY8VH","37S0QRNUFB29SLTNXLPAM35NX0F88U","","","<img src=""img/flower6.png"" style=""width:200px; border:14px solid green;"">","null","","","","","",""
"452.60000002384186","","image-keyboard-response","258","202784","0.0-258.0","3PB5A5BD0WSM76SGXGEUPZMEFX67GO","A3I40B0FATY8VH","37S0QRNUFB29SLTNXLPAM35NX0F88U","","","img/flower4.png","74","453.2999999523163","1","1","1","0.7,0.2,0,0,0.7,0.2,0.2,0,0.7",""
"null","","html-keyboard-response","259","203086","0.0-259.0","3PB5A5BD0WSM76SGXGEUPZMEFX67GO","A3I40B0FATY8VH","37S0QRNUFB29SLTNXLPAM35NX0F88U","","","<img src=""img/flower4.png"" style=""width:200px; border:14px solid green;"">","null","","","","","",""
"1142.5","","image-keyboard-response","260","204230","0.0-260.0","3PB5A5BD0WSM76SGXGEUPZMEFX67GO","A3I40B0FATY8VH","37S0QRNUFB29SLTNXLPAM35NX0F88U","","","img/flower6.png","76","1143.1999999284744","3","1","3","0.7,0.2,0,0,0.7,0.2,0.2,0,0.7",""
"null","","html-keyboard-response","261","204532","0.0-261.0","3PB5A5BD0WSM76SGXGEUPZMEFX67GO","A3I40B0FATY8VH","37S0QRNUFB29SLTNXLPAM35NX0F88U","","","<img src=""img/flower6.png"" style=""width:200px; border:14px solid green;"">","null","","","","","",""
"532.7000000476837","","image-keyboard-response","262","205066","0.0-262.0","3PB5A5BD0WSM76SGXGEUPZMEFX67GO","A3I40B0FATY8VH","37S0QRNUFB29SLTNXLPAM35NX0F88U","","","img/flower3.png","75","533.3999999761581","2","1","2","0.7,0.2,0,0,0.7,0.2,0.2,0,0.7",""
"null","","html-keyboard-response","263","205370","0.0-263.0","3PB5A5BD0WSM76SGXGEUPZMEFX67GO","A3I40B0FATY8VH","37S0QRNUFB29SLTNXLPAM35NX0F88U","","","<img src=""img/flower3.png"" style=""width:200px; border:14px solid green;"">","null","","","","","",""
"274.89999997615814","","image-keyboard-response","264","205646","0.0-264.0","3PB5A5BD0WSM76SGXGEUPZMEFX67GO","A3I40B0FATY8VH","37S0QRNUFB29SLTNXLPAM35NX0F88U","","","img/flower3.png","75","275.7999999523163","2","1","2","0.7,0.2,0,0,0.7,0.2,0.2,0,0.7",""
"null","","html-keyboard-response","265","205950","0.0-265.0","3PB5A5BD0WSM76SGXGEUPZMEFX67GO","A3I40B0FATY8VH","37S0QRNUFB29SLTNXLPAM35NX0F88U","","","<img src=""img/flower3.png"" style=""width:200px; border:14px solid green;"">","null","","","","","",""
"386.2999999523163","","image-keyboard-response","266","206336","0.0-266.0","3PB5A5BD0WSM76SGXGEUPZMEFX67GO","A3I40B0FATY8VH","37S0QRNUFB29SLTNXLPAM35NX0F88U","","","img/flower4.png","74","386.6999999284744","1","1","1","0.7,0.2,0,0,0.7,0.2,0.2,0,0.7",""
"null","","html-keyboard-response","267","206638","0.0-267.0","3PB5A5BD0WSM76SGXGEUPZMEFX67GO","A3I40B0FATY8VH","37S0QRNUFB29SLTNXLPAM35NX0F88U","","","<img src=""img/flower4.png"" style=""width:200px; border:14px solid green;"">","null","","","","","",""
"287.7999999523163","","image-keyboard-response","268","206928","0.0-268.0","3PB5A5BD0WSM76SGXGEUPZMEFX67GO","A3I40B0FATY8VH","37S0QRNUFB29SLTNXLPAM35NX0F88U","","","img/flower4.png","74","288.89999997615814","1","1","1","0.7,0.2,0,0,0.7,0.2,0.2,0,0.7",""
"null","","html-keyboard-response","269","207229","0.0-269.0","3PB5A5BD0WSM76SGXGEUPZMEFX67GO","A3I40B0FATY8VH","37S0QRNUFB29SLTNXLPAM35NX0F88U","","","<img src=""img/flower4.png"" style=""width:200px; border:14px solid green;"">","null","","","","","",""
"469.60000002384186","","image-keyboard-response","270","207701","0.0-270.0","3PB5A5BD0WSM76SGXGEUPZMEFX67GO","A3I40B0FATY8VH","37S0QRNUFB29SLTNXLPAM35NX0F88U","","","img/flower3.png","75","471","2","0","2","0.7,0.2,0,0,0.7,0.2,0.2,0,0.7",""
"null","","html-keyboard-response","271","208003","0.0-271.0","3PB5A5BD0WSM76SGXGEUPZMEFX67GO","A3I40B0FATY8VH","37S0QRNUFB29SLTNXLPAM35NX0F88U","","","<img src=""img/flower3.png"" style=""width:200px;border:14px solid red;"">","null","","","","","",""
"237.10000002384186","","image-keyboard-response","272","208242","0.0-272.0","3PB5A5BD0WSM76SGXGEUPZMEFX67GO","A3I40B0FATY8VH","37S0QRNUFB29SLTNXLPAM35NX0F88U","","","img/flower3.png","75","238.5","2","1","2","0.7,0.2,0,0,0.7,0.2,0.2,0,0.7",""
"null","","html-keyboard-response","273","208544","0.0-273.0","3PB5A5BD0WSM76SGXGEUPZMEFX67GO","A3I40B0FATY8VH","37S0QRNUFB29SLTNXLPAM35NX0F88U","","","<img src=""img/flower3.png"" style=""width:200px; border:14px solid green;"">","null","","","","","",""
"476.60000002384186","","image-keyboard-response","274","209021","0.0-274.0","3PB5A5BD0WSM76SGXGEUPZMEFX67GO","A3I40B0FATY8VH","37S0QRNUFB29SLTNXLPAM35NX0F88U","","","img/flower6.png","76","477.3000000715256","3","1","3","0.7,0.2,0,0,0.7,0.2,0.2,0,0.7",""
"null","","html-keyboard-response","275","209323","0.0-275.0","3PB5A5BD0WSM76SGXGEUPZMEFX67GO","A3I40B0FATY8VH","37S0QRNUFB29SLTNXLPAM35NX0F88U","","","<img src=""img/flower6.png"" style=""width:200px; border:14px solid green;"">","null","","","","","",""
"323.40000009536743","","image-keyboard-response","276","209647","0.0-276.0","3PB5A5BD0WSM76SGXGEUPZMEFX67GO","A3I40B0FATY8VH","37S0QRNUFB29SLTNXLPAM35NX0F88U","","","img/flower6.png","76","324.1999999284744","3","0","3","0.7,0.2,0,0,0.7,0.2,0.2,0,0.7",""
"null","","html-keyboard-response","277","209951","0.0-277.0","3PB5A5BD0WSM76SGXGEUPZMEFX67GO","A3I40B0FATY8VH","37S0QRNUFB29SLTNXLPAM35NX0F88U","","","<img src=""img/flower6.png"" style=""width:200px;border:14px solid red;"">","null","","","","","",""
"385.39999997615814","","image-keyboard-response","278","210337","0.0-278.0","3PB5A5BD0WSM76SGXGEUPZMEFX67GO","A3I40B0FATY8VH","37S0QRNUFB29SLTNXLPAM35NX0F88U","","","img/flower6.png","76","385.8000000715256","3","0","3","0.7,0.2,0,0,0.7,0.2,0.2,0,0.7",""
"null","","html-keyboard-response","279","210638","0.0-279.0","3PB5A5BD0WSM76SGXGEUPZMEFX67GO","A3I40B0FATY8VH","37S0QRNUFB29SLTNXLPAM35NX0F88U","","","<img src=""img/flower6.png"" style=""width:200px;border:14px solid red;"">","null","","","","","",""
"180.60000002384186","","image-keyboard-response","280","210821","0.0-280.0","3PB5A5BD0WSM76SGXGEUPZMEFX67GO","A3I40B0FATY8VH","37S0QRNUFB29SLTNXLPAM35NX0F88U","","","img/flower3.png","76","182.20000004768372","3","1","2","0.7,0.2,0,0,0.7,0.2,0.2,0,0.7",""
"null","","html-keyboard-response","281","211124","0.0-281.0","3PB5A5BD0WSM76SGXGEUPZMEFX67GO","A3I40B0FATY8VH","37S0QRNUFB29SLTNXLPAM35NX0F88U","","","<img src=""img/flower3.png"" style=""width:200px; border:14px solid green;"">","null","","","","","",""
"906.5","","image-keyboard-response","282","212032","0.0-282.0","3PB5A5BD0WSM76SGXGEUPZMEFX67GO","A3I40B0FATY8VH","37S0QRNUFB29SLTNXLPAM35NX0F88U","","","img/flower4.png","75","907.6000000238419","2","0","1","0.7,0.2,0,0,0.7,0.2,0.2,0,0.7",""
"null","","html-keyboard-response","283","212334","0.0-283.0","3PB5A5BD0WSM76SGXGEUPZMEFX67GO","A3I40B0FATY8VH","37S0QRNUFB29SLTNXLPAM35NX0F88U","","","<img src=""img/flower4.png"" style=""width:200px;border:14px solid red;"">","null","","","","","",""
"590.3999999761581","","image-keyboard-response","284","212927","0.0-284.0","3PB5A5BD0WSM76SGXGEUPZMEFX67GO","A3I40B0FATY8VH","37S0QRNUFB29SLTNXLPAM35NX0F88U","","","img/flower4.png","75","591.7999999523163","2","1","1","0.7,0.2,0,0,0.7,0.2,0.2,0,0.7",""
"null","","html-keyboard-response","285","213231","0.0-285.0","3PB5A5BD0WSM76SGXGEUPZMEFX67GO","A3I40B0FATY8VH","37S0QRNUFB29SLTNXLPAM35NX0F88U","","","<img src=""img/flower4.png"" style=""width:200px; border:14px solid green;"">","null","","","","","",""
"588.7000000476837","","image-keyboard-response","286","213821","0.0-286.0","3PB5A5BD0WSM76SGXGEUPZMEFX67GO","A3I40B0FATY8VH","37S0QRNUFB29SLTNXLPAM35NX0F88U","","","img/flower4.png","75","589.9000000953674","2","0","1","0.7,0.2,0,0,0.7,0.2,0.2,0,0.7",""
"null","","html-keyboard-response","287","214125","0.0-287.0","3PB5A5BD0WSM76SGXGEUPZMEFX67GO","A3I40B0FATY8VH","37S0QRNUFB29SLTNXLPAM35NX0F88U","","","<img src=""img/flower4.png"" style=""width:200px;border:14px solid red;"">","null","","","","","",""
"298.39999997615814","","image-keyboard-response","288","214425","0.0-288.0","3PB5A5BD0WSM76SGXGEUPZMEFX67GO","A3I40B0FATY8VH","37S0QRNUFB29SLTNXLPAM35NX0F88U","","","img/flower4.png","74","299.7000000476837","1","1","1","0.7,0.2,0,0,0.7,0.2,0.2,0,0.7",""
"null","","html-keyboard-response","289","214727","0.0-289.0","3PB5A5BD0WSM76SGXGEUPZMEFX67GO","A3I40B0FATY8VH","37S0QRNUFB29SLTNXLPAM35NX0F88U","","","<img src=""img/flower4.png"" style=""width:200px; border:14px solid green;"">","null","","","","","",""
"491.5","","image-keyboard-response","290","215219","0.0-290.0","3PB5A5BD0WSM76SGXGEUPZMEFX67GO","A3I40B0FATY8VH","37S0QRNUFB29SLTNXLPAM35NX0F88U","","","img/flower6.png","76","492.2999999523163","3","1","3","0.7,0.2,0,0,0.7,0.2,0.2,0,0.7",""
"null","","html-keyboard-response","291","215523","0.0-291.0","3PB5A5BD0WSM76SGXGEUPZMEFX67GO","A3I40B0FATY8VH","37S0QRNUFB29SLTNXLPAM35NX0F88U","","","<img src=""img/flower6.png"" style=""width:200px; border:14px solid green;"">","null","","","","","",""
"330.39999997615814","","image-keyboard-response","292","215855","0.0-292.0","3PB5A5BD0WSM76SGXGEUPZMEFX67GO","A3I40B0FATY8VH","37S0QRNUFB29SLTNXLPAM35NX0F88U","","","img/flower6.png","76","331.89999997615814","3","1","3","0.7,0.2,0,0,0.7,0.2,0.2,0,0.7",""
"null","","html-keyboard-response","293","216157","0.0-293.0","3PB5A5BD0WSM76SGXGEUPZMEFX67GO","A3I40B0FATY8VH","37S0QRNUFB29SLTNXLPAM35NX0F88U","","","<img src=""img/flower6.png"" style=""width:200px; border:14px solid green;"">","null","","","","","",""
"501.5","","image-keyboard-response","294","216660","0.0-294.0","3PB5A5BD0WSM76SGXGEUPZMEFX67GO","A3I40B0FATY8VH","37S0QRNUFB29SLTNXLPAM35NX0F88U","","","img/flower3.png","75","502.60000002384186","2","1","2","0.7,0.2,0,0,0.7,0.2,0.2,0,0.7",""
"null","","html-keyboard-response","295","216963","0.0-295.0","3PB5A5BD0WSM76SGXGEUPZMEFX67GO","A3I40B0FATY8VH","37S0QRNUFB29SLTNXLPAM35NX0F88U","","","<img src=""img/flower3.png"" style=""width:200px; border:14px solid green;"">","null","","","","","",""
"329.5","","image-keyboard-response","296","217294","0.0-296.0","3PB5A5BD0WSM76SGXGEUPZMEFX67GO","A3I40B0FATY8VH","37S0QRNUFB29SLTNXLPAM35NX0F88U","","","img/flower3.png","75","331.3000000715256","2","1","2","0.7,0.2,0,0,0.7,0.2,0.2,0,0.7",""
"null","","html-keyboard-response","297","217597","0.0-297.0","3PB5A5BD0WSM76SGXGEUPZMEFX67GO","A3I40B0FATY8VH","37S0QRNUFB29SLTNXLPAM35NX0F88U","","","<img src=""img/flower3.png"" style=""width:200px; border:14px solid green;"">","null","","","","","",""
"537.8999999761581","","image-keyboard-response","298","218137","0.0-298.0","3PB5A5BD0WSM76SGXGEUPZMEFX67GO","A3I40B0FATY8VH","37S0QRNUFB29SLTNXLPAM35NX0F88U","","","img/flower3.png","75","539.3999999761581","2","0","2","0.7,0.2,0,0,0.7,0.2,0.2,0,0.7",""
"null","","html-keyboard-response","299","218440","0.0-299.0","3PB5A5BD0WSM76SGXGEUPZMEFX67GO","A3I40B0FATY8VH","37S0QRNUFB29SLTNXLPAM35NX0F88U","","","<img src=""img/flower3.png"" style=""width:200px;border:14px solid red;"">","null","","","","","",""
"445.2000000476837","","image-keyboard-response","300","218885","0.0-300.0","3PB5A5BD0WSM76SGXGEUPZMEFX67GO","A3I40B0FATY8VH","37S0QRNUFB29SLTNXLPAM35NX0F88U","","","img/flower4.png","74","445.59999990463257","1","0","1","0.7,0.2,0,0,0.7,0.2,0.2,0,0.7",""
"null","","html-keyboard-response","301","219188","0.0-301.0","3PB5A5BD0WSM76SGXGEUPZMEFX67GO","A3I40B0FATY8VH","37S0QRNUFB29SLTNXLPAM35NX0F88U","","","<img src=""img/flower4.png"" style=""width:200px;border:14px solid red;"">","null","","","","","",""
"255.60000002384186","","image-keyboard-response","302","219445","0.0-302.0","3PB5A5BD0WSM76SGXGEUPZMEFX67GO","A3I40B0FATY8VH","37S0QRNUFB29SLTNXLPAM35NX0F88U","","","img/flower6.png","74","256.7999999523163","1","1","3","0.7,0.2,0,0,0.7,0.2,0.2,0,0.7",""
"null","","html-keyboard-response","303","219747","0.0-303.0","3PB5A5BD0WSM76SGXGEUPZMEFX67GO","A3I40B0FATY8VH","37S0QRNUFB29SLTNXLPAM35NX0F88U","","","<img src=""img/flower6.png"" style=""width:200px; border:14px solid green;"">","null","","","","","",""
"568.1000000238419","","image-keyboard-response","304","220317","0.0-304.0","3PB5A5BD0WSM76SGXGEUPZMEFX67GO","A3I40B0FATY8VH","37S0QRNUFB29SLTNXLPAM35NX0F88U","","","img/flower6.png","76","569.6999999284744","3","1","3","0.7,0.2,0,0,0.7,0.2,0.2,0,0.7",""
"null","","html-keyboard-response","305","220620","0.0-305.0","3PB5A5BD0WSM76SGXGEUPZMEFX67GO","A3I40B0FATY8VH","37S0QRNUFB29SLTNXLPAM35NX0F88U","","","<img src=""img/flower6.png"" style=""width:200px; border:14px solid green;"">","null","","","","","",""
"","","html-keyboard-response","306","223908","0.0-306.0","3PB5A5BD0WSM76SGXGEUPZMEFX67GO","A3I40B0FATY8VH","37S0QRNUFB29SLTNXLPAM35NX0F88U","","","","","","","","","",""
"1185.7000000476837","","image-keyboard-response","307","225095","0.0-307.0","3PB5A5BD0WSM76SGXGEUPZMEFX67GO","A3I40B0FATY8VH","37S0QRNUFB29SLTNXLPAM35NX0F88U","","","img/flower1.png","76","1186.3999999761581","3","0","2","0.7,0.2,0,0.7,0,0.2,0.2,0,0.7",""
"null","","html-keyboard-response","308","225398","0.0-308.0","3PB5A5BD0WSM76SGXGEUPZMEFX67GO","A3I40B0FATY8VH","37S0QRNUFB29SLTNXLPAM35NX0F88U","","","<img src=""img/flower1.png"" style=""width:200px;border:14px solid red;"">","null","","","","","",""
"449.39999997615814","","image-keyboard-response","309","225848","0.0-309.0","3PB5A5BD0WSM76SGXGEUPZMEFX67GO","A3I40B0FATY8VH","37S0QRNUFB29SLTNXLPAM35NX0F88U","","","img/flower1.png","75","450.09999990463257","2","0","2","0.7,0.2,0,0.7,0,0.2,0.2,0,0.7",""
"null","","html-keyboard-response","310","226151","0.0-310.0","3PB5A5BD0WSM76SGXGEUPZMEFX67GO","A3I40B0FATY8VH","37S0QRNUFB29SLTNXLPAM35NX0F88U","","","<img src=""img/flower1.png"" style=""width:200px;border:14px solid red;"">","null","","","","","",""
"730.3999999761581","","image-keyboard-response","311","226883","0.0-311.0","3PB5A5BD0WSM76SGXGEUPZMEFX67GO","A3I40B0FATY8VH","37S0QRNUFB29SLTNXLPAM35NX0F88U","","","img/flower1.png","76","731.5","3","0","2","0.7,0.2,0,0.7,0,0.2,0.2,0,0.7",""
"null","","html-keyboard-response","312","227186","0.0-312.0","3PB5A5BD0WSM76SGXGEUPZMEFX67GO","A3I40B0FATY8VH","37S0QRNUFB29SLTNXLPAM35NX0F88U","","","<img src=""img/flower1.png"" style=""width:200px;border:14px solid red;"">","null","","","","","",""
"251.39999997615814","","image-keyboard-response","313","227438","0.0-313.0","3PB5A5BD0WSM76SGXGEUPZMEFX67GO","A3I40B0FATY8VH","37S0QRNUFB29SLTNXLPAM35NX0F88U","","","img/flower1.png","75","252","2","0","2","0.7,0.2,0,0.7,0,0.2,0.2,0,0.7",""
"null","","html-keyboard-response","314","227741","0.0-314.0","3PB5A5BD0WSM76SGXGEUPZMEFX67GO","A3I40B0FATY8VH","37S0QRNUFB29SLTNXLPAM35NX0F88U","","","<img src=""img/flower1.png"" style=""width:200px;border:14px solid red;"">","null","","","","","",""
"545.1000000238419","","image-keyboard-response","315","228287","0.0-315.0","3PB5A5BD0WSM76SGXGEUPZMEFX67GO","A3I40B0FATY8VH","37S0QRNUFB29SLTNXLPAM35NX0F88U","","","img/flower1.png","74","545.7999999523163","1","1","2","0.7,0.2,0,0.7,0,0.2,0.2,0,0.7",""
"null","","html-keyboard-response","316","228588","0.0-316.0","3PB5A5BD0WSM76SGXGEUPZMEFX67GO","A3I40B0FATY8VH","37S0QRNUFB29SLTNXLPAM35NX0F88U","","","<img src=""img/flower1.png"" style=""width:200px; border:14px solid green;"">","null","","","","","",""
"337.1999999284744","","image-keyboard-response","317","228927","0.0-317.0","3PB5A5BD0WSM76SGXGEUPZMEFX67GO","A3I40B0FATY8VH","37S0QRNUFB29SLTNXLPAM35NX0F88U","","","img/flower1.png","74","338.5","1","0","2","0.7,0.2,0,0.7,0,0.2,0.2,0,0.7",""
"null","","html-keyboard-response","318","229231","0.0-318.0","3PB5A5BD0WSM76SGXGEUPZMEFX67GO","A3I40B0FATY8VH","37S0QRNUFB29SLTNXLPAM35NX0F88U","","","<img src=""img/flower1.png"" style=""width:200px;border:14px solid red;"">","null","","","","","",""
"153.5","","image-keyboard-response","319","229386","0.0-319.0","3PB5A5BD0WSM76SGXGEUPZMEFX67GO","A3I40B0FATY8VH","37S0QRNUFB29SLTNXLPAM35NX0F88U","","","img/flower2.png","74","154.70000004768372","1","0","3","0.7,0.2,0,0.7,0,0.2,0.2,0,0.7",""
"null","","html-keyboard-response","320","229688","0.0-320.0","3PB5A5BD0WSM76SGXGEUPZMEFX67GO","A3I40B0FATY8VH","37S0QRNUFB29SLTNXLPAM35NX0F88U","","","<img src=""img/flower2.png"" style=""width:200px;border:14px solid red;"">","null","","","","","",""
"952.0999999046326","","image-keyboard-response","321","230641","0.0-321.0","3PB5A5BD0WSM76SGXGEUPZMEFX67GO","A3I40B0FATY8VH","37S0QRNUFB29SLTNXLPAM35NX0F88U","","","img/flower5.png","75","952.8999999761581","2","1","1","0.7,0.2,0,0.7,0,0.2,0.2,0,0.7",""
"null","","html-keyboard-response","322","230944","0.0-322.0","3PB5A5BD0WSM76SGXGEUPZMEFX67GO","A3I40B0FATY8VH","37S0QRNUFB29SLTNXLPAM35NX0F88U","","","<img src=""img/flower5.png"" style=""width:200px; border:14px solid green;"">","null","","","","","",""
"604.8999999761581","","image-keyboard-response","323","231551","0.0-323.0","3PB5A5BD0WSM76SGXGEUPZMEFX67GO","A3I40B0FATY8VH","37S0QRNUFB29SLTNXLPAM35NX0F88U","","","img/flower1.png","74","606.3999999761581","1","0","2","0.7,0.2,0,0.7,0,0.2,0.2,0,0.7",""
"null","","html-keyboard-response","324","231853","0.0-324.0","3PB5A5BD0WSM76SGXGEUPZMEFX67GO","A3I40B0FATY8VH","37S0QRNUFB29SLTNXLPAM35NX0F88U","","","<img src=""img/flower1.png"" style=""width:200px;border:14px solid red;"">","null","","","","","",""
"389.7999999523163","","image-keyboard-response","325","232245","0.0-325.0","3PB5A5BD0WSM76SGXGEUPZMEFX67GO","A3I40B0FATY8VH","37S0QRNUFB29SLTNXLPAM35NX0F88U","","","img/flower1.png","74","391.1999999284744","1","1","2","0.7,0.2,0,0.7,0,0.2,0.2,0,0.7",""
"null","","html-keyboard-response","326","232547","0.0-326.0","3PB5A5BD0WSM76SGXGEUPZMEFX67GO","A3I40B0FATY8VH","37S0QRNUFB29SLTNXLPAM35NX0F88U","","","<img src=""img/flower1.png"" style=""width:200px; border:14px solid green;"">","null","","","","","",""
"960.3000000715256","","image-keyboard-response","327","233509","0.0-327.0","3PB5A5BD0WSM76SGXGEUPZMEFX67GO","A3I40B0FATY8VH","37S0QRNUFB29SLTNXLPAM35NX0F88U","","","img/flower2.png","75","961.5","2","0","3","0.7,0.2,0,0.7,0,0.2,0.2,0,0.7",""
"null","","html-keyboard-response","328","233811","0.0-328.0","3PB5A5BD0WSM76SGXGEUPZMEFX67GO","A3I40B0FATY8VH","37S0QRNUFB29SLTNXLPAM35NX0F88U","","","<img src=""img/flower2.png"" style=""width:200px;border:14px solid red;"">","null","","","","","",""
"607.5","","image-keyboard-response","329","234420","0.0-329.0","3PB5A5BD0WSM76SGXGEUPZMEFX67GO","A3I40B0FATY8VH","37S0QRNUFB29SLTNXLPAM35NX0F88U","","","img/flower5.png","75","608.5","2","0","1","0.7,0.2,0,0.7,0,0.2,0.2,0,0.7",""
"null","","html-keyboard-response","330","234721","0.0-330.0","3PB5A5BD0WSM76SGXGEUPZMEFX67GO","A3I40B0FATY8VH","37S0QRNUFB29SLTNXLPAM35NX0F88U","","","<img src=""img/flower5.png"" style=""width:200px;border:14px solid red;"">","null","","","","","",""
"487.2000000476837","","image-keyboard-response","331","235210","0.0-331.0","3PB5A5BD0WSM76SGXGEUPZMEFX67GO","A3I40B0FATY8VH","37S0QRNUFB29SLTNXLPAM35NX0F88U","","","img/flower2.png","76","488.40000009536743","3","1","3","0.7,0.2,0,0.7,0,0.2,0.2,0,0.7",""
"null","","html-keyboard-response","332","235512","0.0-332.0","3PB5A5BD0WSM76SGXGEUPZMEFX67GO","A3I40B0FATY8VH","37S0QRNUFB29SLTNXLPAM35NX0F88U","","","<img src=""img/flower2.png"" style=""width:200px; border:14px solid green;"">","null","","","","","",""
"572.7000000476837","","image-keyboard-response","333","236086","0.0-333.0","3PB5A5BD0WSM76SGXGEUPZMEFX67GO","A3I40B0FATY8VH","37S0QRNUFB29SLTNXLPAM35NX0F88U","","","img/flower1.png","75","574.2000000476837","2","0","2","0.7,0.2,0,0.7,0,0.2,0.2,0,0.7",""
"null","","html-keyboard-response","334","236388","0.0-334.0","3PB5A5BD0WSM76SGXGEUPZMEFX67GO","A3I40B0FATY8VH","37S0QRNUFB29SLTNXLPAM35NX0F88U","","","<img src=""img/flower1.png"" style=""width:200px;border:14px solid red;"">","null","","","","","",""
"414.60000002384186","","image-keyboard-response","335","236804","0.0-335.0","3PB5A5BD0WSM76SGXGEUPZMEFX67GO","A3I40B0FATY8VH","37S0QRNUFB29SLTNXLPAM35NX0F88U","","","img/flower1.png","75","415.8000000715256","2","0","2","0.7,0.2,0,0.7,0,0.2,0.2,0,0.7",""
"null","","html-keyboard-response","336","237106","0.0-336.0","3PB5A5BD0WSM76SGXGEUPZMEFX67GO","A3I40B0FATY8VH","37S0QRNUFB29SLTNXLPAM35NX0F88U","","","<img src=""img/flower1.png"" style=""width:200px;border:14px solid red;"">","null","","","","","",""
"670.5","","image-keyboard-response","337","237777","0.0-337.0","3PB5A5BD0WSM76SGXGEUPZMEFX67GO","A3I40B0FATY8VH","37S0QRNUFB29SLTNXLPAM35NX0F88U","","","img/flower5.png","75","670.8999999761581","2","0","1","0.7,0.2,0,0.7,0,0.2,0.2,0,0.7",""
"null","","html-keyboard-response","338","238080","0.0-338.0","3PB5A5BD0WSM76SGXGEUPZMEFX67GO","A3I40B0FATY8VH","37S0QRNUFB29SLTNXLPAM35NX0F88U","","","<img src=""img/flower5.png"" style=""width:200px;border:14px solid red;"">","null","","","","","",""
"425.60000002384186","","image-keyboard-response","339","238507","0.0-339.0","3PB5A5BD0WSM76SGXGEUPZMEFX67GO","A3I40B0FATY8VH","37S0QRNUFB29SLTNXLPAM35NX0F88U","","","img/flower1.png","76","427.10000002384186","3","1","2","0.7,0.2,0,0.7,0,0.2,0.2,0,0.7",""
"null","","html-keyboard-response","340","238811","0.0-340.0","3PB5A5BD0WSM76SGXGEUPZMEFX67GO","A3I40B0FATY8VH","37S0QRNUFB29SLTNXLPAM35NX0F88U","","","<img src=""img/flower1.png"" style=""width:200px; border:14px solid green;"">","null","","","","","",""
"617.7999999523163","","image-keyboard-response","341","239429","0.0-341.0","3PB5A5BD0WSM76SGXGEUPZMEFX67GO","A3I40B0FATY8VH","37S0QRNUFB29SLTNXLPAM35NX0F88U","","","img/flower2.png","76","618.2999999523163","3","1","3","0.7,0.2,0,0.7,0,0.2,0.2,0,0.7",""
"null","","html-keyboard-response","342","239730","0.0-342.0","3PB5A5BD0WSM76SGXGEUPZMEFX67GO","A3I40B0FATY8VH","37S0QRNUFB29SLTNXLPAM35NX0F88U","","","<img src=""img/flower2.png"" style=""width:200px; border:14px solid green;"">","null","","","","","",""
"360.3000000715256","","image-keyboard-response","343","240092","0.0-343.0","3PB5A5BD0WSM76SGXGEUPZMEFX67GO","A3I40B0FATY8VH","37S0QRNUFB29SLTNXLPAM35NX0F88U","","","img/flower2.png","76","361.8000000715256","3","1","3","0.7,0.2,0,0.7,0,0.2,0.2,0,0.7",""
"null","","html-keyboard-response","344","240397","0.0-344.0","3PB5A5BD0WSM76SGXGEUPZMEFX67GO","A3I40B0FATY8VH","37S0QRNUFB29SLTNXLPAM35NX0F88U","","","<img src=""img/flower2.png"" style=""width:200px; border:14px solid green;"">","null","","","","","",""
"250.10000002384186","","image-keyboard-response","345","240649","0.0-345.0","3PB5A5BD0WSM76SGXGEUPZMEFX67GO","A3I40B0FATY8VH","37S0QRNUFB29SLTNXLPAM35NX0F88U","","","img/flower2.png","76","252","3","0","3","0.7,0.2,0,0.7,0,0.2,0.2,0,0.7",""
"null","","html-keyboard-response","346","240952","0.0-346.0","3PB5A5BD0WSM76SGXGEUPZMEFX67GO","A3I40B0FATY8VH","37S0QRNUFB29SLTNXLPAM35NX0F88U","","","<img src=""img/flower2.png"" style=""width:200px;border:14px solid red;"">","null","","","","","",""
"510.6999999284744","","image-keyboard-response","347","241464","0.0-347.0","3PB5A5BD0WSM76SGXGEUPZMEFX67GO","A3I40B0FATY8VH","37S0QRNUFB29SLTNXLPAM35NX0F88U","","","img/flower2.png","76","511.89999997615814","3","1","3","0.7,0.2,0,0.7,0,0.2,0.2,0,0.7",""
"null","","html-keyboard-response","348","241766","0.0-348.0","3PB5A5BD0WSM76SGXGEUPZMEFX67GO","A3I40B0FATY8VH","37S0QRNUFB29SLTNXLPAM35NX0F88U","","","<img src=""img/flower2.png"" style=""width:200px; border:14px solid green;"">","null","","","","","",""
"823.3000000715256","","image-keyboard-response","349","242591","0.0-349.0","3PB5A5BD0WSM76SGXGEUPZMEFX67GO","A3I40B0FATY8VH","37S0QRNUFB29SLTNXLPAM35NX0F88U","","","img/flower5.png","76","825","3","0","1","0.7,0.2,0,0.7,0,0.2,0.2,0,0.7",""
"null","","html-keyboard-response","350","242895","0.0-350.0","3PB5A5BD0WSM76SGXGEUPZMEFX67GO","A3I40B0FATY8VH","37S0QRNUFB29SLTNXLPAM35NX0F88U","","","<img src=""img/flower5.png"" style=""width:200px;border:14px solid red;"">","null","","","","","",""
"326.89999997615814","","image-keyboard-response","351","243223","0.0-351.0","3PB5A5BD0WSM76SGXGEUPZMEFX67GO","A3I40B0FATY8VH","37S0QRNUFB29SLTNXLPAM35NX0F88U","","","img/flower5.png","76","327.89999997615814","3","0","1","0.7,0.2,0,0.7,0,0.2,0.2,0,0.7",""
"null","","html-keyboard-response","352","243527","0.0-352.0","3PB5A5BD0WSM76SGXGEUPZMEFX67GO","A3I40B0FATY8VH","37S0QRNUFB29SLTNXLPAM35NX0F88U","","","<img src=""img/flower5.png"" style=""width:200px;border:14px solid red;"">","null","","","","","",""
"1090.5","","image-keyboard-response","353","244618","0.0-353.0","3PB5A5BD0WSM76SGXGEUPZMEFX67GO","A3I40B0FATY8VH","37S0QRNUFB29SLTNXLPAM35NX0F88U","","","img/flower1.png","76","1091.2999999523163","3","0","2","0.7,0.2,0,0.7,0,0.2,0.2,0,0.7",""
"null","","html-keyboard-response","354","244921","0.0-354.0","3PB5A5BD0WSM76SGXGEUPZMEFX67GO","A3I40B0FATY8VH","37S0QRNUFB29SLTNXLPAM35NX0F88U","","","<img src=""img/flower1.png"" style=""width:200px;border:14px solid red;"">","null","","","","","",""
"489","","image-keyboard-response","355","245411","0.0-355.0","3PB5A5BD0WSM76SGXGEUPZMEFX67GO","A3I40B0FATY8VH","37S0QRNUFB29SLTNXLPAM35NX0F88U","","","img/flower2.png","76","489.5","3","0","3","0.7,0.2,0,0.7,0,0.2,0.2,0,0.7",""
"null","","html-keyboard-response","356","245713","0.0-356.0","3PB5A5BD0WSM76SGXGEUPZMEFX67GO","A3I40B0FATY8VH","37S0QRNUFB29SLTNXLPAM35NX0F88U","","","<img src=""img/flower2.png"" style=""width:200px;border:14px solid red;"">","null","","","","","",""
"760","","image-keyboard-response","357","246474","0.0-357.0","3PB5A5BD0WSM76SGXGEUPZMEFX67GO","A3I40B0FATY8VH","37S0QRNUFB29SLTNXLPAM35NX0F88U","","","img/flower1.png","75","761.2000000476837","2","0","2","0.7,0.2,0,0.7,0,0.2,0.2,0,0.7",""
"null","","html-keyboard-response","358","246777","0.0-358.0","3PB5A5BD0WSM76SGXGEUPZMEFX67GO","A3I40B0FATY8VH","37S0QRNUFB29SLTNXLPAM35NX0F88U","","","<img src=""img/flower1.png"" style=""width:200px;border:14px solid red;"">","null","","","","","",""
"792.9000000953674","","image-keyboard-response","359","247572","0.0-359.0","3PB5A5BD0WSM76SGXGEUPZMEFX67GO","A3I40B0FATY8VH","37S0QRNUFB29SLTNXLPAM35NX0F88U","","","img/flower5.png","74","794.4000000953674","1","1","1","0.7,0.2,0,0.7,0,0.2,0.2,0,0.7",""
"null","","html-keyboard-response","360","247874","0.0-360.0","3PB5A5BD0WSM76SGXGEUPZMEFX67GO","A3I40B0FATY8VH","37S0QRNUFB29SLTNXLPAM35NX0F88U","","","<img src=""img/flower5.png"" style=""width:200px; border:14px solid green;"">","null","","","","","",""
"347.39999997615814","","image-keyboard-response","361","248222","0.0-361.0","3PB5A5BD0WSM76SGXGEUPZMEFX67GO","A3I40B0FATY8VH","37S0QRNUFB29SLTNXLPAM35NX0F88U","","","img/flower5.png","74","348.2999999523163","1","0","1","0.7,0.2,0,0.7,0,0.2,0.2,0,0.7",""
"null","","html-keyboard-response","362","248524","0.0-362.0","3PB5A5BD0WSM76SGXGEUPZMEFX67GO","A3I40B0FATY8VH","37S0QRNUFB29SLTNXLPAM35NX0F88U","","","<img src=""img/flower5.png"" style=""width:200px;border:14px solid red;"">","null","","","","","",""
"338.2000000476837","","image-keyboard-response","363","248864","0.0-363.0","3PB5A5BD0WSM76SGXGEUPZMEFX67GO","A3I40B0FATY8VH","37S0QRNUFB29SLTNXLPAM35NX0F88U","","","img/flower5.png","74","339.39999997615814","1","1","1","0.7,0.2,0,0.7,0,0.2,0.2,0,0.7",""
"null","","html-keyboard-response","364","249167","0.0-364.0","3PB5A5BD0WSM76SGXGEUPZMEFX67GO","A3I40B0FATY8VH","37S0QRNUFB29SLTNXLPAM35NX0F88U","","","<img src=""img/flower5.png"" style=""width:200px; border:14px solid green;"">","null","","","","","",""
"899.4000000953674","","image-keyboard-response","365","250068","0.0-365.0","3PB5A5BD0WSM76SGXGEUPZMEFX67GO","A3I40B0FATY8VH","37S0QRNUFB29SLTNXLPAM35NX0F88U","","","img/flower1.png","74","901","1","1","2","0.7,0.2,0,0.7,0,0.2,0.2,0,0.7",""
"null","","html-keyboard-response","366","250372","0.0-366.0","3PB5A5BD0WSM76SGXGEUPZMEFX67GO","A3I40B0FATY8VH","37S0QRNUFB29SLTNXLPAM35NX0F88U","","","<img src=""img/flower1.png"" style=""width:200px; border:14px solid green;"">","null","","","","","",""
"278.7000000476837","","image-keyboard-response","367","250652","0.0-367.0","3PB5A5BD0WSM76SGXGEUPZMEFX67GO","A3I40B0FATY8VH","37S0QRNUFB29SLTNXLPAM35NX0F88U","","","img/flower1.png","74","280.2999999523163","1","0","2","0.7,0.2,0,0.7,0,0.2,0.2,0,0.7",""
"null","","html-keyboard-response","368","250955","0.0-368.0","3PB5A5BD0WSM76SGXGEUPZMEFX67GO","A3I40B0FATY8VH","37S0QRNUFB29SLTNXLPAM35NX0F88U","","","<img src=""img/flower1.png"" style=""width:200px;border:14px solid red;"">","null","","","","","",""
"147.30000007152557","","image-keyboard-response","369","251103","0.0-369.0","3PB5A5BD0WSM76SGXGEUPZMEFX67GO","A3I40B0FATY8VH","37S0QRNUFB29SLTNXLPAM35NX0F88U","","","img/flower5.png","74","147.89999997615814","1","0","1","0.7,0.2,0,0.7,0,0.2,0.2,0,0.7",""
"null","","html-keyboard-response","370","251406","0.0-370.0","3PB5A5BD0WSM76SGXGEUPZMEFX67GO","A3I40B0FATY8VH","37S0QRNUFB29SLTNXLPAM35NX0F88U","","","<img src=""img/flower5.png"" style=""width:200px;border:14px solid red;"">","null","","","","","",""
"690.8999999761581","","image-keyboard-response","371","252098","0.0-371.0","3PB5A5BD0WSM76SGXGEUPZMEFX67GO","A3I40B0FATY8VH","37S0QRNUFB29SLTNXLPAM35NX0F88U","","","img/flower2.png","76","691.6999999284744","3","1","3","0.7,0.2,0,0.7,0,0.2,0.2,0,0.7",""
"null","","html-keyboard-response","372","252400","0.0-372.0","3PB5A5BD0WSM76SGXGEUPZMEFX67GO","A3I40B0FATY8VH","37S0QRNUFB29SLTNXLPAM35NX0F88U","","","<img src=""img/flower2.png"" style=""width:200px; border:14px solid green;"">","null","","","","","",""
"407.3000000715256","","image-keyboard-response","373","252809","0.0-373.0","3PB5A5BD0WSM76SGXGEUPZMEFX67GO","A3I40B0FATY8VH","37S0QRNUFB29SLTNXLPAM35NX0F88U","","","img/flower5.png","74","408.3000000715256","1","1","1","0.7,0.2,0,0.7,0,0.2,0.2,0,0.7",""
"null","","html-keyboard-response","374","253112","0.0-374.0","3PB5A5BD0WSM76SGXGEUPZMEFX67GO","A3I40B0FATY8VH","37S0QRNUFB29SLTNXLPAM35NX0F88U","","","<img src=""img/flower5.png"" style=""width:200px; border:14px solid green;"">","null","","","","","",""
"209.89999997615814","","image-keyboard-response","375","253324","0.0-375.0","3PB5A5BD0WSM76SGXGEUPZMEFX67GO","A3I40B0FATY8VH","37S0QRNUFB29SLTNXLPAM35NX0F88U","","","img/flower1.png","74","211.39999997615814","1","1","2","0.7,0.2,0,0.7,0,0.2,0.2,0,0.7",""
"null","","html-keyboard-response","376","253627","0.0-376.0","3PB5A5BD0WSM76SGXGEUPZMEFX67GO","A3I40B0FATY8VH","37S0QRNUFB29SLTNXLPAM35NX0F88U","","","<img src=""img/flower1.png"" style=""width:200px; border:14px solid green;"">","null","","","","","",""
"246.20000004768372","","image-keyboard-response","377","253875","0.0-377.0","3PB5A5BD0WSM76SGXGEUPZMEFX67GO","A3I40B0FATY8VH","37S0QRNUFB29SLTNXLPAM35NX0F88U","","","img/flower5.png","74","247.40000009536743","1","1","1","0.7,0.2,0,0.7,0,0.2,0.2,0,0.7",""
"null","","html-keyboard-response","378","254177","0.0-378.0","3PB5A5BD0WSM76SGXGEUPZMEFX67GO","A3I40B0FATY8VH","37S0QRNUFB29SLTNXLPAM35NX0F88U","","","<img src=""img/flower5.png"" style=""width:200px; border:14px solid green;"">","null","","","","","",""
"277.5","","image-keyboard-response","379","254457","0.0-379.0","3PB5A5BD0WSM76SGXGEUPZMEFX67GO","A3I40B0FATY8VH","37S0QRNUFB29SLTNXLPAM35NX0F88U","","","img/flower5.png","74","278.89999997615814","1","1","1","0.7,0.2,0,0.7,0,0.2,0.2,0,0.7",""
"null","","html-keyboard-response","380","254759","0.0-380.0","3PB5A5BD0WSM76SGXGEUPZMEFX67GO","A3I40B0FATY8VH","37S0QRNUFB29SLTNXLPAM35NX0F88U","","","<img src=""img/flower5.png"" style=""width:200px; border:14px solid green;"">","null","","","","","",""
"199.5","","image-keyboard-response","381","254960","0.0-381.0","3PB5A5BD0WSM76SGXGEUPZMEFX67GO","A3I40B0FATY8VH","37S0QRNUFB29SLTNXLPAM35NX0F88U","","","img/flower2.png","74","200.29999995231628","1","0","3","0.7,0.2,0,0.7,0,0.2,0.2,0,0.7",""
"null","","html-keyboard-response","382","255262","0.0-382.0","3PB5A5BD0WSM76SGXGEUPZMEFX67GO","A3I40B0FATY8VH","37S0QRNUFB29SLTNXLPAM35NX0F88U","","","<img src=""img/flower2.png"" style=""width:200px;border:14px solid red;"">","null","","","","","",""
"764.2000000476837","","image-keyboard-response","383","256028","0.0-383.0","3PB5A5BD0WSM76SGXGEUPZMEFX67GO","A3I40B0FATY8VH","37S0QRNUFB29SLTNXLPAM35NX0F88U","","","img/flower1.png","74","765.8000000715256","1","1","2","0.7,0.2,0,0.7,0,0.2,0.2,0,0.7",""
"null","","html-keyboard-response","384","256330","0.0-384.0","3PB5A5BD0WSM76SGXGEUPZMEFX67GO","A3I40B0FATY8VH","37S0QRNUFB29SLTNXLPAM35NX0F88U","","","<img src=""img/flower1.png"" style=""width:200px; border:14px solid green;"">","null","","","","","",""
"274.10000002384186","","image-keyboard-response","385","256606","0.0-385.0","3PB5A5BD0WSM76SGXGEUPZMEFX67GO","A3I40B0FATY8VH","37S0QRNUFB29SLTNXLPAM35NX0F88U","","","img/flower1.png","74","275.7000000476837","1","1","2","0.7,0.2,0,0.7,0,0.2,0.2,0,0.7",""
"null","","html-keyboard-response","386","256909","0.0-386.0","3PB5A5BD0WSM76SGXGEUPZMEFX67GO","A3I40B0FATY8VH","37S0QRNUFB29SLTNXLPAM35NX0F88U","","","<img src=""img/flower1.png"" style=""width:200px; border:14px solid green;"">","null","","","","","",""
"1315.6000000238419","","image-keyboard-response","387","258226","0.0-387.0","3PB5A5BD0WSM76SGXGEUPZMEFX67GO","A3I40B0FATY8VH","37S0QRNUFB29SLTNXLPAM35NX0F88U","","","img/flower5.png","74","1316.3999999761581","1","1","1","0.7,0.2,0,0.7,0,0.2,0.2,0,0.7",""
"null","","html-keyboard-response","388","258530","0.0-388.0","3PB5A5BD0WSM76SGXGEUPZMEFX67GO","A3I40B0FATY8VH","37S0QRNUFB29SLTNXLPAM35NX0F88U","","","<img src=""img/flower5.png"" style=""width:200px; border:14px solid green;"">","null","","","","","",""
"589.4000000953674","","image-keyboard-response","389","259121","0.0-389.0","3PB5A5BD0WSM76SGXGEUPZMEFX67GO","A3I40B0FATY8VH","37S0QRNUFB29SLTNXLPAM35NX0F88U","","","img/flower2.png","76","590.8999999761581","3","0","3","0.7,0.2,0,0.7,0,0.2,0.2,0,0.7",""
"null","","html-keyboard-response","390","259424","0.0-390.0","3PB5A5BD0WSM76SGXGEUPZMEFX67GO","A3I40B0FATY8VH","37S0QRNUFB29SLTNXLPAM35NX0F88U","","","<img src=""img/flower2.png"" style=""width:200px;border:14px solid red;"">","null","","","","","",""
"893.2999999523163","","image-keyboard-response","391","260318","0.0-391.0","3PB5A5BD0WSM76SGXGEUPZMEFX67GO","A3I40B0FATY8VH","37S0QRNUFB29SLTNXLPAM35NX0F88U","","","img/flower1.png","76","894.0999999046326","3","0","2","0.7,0.2,0,0.7,0,0.2,0.2,0,0.7",""
"null","","html-keyboard-response","392","260621","0.0-392.0","3PB5A5BD0WSM76SGXGEUPZMEFX67GO","A3I40B0FATY8VH","37S0QRNUFB29SLTNXLPAM35NX0F88U","","","<img src=""img/flower1.png"" style=""width:200px;border:14px solid red;"">","null","","","","","",""
"536.8999999761581","","image-keyboard-response","393","261159","0.0-393.0","3PB5A5BD0WSM76SGXGEUPZMEFX67GO","A3I40B0FATY8VH","37S0QRNUFB29SLTNXLPAM35NX0F88U","","","img/flower5.png","74","537.8000000715256","1","1","1","0.7,0.2,0,0.7,0,0.2,0.2,0,0.7",""
"null","","html-keyboard-response","394","261461","0.0-394.0","3PB5A5BD0WSM76SGXGEUPZMEFX67GO","A3I40B0FATY8VH","37S0QRNUFB29SLTNXLPAM35NX0F88U","","","<img src=""img/flower5.png"" style=""width:200px; border:14px solid green;"">","null","","","","","",""
"591.3000000715256","","image-keyboard-response","395","262053","0.0-395.0","3PB5A5BD0WSM76SGXGEUPZMEFX67GO","A3I40B0FATY8VH","37S0QRNUFB29SLTNXLPAM35NX0F88U","","","img/flower2.png","76","592.0999999046326","3","1","3","0.7,0.2,0,0.7,0,0.2,0.2,0,0.7",""
"null","","html-keyboard-response","396","262356","0.0-396.0","3PB5A5BD0WSM76SGXGEUPZMEFX67GO","A3I40B0FATY8VH","37S0QRNUFB29SLTNXLPAM35NX0F88U","","","<img src=""img/flower2.png"" style=""width:200px; border:14px solid green;"">","null","","","","","",""
"290.2000000476837","","image-keyboard-response","397","262648","0.0-397.0","3PB5A5BD0WSM76SGXGEUPZMEFX67GO","A3I40B0FATY8VH","37S0QRNUFB29SLTNXLPAM35NX0F88U","","","img/flower2.png","76","291.8000000715256","3","1","3","0.7,0.2,0,0.7,0,0.2,0.2,0,0.7",""
"null","","html-keyboard-response","398","262952","0.0-398.0","3PB5A5BD0WSM76SGXGEUPZMEFX67GO","A3I40B0FATY8VH","37S0QRNUFB29SLTNXLPAM35NX0F88U","","","<img src=""img/flower2.png"" style=""width:200px; border:14px solid green;"">","null","","","","","",""
"265.89999997615814","","image-keyboard-response","399","263219","0.0-399.0","3PB5A5BD0WSM76SGXGEUPZMEFX67GO","A3I40B0FATY8VH","37S0QRNUFB29SLTNXLPAM35NX0F88U","","","img/flower2.png","76","266.7999999523163","3","1","3","0.7,0.2,0,0.7,0,0.2,0.2,0,0.7",""
"null","","html-keyboard-response","400","263522","0.0-400.0","3PB5A5BD0WSM76SGXGEUPZMEFX67GO","A3I40B0FATY8VH","37S0QRNUFB29SLTNXLPAM35NX0F88U","","","<img src=""img/flower2.png"" style=""width:200px; border:14px solid green;"">","null","","","","","",""
"739.8999999761581","","image-keyboard-response","401","264264","0.0-401.0","3PB5A5BD0WSM76SGXGEUPZMEFX67GO","A3I40B0FATY8VH","37S0QRNUFB29SLTNXLPAM35NX0F88U","","","img/flower1.png","75","741.6000000238419","2","0","2","0.7,0.2,0,0.7,0,0.2,0.2,0,0.7",""
"null","","html-keyboard-response","402","264567","0.0-402.0","3PB5A5BD0WSM76SGXGEUPZMEFX67GO","A3I40B0FATY8VH","37S0QRNUFB29SLTNXLPAM35NX0F88U","","","<img src=""img/flower1.png"" style=""width:200px;border:14px solid red;"">","null","","","","","",""
