"rt","url","trial_type","trial_index","time_elapsed","internal_node_id","assignmentID","mturkID","hitID","success","view_history","stimulus","key_press","reactionTime","a","r","s","reward_cond","responses"
"25264.099999427795","consent.html","external-html","0","25607","0.0-0.0","32RIADZISTQSEOJOQIA4B1L7C6A4SL","A3NXT3OVGL7QNR","39KMGHJ4RZW9S7JH7DZG09TNV4R00C","","","","","","","","","",""
"","","fullscreen","1","28180","0.0-1.0","32RIADZISTQSEOJOQIA4B1L7C6A4SL","A3NXT3OVGL7QNR","39KMGHJ4RZW9S7JH7DZG09TNV4R00C","true","","","","","","","","",""
"71911.0999994278","","instructions","2","100093","0.0-2.0","32RIADZISTQSEOJOQIA4B1L7C6A4SL","A3NXT3OVGL7QNR","39KMGHJ4RZW9S7JH7DZG09TNV4R00C","","[{""page_index"":0,""viewing_time"":7071.800000190735},{""page_index"":1,""viewing_time"":9919.699999809265},{""page_index"":2,""viewing_time"":14679.5},{""page_index"":3,""viewing_time"":12111.800000190735},{""page_index"":4,""viewing_time"":5656.199999809265},{""page_index"":5,""viewing_time"":22471.199999809265}]","","","","","","","",""
"15310.60000038147","","instructions","3","115404","0.0-3.0","32RIADZISTQSEOJOQIA4B1L7C6A4SL","A3NXT3OVGL7QNR","39KMGHJ4RZW9S7JH7DZG09TNV4R00C","","[{""page_index"":0,""viewing_time"":15310.10000038147}]","","","","","","","",""
"1008.7999992370605","","image-keyboard-response","4","116414","0.0-4.0","32RIADZISTQSEOJOQIA4B1L7C6A4SL","A3NXT3OVGL7QNR","39KMGHJ4RZW9S7JH7DZG09TNV4R00C","","","img/flower4.png","74","1010","1","1","1","",""
"null","","html-keyboard-response","5","116717","0.0-5.0","32RIADZISTQSEOJOQIA4B1L7C6A4SL","A3NXT3OVGL7QNR","39KMGHJ4RZW9S7JH7DZG09TNV4R00C","","","<img src=""img/flower4.png"" style=""width:200px; border:14px solid green;"">","null","","","","","",""
"2472","","image-keyboard-response","6","119190","0.0-6.0","32RIADZISTQSEOJOQIA4B1L7C6A4SL","A3NXT3OVGL7QNR","39KMGHJ4RZW9S7JH7DZG09TNV4R00C","","","img/flower4.png","74","2472.8999996185303","1","1","1","",""
"null","","html-keyboard-response","7","119493","0.0-7.0","32RIADZISTQSEOJOQIA4B1L7C6A4SL","A3NXT3OVGL7QNR","39KMGHJ4RZW9S7JH7DZG09TNV4R00C","","","<img src=""img/flower4.png"" style=""width:200px; border:14px solid green;"">","null","","","","","",""
"1231.8999996185303","","image-keyboard-response","8","120726","0.0-8.0","32RIADZISTQSEOJOQIA4B1L7C6A4SL","A3NXT3OVGL7QNR","39KMGHJ4RZW9S7JH7DZG09TNV4R00C","","","img/flower4.png","74","1232.6999998092651","1","1","1","",""
"null","","html-keyboard-response","9","121030","0.0-9.0","32RIADZISTQSEOJOQIA4B1L7C6A4SL","A3NXT3OVGL7QNR","39KMGHJ4RZW9S7JH7DZG09TNV4R00C","","","<img src=""img/flower4.png"" style=""width:200px; border:14px solid green;"">","null","","","","","",""
"896","","image-keyboard-response","10","121927","0.0-10.0","32RIADZISTQSEOJOQIA4B1L7C6A4SL","A3NXT3OVGL7QNR","39KMGHJ4RZW9S7JH7DZG09TNV4R00C","","","img/flower6.png","76","896.8999996185303","3","1","3","",""
"null","","html-keyboard-response","11","122230","0.0-11.0","32RIADZISTQSEOJOQIA4B1L7C6A4SL","A3NXT3OVGL7QNR","39KMGHJ4RZW9S7JH7DZG09TNV4R00C","","","<img src=""img/flower6.png"" style=""width:200px; border:14px solid green;"">","null","","","","","",""
"655.5","","image-keyboard-response","12","122886","0.0-12.0","32RIADZISTQSEOJOQIA4B1L7C6A4SL","A3NXT3OVGL7QNR","39KMGHJ4RZW9S7JH7DZG09TNV4R00C","","","img/flower5.png","75","656.4000005722046","2","1","2","",""
"null","","html-keyboard-response","13","123190","0.0-13.0","32RIADZISTQSEOJOQIA4B1L7C6A4SL","A3NXT3OVGL7QNR","39KMGHJ4RZW9S7JH7DZG09TNV4R00C","","","<img src=""img/flower5.png"" style=""width:200px; border:14px solid green;"">","null","","","","","",""
"681.0999994277954","","image-keyboard-response","14","123872","0.0-14.0","32RIADZISTQSEOJOQIA4B1L7C6A4SL","A3NXT3OVGL7QNR","39KMGHJ4RZW9S7JH7DZG09TNV4R00C","","","img/flower6.png","76","681.9000005722046","3","1","3","",""
"null","","html-keyboard-response","15","124174","0.0-15.0","32RIADZISTQSEOJOQIA4B1L7C6A4SL","A3NXT3OVGL7QNR","39KMGHJ4RZW9S7JH7DZG09TNV4R00C","","","<img src=""img/flower6.png"" style=""width:200px; border:14px solid green;"">","null","","","","","",""
"672.0999994277954","","image-keyboard-response","16","124847","0.0-16.0","32RIADZISTQSEOJOQIA4B1L7C6A4SL","A3NXT3OVGL7QNR","39KMGHJ4RZW9S7JH7DZG09TNV4R00C","","","img/flower6.png","76","673","3","1","3","",""
"null","","html-keyboard-response","17","125150","0.0-17.0","32RIADZISTQSEOJOQIA4B1L7C6A4SL","A3NXT3OVGL7QNR","39KMGHJ4RZW9S7JH7DZG09TNV4R00C","","","<img src=""img/flower6.png"" style=""width:200px; border:14px solid green;"">","null","","","","","",""
"552","","image-keyboard-response","18","125703","0.0-18.0","32RIADZISTQSEOJOQIA4B1L7C6A4SL","A3NXT3OVGL7QNR","39KMGHJ4RZW9S7JH7DZG09TNV4R00C","","","img/flower6.png","76","552.9000005722046","3","1","3","",""
"null","","html-keyboard-response","19","126006","0.0-19.0","32RIADZISTQSEOJOQIA4B1L7C6A4SL","A3NXT3OVGL7QNR","39KMGHJ4RZW9S7JH7DZG09TNV4R00C","","","<img src=""img/flower6.png"" style=""width:200px; border:14px solid green;"">","null","","","","","",""
"751.2000007629395","","image-keyboard-response","20","126758","0.0-20.0","32RIADZISTQSEOJOQIA4B1L7C6A4SL","A3NXT3OVGL7QNR","39KMGHJ4RZW9S7JH7DZG09TNV4R00C","","","img/flower4.png","74","751.9000005722046","1","1","1","",""
"null","","html-keyboard-response","21","127062","0.0-21.0","32RIADZISTQSEOJOQIA4B1L7C6A4SL","A3NXT3OVGL7QNR","39KMGHJ4RZW9S7JH7DZG09TNV4R00C","","","<img src=""img/flower4.png"" style=""width:200px; border:14px solid green;"">","null","","","","","",""
"639.5","","image-keyboard-response","22","127702","0.0-22.0","32RIADZISTQSEOJOQIA4B1L7C6A4SL","A3NXT3OVGL7QNR","39KMGHJ4RZW9S7JH7DZG09TNV4R00C","","","img/flower5.png","75","640.4000005722046","2","1","2","",""
"null","","html-keyboard-response","23","128006","0.0-23.0","32RIADZISTQSEOJOQIA4B1L7C6A4SL","A3NXT3OVGL7QNR","39KMGHJ4RZW9S7JH7DZG09TNV4R00C","","","<img src=""img/flower5.png"" style=""width:200px; border:14px solid green;"">","null","","","","","",""
"695.4000005722046","","image-keyboard-response","24","128702","0.0-24.0","32RIADZISTQSEOJOQIA4B1L7C6A4SL","A3NXT3OVGL7QNR","39KMGHJ4RZW9S7JH7DZG09TNV4R00C","","","img/flower6.png","76","696.1000003814697","3","1","3","",""
"null","","html-keyboard-response","25","129006","0.0-25.0","32RIADZISTQSEOJOQIA4B1L7C6A4SL","A3NXT3OVGL7QNR","39KMGHJ4RZW9S7JH7DZG09TNV4R00C","","","<img src=""img/flower6.png"" style=""width:200px; border:14px solid green;"">","null","","","","","",""
"591.3999996185303","","image-keyboard-response","26","129598","0.0-26.0","32RIADZISTQSEOJOQIA4B1L7C6A4SL","A3NXT3OVGL7QNR","39KMGHJ4RZW9S7JH7DZG09TNV4R00C","","","img/flower6.png","76","592.1999998092651","3","0","3","",""
"null","","html-keyboard-response","27","129902","0.0-27.0","32RIADZISTQSEOJOQIA4B1L7C6A4SL","A3NXT3OVGL7QNR","39KMGHJ4RZW9S7JH7DZG09TNV4R00C","","","<img src=""img/flower6.png"" style=""width:200px;border:14px solid red;"">","null","","","","","",""
"1007.3999996185303","","image-keyboard-response","28","130911","0.0-28.0","32RIADZISTQSEOJOQIA4B1L7C6A4SL","A3NXT3OVGL7QNR","39KMGHJ4RZW9S7JH7DZG09TNV4R00C","","","img/flower5.png","75","1008.3999996185303","2","0","2","",""
"null","","html-keyboard-response","29","131214","0.0-29.0","32RIADZISTQSEOJOQIA4B1L7C6A4SL","A3NXT3OVGL7QNR","39KMGHJ4RZW9S7JH7DZG09TNV4R00C","","","<img src=""img/flower5.png"" style=""width:200px;border:14px solid red;"">","null","","","","","",""
"783.3000001907349","","image-keyboard-response","30","131998","0.0-30.0","32RIADZISTQSEOJOQIA4B1L7C6A4SL","A3NXT3OVGL7QNR","39KMGHJ4RZW9S7JH7DZG09TNV4R00C","","","img/flower5.png","75","784","2","1","2","",""
"null","","html-keyboard-response","31","132302","0.0-31.0","32RIADZISTQSEOJOQIA4B1L7C6A4SL","A3NXT3OVGL7QNR","39KMGHJ4RZW9S7JH7DZG09TNV4R00C","","","<img src=""img/flower5.png"" style=""width:200px; border:14px solid green;"">","null","","","","","",""
"711.1999998092651","","image-keyboard-response","32","133014","0.0-32.0","32RIADZISTQSEOJOQIA4B1L7C6A4SL","A3NXT3OVGL7QNR","39KMGHJ4RZW9S7JH7DZG09TNV4R00C","","","img/flower6.png","76","712.1999998092651","3","1","3","",""
"null","","html-keyboard-response","33","133318","0.0-33.0","32RIADZISTQSEOJOQIA4B1L7C6A4SL","A3NXT3OVGL7QNR","39KMGHJ4RZW9S7JH7DZG09TNV4R00C","","","<img src=""img/flower6.png"" style=""width:200px; border:14px solid green;"">","null","","","","","",""
"655.0999994277954","","image-keyboard-response","34","133974","0.0-34.0","32RIADZISTQSEOJOQIA4B1L7C6A4SL","A3NXT3OVGL7QNR","39KMGHJ4RZW9S7JH7DZG09TNV4R00C","","","img/flower4.png","74","655.7999992370605","1","0","1","",""
"null","","html-keyboard-response","35","134278","0.0-35.0","32RIADZISTQSEOJOQIA4B1L7C6A4SL","A3NXT3OVGL7QNR","39KMGHJ4RZW9S7JH7DZG09TNV4R00C","","","<img src=""img/flower4.png"" style=""width:200px;border:14px solid red;"">","null","","","","","",""
"662.8999996185303","","image-keyboard-response","36","134942","0.0-36.0","32RIADZISTQSEOJOQIA4B1L7C6A4SL","A3NXT3OVGL7QNR","39KMGHJ4RZW9S7JH7DZG09TNV4R00C","","","img/flower4.png","74","663.9000005722046","1","1","1","",""
"null","","html-keyboard-response","37","135246","0.0-37.0","32RIADZISTQSEOJOQIA4B1L7C6A4SL","A3NXT3OVGL7QNR","39KMGHJ4RZW9S7JH7DZG09TNV4R00C","","","<img src=""img/flower4.png"" style=""width:200px; border:14px solid green;"">","null","","","","","",""
"727.5","","image-keyboard-response","38","135975","0.0-38.0","32RIADZISTQSEOJOQIA4B1L7C6A4SL","A3NXT3OVGL7QNR","39KMGHJ4RZW9S7JH7DZG09TNV4R00C","","","img/flower5.png","75","728.5","2","1","2","",""
"null","","html-keyboard-response","39","136278","0.0-39.0","32RIADZISTQSEOJOQIA4B1L7C6A4SL","A3NXT3OVGL7QNR","39KMGHJ4RZW9S7JH7DZG09TNV4R00C","","","<img src=""img/flower5.png"" style=""width:200px; border:14px solid green;"">","null","","","","","",""
"695","","image-keyboard-response","40","136974","0.0-40.0","32RIADZISTQSEOJOQIA4B1L7C6A4SL","A3NXT3OVGL7QNR","39KMGHJ4RZW9S7JH7DZG09TNV4R00C","","","img/flower4.png","74","695.8000001907349","1","0","1","",""
"null","","html-keyboard-response","41","137278","0.0-41.0","32RIADZISTQSEOJOQIA4B1L7C6A4SL","A3NXT3OVGL7QNR","39KMGHJ4RZW9S7JH7DZG09TNV4R00C","","","<img src=""img/flower4.png"" style=""width:200px;border:14px solid red;"">","null","","","","","",""
"822.8000001907349","","image-keyboard-response","42","138102","0.0-42.0","32RIADZISTQSEOJOQIA4B1L7C6A4SL","A3NXT3OVGL7QNR","39KMGHJ4RZW9S7JH7DZG09TNV4R00C","","","img/flower5.png","75","823.5","2","1","2","",""
"null","","html-keyboard-response","43","138406","0.0-43.0","32RIADZISTQSEOJOQIA4B1L7C6A4SL","A3NXT3OVGL7QNR","39KMGHJ4RZW9S7JH7DZG09TNV4R00C","","","<img src=""img/flower5.png"" style=""width:200px; border:14px solid green;"">","null","","","","","",""
"590.8000001907349","","image-keyboard-response","44","138998","0.0-44.0","32RIADZISTQSEOJOQIA4B1L7C6A4SL","A3NXT3OVGL7QNR","39KMGHJ4RZW9S7JH7DZG09TNV4R00C","","","img/flower6.png","76","591.5","3","1","3","",""
"null","","html-keyboard-response","45","139302","0.0-45.0","32RIADZISTQSEOJOQIA4B1L7C6A4SL","A3NXT3OVGL7QNR","39KMGHJ4RZW9S7JH7DZG09TNV4R00C","","","<img src=""img/flower6.png"" style=""width:200px; border:14px solid green;"">","null","","","","","",""
"671.1000003814697","","image-keyboard-response","46","139974","0.0-46.0","32RIADZISTQSEOJOQIA4B1L7C6A4SL","A3NXT3OVGL7QNR","39KMGHJ4RZW9S7JH7DZG09TNV4R00C","","","img/flower5.png","75","672.0999994277954","2","1","2","",""
"null","","html-keyboard-response","47","140278","0.0-47.0","32RIADZISTQSEOJOQIA4B1L7C6A4SL","A3NXT3OVGL7QNR","39KMGHJ4RZW9S7JH7DZG09TNV4R00C","","","<img src=""img/flower5.png"" style=""width:200px; border:14px solid green;"">","null","","","","","",""
"527.3000001907349","","image-keyboard-response","48","140806","0.0-48.0","32RIADZISTQSEOJOQIA4B1L7C6A4SL","A3NXT3OVGL7QNR","39KMGHJ4RZW9S7JH7DZG09TNV4R00C","","","img/flower4.png","74","528.1999998092651","1","1","1","",""
"null","","html-keyboard-response","49","141109","0.0-49.0","32RIADZISTQSEOJOQIA4B1L7C6A4SL","A3NXT3OVGL7QNR","39KMGHJ4RZW9S7JH7DZG09TNV4R00C","","","<img src=""img/flower4.png"" style=""width:200px; border:14px solid green;"">","null","","","","","",""
"583.4000005722046","","image-keyboard-response","50","141694","0.0-50.0","32RIADZISTQSEOJOQIA4B1L7C6A4SL","A3NXT3OVGL7QNR","39KMGHJ4RZW9S7JH7DZG09TNV4R00C","","","img/flower6.png","76","584.2999992370605","3","1","3","",""
"null","","html-keyboard-response","51","141998","0.0-51.0","32RIADZISTQSEOJOQIA4B1L7C6A4SL","A3NXT3OVGL7QNR","39KMGHJ4RZW9S7JH7DZG09TNV4R00C","","","<img src=""img/flower6.png"" style=""width:200px; border:14px solid green;"">","null","","","","","",""
"575.5999994277954","","image-keyboard-response","52","142574","0.0-52.0","32RIADZISTQSEOJOQIA4B1L7C6A4SL","A3NXT3OVGL7QNR","39KMGHJ4RZW9S7JH7DZG09TNV4R00C","","","img/flower6.png","76","576.2999992370605","3","1","3","",""
"null","","html-keyboard-response","53","142878","0.0-53.0","32RIADZISTQSEOJOQIA4B1L7C6A4SL","A3NXT3OVGL7QNR","39KMGHJ4RZW9S7JH7DZG09TNV4R00C","","","<img src=""img/flower6.png"" style=""width:200px; border:14px solid green;"">","null","","","","","",""
"567.6999998092651","","image-keyboard-response","54","143446","0.0-54.0","32RIADZISTQSEOJOQIA4B1L7C6A4SL","A3NXT3OVGL7QNR","39KMGHJ4RZW9S7JH7DZG09TNV4R00C","","","img/flower4.png","74","568.5","1","1","1","",""
"null","","html-keyboard-response","55","143750","0.0-55.0","32RIADZISTQSEOJOQIA4B1L7C6A4SL","A3NXT3OVGL7QNR","39KMGHJ4RZW9S7JH7DZG09TNV4R00C","","","<img src=""img/flower4.png"" style=""width:200px; border:14px solid green;"">","null","","","","","",""
"535.5","","image-keyboard-response","56","144286","0.0-56.0","32RIADZISTQSEOJOQIA4B1L7C6A4SL","A3NXT3OVGL7QNR","39KMGHJ4RZW9S7JH7DZG09TNV4R00C","","","img/flower5.png","75","536.1999998092651","2","1","2","",""
"null","","html-keyboard-response","57","144590","0.0-57.0","32RIADZISTQSEOJOQIA4B1L7C6A4SL","A3NXT3OVGL7QNR","39KMGHJ4RZW9S7JH7DZG09TNV4R00C","","","<img src=""img/flower5.png"" style=""width:200px; border:14px solid green;"">","null","","","","","",""
"575.4000005722046","","image-keyboard-response","58","145166","0.0-58.0","32RIADZISTQSEOJOQIA4B1L7C6A4SL","A3NXT3OVGL7QNR","39KMGHJ4RZW9S7JH7DZG09TNV4R00C","","","img/flower5.png","75","576.1999998092651","2","1","2","",""
"null","","html-keyboard-response","59","145470","0.0-59.0","32RIADZISTQSEOJOQIA4B1L7C6A4SL","A3NXT3OVGL7QNR","39KMGHJ4RZW9S7JH7DZG09TNV4R00C","","","<img src=""img/flower5.png"" style=""width:200px; border:14px solid green;"">","null","","","","","",""
"494.69999980926514","","image-keyboard-response","60","145966","0.0-60.0","32RIADZISTQSEOJOQIA4B1L7C6A4SL","A3NXT3OVGL7QNR","39KMGHJ4RZW9S7JH7DZG09TNV4R00C","","","img/flower5.png","75","495.80000019073486","2","1","2","",""
"null","","html-keyboard-response","61","146270","0.0-61.0","32RIADZISTQSEOJOQIA4B1L7C6A4SL","A3NXT3OVGL7QNR","39KMGHJ4RZW9S7JH7DZG09TNV4R00C","","","<img src=""img/flower5.png"" style=""width:200px; border:14px solid green;"">","null","","","","","",""
"551.6000003814697","","image-keyboard-response","62","146822","0.0-62.0","32RIADZISTQSEOJOQIA4B1L7C6A4SL","A3NXT3OVGL7QNR","39KMGHJ4RZW9S7JH7DZG09TNV4R00C","","","img/flower4.png","74","552.6000003814697","1","1","1","",""
"null","","html-keyboard-response","63","147126","0.0-63.0","32RIADZISTQSEOJOQIA4B1L7C6A4SL","A3NXT3OVGL7QNR","39KMGHJ4RZW9S7JH7DZG09TNV4R00C","","","<img src=""img/flower4.png"" style=""width:200px; border:14px solid green;"">","null","","","","","",""
"31133.5","","instructions","64","178260","0.0-64.0","32RIADZISTQSEOJOQIA4B1L7C6A4SL","A3NXT3OVGL7QNR","39KMGHJ4RZW9S7JH7DZG09TNV4R00C","","[{""page_index"":0,""viewing_time"":4613.89999961853},{""page_index"":1,""viewing_time"":26519}]","","","","","","","",""
"1512.5","","image-keyboard-response","65","179773","0.0-65.0","32RIADZISTQSEOJOQIA4B1L7C6A4SL","A3NXT3OVGL7QNR","39KMGHJ4RZW9S7JH7DZG09TNV4R00C","","","img/flower4.png","74","1513.4000005722046","1","1","1","",""
"null","","html-keyboard-response","66","180078","0.0-66.0","32RIADZISTQSEOJOQIA4B1L7C6A4SL","A3NXT3OVGL7QNR","39KMGHJ4RZW9S7JH7DZG09TNV4R00C","","","<img src=""img/flower4.png"" style=""width:200px; border:14px solid green;"">","null","","","","","",""
"926.1999998092651","","image-keyboard-response","67","181006","0.0-67.0","32RIADZISTQSEOJOQIA4B1L7C6A4SL","A3NXT3OVGL7QNR","39KMGHJ4RZW9S7JH7DZG09TNV4R00C","","","img/flower4.png","75","927","2","0","1","",""
"null","","html-keyboard-response","68","181311","0.0-68.0","32RIADZISTQSEOJOQIA4B1L7C6A4SL","A3NXT3OVGL7QNR","39KMGHJ4RZW9S7JH7DZG09TNV4R00C","","","<img src=""img/flower4.png"" style=""width:200px;border:14px solid red;"">","null","","","","","",""
"1757.3999996185303","","image-keyboard-response","69","183069","0.0-69.0","32RIADZISTQSEOJOQIA4B1L7C6A4SL","A3NXT3OVGL7QNR","39KMGHJ4RZW9S7JH7DZG09TNV4R00C","","","img/flower5.png","75","1758.2999992370605","2","1","2","",""
"null","","html-keyboard-response","70","183375","0.0-70.0","32RIADZISTQSEOJOQIA4B1L7C6A4SL","A3NXT3OVGL7QNR","39KMGHJ4RZW9S7JH7DZG09TNV4R00C","","","<img src=""img/flower5.png"" style=""width:200px; border:14px solid green;"">","null","","","","","",""
"1741.8000001907349","","image-keyboard-response","71","185117","0.0-71.0","32RIADZISTQSEOJOQIA4B1L7C6A4SL","A3NXT3OVGL7QNR","39KMGHJ4RZW9S7JH7DZG09TNV4R00C","","","img/flower6.png","74","1742.5999994277954","1","1","3","",""
"null","","html-keyboard-response","72","185422","0.0-72.0","32RIADZISTQSEOJOQIA4B1L7C6A4SL","A3NXT3OVGL7QNR","39KMGHJ4RZW9S7JH7DZG09TNV4R00C","","","<img src=""img/flower6.png"" style=""width:200px; border:14px solid green;"">","null","","","","","",""
"1598.8000001907349","","image-keyboard-response","73","187022","0.0-73.0","32RIADZISTQSEOJOQIA4B1L7C6A4SL","A3NXT3OVGL7QNR","39KMGHJ4RZW9S7JH7DZG09TNV4R00C","","","img/flower6.png","76","1599.6000003814697","3","1","3","",""
"null","","html-keyboard-response","74","187326","0.0-74.0","32RIADZISTQSEOJOQIA4B1L7C6A4SL","A3NXT3OVGL7QNR","39KMGHJ4RZW9S7JH7DZG09TNV4R00C","","","<img src=""img/flower6.png"" style=""width:200px; border:14px solid green;"">","null","","","","","",""
"1278.9000005722046","","image-keyboard-response","75","188606","0.0-75.0","32RIADZISTQSEOJOQIA4B1L7C6A4SL","A3NXT3OVGL7QNR","39KMGHJ4RZW9S7JH7DZG09TNV4R00C","","","img/flower4.png","75","1279.6999998092651","2","1","1","",""
"null","","html-keyboard-response","76","188910","0.0-76.0","32RIADZISTQSEOJOQIA4B1L7C6A4SL","A3NXT3OVGL7QNR","39KMGHJ4RZW9S7JH7DZG09TNV4R00C","","","<img src=""img/flower4.png"" style=""width:200px; border:14px solid green;"">","null","","","","","",""
"1062.6999998092651","","image-keyboard-response","77","189973","0.0-77.0","32RIADZISTQSEOJOQIA4B1L7C6A4SL","A3NXT3OVGL7QNR","39KMGHJ4RZW9S7JH7DZG09TNV4R00C","","","img/flower4.png","74","1063.3000001907349","1","1","1","",""
"null","","html-keyboard-response","78","190278","0.0-78.0","32RIADZISTQSEOJOQIA4B1L7C6A4SL","A3NXT3OVGL7QNR","39KMGHJ4RZW9S7JH7DZG09TNV4R00C","","","<img src=""img/flower4.png"" style=""width:200px; border:14px solid green;"">","null","","","","","",""
"726.5","","image-keyboard-response","79","191006","0.0-79.0","32RIADZISTQSEOJOQIA4B1L7C6A4SL","A3NXT3OVGL7QNR","39KMGHJ4RZW9S7JH7DZG09TNV4R00C","","","img/flower4.png","75","727.2999992370605","2","1","1","",""
"null","","html-keyboard-response","80","191310","0.0-80.0","32RIADZISTQSEOJOQIA4B1L7C6A4SL","A3NXT3OVGL7QNR","39KMGHJ4RZW9S7JH7DZG09TNV4R00C","","","<img src=""img/flower4.png"" style=""width:200px; border:14px solid green;"">","null","","","","","",""
"1630.5","","image-keyboard-response","81","192942","0.0-81.0","32RIADZISTQSEOJOQIA4B1L7C6A4SL","A3NXT3OVGL7QNR","39KMGHJ4RZW9S7JH7DZG09TNV4R00C","","","img/flower5.png","76","1631.3999996185303","3","0","2","",""
"null","","html-keyboard-response","82","193246","0.0-82.0","32RIADZISTQSEOJOQIA4B1L7C6A4SL","A3NXT3OVGL7QNR","39KMGHJ4RZW9S7JH7DZG09TNV4R00C","","","<img src=""img/flower5.png"" style=""width:200px;border:14px solid red;"">","null","","","","","",""
"790.2000007629395","","image-keyboard-response","83","194037","0.0-83.0","32RIADZISTQSEOJOQIA4B1L7C6A4SL","A3NXT3OVGL7QNR","39KMGHJ4RZW9S7JH7DZG09TNV4R00C","","","img/flower6.png","76","791.0999994277954","3","1","3","",""
"null","","html-keyboard-response","84","194342","0.0-84.0","32RIADZISTQSEOJOQIA4B1L7C6A4SL","A3NXT3OVGL7QNR","39KMGHJ4RZW9S7JH7DZG09TNV4R00C","","","<img src=""img/flower6.png"" style=""width:200px; border:14px solid green;"">","null","","","","","",""
"1350.3999996185303","","image-keyboard-response","85","195694","0.0-85.0","32RIADZISTQSEOJOQIA4B1L7C6A4SL","A3NXT3OVGL7QNR","39KMGHJ4RZW9S7JH7DZG09TNV4R00C","","","img/flower5.png","75","1351.3000001907349","2","1","2","",""
"null","","html-keyboard-response","86","195998","0.0-86.0","32RIADZISTQSEOJOQIA4B1L7C6A4SL","A3NXT3OVGL7QNR","39KMGHJ4RZW9S7JH7DZG09TNV4R00C","","","<img src=""img/flower5.png"" style=""width:200px; border:14px solid green;"">","null","","","","","",""
"1245.3999996185303","","image-keyboard-response","87","197245","0.0-87.0","32RIADZISTQSEOJOQIA4B1L7C6A4SL","A3NXT3OVGL7QNR","39KMGHJ4RZW9S7JH7DZG09TNV4R00C","","","img/flower4.png","75","1246.6999998092651","2","1","1","",""
"null","","html-keyboard-response","88","197550","0.0-88.0","32RIADZISTQSEOJOQIA4B1L7C6A4SL","A3NXT3OVGL7QNR","39KMGHJ4RZW9S7JH7DZG09TNV4R00C","","","<img src=""img/flower4.png"" style=""width:200px; border:14px solid green;"">","null","","","","","",""
"1342.9000005722046","","image-keyboard-response","89","198894","0.0-89.0","32RIADZISTQSEOJOQIA4B1L7C6A4SL","A3NXT3OVGL7QNR","39KMGHJ4RZW9S7JH7DZG09TNV4R00C","","","img/flower6.png","75","1343.7000007629395","2","0","3","",""
"null","","html-keyboard-response","90","199199","0.0-90.0","32RIADZISTQSEOJOQIA4B1L7C6A4SL","A3NXT3OVGL7QNR","39KMGHJ4RZW9S7JH7DZG09TNV4R00C","","","<img src=""img/flower6.png"" style=""width:200px;border:14px solid red;"">","null","","","","","",""
"1205.8000001907349","","image-keyboard-response","91","200405","0.0-91.0","32RIADZISTQSEOJOQIA4B1L7C6A4SL","A3NXT3OVGL7QNR","39KMGHJ4RZW9S7JH7DZG09TNV4R00C","","","img/flower5.png","75","1206.6999998092651","2","0","2","",""
"null","","html-keyboard-response","92","200711","0.0-92.0","32RIADZISTQSEOJOQIA4B1L7C6A4SL","A3NXT3OVGL7QNR","39KMGHJ4RZW9S7JH7DZG09TNV4R00C","","","<img src=""img/flower5.png"" style=""width:200px;border:14px solid red;"">","null","","","","","",""
"710","","image-keyboard-response","93","201421","0.0-93.0","32RIADZISTQSEOJOQIA4B1L7C6A4SL","A3NXT3OVGL7QNR","39KMGHJ4RZW9S7JH7DZG09TNV4R00C","","","img/flower5.png","74","710.6999998092651","1","0","2","",""
"null","","html-keyboard-response","94","201727","0.0-94.0","32RIADZISTQSEOJOQIA4B1L7C6A4SL","A3NXT3OVGL7QNR","39KMGHJ4RZW9S7JH7DZG09TNV4R00C","","","<img src=""img/flower5.png"" style=""width:200px;border:14px solid red;"">","null","","","","","",""
"1309.6999998092651","","image-keyboard-response","95","203037","0.0-95.0","32RIADZISTQSEOJOQIA4B1L7C6A4SL","A3NXT3OVGL7QNR","39KMGHJ4RZW9S7JH7DZG09TNV4R00C","","","img/flower5.png","75","1310.3000001907349","2","1","2","",""
"null","","html-keyboard-response","96","203343","0.0-96.0","32RIADZISTQSEOJOQIA4B1L7C6A4SL","A3NXT3OVGL7QNR","39KMGHJ4RZW9S7JH7DZG09TNV4R00C","","","<img src=""img/flower5.png"" style=""width:200px; border:14px solid green;"">","null","","","","","",""
"2429.699999809265","","image-keyboard-response","97","205773","0.0-97.0","32RIADZISTQSEOJOQIA4B1L7C6A4SL","A3NXT3OVGL7QNR","39KMGHJ4RZW9S7JH7DZG09TNV4R00C","","","img/flower4.png","74","2430.5999994277954","1","1","1","",""
"null","","html-keyboard-response","98","206079","0.0-98.0","32RIADZISTQSEOJOQIA4B1L7C6A4SL","A3NXT3OVGL7QNR","39KMGHJ4RZW9S7JH7DZG09TNV4R00C","","","<img src=""img/flower4.png"" style=""width:200px; border:14px solid green;"">","null","","","","","",""
"1029.5999994277954","","image-keyboard-response","99","207109","0.0-99.0","32RIADZISTQSEOJOQIA4B1L7C6A4SL","A3NXT3OVGL7QNR","39KMGHJ4RZW9S7JH7DZG09TNV4R00C","","","img/flower6.png","76","1030.3999996185303","3","0","3","",""
"null","","html-keyboard-response","100","207414","0.0-100.0","32RIADZISTQSEOJOQIA4B1L7C6A4SL","A3NXT3OVGL7QNR","39KMGHJ4RZW9S7JH7DZG09TNV4R00C","","","<img src=""img/flower6.png"" style=""width:200px;border:14px solid red;"">","null","","","","","",""
"1487.3000001907349","","image-keyboard-response","101","208902","0.0-101.0","32RIADZISTQSEOJOQIA4B1L7C6A4SL","A3NXT3OVGL7QNR","39KMGHJ4RZW9S7JH7DZG09TNV4R00C","","","img/flower4.png","74","1487.8000001907349","1","1","1","",""
"null","","html-keyboard-response","102","209206","0.0-102.0","32RIADZISTQSEOJOQIA4B1L7C6A4SL","A3NXT3OVGL7QNR","39KMGHJ4RZW9S7JH7DZG09TNV4R00C","","","<img src=""img/flower4.png"" style=""width:200px; border:14px solid green;"">","null","","","","","",""
"1997.4000005722046","","image-keyboard-response","103","211205","0.0-103.0","32RIADZISTQSEOJOQIA4B1L7C6A4SL","A3NXT3OVGL7QNR","39KMGHJ4RZW9S7JH7DZG09TNV4R00C","","","img/flower5.png","75","1998.8000001907349","2","1","2","",""
"null","","html-keyboard-response","104","211510","0.0-104.0","32RIADZISTQSEOJOQIA4B1L7C6A4SL","A3NXT3OVGL7QNR","39KMGHJ4RZW9S7JH7DZG09TNV4R00C","","","<img src=""img/flower5.png"" style=""width:200px; border:14px solid green;"">","null","","","","","",""
"2045.7000007629395","","image-keyboard-response","105","213557","0.0-105.0","32RIADZISTQSEOJOQIA4B1L7C6A4SL","A3NXT3OVGL7QNR","39KMGHJ4RZW9S7JH7DZG09TNV4R00C","","","img/flower6.png","74","2046.6000003814697","1","1","3","",""
"null","","html-keyboard-response","106","213862","0.0-106.0","32RIADZISTQSEOJOQIA4B1L7C6A4SL","A3NXT3OVGL7QNR","39KMGHJ4RZW9S7JH7DZG09TNV4R00C","","","<img src=""img/flower6.png"" style=""width:200px; border:14px solid green;"">","null","","","","","",""
"1006","","image-keyboard-response","107","214869","0.0-107.0","32RIADZISTQSEOJOQIA4B1L7C6A4SL","A3NXT3OVGL7QNR","39KMGHJ4RZW9S7JH7DZG09TNV4R00C","","","img/flower6.png","76","1006.7999992370605","3","1","3","",""
"null","","html-keyboard-response","108","215174","0.0-108.0","32RIADZISTQSEOJOQIA4B1L7C6A4SL","A3NXT3OVGL7QNR","39KMGHJ4RZW9S7JH7DZG09TNV4R00C","","","<img src=""img/flower6.png"" style=""width:200px; border:14px solid green;"">","null","","","","","",""
"1261.5","","image-keyboard-response","109","216437","0.0-109.0","32RIADZISTQSEOJOQIA4B1L7C6A4SL","A3NXT3OVGL7QNR","39KMGHJ4RZW9S7JH7DZG09TNV4R00C","","","img/flower4.png","74","1262.7000007629395","1","0","1","",""
"null","","html-keyboard-response","110","216742","0.0-110.0","32RIADZISTQSEOJOQIA4B1L7C6A4SL","A3NXT3OVGL7QNR","39KMGHJ4RZW9S7JH7DZG09TNV4R00C","","","<img src=""img/flower4.png"" style=""width:200px;border:14px solid red;"">","null","","","","","",""
"2294.0999994277954","","image-keyboard-response","111","219038","0.0-111.0","32RIADZISTQSEOJOQIA4B1L7C6A4SL","A3NXT3OVGL7QNR","39KMGHJ4RZW9S7JH7DZG09TNV4R00C","","","img/flower5.png","75","2295.0999994277954","2","1","2","",""
"null","","html-keyboard-response","112","219342","0.0-112.0","32RIADZISTQSEOJOQIA4B1L7C6A4SL","A3NXT3OVGL7QNR","39KMGHJ4RZW9S7JH7DZG09TNV4R00C","","","<img src=""img/flower5.png"" style=""width:200px; border:14px solid green;"">","null","","","","","",""
"1645.5","","image-keyboard-response","113","220989","0.0-113.0","32RIADZISTQSEOJOQIA4B1L7C6A4SL","A3NXT3OVGL7QNR","39KMGHJ4RZW9S7JH7DZG09TNV4R00C","","","img/flower6.png","76","1646.3000001907349","3","0","3","",""
"null","","html-keyboard-response","114","221294","0.0-114.0","32RIADZISTQSEOJOQIA4B1L7C6A4SL","A3NXT3OVGL7QNR","39KMGHJ4RZW9S7JH7DZG09TNV4R00C","","","<img src=""img/flower6.png"" style=""width:200px;border:14px solid red;"">","null","","","","","",""
"1797.5","","image-keyboard-response","115","223093","0.0-115.0","32RIADZISTQSEOJOQIA4B1L7C6A4SL","A3NXT3OVGL7QNR","39KMGHJ4RZW9S7JH7DZG09TNV4R00C","","","img/flower4.png","75","1798.1999998092651","2","0","1","",""
"null","","html-keyboard-response","116","223399","0.0-116.0","32RIADZISTQSEOJOQIA4B1L7C6A4SL","A3NXT3OVGL7QNR","39KMGHJ4RZW9S7JH7DZG09TNV4R00C","","","<img src=""img/flower4.png"" style=""width:200px;border:14px solid red;"">","null","","","","","",""
"1148.8000001907349","","image-keyboard-response","117","224548","0.0-117.0","32RIADZISTQSEOJOQIA4B1L7C6A4SL","A3NXT3OVGL7QNR","39KMGHJ4RZW9S7JH7DZG09TNV4R00C","","","img/flower6.png","74","1149.8000001907349","1","1","3","",""
"null","","html-keyboard-response","118","224855","0.0-118.0","32RIADZISTQSEOJOQIA4B1L7C6A4SL","A3NXT3OVGL7QNR","39KMGHJ4RZW9S7JH7DZG09TNV4R00C","","","<img src=""img/flower6.png"" style=""width:200px; border:14px solid green;"">","null","","","","","",""
"2181.5","","image-keyboard-response","119","227037","0.0-119.0","32RIADZISTQSEOJOQIA4B1L7C6A4SL","A3NXT3OVGL7QNR","39KMGHJ4RZW9S7JH7DZG09TNV4R00C","","","img/flower5.png","75","2182.1000003814697","2","1","2","",""
"null","","html-keyboard-response","120","227343","0.0-120.0","32RIADZISTQSEOJOQIA4B1L7C6A4SL","A3NXT3OVGL7QNR","39KMGHJ4RZW9S7JH7DZG09TNV4R00C","","","<img src=""img/flower5.png"" style=""width:200px; border:14px solid green;"">","null","","","","","",""
"589.0999994277954","","image-keyboard-response","121","227933","0.0-121.0","32RIADZISTQSEOJOQIA4B1L7C6A4SL","A3NXT3OVGL7QNR","39KMGHJ4RZW9S7JH7DZG09TNV4R00C","","","img/flower5.png","75","589.8000001907349","2","1","2","",""
"null","","html-keyboard-response","122","228239","0.0-122.0","32RIADZISTQSEOJOQIA4B1L7C6A4SL","A3NXT3OVGL7QNR","39KMGHJ4RZW9S7JH7DZG09TNV4R00C","","","<img src=""img/flower5.png"" style=""width:200px; border:14px solid green;"">","null","","","","","",""
"3190.1000003814697","","image-keyboard-response","123","231430","0.0-123.0","32RIADZISTQSEOJOQIA4B1L7C6A4SL","A3NXT3OVGL7QNR","39KMGHJ4RZW9S7JH7DZG09TNV4R00C","","","img/flower6.png","76","3190.9000005722046","3","0","3","",""
"null","","html-keyboard-response","124","231734","0.0-124.0","32RIADZISTQSEOJOQIA4B1L7C6A4SL","A3NXT3OVGL7QNR","39KMGHJ4RZW9S7JH7DZG09TNV4R00C","","","<img src=""img/flower6.png"" style=""width:200px;border:14px solid red;"">","null","","","","","",""
"44387.70000076294","","instructions","125","276123","0.0-125.0","32RIADZISTQSEOJOQIA4B1L7C6A4SL","A3NXT3OVGL7QNR","39KMGHJ4RZW9S7JH7DZG09TNV4R00C","","[{""page_index"":0,""viewing_time"":44387.10000038147}]","","","","","","","",""
"1512.1999998092651","","image-keyboard-response","126","277636","0.0-126.0","32RIADZISTQSEOJOQIA4B1L7C6A4SL","A3NXT3OVGL7QNR","39KMGHJ4RZW9S7JH7DZG09TNV4R00C","","","img/flower6.png","76","1513.1000003814697","3","0","2","0.7,0.2,0,0,0.7,0.2,0.2,0,0.7",""
"null","","html-keyboard-response","127","277943","0.0-127.0","32RIADZISTQSEOJOQIA4B1L7C6A4SL","A3NXT3OVGL7QNR","39KMGHJ4RZW9S7JH7DZG09TNV4R00C","","","<img src=""img/flower6.png"" style=""width:200px;border:14px solid red;"">","null","","","","","",""
"1085.1000003814697","","image-keyboard-response","128","279028","0.0-128.0","32RIADZISTQSEOJOQIA4B1L7C6A4SL","A3NXT3OVGL7QNR","39KMGHJ4RZW9S7JH7DZG09TNV4R00C","","","img/flower6.png","76","1085.8999996185303","3","0","2","0.7,0.2,0,0,0.7,0.2,0.2,0,0.7",""
"null","","html-keyboard-response","129","279335","0.0-129.0","32RIADZISTQSEOJOQIA4B1L7C6A4SL","A3NXT3OVGL7QNR","39KMGHJ4RZW9S7JH7DZG09TNV4R00C","","","<img src=""img/flower6.png"" style=""width:200px;border:14px solid red;"">","null","","","","","",""
"1556.6999998092651","","image-keyboard-response","130","280892","0.0-130.0","32RIADZISTQSEOJOQIA4B1L7C6A4SL","A3NXT3OVGL7QNR","39KMGHJ4RZW9S7JH7DZG09TNV4R00C","","","img/flower4.png","75","1557.6999998092651","2","0","3","0.7,0.2,0,0,0.7,0.2,0.2,0,0.7",""
"null","","html-keyboard-response","131","281199","0.0-131.0","32RIADZISTQSEOJOQIA4B1L7C6A4SL","A3NXT3OVGL7QNR","39KMGHJ4RZW9S7JH7DZG09TNV4R00C","","","<img src=""img/flower4.png"" style=""width:200px;border:14px solid red;"">","null","","","","","",""
"1660.8000001907349","","image-keyboard-response","132","282861","0.0-132.0","32RIADZISTQSEOJOQIA4B1L7C6A4SL","A3NXT3OVGL7QNR","39KMGHJ4RZW9S7JH7DZG09TNV4R00C","","","img/flower5.png","75","1661.6999998092651","2","0","1","0.7,0.2,0,0,0.7,0.2,0.2,0,0.7",""
"null","","html-keyboard-response","133","283167","0.0-133.0","32RIADZISTQSEOJOQIA4B1L7C6A4SL","A3NXT3OVGL7QNR","39KMGHJ4RZW9S7JH7DZG09TNV4R00C","","","<img src=""img/flower5.png"" style=""width:200px;border:14px solid red;"">","null","","","","","",""
"660.3000001907349","","image-keyboard-response","134","283828","0.0-134.0","32RIADZISTQSEOJOQIA4B1L7C6A4SL","A3NXT3OVGL7QNR","39KMGHJ4RZW9S7JH7DZG09TNV4R00C","","","img/flower4.png","74","661.1000003814697","1","1","3","0.7,0.2,0,0,0.7,0.2,0.2,0,0.7",""
"null","","html-keyboard-response","135","284135","0.0-135.0","32RIADZISTQSEOJOQIA4B1L7C6A4SL","A3NXT3OVGL7QNR","39KMGHJ4RZW9S7JH7DZG09TNV4R00C","","","<img src=""img/flower4.png"" style=""width:200px; border:14px solid green;"">","null","","","","","",""
"2276.4000005722046","","image-keyboard-response","136","286412","0.0-136.0","32RIADZISTQSEOJOQIA4B1L7C6A4SL","A3NXT3OVGL7QNR","39KMGHJ4RZW9S7JH7DZG09TNV4R00C","","","img/flower6.png","74","2277.300000190735","1","0","2","0.7,0.2,0,0,0.7,0.2,0.2,0,0.7",""
"null","","html-keyboard-response","137","286719","0.0-137.0","32RIADZISTQSEOJOQIA4B1L7C6A4SL","A3NXT3OVGL7QNR","39KMGHJ4RZW9S7JH7DZG09TNV4R00C","","","<img src=""img/flower6.png"" style=""width:200px;border:14px solid red;"">","null","","","","","",""
"580.1999998092651","","image-keyboard-response","138","287300","0.0-138.0","32RIADZISTQSEOJOQIA4B1L7C6A4SL","A3NXT3OVGL7QNR","39KMGHJ4RZW9S7JH7DZG09TNV4R00C","","","img/flower4.png","74","581.1999998092651","1","0","3","0.7,0.2,0,0,0.7,0.2,0.2,0,0.7",""
"null","","html-keyboard-response","139","287607","0.0-139.0","32RIADZISTQSEOJOQIA4B1L7C6A4SL","A3NXT3OVGL7QNR","39KMGHJ4RZW9S7JH7DZG09TNV4R00C","","","<img src=""img/flower4.png"" style=""width:200px;border:14px solid red;"">","null","","","","","",""
"580.0999994277954","","image-keyboard-response","140","288188","0.0-140.0","32RIADZISTQSEOJOQIA4B1L7C6A4SL","A3NXT3OVGL7QNR","39KMGHJ4RZW9S7JH7DZG09TNV4R00C","","","img/flower4.png","75","581.1000003814697","2","0","3","0.7,0.2,0,0,0.7,0.2,0.2,0,0.7",""
"null","","html-keyboard-response","141","288495","0.0-141.0","32RIADZISTQSEOJOQIA4B1L7C6A4SL","A3NXT3OVGL7QNR","39KMGHJ4RZW9S7JH7DZG09TNV4R00C","","","<img src=""img/flower4.png"" style=""width:200px;border:14px solid red;"">","null","","","","","",""
"1156","","image-keyboard-response","142","289652","0.0-142.0","32RIADZISTQSEOJOQIA4B1L7C6A4SL","A3NXT3OVGL7QNR","39KMGHJ4RZW9S7JH7DZG09TNV4R00C","","","img/flower6.png","76","1156.8999996185303","3","0","2","0.7,0.2,0,0,0.7,0.2,0.2,0,0.7",""
"null","","html-keyboard-response","143","289959","0.0-143.0","32RIADZISTQSEOJOQIA4B1L7C6A4SL","A3NXT3OVGL7QNR","39KMGHJ4RZW9S7JH7DZG09TNV4R00C","","","<img src=""img/flower6.png"" style=""width:200px;border:14px solid red;"">","null","","","","","",""
"812","","image-keyboard-response","144","290772","0.0-144.0","32RIADZISTQSEOJOQIA4B1L7C6A4SL","A3NXT3OVGL7QNR","39KMGHJ4RZW9S7JH7DZG09TNV4R00C","","","img/flower4.png","75","812.8000001907349","2","0","3","0.7,0.2,0,0,0.7,0.2,0.2,0,0.7",""
"null","","html-keyboard-response","145","291079","0.0-145.0","32RIADZISTQSEOJOQIA4B1L7C6A4SL","A3NXT3OVGL7QNR","39KMGHJ4RZW9S7JH7DZG09TNV4R00C","","","<img src=""img/flower4.png"" style=""width:200px;border:14px solid red;"">","null","","","","","",""
"867.6999998092651","","image-keyboard-response","146","291948","0.0-146.0","32RIADZISTQSEOJOQIA4B1L7C6A4SL","A3NXT3OVGL7QNR","39KMGHJ4RZW9S7JH7DZG09TNV4R00C","","","img/flower6.png","76","868.5","3","0","2","0.7,0.2,0,0,0.7,0.2,0.2,0,0.7",""
"null","","html-keyboard-response","147","292255","0.0-147.0","32RIADZISTQSEOJOQIA4B1L7C6A4SL","A3NXT3OVGL7QNR","39KMGHJ4RZW9S7JH7DZG09TNV4R00C","","","<img src=""img/flower6.png"" style=""width:200px;border:14px solid red;"">","null","","","","","",""
"1123.6000003814697","","image-keyboard-response","148","293380","0.0-148.0","32RIADZISTQSEOJOQIA4B1L7C6A4SL","A3NXT3OVGL7QNR","39KMGHJ4RZW9S7JH7DZG09TNV4R00C","","","img/flower5.png","75","1124.7000007629395","2","0","1","0.7,0.2,0,0,0.7,0.2,0.2,0,0.7",""
"null","","html-keyboard-response","149","293687","0.0-149.0","32RIADZISTQSEOJOQIA4B1L7C6A4SL","A3NXT3OVGL7QNR","39KMGHJ4RZW9S7JH7DZG09TNV4R00C","","","<img src=""img/flower5.png"" style=""width:200px;border:14px solid red;"">","null","","","","","",""
"875.8000001907349","","image-keyboard-response","150","294564","0.0-150.0","32RIADZISTQSEOJOQIA4B1L7C6A4SL","A3NXT3OVGL7QNR","39KMGHJ4RZW9S7JH7DZG09TNV4R00C","","","img/flower4.png","74","876.5999994277954","1","0","3","0.7,0.2,0,0,0.7,0.2,0.2,0,0.7",""
"null","","html-keyboard-response","151","294871","0.0-151.0","32RIADZISTQSEOJOQIA4B1L7C6A4SL","A3NXT3OVGL7QNR","39KMGHJ4RZW9S7JH7DZG09TNV4R00C","","","<img src=""img/flower4.png"" style=""width:200px;border:14px solid red;"">","null","","","","","",""
"931.5","","image-keyboard-response","152","295804","0.0-152.0","32RIADZISTQSEOJOQIA4B1L7C6A4SL","A3NXT3OVGL7QNR","39KMGHJ4RZW9S7JH7DZG09TNV4R00C","","","img/flower6.png","74","932.3999996185303","1","0","2","0.7,0.2,0,0,0.7,0.2,0.2,0,0.7",""
"null","","html-keyboard-response","153","296111","0.0-153.0","32RIADZISTQSEOJOQIA4B1L7C6A4SL","A3NXT3OVGL7QNR","39KMGHJ4RZW9S7JH7DZG09TNV4R00C","","","<img src=""img/flower6.png"" style=""width:200px;border:14px solid red;"">","null","","","","","",""
"1187.6999998092651","","image-keyboard-response","154","297300","0.0-154.0","32RIADZISTQSEOJOQIA4B1L7C6A4SL","A3NXT3OVGL7QNR","39KMGHJ4RZW9S7JH7DZG09TNV4R00C","","","img/flower4.png","75","1188.3999996185303","2","0","3","0.7,0.2,0,0,0.7,0.2,0.2,0,0.7",""
"null","","html-keyboard-response","155","297607","0.0-155.0","32RIADZISTQSEOJOQIA4B1L7C6A4SL","A3NXT3OVGL7QNR","39KMGHJ4RZW9S7JH7DZG09TNV4R00C","","","<img src=""img/flower4.png"" style=""width:200px;border:14px solid red;"">","null","","","","","",""
"1139.4000005722046","","image-keyboard-response","156","298748","0.0-156.0","32RIADZISTQSEOJOQIA4B1L7C6A4SL","A3NXT3OVGL7QNR","39KMGHJ4RZW9S7JH7DZG09TNV4R00C","","","img/flower5.png","75","1140.5","2","0","1","0.7,0.2,0,0,0.7,0.2,0.2,0,0.7",""
"null","","html-keyboard-response","157","299055","0.0-157.0","32RIADZISTQSEOJOQIA4B1L7C6A4SL","A3NXT3OVGL7QNR","39KMGHJ4RZW9S7JH7DZG09TNV4R00C","","","<img src=""img/flower5.png"" style=""width:200px;border:14px solid red;"">","null","","","","","",""
"1843.8999996185303","","image-keyboard-response","158","300900","0.0-158.0","32RIADZISTQSEOJOQIA4B1L7C6A4SL","A3NXT3OVGL7QNR","39KMGHJ4RZW9S7JH7DZG09TNV4R00C","","","img/flower5.png","75","1845","2","0","1","0.7,0.2,0,0,0.7,0.2,0.2,0,0.7",""
"null","","html-keyboard-response","159","301208","0.0-159.0","32RIADZISTQSEOJOQIA4B1L7C6A4SL","A3NXT3OVGL7QNR","39KMGHJ4RZW9S7JH7DZG09TNV4R00C","","","<img src=""img/flower5.png"" style=""width:200px;border:14px solid red;"">","null","","","","","",""
"436.1000003814697","","image-keyboard-response","160","301645","0.0-160.0","32RIADZISTQSEOJOQIA4B1L7C6A4SL","A3NXT3OVGL7QNR","39KMGHJ4RZW9S7JH7DZG09TNV4R00C","","","img/flower5.png","74","436.8999996185303","1","1","1","0.7,0.2,0,0,0.7,0.2,0.2,0,0.7",""
"null","","html-keyboard-response","161","301952","0.0-161.0","32RIADZISTQSEOJOQIA4B1L7C6A4SL","A3NXT3OVGL7QNR","39KMGHJ4RZW9S7JH7DZG09TNV4R00C","","","<img src=""img/flower5.png"" style=""width:200px; border:14px solid green;"">","null","","","","","",""
"1412.3999996185303","","image-keyboard-response","162","303365","0.0-162.0","32RIADZISTQSEOJOQIA4B1L7C6A4SL","A3NXT3OVGL7QNR","39KMGHJ4RZW9S7JH7DZG09TNV4R00C","","","img/flower6.png","74","1413.1000003814697","1","0","2","0.7,0.2,0,0,0.7,0.2,0.2,0,0.7",""
"null","","html-keyboard-response","163","303672","0.0-163.0","32RIADZISTQSEOJOQIA4B1L7C6A4SL","A3NXT3OVGL7QNR","39KMGHJ4RZW9S7JH7DZG09TNV4R00C","","","<img src=""img/flower6.png"" style=""width:200px;border:14px solid red;"">","null","","","","","",""
"932.7000007629395","","image-keyboard-response","164","304606","0.0-164.0","32RIADZISTQSEOJOQIA4B1L7C6A4SL","A3NXT3OVGL7QNR","39KMGHJ4RZW9S7JH7DZG09TNV4R00C","","","img/flower5.png","74","933.6000003814697","1","0","1","0.7,0.2,0,0,0.7,0.2,0.2,0,0.7",""
"null","","html-keyboard-response","165","304912","0.0-165.0","32RIADZISTQSEOJOQIA4B1L7C6A4SL","A3NXT3OVGL7QNR","39KMGHJ4RZW9S7JH7DZG09TNV4R00C","","","<img src=""img/flower5.png"" style=""width:200px;border:14px solid red;"">","null","","","","","",""
"924","","image-keyboard-response","166","305837","0.0-166.0","32RIADZISTQSEOJOQIA4B1L7C6A4SL","A3NXT3OVGL7QNR","39KMGHJ4RZW9S7JH7DZG09TNV4R00C","","","img/flower6.png","76","924.8999996185303","3","0","2","0.7,0.2,0,0,0.7,0.2,0.2,0,0.7",""
"null","","html-keyboard-response","167","306144","0.0-167.0","32RIADZISTQSEOJOQIA4B1L7C6A4SL","A3NXT3OVGL7QNR","39KMGHJ4RZW9S7JH7DZG09TNV4R00C","","","<img src=""img/flower6.png"" style=""width:200px;border:14px solid red;"">","null","","","","","",""
"1275.8000001907349","","image-keyboard-response","168","307421","0.0-168.0","32RIADZISTQSEOJOQIA4B1L7C6A4SL","A3NXT3OVGL7QNR","39KMGHJ4RZW9S7JH7DZG09TNV4R00C","","","img/flower4.png","75","1276.6000003814697","2","0","3","0.7,0.2,0,0,0.7,0.2,0.2,0,0.7",""
"null","","html-keyboard-response","169","307728","0.0-169.0","32RIADZISTQSEOJOQIA4B1L7C6A4SL","A3NXT3OVGL7QNR","39KMGHJ4RZW9S7JH7DZG09TNV4R00C","","","<img src=""img/flower4.png"" style=""width:200px;border:14px solid red;"">","null","","","","","",""
"587.6999998092651","","image-keyboard-response","170","308317","0.0-170.0","32RIADZISTQSEOJOQIA4B1L7C6A4SL","A3NXT3OVGL7QNR","39KMGHJ4RZW9S7JH7DZG09TNV4R00C","","","img/flower4.png","75","588.6000003814697","2","0","3","0.7,0.2,0,0,0.7,0.2,0.2,0,0.7",""
"null","","html-keyboard-response","171","308624","0.0-171.0","32RIADZISTQSEOJOQIA4B1L7C6A4SL","A3NXT3OVGL7QNR","39KMGHJ4RZW9S7JH7DZG09TNV4R00C","","","<img src=""img/flower4.png"" style=""width:200px;border:14px solid red;"">","null","","","","","",""
"780.1000003814697","","image-keyboard-response","172","309405","0.0-172.0","32RIADZISTQSEOJOQIA4B1L7C6A4SL","A3NXT3OVGL7QNR","39KMGHJ4RZW9S7JH7DZG09TNV4R00C","","","img/flower6.png","76","781","3","0","2","0.7,0.2,0,0,0.7,0.2,0.2,0,0.7",""
"null","","html-keyboard-response","173","309712","0.0-173.0","32RIADZISTQSEOJOQIA4B1L7C6A4SL","A3NXT3OVGL7QNR","39KMGHJ4RZW9S7JH7DZG09TNV4R00C","","","<img src=""img/flower6.png"" style=""width:200px;border:14px solid red;"">","null","","","","","",""
"1075.6000003814697","","image-keyboard-response","174","310789","0.0-174.0","32RIADZISTQSEOJOQIA4B1L7C6A4SL","A3NXT3OVGL7QNR","39KMGHJ4RZW9S7JH7DZG09TNV4R00C","","","img/flower6.png","74","1076.8000001907349","1","0","2","0.7,0.2,0,0,0.7,0.2,0.2,0,0.7",""
"null","","html-keyboard-response","175","311096","0.0-175.0","32RIADZISTQSEOJOQIA4B1L7C6A4SL","A3NXT3OVGL7QNR","39KMGHJ4RZW9S7JH7DZG09TNV4R00C","","","<img src=""img/flower6.png"" style=""width:200px;border:14px solid red;"">","null","","","","","",""
"459.80000019073486","","image-keyboard-response","176","311557","0.0-176.0","32RIADZISTQSEOJOQIA4B1L7C6A4SL","A3NXT3OVGL7QNR","39KMGHJ4RZW9S7JH7DZG09TNV4R00C","","","img/flower6.png","74","460.69999980926514","1","0","2","0.7,0.2,0,0,0.7,0.2,0.2,0,0.7",""
"null","","html-keyboard-response","177","311864","0.0-177.0","32RIADZISTQSEOJOQIA4B1L7C6A4SL","A3NXT3OVGL7QNR","39KMGHJ4RZW9S7JH7DZG09TNV4R00C","","","<img src=""img/flower6.png"" style=""width:200px;border:14px solid red;"">","null","","","","","",""
"267.69999980926514","","image-keyboard-response","178","312133","0.0-178.0","32RIADZISTQSEOJOQIA4B1L7C6A4SL","A3NXT3OVGL7QNR","39KMGHJ4RZW9S7JH7DZG09TNV4R00C","","","img/flower6.png","76","268.5999994277954","3","1","2","0.7,0.2,0,0,0.7,0.2,0.2,0,0.7",""
"null","","html-keyboard-response","179","312440","0.0-179.0","32RIADZISTQSEOJOQIA4B1L7C6A4SL","A3NXT3OVGL7QNR","39KMGHJ4RZW9S7JH7DZG09TNV4R00C","","","<img src=""img/flower6.png"" style=""width:200px; border:14px solid green;"">","null","","","","","",""
"843.3000001907349","","image-keyboard-response","180","313285","0.0-180.0","32RIADZISTQSEOJOQIA4B1L7C6A4SL","A3NXT3OVGL7QNR","39KMGHJ4RZW9S7JH7DZG09TNV4R00C","","","img/flower4.png","75","844.2999992370605","2","0","3","0.7,0.2,0,0,0.7,0.2,0.2,0,0.7",""
"null","","html-keyboard-response","181","313592","0.0-181.0","32RIADZISTQSEOJOQIA4B1L7C6A4SL","A3NXT3OVGL7QNR","39KMGHJ4RZW9S7JH7DZG09TNV4R00C","","","<img src=""img/flower4.png"" style=""width:200px;border:14px solid red;"">","null","","","","","",""
"978.9000005722046","","image-keyboard-response","182","314573","0.0-182.0","32RIADZISTQSEOJOQIA4B1L7C6A4SL","A3NXT3OVGL7QNR","39KMGHJ4RZW9S7JH7DZG09TNV4R00C","","","img/flower4.png","75","980.1999998092651","2","0","3","0.7,0.2,0,0,0.7,0.2,0.2,0,0.7",""
"null","","html-keyboard-response","183","314880","0.0-183.0","32RIADZISTQSEOJOQIA4B1L7C6A4SL","A3NXT3OVGL7QNR","39KMGHJ4RZW9S7JH7DZG09TNV4R00C","","","<img src=""img/flower4.png"" style=""width:200px;border:14px solid red;"">","null","","","","","",""
"404.3999996185303","","image-keyboard-response","184","315285","0.0-184.0","32RIADZISTQSEOJOQIA4B1L7C6A4SL","A3NXT3OVGL7QNR","39KMGHJ4RZW9S7JH7DZG09TNV4R00C","","","img/flower4.png","74","405","1","1","3","0.7,0.2,0,0,0.7,0.2,0.2,0,0.7",""
"null","","html-keyboard-response","185","315592","0.0-185.0","32RIADZISTQSEOJOQIA4B1L7C6A4SL","A3NXT3OVGL7QNR","39KMGHJ4RZW9S7JH7DZG09TNV4R00C","","","<img src=""img/flower4.png"" style=""width:200px; border:14px solid green;"">","null","","","","","",""
"851.6000003814697","","image-keyboard-response","186","316445","0.0-186.0","32RIADZISTQSEOJOQIA4B1L7C6A4SL","A3NXT3OVGL7QNR","39KMGHJ4RZW9S7JH7DZG09TNV4R00C","","","img/flower5.png","74","852.3999996185303","1","0","1","0.7,0.2,0,0,0.7,0.2,0.2,0,0.7",""
"null","","html-keyboard-response","187","316752","0.0-187.0","32RIADZISTQSEOJOQIA4B1L7C6A4SL","A3NXT3OVGL7QNR","39KMGHJ4RZW9S7JH7DZG09TNV4R00C","","","<img src=""img/flower5.png"" style=""width:200px;border:14px solid red;"">","null","","","","","",""
"1107","","image-keyboard-response","188","317860","0.0-188.0","32RIADZISTQSEOJOQIA4B1L7C6A4SL","A3NXT3OVGL7QNR","39KMGHJ4RZW9S7JH7DZG09TNV4R00C","","","img/flower4.png","74","1107.8999996185303","1","0","3","0.7,0.2,0,0,0.7,0.2,0.2,0,0.7",""
"null","","html-keyboard-response","189","318168","0.0-189.0","32RIADZISTQSEOJOQIA4B1L7C6A4SL","A3NXT3OVGL7QNR","39KMGHJ4RZW9S7JH7DZG09TNV4R00C","","","<img src=""img/flower4.png"" style=""width:200px;border:14px solid red;"">","null","","","","","",""
"1035.3000001907349","","image-keyboard-response","190","319205","0.0-190.0","32RIADZISTQSEOJOQIA4B1L7C6A4SL","A3NXT3OVGL7QNR","39KMGHJ4RZW9S7JH7DZG09TNV4R00C","","","img/flower6.png","76","1036.2000007629395","3","0","2","0.7,0.2,0,0,0.7,0.2,0.2,0,0.7",""
"null","","html-keyboard-response","191","319513","0.0-191.0","32RIADZISTQSEOJOQIA4B1L7C6A4SL","A3NXT3OVGL7QNR","39KMGHJ4RZW9S7JH7DZG09TNV4R00C","","","<img src=""img/flower6.png"" style=""width:200px;border:14px solid red;"">","null","","","","","",""
"618.3999996185303","","image-keyboard-response","192","320133","0.0-192.0","32RIADZISTQSEOJOQIA4B1L7C6A4SL","A3NXT3OVGL7QNR","39KMGHJ4RZW9S7JH7DZG09TNV4R00C","","","img/flower6.png","74","619.6999998092651","1","0","2","0.7,0.2,0,0,0.7,0.2,0.2,0,0.7",""
"null","","html-keyboard-response","193","320440","0.0-193.0","32RIADZISTQSEOJOQIA4B1L7C6A4SL","A3NXT3OVGL7QNR","39KMGHJ4RZW9S7JH7DZG09TNV4R00C","","","<img src=""img/flower6.png"" style=""width:200px;border:14px solid red;"">","null","","","","","",""
"763","","image-keyboard-response","194","321204","0.0-194.0","32RIADZISTQSEOJOQIA4B1L7C6A4SL","A3NXT3OVGL7QNR","39KMGHJ4RZW9S7JH7DZG09TNV4R00C","","","img/flower5.png","75","763.7000007629395","2","0","1","0.7,0.2,0,0,0.7,0.2,0.2,0,0.7",""
"null","","html-keyboard-response","195","321512","0.0-195.0","32RIADZISTQSEOJOQIA4B1L7C6A4SL","A3NXT3OVGL7QNR","39KMGHJ4RZW9S7JH7DZG09TNV4R00C","","","<img src=""img/flower5.png"" style=""width:200px;border:14px solid red;"">","null","","","","","",""
"1363.5999994277954","","image-keyboard-response","196","322877","0.0-196.0","32RIADZISTQSEOJOQIA4B1L7C6A4SL","A3NXT3OVGL7QNR","39KMGHJ4RZW9S7JH7DZG09TNV4R00C","","","img/flower6.png","76","1364.8999996185303","3","0","2","0.7,0.2,0,0,0.7,0.2,0.2,0,0.7",""
"null","","html-keyboard-response","197","323184","0.0-197.0","32RIADZISTQSEOJOQIA4B1L7C6A4SL","A3NXT3OVGL7QNR","39KMGHJ4RZW9S7JH7DZG09TNV4R00C","","","<img src=""img/flower6.png"" style=""width:200px;border:14px solid red;"">","null","","","","","",""
"803.6999998092651","","image-keyboard-response","198","323988","0.0-198.0","32RIADZISTQSEOJOQIA4B1L7C6A4SL","A3NXT3OVGL7QNR","39KMGHJ4RZW9S7JH7DZG09TNV4R00C","","","img/flower4.png","75","804.5","2","0","3","0.7,0.2,0,0,0.7,0.2,0.2,0,0.7",""
"null","","html-keyboard-response","199","324296","0.0-199.0","32RIADZISTQSEOJOQIA4B1L7C6A4SL","A3NXT3OVGL7QNR","39KMGHJ4RZW9S7JH7DZG09TNV4R00C","","","<img src=""img/flower4.png"" style=""width:200px;border:14px solid red;"">","null","","","","","",""
"1209.2000007629395","","image-keyboard-response","200","325509","0.0-200.0","32RIADZISTQSEOJOQIA4B1L7C6A4SL","A3NXT3OVGL7QNR","39KMGHJ4RZW9S7JH7DZG09TNV4R00C","","","img/flower6.png","76","1213.2999992370605","3","0","2","0.7,0.2,0,0,0.7,0.2,0.2,0,0.7",""
"null","","html-keyboard-response","201","325816","0.0-201.0","32RIADZISTQSEOJOQIA4B1L7C6A4SL","A3NXT3OVGL7QNR","39KMGHJ4RZW9S7JH7DZG09TNV4R00C","","","<img src=""img/flower6.png"" style=""width:200px;border:14px solid red;"">","null","","","","","",""
"1619.6000003814697","","image-keyboard-response","202","327436","0.0-202.0","32RIADZISTQSEOJOQIA4B1L7C6A4SL","A3NXT3OVGL7QNR","39KMGHJ4RZW9S7JH7DZG09TNV4R00C","","","img/flower5.png","75","1620.2999992370605","2","0","1","0.7,0.2,0,0,0.7,0.2,0.2,0,0.7",""
"null","","html-keyboard-response","203","327744","0.0-203.0","32RIADZISTQSEOJOQIA4B1L7C6A4SL","A3NXT3OVGL7QNR","39KMGHJ4RZW9S7JH7DZG09TNV4R00C","","","<img src=""img/flower5.png"" style=""width:200px;border:14px solid red;"">","null","","","","","",""
"403.9000005722046","","image-keyboard-response","204","328149","0.0-204.0","32RIADZISTQSEOJOQIA4B1L7C6A4SL","A3NXT3OVGL7QNR","39KMGHJ4RZW9S7JH7DZG09TNV4R00C","","","img/flower5.png","75","405.4000005722046","2","0","1","0.7,0.2,0,0,0.7,0.2,0.2,0,0.7",""
"null","","html-keyboard-response","205","328456","0.0-205.0","32RIADZISTQSEOJOQIA4B1L7C6A4SL","A3NXT3OVGL7QNR","39KMGHJ4RZW9S7JH7DZG09TNV4R00C","","","<img src=""img/flower5.png"" style=""width:200px;border:14px solid red;"">","null","","","","","",""
"2627.3999996185303","","image-keyboard-response","206","331085","0.0-206.0","32RIADZISTQSEOJOQIA4B1L7C6A4SL","A3NXT3OVGL7QNR","39KMGHJ4RZW9S7JH7DZG09TNV4R00C","","","img/flower4.png","74","2628.4000005722046","1","0","3","0.7,0.2,0,0,0.7,0.2,0.2,0,0.7",""
"null","","html-keyboard-response","207","331392","0.0-207.0","32RIADZISTQSEOJOQIA4B1L7C6A4SL","A3NXT3OVGL7QNR","39KMGHJ4RZW9S7JH7DZG09TNV4R00C","","","<img src=""img/flower4.png"" style=""width:200px;border:14px solid red;"">","null","","","","","",""
"899.5","","image-keyboard-response","208","332292","0.0-208.0","32RIADZISTQSEOJOQIA4B1L7C6A4SL","A3NXT3OVGL7QNR","39KMGHJ4RZW9S7JH7DZG09TNV4R00C","","","img/flower6.png","76","900.3000001907349","3","1","2","0.7,0.2,0,0,0.7,0.2,0.2,0,0.7",""
"null","","html-keyboard-response","209","332600","0.0-209.0","32RIADZISTQSEOJOQIA4B1L7C6A4SL","A3NXT3OVGL7QNR","39KMGHJ4RZW9S7JH7DZG09TNV4R00C","","","<img src=""img/flower6.png"" style=""width:200px; border:14px solid green;"">","null","","","","","",""
"923.3999996185303","","image-keyboard-response","210","333524","0.0-210.0","32RIADZISTQSEOJOQIA4B1L7C6A4SL","A3NXT3OVGL7QNR","39KMGHJ4RZW9S7JH7DZG09TNV4R00C","","","img/flower4.png","75","924.4000005722046","2","0","3","0.7,0.2,0,0,0.7,0.2,0.2,0,0.7",""
"null","","html-keyboard-response","211","333832","0.0-211.0","32RIADZISTQSEOJOQIA4B1L7C6A4SL","A3NXT3OVGL7QNR","39KMGHJ4RZW9S7JH7DZG09TNV4R00C","","","<img src=""img/flower4.png"" style=""width:200px;border:14px solid red;"">","null","","","","","",""
"499.29999923706055","","image-keyboard-response","212","334332","0.0-212.0","32RIADZISTQSEOJOQIA4B1L7C6A4SL","A3NXT3OVGL7QNR","39KMGHJ4RZW9S7JH7DZG09TNV4R00C","","","img/flower4.png","75","500.19999980926514","2","0","3","0.7,0.2,0,0,0.7,0.2,0.2,0,0.7",""
"null","","html-keyboard-response","213","334640","0.0-213.0","32RIADZISTQSEOJOQIA4B1L7C6A4SL","A3NXT3OVGL7QNR","39KMGHJ4RZW9S7JH7DZG09TNV4R00C","","","<img src=""img/flower4.png"" style=""width:200px;border:14px solid red;"">","null","","","","","",""
"2387.8999996185303","","image-keyboard-response","214","337029","0.0-214.0","32RIADZISTQSEOJOQIA4B1L7C6A4SL","A3NXT3OVGL7QNR","39KMGHJ4RZW9S7JH7DZG09TNV4R00C","","","img/flower6.png","74","2388.6000003814697","1","0","2","0.7,0.2,0,0,0.7,0.2,0.2,0,0.7",""
"null","","html-keyboard-response","215","337336","0.0-215.0","32RIADZISTQSEOJOQIA4B1L7C6A4SL","A3NXT3OVGL7QNR","39KMGHJ4RZW9S7JH7DZG09TNV4R00C","","","<img src=""img/flower6.png"" style=""width:200px;border:14px solid red;"">","null","","","","","",""
"394.80000019073486","","image-keyboard-response","216","337732","0.0-216.0","32RIADZISTQSEOJOQIA4B1L7C6A4SL","A3NXT3OVGL7QNR","39KMGHJ4RZW9S7JH7DZG09TNV4R00C","","","img/flower6.png","74","395.9000005722046","1","0","2","0.7,0.2,0,0,0.7,0.2,0.2,0,0.7",""
"null","","html-keyboard-response","217","338040","0.0-217.0","32RIADZISTQSEOJOQIA4B1L7C6A4SL","A3NXT3OVGL7QNR","39KMGHJ4RZW9S7JH7DZG09TNV4R00C","","","<img src=""img/flower6.png"" style=""width:200px;border:14px solid red;"">","null","","","","","",""
"251.5","","image-keyboard-response","218","338292","0.0-218.0","32RIADZISTQSEOJOQIA4B1L7C6A4SL","A3NXT3OVGL7QNR","39KMGHJ4RZW9S7JH7DZG09TNV4R00C","","","img/flower4.png","76","252.5","3","0","3","0.7,0.2,0,0,0.7,0.2,0.2,0,0.7",""
"null","","html-keyboard-response","219","338600","0.0-219.0","32RIADZISTQSEOJOQIA4B1L7C6A4SL","A3NXT3OVGL7QNR","39KMGHJ4RZW9S7JH7DZG09TNV4R00C","","","<img src=""img/flower4.png"" style=""width:200px;border:14px solid red;"">","null","","","","","",""
"1269.1999998092651","","image-keyboard-response","220","339871","0.0-220.0","32RIADZISTQSEOJOQIA4B1L7C6A4SL","A3NXT3OVGL7QNR","39KMGHJ4RZW9S7JH7DZG09TNV4R00C","","","img/flower5.png","76","1270.1999998092651","3","0","1","0.7,0.2,0,0,0.7,0.2,0.2,0,0.7",""
"null","","html-keyboard-response","221","340176","0.0-221.0","32RIADZISTQSEOJOQIA4B1L7C6A4SL","A3NXT3OVGL7QNR","39KMGHJ4RZW9S7JH7DZG09TNV4R00C","","","<img src=""img/flower5.png"" style=""width:200px;border:14px solid red;"">","null","","","","","",""
"578.6999998092651","","image-keyboard-response","222","340756","0.0-222.0","32RIADZISTQSEOJOQIA4B1L7C6A4SL","A3NXT3OVGL7QNR","39KMGHJ4RZW9S7JH7DZG09TNV4R00C","","","img/flower5.png","75","579.5999994277954","2","0","1","0.7,0.2,0,0,0.7,0.2,0.2,0,0.7",""
"null","","html-keyboard-response","223","341064","0.0-223.0","32RIADZISTQSEOJOQIA4B1L7C6A4SL","A3NXT3OVGL7QNR","39KMGHJ4RZW9S7JH7DZG09TNV4R00C","","","<img src=""img/flower5.png"" style=""width:200px;border:14px solid red;"">","null","","","","","",""
"594.1000003814697","","image-keyboard-response","224","341660","0.0-224.0","32RIADZISTQSEOJOQIA4B1L7C6A4SL","A3NXT3OVGL7QNR","39KMGHJ4RZW9S7JH7DZG09TNV4R00C","","","img/flower5.png","75","595.3000001907349","2","1","1","0.7,0.2,0,0,0.7,0.2,0.2,0,0.7",""
"null","","html-keyboard-response","225","341968","0.0-225.0","32RIADZISTQSEOJOQIA4B1L7C6A4SL","A3NXT3OVGL7QNR","39KMGHJ4RZW9S7JH7DZG09TNV4R00C","","","<img src=""img/flower5.png"" style=""width:200px; border:14px solid green;"">","null","","","","","",""
"482.5","","image-keyboard-response","226","342452","0.0-226.0","32RIADZISTQSEOJOQIA4B1L7C6A4SL","A3NXT3OVGL7QNR","39KMGHJ4RZW9S7JH7DZG09TNV4R00C","","","img/flower5.png","75","483.30000019073486","2","0","1","0.7,0.2,0,0,0.7,0.2,0.2,0,0.7",""
"null","","html-keyboard-response","227","342760","0.0-227.0","32RIADZISTQSEOJOQIA4B1L7C6A4SL","A3NXT3OVGL7QNR","39KMGHJ4RZW9S7JH7DZG09TNV4R00C","","","<img src=""img/flower5.png"" style=""width:200px;border:14px solid red;"">","null","","","","","",""
"258.70000076293945","","image-keyboard-response","228","343020","0.0-228.0","32RIADZISTQSEOJOQIA4B1L7C6A4SL","A3NXT3OVGL7QNR","39KMGHJ4RZW9S7JH7DZG09TNV4R00C","","","img/flower5.png","76","259.5999994277954","3","0","1","0.7,0.2,0,0,0.7,0.2,0.2,0,0.7",""
"null","","html-keyboard-response","229","343329","0.0-229.0","32RIADZISTQSEOJOQIA4B1L7C6A4SL","A3NXT3OVGL7QNR","39KMGHJ4RZW9S7JH7DZG09TNV4R00C","","","<img src=""img/flower5.png"" style=""width:200px;border:14px solid red;"">","null","","","","","",""
"209.9000005722046","","image-keyboard-response","230","343540","0.0-230.0","32RIADZISTQSEOJOQIA4B1L7C6A4SL","A3NXT3OVGL7QNR","39KMGHJ4RZW9S7JH7DZG09TNV4R00C","","","img/flower5.png","75","210.9000005722046","2","0","1","0.7,0.2,0,0,0.7,0.2,0.2,0,0.7",""
"null","","html-keyboard-response","231","343849","0.0-231.0","32RIADZISTQSEOJOQIA4B1L7C6A4SL","A3NXT3OVGL7QNR","39KMGHJ4RZW9S7JH7DZG09TNV4R00C","","","<img src=""img/flower5.png"" style=""width:200px;border:14px solid red;"">","null","","","","","",""
"321","","image-keyboard-response","232","344172","0.0-232.0","32RIADZISTQSEOJOQIA4B1L7C6A4SL","A3NXT3OVGL7QNR","39KMGHJ4RZW9S7JH7DZG09TNV4R00C","","","img/flower5.png","75","322.30000019073486","2","0","1","0.7,0.2,0,0,0.7,0.2,0.2,0,0.7",""
"null","","html-keyboard-response","233","344480","0.0-233.0","32RIADZISTQSEOJOQIA4B1L7C6A4SL","A3NXT3OVGL7QNR","39KMGHJ4RZW9S7JH7DZG09TNV4R00C","","","<img src=""img/flower5.png"" style=""width:200px;border:14px solid red;"">","null","","","","","",""
"43.19999980926514","","image-keyboard-response","234","344524","0.0-234.0","32RIADZISTQSEOJOQIA4B1L7C6A4SL","A3NXT3OVGL7QNR","39KMGHJ4RZW9S7JH7DZG09TNV4R00C","","","img/flower5.png","76","44.19999980926514","3","0","1","0.7,0.2,0,0,0.7,0.2,0.2,0,0.7",""
"null","","html-keyboard-response","235","344832","0.0-235.0","32RIADZISTQSEOJOQIA4B1L7C6A4SL","A3NXT3OVGL7QNR","39KMGHJ4RZW9S7JH7DZG09TNV4R00C","","","<img src=""img/flower5.png"" style=""width:200px;border:14px solid red;"">","null","","","","","",""
"355.8999996185303","","image-keyboard-response","236","345188","0.0-236.0","32RIADZISTQSEOJOQIA4B1L7C6A4SL","A3NXT3OVGL7QNR","39KMGHJ4RZW9S7JH7DZG09TNV4R00C","","","img/flower5.png","76","356.80000019073486","3","0","1","0.7,0.2,0,0,0.7,0.2,0.2,0,0.7",""
"null","","html-keyboard-response","237","345496","0.0-237.0","32RIADZISTQSEOJOQIA4B1L7C6A4SL","A3NXT3OVGL7QNR","39KMGHJ4RZW9S7JH7DZG09TNV4R00C","","","<img src=""img/flower5.png"" style=""width:200px;border:14px solid red;"">","null","","","","","",""
"83.29999923706055","","image-keyboard-response","238","345580","0.0-238.0","32RIADZISTQSEOJOQIA4B1L7C6A4SL","A3NXT3OVGL7QNR","39KMGHJ4RZW9S7JH7DZG09TNV4R00C","","","img/flower6.png","75","84.19999980926514","2","0","2","0.7,0.2,0,0,0.7,0.2,0.2,0,0.7",""
"null","","html-keyboard-response","239","345888","0.0-239.0","32RIADZISTQSEOJOQIA4B1L7C6A4SL","A3NXT3OVGL7QNR","39KMGHJ4RZW9S7JH7DZG09TNV4R00C","","","<img src=""img/flower6.png"" style=""width:200px;border:14px solid red;"">","null","","","","","",""
"1003.3000001907349","","image-keyboard-response","240","346892","0.0-240.0","32RIADZISTQSEOJOQIA4B1L7C6A4SL","A3NXT3OVGL7QNR","39KMGHJ4RZW9S7JH7DZG09TNV4R00C","","","img/flower4.png","74","1004.4000005722046","1","0","3","0.7,0.2,0,0,0.7,0.2,0.2,0,0.7",""
"null","","html-keyboard-response","241","347200","0.0-241.0","32RIADZISTQSEOJOQIA4B1L7C6A4SL","A3NXT3OVGL7QNR","39KMGHJ4RZW9S7JH7DZG09TNV4R00C","","","<img src=""img/flower4.png"" style=""width:200px;border:14px solid red;"">","null","","","","","",""
"852","","image-keyboard-response","242","348053","0.0-242.0","32RIADZISTQSEOJOQIA4B1L7C6A4SL","A3NXT3OVGL7QNR","39KMGHJ4RZW9S7JH7DZG09TNV4R00C","","","img/flower5.png","75","852.8000001907349","2","0","1","0.7,0.2,0,0,0.7,0.2,0.2,0,0.7",""
"null","","html-keyboard-response","243","348360","0.0-243.0","32RIADZISTQSEOJOQIA4B1L7C6A4SL","A3NXT3OVGL7QNR","39KMGHJ4RZW9S7JH7DZG09TNV4R00C","","","<img src=""img/flower5.png"" style=""width:200px;border:14px solid red;"">","null","","","","","",""
"1795.5999994277954","","image-keyboard-response","244","350156","0.0-244.0","32RIADZISTQSEOJOQIA4B1L7C6A4SL","A3NXT3OVGL7QNR","39KMGHJ4RZW9S7JH7DZG09TNV4R00C","","","img/flower6.png","74","1796.3999996185303","1","0","2","0.7,0.2,0,0,0.7,0.2,0.2,0,0.7",""
"null","","html-keyboard-response","245","350464","0.0-245.0","32RIADZISTQSEOJOQIA4B1L7C6A4SL","A3NXT3OVGL7QNR","39KMGHJ4RZW9S7JH7DZG09TNV4R00C","","","<img src=""img/flower6.png"" style=""width:200px;border:14px solid red;"">","null","","","","","",""
"890","","image-keyboard-response","246","351356","0.0-246.0","32RIADZISTQSEOJOQIA4B1L7C6A4SL","A3NXT3OVGL7QNR","39KMGHJ4RZW9S7JH7DZG09TNV4R00C","","","img/flower5.png","75","891.7999992370605","2","0","1","0.7,0.2,0,0,0.7,0.2,0.2,0,0.7",""
"null","","html-keyboard-response","247","351664","0.0-247.0","32RIADZISTQSEOJOQIA4B1L7C6A4SL","A3NXT3OVGL7QNR","39KMGHJ4RZW9S7JH7DZG09TNV4R00C","","","<img src=""img/flower5.png"" style=""width:200px;border:14px solid red;"">","null","","","","","",""
"899.3000001907349","","image-keyboard-response","248","352564","0.0-248.0","32RIADZISTQSEOJOQIA4B1L7C6A4SL","A3NXT3OVGL7QNR","39KMGHJ4RZW9S7JH7DZG09TNV4R00C","","","img/flower4.png","75","900.2000007629395","2","0","3","0.7,0.2,0,0,0.7,0.2,0.2,0,0.7",""
"null","","html-keyboard-response","249","352872","0.0-249.0","32RIADZISTQSEOJOQIA4B1L7C6A4SL","A3NXT3OVGL7QNR","39KMGHJ4RZW9S7JH7DZG09TNV4R00C","","","<img src=""img/flower4.png"" style=""width:200px;border:14px solid red;"">","null","","","","","",""
"515","","image-keyboard-response","250","353388","0.0-250.0","32RIADZISTQSEOJOQIA4B1L7C6A4SL","A3NXT3OVGL7QNR","39KMGHJ4RZW9S7JH7DZG09TNV4R00C","","","img/flower4.png","74","516","1","1","3","0.7,0.2,0,0,0.7,0.2,0.2,0,0.7",""
"null","","html-keyboard-response","251","353696","0.0-251.0","32RIADZISTQSEOJOQIA4B1L7C6A4SL","A3NXT3OVGL7QNR","39KMGHJ4RZW9S7JH7DZG09TNV4R00C","","","<img src=""img/flower4.png"" style=""width:200px; border:14px solid green;"">","null","","","","","",""
"1042.4000005722046","","image-keyboard-response","252","354740","0.0-252.0","32RIADZISTQSEOJOQIA4B1L7C6A4SL","A3NXT3OVGL7QNR","39KMGHJ4RZW9S7JH7DZG09TNV4R00C","","","img/flower6.png","74","1043.6000003814697","1","0","2","0.7,0.2,0,0,0.7,0.2,0.2,0,0.7",""
"null","","html-keyboard-response","253","355048","0.0-253.0","32RIADZISTQSEOJOQIA4B1L7C6A4SL","A3NXT3OVGL7QNR","39KMGHJ4RZW9S7JH7DZG09TNV4R00C","","","<img src=""img/flower6.png"" style=""width:200px;border:14px solid red;"">","null","","","","","",""
"761.8999996185303","","image-keyboard-response","254","355812","0.0-254.0","32RIADZISTQSEOJOQIA4B1L7C6A4SL","A3NXT3OVGL7QNR","39KMGHJ4RZW9S7JH7DZG09TNV4R00C","","","img/flower5.png","75","763.6000003814697","2","0","1","0.7,0.2,0,0,0.7,0.2,0.2,0,0.7",""
"null","","html-keyboard-response","255","356120","0.0-255.0","32RIADZISTQSEOJOQIA4B1L7C6A4SL","A3NXT3OVGL7QNR","39KMGHJ4RZW9S7JH7DZG09TNV4R00C","","","<img src=""img/flower5.png"" style=""width:200px;border:14px solid red;"">","null","","","","","",""
"650.7999992370605","","image-keyboard-response","256","356772","0.0-256.0","32RIADZISTQSEOJOQIA4B1L7C6A4SL","A3NXT3OVGL7QNR","39KMGHJ4RZW9S7JH7DZG09TNV4R00C","","","img/flower5.png","74","651.6999998092651","1","0","1","0.7,0.2,0,0,0.7,0.2,0.2,0,0.7",""
"null","","html-keyboard-response","257","357080","0.0-257.0","32RIADZISTQSEOJOQIA4B1L7C6A4SL","A3NXT3OVGL7QNR","39KMGHJ4RZW9S7JH7DZG09TNV4R00C","","","<img src=""img/flower5.png"" style=""width:200px;border:14px solid red;"">","null","","","","","",""
"946.5","","image-keyboard-response","258","358028","0.0-258.0","32RIADZISTQSEOJOQIA4B1L7C6A4SL","A3NXT3OVGL7QNR","39KMGHJ4RZW9S7JH7DZG09TNV4R00C","","","img/flower6.png","74","947.1999998092651","1","0","2","0.7,0.2,0,0,0.7,0.2,0.2,0,0.7",""
"null","","html-keyboard-response","259","358336","0.0-259.0","32RIADZISTQSEOJOQIA4B1L7C6A4SL","A3NXT3OVGL7QNR","39KMGHJ4RZW9S7JH7DZG09TNV4R00C","","","<img src=""img/flower6.png"" style=""width:200px;border:14px solid red;"">","null","","","","","",""
"987.2999992370605","","image-keyboard-response","260","359324","0.0-260.0","32RIADZISTQSEOJOQIA4B1L7C6A4SL","A3NXT3OVGL7QNR","39KMGHJ4RZW9S7JH7DZG09TNV4R00C","","","img/flower5.png","76","988.0999994277954","3","0","1","0.7,0.2,0,0,0.7,0.2,0.2,0,0.7",""
"null","","html-keyboard-response","261","359632","0.0-261.0","32RIADZISTQSEOJOQIA4B1L7C6A4SL","A3NXT3OVGL7QNR","39KMGHJ4RZW9S7JH7DZG09TNV4R00C","","","<img src=""img/flower5.png"" style=""width:200px;border:14px solid red;"">","null","","","","","",""
"2258.1000003814697","","image-keyboard-response","262","361892","0.0-262.0","32RIADZISTQSEOJOQIA4B1L7C6A4SL","A3NXT3OVGL7QNR","39KMGHJ4RZW9S7JH7DZG09TNV4R00C","","","img/flower4.png","74","2259.3999996185303","1","0","3","0.7,0.2,0,0,0.7,0.2,0.2,0,0.7",""
"null","","html-keyboard-response","263","362201","0.0-263.0","32RIADZISTQSEOJOQIA4B1L7C6A4SL","A3NXT3OVGL7QNR","39KMGHJ4RZW9S7JH7DZG09TNV4R00C","","","<img src=""img/flower4.png"" style=""width:200px;border:14px solid red;"">","null","","","","","",""
"258.5","","image-keyboard-response","264","362460","0.0-264.0","32RIADZISTQSEOJOQIA4B1L7C6A4SL","A3NXT3OVGL7QNR","39KMGHJ4RZW9S7JH7DZG09TNV4R00C","","","img/flower4.png","75","259.0999994277954","2","0","3","0.7,0.2,0,0,0.7,0.2,0.2,0,0.7",""
"null","","html-keyboard-response","265","362769","0.0-265.0","32RIADZISTQSEOJOQIA4B1L7C6A4SL","A3NXT3OVGL7QNR","39KMGHJ4RZW9S7JH7DZG09TNV4R00C","","","<img src=""img/flower4.png"" style=""width:200px;border:14px solid red;"">","null","","","","","",""
"1074.3999996185303","","image-keyboard-response","266","363844","0.0-266.0","32RIADZISTQSEOJOQIA4B1L7C6A4SL","A3NXT3OVGL7QNR","39KMGHJ4RZW9S7JH7DZG09TNV4R00C","","","img/flower6.png","76","1075.2000007629395","3","0","2","0.7,0.2,0,0,0.7,0.2,0.2,0,0.7",""
"null","","html-keyboard-response","267","364153","0.0-267.0","32RIADZISTQSEOJOQIA4B1L7C6A4SL","A3NXT3OVGL7QNR","39KMGHJ4RZW9S7JH7DZG09TNV4R00C","","","<img src=""img/flower6.png"" style=""width:200px;border:14px solid red;"">","null","","","","","",""
"906","","image-keyboard-response","268","365060","0.0-268.0","32RIADZISTQSEOJOQIA4B1L7C6A4SL","A3NXT3OVGL7QNR","39KMGHJ4RZW9S7JH7DZG09TNV4R00C","","","img/flower6.png","74","906.9000005722046","1","0","2","0.7,0.2,0,0,0.7,0.2,0.2,0,0.7",""
"null","","html-keyboard-response","269","365369","0.0-269.0","32RIADZISTQSEOJOQIA4B1L7C6A4SL","A3NXT3OVGL7QNR","39KMGHJ4RZW9S7JH7DZG09TNV4R00C","","","<img src=""img/flower6.png"" style=""width:200px;border:14px solid red;"">","null","","","","","",""
"794.3000001907349","","image-keyboard-response","270","366164","0.0-270.0","32RIADZISTQSEOJOQIA4B1L7C6A4SL","A3NXT3OVGL7QNR","39KMGHJ4RZW9S7JH7DZG09TNV4R00C","","","img/flower5.png","75","795.1000003814697","2","0","1","0.7,0.2,0,0,0.7,0.2,0.2,0,0.7",""
"null","","html-keyboard-response","271","366473","0.0-271.0","32RIADZISTQSEOJOQIA4B1L7C6A4SL","A3NXT3OVGL7QNR","39KMGHJ4RZW9S7JH7DZG09TNV4R00C","","","<img src=""img/flower5.png"" style=""width:200px;border:14px solid red;"">","null","","","","","",""
"1177.5","","image-keyboard-response","272","367652","0.0-272.0","32RIADZISTQSEOJOQIA4B1L7C6A4SL","A3NXT3OVGL7QNR","39KMGHJ4RZW9S7JH7DZG09TNV4R00C","","","img/flower5.png","75","1178.6000003814697","2","0","1","0.7,0.2,0,0,0.7,0.2,0.2,0,0.7",""
"null","","html-keyboard-response","273","367960","0.0-273.0","32RIADZISTQSEOJOQIA4B1L7C6A4SL","A3NXT3OVGL7QNR","39KMGHJ4RZW9S7JH7DZG09TNV4R00C","","","<img src=""img/flower5.png"" style=""width:200px;border:14px solid red;"">","null","","","","","",""
"826.5","","image-keyboard-response","274","368787","0.0-274.0","32RIADZISTQSEOJOQIA4B1L7C6A4SL","A3NXT3OVGL7QNR","39KMGHJ4RZW9S7JH7DZG09TNV4R00C","","","img/flower4.png","74","827.3999996185303","1","0","3","0.7,0.2,0,0,0.7,0.2,0.2,0,0.7",""
"null","","html-keyboard-response","275","369096","0.0-275.0","32RIADZISTQSEOJOQIA4B1L7C6A4SL","A3NXT3OVGL7QNR","39KMGHJ4RZW9S7JH7DZG09TNV4R00C","","","<img src=""img/flower4.png"" style=""width:200px;border:14px solid red;"">","null","","","","","",""
"1291.2999992370605","","image-keyboard-response","276","370388","0.0-276.0","32RIADZISTQSEOJOQIA4B1L7C6A4SL","A3NXT3OVGL7QNR","39KMGHJ4RZW9S7JH7DZG09TNV4R00C","","","img/flower5.png","76","1292.0999994277954","3","0","1","0.7,0.2,0,0,0.7,0.2,0.2,0,0.7",""
"null","","html-keyboard-response","277","370696","0.0-277.0","32RIADZISTQSEOJOQIA4B1L7C6A4SL","A3NXT3OVGL7QNR","39KMGHJ4RZW9S7JH7DZG09TNV4R00C","","","<img src=""img/flower5.png"" style=""width:200px;border:14px solid red;"">","null","","","","","",""
"1002.5","","image-keyboard-response","278","371699","0.0-278.0","32RIADZISTQSEOJOQIA4B1L7C6A4SL","A3NXT3OVGL7QNR","39KMGHJ4RZW9S7JH7DZG09TNV4R00C","","","img/flower4.png","75","1003.4000005722046","2","0","3","0.7,0.2,0,0,0.7,0.2,0.2,0,0.7",""
"null","","html-keyboard-response","279","372008","0.0-279.0","32RIADZISTQSEOJOQIA4B1L7C6A4SL","A3NXT3OVGL7QNR","39KMGHJ4RZW9S7JH7DZG09TNV4R00C","","","<img src=""img/flower4.png"" style=""width:200px;border:14px solid red;"">","null","","","","","",""
"994.8000001907349","","image-keyboard-response","280","373004","0.0-280.0","32RIADZISTQSEOJOQIA4B1L7C6A4SL","A3NXT3OVGL7QNR","39KMGHJ4RZW9S7JH7DZG09TNV4R00C","","","img/flower6.png","76","995.6000003814697","3","0","2","0.7,0.2,0,0,0.7,0.2,0.2,0,0.7",""
"null","","html-keyboard-response","281","373312","0.0-281.0","32RIADZISTQSEOJOQIA4B1L7C6A4SL","A3NXT3OVGL7QNR","39KMGHJ4RZW9S7JH7DZG09TNV4R00C","","","<img src=""img/flower6.png"" style=""width:200px;border:14px solid red;"">","null","","","","","",""
"1098.7000007629395","","image-keyboard-response","282","374412","0.0-282.0","32RIADZISTQSEOJOQIA4B1L7C6A4SL","A3NXT3OVGL7QNR","39KMGHJ4RZW9S7JH7DZG09TNV4R00C","","","img/flower4.png","75","1099.5999994277954","2","0","3","0.7,0.2,0,0,0.7,0.2,0.2,0,0.7",""
"null","","html-keyboard-response","283","374720","0.0-283.0","32RIADZISTQSEOJOQIA4B1L7C6A4SL","A3NXT3OVGL7QNR","39KMGHJ4RZW9S7JH7DZG09TNV4R00C","","","<img src=""img/flower4.png"" style=""width:200px;border:14px solid red;"">","null","","","","","",""
"882.2999992370605","","image-keyboard-response","284","375604","0.0-284.0","32RIADZISTQSEOJOQIA4B1L7C6A4SL","A3NXT3OVGL7QNR","39KMGHJ4RZW9S7JH7DZG09TNV4R00C","","","img/flower5.png","75","883.1999998092651","2","1","1","0.7,0.2,0,0,0.7,0.2,0.2,0,0.7",""
"null","","html-keyboard-response","285","375912","0.0-285.0","32RIADZISTQSEOJOQIA4B1L7C6A4SL","A3NXT3OVGL7QNR","39KMGHJ4RZW9S7JH7DZG09TNV4R00C","","","<img src=""img/flower5.png"" style=""width:200px; border:14px solid green;"">","null","","","","","",""
"786.1000003814697","","image-keyboard-response","286","376700","0.0-286.0","32RIADZISTQSEOJOQIA4B1L7C6A4SL","A3NXT3OVGL7QNR","39KMGHJ4RZW9S7JH7DZG09TNV4R00C","","","img/flower5.png","75","787.1999998092651","2","0","1","0.7,0.2,0,0,0.7,0.2,0.2,0,0.7",""
"null","","html-keyboard-response","287","377008","0.0-287.0","32RIADZISTQSEOJOQIA4B1L7C6A4SL","A3NXT3OVGL7QNR","39KMGHJ4RZW9S7JH7DZG09TNV4R00C","","","<img src=""img/flower5.png"" style=""width:200px;border:14px solid red;"">","null","","","","","",""
"1082","","image-keyboard-response","288","378091","0.0-288.0","32RIADZISTQSEOJOQIA4B1L7C6A4SL","A3NXT3OVGL7QNR","39KMGHJ4RZW9S7JH7DZG09TNV4R00C","","","img/flower6.png","74","1082.8000001907349","1","0","2","0.7,0.2,0,0,0.7,0.2,0.2,0,0.7",""
"null","","html-keyboard-response","289","378400","0.0-289.0","32RIADZISTQSEOJOQIA4B1L7C6A4SL","A3NXT3OVGL7QNR","39KMGHJ4RZW9S7JH7DZG09TNV4R00C","","","<img src=""img/flower6.png"" style=""width:200px;border:14px solid red;"">","null","","","","","",""
"625.9000005722046","","image-keyboard-response","290","379027","0.0-290.0","32RIADZISTQSEOJOQIA4B1L7C6A4SL","A3NXT3OVGL7QNR","39KMGHJ4RZW9S7JH7DZG09TNV4R00C","","","img/flower4.png","74","626.7999992370605","1","0","3","0.7,0.2,0,0,0.7,0.2,0.2,0,0.7",""
"null","","html-keyboard-response","291","379336","0.0-291.0","32RIADZISTQSEOJOQIA4B1L7C6A4SL","A3NXT3OVGL7QNR","39KMGHJ4RZW9S7JH7DZG09TNV4R00C","","","<img src=""img/flower4.png"" style=""width:200px;border:14px solid red;"">","null","","","","","",""
"522.1999998092651","","image-keyboard-response","292","379859","0.0-292.0","32RIADZISTQSEOJOQIA4B1L7C6A4SL","A3NXT3OVGL7QNR","39KMGHJ4RZW9S7JH7DZG09TNV4R00C","","","img/flower4.png","74","523","1","0","3","0.7,0.2,0,0,0.7,0.2,0.2,0,0.7",""
"null","","html-keyboard-response","293","380168","0.0-293.0","32RIADZISTQSEOJOQIA4B1L7C6A4SL","A3NXT3OVGL7QNR","39KMGHJ4RZW9S7JH7DZG09TNV4R00C","","","<img src=""img/flower4.png"" style=""width:200px;border:14px solid red;"">","null","","","","","",""
"1362.5","","image-keyboard-response","294","381532","0.0-294.0","32RIADZISTQSEOJOQIA4B1L7C6A4SL","A3NXT3OVGL7QNR","39KMGHJ4RZW9S7JH7DZG09TNV4R00C","","","img/flower5.png","74","1363.3000001907349","1","1","1","0.7,0.2,0,0,0.7,0.2,0.2,0,0.7",""
"null","","html-keyboard-response","295","381840","0.0-295.0","32RIADZISTQSEOJOQIA4B1L7C6A4SL","A3NXT3OVGL7QNR","39KMGHJ4RZW9S7JH7DZG09TNV4R00C","","","<img src=""img/flower5.png"" style=""width:200px; border:14px solid green;"">","null","","","","","",""
"3706.2999992370605","","image-keyboard-response","296","385548","0.0-296.0","32RIADZISTQSEOJOQIA4B1L7C6A4SL","A3NXT3OVGL7QNR","39KMGHJ4RZW9S7JH7DZG09TNV4R00C","","","img/flower6.png","74","3707","1","0","2","0.7,0.2,0,0,0.7,0.2,0.2,0,0.7",""
"null","","html-keyboard-response","297","385857","0.0-297.0","32RIADZISTQSEOJOQIA4B1L7C6A4SL","A3NXT3OVGL7QNR","39KMGHJ4RZW9S7JH7DZG09TNV4R00C","","","<img src=""img/flower6.png"" style=""width:200px;border:14px solid red;"">","null","","","","","",""
"1585.5","","image-keyboard-response","298","387443","0.0-298.0","32RIADZISTQSEOJOQIA4B1L7C6A4SL","A3NXT3OVGL7QNR","39KMGHJ4RZW9S7JH7DZG09TNV4R00C","","","img/flower6.png","76","1586.6000003814697","3","0","2","0.7,0.2,0,0,0.7,0.2,0.2,0,0.7",""
"null","","html-keyboard-response","299","387753","0.0-299.0","32RIADZISTQSEOJOQIA4B1L7C6A4SL","A3NXT3OVGL7QNR","39KMGHJ4RZW9S7JH7DZG09TNV4R00C","","","<img src=""img/flower6.png"" style=""width:200px;border:14px solid red;"">","null","","","","","",""
"1113.3000001907349","","image-keyboard-response","300","388867","0.0-300.0","32RIADZISTQSEOJOQIA4B1L7C6A4SL","A3NXT3OVGL7QNR","39KMGHJ4RZW9S7JH7DZG09TNV4R00C","","","img/flower6.png","76","1114.1999998092651","3","0","2","0.7,0.2,0,0,0.7,0.2,0.2,0,0.7",""
"null","","html-keyboard-response","301","389176","0.0-301.0","32RIADZISTQSEOJOQIA4B1L7C6A4SL","A3NXT3OVGL7QNR","39KMGHJ4RZW9S7JH7DZG09TNV4R00C","","","<img src=""img/flower6.png"" style=""width:200px;border:14px solid red;"">","null","","","","","",""
"234.80000019073486","","image-keyboard-response","302","389412","0.0-302.0","32RIADZISTQSEOJOQIA4B1L7C6A4SL","A3NXT3OVGL7QNR","39KMGHJ4RZW9S7JH7DZG09TNV4R00C","","","img/flower4.png","74","235.70000076293945","1","0","3","0.7,0.2,0,0,0.7,0.2,0.2,0,0.7",""
"null","","html-keyboard-response","303","389720","0.0-303.0","32RIADZISTQSEOJOQIA4B1L7C6A4SL","A3NXT3OVGL7QNR","39KMGHJ4RZW9S7JH7DZG09TNV4R00C","","","<img src=""img/flower4.png"" style=""width:200px;border:14px solid red;"">","null","","","","","",""
"314.4000005722046","","image-keyboard-response","304","390035","0.0-304.0","32RIADZISTQSEOJOQIA4B1L7C6A4SL","A3NXT3OVGL7QNR","39KMGHJ4RZW9S7JH7DZG09TNV4R00C","","","img/flower4.png","75","315.5","2","0","3","0.7,0.2,0,0,0.7,0.2,0.2,0,0.7",""
"null","","html-keyboard-response","305","390344","0.0-305.0","32RIADZISTQSEOJOQIA4B1L7C6A4SL","A3NXT3OVGL7QNR","39KMGHJ4RZW9S7JH7DZG09TNV4R00C","","","<img src=""img/flower4.png"" style=""width:200px;border:14px solid red;"">","null","","","","","",""
"","","html-keyboard-response","306","392586","0.0-306.0","32RIADZISTQSEOJOQIA4B1L7C6A4SL","A3NXT3OVGL7QNR","39KMGHJ4RZW9S7JH7DZG09TNV4R00C","","","","","","","","","",""
"2207.5","","image-keyboard-response","307","394796","0.0-307.0","32RIADZISTQSEOJOQIA4B1L7C6A4SL","A3NXT3OVGL7QNR","39KMGHJ4RZW9S7JH7DZG09TNV4R00C","","","img/flower2.png","74","2209.199999809265","1","1","1","0.7,0.2,0,0.7,0,0.2,0.2,0,0.7",""
"null","","html-keyboard-response","308","395104","0.0-308.0","32RIADZISTQSEOJOQIA4B1L7C6A4SL","A3NXT3OVGL7QNR","39KMGHJ4RZW9S7JH7DZG09TNV4R00C","","","<img src=""img/flower2.png"" style=""width:200px; border:14px solid green;"">","null","","","","","",""
"930.5","","image-keyboard-response","309","396036","0.0-309.0","32RIADZISTQSEOJOQIA4B1L7C6A4SL","A3NXT3OVGL7QNR","39KMGHJ4RZW9S7JH7DZG09TNV4R00C","","","img/flower1.png","75","931.5","2","0","3","0.7,0.2,0,0.7,0,0.2,0.2,0,0.7",""
"null","","html-keyboard-response","310","396344","0.0-310.0","32RIADZISTQSEOJOQIA4B1L7C6A4SL","A3NXT3OVGL7QNR","39KMGHJ4RZW9S7JH7DZG09TNV4R00C","","","<img src=""img/flower1.png"" style=""width:200px;border:14px solid red;"">","null","","","","","",""
"658.1999998092651","","image-keyboard-response","311","397003","0.0-311.0","32RIADZISTQSEOJOQIA4B1L7C6A4SL","A3NXT3OVGL7QNR","39KMGHJ4RZW9S7JH7DZG09TNV4R00C","","","img/flower2.png","74","659.1999998092651","1","1","1","0.7,0.2,0,0.7,0,0.2,0.2,0,0.7",""
"null","","html-keyboard-response","312","397312","0.0-312.0","32RIADZISTQSEOJOQIA4B1L7C6A4SL","A3NXT3OVGL7QNR","39KMGHJ4RZW9S7JH7DZG09TNV4R00C","","","<img src=""img/flower2.png"" style=""width:200px; border:14px solid green;"">","null","","","","","",""
"1042.4000005722046","","image-keyboard-response","313","398356","0.0-313.0","32RIADZISTQSEOJOQIA4B1L7C6A4SL","A3NXT3OVGL7QNR","39KMGHJ4RZW9S7JH7DZG09TNV4R00C","","","img/flower3.png","75","1043.2000007629395","2","0","2","0.7,0.2,0,0.7,0,0.2,0.2,0,0.7",""
"null","","html-keyboard-response","314","398664","0.0-314.0","32RIADZISTQSEOJOQIA4B1L7C6A4SL","A3NXT3OVGL7QNR","39KMGHJ4RZW9S7JH7DZG09TNV4R00C","","","<img src=""img/flower3.png"" style=""width:200px;border:14px solid red;"">","null","","","","","",""
"778","","image-keyboard-response","315","399443","0.0-315.0","32RIADZISTQSEOJOQIA4B1L7C6A4SL","A3NXT3OVGL7QNR","39KMGHJ4RZW9S7JH7DZG09TNV4R00C","","","img/flower3.png","76","778.9000005722046","3","0","2","0.7,0.2,0,0.7,0,0.2,0.2,0,0.7",""
"null","","html-keyboard-response","316","399752","0.0-316.0","32RIADZISTQSEOJOQIA4B1L7C6A4SL","A3NXT3OVGL7QNR","39KMGHJ4RZW9S7JH7DZG09TNV4R00C","","","<img src=""img/flower3.png"" style=""width:200px;border:14px solid red;"">","null","","","","","",""
"993.7999992370605","","image-keyboard-response","317","400747","0.0-317.0","32RIADZISTQSEOJOQIA4B1L7C6A4SL","A3NXT3OVGL7QNR","39KMGHJ4RZW9S7JH7DZG09TNV4R00C","","","img/flower3.png","76","994.9000005722046","3","0","2","0.7,0.2,0,0.7,0,0.2,0.2,0,0.7",""
"null","","html-keyboard-response","318","401056","0.0-318.0","32RIADZISTQSEOJOQIA4B1L7C6A4SL","A3NXT3OVGL7QNR","39KMGHJ4RZW9S7JH7DZG09TNV4R00C","","","<img src=""img/flower3.png"" style=""width:200px;border:14px solid red;"">","null","","","","","",""
"665.3999996185303","","image-keyboard-response","319","401723","0.0-319.0","32RIADZISTQSEOJOQIA4B1L7C6A4SL","A3NXT3OVGL7QNR","39KMGHJ4RZW9S7JH7DZG09TNV4R00C","","","img/flower2.png","74","666.6999998092651","1","1","1","0.7,0.2,0,0.7,0,0.2,0.2,0,0.7",""
"null","","html-keyboard-response","320","402032","0.0-320.0","32RIADZISTQSEOJOQIA4B1L7C6A4SL","A3NXT3OVGL7QNR","39KMGHJ4RZW9S7JH7DZG09TNV4R00C","","","<img src=""img/flower2.png"" style=""width:200px; border:14px solid green;"">","null","","","","","",""
"570.5999994277954","","image-keyboard-response","321","402604","0.0-321.0","32RIADZISTQSEOJOQIA4B1L7C6A4SL","A3NXT3OVGL7QNR","39KMGHJ4RZW9S7JH7DZG09TNV4R00C","","","img/flower2.png","74","571.3999996185303","1","1","1","0.7,0.2,0,0.7,0,0.2,0.2,0,0.7",""
"null","","html-keyboard-response","322","402912","0.0-322.0","32RIADZISTQSEOJOQIA4B1L7C6A4SL","A3NXT3OVGL7QNR","39KMGHJ4RZW9S7JH7DZG09TNV4R00C","","","<img src=""img/flower2.png"" style=""width:200px; border:14px solid green;"">","null","","","","","",""
"265.69999980926514","","image-keyboard-response","323","403179","0.0-323.0","32RIADZISTQSEOJOQIA4B1L7C6A4SL","A3NXT3OVGL7QNR","39KMGHJ4RZW9S7JH7DZG09TNV4R00C","","","img/flower2.png","74","266.5999994277954","1","1","1","0.7,0.2,0,0.7,0,0.2,0.2,0,0.7",""
"null","","html-keyboard-response","324","403488","0.0-324.0","32RIADZISTQSEOJOQIA4B1L7C6A4SL","A3NXT3OVGL7QNR","39KMGHJ4RZW9S7JH7DZG09TNV4R00C","","","<img src=""img/flower2.png"" style=""width:200px; border:14px solid green;"">","null","","","","","",""
"1313.6999998092651","","image-keyboard-response","325","404803","0.0-325.0","32RIADZISTQSEOJOQIA4B1L7C6A4SL","A3NXT3OVGL7QNR","39KMGHJ4RZW9S7JH7DZG09TNV4R00C","","","img/flower1.png","74","1314.5999994277954","1","0","3","0.7,0.2,0,0.7,0,0.2,0.2,0,0.7",""
"null","","html-keyboard-response","326","405112","0.0-326.0","32RIADZISTQSEOJOQIA4B1L7C6A4SL","A3NXT3OVGL7QNR","39KMGHJ4RZW9S7JH7DZG09TNV4R00C","","","<img src=""img/flower1.png"" style=""width:200px;border:14px solid red;"">","null","","","","","",""
"553.6999998092651","","image-keyboard-response","327","405667","0.0-327.0","32RIADZISTQSEOJOQIA4B1L7C6A4SL","A3NXT3OVGL7QNR","39KMGHJ4RZW9S7JH7DZG09TNV4R00C","","","img/flower1.png","75","554.6000003814697","2","0","3","0.7,0.2,0,0.7,0,0.2,0.2,0,0.7",""
"null","","html-keyboard-response","328","405976","0.0-328.0","32RIADZISTQSEOJOQIA4B1L7C6A4SL","A3NXT3OVGL7QNR","39KMGHJ4RZW9S7JH7DZG09TNV4R00C","","","<img src=""img/flower1.png"" style=""width:200px;border:14px solid red;"">","null","","","","","",""
"1497.3999996185303","","image-keyboard-response","329","407475","0.0-329.0","32RIADZISTQSEOJOQIA4B1L7C6A4SL","A3NXT3OVGL7QNR","39KMGHJ4RZW9S7JH7DZG09TNV4R00C","","","img/flower3.png","74","1498.3000001907349","1","1","2","0.7,0.2,0,0.7,0,0.2,0.2,0,0.7",""
"null","","html-keyboard-response","330","407785","0.0-330.0","32RIADZISTQSEOJOQIA4B1L7C6A4SL","A3NXT3OVGL7QNR","39KMGHJ4RZW9S7JH7DZG09TNV4R00C","","","<img src=""img/flower3.png"" style=""width:200px; border:14px solid green;"">","null","","","","","",""
"873.3000001907349","","image-keyboard-response","331","408659","0.0-331.0","32RIADZISTQSEOJOQIA4B1L7C6A4SL","A3NXT3OVGL7QNR","39KMGHJ4RZW9S7JH7DZG09TNV4R00C","","","img/flower2.png","74","874.1999998092651","1","1","1","0.7,0.2,0,0.7,0,0.2,0.2,0,0.7",""
"null","","html-keyboard-response","332","408961","0.0-332.0","32RIADZISTQSEOJOQIA4B1L7C6A4SL","A3NXT3OVGL7QNR","39KMGHJ4RZW9S7JH7DZG09TNV4R00C","","","<img src=""img/flower2.png"" style=""width:200px; border:14px solid green;"">","null","","","","","",""
"801.1999998092651","","image-keyboard-response","333","409763","0.0-333.0","32RIADZISTQSEOJOQIA4B1L7C6A4SL","A3NXT3OVGL7QNR","39KMGHJ4RZW9S7JH7DZG09TNV4R00C","","","img/flower3.png","74","802.2000007629395","1","1","2","0.7,0.2,0,0.7,0,0.2,0.2,0,0.7",""
"null","","html-keyboard-response","334","410073","0.0-334.0","32RIADZISTQSEOJOQIA4B1L7C6A4SL","A3NXT3OVGL7QNR","39KMGHJ4RZW9S7JH7DZG09TNV4R00C","","","<img src=""img/flower3.png"" style=""width:200px; border:14px solid green;"">","null","","","","","",""
"745.6000003814697","","image-keyboard-response","335","410819","0.0-335.0","32RIADZISTQSEOJOQIA4B1L7C6A4SL","A3NXT3OVGL7QNR","39KMGHJ4RZW9S7JH7DZG09TNV4R00C","","","img/flower2.png","74","746.4000005722046","1","1","1","0.7,0.2,0,0.7,0,0.2,0.2,0,0.7",""
"null","","html-keyboard-response","336","411129","0.0-336.0","32RIADZISTQSEOJOQIA4B1L7C6A4SL","A3NXT3OVGL7QNR","39KMGHJ4RZW9S7JH7DZG09TNV4R00C","","","<img src=""img/flower2.png"" style=""width:200px; border:14px solid green;"">","null","","","","","",""
"649.3000001907349","","image-keyboard-response","337","411779","0.0-337.0","32RIADZISTQSEOJOQIA4B1L7C6A4SL","A3NXT3OVGL7QNR","39KMGHJ4RZW9S7JH7DZG09TNV4R00C","","","img/flower2.png","74","650","1","0","1","0.7,0.2,0,0.7,0,0.2,0.2,0,0.7",""
"null","","html-keyboard-response","338","412088","0.0-338.0","32RIADZISTQSEOJOQIA4B1L7C6A4SL","A3NXT3OVGL7QNR","39KMGHJ4RZW9S7JH7DZG09TNV4R00C","","","<img src=""img/flower2.png"" style=""width:200px;border:14px solid red;"">","null","","","","","",""
"1634.8999996185303","","image-keyboard-response","339","413724","0.0-339.0","32RIADZISTQSEOJOQIA4B1L7C6A4SL","A3NXT3OVGL7QNR","39KMGHJ4RZW9S7JH7DZG09TNV4R00C","","","img/flower3.png","76","1635.8000001907349","3","0","2","0.7,0.2,0,0.7,0,0.2,0.2,0,0.7",""
"null","","html-keyboard-response","340","414033","0.0-340.0","32RIADZISTQSEOJOQIA4B1L7C6A4SL","A3NXT3OVGL7QNR","39KMGHJ4RZW9S7JH7DZG09TNV4R00C","","","<img src=""img/flower3.png"" style=""width:200px;border:14px solid red;"">","null","","","","","",""
"641.3000001907349","","image-keyboard-response","341","414675","0.0-341.0","32RIADZISTQSEOJOQIA4B1L7C6A4SL","A3NXT3OVGL7QNR","39KMGHJ4RZW9S7JH7DZG09TNV4R00C","","","img/flower2.png","74","642.0999994277954","1","1","1","0.7,0.2,0,0.7,0,0.2,0.2,0,0.7",""
"null","","html-keyboard-response","342","414976","0.0-342.0","32RIADZISTQSEOJOQIA4B1L7C6A4SL","A3NXT3OVGL7QNR","39KMGHJ4RZW9S7JH7DZG09TNV4R00C","","","<img src=""img/flower2.png"" style=""width:200px; border:14px solid green;"">","null","","","","","",""
"969.6999998092651","","image-keyboard-response","343","415947","0.0-343.0","32RIADZISTQSEOJOQIA4B1L7C6A4SL","A3NXT3OVGL7QNR","39KMGHJ4RZW9S7JH7DZG09TNV4R00C","","","img/flower1.png","76","970.4000005722046","3","0","3","0.7,0.2,0,0.7,0,0.2,0.2,0,0.7",""
"null","","html-keyboard-response","344","416248","0.0-344.0","32RIADZISTQSEOJOQIA4B1L7C6A4SL","A3NXT3OVGL7QNR","39KMGHJ4RZW9S7JH7DZG09TNV4R00C","","","<img src=""img/flower1.png"" style=""width:200px;border:14px solid red;"">","null","","","","","",""
"833.9000005722046","","image-keyboard-response","345","417083","0.0-345.0","32RIADZISTQSEOJOQIA4B1L7C6A4SL","A3NXT3OVGL7QNR","39KMGHJ4RZW9S7JH7DZG09TNV4R00C","","","img/flower1.png","76","835","3","1","3","0.7,0.2,0,0.7,0,0.2,0.2,0,0.7",""
"null","","html-keyboard-response","346","417392","0.0-346.0","32RIADZISTQSEOJOQIA4B1L7C6A4SL","A3NXT3OVGL7QNR","39KMGHJ4RZW9S7JH7DZG09TNV4R00C","","","<img src=""img/flower1.png"" style=""width:200px; border:14px solid green;"">","null","","","","","",""
"634","","image-keyboard-response","347","418027","0.0-347.0","32RIADZISTQSEOJOQIA4B1L7C6A4SL","A3NXT3OVGL7QNR","39KMGHJ4RZW9S7JH7DZG09TNV4R00C","","","img/flower2.png","74","634.9000005722046","1","1","1","0.7,0.2,0,0.7,0,0.2,0.2,0,0.7",""
"null","","html-keyboard-response","348","418336","0.0-348.0","32RIADZISTQSEOJOQIA4B1L7C6A4SL","A3NXT3OVGL7QNR","39KMGHJ4RZW9S7JH7DZG09TNV4R00C","","","<img src=""img/flower2.png"" style=""width:200px; border:14px solid green;"">","null","","","","","",""
"712.8000001907349","","image-keyboard-response","349","419051","0.0-349.0","32RIADZISTQSEOJOQIA4B1L7C6A4SL","A3NXT3OVGL7QNR","39KMGHJ4RZW9S7JH7DZG09TNV4R00C","","","img/flower1.png","76","714.5","3","0","3","0.7,0.2,0,0.7,0,0.2,0.2,0,0.7",""
"null","","html-keyboard-response","350","419360","0.0-350.0","32RIADZISTQSEOJOQIA4B1L7C6A4SL","A3NXT3OVGL7QNR","39KMGHJ4RZW9S7JH7DZG09TNV4R00C","","","<img src=""img/flower1.png"" style=""width:200px;border:14px solid red;"">","null","","","","","",""
"561.7000007629395","","image-keyboard-response","351","419923","0.0-351.0","32RIADZISTQSEOJOQIA4B1L7C6A4SL","A3NXT3OVGL7QNR","39KMGHJ4RZW9S7JH7DZG09TNV4R00C","","","img/flower2.png","74","562.5","1","1","1","0.7,0.2,0,0.7,0,0.2,0.2,0,0.7",""
"null","","html-keyboard-response","352","420224","0.0-352.0","32RIADZISTQSEOJOQIA4B1L7C6A4SL","A3NXT3OVGL7QNR","39KMGHJ4RZW9S7JH7DZG09TNV4R00C","","","<img src=""img/flower2.png"" style=""width:200px; border:14px solid green;"">","null","","","","","",""
"649.3000001907349","","image-keyboard-response","353","420874","0.0-353.0","32RIADZISTQSEOJOQIA4B1L7C6A4SL","A3NXT3OVGL7QNR","39KMGHJ4RZW9S7JH7DZG09TNV4R00C","","","img/flower1.png","76","650.1999998092651","3","1","3","0.7,0.2,0,0.7,0,0.2,0.2,0,0.7",""
"null","","html-keyboard-response","354","421176","0.0-354.0","32RIADZISTQSEOJOQIA4B1L7C6A4SL","A3NXT3OVGL7QNR","39KMGHJ4RZW9S7JH7DZG09TNV4R00C","","","<img src=""img/flower1.png"" style=""width:200px; border:14px solid green;"">","null","","","","","",""
"481.70000076293945","","image-keyboard-response","355","421659","0.0-355.0","32RIADZISTQSEOJOQIA4B1L7C6A4SL","A3NXT3OVGL7QNR","39KMGHJ4RZW9S7JH7DZG09TNV4R00C","","","img/flower1.png","76","482.5","3","1","3","0.7,0.2,0,0.7,0,0.2,0.2,0,0.7",""
"null","","html-keyboard-response","356","421996","0.0-356.0","32RIADZISTQSEOJOQIA4B1L7C6A4SL","A3NXT3OVGL7QNR","39KMGHJ4RZW9S7JH7DZG09TNV4R00C","","","<img src=""img/flower1.png"" style=""width:200px; border:14px solid green;"">","null","","","","","",""
"1356.3000001907349","","image-keyboard-response","357","423364","0.0-357.0","32RIADZISTQSEOJOQIA4B1L7C6A4SL","A3NXT3OVGL7QNR","39KMGHJ4RZW9S7JH7DZG09TNV4R00C","","","img/flower3.png","74","1357.0999994277954","1","1","2","0.7,0.2,0,0.7,0,0.2,0.2,0,0.7",""
"null","","html-keyboard-response","358","423666","0.0-358.0","32RIADZISTQSEOJOQIA4B1L7C6A4SL","A3NXT3OVGL7QNR","39KMGHJ4RZW9S7JH7DZG09TNV4R00C","","","<img src=""img/flower3.png"" style=""width:200px; border:14px solid green;"">","null","","","","","",""
"658.1000003814697","","image-keyboard-response","359","424325","0.0-359.0","32RIADZISTQSEOJOQIA4B1L7C6A4SL","A3NXT3OVGL7QNR","39KMGHJ4RZW9S7JH7DZG09TNV4R00C","","","img/flower2.png","74","658.8999996185303","1","1","1","0.7,0.2,0,0.7,0,0.2,0.2,0,0.7",""
"null","","html-keyboard-response","360","424634","0.0-360.0","32RIADZISTQSEOJOQIA4B1L7C6A4SL","A3NXT3OVGL7QNR","39KMGHJ4RZW9S7JH7DZG09TNV4R00C","","","<img src=""img/flower2.png"" style=""width:200px; border:14px solid green;"">","null","","","","","",""
"713.6999998092651","","image-keyboard-response","361","425349","0.0-361.0","32RIADZISTQSEOJOQIA4B1L7C6A4SL","A3NXT3OVGL7QNR","39KMGHJ4RZW9S7JH7DZG09TNV4R00C","","","img/flower3.png","76","714.6999998092651","3","0","2","0.7,0.2,0,0.7,0,0.2,0.2,0,0.7",""
"null","","html-keyboard-response","362","425658","0.0-362.0","32RIADZISTQSEOJOQIA4B1L7C6A4SL","A3NXT3OVGL7QNR","39KMGHJ4RZW9S7JH7DZG09TNV4R00C","","","<img src=""img/flower3.png"" style=""width:200px;border:14px solid red;"">","null","","","","","",""
"953.6999998092651","","image-keyboard-response","363","426612","0.0-363.0","32RIADZISTQSEOJOQIA4B1L7C6A4SL","A3NXT3OVGL7QNR","39KMGHJ4RZW9S7JH7DZG09TNV4R00C","","","img/flower3.png","75","954.5999994277954","2","0","2","0.7,0.2,0,0.7,0,0.2,0.2,0,0.7",""
"null","","html-keyboard-response","364","426922","0.0-364.0","32RIADZISTQSEOJOQIA4B1L7C6A4SL","A3NXT3OVGL7QNR","39KMGHJ4RZW9S7JH7DZG09TNV4R00C","","","<img src=""img/flower3.png"" style=""width:200px;border:14px solid red;"">","null","","","","","",""
"753.5","","image-keyboard-response","365","427676","0.0-365.0","32RIADZISTQSEOJOQIA4B1L7C6A4SL","A3NXT3OVGL7QNR","39KMGHJ4RZW9S7JH7DZG09TNV4R00C","","","img/flower1.png","76","754.1999998092651","3","1","3","0.7,0.2,0,0.7,0,0.2,0.2,0,0.7",""
"null","","html-keyboard-response","366","427986","0.0-366.0","32RIADZISTQSEOJOQIA4B1L7C6A4SL","A3NXT3OVGL7QNR","39KMGHJ4RZW9S7JH7DZG09TNV4R00C","","","<img src=""img/flower1.png"" style=""width:200px; border:14px solid green;"">","null","","","","","",""
"377.19999980926514","","image-keyboard-response","367","428364","0.0-367.0","32RIADZISTQSEOJOQIA4B1L7C6A4SL","A3NXT3OVGL7QNR","39KMGHJ4RZW9S7JH7DZG09TNV4R00C","","","img/flower1.png","76","377.8999996185303","3","1","3","0.7,0.2,0,0.7,0,0.2,0.2,0,0.7",""
"null","","html-keyboard-response","368","428666","0.0-368.0","32RIADZISTQSEOJOQIA4B1L7C6A4SL","A3NXT3OVGL7QNR","39KMGHJ4RZW9S7JH7DZG09TNV4R00C","","","<img src=""img/flower1.png"" style=""width:200px; border:14px solid green;"">","null","","","","","",""
"272.3999996185303","","image-keyboard-response","369","428940","0.0-369.0","32RIADZISTQSEOJOQIA4B1L7C6A4SL","A3NXT3OVGL7QNR","39KMGHJ4RZW9S7JH7DZG09TNV4R00C","","","img/flower1.png","76","273.6000003814697","3","0","3","0.7,0.2,0,0.7,0,0.2,0.2,0,0.7",""
"null","","html-keyboard-response","370","429242","0.0-370.0","32RIADZISTQSEOJOQIA4B1L7C6A4SL","A3NXT3OVGL7QNR","39KMGHJ4RZW9S7JH7DZG09TNV4R00C","","","<img src=""img/flower1.png"" style=""width:200px;border:14px solid red;"">","null","","","","","",""
"993","","image-keyboard-response","371","430236","0.0-371.0","32RIADZISTQSEOJOQIA4B1L7C6A4SL","A3NXT3OVGL7QNR","39KMGHJ4RZW9S7JH7DZG09TNV4R00C","","","img/flower3.png","74","993.9000005722046","1","1","2","0.7,0.2,0,0.7,0,0.2,0.2,0,0.7",""
"null","","html-keyboard-response","372","430538","0.0-372.0","32RIADZISTQSEOJOQIA4B1L7C6A4SL","A3NXT3OVGL7QNR","39KMGHJ4RZW9S7JH7DZG09TNV4R00C","","","<img src=""img/flower3.png"" style=""width:200px; border:14px solid green;"">","null","","","","","",""
"913","","image-keyboard-response","373","431452","0.0-373.0","32RIADZISTQSEOJOQIA4B1L7C6A4SL","A3NXT3OVGL7QNR","39KMGHJ4RZW9S7JH7DZG09TNV4R00C","","","img/flower1.png","76","913.8999996185303","3","1","3","0.7,0.2,0,0.7,0,0.2,0.2,0,0.7",""
"null","","html-keyboard-response","374","431762","0.0-374.0","32RIADZISTQSEOJOQIA4B1L7C6A4SL","A3NXT3OVGL7QNR","39KMGHJ4RZW9S7JH7DZG09TNV4R00C","","","<img src=""img/flower1.png"" style=""width:200px; border:14px solid green;"">","null","","","","","",""
"1024.4000005722046","","image-keyboard-response","375","432788","0.0-375.0","32RIADZISTQSEOJOQIA4B1L7C6A4SL","A3NXT3OVGL7QNR","39KMGHJ4RZW9S7JH7DZG09TNV4R00C","","","img/flower3.png","74","1026","1","0","2","0.7,0.2,0,0.7,0,0.2,0.2,0,0.7",""
"null","","html-keyboard-response","376","433098","0.0-376.0","32RIADZISTQSEOJOQIA4B1L7C6A4SL","A3NXT3OVGL7QNR","39KMGHJ4RZW9S7JH7DZG09TNV4R00C","","","<img src=""img/flower3.png"" style=""width:200px;border:14px solid red;"">","null","","","","","",""
"704.3999996185303","","image-keyboard-response","377","433804","0.0-377.0","32RIADZISTQSEOJOQIA4B1L7C6A4SL","A3NXT3OVGL7QNR","39KMGHJ4RZW9S7JH7DZG09TNV4R00C","","","img/flower1.png","76","705.5","3","1","3","0.7,0.2,0,0.7,0,0.2,0.2,0,0.7",""
"null","","html-keyboard-response","378","434105","0.0-378.0","32RIADZISTQSEOJOQIA4B1L7C6A4SL","A3NXT3OVGL7QNR","39KMGHJ4RZW9S7JH7DZG09TNV4R00C","","","<img src=""img/flower1.png"" style=""width:200px; border:14px solid green;"">","null","","","","","",""
"546.1999998092651","","image-keyboard-response","379","434652","0.0-379.0","32RIADZISTQSEOJOQIA4B1L7C6A4SL","A3NXT3OVGL7QNR","39KMGHJ4RZW9S7JH7DZG09TNV4R00C","","","img/flower2.png","74","547","1","1","1","0.7,0.2,0,0.7,0,0.2,0.2,0,0.7",""
"null","","html-keyboard-response","380","434961","0.0-380.0","32RIADZISTQSEOJOQIA4B1L7C6A4SL","A3NXT3OVGL7QNR","39KMGHJ4RZW9S7JH7DZG09TNV4R00C","","","<img src=""img/flower2.png"" style=""width:200px; border:14px solid green;"">","null","","","","","",""
"401.5999994277954","","image-keyboard-response","381","435364","0.0-381.0","32RIADZISTQSEOJOQIA4B1L7C6A4SL","A3NXT3OVGL7QNR","39KMGHJ4RZW9S7JH7DZG09TNV4R00C","","","img/flower2.png","74","402.3999996185303","1","0","1","0.7,0.2,0,0.7,0,0.2,0.2,0,0.7",""
"null","","html-keyboard-response","382","435665","0.0-382.0","32RIADZISTQSEOJOQIA4B1L7C6A4SL","A3NXT3OVGL7QNR","39KMGHJ4RZW9S7JH7DZG09TNV4R00C","","","<img src=""img/flower2.png"" style=""width:200px;border:14px solid red;"">","null","","","","","",""
"657.6000003814697","","image-keyboard-response","383","436324","0.0-383.0","32RIADZISTQSEOJOQIA4B1L7C6A4SL","A3NXT3OVGL7QNR","39KMGHJ4RZW9S7JH7DZG09TNV4R00C","","","img/flower1.png","76","658.2999992370605","3","1","3","0.7,0.2,0,0.7,0,0.2,0.2,0,0.7",""
"null","","html-keyboard-response","384","436625","0.0-384.0","32RIADZISTQSEOJOQIA4B1L7C6A4SL","A3NXT3OVGL7QNR","39KMGHJ4RZW9S7JH7DZG09TNV4R00C","","","<img src=""img/flower1.png"" style=""width:200px; border:14px solid green;"">","null","","","","","",""
"489.5","","image-keyboard-response","385","437116","0.0-385.0","32RIADZISTQSEOJOQIA4B1L7C6A4SL","A3NXT3OVGL7QNR","39KMGHJ4RZW9S7JH7DZG09TNV4R00C","","","img/flower2.png","74","490.3999996185303","1","1","1","0.7,0.2,0,0.7,0,0.2,0.2,0,0.7",""
"null","","html-keyboard-response","386","437417","0.0-386.0","32RIADZISTQSEOJOQIA4B1L7C6A4SL","A3NXT3OVGL7QNR","39KMGHJ4RZW9S7JH7DZG09TNV4R00C","","","<img src=""img/flower2.png"" style=""width:200px; border:14px solid green;"">","null","","","","","",""
"641.5","","image-keyboard-response","387","438060","0.0-387.0","32RIADZISTQSEOJOQIA4B1L7C6A4SL","A3NXT3OVGL7QNR","39KMGHJ4RZW9S7JH7DZG09TNV4R00C","","","img/flower1.png","76","642.5999994277954","3","1","3","0.7,0.2,0,0.7,0,0.2,0.2,0,0.7",""
"null","","html-keyboard-response","388","438369","0.0-388.0","32RIADZISTQSEOJOQIA4B1L7C6A4SL","A3NXT3OVGL7QNR","39KMGHJ4RZW9S7JH7DZG09TNV4R00C","","","<img src=""img/flower1.png"" style=""width:200px; border:14px solid green;"">","null","","","","","",""
"745.3000001907349","","image-keyboard-response","389","439116","0.0-389.0","32RIADZISTQSEOJOQIA4B1L7C6A4SL","A3NXT3OVGL7QNR","39KMGHJ4RZW9S7JH7DZG09TNV4R00C","","","img/flower3.png","74","746.1999998092651","1","1","2","0.7,0.2,0,0.7,0,0.2,0.2,0,0.7",""
"null","","html-keyboard-response","390","439417","0.0-390.0","32RIADZISTQSEOJOQIA4B1L7C6A4SL","A3NXT3OVGL7QNR","39KMGHJ4RZW9S7JH7DZG09TNV4R00C","","","<img src=""img/flower3.png"" style=""width:200px; border:14px solid green;"">","null","","","","","",""
"337.30000019073486","","image-keyboard-response","391","439756","0.0-391.0","32RIADZISTQSEOJOQIA4B1L7C6A4SL","A3NXT3OVGL7QNR","39KMGHJ4RZW9S7JH7DZG09TNV4R00C","","","img/flower3.png","74","338.19999980926514","1","1","2","0.7,0.2,0,0.7,0,0.2,0.2,0,0.7",""
"null","","html-keyboard-response","392","440058","0.0-392.0","32RIADZISTQSEOJOQIA4B1L7C6A4SL","A3NXT3OVGL7QNR","39KMGHJ4RZW9S7JH7DZG09TNV4R00C","","","<img src=""img/flower3.png"" style=""width:200px; border:14px solid green;"">","null","","","","","",""
"568.6999998092651","","image-keyboard-response","393","440628","0.0-393.0","32RIADZISTQSEOJOQIA4B1L7C6A4SL","A3NXT3OVGL7QNR","39KMGHJ4RZW9S7JH7DZG09TNV4R00C","","","img/flower2.png","76","569.9000005722046","3","0","1","0.7,0.2,0,0.7,0,0.2,0.2,0,0.7",""
"null","","html-keyboard-response","394","440929","0.0-394.0","32RIADZISTQSEOJOQIA4B1L7C6A4SL","A3NXT3OVGL7QNR","39KMGHJ4RZW9S7JH7DZG09TNV4R00C","","","<img src=""img/flower2.png"" style=""width:200px;border:14px solid red;"">","null","","","","","",""
"617.6999998092651","","image-keyboard-response","395","441548","0.0-395.0","32RIADZISTQSEOJOQIA4B1L7C6A4SL","A3NXT3OVGL7QNR","39KMGHJ4RZW9S7JH7DZG09TNV4R00C","","","img/flower1.png","76","618.8000001907349","3","1","3","0.7,0.2,0,0.7,0,0.2,0.2,0,0.7",""
"null","","html-keyboard-response","396","441858","0.0-396.0","32RIADZISTQSEOJOQIA4B1L7C6A4SL","A3NXT3OVGL7QNR","39KMGHJ4RZW9S7JH7DZG09TNV4R00C","","","<img src=""img/flower1.png"" style=""width:200px; border:14px solid green;"">","null","","","","","",""
"497.4000005722046","","image-keyboard-response","397","442356","0.0-397.0","32RIADZISTQSEOJOQIA4B1L7C6A4SL","A3NXT3OVGL7QNR","39KMGHJ4RZW9S7JH7DZG09TNV4R00C","","","img/flower2.png","74","498.3999996185303","1","1","1","0.7,0.2,0,0.7,0,0.2,0.2,0,0.7",""
"null","","html-keyboard-response","398","442658","0.0-398.0","32RIADZISTQSEOJOQIA4B1L7C6A4SL","A3NXT3OVGL7QNR","39KMGHJ4RZW9S7JH7DZG09TNV4R00C","","","<img src=""img/flower2.png"" style=""width:200px; border:14px solid green;"">","null","","","","","",""
"857.4000005722046","","image-keyboard-response","399","443516","0.0-399.0","32RIADZISTQSEOJOQIA4B1L7C6A4SL","A3NXT3OVGL7QNR","39KMGHJ4RZW9S7JH7DZG09TNV4R00C","","","img/flower3.png","74","858.1000003814697","1","1","2","0.7,0.2,0,0.7,0,0.2,0.2,0,0.7",""
"null","","html-keyboard-response","400","443826","0.0-400.0","32RIADZISTQSEOJOQIA4B1L7C6A4SL","A3NXT3OVGL7QNR","39KMGHJ4RZW9S7JH7DZG09TNV4R00C","","","<img src=""img/flower3.png"" style=""width:200px; border:14px solid green;"">","null","","","","","",""
"609","","image-keyboard-response","401","444436","0.0-401.0","32RIADZISTQSEOJOQIA4B1L7C6A4SL","A3NXT3OVGL7QNR","39KMGHJ4RZW9S7JH7DZG09TNV4R00C","","","img/flower3.png","74","610.1000003814697","1","1","2","0.7,0.2,0,0.7,0,0.2,0.2,0,0.7",""
