"rt","url","trial_type","trial_index","time_elapsed","internal_node_id","assignmentID","mturkID","hitID","success","view_history","stimulus","key_press","reactionTime","a","r","s","reward_cond","responses"
"4941.0999999940395","consent.html","external-html","0","5407","0.0-0.0","3LEIZ60CDKLQC6BE2503O2TQLDQ9ZT","A3TZ6KG6SP9RDT","39KMGHJ4RZW9S7JH7DZG09TNV4R00C","","","","","","","","","",""
"","","fullscreen","1","8041","0.0-1.0","3LEIZ60CDKLQC6BE2503O2TQLDQ9ZT","A3TZ6KG6SP9RDT","39KMGHJ4RZW9S7JH7DZG09TNV4R00C","true","","","","","","","","",""
"11137","","instructions","2","19182","0.0-2.0","3LEIZ60CDKLQC6BE2503O2TQLDQ9ZT","A3TZ6KG6SP9RDT","39KMGHJ4RZW9S7JH7DZG09TNV4R00C","","[{""page_index"":0,""viewing_time"":4992.9000000059605},{""page_index"":1,""viewing_time"":1080.0999999940395},{""page_index"":2,""viewing_time"":1519.9000000059605},{""page_index"":3,""viewing_time"":1208.0999999940395},{""page_index"":4,""viewing_time"":1080.2000000029802},{""page_index"":5,""viewing_time"":1255.4000000059605}]","","","","","","","",""
"2879.5","","instructions","3","22062","0.0-3.0","3LEIZ60CDKLQC6BE2503O2TQLDQ9ZT","A3TZ6KG6SP9RDT","39KMGHJ4RZW9S7JH7DZG09TNV4R00C","","[{""page_index"":0,""viewing_time"":2879.1000000089407}]","","","","","","","",""
"1599.3999999910593","","image-keyboard-response","4","23664","0.0-4.0","3LEIZ60CDKLQC6BE2503O2TQLDQ9ZT","A3TZ6KG6SP9RDT","39KMGHJ4RZW9S7JH7DZG09TNV4R00C","","","img/flower5.png","74","1601.2999999970198","1","0","2","",""
"null","","html-keyboard-response","5","23981","0.0-5.0","3LEIZ60CDKLQC6BE2503O2TQLDQ9ZT","A3TZ6KG6SP9RDT","39KMGHJ4RZW9S7JH7DZG09TNV4R00C","","","<img src=""img/flower5.png"" style=""width:200px;border:14px solid red;"">","null","","","","","",""
"543.0999999940395","","image-keyboard-response","6","24526","0.0-6.0","3LEIZ60CDKLQC6BE2503O2TQLDQ9ZT","A3TZ6KG6SP9RDT","39KMGHJ4RZW9S7JH7DZG09TNV4R00C","","","img/flower6.png","74","544.9000000059605","1","0","3","",""
"null","","html-keyboard-response","7","24835","0.0-7.0","3LEIZ60CDKLQC6BE2503O2TQLDQ9ZT","A3TZ6KG6SP9RDT","39KMGHJ4RZW9S7JH7DZG09TNV4R00C","","","<img src=""img/flower6.png"" style=""width:200px;border:14px solid red;"">","null","","","","","",""
"84.5","","image-keyboard-response","8","24922","0.0-8.0","3LEIZ60CDKLQC6BE2503O2TQLDQ9ZT","A3TZ6KG6SP9RDT","39KMGHJ4RZW9S7JH7DZG09TNV4R00C","","","img/flower6.png","75","86.29999999701977","2","0","3","",""
"null","","html-keyboard-response","9","25228","0.0-9.0","3LEIZ60CDKLQC6BE2503O2TQLDQ9ZT","A3TZ6KG6SP9RDT","39KMGHJ4RZW9S7JH7DZG09TNV4R00C","","","<img src=""img/flower6.png"" style=""width:200px;border:14px solid red;"">","null","","","","","",""
"49.400000005960464","","image-keyboard-response","10","25279","0.0-10.0","3LEIZ60CDKLQC6BE2503O2TQLDQ9ZT","A3TZ6KG6SP9RDT","39KMGHJ4RZW9S7JH7DZG09TNV4R00C","","","img/flower4.png","75","51","2","0","1","",""
"null","","html-keyboard-response","11","25586","0.0-11.0","3LEIZ60CDKLQC6BE2503O2TQLDQ9ZT","A3TZ6KG6SP9RDT","39KMGHJ4RZW9S7JH7DZG09TNV4R00C","","","<img src=""img/flower4.png"" style=""width:200px;border:14px solid red;"">","null","","","","","",""
"19.200000002980232","","image-keyboard-response","12","25608","0.0-12.0","3LEIZ60CDKLQC6BE2503O2TQLDQ9ZT","A3TZ6KG6SP9RDT","39KMGHJ4RZW9S7JH7DZG09TNV4R00C","","","img/flower5.png","76","21","3","0","2","",""
"null","","html-keyboard-response","13","25913","0.0-13.0","3LEIZ60CDKLQC6BE2503O2TQLDQ9ZT","A3TZ6KG6SP9RDT","39KMGHJ4RZW9S7JH7DZG09TNV4R00C","","","<img src=""img/flower5.png"" style=""width:200px;border:14px solid red;"">","null","","","","","",""
"0.20000000298023224","","image-keyboard-response","14","25916","0.0-14.0","3LEIZ60CDKLQC6BE2503O2TQLDQ9ZT","A3TZ6KG6SP9RDT","39KMGHJ4RZW9S7JH7DZG09TNV4R00C","","","img/flower5.png","76","2.1000000089406967","3","0","2","",""
"null","","html-keyboard-response","15","26226","0.0-15.0","3LEIZ60CDKLQC6BE2503O2TQLDQ9ZT","A3TZ6KG6SP9RDT","39KMGHJ4RZW9S7JH7DZG09TNV4R00C","","","<img src=""img/flower5.png"" style=""width:200px;border:14px solid red;"">","null","","","","","",""
"208","","image-keyboard-response","16","26436","0.0-16.0","3LEIZ60CDKLQC6BE2503O2TQLDQ9ZT","A3TZ6KG6SP9RDT","39KMGHJ4RZW9S7JH7DZG09TNV4R00C","","","img/flower6.png","75","209.90000000596046","2","0","3","",""
"null","","html-keyboard-response","17","26739","0.0-17.0","3LEIZ60CDKLQC6BE2503O2TQLDQ9ZT","A3TZ6KG6SP9RDT","39KMGHJ4RZW9S7JH7DZG09TNV4R00C","","","<img src=""img/flower6.png"" style=""width:200px;border:14px solid red;"">","null","","","","","",""
"203.90000000596046","","image-keyboard-response","18","26945","0.0-18.0","3LEIZ60CDKLQC6BE2503O2TQLDQ9ZT","A3TZ6KG6SP9RDT","39KMGHJ4RZW9S7JH7DZG09TNV4R00C","","","img/flower5.png","74","206.29999999701977","1","0","2","",""
"null","","html-keyboard-response","19","27256","0.0-19.0","3LEIZ60CDKLQC6BE2503O2TQLDQ9ZT","A3TZ6KG6SP9RDT","39KMGHJ4RZW9S7JH7DZG09TNV4R00C","","","<img src=""img/flower5.png"" style=""width:200px;border:14px solid red;"">","null","","","","","",""
"311.90000000596046","","image-keyboard-response","20","27570","0.0-20.0","3LEIZ60CDKLQC6BE2503O2TQLDQ9ZT","A3TZ6KG6SP9RDT","39KMGHJ4RZW9S7JH7DZG09TNV4R00C","","","img/flower5.png","75","313.5","2","0","2","",""
"null","","html-keyboard-response","21","27876","0.0-21.0","3LEIZ60CDKLQC6BE2503O2TQLDQ9ZT","A3TZ6KG6SP9RDT","39KMGHJ4RZW9S7JH7DZG09TNV4R00C","","","<img src=""img/flower5.png"" style=""width:200px;border:14px solid red;"">","null","","","","","",""
"4.399999991059303","","image-keyboard-response","22","27885","0.0-22.0","3LEIZ60CDKLQC6BE2503O2TQLDQ9ZT","A3TZ6KG6SP9RDT","39KMGHJ4RZW9S7JH7DZG09TNV4R00C","","","img/flower6.png","74","8.5","1","0","3","",""
"null","","html-keyboard-response","23","28202","0.0-23.0","3LEIZ60CDKLQC6BE2503O2TQLDQ9ZT","A3TZ6KG6SP9RDT","39KMGHJ4RZW9S7JH7DZG09TNV4R00C","","","<img src=""img/flower6.png"" style=""width:200px;border:14px solid red;"">","null","","","","","",""
"337.40000000596046","","image-keyboard-response","24","28542","0.0-24.0","3LEIZ60CDKLQC6BE2503O2TQLDQ9ZT","A3TZ6KG6SP9RDT","39KMGHJ4RZW9S7JH7DZG09TNV4R00C","","","img/flower6.png","75","339.09999999403954","2","0","3","",""
"null","","html-keyboard-response","25","28855","0.0-25.0","3LEIZ60CDKLQC6BE2503O2TQLDQ9ZT","A3TZ6KG6SP9RDT","39KMGHJ4RZW9S7JH7DZG09TNV4R00C","","","<img src=""img/flower6.png"" style=""width:200px;border:14px solid red;"">","null","","","","","",""
"243.90000000596046","","image-keyboard-response","26","29102","0.0-26.0","3LEIZ60CDKLQC6BE2503O2TQLDQ9ZT","A3TZ6KG6SP9RDT","39KMGHJ4RZW9S7JH7DZG09TNV4R00C","","","img/flower4.png","75","246","2","0","1","",""
"null","","html-keyboard-response","27","29417","0.0-27.0","3LEIZ60CDKLQC6BE2503O2TQLDQ9ZT","A3TZ6KG6SP9RDT","39KMGHJ4RZW9S7JH7DZG09TNV4R00C","","","<img src=""img/flower4.png"" style=""width:200px;border:14px solid red;"">","null","","","","","",""
"324.20000000298023","","image-keyboard-response","28","29743","0.0-28.0","3LEIZ60CDKLQC6BE2503O2TQLDQ9ZT","A3TZ6KG6SP9RDT","39KMGHJ4RZW9S7JH7DZG09TNV4R00C","","","img/flower5.png","75","325.40000000596046","2","0","2","",""
"null","","html-keyboard-response","29","30059","0.0-29.0","3LEIZ60CDKLQC6BE2503O2TQLDQ9ZT","A3TZ6KG6SP9RDT","39KMGHJ4RZW9S7JH7DZG09TNV4R00C","","","<img src=""img/flower5.png"" style=""width:200px;border:14px solid red;"">","null","","","","","",""
"455.09999999403954","","image-keyboard-response","30","30517","0.0-30.0","3LEIZ60CDKLQC6BE2503O2TQLDQ9ZT","A3TZ6KG6SP9RDT","39KMGHJ4RZW9S7JH7DZG09TNV4R00C","","","img/flower4.png","74","457","1","1","1","",""
"null","","html-keyboard-response","31","30825","0.0-31.0","3LEIZ60CDKLQC6BE2503O2TQLDQ9ZT","A3TZ6KG6SP9RDT","39KMGHJ4RZW9S7JH7DZG09TNV4R00C","","","<img src=""img/flower4.png"" style=""width:200px; border:14px solid green;"">","null","","","","","",""
"313.70000000298023","","image-keyboard-response","32","31141","0.0-32.0","3LEIZ60CDKLQC6BE2503O2TQLDQ9ZT","A3TZ6KG6SP9RDT","39KMGHJ4RZW9S7JH7DZG09TNV4R00C","","","img/flower6.png","74","315.09999999403954","1","0","3","",""
"null","","html-keyboard-response","33","31457","0.0-33.0","3LEIZ60CDKLQC6BE2503O2TQLDQ9ZT","A3TZ6KG6SP9RDT","39KMGHJ4RZW9S7JH7DZG09TNV4R00C","","","<img src=""img/flower6.png"" style=""width:200px;border:14px solid red;"">","null","","","","","",""
"198.20000000298023","","image-keyboard-response","34","31656","0.0-34.0","3LEIZ60CDKLQC6BE2503O2TQLDQ9ZT","A3TZ6KG6SP9RDT","39KMGHJ4RZW9S7JH7DZG09TNV4R00C","","","img/flower4.png","74","199.20000000298023","1","0","1","",""
"null","","html-keyboard-response","35","31962","0.0-35.0","3LEIZ60CDKLQC6BE2503O2TQLDQ9ZT","A3TZ6KG6SP9RDT","39KMGHJ4RZW9S7JH7DZG09TNV4R00C","","","<img src=""img/flower4.png"" style=""width:200px;border:14px solid red;"">","null","","","","","",""
"500.20000000298023","","image-keyboard-response","36","32465","0.0-36.0","3LEIZ60CDKLQC6BE2503O2TQLDQ9ZT","A3TZ6KG6SP9RDT","39KMGHJ4RZW9S7JH7DZG09TNV4R00C","","","img/flower5.png","74","502.20000000298023","1","1","2","",""
"null","","html-keyboard-response","37","32782","0.0-37.0","3LEIZ60CDKLQC6BE2503O2TQLDQ9ZT","A3TZ6KG6SP9RDT","39KMGHJ4RZW9S7JH7DZG09TNV4R00C","","","<img src=""img/flower5.png"" style=""width:200px; border:14px solid green;"">","null","","","","","",""
"22.5","","image-keyboard-response","38","32807","0.0-38.0","3LEIZ60CDKLQC6BE2503O2TQLDQ9ZT","A3TZ6KG6SP9RDT","39KMGHJ4RZW9S7JH7DZG09TNV4R00C","","","img/flower4.png","75","24.299999997019768","2","0","1","",""
"null","","html-keyboard-response","39","33124","0.0-39.0","3LEIZ60CDKLQC6BE2503O2TQLDQ9ZT","A3TZ6KG6SP9RDT","39KMGHJ4RZW9S7JH7DZG09TNV4R00C","","","<img src=""img/flower4.png"" style=""width:200px;border:14px solid red;"">","null","","","","","",""
"226.20000000298023","","image-keyboard-response","40","33353","0.0-40.0","3LEIZ60CDKLQC6BE2503O2TQLDQ9ZT","A3TZ6KG6SP9RDT","39KMGHJ4RZW9S7JH7DZG09TNV4R00C","","","img/flower6.png","75","228","2","0","3","",""
"null","","html-keyboard-response","41","33668","0.0-41.0","3LEIZ60CDKLQC6BE2503O2TQLDQ9ZT","A3TZ6KG6SP9RDT","39KMGHJ4RZW9S7JH7DZG09TNV4R00C","","","<img src=""img/flower6.png"" style=""width:200px;border:14px solid red;"">","null","","","","","",""
"104.5","","image-keyboard-response","42","33774","0.0-42.0","3LEIZ60CDKLQC6BE2503O2TQLDQ9ZT","A3TZ6KG6SP9RDT","39KMGHJ4RZW9S7JH7DZG09TNV4R00C","","","img/flower5.png","74","106.09999999403954","1","0","2","",""
"null","","html-keyboard-response","43","34088","0.0-43.0","3LEIZ60CDKLQC6BE2503O2TQLDQ9ZT","A3TZ6KG6SP9RDT","39KMGHJ4RZW9S7JH7DZG09TNV4R00C","","","<img src=""img/flower5.png"" style=""width:200px;border:14px solid red;"">","null","","","","","",""
"4.5999999940395355","","image-keyboard-response","44","34094","0.0-44.0","3LEIZ60CDKLQC6BE2503O2TQLDQ9ZT","A3TZ6KG6SP9RDT","39KMGHJ4RZW9S7JH7DZG09TNV4R00C","","","img/flower4.png","76","5.299999997019768","3","0","1","",""
"null","","html-keyboard-response","45","34402","0.0-45.0","3LEIZ60CDKLQC6BE2503O2TQLDQ9ZT","A3TZ6KG6SP9RDT","39KMGHJ4RZW9S7JH7DZG09TNV4R00C","","","<img src=""img/flower4.png"" style=""width:200px;border:14px solid red;"">","null","","","","","",""
"505.70000000298023","","image-keyboard-response","46","34910","0.0-46.0","3LEIZ60CDKLQC6BE2503O2TQLDQ9ZT","A3TZ6KG6SP9RDT","39KMGHJ4RZW9S7JH7DZG09TNV4R00C","","","img/flower4.png","74","507.3999999910593","1","1","1","",""
"null","","html-keyboard-response","47","35215","0.0-47.0","3LEIZ60CDKLQC6BE2503O2TQLDQ9ZT","A3TZ6KG6SP9RDT","39KMGHJ4RZW9S7JH7DZG09TNV4R00C","","","<img src=""img/flower4.png"" style=""width:200px; border:14px solid green;"">","null","","","","","",""
"526.3999999910593","","image-keyboard-response","48","35743","0.0-48.0","3LEIZ60CDKLQC6BE2503O2TQLDQ9ZT","A3TZ6KG6SP9RDT","39KMGHJ4RZW9S7JH7DZG09TNV4R00C","","","img/flower6.png","74","527.9000000059605","1","0","3","",""
"null","","html-keyboard-response","49","36056","0.0-49.0","3LEIZ60CDKLQC6BE2503O2TQLDQ9ZT","A3TZ6KG6SP9RDT","39KMGHJ4RZW9S7JH7DZG09TNV4R00C","","","<img src=""img/flower6.png"" style=""width:200px;border:14px solid red;"">","null","","","","","",""
"249.8999999910593","","image-keyboard-response","50","36308","0.0-50.0","3LEIZ60CDKLQC6BE2503O2TQLDQ9ZT","A3TZ6KG6SP9RDT","39KMGHJ4RZW9S7JH7DZG09TNV4R00C","","","img/flower4.png","75","251.40000000596046","2","0","1","",""
"null","","html-keyboard-response","51","36614","0.0-51.0","3LEIZ60CDKLQC6BE2503O2TQLDQ9ZT","A3TZ6KG6SP9RDT","39KMGHJ4RZW9S7JH7DZG09TNV4R00C","","","<img src=""img/flower4.png"" style=""width:200px;border:14px solid red;"">","null","","","","","",""
"169.29999999701977","","image-keyboard-response","52","36785","0.0-52.0","3LEIZ60CDKLQC6BE2503O2TQLDQ9ZT","A3TZ6KG6SP9RDT","39KMGHJ4RZW9S7JH7DZG09TNV4R00C","","","img/flower6.png","76","171.09999999403954","3","0","3","",""
"null","","html-keyboard-response","53","37098","0.0-53.0","3LEIZ60CDKLQC6BE2503O2TQLDQ9ZT","A3TZ6KG6SP9RDT","39KMGHJ4RZW9S7JH7DZG09TNV4R00C","","","<img src=""img/flower6.png"" style=""width:200px;border:14px solid red;"">","null","","","","","",""
"42.5","","image-keyboard-response","54","37141","0.0-54.0","3LEIZ60CDKLQC6BE2503O2TQLDQ9ZT","A3TZ6KG6SP9RDT","39KMGHJ4RZW9S7JH7DZG09TNV4R00C","","","img/flower4.png","75","43.5","2","0","1","",""
"null","","html-keyboard-response","55","37456","0.0-55.0","3LEIZ60CDKLQC6BE2503O2TQLDQ9ZT","A3TZ6KG6SP9RDT","39KMGHJ4RZW9S7JH7DZG09TNV4R00C","","","<img src=""img/flower4.png"" style=""width:200px;border:14px solid red;"">","null","","","","","",""
"208","","image-keyboard-response","56","37667","0.0-56.0","3LEIZ60CDKLQC6BE2503O2TQLDQ9ZT","A3TZ6KG6SP9RDT","39KMGHJ4RZW9S7JH7DZG09TNV4R00C","","","img/flower4.png","76","209.8999999910593","3","0","1","",""
"null","","html-keyboard-response","57","37981","0.0-57.0","3LEIZ60CDKLQC6BE2503O2TQLDQ9ZT","A3TZ6KG6SP9RDT","39KMGHJ4RZW9S7JH7DZG09TNV4R00C","","","<img src=""img/flower4.png"" style=""width:200px;border:14px solid red;"">","null","","","","","",""
"66.90000000596046","","image-keyboard-response","58","38051","0.0-58.0","3LEIZ60CDKLQC6BE2503O2TQLDQ9ZT","A3TZ6KG6SP9RDT","39KMGHJ4RZW9S7JH7DZG09TNV4R00C","","","img/flower5.png","76","69","3","0","2","",""
"null","","html-keyboard-response","59","38358","0.0-59.0","3LEIZ60CDKLQC6BE2503O2TQLDQ9ZT","A3TZ6KG6SP9RDT","39KMGHJ4RZW9S7JH7DZG09TNV4R00C","","","<img src=""img/flower5.png"" style=""width:200px;border:14px solid red;"">","null","","","","","",""
"129","","image-keyboard-response","60","38489","0.0-60.0","3LEIZ60CDKLQC6BE2503O2TQLDQ9ZT","A3TZ6KG6SP9RDT","39KMGHJ4RZW9S7JH7DZG09TNV4R00C","","","img/flower6.png","75","130.3999999910593","2","1","3","",""
"null","","html-keyboard-response","61","38796","0.0-61.0","3LEIZ60CDKLQC6BE2503O2TQLDQ9ZT","A3TZ6KG6SP9RDT","39KMGHJ4RZW9S7JH7DZG09TNV4R00C","","","<img src=""img/flower6.png"" style=""width:200px; border:14px solid green;"">","null","","","","","",""
"205.29999999701977","","image-keyboard-response","62","39003","0.0-62.0","3LEIZ60CDKLQC6BE2503O2TQLDQ9ZT","A3TZ6KG6SP9RDT","39KMGHJ4RZW9S7JH7DZG09TNV4R00C","","","img/flower5.png","75","207.1000000089407","2","0","2","",""
"null","","html-keyboard-response","63","39311","0.0-63.0","3LEIZ60CDKLQC6BE2503O2TQLDQ9ZT","A3TZ6KG6SP9RDT","39KMGHJ4RZW9S7JH7DZG09TNV4R00C","","","<img src=""img/flower5.png"" style=""width:200px;border:14px solid red;"">","null","","","","","",""
"10158.09999999404","","instructions","64","49470","0.0-64.0","3LEIZ60CDKLQC6BE2503O2TQLDQ9ZT","A3TZ6KG6SP9RDT","39KMGHJ4RZW9S7JH7DZG09TNV4R00C","","[{""page_index"":0,""viewing_time"":3485.7999999970198},{""page_index"":1,""viewing_time"":6672}]","","","","","","","",""
"815.8000000119209","","image-keyboard-response","65","50287","0.0-65.0","3LEIZ60CDKLQC6BE2503O2TQLDQ9ZT","A3TZ6KG6SP9RDT","39KMGHJ4RZW9S7JH7DZG09TNV4R00C","","","img/flower4.png","74","816.8999999910593","1","1","1","",""
"null","","html-keyboard-response","66","50590","0.0-66.0","3LEIZ60CDKLQC6BE2503O2TQLDQ9ZT","A3TZ6KG6SP9RDT","39KMGHJ4RZW9S7JH7DZG09TNV4R00C","","","<img src=""img/flower4.png"" style=""width:200px; border:14px solid green;"">","null","","","","","",""
"90","","image-keyboard-response","67","50682","0.0-67.0","3LEIZ60CDKLQC6BE2503O2TQLDQ9ZT","A3TZ6KG6SP9RDT","39KMGHJ4RZW9S7JH7DZG09TNV4R00C","","","img/flower5.png","76","91.59999999403954","3","1","2","",""
"null","","html-keyboard-response","68","50997","0.0-68.0","3LEIZ60CDKLQC6BE2503O2TQLDQ9ZT","A3TZ6KG6SP9RDT","39KMGHJ4RZW9S7JH7DZG09TNV4R00C","","","<img src=""img/flower5.png"" style=""width:200px; border:14px solid green;"">","null","","","","","",""
"78.90000000596046","","image-keyboard-response","69","51078","0.0-69.0","3LEIZ60CDKLQC6BE2503O2TQLDQ9ZT","A3TZ6KG6SP9RDT","39KMGHJ4RZW9S7JH7DZG09TNV4R00C","","","img/flower4.png","75","80.29999999701977","2","1","1","",""
"null","","html-keyboard-response","70","51387","0.0-70.0","3LEIZ60CDKLQC6BE2503O2TQLDQ9ZT","A3TZ6KG6SP9RDT","39KMGHJ4RZW9S7JH7DZG09TNV4R00C","","","<img src=""img/flower4.png"" style=""width:200px; border:14px solid green;"">","null","","","","","",""
"125.59999999403954","","image-keyboard-response","71","51515","0.0-71.0","3LEIZ60CDKLQC6BE2503O2TQLDQ9ZT","A3TZ6KG6SP9RDT","39KMGHJ4RZW9S7JH7DZG09TNV4R00C","","","img/flower6.png","76","127.40000000596046","3","1","3","",""
"null","","html-keyboard-response","72","51821","0.0-72.0","3LEIZ60CDKLQC6BE2503O2TQLDQ9ZT","A3TZ6KG6SP9RDT","39KMGHJ4RZW9S7JH7DZG09TNV4R00C","","","<img src=""img/flower6.png"" style=""width:200px; border:14px solid green;"">","null","","","","","",""
"155.8999999910593","","image-keyboard-response","73","51979","0.0-73.0","3LEIZ60CDKLQC6BE2503O2TQLDQ9ZT","A3TZ6KG6SP9RDT","39KMGHJ4RZW9S7JH7DZG09TNV4R00C","","","img/flower5.png","75","157.59999999403954","2","1","2","",""
"null","","html-keyboard-response","74","52287","0.0-74.0","3LEIZ60CDKLQC6BE2503O2TQLDQ9ZT","A3TZ6KG6SP9RDT","39KMGHJ4RZW9S7JH7DZG09TNV4R00C","","","<img src=""img/flower5.png"" style=""width:200px; border:14px solid green;"">","null","","","","","",""
"52.79999999701977","","image-keyboard-response","75","52342","0.0-75.0","3LEIZ60CDKLQC6BE2503O2TQLDQ9ZT","A3TZ6KG6SP9RDT","39KMGHJ4RZW9S7JH7DZG09TNV4R00C","","","img/flower4.png","75","54.29999999701977","2","0","1","",""
"null","","html-keyboard-response","76","52645","0.0-76.0","3LEIZ60CDKLQC6BE2503O2TQLDQ9ZT","A3TZ6KG6SP9RDT","39KMGHJ4RZW9S7JH7DZG09TNV4R00C","","","<img src=""img/flower4.png"" style=""width:200px;border:14px solid red;"">","null","","","","","",""
"0.09999999403953552","","image-keyboard-response","77","52647","0.0-77.0","3LEIZ60CDKLQC6BE2503O2TQLDQ9ZT","A3TZ6KG6SP9RDT","39KMGHJ4RZW9S7JH7DZG09TNV4R00C","","","img/flower5.png","74","1.4000000059604645","1","0","2","",""
"null","","html-keyboard-response","78","52955","0.0-78.0","3LEIZ60CDKLQC6BE2503O2TQLDQ9ZT","A3TZ6KG6SP9RDT","39KMGHJ4RZW9S7JH7DZG09TNV4R00C","","","<img src=""img/flower5.png"" style=""width:200px;border:14px solid red;"">","null","","","","","",""
"0.10000000894069672","","image-keyboard-response","79","52957","0.0-79.0","3LEIZ60CDKLQC6BE2503O2TQLDQ9ZT","A3TZ6KG6SP9RDT","39KMGHJ4RZW9S7JH7DZG09TNV4R00C","","","img/flower6.png","74","1.3999999910593033","1","1","3","",""
"null","","html-keyboard-response","80","53268","0.0-80.0","3LEIZ60CDKLQC6BE2503O2TQLDQ9ZT","A3TZ6KG6SP9RDT","39KMGHJ4RZW9S7JH7DZG09TNV4R00C","","","<img src=""img/flower6.png"" style=""width:200px; border:14px solid green;"">","null","","","","","",""
"186.8999999910593","","image-keyboard-response","81","53458","0.0-81.0","3LEIZ60CDKLQC6BE2503O2TQLDQ9ZT","A3TZ6KG6SP9RDT","39KMGHJ4RZW9S7JH7DZG09TNV4R00C","","","img/flower5.png","75","188.6000000089407","2","1","2","",""
"null","","html-keyboard-response","82","53763","0.0-82.0","3LEIZ60CDKLQC6BE2503O2TQLDQ9ZT","A3TZ6KG6SP9RDT","39KMGHJ4RZW9S7JH7DZG09TNV4R00C","","","<img src=""img/flower5.png"" style=""width:200px; border:14px solid green;"">","null","","","","","",""
"33.5","","image-keyboard-response","83","53798","0.0-83.0","3LEIZ60CDKLQC6BE2503O2TQLDQ9ZT","A3TZ6KG6SP9RDT","39KMGHJ4RZW9S7JH7DZG09TNV4R00C","","","img/flower4.png","74","34.8999999910593","1","1","1","",""
"null","","html-keyboard-response","84","54103","0.0-84.0","3LEIZ60CDKLQC6BE2503O2TQLDQ9ZT","A3TZ6KG6SP9RDT","39KMGHJ4RZW9S7JH7DZG09TNV4R00C","","","<img src=""img/flower4.png"" style=""width:200px; border:14px solid green;"">","null","","","","","",""
"105.09999999403954","","image-keyboard-response","85","54211","0.0-85.0","3LEIZ60CDKLQC6BE2503O2TQLDQ9ZT","A3TZ6KG6SP9RDT","39KMGHJ4RZW9S7JH7DZG09TNV4R00C","","","img/flower5.png","76","107.3999999910593","3","0","2","",""
"null","","html-keyboard-response","86","54526","0.0-86.0","3LEIZ60CDKLQC6BE2503O2TQLDQ9ZT","A3TZ6KG6SP9RDT","39KMGHJ4RZW9S7JH7DZG09TNV4R00C","","","<img src=""img/flower5.png"" style=""width:200px;border:14px solid red;"">","null","","","","","",""
"75.1000000089407","","image-keyboard-response","87","54604","0.0-87.0","3LEIZ60CDKLQC6BE2503O2TQLDQ9ZT","A3TZ6KG6SP9RDT","39KMGHJ4RZW9S7JH7DZG09TNV4R00C","","","img/flower4.png","74","77.09999999403954","1","0","1","",""
"null","","html-keyboard-response","88","54915","0.0-88.0","3LEIZ60CDKLQC6BE2503O2TQLDQ9ZT","A3TZ6KG6SP9RDT","39KMGHJ4RZW9S7JH7DZG09TNV4R00C","","","<img src=""img/flower4.png"" style=""width:200px;border:14px solid red;"">","null","","","","","",""
"34.70000000298023","","image-keyboard-response","89","54952","0.0-89.0","3LEIZ60CDKLQC6BE2503O2TQLDQ9ZT","A3TZ6KG6SP9RDT","39KMGHJ4RZW9S7JH7DZG09TNV4R00C","","","img/flower4.png","76","36.29999999701977","3","0","1","",""
"null","","html-keyboard-response","90","55259","0.0-90.0","3LEIZ60CDKLQC6BE2503O2TQLDQ9ZT","A3TZ6KG6SP9RDT","39KMGHJ4RZW9S7JH7DZG09TNV4R00C","","","<img src=""img/flower4.png"" style=""width:200px;border:14px solid red;"">","null","","","","","",""
"111.79999999701977","","image-keyboard-response","91","55373","0.0-91.0","3LEIZ60CDKLQC6BE2503O2TQLDQ9ZT","A3TZ6KG6SP9RDT","39KMGHJ4RZW9S7JH7DZG09TNV4R00C","","","img/flower6.png","76","113.8999999910593","3","1","3","",""
"null","","html-keyboard-response","92","55682","0.0-92.0","3LEIZ60CDKLQC6BE2503O2TQLDQ9ZT","A3TZ6KG6SP9RDT","39KMGHJ4RZW9S7JH7DZG09TNV4R00C","","","<img src=""img/flower6.png"" style=""width:200px; border:14px solid green;"">","null","","","","","",""
"5.600000008940697","","image-keyboard-response","93","55689","0.0-93.0","3LEIZ60CDKLQC6BE2503O2TQLDQ9ZT","A3TZ6KG6SP9RDT","39KMGHJ4RZW9S7JH7DZG09TNV4R00C","","","img/flower6.png","74","6.799999997019768","1","1","3","",""
"null","","html-keyboard-response","94","55991","0.0-94.0","3LEIZ60CDKLQC6BE2503O2TQLDQ9ZT","A3TZ6KG6SP9RDT","39KMGHJ4RZW9S7JH7DZG09TNV4R00C","","","<img src=""img/flower6.png"" style=""width:200px; border:14px solid green;"">","null","","","","","",""
"8.200000002980232","","image-keyboard-response","95","56001","0.0-95.0","3LEIZ60CDKLQC6BE2503O2TQLDQ9ZT","A3TZ6KG6SP9RDT","39KMGHJ4RZW9S7JH7DZG09TNV4R00C","","","img/flower6.png","74","10","1","1","3","",""
"null","","html-keyboard-response","96","56316","0.0-96.0","3LEIZ60CDKLQC6BE2503O2TQLDQ9ZT","A3TZ6KG6SP9RDT","39KMGHJ4RZW9S7JH7DZG09TNV4R00C","","","<img src=""img/flower6.png"" style=""width:200px; border:14px solid green;"">","null","","","","","",""
"97.20000000298023","","image-keyboard-response","97","56415","0.0-97.0","3LEIZ60CDKLQC6BE2503O2TQLDQ9ZT","A3TZ6KG6SP9RDT","39KMGHJ4RZW9S7JH7DZG09TNV4R00C","","","img/flower5.png","76","99","3","1","2","",""
"null","","html-keyboard-response","98","56723","0.0-98.0","3LEIZ60CDKLQC6BE2503O2TQLDQ9ZT","A3TZ6KG6SP9RDT","39KMGHJ4RZW9S7JH7DZG09TNV4R00C","","","<img src=""img/flower5.png"" style=""width:200px; border:14px solid green;"">","null","","","","","",""
"16","","image-keyboard-response","99","56741","0.0-99.0","3LEIZ60CDKLQC6BE2503O2TQLDQ9ZT","A3TZ6KG6SP9RDT","39KMGHJ4RZW9S7JH7DZG09TNV4R00C","","","img/flower6.png","74","17.400000005960464","1","0","3","",""
"null","","html-keyboard-response","100","57049","0.0-100.0","3LEIZ60CDKLQC6BE2503O2TQLDQ9ZT","A3TZ6KG6SP9RDT","39KMGHJ4RZW9S7JH7DZG09TNV4R00C","","","<img src=""img/flower6.png"" style=""width:200px;border:14px solid red;"">","null","","","","","",""
"31.600000008940697","","image-keyboard-response","101","57083","0.0-101.0","3LEIZ60CDKLQC6BE2503O2TQLDQ9ZT","A3TZ6KG6SP9RDT","39KMGHJ4RZW9S7JH7DZG09TNV4R00C","","","img/flower4.png","74","33.29999999701977","1","1","1","",""
"null","","html-keyboard-response","102","57391","0.0-102.0","3LEIZ60CDKLQC6BE2503O2TQLDQ9ZT","A3TZ6KG6SP9RDT","39KMGHJ4RZW9S7JH7DZG09TNV4R00C","","","<img src=""img/flower4.png"" style=""width:200px; border:14px solid green;"">","null","","","","","",""
"26.400000005960464","","image-keyboard-response","103","57419","0.0-103.0","3LEIZ60CDKLQC6BE2503O2TQLDQ9ZT","A3TZ6KG6SP9RDT","39KMGHJ4RZW9S7JH7DZG09TNV4R00C","","","img/flower4.png","74","27.700000002980232","1","1","1","",""
"null","","html-keyboard-response","104","57731","0.0-104.0","3LEIZ60CDKLQC6BE2503O2TQLDQ9ZT","A3TZ6KG6SP9RDT","39KMGHJ4RZW9S7JH7DZG09TNV4R00C","","","<img src=""img/flower4.png"" style=""width:200px; border:14px solid green;"">","null","","","","","",""
"149.29999999701977","","image-keyboard-response","105","57882","0.0-105.0","3LEIZ60CDKLQC6BE2503O2TQLDQ9ZT","A3TZ6KG6SP9RDT","39KMGHJ4RZW9S7JH7DZG09TNV4R00C","","","img/flower5.png","76","150.8999999910593","3","1","2","",""
"null","","html-keyboard-response","106","58187","0.0-106.0","3LEIZ60CDKLQC6BE2503O2TQLDQ9ZT","A3TZ6KG6SP9RDT","39KMGHJ4RZW9S7JH7DZG09TNV4R00C","","","<img src=""img/flower5.png"" style=""width:200px; border:14px solid green;"">","null","","","","","",""
"75.3999999910593","","image-keyboard-response","107","58265","0.0-107.0","3LEIZ60CDKLQC6BE2503O2TQLDQ9ZT","A3TZ6KG6SP9RDT","39KMGHJ4RZW9S7JH7DZG09TNV4R00C","","","img/flower5.png","76","77.09999999403954","3","1","2","",""
"null","","html-keyboard-response","108","58576","0.0-108.0","3LEIZ60CDKLQC6BE2503O2TQLDQ9ZT","A3TZ6KG6SP9RDT","39KMGHJ4RZW9S7JH7DZG09TNV4R00C","","","<img src=""img/flower5.png"" style=""width:200px; border:14px solid green;"">","null","","","","","",""
"124.5","","image-keyboard-response","109","58703","0.0-109.0","3LEIZ60CDKLQC6BE2503O2TQLDQ9ZT","A3TZ6KG6SP9RDT","39KMGHJ4RZW9S7JH7DZG09TNV4R00C","","","img/flower4.png","75","126.70000000298023","2","0","1","",""
"null","","html-keyboard-response","110","59011","0.0-110.0","3LEIZ60CDKLQC6BE2503O2TQLDQ9ZT","A3TZ6KG6SP9RDT","39KMGHJ4RZW9S7JH7DZG09TNV4R00C","","","<img src=""img/flower4.png"" style=""width:200px;border:14px solid red;"">","null","","","","","",""
"136.30000001192093","","image-keyboard-response","111","59150","0.0-111.0","3LEIZ60CDKLQC6BE2503O2TQLDQ9ZT","A3TZ6KG6SP9RDT","39KMGHJ4RZW9S7JH7DZG09TNV4R00C","","","img/flower6.png","76","138.09999999403954","3","1","3","",""
"null","","html-keyboard-response","112","59462","0.0-112.0","3LEIZ60CDKLQC6BE2503O2TQLDQ9ZT","A3TZ6KG6SP9RDT","39KMGHJ4RZW9S7JH7DZG09TNV4R00C","","","<img src=""img/flower6.png"" style=""width:200px; border:14px solid green;"">","null","","","","","",""
"56.599999994039536","","image-keyboard-response","113","59521","0.0-113.0","3LEIZ60CDKLQC6BE2503O2TQLDQ9ZT","A3TZ6KG6SP9RDT","39KMGHJ4RZW9S7JH7DZG09TNV4R00C","","","img/flower6.png","75","58.20000000298023","2","0","3","",""
"null","","html-keyboard-response","114","59839","0.0-114.0","3LEIZ60CDKLQC6BE2503O2TQLDQ9ZT","A3TZ6KG6SP9RDT","39KMGHJ4RZW9S7JH7DZG09TNV4R00C","","","<img src=""img/flower6.png"" style=""width:200px;border:14px solid red;"">","null","","","","","",""
"161.6000000089407","","image-keyboard-response","115","60003","0.0-115.0","3LEIZ60CDKLQC6BE2503O2TQLDQ9ZT","A3TZ6KG6SP9RDT","39KMGHJ4RZW9S7JH7DZG09TNV4R00C","","","img/flower5.png","75","163.20000000298023","2","1","2","",""
"null","","html-keyboard-response","116","60308","0.0-116.0","3LEIZ60CDKLQC6BE2503O2TQLDQ9ZT","A3TZ6KG6SP9RDT","39KMGHJ4RZW9S7JH7DZG09TNV4R00C","","","<img src=""img/flower5.png"" style=""width:200px; border:14px solid green;"">","null","","","","","",""
"125.29999999701977","","image-keyboard-response","117","60436","0.0-117.0","3LEIZ60CDKLQC6BE2503O2TQLDQ9ZT","A3TZ6KG6SP9RDT","39KMGHJ4RZW9S7JH7DZG09TNV4R00C","","","img/flower6.png","75","127.70000000298023","2","0","3","",""
"null","","html-keyboard-response","118","60744","0.0-118.0","3LEIZ60CDKLQC6BE2503O2TQLDQ9ZT","A3TZ6KG6SP9RDT","39KMGHJ4RZW9S7JH7DZG09TNV4R00C","","","<img src=""img/flower6.png"" style=""width:200px;border:14px solid red;"">","null","","","","","",""
"11.300000011920929","","image-keyboard-response","119","60757","0.0-119.0","3LEIZ60CDKLQC6BE2503O2TQLDQ9ZT","A3TZ6KG6SP9RDT","39KMGHJ4RZW9S7JH7DZG09TNV4R00C","","","img/flower6.png","75","12.799999997019768","2","0","3","",""
"null","","html-keyboard-response","120","61070","0.0-120.0","3LEIZ60CDKLQC6BE2503O2TQLDQ9ZT","A3TZ6KG6SP9RDT","39KMGHJ4RZW9S7JH7DZG09TNV4R00C","","","<img src=""img/flower6.png"" style=""width:200px;border:14px solid red;"">","null","","","","","",""
"18.200000002980232","","image-keyboard-response","121","61090","0.0-121.0","3LEIZ60CDKLQC6BE2503O2TQLDQ9ZT","A3TZ6KG6SP9RDT","39KMGHJ4RZW9S7JH7DZG09TNV4R00C","","","img/flower5.png","76","19","3","0","2","",""
"null","","html-keyboard-response","122","61397","0.0-122.0","3LEIZ60CDKLQC6BE2503O2TQLDQ9ZT","A3TZ6KG6SP9RDT","39KMGHJ4RZW9S7JH7DZG09TNV4R00C","","","<img src=""img/flower5.png"" style=""width:200px;border:14px solid red;"">","null","","","","","",""
"155.59999999403954","","image-keyboard-response","123","61555","0.0-123.0","3LEIZ60CDKLQC6BE2503O2TQLDQ9ZT","A3TZ6KG6SP9RDT","39KMGHJ4RZW9S7JH7DZG09TNV4R00C","","","img/flower4.png","76","157.20000000298023","3","0","1","",""
"null","","html-keyboard-response","124","61866","0.0-124.0","3LEIZ60CDKLQC6BE2503O2TQLDQ9ZT","A3TZ6KG6SP9RDT","39KMGHJ4RZW9S7JH7DZG09TNV4R00C","","","<img src=""img/flower4.png"" style=""width:200px;border:14px solid red;"">","null","","","","","",""
"3130.7000000029802","","instructions","125","64997","0.0-125.0","3LEIZ60CDKLQC6BE2503O2TQLDQ9ZT","A3TZ6KG6SP9RDT","39KMGHJ4RZW9S7JH7DZG09TNV4R00C","","[{""page_index"":0,""viewing_time"":3130.4000000059605}]","","","","","","","",""
"856.8000000119209","","image-keyboard-response","126","65856","0.0-126.0","3LEIZ60CDKLQC6BE2503O2TQLDQ9ZT","A3TZ6KG6SP9RDT","39KMGHJ4RZW9S7JH7DZG09TNV4R00C","","","img/flower1.png","76","858.7000000029802","3","1","2","0.7,0.2,0,0,0.7,0.2,0.2,0,0.7",""
"null","","html-keyboard-response","127","66166","0.0-127.0","3LEIZ60CDKLQC6BE2503O2TQLDQ9ZT","A3TZ6KG6SP9RDT","39KMGHJ4RZW9S7JH7DZG09TNV4R00C","","","<img src=""img/flower1.png"" style=""width:200px; border:14px solid green;"">","null","","","","","",""
"131.79999999701977","","image-keyboard-response","128","66300","0.0-128.0","3LEIZ60CDKLQC6BE2503O2TQLDQ9ZT","A3TZ6KG6SP9RDT","39KMGHJ4RZW9S7JH7DZG09TNV4R00C","","","img/flower3.png","76","133.40000000596046","3","0","1","0.7,0.2,0,0,0.7,0.2,0.2,0,0.7",""
"null","","html-keyboard-response","129","66616","0.0-129.0","3LEIZ60CDKLQC6BE2503O2TQLDQ9ZT","A3TZ6KG6SP9RDT","39KMGHJ4RZW9S7JH7DZG09TNV4R00C","","","<img src=""img/flower3.png"" style=""width:200px;border:14px solid red;"">","null","","","","","",""
"54.79999999701977","","image-keyboard-response","130","66675","0.0-130.0","3LEIZ60CDKLQC6BE2503O2TQLDQ9ZT","A3TZ6KG6SP9RDT","39KMGHJ4RZW9S7JH7DZG09TNV4R00C","","","img/flower3.png","74","56.5","1","1","1","0.7,0.2,0,0,0.7,0.2,0.2,0,0.7",""
"null","","html-keyboard-response","131","66992","0.0-131.0","3LEIZ60CDKLQC6BE2503O2TQLDQ9ZT","A3TZ6KG6SP9RDT","39KMGHJ4RZW9S7JH7DZG09TNV4R00C","","","<img src=""img/flower3.png"" style=""width:200px; border:14px solid green;"">","null","","","","","",""
"63.70000000298023","","image-keyboard-response","132","67058","0.0-132.0","3LEIZ60CDKLQC6BE2503O2TQLDQ9ZT","A3TZ6KG6SP9RDT","39KMGHJ4RZW9S7JH7DZG09TNV4R00C","","","img/flower3.png","76","65.90000000596046","3","0","1","0.7,0.2,0,0,0.7,0.2,0.2,0,0.7",""
"null","","html-keyboard-response","133","67369","0.0-133.0","3LEIZ60CDKLQC6BE2503O2TQLDQ9ZT","A3TZ6KG6SP9RDT","39KMGHJ4RZW9S7JH7DZG09TNV4R00C","","","<img src=""img/flower3.png"" style=""width:200px;border:14px solid red;"">","null","","","","","",""
"25.599999994039536","","image-keyboard-response","134","67398","0.0-134.0","3LEIZ60CDKLQC6BE2503O2TQLDQ9ZT","A3TZ6KG6SP9RDT","39KMGHJ4RZW9S7JH7DZG09TNV4R00C","","","img/flower5.png","74","27.400000005960464","1","0","3","0.7,0.2,0,0,0.7,0.2,0.2,0,0.7",""
"null","","html-keyboard-response","135","67709","0.0-135.0","3LEIZ60CDKLQC6BE2503O2TQLDQ9ZT","A3TZ6KG6SP9RDT","39KMGHJ4RZW9S7JH7DZG09TNV4R00C","","","<img src=""img/flower5.png"" style=""width:200px;border:14px solid red;"">","null","","","","","",""
"26.200000002980232","","image-keyboard-response","136","67737","0.0-136.0","3LEIZ60CDKLQC6BE2503O2TQLDQ9ZT","A3TZ6KG6SP9RDT","39KMGHJ4RZW9S7JH7DZG09TNV4R00C","","","img/flower5.png","76","27.799999997019768","3","1","3","0.7,0.2,0,0,0.7,0.2,0.2,0,0.7",""
"null","","html-keyboard-response","137","68054","0.0-137.0","3LEIZ60CDKLQC6BE2503O2TQLDQ9ZT","A3TZ6KG6SP9RDT","39KMGHJ4RZW9S7JH7DZG09TNV4R00C","","","<img src=""img/flower5.png"" style=""width:200px; border:14px solid green;"">","null","","","","","",""
"85.70000000298023","","image-keyboard-response","138","68142","0.0-138.0","3LEIZ60CDKLQC6BE2503O2TQLDQ9ZT","A3TZ6KG6SP9RDT","39KMGHJ4RZW9S7JH7DZG09TNV4R00C","","","img/flower5.png","75","87.29999999701977","2","0","3","0.7,0.2,0,0,0.7,0.2,0.2,0,0.7",""
"null","","html-keyboard-response","139","68445","0.0-139.0","3LEIZ60CDKLQC6BE2503O2TQLDQ9ZT","A3TZ6KG6SP9RDT","39KMGHJ4RZW9S7JH7DZG09TNV4R00C","","","<img src=""img/flower5.png"" style=""width:200px;border:14px solid red;"">","null","","","","","",""
"109.6000000089407","","image-keyboard-response","140","68556","0.0-140.0","3LEIZ60CDKLQC6BE2503O2TQLDQ9ZT","A3TZ6KG6SP9RDT","39KMGHJ4RZW9S7JH7DZG09TNV4R00C","","","img/flower1.png","74","110.3999999910593","1","0","2","0.7,0.2,0,0,0.7,0.2,0.2,0,0.7",""
"null","","html-keyboard-response","141","68866","0.0-141.0","3LEIZ60CDKLQC6BE2503O2TQLDQ9ZT","A3TZ6KG6SP9RDT","39KMGHJ4RZW9S7JH7DZG09TNV4R00C","","","<img src=""img/flower1.png"" style=""width:200px;border:14px solid red;"">","null","","","","","",""
"27.799999997019768","","image-keyboard-response","142","68894","0.0-142.0","3LEIZ60CDKLQC6BE2503O2TQLDQ9ZT","A3TZ6KG6SP9RDT","39KMGHJ4RZW9S7JH7DZG09TNV4R00C","","","img/flower1.png","76","28.399999991059303","3","0","2","0.7,0.2,0,0,0.7,0.2,0.2,0,0.7",""
"null","","html-keyboard-response","143","69198","0.0-143.0","3LEIZ60CDKLQC6BE2503O2TQLDQ9ZT","A3TZ6KG6SP9RDT","39KMGHJ4RZW9S7JH7DZG09TNV4R00C","","","<img src=""img/flower1.png"" style=""width:200px;border:14px solid red;"">","null","","","","","",""
"11.299999997019768","","image-keyboard-response","144","69211","0.0-144.0","3LEIZ60CDKLQC6BE2503O2TQLDQ9ZT","A3TZ6KG6SP9RDT","39KMGHJ4RZW9S7JH7DZG09TNV4R00C","","","img/flower1.png","74","12.199999988079071","1","0","2","0.7,0.2,0,0,0.7,0.2,0.2,0,0.7",""
"null","","html-keyboard-response","145","69528","0.0-145.0","3LEIZ60CDKLQC6BE2503O2TQLDQ9ZT","A3TZ6KG6SP9RDT","39KMGHJ4RZW9S7JH7DZG09TNV4R00C","","","<img src=""img/flower1.png"" style=""width:200px;border:14px solid red;"">","null","","","","","",""
"80.40000000596046","","image-keyboard-response","146","69610","0.0-146.0","3LEIZ60CDKLQC6BE2503O2TQLDQ9ZT","A3TZ6KG6SP9RDT","39KMGHJ4RZW9S7JH7DZG09TNV4R00C","","","img/flower1.png","75","82","2","0","2","0.7,0.2,0,0,0.7,0.2,0.2,0,0.7",""
"null","","html-keyboard-response","147","69915","0.0-147.0","3LEIZ60CDKLQC6BE2503O2TQLDQ9ZT","A3TZ6KG6SP9RDT","39KMGHJ4RZW9S7JH7DZG09TNV4R00C","","","<img src=""img/flower1.png"" style=""width:200px;border:14px solid red;"">","null","","","","","",""
"193.19999998807907","","image-keyboard-response","148","70111","0.0-148.0","3LEIZ60CDKLQC6BE2503O2TQLDQ9ZT","A3TZ6KG6SP9RDT","39KMGHJ4RZW9S7JH7DZG09TNV4R00C","","","img/flower1.png","76","195","3","1","2","0.7,0.2,0,0,0.7,0.2,0.2,0,0.7",""
"null","","html-keyboard-response","149","70420","0.0-149.0","3LEIZ60CDKLQC6BE2503O2TQLDQ9ZT","A3TZ6KG6SP9RDT","39KMGHJ4RZW9S7JH7DZG09TNV4R00C","","","<img src=""img/flower1.png"" style=""width:200px; border:14px solid green;"">","null","","","","","",""
"217.30000001192093","","image-keyboard-response","150","70639","0.0-150.0","3LEIZ60CDKLQC6BE2503O2TQLDQ9ZT","A3TZ6KG6SP9RDT","39KMGHJ4RZW9S7JH7DZG09TNV4R00C","","","img/flower5.png","76","219","3","1","3","0.7,0.2,0,0,0.7,0.2,0.2,0,0.7",""
"null","","html-keyboard-response","151","70947","0.0-151.0","3LEIZ60CDKLQC6BE2503O2TQLDQ9ZT","A3TZ6KG6SP9RDT","39KMGHJ4RZW9S7JH7DZG09TNV4R00C","","","<img src=""img/flower5.png"" style=""width:200px; border:14px solid green;"">","null","","","","","",""
"132","","image-keyboard-response","152","71082","0.0-152.0","3LEIZ60CDKLQC6BE2503O2TQLDQ9ZT","A3TZ6KG6SP9RDT","39KMGHJ4RZW9S7JH7DZG09TNV4R00C","","","img/flower5.png","76","134.70000000298023","3","0","3","0.7,0.2,0,0,0.7,0.2,0.2,0,0.7",""
"null","","html-keyboard-response","153","71398","0.0-153.0","3LEIZ60CDKLQC6BE2503O2TQLDQ9ZT","A3TZ6KG6SP9RDT","39KMGHJ4RZW9S7JH7DZG09TNV4R00C","","","<img src=""img/flower5.png"" style=""width:200px;border:14px solid red;"">","null","","","","","",""
"264.6000000089407","","image-keyboard-response","154","71665","0.0-154.0","3LEIZ60CDKLQC6BE2503O2TQLDQ9ZT","A3TZ6KG6SP9RDT","39KMGHJ4RZW9S7JH7DZG09TNV4R00C","","","img/flower5.png","74","266.40000000596046","1","1","3","0.7,0.2,0,0,0.7,0.2,0.2,0,0.7",""
"null","","html-keyboard-response","155","71977","0.0-155.0","3LEIZ60CDKLQC6BE2503O2TQLDQ9ZT","A3TZ6KG6SP9RDT","39KMGHJ4RZW9S7JH7DZG09TNV4R00C","","","<img src=""img/flower5.png"" style=""width:200px; border:14px solid green;"">","null","","","","","",""
"118.90000000596046","","image-keyboard-response","156","72099","0.0-156.0","3LEIZ60CDKLQC6BE2503O2TQLDQ9ZT","A3TZ6KG6SP9RDT","39KMGHJ4RZW9S7JH7DZG09TNV4R00C","","","img/flower5.png","76","120.80000001192093","3","1","3","0.7,0.2,0,0,0.7,0.2,0.2,0,0.7",""
"null","","html-keyboard-response","157","72413","0.0-157.0","3LEIZ60CDKLQC6BE2503O2TQLDQ9ZT","A3TZ6KG6SP9RDT","39KMGHJ4RZW9S7JH7DZG09TNV4R00C","","","<img src=""img/flower5.png"" style=""width:200px; border:14px solid green;"">","null","","","","","",""
"144","","image-keyboard-response","158","72559","0.0-158.0","3LEIZ60CDKLQC6BE2503O2TQLDQ9ZT","A3TZ6KG6SP9RDT","39KMGHJ4RZW9S7JH7DZG09TNV4R00C","","","img/flower5.png","76","145.79999999701977","3","1","3","0.7,0.2,0,0,0.7,0.2,0.2,0,0.7",""
"null","","html-keyboard-response","159","72863","0.0-159.0","3LEIZ60CDKLQC6BE2503O2TQLDQ9ZT","A3TZ6KG6SP9RDT","39KMGHJ4RZW9S7JH7DZG09TNV4R00C","","","<img src=""img/flower5.png"" style=""width:200px; border:14px solid green;"">","null","","","","","",""
"83.79999999701977","","image-keyboard-response","160","72950","0.0-160.0","3LEIZ60CDKLQC6BE2503O2TQLDQ9ZT","A3TZ6KG6SP9RDT","39KMGHJ4RZW9S7JH7DZG09TNV4R00C","","","img/flower3.png","76","86.40000000596046","3","0","1","0.7,0.2,0,0,0.7,0.2,0.2,0,0.7",""
"null","","html-keyboard-response","161","73256","0.0-161.0","3LEIZ60CDKLQC6BE2503O2TQLDQ9ZT","A3TZ6KG6SP9RDT","39KMGHJ4RZW9S7JH7DZG09TNV4R00C","","","<img src=""img/flower3.png"" style=""width:200px;border:14px solid red;"">","null","","","","","",""
"79.3999999910593","","image-keyboard-response","162","73338","0.0-162.0","3LEIZ60CDKLQC6BE2503O2TQLDQ9ZT","A3TZ6KG6SP9RDT","39KMGHJ4RZW9S7JH7DZG09TNV4R00C","","","img/flower1.png","74","81.1000000089407","1","0","2","0.7,0.2,0,0,0.7,0.2,0.2,0,0.7",""
"null","","html-keyboard-response","163","73644","0.0-163.0","3LEIZ60CDKLQC6BE2503O2TQLDQ9ZT","A3TZ6KG6SP9RDT","39KMGHJ4RZW9S7JH7DZG09TNV4R00C","","","<img src=""img/flower1.png"" style=""width:200px;border:14px solid red;"">","null","","","","","",""
"85.5","","image-keyboard-response","164","73731","0.0-164.0","3LEIZ60CDKLQC6BE2503O2TQLDQ9ZT","A3TZ6KG6SP9RDT","39KMGHJ4RZW9S7JH7DZG09TNV4R00C","","","img/flower5.png","74","87.09999999403954","1","1","3","0.7,0.2,0,0,0.7,0.2,0.2,0,0.7",""
"null","","html-keyboard-response","165","74048","0.0-165.0","3LEIZ60CDKLQC6BE2503O2TQLDQ9ZT","A3TZ6KG6SP9RDT","39KMGHJ4RZW9S7JH7DZG09TNV4R00C","","","<img src=""img/flower5.png"" style=""width:200px; border:14px solid green;"">","null","","","","","",""
"38.29999999701977","","image-keyboard-response","166","74089","0.0-166.0","3LEIZ60CDKLQC6BE2503O2TQLDQ9ZT","A3TZ6KG6SP9RDT","39KMGHJ4RZW9S7JH7DZG09TNV4R00C","","","img/flower3.png","75","40","2","0","1","0.7,0.2,0,0,0.7,0.2,0.2,0,0.7",""
"null","","html-keyboard-response","167","74407","0.0-167.0","3LEIZ60CDKLQC6BE2503O2TQLDQ9ZT","A3TZ6KG6SP9RDT","39KMGHJ4RZW9S7JH7DZG09TNV4R00C","","","<img src=""img/flower3.png"" style=""width:200px;border:14px solid red;"">","null","","","","","",""
"88.59999999403954","","image-keyboard-response","168","74498","0.0-168.0","3LEIZ60CDKLQC6BE2503O2TQLDQ9ZT","A3TZ6KG6SP9RDT","39KMGHJ4RZW9S7JH7DZG09TNV4R00C","","","img/flower5.png","74","90.29999999701977","1","0","3","0.7,0.2,0,0,0.7,0.2,0.2,0,0.7",""
"null","","html-keyboard-response","169","74812","0.0-169.0","3LEIZ60CDKLQC6BE2503O2TQLDQ9ZT","A3TZ6KG6SP9RDT","39KMGHJ4RZW9S7JH7DZG09TNV4R00C","","","<img src=""img/flower5.png"" style=""width:200px;border:14px solid red;"">","null","","","","","",""
"21.099999994039536","","image-keyboard-response","170","74835","0.0-170.0","3LEIZ60CDKLQC6BE2503O2TQLDQ9ZT","A3TZ6KG6SP9RDT","39KMGHJ4RZW9S7JH7DZG09TNV4R00C","","","img/flower1.png","74","22.5","1","0","2","0.7,0.2,0,0,0.7,0.2,0.2,0,0.7",""
"null","","html-keyboard-response","171","75140","0.0-171.0","3LEIZ60CDKLQC6BE2503O2TQLDQ9ZT","A3TZ6KG6SP9RDT","39KMGHJ4RZW9S7JH7DZG09TNV4R00C","","","<img src=""img/flower1.png"" style=""width:200px;border:14px solid red;"">","null","","","","","",""
"199.8999999910593","","image-keyboard-response","172","75342","0.0-172.0","3LEIZ60CDKLQC6BE2503O2TQLDQ9ZT","A3TZ6KG6SP9RDT","39KMGHJ4RZW9S7JH7DZG09TNV4R00C","","","img/flower1.png","76","201.90000000596046","3","1","2","0.7,0.2,0,0,0.7,0.2,0.2,0,0.7",""
"null","","html-keyboard-response","173","75654","0.0-173.0","3LEIZ60CDKLQC6BE2503O2TQLDQ9ZT","A3TZ6KG6SP9RDT","39KMGHJ4RZW9S7JH7DZG09TNV4R00C","","","<img src=""img/flower1.png"" style=""width:200px; border:14px solid green;"">","null","","","","","",""
"258.29999999701977","","image-keyboard-response","174","75915","0.0-174.0","3LEIZ60CDKLQC6BE2503O2TQLDQ9ZT","A3TZ6KG6SP9RDT","39KMGHJ4RZW9S7JH7DZG09TNV4R00C","","","img/flower3.png","74","260.09999999403954","1","1","1","0.7,0.2,0,0,0.7,0.2,0.2,0,0.7",""
"null","","html-keyboard-response","175","76231","0.0-175.0","3LEIZ60CDKLQC6BE2503O2TQLDQ9ZT","A3TZ6KG6SP9RDT","39KMGHJ4RZW9S7JH7DZG09TNV4R00C","","","<img src=""img/flower3.png"" style=""width:200px; border:14px solid green;"">","null","","","","","",""
"53.400000005960464","","image-keyboard-response","176","76287","0.0-176.0","3LEIZ60CDKLQC6BE2503O2TQLDQ9ZT","A3TZ6KG6SP9RDT","39KMGHJ4RZW9S7JH7DZG09TNV4R00C","","","img/flower3.png","74","55","1","1","1","0.7,0.2,0,0,0.7,0.2,0.2,0,0.7",""
"null","","html-keyboard-response","177","76605","0.0-177.0","3LEIZ60CDKLQC6BE2503O2TQLDQ9ZT","A3TZ6KG6SP9RDT","39KMGHJ4RZW9S7JH7DZG09TNV4R00C","","","<img src=""img/flower3.png"" style=""width:200px; border:14px solid green;"">","null","","","","","",""
"26.399999991059303","","image-keyboard-response","178","76633","0.0-178.0","3LEIZ60CDKLQC6BE2503O2TQLDQ9ZT","A3TZ6KG6SP9RDT","39KMGHJ4RZW9S7JH7DZG09TNV4R00C","","","img/flower5.png","74","27.80000001192093","1","0","3","0.7,0.2,0,0,0.7,0.2,0.2,0,0.7",""
"null","","html-keyboard-response","179","76949","0.0-179.0","3LEIZ60CDKLQC6BE2503O2TQLDQ9ZT","A3TZ6KG6SP9RDT","39KMGHJ4RZW9S7JH7DZG09TNV4R00C","","","<img src=""img/flower5.png"" style=""width:200px;border:14px solid red;"">","null","","","","","",""
"6.4000000059604645","","image-keyboard-response","180","76958","0.0-180.0","3LEIZ60CDKLQC6BE2503O2TQLDQ9ZT","A3TZ6KG6SP9RDT","39KMGHJ4RZW9S7JH7DZG09TNV4R00C","","","img/flower3.png","76","8.099999994039536","3","0","1","0.7,0.2,0,0,0.7,0.2,0.2,0,0.7",""
"null","","html-keyboard-response","181","77260","0.0-181.0","3LEIZ60CDKLQC6BE2503O2TQLDQ9ZT","A3TZ6KG6SP9RDT","39KMGHJ4RZW9S7JH7DZG09TNV4R00C","","","<img src=""img/flower3.png"" style=""width:200px;border:14px solid red;"">","null","","","","","",""
"37","","image-keyboard-response","182","77299","0.0-182.0","3LEIZ60CDKLQC6BE2503O2TQLDQ9ZT","A3TZ6KG6SP9RDT","39KMGHJ4RZW9S7JH7DZG09TNV4R00C","","","img/flower3.png","76","38.3999999910593","3","0","1","0.7,0.2,0,0,0.7,0.2,0.2,0,0.7",""
"null","","html-keyboard-response","183","77602","0.0-183.0","3LEIZ60CDKLQC6BE2503O2TQLDQ9ZT","A3TZ6KG6SP9RDT","39KMGHJ4RZW9S7JH7DZG09TNV4R00C","","","<img src=""img/flower3.png"" style=""width:200px;border:14px solid red;"">","null","","","","","",""
"211.29999999701977","","image-keyboard-response","184","77815","0.0-184.0","3LEIZ60CDKLQC6BE2503O2TQLDQ9ZT","A3TZ6KG6SP9RDT","39KMGHJ4RZW9S7JH7DZG09TNV4R00C","","","img/flower1.png","76","213","3","0","2","0.7,0.2,0,0,0.7,0.2,0.2,0,0.7",""
"null","","html-keyboard-response","185","78127","0.0-185.0","3LEIZ60CDKLQC6BE2503O2TQLDQ9ZT","A3TZ6KG6SP9RDT","39KMGHJ4RZW9S7JH7DZG09TNV4R00C","","","<img src=""img/flower1.png"" style=""width:200px;border:14px solid red;"">","null","","","","","",""
"122.5","","image-keyboard-response","186","78251","0.0-186.0","3LEIZ60CDKLQC6BE2503O2TQLDQ9ZT","A3TZ6KG6SP9RDT","39KMGHJ4RZW9S7JH7DZG09TNV4R00C","","","img/flower3.png","75","123.8999999910593","2","0","1","0.7,0.2,0,0,0.7,0.2,0.2,0,0.7",""
"null","","html-keyboard-response","187","78554","0.0-187.0","3LEIZ60CDKLQC6BE2503O2TQLDQ9ZT","A3TZ6KG6SP9RDT","39KMGHJ4RZW9S7JH7DZG09TNV4R00C","","","<img src=""img/flower3.png"" style=""width:200px;border:14px solid red;"">","null","","","","","",""
"150.1000000089407","","image-keyboard-response","188","78706","0.0-188.0","3LEIZ60CDKLQC6BE2503O2TQLDQ9ZT","A3TZ6KG6SP9RDT","39KMGHJ4RZW9S7JH7DZG09TNV4R00C","","","img/flower3.png","75","151.70000000298023","2","0","1","0.7,0.2,0,0,0.7,0.2,0.2,0,0.7",""
"null","","html-keyboard-response","189","79026","0.0-189.0","3LEIZ60CDKLQC6BE2503O2TQLDQ9ZT","A3TZ6KG6SP9RDT","39KMGHJ4RZW9S7JH7DZG09TNV4R00C","","","<img src=""img/flower3.png"" style=""width:200px;border:14px solid red;"">","null","","","","","",""
"148.59999999403954","","image-keyboard-response","190","79177","0.0-190.0","3LEIZ60CDKLQC6BE2503O2TQLDQ9ZT","A3TZ6KG6SP9RDT","39KMGHJ4RZW9S7JH7DZG09TNV4R00C","","","img/flower3.png","76","150.40000000596046","3","0","1","0.7,0.2,0,0,0.7,0.2,0.2,0,0.7",""
"null","","html-keyboard-response","191","79490","0.0-191.0","3LEIZ60CDKLQC6BE2503O2TQLDQ9ZT","A3TZ6KG6SP9RDT","39KMGHJ4RZW9S7JH7DZG09TNV4R00C","","","<img src=""img/flower3.png"" style=""width:200px;border:14px solid red;"">","null","","","","","",""
"101.20000000298023","","image-keyboard-response","192","79594","0.0-192.0","3LEIZ60CDKLQC6BE2503O2TQLDQ9ZT","A3TZ6KG6SP9RDT","39KMGHJ4RZW9S7JH7DZG09TNV4R00C","","","img/flower5.png","76","103.19999998807907","3","1","3","0.7,0.2,0,0,0.7,0.2,0.2,0,0.7",""
"null","","html-keyboard-response","193","79909","0.0-193.0","3LEIZ60CDKLQC6BE2503O2TQLDQ9ZT","A3TZ6KG6SP9RDT","39KMGHJ4RZW9S7JH7DZG09TNV4R00C","","","<img src=""img/flower5.png"" style=""width:200px; border:14px solid green;"">","null","","","","","",""
"123.5","","image-keyboard-response","194","80035","0.0-194.0","3LEIZ60CDKLQC6BE2503O2TQLDQ9ZT","A3TZ6KG6SP9RDT","39KMGHJ4RZW9S7JH7DZG09TNV4R00C","","","img/flower1.png","75","125.29999999701977","2","1","2","0.7,0.2,0,0,0.7,0.2,0.2,0,0.7",""
"null","","html-keyboard-response","195","80344","0.0-195.0","3LEIZ60CDKLQC6BE2503O2TQLDQ9ZT","A3TZ6KG6SP9RDT","39KMGHJ4RZW9S7JH7DZG09TNV4R00C","","","<img src=""img/flower1.png"" style=""width:200px; border:14px solid green;"">","null","","","","","",""
"100.3999999910593","","image-keyboard-response","196","80446","0.0-196.0","3LEIZ60CDKLQC6BE2503O2TQLDQ9ZT","A3TZ6KG6SP9RDT","39KMGHJ4RZW9S7JH7DZG09TNV4R00C","","","img/flower1.png","75","101.79999999701977","2","1","2","0.7,0.2,0,0,0.7,0.2,0.2,0,0.7",""
"null","","html-keyboard-response","197","80749","0.0-197.0","3LEIZ60CDKLQC6BE2503O2TQLDQ9ZT","A3TZ6KG6SP9RDT","39KMGHJ4RZW9S7JH7DZG09TNV4R00C","","","<img src=""img/flower1.png"" style=""width:200px; border:14px solid green;"">","null","","","","","",""
"80.5","","image-keyboard-response","198","80832","0.0-198.0","3LEIZ60CDKLQC6BE2503O2TQLDQ9ZT","A3TZ6KG6SP9RDT","39KMGHJ4RZW9S7JH7DZG09TNV4R00C","","","img/flower1.png","75","82.09999999403954","2","0","2","0.7,0.2,0,0,0.7,0.2,0.2,0,0.7",""
"null","","html-keyboard-response","199","81141","0.0-199.0","3LEIZ60CDKLQC6BE2503O2TQLDQ9ZT","A3TZ6KG6SP9RDT","39KMGHJ4RZW9S7JH7DZG09TNV4R00C","","","<img src=""img/flower1.png"" style=""width:200px;border:14px solid red;"">","null","","","","","",""
"115.40000000596046","","image-keyboard-response","200","81258","0.0-200.0","3LEIZ60CDKLQC6BE2503O2TQLDQ9ZT","A3TZ6KG6SP9RDT","39KMGHJ4RZW9S7JH7DZG09TNV4R00C","","","img/flower5.png","75","117","2","0","3","0.7,0.2,0,0,0.7,0.2,0.2,0,0.7",""
"null","","html-keyboard-response","201","81561","0.0-201.0","3LEIZ60CDKLQC6BE2503O2TQLDQ9ZT","A3TZ6KG6SP9RDT","39KMGHJ4RZW9S7JH7DZG09TNV4R00C","","","<img src=""img/flower5.png"" style=""width:200px;border:14px solid red;"">","null","","","","","",""
"223","","image-keyboard-response","202","81786","0.0-202.0","3LEIZ60CDKLQC6BE2503O2TQLDQ9ZT","A3TZ6KG6SP9RDT","39KMGHJ4RZW9S7JH7DZG09TNV4R00C","","","img/flower5.png","74","224.59999999403954","1","0","3","0.7,0.2,0,0,0.7,0.2,0.2,0,0.7",""
"null","","html-keyboard-response","203","82094","0.0-203.0","3LEIZ60CDKLQC6BE2503O2TQLDQ9ZT","A3TZ6KG6SP9RDT","39KMGHJ4RZW9S7JH7DZG09TNV4R00C","","","<img src=""img/flower5.png"" style=""width:200px;border:14px solid red;"">","null","","","","","",""
"6.700000002980232","","image-keyboard-response","204","82103","0.0-204.0","3LEIZ60CDKLQC6BE2503O2TQLDQ9ZT","A3TZ6KG6SP9RDT","39KMGHJ4RZW9S7JH7DZG09TNV4R00C","","","img/flower1.png","74","8.200000002980232","1","0","2","0.7,0.2,0,0,0.7,0.2,0.2,0,0.7",""
"null","","html-keyboard-response","205","82419","0.0-205.0","3LEIZ60CDKLQC6BE2503O2TQLDQ9ZT","A3TZ6KG6SP9RDT","39KMGHJ4RZW9S7JH7DZG09TNV4R00C","","","<img src=""img/flower1.png"" style=""width:200px;border:14px solid red;"">","null","","","","","",""
"8.799999997019768","","image-keyboard-response","206","82430","0.0-206.0","3LEIZ60CDKLQC6BE2503O2TQLDQ9ZT","A3TZ6KG6SP9RDT","39KMGHJ4RZW9S7JH7DZG09TNV4R00C","","","img/flower1.png","76","10.400000005960464","3","0","2","0.7,0.2,0,0,0.7,0.2,0.2,0,0.7",""
"null","","html-keyboard-response","207","82748","0.0-207.0","3LEIZ60CDKLQC6BE2503O2TQLDQ9ZT","A3TZ6KG6SP9RDT","39KMGHJ4RZW9S7JH7DZG09TNV4R00C","","","<img src=""img/flower1.png"" style=""width:200px;border:14px solid red;"">","null","","","","","",""
"9.5","","image-keyboard-response","208","82759","0.0-208.0","3LEIZ60CDKLQC6BE2503O2TQLDQ9ZT","A3TZ6KG6SP9RDT","39KMGHJ4RZW9S7JH7DZG09TNV4R00C","","","img/flower5.png","74","10.899999991059303","1","1","3","0.7,0.2,0,0,0.7,0.2,0.2,0,0.7",""
"null","","html-keyboard-response","209","83075","0.0-209.0","3LEIZ60CDKLQC6BE2503O2TQLDQ9ZT","A3TZ6KG6SP9RDT","39KMGHJ4RZW9S7JH7DZG09TNV4R00C","","","<img src=""img/flower5.png"" style=""width:200px; border:14px solid green;"">","null","","","","","",""
"20","","image-keyboard-response","210","83097","0.0-210.0","3LEIZ60CDKLQC6BE2503O2TQLDQ9ZT","A3TZ6KG6SP9RDT","39KMGHJ4RZW9S7JH7DZG09TNV4R00C","","","img/flower3.png","75","21.599999994039536","2","0","1","0.7,0.2,0,0,0.7,0.2,0.2,0,0.7",""
"null","","html-keyboard-response","211","83400","0.0-211.0","3LEIZ60CDKLQC6BE2503O2TQLDQ9ZT","A3TZ6KG6SP9RDT","39KMGHJ4RZW9S7JH7DZG09TNV4R00C","","","<img src=""img/flower3.png"" style=""width:200px;border:14px solid red;"">","null","","","","","",""
"67.19999998807907","","image-keyboard-response","212","83470","0.0-212.0","3LEIZ60CDKLQC6BE2503O2TQLDQ9ZT","A3TZ6KG6SP9RDT","39KMGHJ4RZW9S7JH7DZG09TNV4R00C","","","img/flower3.png","76","68.8999999910593","3","0","1","0.7,0.2,0,0,0.7,0.2,0.2,0,0.7",""
"null","","html-keyboard-response","213","83775","0.0-213.0","3LEIZ60CDKLQC6BE2503O2TQLDQ9ZT","A3TZ6KG6SP9RDT","39KMGHJ4RZW9S7JH7DZG09TNV4R00C","","","<img src=""img/flower3.png"" style=""width:200px;border:14px solid red;"">","null","","","","","",""
"1526.4000000059605","","image-keyboard-response","214","85303","0.0-214.0","3LEIZ60CDKLQC6BE2503O2TQLDQ9ZT","A3TZ6KG6SP9RDT","39KMGHJ4RZW9S7JH7DZG09TNV4R00C","","","img/flower5.png","76","1527.7999999970198","3","0","3","0.7,0.2,0,0,0.7,0.2,0.2,0,0.7",""
"null","","html-keyboard-response","215","85605","0.0-215.0","3LEIZ60CDKLQC6BE2503O2TQLDQ9ZT","A3TZ6KG6SP9RDT","39KMGHJ4RZW9S7JH7DZG09TNV4R00C","","","<img src=""img/flower5.png"" style=""width:200px;border:14px solid red;"">","null","","","","","",""
"124.40000000596046","","image-keyboard-response","216","85732","0.0-216.0","3LEIZ60CDKLQC6BE2503O2TQLDQ9ZT","A3TZ6KG6SP9RDT","39KMGHJ4RZW9S7JH7DZG09TNV4R00C","","","img/flower5.png","74","126.40000000596046","1","1","3","0.7,0.2,0,0,0.7,0.2,0.2,0,0.7",""
"null","","html-keyboard-response","217","86042","0.0-217.0","3LEIZ60CDKLQC6BE2503O2TQLDQ9ZT","A3TZ6KG6SP9RDT","39KMGHJ4RZW9S7JH7DZG09TNV4R00C","","","<img src=""img/flower5.png"" style=""width:200px; border:14px solid green;"">","null","","","","","",""
"108.59999999403954","","image-keyboard-response","218","86153","0.0-218.0","3LEIZ60CDKLQC6BE2503O2TQLDQ9ZT","A3TZ6KG6SP9RDT","39KMGHJ4RZW9S7JH7DZG09TNV4R00C","","","img/flower1.png","76","110.5","3","0","2","0.7,0.2,0,0,0.7,0.2,0.2,0,0.7",""
"null","","html-keyboard-response","219","86457","0.0-219.0","3LEIZ60CDKLQC6BE2503O2TQLDQ9ZT","A3TZ6KG6SP9RDT","39KMGHJ4RZW9S7JH7DZG09TNV4R00C","","","<img src=""img/flower1.png"" style=""width:200px;border:14px solid red;"">","null","","","","","",""
"119","","image-keyboard-response","220","86578","0.0-220.0","3LEIZ60CDKLQC6BE2503O2TQLDQ9ZT","A3TZ6KG6SP9RDT","39KMGHJ4RZW9S7JH7DZG09TNV4R00C","","","img/flower1.png","75","121.30000001192093","2","0","2","0.7,0.2,0,0,0.7,0.2,0.2,0,0.7",""
"null","","html-keyboard-response","221","86884","0.0-221.0","3LEIZ60CDKLQC6BE2503O2TQLDQ9ZT","A3TZ6KG6SP9RDT","39KMGHJ4RZW9S7JH7DZG09TNV4R00C","","","<img src=""img/flower1.png"" style=""width:200px;border:14px solid red;"">","null","","","","","",""
"201.70000000298023","","image-keyboard-response","222","87087","0.0-222.0","3LEIZ60CDKLQC6BE2503O2TQLDQ9ZT","A3TZ6KG6SP9RDT","39KMGHJ4RZW9S7JH7DZG09TNV4R00C","","","img/flower3.png","76","202.90000000596046","3","0","1","0.7,0.2,0,0,0.7,0.2,0.2,0,0.7",""
"null","","html-keyboard-response","223","87403","0.0-223.0","3LEIZ60CDKLQC6BE2503O2TQLDQ9ZT","A3TZ6KG6SP9RDT","39KMGHJ4RZW9S7JH7DZG09TNV4R00C","","","<img src=""img/flower3.png"" style=""width:200px;border:14px solid red;"">","null","","","","","",""
"185.79999999701977","","image-keyboard-response","224","87591","0.0-224.0","3LEIZ60CDKLQC6BE2503O2TQLDQ9ZT","A3TZ6KG6SP9RDT","39KMGHJ4RZW9S7JH7DZG09TNV4R00C","","","img/flower3.png","75","187.5","2","0","1","0.7,0.2,0,0,0.7,0.2,0.2,0,0.7",""
"null","","html-keyboard-response","225","87898","0.0-225.0","3LEIZ60CDKLQC6BE2503O2TQLDQ9ZT","A3TZ6KG6SP9RDT","39KMGHJ4RZW9S7JH7DZG09TNV4R00C","","","<img src=""img/flower3.png"" style=""width:200px;border:14px solid red;"">","null","","","","","",""
"259.70000000298023","","image-keyboard-response","226","88161","0.0-226.0","3LEIZ60CDKLQC6BE2503O2TQLDQ9ZT","A3TZ6KG6SP9RDT","39KMGHJ4RZW9S7JH7DZG09TNV4R00C","","","img/flower5.png","74","261.59999999403954","1","0","3","0.7,0.2,0,0,0.7,0.2,0.2,0,0.7",""
"null","","html-keyboard-response","227","88469","0.0-227.0","3LEIZ60CDKLQC6BE2503O2TQLDQ9ZT","A3TZ6KG6SP9RDT","39KMGHJ4RZW9S7JH7DZG09TNV4R00C","","","<img src=""img/flower5.png"" style=""width:200px;border:14px solid red;"">","null","","","","","",""
"18.5","","image-keyboard-response","228","88490","0.0-228.0","3LEIZ60CDKLQC6BE2503O2TQLDQ9ZT","A3TZ6KG6SP9RDT","39KMGHJ4RZW9S7JH7DZG09TNV4R00C","","","img/flower3.png","74","19.599999994039536","1","1","1","0.7,0.2,0,0,0.7,0.2,0.2,0,0.7",""
"null","","html-keyboard-response","229","88805","0.0-229.0","3LEIZ60CDKLQC6BE2503O2TQLDQ9ZT","A3TZ6KG6SP9RDT","39KMGHJ4RZW9S7JH7DZG09TNV4R00C","","","<img src=""img/flower3.png"" style=""width:200px; border:14px solid green;"">","null","","","","","",""
"113.8999999910593","","image-keyboard-response","230","88921","0.0-230.0","3LEIZ60CDKLQC6BE2503O2TQLDQ9ZT","A3TZ6KG6SP9RDT","39KMGHJ4RZW9S7JH7DZG09TNV4R00C","","","img/flower1.png","75","115.70000000298023","2","0","2","0.7,0.2,0,0,0.7,0.2,0.2,0,0.7",""
"null","","html-keyboard-response","231","89227","0.0-231.0","3LEIZ60CDKLQC6BE2503O2TQLDQ9ZT","A3TZ6KG6SP9RDT","39KMGHJ4RZW9S7JH7DZG09TNV4R00C","","","<img src=""img/flower1.png"" style=""width:200px;border:14px solid red;"">","null","","","","","",""
"112","","image-keyboard-response","232","89341","0.0-232.0","3LEIZ60CDKLQC6BE2503O2TQLDQ9ZT","A3TZ6KG6SP9RDT","39KMGHJ4RZW9S7JH7DZG09TNV4R00C","","","img/flower1.png","76","113.90000000596046","3","0","2","0.7,0.2,0,0,0.7,0.2,0.2,0,0.7",""
"null","","html-keyboard-response","233","89649","0.0-233.0","3LEIZ60CDKLQC6BE2503O2TQLDQ9ZT","A3TZ6KG6SP9RDT","39KMGHJ4RZW9S7JH7DZG09TNV4R00C","","","<img src=""img/flower1.png"" style=""width:200px;border:14px solid red;"">","null","","","","","",""
"118.40000000596046","","image-keyboard-response","234","89769","0.0-234.0","3LEIZ60CDKLQC6BE2503O2TQLDQ9ZT","A3TZ6KG6SP9RDT","39KMGHJ4RZW9S7JH7DZG09TNV4R00C","","","img/flower5.png","75","120.09999999403954","2","0","3","0.7,0.2,0,0,0.7,0.2,0.2,0,0.7",""
"null","","html-keyboard-response","235","90085","0.0-235.0","3LEIZ60CDKLQC6BE2503O2TQLDQ9ZT","A3TZ6KG6SP9RDT","39KMGHJ4RZW9S7JH7DZG09TNV4R00C","","","<img src=""img/flower5.png"" style=""width:200px;border:14px solid red;"">","null","","","","","",""
"221.1000000089407","","image-keyboard-response","236","90308","0.0-236.0","3LEIZ60CDKLQC6BE2503O2TQLDQ9ZT","A3TZ6KG6SP9RDT","39KMGHJ4RZW9S7JH7DZG09TNV4R00C","","","img/flower5.png","75","222.8999999910593","2","0","3","0.7,0.2,0,0,0.7,0.2,0.2,0,0.7",""
"null","","html-keyboard-response","237","90619","0.0-237.0","3LEIZ60CDKLQC6BE2503O2TQLDQ9ZT","A3TZ6KG6SP9RDT","39KMGHJ4RZW9S7JH7DZG09TNV4R00C","","","<img src=""img/flower5.png"" style=""width:200px;border:14px solid red;"">","null","","","","","",""
"182.19999998807907","","image-keyboard-response","238","90803","0.0-238.0","3LEIZ60CDKLQC6BE2503O2TQLDQ9ZT","A3TZ6KG6SP9RDT","39KMGHJ4RZW9S7JH7DZG09TNV4R00C","","","img/flower3.png","74","183.90000000596046","1","1","1","0.7,0.2,0,0,0.7,0.2,0.2,0,0.7",""
"null","","html-keyboard-response","239","91106","0.0-239.0","3LEIZ60CDKLQC6BE2503O2TQLDQ9ZT","A3TZ6KG6SP9RDT","39KMGHJ4RZW9S7JH7DZG09TNV4R00C","","","<img src=""img/flower3.png"" style=""width:200px; border:14px solid green;"">","null","","","","","",""
"152.20000000298023","","image-keyboard-response","240","91260","0.0-240.0","3LEIZ60CDKLQC6BE2503O2TQLDQ9ZT","A3TZ6KG6SP9RDT","39KMGHJ4RZW9S7JH7DZG09TNV4R00C","","","img/flower1.png","76","153.5","3","0","2","0.7,0.2,0,0,0.7,0.2,0.2,0,0.7",""
"null","","html-keyboard-response","241","91571","0.0-241.0","3LEIZ60CDKLQC6BE2503O2TQLDQ9ZT","A3TZ6KG6SP9RDT","39KMGHJ4RZW9S7JH7DZG09TNV4R00C","","","<img src=""img/flower1.png"" style=""width:200px;border:14px solid red;"">","null","","","","","",""
"134.3999999910593","","image-keyboard-response","242","91707","0.0-242.0","3LEIZ60CDKLQC6BE2503O2TQLDQ9ZT","A3TZ6KG6SP9RDT","39KMGHJ4RZW9S7JH7DZG09TNV4R00C","","","img/flower1.png","74","136.29999999701977","1","0","2","0.7,0.2,0,0,0.7,0.2,0.2,0,0.7",""
"null","","html-keyboard-response","243","92021","0.0-243.0","3LEIZ60CDKLQC6BE2503O2TQLDQ9ZT","A3TZ6KG6SP9RDT","39KMGHJ4RZW9S7JH7DZG09TNV4R00C","","","<img src=""img/flower1.png"" style=""width:200px;border:14px solid red;"">","null","","","","","",""
"50.099999994039536","","image-keyboard-response","244","92073","0.0-244.0","3LEIZ60CDKLQC6BE2503O2TQLDQ9ZT","A3TZ6KG6SP9RDT","39KMGHJ4RZW9S7JH7DZG09TNV4R00C","","","img/flower1.png","75","51.599999994039536","2","1","2","0.7,0.2,0,0,0.7,0.2,0.2,0,0.7",""
"null","","html-keyboard-response","245","92380","0.0-245.0","3LEIZ60CDKLQC6BE2503O2TQLDQ9ZT","A3TZ6KG6SP9RDT","39KMGHJ4RZW9S7JH7DZG09TNV4R00C","","","<img src=""img/flower1.png"" style=""width:200px; border:14px solid green;"">","null","","","","","",""
"98.79999999701977","","image-keyboard-response","246","92481","0.0-246.0","3LEIZ60CDKLQC6BE2503O2TQLDQ9ZT","A3TZ6KG6SP9RDT","39KMGHJ4RZW9S7JH7DZG09TNV4R00C","","","img/flower5.png","75","100.29999999701977","2","0","3","0.7,0.2,0,0,0.7,0.2,0.2,0,0.7",""
"null","","html-keyboard-response","247","92798","0.0-247.0","3LEIZ60CDKLQC6BE2503O2TQLDQ9ZT","A3TZ6KG6SP9RDT","39KMGHJ4RZW9S7JH7DZG09TNV4R00C","","","<img src=""img/flower5.png"" style=""width:200px;border:14px solid red;"">","null","","","","","",""
"64.90000000596046","","image-keyboard-response","248","92865","0.0-248.0","3LEIZ60CDKLQC6BE2503O2TQLDQ9ZT","A3TZ6KG6SP9RDT","39KMGHJ4RZW9S7JH7DZG09TNV4R00C","","","img/flower1.png","75","66.5","2","1","2","0.7,0.2,0,0,0.7,0.2,0.2,0,0.7",""
"null","","html-keyboard-response","249","93177","0.0-249.0","3LEIZ60CDKLQC6BE2503O2TQLDQ9ZT","A3TZ6KG6SP9RDT","39KMGHJ4RZW9S7JH7DZG09TNV4R00C","","","<img src=""img/flower1.png"" style=""width:200px; border:14px solid green;"">","null","","","","","",""
"93.1000000089407","","image-keyboard-response","250","93272","0.0-250.0","3LEIZ60CDKLQC6BE2503O2TQLDQ9ZT","A3TZ6KG6SP9RDT","39KMGHJ4RZW9S7JH7DZG09TNV4R00C","","","img/flower5.png","75","94.59999999403954","2","0","3","0.7,0.2,0,0,0.7,0.2,0.2,0,0.7",""
"null","","html-keyboard-response","251","93581","0.0-251.0","3LEIZ60CDKLQC6BE2503O2TQLDQ9ZT","A3TZ6KG6SP9RDT","39KMGHJ4RZW9S7JH7DZG09TNV4R00C","","","<img src=""img/flower5.png"" style=""width:200px;border:14px solid red;"">","null","","","","","",""
"128.70000000298023","","image-keyboard-response","252","93712","0.0-252.0","3LEIZ60CDKLQC6BE2503O2TQLDQ9ZT","A3TZ6KG6SP9RDT","39KMGHJ4RZW9S7JH7DZG09TNV4R00C","","","img/flower3.png","74","130.29999999701977","1","0","1","0.7,0.2,0,0,0.7,0.2,0.2,0,0.7",""
"null","","html-keyboard-response","253","94018","0.0-253.0","3LEIZ60CDKLQC6BE2503O2TQLDQ9ZT","A3TZ6KG6SP9RDT","39KMGHJ4RZW9S7JH7DZG09TNV4R00C","","","<img src=""img/flower3.png"" style=""width:200px;border:14px solid red;"">","null","","","","","",""
"218.40000000596046","","image-keyboard-response","254","94239","0.0-254.0","3LEIZ60CDKLQC6BE2503O2TQLDQ9ZT","A3TZ6KG6SP9RDT","39KMGHJ4RZW9S7JH7DZG09TNV4R00C","","","img/flower1.png","75","220","2","1","2","0.7,0.2,0,0,0.7,0.2,0.2,0,0.7",""
"null","","html-keyboard-response","255","94548","0.0-255.0","3LEIZ60CDKLQC6BE2503O2TQLDQ9ZT","A3TZ6KG6SP9RDT","39KMGHJ4RZW9S7JH7DZG09TNV4R00C","","","<img src=""img/flower1.png"" style=""width:200px; border:14px solid green;"">","null","","","","","",""
"161.3999999910593","","image-keyboard-response","256","94712","0.0-256.0","3LEIZ60CDKLQC6BE2503O2TQLDQ9ZT","A3TZ6KG6SP9RDT","39KMGHJ4RZW9S7JH7DZG09TNV4R00C","","","img/flower5.png","76","163","3","0","3","0.7,0.2,0,0,0.7,0.2,0.2,0,0.7",""
"null","","html-keyboard-response","257","95028","0.0-257.0","3LEIZ60CDKLQC6BE2503O2TQLDQ9ZT","A3TZ6KG6SP9RDT","39KMGHJ4RZW9S7JH7DZG09TNV4R00C","","","<img src=""img/flower5.png"" style=""width:200px;border:14px solid red;"">","null","","","","","",""
"189.30000001192093","","image-keyboard-response","258","95220","0.0-258.0","3LEIZ60CDKLQC6BE2503O2TQLDQ9ZT","A3TZ6KG6SP9RDT","39KMGHJ4RZW9S7JH7DZG09TNV4R00C","","","img/flower3.png","75","191.19999998807907","2","0","1","0.7,0.2,0,0,0.7,0.2,0.2,0,0.7",""
"null","","html-keyboard-response","259","95525","0.0-259.0","3LEIZ60CDKLQC6BE2503O2TQLDQ9ZT","A3TZ6KG6SP9RDT","39KMGHJ4RZW9S7JH7DZG09TNV4R00C","","","<img src=""img/flower3.png"" style=""width:200px;border:14px solid red;"">","null","","","","","",""
"7.699999988079071","","image-keyboard-response","260","95535","0.0-260.0","3LEIZ60CDKLQC6BE2503O2TQLDQ9ZT","A3TZ6KG6SP9RDT","39KMGHJ4RZW9S7JH7DZG09TNV4R00C","","","img/flower5.png","76","9.400000005960464","3","1","3","0.7,0.2,0,0,0.7,0.2,0.2,0,0.7",""
"null","","html-keyboard-response","261","95851","0.0-261.0","3LEIZ60CDKLQC6BE2503O2TQLDQ9ZT","A3TZ6KG6SP9RDT","39KMGHJ4RZW9S7JH7DZG09TNV4R00C","","","<img src=""img/flower5.png"" style=""width:200px; border:14px solid green;"">","null","","","","","",""
"43.1000000089407","","image-keyboard-response","262","95896","0.0-262.0","3LEIZ60CDKLQC6BE2503O2TQLDQ9ZT","A3TZ6KG6SP9RDT","39KMGHJ4RZW9S7JH7DZG09TNV4R00C","","","img/flower5.png","74","44.6000000089407","1","0","3","0.7,0.2,0,0,0.7,0.2,0.2,0,0.7",""
"null","","html-keyboard-response","263","96212","0.0-263.0","3LEIZ60CDKLQC6BE2503O2TQLDQ9ZT","A3TZ6KG6SP9RDT","39KMGHJ4RZW9S7JH7DZG09TNV4R00C","","","<img src=""img/flower5.png"" style=""width:200px;border:14px solid red;"">","null","","","","","",""
"9.599999994039536","","image-keyboard-response","264","96223","0.0-264.0","3LEIZ60CDKLQC6BE2503O2TQLDQ9ZT","A3TZ6KG6SP9RDT","39KMGHJ4RZW9S7JH7DZG09TNV4R00C","","","img/flower3.png","74","10.700000002980232","1","0","1","0.7,0.2,0,0,0.7,0.2,0.2,0,0.7",""
"null","","html-keyboard-response","265","96541","0.0-265.0","3LEIZ60CDKLQC6BE2503O2TQLDQ9ZT","A3TZ6KG6SP9RDT","39KMGHJ4RZW9S7JH7DZG09TNV4R00C","","","<img src=""img/flower3.png"" style=""width:200px;border:14px solid red;"">","null","","","","","",""
"94.29999999701977","","image-keyboard-response","266","96637","0.0-266.0","3LEIZ60CDKLQC6BE2503O2TQLDQ9ZT","A3TZ6KG6SP9RDT","39KMGHJ4RZW9S7JH7DZG09TNV4R00C","","","img/flower3.png","74","96","1","1","1","0.7,0.2,0,0,0.7,0.2,0.2,0,0.7",""
"null","","html-keyboard-response","267","96944","0.0-267.0","3LEIZ60CDKLQC6BE2503O2TQLDQ9ZT","A3TZ6KG6SP9RDT","39KMGHJ4RZW9S7JH7DZG09TNV4R00C","","","<img src=""img/flower3.png"" style=""width:200px; border:14px solid green;"">","null","","","","","",""
"17.30000001192093","","image-keyboard-response","268","96964","0.0-268.0","3LEIZ60CDKLQC6BE2503O2TQLDQ9ZT","A3TZ6KG6SP9RDT","39KMGHJ4RZW9S7JH7DZG09TNV4R00C","","","img/flower3.png","75","19.30000001192093","2","0","1","0.7,0.2,0,0,0.7,0.2,0.2,0,0.7",""
"null","","html-keyboard-response","269","97273","0.0-269.0","3LEIZ60CDKLQC6BE2503O2TQLDQ9ZT","A3TZ6KG6SP9RDT","39KMGHJ4RZW9S7JH7DZG09TNV4R00C","","","<img src=""img/flower3.png"" style=""width:200px;border:14px solid red;"">","null","","","","","",""
"290.20000000298023","","image-keyboard-response","270","97565","0.0-270.0","3LEIZ60CDKLQC6BE2503O2TQLDQ9ZT","A3TZ6KG6SP9RDT","39KMGHJ4RZW9S7JH7DZG09TNV4R00C","","","img/flower3.png","75","292.19999998807907","2","0","1","0.7,0.2,0,0,0.7,0.2,0.2,0,0.7",""
"null","","html-keyboard-response","271","97879","0.0-271.0","3LEIZ60CDKLQC6BE2503O2TQLDQ9ZT","A3TZ6KG6SP9RDT","39KMGHJ4RZW9S7JH7DZG09TNV4R00C","","","<img src=""img/flower3.png"" style=""width:200px;border:14px solid red;"">","null","","","","","",""
"50.69999998807907","","image-keyboard-response","272","97932","0.0-272.0","3LEIZ60CDKLQC6BE2503O2TQLDQ9ZT","A3TZ6KG6SP9RDT","39KMGHJ4RZW9S7JH7DZG09TNV4R00C","","","img/flower1.png","76","52.5","3","0","2","0.7,0.2,0,0,0.7,0.2,0.2,0,0.7",""
"null","","html-keyboard-response","273","98239","0.0-273.0","3LEIZ60CDKLQC6BE2503O2TQLDQ9ZT","A3TZ6KG6SP9RDT","39KMGHJ4RZW9S7JH7DZG09TNV4R00C","","","<img src=""img/flower1.png"" style=""width:200px;border:14px solid red;"">","null","","","","","",""
"142.20000000298023","","image-keyboard-response","274","98383","0.0-274.0","3LEIZ60CDKLQC6BE2503O2TQLDQ9ZT","A3TZ6KG6SP9RDT","39KMGHJ4RZW9S7JH7DZG09TNV4R00C","","","img/flower5.png","75","143.69999998807907","2","0","3","0.7,0.2,0,0,0.7,0.2,0.2,0,0.7",""
"null","","html-keyboard-response","275","98696","0.0-275.0","3LEIZ60CDKLQC6BE2503O2TQLDQ9ZT","A3TZ6KG6SP9RDT","39KMGHJ4RZW9S7JH7DZG09TNV4R00C","","","<img src=""img/flower5.png"" style=""width:200px;border:14px solid red;"">","null","","","","","",""
"147.70000000298023","","image-keyboard-response","276","98846","0.0-276.0","3LEIZ60CDKLQC6BE2503O2TQLDQ9ZT","A3TZ6KG6SP9RDT","39KMGHJ4RZW9S7JH7DZG09TNV4R00C","","","img/flower1.png","75","149.5","2","1","2","0.7,0.2,0,0,0.7,0.2,0.2,0,0.7",""
"null","","html-keyboard-response","277","99155","0.0-277.0","3LEIZ60CDKLQC6BE2503O2TQLDQ9ZT","A3TZ6KG6SP9RDT","39KMGHJ4RZW9S7JH7DZG09TNV4R00C","","","<img src=""img/flower1.png"" style=""width:200px; border:14px solid green;"">","null","","","","","",""
"186.8999999910593","","image-keyboard-response","278","99343","0.0-278.0","3LEIZ60CDKLQC6BE2503O2TQLDQ9ZT","A3TZ6KG6SP9RDT","39KMGHJ4RZW9S7JH7DZG09TNV4R00C","","","img/flower3.png","74","188.69999998807907","1","1","1","0.7,0.2,0,0,0.7,0.2,0.2,0,0.7",""
"null","","html-keyboard-response","279","99658","0.0-279.0","3LEIZ60CDKLQC6BE2503O2TQLDQ9ZT","A3TZ6KG6SP9RDT","39KMGHJ4RZW9S7JH7DZG09TNV4R00C","","","<img src=""img/flower3.png"" style=""width:200px; border:14px solid green;"">","null","","","","","",""
"55.900000005960464","","image-keyboard-response","280","99715","0.0-280.0","3LEIZ60CDKLQC6BE2503O2TQLDQ9ZT","A3TZ6KG6SP9RDT","39KMGHJ4RZW9S7JH7DZG09TNV4R00C","","","img/flower1.png","74","57.69999998807907","1","0","2","0.7,0.2,0,0,0.7,0.2,0.2,0,0.7",""
"null","","html-keyboard-response","281","100032","0.0-281.0","3LEIZ60CDKLQC6BE2503O2TQLDQ9ZT","A3TZ6KG6SP9RDT","39KMGHJ4RZW9S7JH7DZG09TNV4R00C","","","<img src=""img/flower1.png"" style=""width:200px;border:14px solid red;"">","null","","","","","",""
"97.29999999701977","","image-keyboard-response","282","100132","0.0-282.0","3LEIZ60CDKLQC6BE2503O2TQLDQ9ZT","A3TZ6KG6SP9RDT","39KMGHJ4RZW9S7JH7DZG09TNV4R00C","","","img/flower3.png","74","99.30000001192093","1","1","1","0.7,0.2,0,0,0.7,0.2,0.2,0,0.7",""
"null","","html-keyboard-response","283","100437","0.0-283.0","3LEIZ60CDKLQC6BE2503O2TQLDQ9ZT","A3TZ6KG6SP9RDT","39KMGHJ4RZW9S7JH7DZG09TNV4R00C","","","<img src=""img/flower3.png"" style=""width:200px; border:14px solid green;"">","null","","","","","",""
"66.3999999910593","","image-keyboard-response","284","100505","0.0-284.0","3LEIZ60CDKLQC6BE2503O2TQLDQ9ZT","A3TZ6KG6SP9RDT","39KMGHJ4RZW9S7JH7DZG09TNV4R00C","","","img/flower5.png","76","67.8999999910593","3","1","3","0.7,0.2,0,0,0.7,0.2,0.2,0,0.7",""
"null","","html-keyboard-response","285","100811","0.0-285.0","3LEIZ60CDKLQC6BE2503O2TQLDQ9ZT","A3TZ6KG6SP9RDT","39KMGHJ4RZW9S7JH7DZG09TNV4R00C","","","<img src=""img/flower5.png"" style=""width:200px; border:14px solid green;"">","null","","","","","",""
"151.70000000298023","","image-keyboard-response","286","100965","0.0-286.0","3LEIZ60CDKLQC6BE2503O2TQLDQ9ZT","A3TZ6KG6SP9RDT","39KMGHJ4RZW9S7JH7DZG09TNV4R00C","","","img/flower3.png","74","153.29999999701977","1","1","1","0.7,0.2,0,0,0.7,0.2,0.2,0,0.7",""
"null","","html-keyboard-response","287","101280","0.0-287.0","3LEIZ60CDKLQC6BE2503O2TQLDQ9ZT","A3TZ6KG6SP9RDT","39KMGHJ4RZW9S7JH7DZG09TNV4R00C","","","<img src=""img/flower3.png"" style=""width:200px; border:14px solid green;"">","null","","","","","",""
"215.09999999403954","","image-keyboard-response","288","101497","0.0-288.0","3LEIZ60CDKLQC6BE2503O2TQLDQ9ZT","A3TZ6KG6SP9RDT","39KMGHJ4RZW9S7JH7DZG09TNV4R00C","","","img/flower3.png","75","216.70000000298023","2","0","1","0.7,0.2,0,0,0.7,0.2,0.2,0,0.7",""
"null","","html-keyboard-response","289","101812","0.0-289.0","3LEIZ60CDKLQC6BE2503O2TQLDQ9ZT","A3TZ6KG6SP9RDT","39KMGHJ4RZW9S7JH7DZG09TNV4R00C","","","<img src=""img/flower3.png"" style=""width:200px;border:14px solid red;"">","null","","","","","",""
"16.899999991059303","","image-keyboard-response","290","101831","0.0-290.0","3LEIZ60CDKLQC6BE2503O2TQLDQ9ZT","A3TZ6KG6SP9RDT","39KMGHJ4RZW9S7JH7DZG09TNV4R00C","","","img/flower3.png","74","18.700000002980232","1","1","1","0.7,0.2,0,0,0.7,0.2,0.2,0,0.7",""
"null","","html-keyboard-response","291","102141","0.0-291.0","3LEIZ60CDKLQC6BE2503O2TQLDQ9ZT","A3TZ6KG6SP9RDT","39KMGHJ4RZW9S7JH7DZG09TNV4R00C","","","<img src=""img/flower3.png"" style=""width:200px; border:14px solid green;"">","null","","","","","",""
"109.59999999403954","","image-keyboard-response","292","102253","0.0-292.0","3LEIZ60CDKLQC6BE2503O2TQLDQ9ZT","A3TZ6KG6SP9RDT","39KMGHJ4RZW9S7JH7DZG09TNV4R00C","","","img/flower3.png","74","111.09999999403954","1","0","1","0.7,0.2,0,0,0.7,0.2,0.2,0,0.7",""
"null","","html-keyboard-response","293","102559","0.0-293.0","3LEIZ60CDKLQC6BE2503O2TQLDQ9ZT","A3TZ6KG6SP9RDT","39KMGHJ4RZW9S7JH7DZG09TNV4R00C","","","<img src=""img/flower3.png"" style=""width:200px;border:14px solid red;"">","null","","","","","",""
"208.79999999701977","","image-keyboard-response","294","102769","0.0-294.0","3LEIZ60CDKLQC6BE2503O2TQLDQ9ZT","A3TZ6KG6SP9RDT","39KMGHJ4RZW9S7JH7DZG09TNV4R00C","","","img/flower5.png","75","210.29999999701977","2","0","3","0.7,0.2,0,0,0.7,0.2,0.2,0,0.7",""
"null","","html-keyboard-response","295","103088","0.0-295.0","3LEIZ60CDKLQC6BE2503O2TQLDQ9ZT","A3TZ6KG6SP9RDT","39KMGHJ4RZW9S7JH7DZG09TNV4R00C","","","<img src=""img/flower5.png"" style=""width:200px;border:14px solid red;"">","null","","","","","",""
"67.70000000298023","","image-keyboard-response","296","103158","0.0-296.0","3LEIZ60CDKLQC6BE2503O2TQLDQ9ZT","A3TZ6KG6SP9RDT","39KMGHJ4RZW9S7JH7DZG09TNV4R00C","","","img/flower5.png","74","69.3999999910593","1","0","3","0.7,0.2,0,0,0.7,0.2,0.2,0,0.7",""
"null","","html-keyboard-response","297","103463","0.0-297.0","3LEIZ60CDKLQC6BE2503O2TQLDQ9ZT","A3TZ6KG6SP9RDT","39KMGHJ4RZW9S7JH7DZG09TNV4R00C","","","<img src=""img/flower5.png"" style=""width:200px;border:14px solid red;"">","null","","","","","",""
"62.6000000089407","","image-keyboard-response","298","103528","0.0-298.0","3LEIZ60CDKLQC6BE2503O2TQLDQ9ZT","A3TZ6KG6SP9RDT","39KMGHJ4RZW9S7JH7DZG09TNV4R00C","","","img/flower1.png","74","64.29999999701977","1","0","2","0.7,0.2,0,0,0.7,0.2,0.2,0,0.7",""
"null","","html-keyboard-response","299","103834","0.0-299.0","3LEIZ60CDKLQC6BE2503O2TQLDQ9ZT","A3TZ6KG6SP9RDT","39KMGHJ4RZW9S7JH7DZG09TNV4R00C","","","<img src=""img/flower1.png"" style=""width:200px;border:14px solid red;"">","null","","","","","",""
"30.400000005960464","","image-keyboard-response","300","103867","0.0-300.0","3LEIZ60CDKLQC6BE2503O2TQLDQ9ZT","A3TZ6KG6SP9RDT","39KMGHJ4RZW9S7JH7DZG09TNV4R00C","","","img/flower1.png","75","32","2","1","2","0.7,0.2,0,0,0.7,0.2,0.2,0,0.7",""
"null","","html-keyboard-response","301","104177","0.0-301.0","3LEIZ60CDKLQC6BE2503O2TQLDQ9ZT","A3TZ6KG6SP9RDT","39KMGHJ4RZW9S7JH7DZG09TNV4R00C","","","<img src=""img/flower1.png"" style=""width:200px; border:14px solid green;"">","null","","","","","",""
"73.29999999701977","","image-keyboard-response","302","104252","0.0-302.0","3LEIZ60CDKLQC6BE2503O2TQLDQ9ZT","A3TZ6KG6SP9RDT","39KMGHJ4RZW9S7JH7DZG09TNV4R00C","","","img/flower5.png","74","75","1","1","3","0.7,0.2,0,0,0.7,0.2,0.2,0,0.7",""
"null","","html-keyboard-response","303","104567","0.0-303.0","3LEIZ60CDKLQC6BE2503O2TQLDQ9ZT","A3TZ6KG6SP9RDT","39KMGHJ4RZW9S7JH7DZG09TNV4R00C","","","<img src=""img/flower5.png"" style=""width:200px; border:14px solid green;"">","null","","","","","",""
"7.9000000059604645","","image-keyboard-response","304","104577","0.0-304.0","3LEIZ60CDKLQC6BE2503O2TQLDQ9ZT","A3TZ6KG6SP9RDT","39KMGHJ4RZW9S7JH7DZG09TNV4R00C","","","img/flower1.png","75","9.200000002980232","2","1","2","0.7,0.2,0,0,0.7,0.2,0.2,0,0.7",""
"null","","html-keyboard-response","305","104893","0.0-305.0","3LEIZ60CDKLQC6BE2503O2TQLDQ9ZT","A3TZ6KG6SP9RDT","39KMGHJ4RZW9S7JH7DZG09TNV4R00C","","","<img src=""img/flower1.png"" style=""width:200px; border:14px solid green;"">","null","","","","","",""
"","","html-keyboard-response","306","111821","0.0-306.0","3LEIZ60CDKLQC6BE2503O2TQLDQ9ZT","A3TZ6KG6SP9RDT","39KMGHJ4RZW9S7JH7DZG09TNV4R00C","","","","","","","","","",""
"671.2999999970198","","image-keyboard-response","307","112493","0.0-307.0","3LEIZ60CDKLQC6BE2503O2TQLDQ9ZT","A3TZ6KG6SP9RDT","39KMGHJ4RZW9S7JH7DZG09TNV4R00C","","","img/flower6.png","74","672.5999999940395","1","0","1","0.7,0.2,0,0.7,0,0.2,0.2,0,0.7",""
"null","","html-keyboard-response","308","112811","0.0-308.0","3LEIZ60CDKLQC6BE2503O2TQLDQ9ZT","A3TZ6KG6SP9RDT","39KMGHJ4RZW9S7JH7DZG09TNV4R00C","","","<img src=""img/flower6.png"" style=""width:200px;border:14px solid red;"">","null","","","","","",""
"7.5","","image-keyboard-response","309","112820","0.0-309.0","3LEIZ60CDKLQC6BE2503O2TQLDQ9ZT","A3TZ6KG6SP9RDT","39KMGHJ4RZW9S7JH7DZG09TNV4R00C","","","img/flower2.png","76","9","3","1","3","0.7,0.2,0,0.7,0,0.2,0.2,0,0.7",""
"null","","html-keyboard-response","310","113138","0.0-310.0","3LEIZ60CDKLQC6BE2503O2TQLDQ9ZT","A3TZ6KG6SP9RDT","39KMGHJ4RZW9S7JH7DZG09TNV4R00C","","","<img src=""img/flower2.png"" style=""width:200px; border:14px solid green;"">","null","","","","","",""
"6.399999991059303","","image-keyboard-response","311","113147","0.0-311.0","3LEIZ60CDKLQC6BE2503O2TQLDQ9ZT","A3TZ6KG6SP9RDT","39KMGHJ4RZW9S7JH7DZG09TNV4R00C","","","img/flower4.png","76","8","3","0","2","0.7,0.2,0,0.7,0,0.2,0.2,0,0.7",""
"null","","html-keyboard-response","312","113451","0.0-312.0","3LEIZ60CDKLQC6BE2503O2TQLDQ9ZT","A3TZ6KG6SP9RDT","39KMGHJ4RZW9S7JH7DZG09TNV4R00C","","","<img src=""img/flower4.png"" style=""width:200px;border:14px solid red;"">","null","","","","","",""
"114.3999999910593","","image-keyboard-response","313","113568","0.0-313.0","3LEIZ60CDKLQC6BE2503O2TQLDQ9ZT","A3TZ6KG6SP9RDT","39KMGHJ4RZW9S7JH7DZG09TNV4R00C","","","img/flower4.png","75","116","2","0","2","0.7,0.2,0,0.7,0,0.2,0.2,0,0.7",""
"null","","html-keyboard-response","314","113872","0.0-314.0","3LEIZ60CDKLQC6BE2503O2TQLDQ9ZT","A3TZ6KG6SP9RDT","39KMGHJ4RZW9S7JH7DZG09TNV4R00C","","","<img src=""img/flower4.png"" style=""width:200px;border:14px solid red;"">","null","","","","","",""
"88.20000000298023","","image-keyboard-response","315","113963","0.0-315.0","3LEIZ60CDKLQC6BE2503O2TQLDQ9ZT","A3TZ6KG6SP9RDT","39KMGHJ4RZW9S7JH7DZG09TNV4R00C","","","img/flower6.png","76","90.59999999403954","3","0","1","0.7,0.2,0,0.7,0,0.2,0.2,0,0.7",""
"null","","html-keyboard-response","316","114267","0.0-316.0","3LEIZ60CDKLQC6BE2503O2TQLDQ9ZT","A3TZ6KG6SP9RDT","39KMGHJ4RZW9S7JH7DZG09TNV4R00C","","","<img src=""img/flower6.png"" style=""width:200px;border:14px solid red;"">","null","","","","","",""
"75.79999999701977","","image-keyboard-response","317","114345","0.0-317.0","3LEIZ60CDKLQC6BE2503O2TQLDQ9ZT","A3TZ6KG6SP9RDT","39KMGHJ4RZW9S7JH7DZG09TNV4R00C","","","img/flower4.png","74","77.3999999910593","1","1","2","0.7,0.2,0,0.7,0,0.2,0.2,0,0.7",""
"null","","html-keyboard-response","318","114647","0.0-318.0","3LEIZ60CDKLQC6BE2503O2TQLDQ9ZT","A3TZ6KG6SP9RDT","39KMGHJ4RZW9S7JH7DZG09TNV4R00C","","","<img src=""img/flower4.png"" style=""width:200px; border:14px solid green;"">","null","","","","","",""
"24.799999997019768","","image-keyboard-response","319","114674","0.0-319.0","3LEIZ60CDKLQC6BE2503O2TQLDQ9ZT","A3TZ6KG6SP9RDT","39KMGHJ4RZW9S7JH7DZG09TNV4R00C","","","img/flower2.png","74","26.299999997019768","1","0","3","0.7,0.2,0,0.7,0,0.2,0.2,0,0.7",""
"null","","html-keyboard-response","320","114978","0.0-320.0","3LEIZ60CDKLQC6BE2503O2TQLDQ9ZT","A3TZ6KG6SP9RDT","39KMGHJ4RZW9S7JH7DZG09TNV4R00C","","","<img src=""img/flower2.png"" style=""width:200px;border:14px solid red;"">","null","","","","","",""
"36.19999998807907","","image-keyboard-response","321","115017","0.0-321.0","3LEIZ60CDKLQC6BE2503O2TQLDQ9ZT","A3TZ6KG6SP9RDT","39KMGHJ4RZW9S7JH7DZG09TNV4R00C","","","img/flower2.png","75","38.20000000298023","2","0","3","0.7,0.2,0,0.7,0,0.2,0.2,0,0.7",""
"null","","html-keyboard-response","322","115320","0.0-322.0","3LEIZ60CDKLQC6BE2503O2TQLDQ9ZT","A3TZ6KG6SP9RDT","39KMGHJ4RZW9S7JH7DZG09TNV4R00C","","","<img src=""img/flower2.png"" style=""width:200px;border:14px solid red;"">","null","","","","","",""
"22.099999994039536","","image-keyboard-response","323","115344","0.0-323.0","3LEIZ60CDKLQC6BE2503O2TQLDQ9ZT","A3TZ6KG6SP9RDT","39KMGHJ4RZW9S7JH7DZG09TNV4R00C","","","img/flower6.png","74","23.700000002980232","1","1","1","0.7,0.2,0,0.7,0,0.2,0.2,0,0.7",""
"null","","html-keyboard-response","324","115648","0.0-324.0","3LEIZ60CDKLQC6BE2503O2TQLDQ9ZT","A3TZ6KG6SP9RDT","39KMGHJ4RZW9S7JH7DZG09TNV4R00C","","","<img src=""img/flower6.png"" style=""width:200px; border:14px solid green;"">","null","","","","","",""
"65.70000000298023","","image-keyboard-response","325","115716","0.0-325.0","3LEIZ60CDKLQC6BE2503O2TQLDQ9ZT","A3TZ6KG6SP9RDT","39KMGHJ4RZW9S7JH7DZG09TNV4R00C","","","img/flower2.png","75","67.3999999910593","2","0","3","0.7,0.2,0,0.7,0,0.2,0.2,0,0.7",""
"null","","html-keyboard-response","326","116021","0.0-326.0","3LEIZ60CDKLQC6BE2503O2TQLDQ9ZT","A3TZ6KG6SP9RDT","39KMGHJ4RZW9S7JH7DZG09TNV4R00C","","","<img src=""img/flower2.png"" style=""width:200px;border:14px solid red;"">","null","","","","","",""
"29","","image-keyboard-response","327","116052","0.0-327.0","3LEIZ60CDKLQC6BE2503O2TQLDQ9ZT","A3TZ6KG6SP9RDT","39KMGHJ4RZW9S7JH7DZG09TNV4R00C","","","img/flower6.png","75","30.5","2","0","1","0.7,0.2,0,0.7,0,0.2,0.2,0,0.7",""
"null","","html-keyboard-response","328","116363","0.0-328.0","3LEIZ60CDKLQC6BE2503O2TQLDQ9ZT","A3TZ6KG6SP9RDT","39KMGHJ4RZW9S7JH7DZG09TNV4R00C","","","<img src=""img/flower6.png"" style=""width:200px;border:14px solid red;"">","null","","","","","",""
"28.799999997019768","","image-keyboard-response","329","116393","0.0-329.0","3LEIZ60CDKLQC6BE2503O2TQLDQ9ZT","A3TZ6KG6SP9RDT","39KMGHJ4RZW9S7JH7DZG09TNV4R00C","","","img/flower2.png","74","30.299999997019768","1","0","3","0.7,0.2,0,0.7,0,0.2,0.2,0,0.7",""
"null","","html-keyboard-response","330","116704","0.0-330.0","3LEIZ60CDKLQC6BE2503O2TQLDQ9ZT","A3TZ6KG6SP9RDT","39KMGHJ4RZW9S7JH7DZG09TNV4R00C","","","<img src=""img/flower2.png"" style=""width:200px;border:14px solid red;"">","null","","","","","",""
"277.1000000089407","","image-keyboard-response","331","116983","0.0-331.0","3LEIZ60CDKLQC6BE2503O2TQLDQ9ZT","A3TZ6KG6SP9RDT","39KMGHJ4RZW9S7JH7DZG09TNV4R00C","","","img/flower2.png","75","278.79999999701977","2","0","3","0.7,0.2,0,0.7,0,0.2,0.2,0,0.7",""
"null","","html-keyboard-response","332","117300","0.0-332.0","3LEIZ60CDKLQC6BE2503O2TQLDQ9ZT","A3TZ6KG6SP9RDT","39KMGHJ4RZW9S7JH7DZG09TNV4R00C","","","<img src=""img/flower2.png"" style=""width:200px;border:14px solid red;"">","null","","","","","",""
"82.20000000298023","","image-keyboard-response","333","117385","0.0-333.0","3LEIZ60CDKLQC6BE2503O2TQLDQ9ZT","A3TZ6KG6SP9RDT","39KMGHJ4RZW9S7JH7DZG09TNV4R00C","","","img/flower2.png","74","83.70000000298023","1","0","3","0.7,0.2,0,0.7,0,0.2,0.2,0,0.7",""
"null","","html-keyboard-response","334","117688","0.0-334.0","3LEIZ60CDKLQC6BE2503O2TQLDQ9ZT","A3TZ6KG6SP9RDT","39KMGHJ4RZW9S7JH7DZG09TNV4R00C","","","<img src=""img/flower2.png"" style=""width:200px;border:14px solid red;"">","null","","","","","",""
"4.5999999940395355","","image-keyboard-response","335","117695","0.0-335.0","3LEIZ60CDKLQC6BE2503O2TQLDQ9ZT","A3TZ6KG6SP9RDT","39KMGHJ4RZW9S7JH7DZG09TNV4R00C","","","img/flower4.png","74","8.099999994039536","1","1","2","0.7,0.2,0,0.7,0,0.2,0.2,0,0.7",""
"null","","html-keyboard-response","336","118003","0.0-336.0","3LEIZ60CDKLQC6BE2503O2TQLDQ9ZT","A3TZ6KG6SP9RDT","39KMGHJ4RZW9S7JH7DZG09TNV4R00C","","","<img src=""img/flower4.png"" style=""width:200px; border:14px solid green;"">","null","","","","","",""
"209","","image-keyboard-response","337","118214","0.0-337.0","3LEIZ60CDKLQC6BE2503O2TQLDQ9ZT","A3TZ6KG6SP9RDT","39KMGHJ4RZW9S7JH7DZG09TNV4R00C","","","img/flower6.png","75","210.8999999910593","2","0","1","0.7,0.2,0,0.7,0,0.2,0.2,0,0.7",""
"null","","html-keyboard-response","338","118518","0.0-338.0","3LEIZ60CDKLQC6BE2503O2TQLDQ9ZT","A3TZ6KG6SP9RDT","39KMGHJ4RZW9S7JH7DZG09TNV4R00C","","","<img src=""img/flower6.png"" style=""width:200px;border:14px solid red;"">","null","","","","","",""
"0.20000000298023224","","image-keyboard-response","339","118520","0.0-339.0","3LEIZ60CDKLQC6BE2503O2TQLDQ9ZT","A3TZ6KG6SP9RDT","39KMGHJ4RZW9S7JH7DZG09TNV4R00C","","","img/flower2.png","74","1.3999999910593033","1","0","3","0.7,0.2,0,0.7,0,0.2,0.2,0,0.7",""
"null","","html-keyboard-response","340","118826","0.0-340.0","3LEIZ60CDKLQC6BE2503O2TQLDQ9ZT","A3TZ6KG6SP9RDT","39KMGHJ4RZW9S7JH7DZG09TNV4R00C","","","<img src=""img/flower2.png"" style=""width:200px;border:14px solid red;"">","null","","","","","",""
"92.20000000298023","","image-keyboard-response","341","118920","0.0-341.0","3LEIZ60CDKLQC6BE2503O2TQLDQ9ZT","A3TZ6KG6SP9RDT","39KMGHJ4RZW9S7JH7DZG09TNV4R00C","","","img/flower6.png","76","94.09999999403954","3","0","1","0.7,0.2,0,0.7,0,0.2,0.2,0,0.7",""
"null","","html-keyboard-response","342","119229","0.0-342.0","3LEIZ60CDKLQC6BE2503O2TQLDQ9ZT","A3TZ6KG6SP9RDT","39KMGHJ4RZW9S7JH7DZG09TNV4R00C","","","<img src=""img/flower6.png"" style=""width:200px;border:14px solid red;"">","null","","","","","",""
"3.5","","image-keyboard-response","343","119235","0.0-343.0","3LEIZ60CDKLQC6BE2503O2TQLDQ9ZT","A3TZ6KG6SP9RDT","39KMGHJ4RZW9S7JH7DZG09TNV4R00C","","","img/flower6.png","76","5.9000000059604645","3","0","1","0.7,0.2,0,0.7,0,0.2,0.2,0,0.7",""
"null","","html-keyboard-response","344","119539","0.0-344.0","3LEIZ60CDKLQC6BE2503O2TQLDQ9ZT","A3TZ6KG6SP9RDT","39KMGHJ4RZW9S7JH7DZG09TNV4R00C","","","<img src=""img/flower6.png"" style=""width:200px;border:14px solid red;"">","null","","","","","",""
"122.5","","image-keyboard-response","345","119663","0.0-345.0","3LEIZ60CDKLQC6BE2503O2TQLDQ9ZT","A3TZ6KG6SP9RDT","39KMGHJ4RZW9S7JH7DZG09TNV4R00C","","","img/flower4.png","76","124.29999999701977","3","0","2","0.7,0.2,0,0.7,0,0.2,0.2,0,0.7",""
"null","","html-keyboard-response","346","119974","0.0-346.0","3LEIZ60CDKLQC6BE2503O2TQLDQ9ZT","A3TZ6KG6SP9RDT","39KMGHJ4RZW9S7JH7DZG09TNV4R00C","","","<img src=""img/flower4.png"" style=""width:200px;border:14px solid red;"">","null","","","","","",""
"224.59999999403954","","image-keyboard-response","347","120200","0.0-347.0","3LEIZ60CDKLQC6BE2503O2TQLDQ9ZT","A3TZ6KG6SP9RDT","39KMGHJ4RZW9S7JH7DZG09TNV4R00C","","","img/flower2.png","75","226.09999999403954","2","0","3","0.7,0.2,0,0.7,0,0.2,0.2,0,0.7",""
"null","","html-keyboard-response","348","120504","0.0-348.0","3LEIZ60CDKLQC6BE2503O2TQLDQ9ZT","A3TZ6KG6SP9RDT","39KMGHJ4RZW9S7JH7DZG09TNV4R00C","","","<img src=""img/flower2.png"" style=""width:200px;border:14px solid red;"">","null","","","","","",""
"88.79999999701977","","image-keyboard-response","349","120595","0.0-349.0","3LEIZ60CDKLQC6BE2503O2TQLDQ9ZT","A3TZ6KG6SP9RDT","39KMGHJ4RZW9S7JH7DZG09TNV4R00C","","","img/flower2.png","74","90.59999999403954","1","0","3","0.7,0.2,0,0.7,0,0.2,0.2,0,0.7",""
"null","","html-keyboard-response","350","120908","0.0-350.0","3LEIZ60CDKLQC6BE2503O2TQLDQ9ZT","A3TZ6KG6SP9RDT","39KMGHJ4RZW9S7JH7DZG09TNV4R00C","","","<img src=""img/flower2.png"" style=""width:200px;border:14px solid red;"">","null","","","","","",""
"7.600000008940697","","image-keyboard-response","351","120918","0.0-351.0","3LEIZ60CDKLQC6BE2503O2TQLDQ9ZT","A3TZ6KG6SP9RDT","39KMGHJ4RZW9S7JH7DZG09TNV4R00C","","","img/flower6.png","75","9","2","1","1","0.7,0.2,0,0.7,0,0.2,0.2,0,0.7",""
"null","","html-keyboard-response","352","121223","0.0-352.0","3LEIZ60CDKLQC6BE2503O2TQLDQ9ZT","A3TZ6KG6SP9RDT","39KMGHJ4RZW9S7JH7DZG09TNV4R00C","","","<img src=""img/flower6.png"" style=""width:200px; border:14px solid green;"">","null","","","","","",""
"85.5","","image-keyboard-response","353","121310","0.0-353.0","3LEIZ60CDKLQC6BE2503O2TQLDQ9ZT","A3TZ6KG6SP9RDT","39KMGHJ4RZW9S7JH7DZG09TNV4R00C","","","img/flower6.png","74","87.09999999403954","1","1","1","0.7,0.2,0,0.7,0,0.2,0.2,0,0.7",""
"null","","html-keyboard-response","354","121614","0.0-354.0","3LEIZ60CDKLQC6BE2503O2TQLDQ9ZT","A3TZ6KG6SP9RDT","39KMGHJ4RZW9S7JH7DZG09TNV4R00C","","","<img src=""img/flower6.png"" style=""width:200px; border:14px solid green;"">","null","","","","","",""
"165.90000000596046","","image-keyboard-response","355","121782","0.0-355.0","3LEIZ60CDKLQC6BE2503O2TQLDQ9ZT","A3TZ6KG6SP9RDT","39KMGHJ4RZW9S7JH7DZG09TNV4R00C","","","img/flower4.png","75","167.79999999701977","2","0","2","0.7,0.2,0,0.7,0,0.2,0.2,0,0.7",""
"null","","html-keyboard-response","356","122093","0.0-356.0","3LEIZ60CDKLQC6BE2503O2TQLDQ9ZT","A3TZ6KG6SP9RDT","39KMGHJ4RZW9S7JH7DZG09TNV4R00C","","","<img src=""img/flower4.png"" style=""width:200px;border:14px solid red;"">","null","","","","","",""
"160.29999999701977","","image-keyboard-response","357","122255","0.0-357.0","3LEIZ60CDKLQC6BE2503O2TQLDQ9ZT","A3TZ6KG6SP9RDT","39KMGHJ4RZW9S7JH7DZG09TNV4R00C","","","img/flower4.png","75","161.70000000298023","2","0","2","0.7,0.2,0,0.7,0,0.2,0.2,0,0.7",""
"null","","html-keyboard-response","358","122557","0.0-358.0","3LEIZ60CDKLQC6BE2503O2TQLDQ9ZT","A3TZ6KG6SP9RDT","39KMGHJ4RZW9S7JH7DZG09TNV4R00C","","","<img src=""img/flower4.png"" style=""width:200px;border:14px solid red;"">","null","","","","","",""
"146.29999999701977","","image-keyboard-response","359","122705","0.0-359.0","3LEIZ60CDKLQC6BE2503O2TQLDQ9ZT","A3TZ6KG6SP9RDT","39KMGHJ4RZW9S7JH7DZG09TNV4R00C","","","img/flower2.png","75","147.80000001192093","2","0","3","0.7,0.2,0,0.7,0,0.2,0.2,0,0.7",""
"null","","html-keyboard-response","360","123013","0.0-360.0","3LEIZ60CDKLQC6BE2503O2TQLDQ9ZT","A3TZ6KG6SP9RDT","39KMGHJ4RZW9S7JH7DZG09TNV4R00C","","","<img src=""img/flower2.png"" style=""width:200px;border:14px solid red;"">","null","","","","","",""
"109.70000000298023","","image-keyboard-response","361","123124","0.0-361.0","3LEIZ60CDKLQC6BE2503O2TQLDQ9ZT","A3TZ6KG6SP9RDT","39KMGHJ4RZW9S7JH7DZG09TNV4R00C","","","img/flower6.png","75","111.30000001192093","2","1","1","0.7,0.2,0,0.7,0,0.2,0.2,0,0.7",""
"null","","html-keyboard-response","362","123437","0.0-362.0","3LEIZ60CDKLQC6BE2503O2TQLDQ9ZT","A3TZ6KG6SP9RDT","39KMGHJ4RZW9S7JH7DZG09TNV4R00C","","","<img src=""img/flower6.png"" style=""width:200px; border:14px solid green;"">","null","","","","","",""
"61.900000005960464","","image-keyboard-response","363","123500","0.0-363.0","3LEIZ60CDKLQC6BE2503O2TQLDQ9ZT","A3TZ6KG6SP9RDT","39KMGHJ4RZW9S7JH7DZG09TNV4R00C","","","img/flower4.png","74","63.599999994039536","1","1","2","0.7,0.2,0,0.7,0,0.2,0.2,0,0.7",""
"null","","html-keyboard-response","364","123807","0.0-364.0","3LEIZ60CDKLQC6BE2503O2TQLDQ9ZT","A3TZ6KG6SP9RDT","39KMGHJ4RZW9S7JH7DZG09TNV4R00C","","","<img src=""img/flower4.png"" style=""width:200px; border:14px solid green;"">","null","","","","","",""
"139.8999999910593","","image-keyboard-response","365","123950","0.0-365.0","3LEIZ60CDKLQC6BE2503O2TQLDQ9ZT","A3TZ6KG6SP9RDT","39KMGHJ4RZW9S7JH7DZG09TNV4R00C","","","img/flower6.png","75","142.5","2","0","1","0.7,0.2,0,0.7,0,0.2,0.2,0,0.7",""
"null","","html-keyboard-response","366","124261","0.0-366.0","3LEIZ60CDKLQC6BE2503O2TQLDQ9ZT","A3TZ6KG6SP9RDT","39KMGHJ4RZW9S7JH7DZG09TNV4R00C","","","<img src=""img/flower6.png"" style=""width:200px;border:14px solid red;"">","null","","","","","",""
"160.59999999403954","","image-keyboard-response","367","124424","0.0-367.0","3LEIZ60CDKLQC6BE2503O2TQLDQ9ZT","A3TZ6KG6SP9RDT","39KMGHJ4RZW9S7JH7DZG09TNV4R00C","","","img/flower4.png","74","162.40000000596046","1","0","2","0.7,0.2,0,0.7,0,0.2,0.2,0,0.7",""
"null","","html-keyboard-response","368","124727","0.0-368.0","3LEIZ60CDKLQC6BE2503O2TQLDQ9ZT","A3TZ6KG6SP9RDT","39KMGHJ4RZW9S7JH7DZG09TNV4R00C","","","<img src=""img/flower4.png"" style=""width:200px;border:14px solid red;"">","null","","","","","",""
"23.5","","image-keyboard-response","369","124752","0.0-369.0","3LEIZ60CDKLQC6BE2503O2TQLDQ9ZT","A3TZ6KG6SP9RDT","39KMGHJ4RZW9S7JH7DZG09TNV4R00C","","","img/flower6.png","76","25","3","0","1","0.7,0.2,0,0.7,0,0.2,0.2,0,0.7",""
"null","","html-keyboard-response","370","125070","0.0-370.0","3LEIZ60CDKLQC6BE2503O2TQLDQ9ZT","A3TZ6KG6SP9RDT","39KMGHJ4RZW9S7JH7DZG09TNV4R00C","","","<img src=""img/flower6.png"" style=""width:200px;border:14px solid red;"">","null","","","","","",""
"114.09999999403954","","image-keyboard-response","371","125186","0.0-371.0","3LEIZ60CDKLQC6BE2503O2TQLDQ9ZT","A3TZ6KG6SP9RDT","39KMGHJ4RZW9S7JH7DZG09TNV4R00C","","","img/flower6.png","75","115.5","2","0","1","0.7,0.2,0,0.7,0,0.2,0.2,0,0.7",""
"null","","html-keyboard-response","372","125489","0.0-372.0","3LEIZ60CDKLQC6BE2503O2TQLDQ9ZT","A3TZ6KG6SP9RDT","39KMGHJ4RZW9S7JH7DZG09TNV4R00C","","","<img src=""img/flower6.png"" style=""width:200px;border:14px solid red;"">","null","","","","","",""
"92.69999998807907","","image-keyboard-response","373","125584","0.0-373.0","3LEIZ60CDKLQC6BE2503O2TQLDQ9ZT","A3TZ6KG6SP9RDT","39KMGHJ4RZW9S7JH7DZG09TNV4R00C","","","img/flower6.png","74","94.29999999701977","1","0","1","0.7,0.2,0,0.7,0,0.2,0.2,0,0.7",""
"null","","html-keyboard-response","374","125891","0.0-374.0","3LEIZ60CDKLQC6BE2503O2TQLDQ9ZT","A3TZ6KG6SP9RDT","39KMGHJ4RZW9S7JH7DZG09TNV4R00C","","","<img src=""img/flower6.png"" style=""width:200px;border:14px solid red;"">","null","","","","","",""
"216.79999999701977","","image-keyboard-response","375","126110","0.0-375.0","3LEIZ60CDKLQC6BE2503O2TQLDQ9ZT","A3TZ6KG6SP9RDT","39KMGHJ4RZW9S7JH7DZG09TNV4R00C","","","img/flower6.png","74","218.59999999403954","1","1","1","0.7,0.2,0,0.7,0,0.2,0.2,0,0.7",""
"null","","html-keyboard-response","376","126423","0.0-376.0","3LEIZ60CDKLQC6BE2503O2TQLDQ9ZT","A3TZ6KG6SP9RDT","39KMGHJ4RZW9S7JH7DZG09TNV4R00C","","","<img src=""img/flower6.png"" style=""width:200px; border:14px solid green;"">","null","","","","","",""
"63.79999999701977","","image-keyboard-response","377","126489","0.0-377.0","3LEIZ60CDKLQC6BE2503O2TQLDQ9ZT","A3TZ6KG6SP9RDT","39KMGHJ4RZW9S7JH7DZG09TNV4R00C","","","img/flower2.png","76","65.29999999701977","3","1","3","0.7,0.2,0,0.7,0,0.2,0.2,0,0.7",""
"null","","html-keyboard-response","378","126797","0.0-378.0","3LEIZ60CDKLQC6BE2503O2TQLDQ9ZT","A3TZ6KG6SP9RDT","39KMGHJ4RZW9S7JH7DZG09TNV4R00C","","","<img src=""img/flower2.png"" style=""width:200px; border:14px solid green;"">","null","","","","","",""
"93.70000000298023","","image-keyboard-response","379","126893","0.0-379.0","3LEIZ60CDKLQC6BE2503O2TQLDQ9ZT","A3TZ6KG6SP9RDT","39KMGHJ4RZW9S7JH7DZG09TNV4R00C","","","img/flower6.png","76","95.3999999910593","3","0","1","0.7,0.2,0,0.7,0,0.2,0.2,0,0.7",""
"null","","html-keyboard-response","380","127206","0.0-380.0","3LEIZ60CDKLQC6BE2503O2TQLDQ9ZT","A3TZ6KG6SP9RDT","39KMGHJ4RZW9S7JH7DZG09TNV4R00C","","","<img src=""img/flower6.png"" style=""width:200px;border:14px solid red;"">","null","","","","","",""
"79.6000000089407","","image-keyboard-response","381","127288","0.0-381.0","3LEIZ60CDKLQC6BE2503O2TQLDQ9ZT","A3TZ6KG6SP9RDT","39KMGHJ4RZW9S7JH7DZG09TNV4R00C","","","img/flower4.png","76","81.5","3","0","2","0.7,0.2,0,0.7,0,0.2,0.2,0,0.7",""
"null","","html-keyboard-response","382","127598","0.0-382.0","3LEIZ60CDKLQC6BE2503O2TQLDQ9ZT","A3TZ6KG6SP9RDT","39KMGHJ4RZW9S7JH7DZG09TNV4R00C","","","<img src=""img/flower4.png"" style=""width:200px;border:14px solid red;"">","null","","","","","",""
"138.8999999910593","","image-keyboard-response","383","127740","0.0-383.0","3LEIZ60CDKLQC6BE2503O2TQLDQ9ZT","A3TZ6KG6SP9RDT","39KMGHJ4RZW9S7JH7DZG09TNV4R00C","","","img/flower2.png","76","140.6000000089407","3","0","3","0.7,0.2,0,0.7,0,0.2,0.2,0,0.7",""
"null","","html-keyboard-response","384","128047","0.0-384.0","3LEIZ60CDKLQC6BE2503O2TQLDQ9ZT","A3TZ6KG6SP9RDT","39KMGHJ4RZW9S7JH7DZG09TNV4R00C","","","<img src=""img/flower2.png"" style=""width:200px;border:14px solid red;"">","null","","","","","",""
"24.700000002980232","","image-keyboard-response","385","128075","0.0-385.0","3LEIZ60CDKLQC6BE2503O2TQLDQ9ZT","A3TZ6KG6SP9RDT","39KMGHJ4RZW9S7JH7DZG09TNV4R00C","","","img/flower2.png","74","26.700000002980232","1","0","3","0.7,0.2,0,0.7,0,0.2,0.2,0,0.7",""
"null","","html-keyboard-response","386","128391","0.0-386.0","3LEIZ60CDKLQC6BE2503O2TQLDQ9ZT","A3TZ6KG6SP9RDT","39KMGHJ4RZW9S7JH7DZG09TNV4R00C","","","<img src=""img/flower2.png"" style=""width:200px;border:14px solid red;"">","null","","","","","",""
"295.79999999701977","","image-keyboard-response","387","128689","0.0-387.0","3LEIZ60CDKLQC6BE2503O2TQLDQ9ZT","A3TZ6KG6SP9RDT","39KMGHJ4RZW9S7JH7DZG09TNV4R00C","","","img/flower4.png","75","297.70000000298023","2","0","2","0.7,0.2,0,0.7,0,0.2,0.2,0,0.7",""
"null","","html-keyboard-response","388","128998","0.0-388.0","3LEIZ60CDKLQC6BE2503O2TQLDQ9ZT","A3TZ6KG6SP9RDT","39KMGHJ4RZW9S7JH7DZG09TNV4R00C","","","<img src=""img/flower4.png"" style=""width:200px;border:14px solid red;"">","null","","","","","",""
"138","","image-keyboard-response","389","129137","0.0-389.0","3LEIZ60CDKLQC6BE2503O2TQLDQ9ZT","A3TZ6KG6SP9RDT","39KMGHJ4RZW9S7JH7DZG09TNV4R00C","","","img/flower4.png","75","139.40000000596046","2","0","2","0.7,0.2,0,0.7,0,0.2,0.2,0,0.7",""
"null","","html-keyboard-response","390","129448","0.0-390.0","3LEIZ60CDKLQC6BE2503O2TQLDQ9ZT","A3TZ6KG6SP9RDT","39KMGHJ4RZW9S7JH7DZG09TNV4R00C","","","<img src=""img/flower4.png"" style=""width:200px;border:14px solid red;"">","null","","","","","",""
"37.70000000298023","","image-keyboard-response","391","129488","0.0-391.0","3LEIZ60CDKLQC6BE2503O2TQLDQ9ZT","A3TZ6KG6SP9RDT","39KMGHJ4RZW9S7JH7DZG09TNV4R00C","","","img/flower4.png","75","39.3999999910593","2","0","2","0.7,0.2,0,0.7,0,0.2,0.2,0,0.7",""
"null","","html-keyboard-response","392","129791","0.0-392.0","3LEIZ60CDKLQC6BE2503O2TQLDQ9ZT","A3TZ6KG6SP9RDT","39KMGHJ4RZW9S7JH7DZG09TNV4R00C","","","<img src=""img/flower4.png"" style=""width:200px;border:14px solid red;"">","null","","","","","",""
"46.400000005960464","","image-keyboard-response","393","129841","0.0-393.0","3LEIZ60CDKLQC6BE2503O2TQLDQ9ZT","A3TZ6KG6SP9RDT","39KMGHJ4RZW9S7JH7DZG09TNV4R00C","","","img/flower4.png","75","48.79999999701977","2","0","2","0.7,0.2,0,0.7,0,0.2,0.2,0,0.7",""
"null","","html-keyboard-response","394","130146","0.0-394.0","3LEIZ60CDKLQC6BE2503O2TQLDQ9ZT","A3TZ6KG6SP9RDT","39KMGHJ4RZW9S7JH7DZG09TNV4R00C","","","<img src=""img/flower4.png"" style=""width:200px;border:14px solid red;"">","null","","","","","",""
"0.10000000894069672","","image-keyboard-response","395","130148","0.0-395.0","3LEIZ60CDKLQC6BE2503O2TQLDQ9ZT","A3TZ6KG6SP9RDT","39KMGHJ4RZW9S7JH7DZG09TNV4R00C","","","img/flower4.png","74","1.2999999970197678","1","1","2","0.7,0.2,0,0.7,0,0.2,0.2,0,0.7",""
"null","","html-keyboard-response","396","130460","0.0-396.0","3LEIZ60CDKLQC6BE2503O2TQLDQ9ZT","A3TZ6KG6SP9RDT","39KMGHJ4RZW9S7JH7DZG09TNV4R00C","","","<img src=""img/flower4.png"" style=""width:200px; border:14px solid green;"">","null","","","","","",""
"130.80000001192093","","image-keyboard-response","397","130593","0.0-397.0","3LEIZ60CDKLQC6BE2503O2TQLDQ9ZT","A3TZ6KG6SP9RDT","39KMGHJ4RZW9S7JH7DZG09TNV4R00C","","","img/flower4.png","76","132.40000000596046","3","0","2","0.7,0.2,0,0.7,0,0.2,0.2,0,0.7",""
"null","","html-keyboard-response","398","130896","0.0-398.0","3LEIZ60CDKLQC6BE2503O2TQLDQ9ZT","A3TZ6KG6SP9RDT","39KMGHJ4RZW9S7JH7DZG09TNV4R00C","","","<img src=""img/flower4.png"" style=""width:200px;border:14px solid red;"">","null","","","","","",""
"50.900000005960464","","image-keyboard-response","399","130949","0.0-399.0","3LEIZ60CDKLQC6BE2503O2TQLDQ9ZT","A3TZ6KG6SP9RDT","39KMGHJ4RZW9S7JH7DZG09TNV4R00C","","","img/flower6.png","74","52.5","1","1","1","0.7,0.2,0,0.7,0,0.2,0.2,0,0.7",""
"null","","html-keyboard-response","400","131258","0.0-400.0","3LEIZ60CDKLQC6BE2503O2TQLDQ9ZT","A3TZ6KG6SP9RDT","39KMGHJ4RZW9S7JH7DZG09TNV4R00C","","","<img src=""img/flower6.png"" style=""width:200px; border:14px solid green;"">","null","","","","","",""
"201.5","","image-keyboard-response","401","131461","0.0-401.0","3LEIZ60CDKLQC6BE2503O2TQLDQ9ZT","A3TZ6KG6SP9RDT","39KMGHJ4RZW9S7JH7DZG09TNV4R00C","","","img/flower2.png","75","203.29999999701977","2","0","3","0.7,0.2,0,0.7,0,0.2,0.2,0,0.7",""
"null","","html-keyboard-response","402","131772","0.0-402.0","3LEIZ60CDKLQC6BE2503O2TQLDQ9ZT","A3TZ6KG6SP9RDT","39KMGHJ4RZW9S7JH7DZG09TNV4R00C","","","<img src=""img/flower2.png"" style=""width:200px;border:14px solid red;"">","null","","","","","",""
"64.90000000596046","","image-keyboard-response","403","131839","0.0-403.0","3LEIZ60CDKLQC6BE2503O2TQLDQ9ZT","A3TZ6KG6SP9RDT","39KMGHJ4RZW9S7JH7DZG09TNV4R00C","","","img/flower4.png","75","66.40000000596046","2","0","2","0.7,0.2,0,0.7,0,0.2,0.2,0,0.7",""
