"rt","url","trial_type","trial_index","time_elapsed","internal_node_id","assignmentID","mturkID","hitID","success","view_history","stimulus","key_press","reactionTime","a","r","s","reward_cond","responses"
"7485.9000000059605","consent.html","external-html","0","7536","0.0-0.0","3907X2AHF1RLYIO9UNNMNHJY5872P7","A6THOSGKI6HQC","39KMGHJ4RZW9S7JH7DZG09TNV4R00C","","","","","","","","","",""
"","","fullscreen","1","10056","0.0-1.0","3907X2AHF1RLYIO9UNNMNHJY5872P7","A6THOSGKI6HQC","39KMGHJ4RZW9S7JH7DZG09TNV4R00C","true","","","","","","","","",""
"23324.100000023842","","instructions","2","33382","0.0-2.0","3907X2AHF1RLYIO9UNNMNHJY5872P7","A6THOSGKI6HQC","39KMGHJ4RZW9S7JH7DZG09TNV4R00C","","[{""page_index"":0,""viewing_time"":5820.100000023842},{""page_index"":1,""viewing_time"":2607.399999976158},{""page_index"":2,""viewing_time"":2808.600000023842},{""page_index"":3,""viewing_time"":5432.5999999940395},{""page_index"":4,""viewing_time"":4854.9000000059605},{""page_index"":5,""viewing_time"":1800}]","","","","","","","",""
"4023.2999999821186","","instructions","3","37406","0.0-3.0","3907X2AHF1RLYIO9UNNMNHJY5872P7","A6THOSGKI6HQC","39KMGHJ4RZW9S7JH7DZG09TNV4R00C","","[{""page_index"":0,""viewing_time"":4023}]","","","","","","","",""
"3131.7000000178814","","image-keyboard-response","4","40540","0.0-4.0","3907X2AHF1RLYIO9UNNMNHJY5872P7","A6THOSGKI6HQC","39KMGHJ4RZW9S7JH7DZG09TNV4R00C","","","img/flower6.png","74","3133.5","1","1","3","",""
"null","","html-keyboard-response","5","40843","0.0-5.0","3907X2AHF1RLYIO9UNNMNHJY5872P7","A6THOSGKI6HQC","39KMGHJ4RZW9S7JH7DZG09TNV4R00C","","","<img src=""img/flower6.png"" style=""width:200px; border:14px solid green;"">","null","","","","","",""
"2159","","image-keyboard-response","6","43003","0.0-6.0","3907X2AHF1RLYIO9UNNMNHJY5872P7","A6THOSGKI6HQC","39KMGHJ4RZW9S7JH7DZG09TNV4R00C","","","img/flower5.png","75","2160","2","0","2","",""
"null","","html-keyboard-response","7","43306","0.0-7.0","3907X2AHF1RLYIO9UNNMNHJY5872P7","A6THOSGKI6HQC","39KMGHJ4RZW9S7JH7DZG09TNV4R00C","","","<img src=""img/flower5.png"" style=""width:200px;border:14px solid red;"">","null","","","","","",""
"1487.800000011921","","image-keyboard-response","8","44795","0.0-8.0","3907X2AHF1RLYIO9UNNMNHJY5872P7","A6THOSGKI6HQC","39KMGHJ4RZW9S7JH7DZG09TNV4R00C","","","img/flower6.png","74","1488.5999999940395","1","0","3","",""
"null","","html-keyboard-response","9","45098","0.0-9.0","3907X2AHF1RLYIO9UNNMNHJY5872P7","A6THOSGKI6HQC","39KMGHJ4RZW9S7JH7DZG09TNV4R00C","","","<img src=""img/flower6.png"" style=""width:200px;border:14px solid red;"">","null","","","","","",""
"1496.699999988079","","image-keyboard-response","10","46596","0.0-10.0","3907X2AHF1RLYIO9UNNMNHJY5872P7","A6THOSGKI6HQC","39KMGHJ4RZW9S7JH7DZG09TNV4R00C","","","img/flower6.png","76","1497.4000000059605","3","1","3","",""
"null","","html-keyboard-response","11","46898","0.0-11.0","3907X2AHF1RLYIO9UNNMNHJY5872P7","A6THOSGKI6HQC","39KMGHJ4RZW9S7JH7DZG09TNV4R00C","","","<img src=""img/flower6.png"" style=""width:200px; border:14px solid green;"">","null","","","","","",""
"1672","","image-keyboard-response","12","48571","0.0-12.0","3907X2AHF1RLYIO9UNNMNHJY5872P7","A6THOSGKI6HQC","39KMGHJ4RZW9S7JH7DZG09TNV4R00C","","","img/flower5.png","74","1673.1000000238419","1","0","2","",""
"null","","html-keyboard-response","13","48874","0.0-13.0","3907X2AHF1RLYIO9UNNMNHJY5872P7","A6THOSGKI6HQC","39KMGHJ4RZW9S7JH7DZG09TNV4R00C","","","<img src=""img/flower5.png"" style=""width:200px;border:14px solid red;"">","null","","","","","",""
"1128.0999999940395","","image-keyboard-response","14","50003","0.0-14.0","3907X2AHF1RLYIO9UNNMNHJY5872P7","A6THOSGKI6HQC","39KMGHJ4RZW9S7JH7DZG09TNV4R00C","","","img/flower6.png","76","1129","3","1","3","",""
"null","","html-keyboard-response","15","50305","0.0-15.0","3907X2AHF1RLYIO9UNNMNHJY5872P7","A6THOSGKI6HQC","39KMGHJ4RZW9S7JH7DZG09TNV4R00C","","","<img src=""img/flower6.png"" style=""width:200px; border:14px solid green;"">","null","","","","","",""
"1160.9000000059605","","image-keyboard-response","16","51467","0.0-16.0","3907X2AHF1RLYIO9UNNMNHJY5872P7","A6THOSGKI6HQC","39KMGHJ4RZW9S7JH7DZG09TNV4R00C","","","img/flower5.png","74","1162","1","0","2","",""
"null","","html-keyboard-response","17","51769","0.0-17.0","3907X2AHF1RLYIO9UNNMNHJY5872P7","A6THOSGKI6HQC","39KMGHJ4RZW9S7JH7DZG09TNV4R00C","","","<img src=""img/flower5.png"" style=""width:200px;border:14px solid red;"">","null","","","","","",""
"897.5999999940395","","image-keyboard-response","18","52667","0.0-18.0","3907X2AHF1RLYIO9UNNMNHJY5872P7","A6THOSGKI6HQC","39KMGHJ4RZW9S7JH7DZG09TNV4R00C","","","img/flower6.png","76","898.5","3","1","3","",""
"null","","html-keyboard-response","19","52970","0.0-19.0","3907X2AHF1RLYIO9UNNMNHJY5872P7","A6THOSGKI6HQC","39KMGHJ4RZW9S7JH7DZG09TNV4R00C","","","<img src=""img/flower6.png"" style=""width:200px; border:14px solid green;"">","null","","","","","",""
"1023.0999999940395","","image-keyboard-response","20","53994","0.0-20.0","3907X2AHF1RLYIO9UNNMNHJY5872P7","A6THOSGKI6HQC","39KMGHJ4RZW9S7JH7DZG09TNV4R00C","","","img/flower6.png","74","1024","1","0","3","",""
"null","","html-keyboard-response","21","54296","0.0-21.0","3907X2AHF1RLYIO9UNNMNHJY5872P7","A6THOSGKI6HQC","39KMGHJ4RZW9S7JH7DZG09TNV4R00C","","","<img src=""img/flower6.png"" style=""width:200px;border:14px solid red;"">","null","","","","","",""
"992","","image-keyboard-response","22","55290","0.0-22.0","3907X2AHF1RLYIO9UNNMNHJY5872P7","A6THOSGKI6HQC","39KMGHJ4RZW9S7JH7DZG09TNV4R00C","","","img/flower5.png","76","993","3","0","2","",""
"null","","html-keyboard-response","23","55592","0.0-23.0","3907X2AHF1RLYIO9UNNMNHJY5872P7","A6THOSGKI6HQC","39KMGHJ4RZW9S7JH7DZG09TNV4R00C","","","<img src=""img/flower5.png"" style=""width:200px;border:14px solid red;"">","null","","","","","",""
"1137","","image-keyboard-response","24","56730","0.0-24.0","3907X2AHF1RLYIO9UNNMNHJY5872P7","A6THOSGKI6HQC","39KMGHJ4RZW9S7JH7DZG09TNV4R00C","","","img/flower4.png","74","1137.699999988079","1","1","1","",""
"null","","html-keyboard-response","25","57032","0.0-25.0","3907X2AHF1RLYIO9UNNMNHJY5872P7","A6THOSGKI6HQC","39KMGHJ4RZW9S7JH7DZG09TNV4R00C","","","<img src=""img/flower4.png"" style=""width:200px; border:14px solid green;"">","null","","","","","",""
"904.8000000119209","","image-keyboard-response","26","57938","0.0-26.0","3907X2AHF1RLYIO9UNNMNHJY5872P7","A6THOSGKI6HQC","39KMGHJ4RZW9S7JH7DZG09TNV4R00C","","","img/flower6.png","76","905.5999999940395","3","0","3","",""
"null","","html-keyboard-response","27","58241","0.0-27.0","3907X2AHF1RLYIO9UNNMNHJY5872P7","A6THOSGKI6HQC","39KMGHJ4RZW9S7JH7DZG09TNV4R00C","","","<img src=""img/flower6.png"" style=""width:200px;border:14px solid red;"">","null","","","","","",""
"1120.300000011921","","image-keyboard-response","28","59362","0.0-28.0","3907X2AHF1RLYIO9UNNMNHJY5872P7","A6THOSGKI6HQC","39KMGHJ4RZW9S7JH7DZG09TNV4R00C","","","img/flower6.png","75","1121.0999999940395","2","0","3","",""
"null","","html-keyboard-response","29","59664","0.0-29.0","3907X2AHF1RLYIO9UNNMNHJY5872P7","A6THOSGKI6HQC","39KMGHJ4RZW9S7JH7DZG09TNV4R00C","","","<img src=""img/flower6.png"" style=""width:200px;border:14px solid red;"">","null","","","","","",""
"1153","","image-keyboard-response","30","60818","0.0-30.0","3907X2AHF1RLYIO9UNNMNHJY5872P7","A6THOSGKI6HQC","39KMGHJ4RZW9S7JH7DZG09TNV4R00C","","","img/flower4.png","75","1153.9000000059605","2","0","1","",""
"null","","html-keyboard-response","31","61121","0.0-31.0","3907X2AHF1RLYIO9UNNMNHJY5872P7","A6THOSGKI6HQC","39KMGHJ4RZW9S7JH7DZG09TNV4R00C","","","<img src=""img/flower4.png"" style=""width:200px;border:14px solid red;"">","null","","","","","",""
"1511.5","","image-keyboard-response","32","62633","0.0-32.0","3907X2AHF1RLYIO9UNNMNHJY5872P7","A6THOSGKI6HQC","39KMGHJ4RZW9S7JH7DZG09TNV4R00C","","","img/flower5.png","74","1512.300000011921","1","0","2","",""
"null","","html-keyboard-response","33","62935","0.0-33.0","3907X2AHF1RLYIO9UNNMNHJY5872P7","A6THOSGKI6HQC","39KMGHJ4RZW9S7JH7DZG09TNV4R00C","","","<img src=""img/flower5.png"" style=""width:200px;border:14px solid red;"">","null","","","","","",""
"1169.699999988079","","image-keyboard-response","34","64106","0.0-34.0","3907X2AHF1RLYIO9UNNMNHJY5872P7","A6THOSGKI6HQC","39KMGHJ4RZW9S7JH7DZG09TNV4R00C","","","img/flower4.png","75","1170.7000000178814","2","0","1","",""
"null","","html-keyboard-response","35","64409","0.0-35.0","3907X2AHF1RLYIO9UNNMNHJY5872P7","A6THOSGKI6HQC","39KMGHJ4RZW9S7JH7DZG09TNV4R00C","","","<img src=""img/flower4.png"" style=""width:200px;border:14px solid red;"">","null","","","","","",""
"1399.800000011921","","image-keyboard-response","36","65810","0.0-36.0","3907X2AHF1RLYIO9UNNMNHJY5872P7","A6THOSGKI6HQC","39KMGHJ4RZW9S7JH7DZG09TNV4R00C","","","img/flower4.png","76","1400.5999999940395","3","0","1","",""
"null","","html-keyboard-response","37","66112","0.0-37.0","3907X2AHF1RLYIO9UNNMNHJY5872P7","A6THOSGKI6HQC","39KMGHJ4RZW9S7JH7DZG09TNV4R00C","","","<img src=""img/flower4.png"" style=""width:200px;border:14px solid red;"">","null","","","","","",""
"816.0999999940395","","image-keyboard-response","38","66929","0.0-38.0","3907X2AHF1RLYIO9UNNMNHJY5872P7","A6THOSGKI6HQC","39KMGHJ4RZW9S7JH7DZG09TNV4R00C","","","img/flower4.png","76","816.8000000119209","3","1","1","",""
"null","","html-keyboard-response","39","67232","0.0-39.0","3907X2AHF1RLYIO9UNNMNHJY5872P7","A6THOSGKI6HQC","39KMGHJ4RZW9S7JH7DZG09TNV4R00C","","","<img src=""img/flower4.png"" style=""width:200px; border:14px solid green;"">","null","","","","","",""
"1473","","image-keyboard-response","40","68706","0.0-40.0","3907X2AHF1RLYIO9UNNMNHJY5872P7","A6THOSGKI6HQC","39KMGHJ4RZW9S7JH7DZG09TNV4R00C","","","img/flower5.png","75","1473.5999999940395","2","1","2","",""
"null","","html-keyboard-response","41","69008","0.0-41.0","3907X2AHF1RLYIO9UNNMNHJY5872P7","A6THOSGKI6HQC","39KMGHJ4RZW9S7JH7DZG09TNV4R00C","","","<img src=""img/flower5.png"" style=""width:200px; border:14px solid green;"">","null","","","","","",""
"1368.800000011921","","image-keyboard-response","42","70378","0.0-42.0","3907X2AHF1RLYIO9UNNMNHJY5872P7","A6THOSGKI6HQC","39KMGHJ4RZW9S7JH7DZG09TNV4R00C","","","img/flower6.png","75","1369.7000000178814","2","0","3","",""
"null","","html-keyboard-response","43","70681","0.0-43.0","3907X2AHF1RLYIO9UNNMNHJY5872P7","A6THOSGKI6HQC","39KMGHJ4RZW9S7JH7DZG09TNV4R00C","","","<img src=""img/flower6.png"" style=""width:200px;border:14px solid red;"">","null","","","","","",""
"1128.2999999821186","","image-keyboard-response","44","71810","0.0-44.0","3907X2AHF1RLYIO9UNNMNHJY5872P7","A6THOSGKI6HQC","39KMGHJ4RZW9S7JH7DZG09TNV4R00C","","","img/flower4.png","74","1129.2000000178814","1","1","1","",""
"null","","html-keyboard-response","45","72112","0.0-45.0","3907X2AHF1RLYIO9UNNMNHJY5872P7","A6THOSGKI6HQC","39KMGHJ4RZW9S7JH7DZG09TNV4R00C","","","<img src=""img/flower4.png"" style=""width:200px; border:14px solid green;"">","null","","","","","",""
"1377.199999988079","","image-keyboard-response","46","73491","0.0-46.0","3907X2AHF1RLYIO9UNNMNHJY5872P7","A6THOSGKI6HQC","39KMGHJ4RZW9S7JH7DZG09TNV4R00C","","","img/flower5.png","74","1378","1","1","2","",""
"null","","html-keyboard-response","47","73793","0.0-47.0","3907X2AHF1RLYIO9UNNMNHJY5872P7","A6THOSGKI6HQC","39KMGHJ4RZW9S7JH7DZG09TNV4R00C","","","<img src=""img/flower5.png"" style=""width:200px; border:14px solid green;"">","null","","","","","",""
"503.60000002384186","","image-keyboard-response","48","74297","0.0-48.0","3907X2AHF1RLYIO9UNNMNHJY5872P7","A6THOSGKI6HQC","39KMGHJ4RZW9S7JH7DZG09TNV4R00C","","","img/flower4.png","75","504.30000001192093","2","0","1","",""
"null","","html-keyboard-response","49","74600","0.0-49.0","3907X2AHF1RLYIO9UNNMNHJY5872P7","A6THOSGKI6HQC","39KMGHJ4RZW9S7JH7DZG09TNV4R00C","","","<img src=""img/flower4.png"" style=""width:200px;border:14px solid red;"">","null","","","","","",""
"600.8000000119209","","image-keyboard-response","50","75201","0.0-50.0","3907X2AHF1RLYIO9UNNMNHJY5872P7","A6THOSGKI6HQC","39KMGHJ4RZW9S7JH7DZG09TNV4R00C","","","img/flower4.png","74","601.5999999940395","1","1","1","",""
"null","","html-keyboard-response","51","75504","0.0-51.0","3907X2AHF1RLYIO9UNNMNHJY5872P7","A6THOSGKI6HQC","39KMGHJ4RZW9S7JH7DZG09TNV4R00C","","","<img src=""img/flower4.png"" style=""width:200px; border:14px solid green;"">","null","","","","","",""
"640.2999999821186","","image-keyboard-response","52","76146","0.0-52.0","3907X2AHF1RLYIO9UNNMNHJY5872P7","A6THOSGKI6HQC","39KMGHJ4RZW9S7JH7DZG09TNV4R00C","","","img/flower5.png","76","641.1000000238419","3","0","2","",""
"null","","html-keyboard-response","53","76448","0.0-53.0","3907X2AHF1RLYIO9UNNMNHJY5872P7","A6THOSGKI6HQC","39KMGHJ4RZW9S7JH7DZG09TNV4R00C","","","<img src=""img/flower5.png"" style=""width:200px;border:14px solid red;"">","null","","","","","",""
"984.5999999940395","","image-keyboard-response","54","77434","0.0-54.0","3907X2AHF1RLYIO9UNNMNHJY5872P7","A6THOSGKI6HQC","39KMGHJ4RZW9S7JH7DZG09TNV4R00C","","","img/flower6.png","75","985.5","2","0","3","",""
"null","","html-keyboard-response","55","77737","0.0-55.0","3907X2AHF1RLYIO9UNNMNHJY5872P7","A6THOSGKI6HQC","39KMGHJ4RZW9S7JH7DZG09TNV4R00C","","","<img src=""img/flower6.png"" style=""width:200px;border:14px solid red;"">","null","","","","","",""
"719.7999999821186","","image-keyboard-response","56","78457","0.0-56.0","3907X2AHF1RLYIO9UNNMNHJY5872P7","A6THOSGKI6HQC","39KMGHJ4RZW9S7JH7DZG09TNV4R00C","","","img/flower5.png","74","720.5999999940395","1","0","2","",""
"null","","html-keyboard-response","57","78759","0.0-57.0","3907X2AHF1RLYIO9UNNMNHJY5872P7","A6THOSGKI6HQC","39KMGHJ4RZW9S7JH7DZG09TNV4R00C","","","<img src=""img/flower5.png"" style=""width:200px;border:14px solid red;"">","null","","","","","",""
"865.1000000238419","","image-keyboard-response","58","79625","0.0-58.0","3907X2AHF1RLYIO9UNNMNHJY5872P7","A6THOSGKI6HQC","39KMGHJ4RZW9S7JH7DZG09TNV4R00C","","","img/flower5.png","76","865.8000000119209","3","1","2","",""
"null","","html-keyboard-response","59","79928","0.0-59.0","3907X2AHF1RLYIO9UNNMNHJY5872P7","A6THOSGKI6HQC","39KMGHJ4RZW9S7JH7DZG09TNV4R00C","","","<img src=""img/flower5.png"" style=""width:200px; border:14px solid green;"">","null","","","","","",""
"992.6000000238419","","image-keyboard-response","60","80921","0.0-60.0","3907X2AHF1RLYIO9UNNMNHJY5872P7","A6THOSGKI6HQC","39KMGHJ4RZW9S7JH7DZG09TNV4R00C","","","img/flower4.png","75","993.3000000119209","2","0","1","",""
"null","","html-keyboard-response","61","81224","0.0-61.0","3907X2AHF1RLYIO9UNNMNHJY5872P7","A6THOSGKI6HQC","39KMGHJ4RZW9S7JH7DZG09TNV4R00C","","","<img src=""img/flower4.png"" style=""width:200px;border:14px solid red;"">","null","","","","","",""
"992.6999999880791","","image-keyboard-response","62","82217","0.0-62.0","3907X2AHF1RLYIO9UNNMNHJY5872P7","A6THOSGKI6HQC","39KMGHJ4RZW9S7JH7DZG09TNV4R00C","","","img/flower4.png","74","993.5","1","1","1","",""
"null","","html-keyboard-response","63","82519","0.0-63.0","3907X2AHF1RLYIO9UNNMNHJY5872P7","A6THOSGKI6HQC","39KMGHJ4RZW9S7JH7DZG09TNV4R00C","","","<img src=""img/flower4.png"" style=""width:200px; border:14px solid green;"">","null","","","","","",""
"11467.40000000596","","instructions","64","93987","0.0-64.0","3907X2AHF1RLYIO9UNNMNHJY5872P7","A6THOSGKI6HQC","39KMGHJ4RZW9S7JH7DZG09TNV4R00C","","[{""page_index"":0,""viewing_time"":3372.2000000178814},{""page_index"":1,""viewing_time"":8094.899999976158}]","","","","","","","",""
"2100.7999999821186","","image-keyboard-response","65","96089","0.0-65.0","3907X2AHF1RLYIO9UNNMNHJY5872P7","A6THOSGKI6HQC","39KMGHJ4RZW9S7JH7DZG09TNV4R00C","","","img/flower6.png","75","2101.9000000059605","2","0","3","",""
"null","","html-keyboard-response","66","96392","0.0-66.0","3907X2AHF1RLYIO9UNNMNHJY5872P7","A6THOSGKI6HQC","39KMGHJ4RZW9S7JH7DZG09TNV4R00C","","","<img src=""img/flower6.png"" style=""width:200px;border:14px solid red;"">","null","","","","","",""
"1440.4000000059605","","image-keyboard-response","67","97833","0.0-67.0","3907X2AHF1RLYIO9UNNMNHJY5872P7","A6THOSGKI6HQC","39KMGHJ4RZW9S7JH7DZG09TNV4R00C","","","img/flower6.png","75","1441.0999999940395","2","0","3","",""
"null","","html-keyboard-response","68","98135","0.0-68.0","3907X2AHF1RLYIO9UNNMNHJY5872P7","A6THOSGKI6HQC","39KMGHJ4RZW9S7JH7DZG09TNV4R00C","","","<img src=""img/flower6.png"" style=""width:200px;border:14px solid red;"">","null","","","","","",""
"3728.699999988079","","image-keyboard-response","69","101865","0.0-69.0","3907X2AHF1RLYIO9UNNMNHJY5872P7","A6THOSGKI6HQC","39KMGHJ4RZW9S7JH7DZG09TNV4R00C","","","img/flower5.png","74","3729.5","1","0","2","",""
"null","","html-keyboard-response","70","102167","0.0-70.0","3907X2AHF1RLYIO9UNNMNHJY5872P7","A6THOSGKI6HQC","39KMGHJ4RZW9S7JH7DZG09TNV4R00C","","","<img src=""img/flower5.png"" style=""width:200px;border:14px solid red;"">","null","","","","","",""
"1513.2000000178814","","image-keyboard-response","71","103681","0.0-71.0","3907X2AHF1RLYIO9UNNMNHJY5872P7","A6THOSGKI6HQC","39KMGHJ4RZW9S7JH7DZG09TNV4R00C","","","img/flower6.png","75","1513.9000000059605","2","0","3","",""
"null","","html-keyboard-response","72","103983","0.0-72.0","3907X2AHF1RLYIO9UNNMNHJY5872P7","A6THOSGKI6HQC","39KMGHJ4RZW9S7JH7DZG09TNV4R00C","","","<img src=""img/flower6.png"" style=""width:200px;border:14px solid red;"">","null","","","","","",""
"1248.0999999940395","","image-keyboard-response","73","105233","0.0-73.0","3907X2AHF1RLYIO9UNNMNHJY5872P7","A6THOSGKI6HQC","39KMGHJ4RZW9S7JH7DZG09TNV4R00C","","","img/flower6.png","76","1249","3","1","3","",""
"null","","html-keyboard-response","74","105535","0.0-74.0","3907X2AHF1RLYIO9UNNMNHJY5872P7","A6THOSGKI6HQC","39KMGHJ4RZW9S7JH7DZG09TNV4R00C","","","<img src=""img/flower6.png"" style=""width:200px; border:14px solid green;"">","null","","","","","",""
"2329.800000011921","","image-keyboard-response","75","107866","0.0-75.0","3907X2AHF1RLYIO9UNNMNHJY5872P7","A6THOSGKI6HQC","39KMGHJ4RZW9S7JH7DZG09TNV4R00C","","","img/flower4.png","75","2330.699999988079","2","1","1","",""
"null","","html-keyboard-response","76","108168","0.0-76.0","3907X2AHF1RLYIO9UNNMNHJY5872P7","A6THOSGKI6HQC","39KMGHJ4RZW9S7JH7DZG09TNV4R00C","","","<img src=""img/flower4.png"" style=""width:200px; border:14px solid green;"">","null","","","","","",""
"1320","","image-keyboard-response","77","109489","0.0-77.0","3907X2AHF1RLYIO9UNNMNHJY5872P7","A6THOSGKI6HQC","39KMGHJ4RZW9S7JH7DZG09TNV4R00C","","","img/flower5.png","76","1320.800000011921","3","1","2","",""
"null","","html-keyboard-response","78","109791","0.0-78.0","3907X2AHF1RLYIO9UNNMNHJY5872P7","A6THOSGKI6HQC","39KMGHJ4RZW9S7JH7DZG09TNV4R00C","","","<img src=""img/flower5.png"" style=""width:200px; border:14px solid green;"">","null","","","","","",""
"2192.5999999940395","","image-keyboard-response","79","111985","0.0-79.0","3907X2AHF1RLYIO9UNNMNHJY5872P7","A6THOSGKI6HQC","39KMGHJ4RZW9S7JH7DZG09TNV4R00C","","","img/flower5.png","75","2193.4000000059605","2","0","2","",""
"null","","html-keyboard-response","80","112288","0.0-80.0","3907X2AHF1RLYIO9UNNMNHJY5872P7","A6THOSGKI6HQC","39KMGHJ4RZW9S7JH7DZG09TNV4R00C","","","<img src=""img/flower5.png"" style=""width:200px;border:14px solid red;"">","null","","","","","",""
"1144.9000000059605","","image-keyboard-response","81","113433","0.0-81.0","3907X2AHF1RLYIO9UNNMNHJY5872P7","A6THOSGKI6HQC","39KMGHJ4RZW9S7JH7DZG09TNV4R00C","","","img/flower5.png","74","1145.7999999821186","1","1","2","",""
"null","","html-keyboard-response","82","113736","0.0-82.0","3907X2AHF1RLYIO9UNNMNHJY5872P7","A6THOSGKI6HQC","39KMGHJ4RZW9S7JH7DZG09TNV4R00C","","","<img src=""img/flower5.png"" style=""width:200px; border:14px solid green;"">","null","","","","","",""
"1536.5","","image-keyboard-response","83","115274","0.0-83.0","3907X2AHF1RLYIO9UNNMNHJY5872P7","A6THOSGKI6HQC","39KMGHJ4RZW9S7JH7DZG09TNV4R00C","","","img/flower4.png","75","1537.199999988079","2","0","1","",""
"null","","html-keyboard-response","84","115577","0.0-84.0","3907X2AHF1RLYIO9UNNMNHJY5872P7","A6THOSGKI6HQC","39KMGHJ4RZW9S7JH7DZG09TNV4R00C","","","<img src=""img/flower4.png"" style=""width:200px;border:14px solid red;"">","null","","","","","",""
"1456.0999999940395","","image-keyboard-response","85","117034","0.0-85.0","3907X2AHF1RLYIO9UNNMNHJY5872P7","A6THOSGKI6HQC","39KMGHJ4RZW9S7JH7DZG09TNV4R00C","","","img/flower5.png","74","1456.8999999761581","1","0","2","",""
"null","","html-keyboard-response","86","117336","0.0-86.0","3907X2AHF1RLYIO9UNNMNHJY5872P7","A6THOSGKI6HQC","39KMGHJ4RZW9S7JH7DZG09TNV4R00C","","","<img src=""img/flower5.png"" style=""width:200px;border:14px solid red;"">","null","","","","","",""
"1264.5","","image-keyboard-response","87","118602","0.0-87.0","3907X2AHF1RLYIO9UNNMNHJY5872P7","A6THOSGKI6HQC","39KMGHJ4RZW9S7JH7DZG09TNV4R00C","","","img/flower4.png","75","1265.300000011921","2","0","1","",""
"null","","html-keyboard-response","88","118904","0.0-88.0","3907X2AHF1RLYIO9UNNMNHJY5872P7","A6THOSGKI6HQC","39KMGHJ4RZW9S7JH7DZG09TNV4R00C","","","<img src=""img/flower4.png"" style=""width:200px;border:14px solid red;"">","null","","","","","",""
"1328.699999988079","","image-keyboard-response","89","120234","0.0-89.0","3907X2AHF1RLYIO9UNNMNHJY5872P7","A6THOSGKI6HQC","39KMGHJ4RZW9S7JH7DZG09TNV4R00C","","","img/flower5.png","74","1329.7000000178814","1","0","2","",""
"null","","html-keyboard-response","90","120536","0.0-90.0","3907X2AHF1RLYIO9UNNMNHJY5872P7","A6THOSGKI6HQC","39KMGHJ4RZW9S7JH7DZG09TNV4R00C","","","<img src=""img/flower5.png"" style=""width:200px;border:14px solid red;"">","null","","","","","",""
"1144.199999988079","","image-keyboard-response","91","121681","0.0-91.0","3907X2AHF1RLYIO9UNNMNHJY5872P7","A6THOSGKI6HQC","39KMGHJ4RZW9S7JH7DZG09TNV4R00C","","","img/flower4.png","75","1144.9000000059605","2","1","1","",""
"null","","html-keyboard-response","92","121983","0.0-92.0","3907X2AHF1RLYIO9UNNMNHJY5872P7","A6THOSGKI6HQC","39KMGHJ4RZW9S7JH7DZG09TNV4R00C","","","<img src=""img/flower4.png"" style=""width:200px; border:14px solid green;"">","null","","","","","",""
"1233.2000000178814","","image-keyboard-response","93","123217","0.0-93.0","3907X2AHF1RLYIO9UNNMNHJY5872P7","A6THOSGKI6HQC","39KMGHJ4RZW9S7JH7DZG09TNV4R00C","","","img/flower6.png","74","1234","1","1","3","",""
"null","","html-keyboard-response","94","123520","0.0-94.0","3907X2AHF1RLYIO9UNNMNHJY5872P7","A6THOSGKI6HQC","39KMGHJ4RZW9S7JH7DZG09TNV4R00C","","","<img src=""img/flower6.png"" style=""width:200px; border:14px solid green;"">","null","","","","","",""
"1184.8999999761581","","image-keyboard-response","95","124706","0.0-95.0","3907X2AHF1RLYIO9UNNMNHJY5872P7","A6THOSGKI6HQC","39KMGHJ4RZW9S7JH7DZG09TNV4R00C","","","img/flower5.png","75","1185.800000011921","2","1","2","",""
"null","","html-keyboard-response","96","125008","0.0-96.0","3907X2AHF1RLYIO9UNNMNHJY5872P7","A6THOSGKI6HQC","39KMGHJ4RZW9S7JH7DZG09TNV4R00C","","","<img src=""img/flower5.png"" style=""width:200px; border:14px solid green;"">","null","","","","","",""
"1336","","image-keyboard-response","97","126345","0.0-97.0","3907X2AHF1RLYIO9UNNMNHJY5872P7","A6THOSGKI6HQC","39KMGHJ4RZW9S7JH7DZG09TNV4R00C","","","img/flower6.png","74","1336.7000000178814","1","1","3","",""
"null","","html-keyboard-response","98","126648","0.0-98.0","3907X2AHF1RLYIO9UNNMNHJY5872P7","A6THOSGKI6HQC","39KMGHJ4RZW9S7JH7DZG09TNV4R00C","","","<img src=""img/flower6.png"" style=""width:200px; border:14px solid green;"">","null","","","","","",""
"1224.4000000059605","","image-keyboard-response","99","127873","0.0-99.0","3907X2AHF1RLYIO9UNNMNHJY5872P7","A6THOSGKI6HQC","39KMGHJ4RZW9S7JH7DZG09TNV4R00C","","","img/flower4.png","75","1225.300000011921","2","0","1","",""
"null","","html-keyboard-response","100","128175","0.0-100.0","3907X2AHF1RLYIO9UNNMNHJY5872P7","A6THOSGKI6HQC","39KMGHJ4RZW9S7JH7DZG09TNV4R00C","","","<img src=""img/flower4.png"" style=""width:200px;border:14px solid red;"">","null","","","","","",""
"1657.7000000178814","","image-keyboard-response","101","129834","0.0-101.0","3907X2AHF1RLYIO9UNNMNHJY5872P7","A6THOSGKI6HQC","39KMGHJ4RZW9S7JH7DZG09TNV4R00C","","","img/flower6.png","76","1658.5","3","0","3","",""
"null","","html-keyboard-response","102","130136","0.0-102.0","3907X2AHF1RLYIO9UNNMNHJY5872P7","A6THOSGKI6HQC","39KMGHJ4RZW9S7JH7DZG09TNV4R00C","","","<img src=""img/flower6.png"" style=""width:200px;border:14px solid red;"">","null","","","","","",""
"1095.699999988079","","image-keyboard-response","103","131233","0.0-103.0","3907X2AHF1RLYIO9UNNMNHJY5872P7","A6THOSGKI6HQC","39KMGHJ4RZW9S7JH7DZG09TNV4R00C","","","img/flower6.png","74","1096.300000011921","1","1","3","",""
"null","","html-keyboard-response","104","131536","0.0-104.0","3907X2AHF1RLYIO9UNNMNHJY5872P7","A6THOSGKI6HQC","39KMGHJ4RZW9S7JH7DZG09TNV4R00C","","","<img src=""img/flower6.png"" style=""width:200px; border:14px solid green;"">","null","","","","","",""
"1928.5","","image-keyboard-response","105","133466","0.0-105.0","3907X2AHF1RLYIO9UNNMNHJY5872P7","A6THOSGKI6HQC","39KMGHJ4RZW9S7JH7DZG09TNV4R00C","","","img/flower4.png","74","1929.5","1","1","1","",""
"null","","html-keyboard-response","106","133768","0.0-106.0","3907X2AHF1RLYIO9UNNMNHJY5872P7","A6THOSGKI6HQC","39KMGHJ4RZW9S7JH7DZG09TNV4R00C","","","<img src=""img/flower4.png"" style=""width:200px; border:14px solid green;"">","null","","","","","",""
"1280.5","","image-keyboard-response","107","135050","0.0-107.0","3907X2AHF1RLYIO9UNNMNHJY5872P7","A6THOSGKI6HQC","39KMGHJ4RZW9S7JH7DZG09TNV4R00C","","","img/flower6.png","74","1281.4000000059605","1","1","3","",""
"null","","html-keyboard-response","108","135352","0.0-108.0","3907X2AHF1RLYIO9UNNMNHJY5872P7","A6THOSGKI6HQC","39KMGHJ4RZW9S7JH7DZG09TNV4R00C","","","<img src=""img/flower6.png"" style=""width:200px; border:14px solid green;"">","null","","","","","",""
"1113","","image-keyboard-response","109","136466","0.0-109.0","3907X2AHF1RLYIO9UNNMNHJY5872P7","A6THOSGKI6HQC","39KMGHJ4RZW9S7JH7DZG09TNV4R00C","","","img/flower4.png","74","1113.7999999821186","1","0","1","",""
"null","","html-keyboard-response","110","136768","0.0-110.0","3907X2AHF1RLYIO9UNNMNHJY5872P7","A6THOSGKI6HQC","39KMGHJ4RZW9S7JH7DZG09TNV4R00C","","","<img src=""img/flower4.png"" style=""width:200px;border:14px solid red;"">","null","","","","","",""
"1695.2999999821186","","image-keyboard-response","111","138464","0.0-111.0","3907X2AHF1RLYIO9UNNMNHJY5872P7","A6THOSGKI6HQC","39KMGHJ4RZW9S7JH7DZG09TNV4R00C","","","img/flower4.png","74","1696","1","1","1","",""
"null","","html-keyboard-response","112","138767","0.0-112.0","3907X2AHF1RLYIO9UNNMNHJY5872P7","A6THOSGKI6HQC","39KMGHJ4RZW9S7JH7DZG09TNV4R00C","","","<img src=""img/flower4.png"" style=""width:200px; border:14px solid green;"">","null","","","","","",""
"1473.7999999821186","","image-keyboard-response","113","140241","0.0-113.0","3907X2AHF1RLYIO9UNNMNHJY5872P7","A6THOSGKI6HQC","39KMGHJ4RZW9S7JH7DZG09TNV4R00C","","","img/flower5.png","75","1474.4000000059605","2","0","2","",""
"null","","html-keyboard-response","114","140544","0.0-114.0","3907X2AHF1RLYIO9UNNMNHJY5872P7","A6THOSGKI6HQC","39KMGHJ4RZW9S7JH7DZG09TNV4R00C","","","<img src=""img/flower5.png"" style=""width:200px;border:14px solid red;"">","null","","","","","",""
"2487.399999976158","","image-keyboard-response","115","143032","0.0-115.0","3907X2AHF1RLYIO9UNNMNHJY5872P7","A6THOSGKI6HQC","39KMGHJ4RZW9S7JH7DZG09TNV4R00C","","","img/flower4.png","74","2488.2000000178814","1","1","1","",""
"null","","html-keyboard-response","116","143334","0.0-116.0","3907X2AHF1RLYIO9UNNMNHJY5872P7","A6THOSGKI6HQC","39KMGHJ4RZW9S7JH7DZG09TNV4R00C","","","<img src=""img/flower4.png"" style=""width:200px; border:14px solid green;"">","null","","","","","",""
"1370.4000000059605","","image-keyboard-response","117","144706","0.0-117.0","3907X2AHF1RLYIO9UNNMNHJY5872P7","A6THOSGKI6HQC","39KMGHJ4RZW9S7JH7DZG09TNV4R00C","","","img/flower5.png","75","1371.4000000059605","2","1","2","",""
"null","","html-keyboard-response","118","145008","0.0-118.0","3907X2AHF1RLYIO9UNNMNHJY5872P7","A6THOSGKI6HQC","39KMGHJ4RZW9S7JH7DZG09TNV4R00C","","","<img src=""img/flower5.png"" style=""width:200px; border:14px solid green;"">","null","","","","","",""
"1472.199999988079","","image-keyboard-response","119","146481","0.0-119.0","3907X2AHF1RLYIO9UNNMNHJY5872P7","A6THOSGKI6HQC","39KMGHJ4RZW9S7JH7DZG09TNV4R00C","","","img/flower6.png","76","1473.0999999940395","3","1","3","",""
"null","","html-keyboard-response","120","146783","0.0-120.0","3907X2AHF1RLYIO9UNNMNHJY5872P7","A6THOSGKI6HQC","39KMGHJ4RZW9S7JH7DZG09TNV4R00C","","","<img src=""img/flower6.png"" style=""width:200px; border:14px solid green;"">","null","","","","","",""
"145","","image-keyboard-response","121","146929","0.0-121.0","3907X2AHF1RLYIO9UNNMNHJY5872P7","A6THOSGKI6HQC","39KMGHJ4RZW9S7JH7DZG09TNV4R00C","","","img/flower4.png","74","145.7000000178814","1","1","1","",""
"null","","html-keyboard-response","122","147231","0.0-122.0","3907X2AHF1RLYIO9UNNMNHJY5872P7","A6THOSGKI6HQC","39KMGHJ4RZW9S7JH7DZG09TNV4R00C","","","<img src=""img/flower4.png"" style=""width:200px; border:14px solid green;"">","null","","","","","",""
"1377.2000000178814","","image-keyboard-response","123","148609","0.0-123.0","3907X2AHF1RLYIO9UNNMNHJY5872P7","A6THOSGKI6HQC","39KMGHJ4RZW9S7JH7DZG09TNV4R00C","","","img/flower5.png","74","1378.0999999940395","1","1","2","",""
"null","","html-keyboard-response","124","148911","0.0-124.0","3907X2AHF1RLYIO9UNNMNHJY5872P7","A6THOSGKI6HQC","39KMGHJ4RZW9S7JH7DZG09TNV4R00C","","","<img src=""img/flower5.png"" style=""width:200px; border:14px solid green;"">","null","","","","","",""
"2730.399999976158","","instructions","125","151642","0.0-125.0","3907X2AHF1RLYIO9UNNMNHJY5872P7","A6THOSGKI6HQC","39KMGHJ4RZW9S7JH7DZG09TNV4R00C","","[{""page_index"":0,""viewing_time"":2730.0999999940395}]","","","","","","","",""
"3565","","image-keyboard-response","126","155209","0.0-126.0","3907X2AHF1RLYIO9UNNMNHJY5872P7","A6THOSGKI6HQC","39KMGHJ4RZW9S7JH7DZG09TNV4R00C","","","img/flower4.png","74","3566.0999999940395","1","0","2","0.7,0.2,0,0,0.7,0.2,0.2,0,0.7",""
"null","","html-keyboard-response","127","155511","0.0-127.0","3907X2AHF1RLYIO9UNNMNHJY5872P7","A6THOSGKI6HQC","39KMGHJ4RZW9S7JH7DZG09TNV4R00C","","","<img src=""img/flower4.png"" style=""width:200px;border:14px solid red;"">","null","","","","","",""
"1480.0999999940395","","image-keyboard-response","128","156992","0.0-128.0","3907X2AHF1RLYIO9UNNMNHJY5872P7","A6THOSGKI6HQC","39KMGHJ4RZW9S7JH7DZG09TNV4R00C","","","img/flower2.png","74","1480.9000000059605","1","1","1","0.7,0.2,0,0,0.7,0.2,0.2,0,0.7",""
"null","","html-keyboard-response","129","157295","0.0-129.0","3907X2AHF1RLYIO9UNNMNHJY5872P7","A6THOSGKI6HQC","39KMGHJ4RZW9S7JH7DZG09TNV4R00C","","","<img src=""img/flower2.png"" style=""width:200px; border:14px solid green;"">","null","","","","","",""
"1784.800000011921","","image-keyboard-response","130","159081","0.0-130.0","3907X2AHF1RLYIO9UNNMNHJY5872P7","A6THOSGKI6HQC","39KMGHJ4RZW9S7JH7DZG09TNV4R00C","","","img/flower2.png","75","1785.5999999940395","2","0","1","0.7,0.2,0,0,0.7,0.2,0.2,0,0.7",""
"null","","html-keyboard-response","131","159384","0.0-131.0","3907X2AHF1RLYIO9UNNMNHJY5872P7","A6THOSGKI6HQC","39KMGHJ4RZW9S7JH7DZG09TNV4R00C","","","<img src=""img/flower2.png"" style=""width:200px;border:14px solid red;"">","null","","","","","",""
"1224.4000000059605","","image-keyboard-response","132","160609","0.0-132.0","3907X2AHF1RLYIO9UNNMNHJY5872P7","A6THOSGKI6HQC","39KMGHJ4RZW9S7JH7DZG09TNV4R00C","","","img/flower4.png","74","1225.2000000178814","1","0","2","0.7,0.2,0,0,0.7,0.2,0.2,0,0.7",""
"null","","html-keyboard-response","133","160911","0.0-133.0","3907X2AHF1RLYIO9UNNMNHJY5872P7","A6THOSGKI6HQC","39KMGHJ4RZW9S7JH7DZG09TNV4R00C","","","<img src=""img/flower4.png"" style=""width:200px;border:14px solid red;"">","null","","","","","",""
"824.4000000059605","","image-keyboard-response","134","161737","0.0-134.0","3907X2AHF1RLYIO9UNNMNHJY5872P7","A6THOSGKI6HQC","39KMGHJ4RZW9S7JH7DZG09TNV4R00C","","","img/flower2.png","74","825.3999999761581","1","1","1","0.7,0.2,0,0,0.7,0.2,0.2,0,0.7",""
"null","","html-keyboard-response","135","162039","0.0-135.0","3907X2AHF1RLYIO9UNNMNHJY5872P7","A6THOSGKI6HQC","39KMGHJ4RZW9S7JH7DZG09TNV4R00C","","","<img src=""img/flower2.png"" style=""width:200px; border:14px solid green;"">","null","","","","","",""
"791.7000000178814","","image-keyboard-response","136","162832","0.0-136.0","3907X2AHF1RLYIO9UNNMNHJY5872P7","A6THOSGKI6HQC","39KMGHJ4RZW9S7JH7DZG09TNV4R00C","","","img/flower6.png","74","792.5","1","1","3","0.7,0.2,0,0,0.7,0.2,0.2,0,0.7",""
"null","","html-keyboard-response","137","163134","0.0-137.0","3907X2AHF1RLYIO9UNNMNHJY5872P7","A6THOSGKI6HQC","39KMGHJ4RZW9S7JH7DZG09TNV4R00C","","","<img src=""img/flower6.png"" style=""width:200px; border:14px solid green;"">","null","","","","","",""
"840.7000000178814","","image-keyboard-response","138","163976","0.0-138.0","3907X2AHF1RLYIO9UNNMNHJY5872P7","A6THOSGKI6HQC","39KMGHJ4RZW9S7JH7DZG09TNV4R00C","","","img/flower6.png","74","841.5","1","1","3","0.7,0.2,0,0,0.7,0.2,0.2,0,0.7",""
"null","","html-keyboard-response","139","164279","0.0-139.0","3907X2AHF1RLYIO9UNNMNHJY5872P7","A6THOSGKI6HQC","39KMGHJ4RZW9S7JH7DZG09TNV4R00C","","","<img src=""img/flower6.png"" style=""width:200px; border:14px solid green;"">","null","","","","","",""
"2304.0999999940395","","image-keyboard-response","140","166584","0.0-140.0","3907X2AHF1RLYIO9UNNMNHJY5872P7","A6THOSGKI6HQC","39KMGHJ4RZW9S7JH7DZG09TNV4R00C","","","img/flower6.png","76","2304.7999999821186","3","0","3","0.7,0.2,0,0,0.7,0.2,0.2,0,0.7",""
"null","","html-keyboard-response","141","166887","0.0-141.0","3907X2AHF1RLYIO9UNNMNHJY5872P7","A6THOSGKI6HQC","39KMGHJ4RZW9S7JH7DZG09TNV4R00C","","","<img src=""img/flower6.png"" style=""width:200px;border:14px solid red;"">","null","","","","","",""
"4480","","image-keyboard-response","142","171368","0.0-142.0","3907X2AHF1RLYIO9UNNMNHJY5872P7","A6THOSGKI6HQC","39KMGHJ4RZW9S7JH7DZG09TNV4R00C","","","img/flower6.png","75","4481","2","0","3","0.7,0.2,0,0,0.7,0.2,0.2,0,0.7",""
"null","","html-keyboard-response","143","171671","0.0-143.0","3907X2AHF1RLYIO9UNNMNHJY5872P7","A6THOSGKI6HQC","39KMGHJ4RZW9S7JH7DZG09TNV4R00C","","","<img src=""img/flower6.png"" style=""width:200px;border:14px solid red;"">","null","","","","","",""
"1537.5","","image-keyboard-response","144","173209","0.0-144.0","3907X2AHF1RLYIO9UNNMNHJY5872P7","A6THOSGKI6HQC","39KMGHJ4RZW9S7JH7DZG09TNV4R00C","","","img/flower4.png","75","1538.2999999821186","2","1","2","0.7,0.2,0,0,0.7,0.2,0.2,0,0.7",""
"null","","html-keyboard-response","145","173512","0.0-145.0","3907X2AHF1RLYIO9UNNMNHJY5872P7","A6THOSGKI6HQC","39KMGHJ4RZW9S7JH7DZG09TNV4R00C","","","<img src=""img/flower4.png"" style=""width:200px; border:14px solid green;"">","null","","","","","",""
"1415.2999999821186","","image-keyboard-response","146","174928","0.0-146.0","3907X2AHF1RLYIO9UNNMNHJY5872P7","A6THOSGKI6HQC","39KMGHJ4RZW9S7JH7DZG09TNV4R00C","","","img/flower6.png","75","1416.2000000178814","2","0","3","0.7,0.2,0,0,0.7,0.2,0.2,0,0.7",""
"null","","html-keyboard-response","147","175230","0.0-147.0","3907X2AHF1RLYIO9UNNMNHJY5872P7","A6THOSGKI6HQC","39KMGHJ4RZW9S7JH7DZG09TNV4R00C","","","<img src=""img/flower6.png"" style=""width:200px;border:14px solid red;"">","null","","","","","",""
"729.1000000238419","","image-keyboard-response","148","175960","0.0-148.0","3907X2AHF1RLYIO9UNNMNHJY5872P7","A6THOSGKI6HQC","39KMGHJ4RZW9S7JH7DZG09TNV4R00C","","","img/flower6.png","74","729.8000000119209","1","0","3","0.7,0.2,0,0,0.7,0.2,0.2,0,0.7",""
"null","","html-keyboard-response","149","176262","0.0-149.0","3907X2AHF1RLYIO9UNNMNHJY5872P7","A6THOSGKI6HQC","39KMGHJ4RZW9S7JH7DZG09TNV4R00C","","","<img src=""img/flower6.png"" style=""width:200px;border:14px solid red;"">","null","","","","","",""
"864.4000000059605","","image-keyboard-response","150","177128","0.0-150.0","3907X2AHF1RLYIO9UNNMNHJY5872P7","A6THOSGKI6HQC","39KMGHJ4RZW9S7JH7DZG09TNV4R00C","","","img/flower6.png","76","865.1999999880791","3","1","3","0.7,0.2,0,0,0.7,0.2,0.2,0,0.7",""
"null","","html-keyboard-response","151","177430","0.0-151.0","3907X2AHF1RLYIO9UNNMNHJY5872P7","A6THOSGKI6HQC","39KMGHJ4RZW9S7JH7DZG09TNV4R00C","","","<img src=""img/flower6.png"" style=""width:200px; border:14px solid green;"">","null","","","","","",""
"880.9000000059605","","image-keyboard-response","152","178312","0.0-152.0","3907X2AHF1RLYIO9UNNMNHJY5872P7","A6THOSGKI6HQC","39KMGHJ4RZW9S7JH7DZG09TNV4R00C","","","img/flower2.png","76","881.6999999880791","3","0","1","0.7,0.2,0,0,0.7,0.2,0.2,0,0.7",""
"null","","html-keyboard-response","153","178615","0.0-153.0","3907X2AHF1RLYIO9UNNMNHJY5872P7","A6THOSGKI6HQC","39KMGHJ4RZW9S7JH7DZG09TNV4R00C","","","<img src=""img/flower2.png"" style=""width:200px;border:14px solid red;"">","null","","","","","",""
"232.5","","image-keyboard-response","154","178848","0.0-154.0","3907X2AHF1RLYIO9UNNMNHJY5872P7","A6THOSGKI6HQC","39KMGHJ4RZW9S7JH7DZG09TNV4R00C","","","img/flower6.png","74","233.30000001192093","1","0","3","0.7,0.2,0,0,0.7,0.2,0.2,0,0.7",""
"null","","html-keyboard-response","155","179151","0.0-155.0","3907X2AHF1RLYIO9UNNMNHJY5872P7","A6THOSGKI6HQC","39KMGHJ4RZW9S7JH7DZG09TNV4R00C","","","<img src=""img/flower6.png"" style=""width:200px;border:14px solid red;"">","null","","","","","",""
"887.9000000059605","","image-keyboard-response","156","180039","0.0-156.0","3907X2AHF1RLYIO9UNNMNHJY5872P7","A6THOSGKI6HQC","39KMGHJ4RZW9S7JH7DZG09TNV4R00C","","","img/flower4.png","74","888.7999999821186","1","0","2","0.7,0.2,0,0,0.7,0.2,0.2,0,0.7",""
"null","","html-keyboard-response","157","180342","0.0-157.0","3907X2AHF1RLYIO9UNNMNHJY5872P7","A6THOSGKI6HQC","39KMGHJ4RZW9S7JH7DZG09TNV4R00C","","","<img src=""img/flower4.png"" style=""width:200px;border:14px solid red;"">","null","","","","","",""
"776.8000000119209","","image-keyboard-response","158","181120","0.0-158.0","3907X2AHF1RLYIO9UNNMNHJY5872P7","A6THOSGKI6HQC","39KMGHJ4RZW9S7JH7DZG09TNV4R00C","","","img/flower6.png","74","777.5","1","0","3","0.7,0.2,0,0,0.7,0.2,0.2,0,0.7",""
"null","","html-keyboard-response","159","181422","0.0-159.0","3907X2AHF1RLYIO9UNNMNHJY5872P7","A6THOSGKI6HQC","39KMGHJ4RZW9S7JH7DZG09TNV4R00C","","","<img src=""img/flower6.png"" style=""width:200px;border:14px solid red;"">","null","","","","","",""
"793.3000000119209","","image-keyboard-response","160","182216","0.0-160.0","3907X2AHF1RLYIO9UNNMNHJY5872P7","A6THOSGKI6HQC","39KMGHJ4RZW9S7JH7DZG09TNV4R00C","","","img/flower4.png","75","794.2000000178814","2","1","2","0.7,0.2,0,0,0.7,0.2,0.2,0,0.7",""
"null","","html-keyboard-response","161","182518","0.0-161.0","3907X2AHF1RLYIO9UNNMNHJY5872P7","A6THOSGKI6HQC","39KMGHJ4RZW9S7JH7DZG09TNV4R00C","","","<img src=""img/flower4.png"" style=""width:200px; border:14px solid green;"">","null","","","","","",""
"752.5999999940395","","image-keyboard-response","162","183272","0.0-162.0","3907X2AHF1RLYIO9UNNMNHJY5872P7","A6THOSGKI6HQC","39KMGHJ4RZW9S7JH7DZG09TNV4R00C","","","img/flower2.png","74","753.2999999821186","1","1","1","0.7,0.2,0,0,0.7,0.2,0.2,0,0.7",""
"null","","html-keyboard-response","163","183574","0.0-163.0","3907X2AHF1RLYIO9UNNMNHJY5872P7","A6THOSGKI6HQC","39KMGHJ4RZW9S7JH7DZG09TNV4R00C","","","<img src=""img/flower2.png"" style=""width:200px; border:14px solid green;"">","null","","","","","",""
"856.5999999940395","","image-keyboard-response","164","184432","0.0-164.0","3907X2AHF1RLYIO9UNNMNHJY5872P7","A6THOSGKI6HQC","39KMGHJ4RZW9S7JH7DZG09TNV4R00C","","","img/flower2.png","75","857.5","2","0","1","0.7,0.2,0,0,0.7,0.2,0.2,0,0.7",""
"null","","html-keyboard-response","165","184734","0.0-165.0","3907X2AHF1RLYIO9UNNMNHJY5872P7","A6THOSGKI6HQC","39KMGHJ4RZW9S7JH7DZG09TNV4R00C","","","<img src=""img/flower2.png"" style=""width:200px;border:14px solid red;"">","null","","","","","",""
"1208.6000000238419","","image-keyboard-response","166","185943","0.0-166.0","3907X2AHF1RLYIO9UNNMNHJY5872P7","A6THOSGKI6HQC","39KMGHJ4RZW9S7JH7DZG09TNV4R00C","","","img/flower4.png","74","1209.5","1","0","2","0.7,0.2,0,0,0.7,0.2,0.2,0,0.7",""
"null","","html-keyboard-response","167","186246","0.0-167.0","3907X2AHF1RLYIO9UNNMNHJY5872P7","A6THOSGKI6HQC","39KMGHJ4RZW9S7JH7DZG09TNV4R00C","","","<img src=""img/flower4.png"" style=""width:200px;border:14px solid red;"">","null","","","","","",""
"696.8000000119209","","image-keyboard-response","168","186944","0.0-168.0","3907X2AHF1RLYIO9UNNMNHJY5872P7","A6THOSGKI6HQC","39KMGHJ4RZW9S7JH7DZG09TNV4R00C","","","img/flower6.png","75","697.7000000178814","2","0","3","0.7,0.2,0,0,0.7,0.2,0.2,0,0.7",""
"null","","html-keyboard-response","169","187247","0.0-169.0","3907X2AHF1RLYIO9UNNMNHJY5872P7","A6THOSGKI6HQC","39KMGHJ4RZW9S7JH7DZG09TNV4R00C","","","<img src=""img/flower6.png"" style=""width:200px;border:14px solid red;"">","null","","","","","",""
"736.7000000178814","","image-keyboard-response","170","187984","0.0-170.0","3907X2AHF1RLYIO9UNNMNHJY5872P7","A6THOSGKI6HQC","39KMGHJ4RZW9S7JH7DZG09TNV4R00C","","","img/flower4.png","74","737.3999999761581","1","0","2","0.7,0.2,0,0,0.7,0.2,0.2,0,0.7",""
"null","","html-keyboard-response","171","188288","0.0-171.0","3907X2AHF1RLYIO9UNNMNHJY5872P7","A6THOSGKI6HQC","39KMGHJ4RZW9S7JH7DZG09TNV4R00C","","","<img src=""img/flower4.png"" style=""width:200px;border:14px solid red;"">","null","","","","","",""
"599","","image-keyboard-response","172","188888","0.0-172.0","3907X2AHF1RLYIO9UNNMNHJY5872P7","A6THOSGKI6HQC","39KMGHJ4RZW9S7JH7DZG09TNV4R00C","","","img/flower2.png","75","599.7999999821186","2","0","1","0.7,0.2,0,0,0.7,0.2,0.2,0,0.7",""
"null","","html-keyboard-response","173","189190","0.0-173.0","3907X2AHF1RLYIO9UNNMNHJY5872P7","A6THOSGKI6HQC","39KMGHJ4RZW9S7JH7DZG09TNV4R00C","","","<img src=""img/flower2.png"" style=""width:200px;border:14px solid red;"">","null","","","","","",""
"1","","image-keyboard-response","174","189192","0.0-174.0","3907X2AHF1RLYIO9UNNMNHJY5872P7","A6THOSGKI6HQC","39KMGHJ4RZW9S7JH7DZG09TNV4R00C","","","img/flower2.png","76","1.5999999940395355","3","0","1","0.7,0.2,0,0,0.7,0.2,0.2,0,0.7",""
"null","","html-keyboard-response","175","189494","0.0-175.0","3907X2AHF1RLYIO9UNNMNHJY5872P7","A6THOSGKI6HQC","39KMGHJ4RZW9S7JH7DZG09TNV4R00C","","","<img src=""img/flower2.png"" style=""width:200px;border:14px solid red;"">","null","","","","","",""
"295.90000000596046","","image-keyboard-response","176","189791","0.0-176.0","3907X2AHF1RLYIO9UNNMNHJY5872P7","A6THOSGKI6HQC","39KMGHJ4RZW9S7JH7DZG09TNV4R00C","","","img/flower2.png","74","296.80000001192093","1","1","1","0.7,0.2,0,0,0.7,0.2,0.2,0,0.7",""
"null","","html-keyboard-response","177","190094","0.0-177.0","3907X2AHF1RLYIO9UNNMNHJY5872P7","A6THOSGKI6HQC","39KMGHJ4RZW9S7JH7DZG09TNV4R00C","","","<img src=""img/flower2.png"" style=""width:200px; border:14px solid green;"">","null","","","","","",""
"8.599999994039536","","image-keyboard-response","178","190103","0.0-178.0","3907X2AHF1RLYIO9UNNMNHJY5872P7","A6THOSGKI6HQC","39KMGHJ4RZW9S7JH7DZG09TNV4R00C","","","img/flower6.png","76","9.299999982118607","3","1","3","0.7,0.2,0,0,0.7,0.2,0.2,0,0.7",""
"null","","html-keyboard-response","179","190406","0.0-179.0","3907X2AHF1RLYIO9UNNMNHJY5872P7","A6THOSGKI6HQC","39KMGHJ4RZW9S7JH7DZG09TNV4R00C","","","<img src=""img/flower6.png"" style=""width:200px; border:14px solid green;"">","null","","","","","",""
"480.19999998807907","","image-keyboard-response","180","190887","0.0-180.0","3907X2AHF1RLYIO9UNNMNHJY5872P7","A6THOSGKI6HQC","39KMGHJ4RZW9S7JH7DZG09TNV4R00C","","","img/flower6.png","74","481","1","0","3","0.7,0.2,0,0,0.7,0.2,0.2,0,0.7",""
"null","","html-keyboard-response","181","191189","0.0-181.0","3907X2AHF1RLYIO9UNNMNHJY5872P7","A6THOSGKI6HQC","39KMGHJ4RZW9S7JH7DZG09TNV4R00C","","","<img src=""img/flower6.png"" style=""width:200px;border:14px solid red;"">","null","","","","","",""
"442","","image-keyboard-response","182","191632","0.0-182.0","3907X2AHF1RLYIO9UNNMNHJY5872P7","A6THOSGKI6HQC","39KMGHJ4RZW9S7JH7DZG09TNV4R00C","","","img/flower6.png","75","442.90000000596046","2","0","3","0.7,0.2,0,0,0.7,0.2,0.2,0,0.7",""
"null","","html-keyboard-response","183","191934","0.0-183.0","3907X2AHF1RLYIO9UNNMNHJY5872P7","A6THOSGKI6HQC","39KMGHJ4RZW9S7JH7DZG09TNV4R00C","","","<img src=""img/flower6.png"" style=""width:200px;border:14px solid red;"">","null","","","","","",""
"112.59999999403954","","image-keyboard-response","184","192048","0.0-184.0","3907X2AHF1RLYIO9UNNMNHJY5872P7","A6THOSGKI6HQC","39KMGHJ4RZW9S7JH7DZG09TNV4R00C","","","img/flower6.png","76","113.39999997615814","3","0","3","0.7,0.2,0,0,0.7,0.2,0.2,0,0.7",""
"null","","html-keyboard-response","185","192350","0.0-185.0","3907X2AHF1RLYIO9UNNMNHJY5872P7","A6THOSGKI6HQC","39KMGHJ4RZW9S7JH7DZG09TNV4R00C","","","<img src=""img/flower6.png"" style=""width:200px;border:14px solid red;"">","null","","","","","",""
"408.80000001192093","","image-keyboard-response","186","192760","0.0-186.0","3907X2AHF1RLYIO9UNNMNHJY5872P7","A6THOSGKI6HQC","39KMGHJ4RZW9S7JH7DZG09TNV4R00C","","","img/flower6.png","75","409.59999999403954","2","0","3","0.7,0.2,0,0,0.7,0.2,0.2,0,0.7",""
"null","","html-keyboard-response","187","193062","0.0-187.0","3907X2AHF1RLYIO9UNNMNHJY5872P7","A6THOSGKI6HQC","39KMGHJ4RZW9S7JH7DZG09TNV4R00C","","","<img src=""img/flower6.png"" style=""width:200px;border:14px solid red;"">","null","","","","","",""
"97.09999999403954","","image-keyboard-response","188","193160","0.0-188.0","3907X2AHF1RLYIO9UNNMNHJY5872P7","A6THOSGKI6HQC","39KMGHJ4RZW9S7JH7DZG09TNV4R00C","","","img/flower6.png","76","97.90000000596046","3","0","3","0.7,0.2,0,0,0.7,0.2,0.2,0,0.7",""
"null","","html-keyboard-response","189","193463","0.0-189.0","3907X2AHF1RLYIO9UNNMNHJY5872P7","A6THOSGKI6HQC","39KMGHJ4RZW9S7JH7DZG09TNV4R00C","","","<img src=""img/flower6.png"" style=""width:200px;border:14px solid red;"">","null","","","","","",""
"415.19999998807907","","image-keyboard-response","190","193879","0.0-190.0","3907X2AHF1RLYIO9UNNMNHJY5872P7","A6THOSGKI6HQC","39KMGHJ4RZW9S7JH7DZG09TNV4R00C","","","img/flower4.png","74","416","1","0","2","0.7,0.2,0,0,0.7,0.2,0.2,0,0.7",""
"null","","html-keyboard-response","191","194181","0.0-191.0","3907X2AHF1RLYIO9UNNMNHJY5872P7","A6THOSGKI6HQC","39KMGHJ4RZW9S7JH7DZG09TNV4R00C","","","<img src=""img/flower4.png"" style=""width:200px;border:14px solid red;"">","null","","","","","",""
"1153.4000000059605","","image-keyboard-response","192","195335","0.0-192.0","3907X2AHF1RLYIO9UNNMNHJY5872P7","A6THOSGKI6HQC","39KMGHJ4RZW9S7JH7DZG09TNV4R00C","","","img/flower2.png","75","1154.4000000059605","2","0","1","0.7,0.2,0,0,0.7,0.2,0.2,0,0.7",""
"null","","html-keyboard-response","193","195637","0.0-193.0","3907X2AHF1RLYIO9UNNMNHJY5872P7","A6THOSGKI6HQC","39KMGHJ4RZW9S7JH7DZG09TNV4R00C","","","<img src=""img/flower2.png"" style=""width:200px;border:14px solid red;"">","null","","","","","",""
"1017","","image-keyboard-response","194","196655","0.0-194.0","3907X2AHF1RLYIO9UNNMNHJY5872P7","A6THOSGKI6HQC","39KMGHJ4RZW9S7JH7DZG09TNV4R00C","","","img/flower4.png","74","1017.9000000059605","1","0","2","0.7,0.2,0,0,0.7,0.2,0.2,0,0.7",""
"null","","html-keyboard-response","195","196958","0.0-195.0","3907X2AHF1RLYIO9UNNMNHJY5872P7","A6THOSGKI6HQC","39KMGHJ4RZW9S7JH7DZG09TNV4R00C","","","<img src=""img/flower4.png"" style=""width:200px;border:14px solid red;"">","null","","","","","",""
"1256.9000000059605","","image-keyboard-response","196","198216","0.0-196.0","3907X2AHF1RLYIO9UNNMNHJY5872P7","A6THOSGKI6HQC","39KMGHJ4RZW9S7JH7DZG09TNV4R00C","","","img/flower4.png","74","1257.800000011921","1","0","2","0.7,0.2,0,0,0.7,0.2,0.2,0,0.7",""
"null","","html-keyboard-response","197","198518","0.0-197.0","3907X2AHF1RLYIO9UNNMNHJY5872P7","A6THOSGKI6HQC","39KMGHJ4RZW9S7JH7DZG09TNV4R00C","","","<img src=""img/flower4.png"" style=""width:200px;border:14px solid red;"">","null","","","","","",""
"503.90000000596046","","image-keyboard-response","198","199023","0.0-198.0","3907X2AHF1RLYIO9UNNMNHJY5872P7","A6THOSGKI6HQC","39KMGHJ4RZW9S7JH7DZG09TNV4R00C","","","img/flower2.png","75","504.80000001192093","2","0","1","0.7,0.2,0,0,0.7,0.2,0.2,0,0.7",""
"null","","html-keyboard-response","199","199326","0.0-199.0","3907X2AHF1RLYIO9UNNMNHJY5872P7","A6THOSGKI6HQC","39KMGHJ4RZW9S7JH7DZG09TNV4R00C","","","<img src=""img/flower2.png"" style=""width:200px;border:14px solid red;"">","null","","","","","",""
"768.4000000059605","","image-keyboard-response","200","200095","0.0-200.0","3907X2AHF1RLYIO9UNNMNHJY5872P7","A6THOSGKI6HQC","39KMGHJ4RZW9S7JH7DZG09TNV4R00C","","","img/flower6.png","75","769.1999999880791","2","0","3","0.7,0.2,0,0,0.7,0.2,0.2,0,0.7",""
"null","","html-keyboard-response","201","200398","0.0-201.0","3907X2AHF1RLYIO9UNNMNHJY5872P7","A6THOSGKI6HQC","39KMGHJ4RZW9S7JH7DZG09TNV4R00C","","","<img src=""img/flower6.png"" style=""width:200px;border:14px solid red;"">","null","","","","","",""
"672.8000000119209","","image-keyboard-response","202","201072","0.0-202.0","3907X2AHF1RLYIO9UNNMNHJY5872P7","A6THOSGKI6HQC","39KMGHJ4RZW9S7JH7DZG09TNV4R00C","","","img/flower2.png","74","673.7000000178814","1","1","1","0.7,0.2,0,0,0.7,0.2,0.2,0,0.7",""
"null","","html-keyboard-response","203","201374","0.0-203.0","3907X2AHF1RLYIO9UNNMNHJY5872P7","A6THOSGKI6HQC","39KMGHJ4RZW9S7JH7DZG09TNV4R00C","","","<img src=""img/flower2.png"" style=""width:200px; border:14px solid green;"">","null","","","","","",""
"79.59999999403954","","image-keyboard-response","204","201455","0.0-204.0","3907X2AHF1RLYIO9UNNMNHJY5872P7","A6THOSGKI6HQC","39KMGHJ4RZW9S7JH7DZG09TNV4R00C","","","img/flower6.png","75","80.5","2","0","3","0.7,0.2,0,0,0.7,0.2,0.2,0,0.7",""
"null","","html-keyboard-response","205","201757","0.0-205.0","3907X2AHF1RLYIO9UNNMNHJY5872P7","A6THOSGKI6HQC","39KMGHJ4RZW9S7JH7DZG09TNV4R00C","","","<img src=""img/flower6.png"" style=""width:200px;border:14px solid red;"">","null","","","","","",""
"521.6000000238419","","image-keyboard-response","206","202280","0.0-206.0","3907X2AHF1RLYIO9UNNMNHJY5872P7","A6THOSGKI6HQC","39KMGHJ4RZW9S7JH7DZG09TNV4R00C","","","img/flower2.png","74","522.5","1","1","1","0.7,0.2,0,0,0.7,0.2,0.2,0,0.7",""
"null","","html-keyboard-response","207","202582","0.0-207.0","3907X2AHF1RLYIO9UNNMNHJY5872P7","A6THOSGKI6HQC","39KMGHJ4RZW9S7JH7DZG09TNV4R00C","","","<img src=""img/flower2.png"" style=""width:200px; border:14px solid green;"">","null","","","","","",""
"591.9000000059605","","image-keyboard-response","208","203175","0.0-208.0","3907X2AHF1RLYIO9UNNMNHJY5872P7","A6THOSGKI6HQC","39KMGHJ4RZW9S7JH7DZG09TNV4R00C","","","img/flower2.png","75","592.7999999821186","2","1","1","0.7,0.2,0,0,0.7,0.2,0.2,0,0.7",""
"null","","html-keyboard-response","209","203478","0.0-209.0","3907X2AHF1RLYIO9UNNMNHJY5872P7","A6THOSGKI6HQC","39KMGHJ4RZW9S7JH7DZG09TNV4R00C","","","<img src=""img/flower2.png"" style=""width:200px; border:14px solid green;"">","null","","","","","",""
"976.3000000119209","","image-keyboard-response","210","204455","0.0-210.0","3907X2AHF1RLYIO9UNNMNHJY5872P7","A6THOSGKI6HQC","39KMGHJ4RZW9S7JH7DZG09TNV4R00C","","","img/flower4.png","75","977.2000000178814","2","1","2","0.7,0.2,0,0,0.7,0.2,0.2,0,0.7",""
"null","","html-keyboard-response","211","204757","0.0-211.0","3907X2AHF1RLYIO9UNNMNHJY5872P7","A6THOSGKI6HQC","39KMGHJ4RZW9S7JH7DZG09TNV4R00C","","","<img src=""img/flower4.png"" style=""width:200px; border:14px solid green;"">","null","","","","","",""
"1408.7999999821186","","image-keyboard-response","212","206167","0.0-212.0","3907X2AHF1RLYIO9UNNMNHJY5872P7","A6THOSGKI6HQC","39KMGHJ4RZW9S7JH7DZG09TNV4R00C","","","img/flower4.png","75","1409.7000000178814","2","1","2","0.7,0.2,0,0,0.7,0.2,0.2,0,0.7",""
"null","","html-keyboard-response","213","206470","0.0-213.0","3907X2AHF1RLYIO9UNNMNHJY5872P7","A6THOSGKI6HQC","39KMGHJ4RZW9S7JH7DZG09TNV4R00C","","","<img src=""img/flower4.png"" style=""width:200px; border:14px solid green;"">","null","","","","","",""
"8.5","","image-keyboard-response","214","206479","0.0-214.0","3907X2AHF1RLYIO9UNNMNHJY5872P7","A6THOSGKI6HQC","39KMGHJ4RZW9S7JH7DZG09TNV4R00C","","","img/flower2.png","76","9.300000011920929","3","0","1","0.7,0.2,0,0,0.7,0.2,0.2,0,0.7",""
"null","","html-keyboard-response","215","206782","0.0-215.0","3907X2AHF1RLYIO9UNNMNHJY5872P7","A6THOSGKI6HQC","39KMGHJ4RZW9S7JH7DZG09TNV4R00C","","","<img src=""img/flower2.png"" style=""width:200px;border:14px solid red;"">","null","","","","","",""
"752.5","","image-keyboard-response","216","207535","0.0-216.0","3907X2AHF1RLYIO9UNNMNHJY5872P7","A6THOSGKI6HQC","39KMGHJ4RZW9S7JH7DZG09TNV4R00C","","","img/flower4.png","74","753.3000000119209","1","0","2","0.7,0.2,0,0,0.7,0.2,0.2,0,0.7",""
"null","","html-keyboard-response","217","207837","0.0-217.0","3907X2AHF1RLYIO9UNNMNHJY5872P7","A6THOSGKI6HQC","39KMGHJ4RZW9S7JH7DZG09TNV4R00C","","","<img src=""img/flower4.png"" style=""width:200px;border:14px solid red;"">","null","","","","","",""
"249.5","","image-keyboard-response","218","208088","0.0-218.0","3907X2AHF1RLYIO9UNNMNHJY5872P7","A6THOSGKI6HQC","39KMGHJ4RZW9S7JH7DZG09TNV4R00C","","","img/flower4.png","74","250.2000000178814","1","0","2","0.7,0.2,0,0,0.7,0.2,0.2,0,0.7",""
"null","","html-keyboard-response","219","208390","0.0-219.0","3907X2AHF1RLYIO9UNNMNHJY5872P7","A6THOSGKI6HQC","39KMGHJ4RZW9S7JH7DZG09TNV4R00C","","","<img src=""img/flower4.png"" style=""width:200px;border:14px solid red;"">","null","","","","","",""
"80.40000000596046","","image-keyboard-response","220","208472","0.0-220.0","3907X2AHF1RLYIO9UNNMNHJY5872P7","A6THOSGKI6HQC","39KMGHJ4RZW9S7JH7DZG09TNV4R00C","","","img/flower4.png","75","81.30000001192093","2","1","2","0.7,0.2,0,0,0.7,0.2,0.2,0,0.7",""
"null","","html-keyboard-response","221","208774","0.0-221.0","3907X2AHF1RLYIO9UNNMNHJY5872P7","A6THOSGKI6HQC","39KMGHJ4RZW9S7JH7DZG09TNV4R00C","","","<img src=""img/flower4.png"" style=""width:200px; border:14px solid green;"">","null","","","","","",""
"408.7999999821186","","image-keyboard-response","222","209184","0.0-222.0","3907X2AHF1RLYIO9UNNMNHJY5872P7","A6THOSGKI6HQC","39KMGHJ4RZW9S7JH7DZG09TNV4R00C","","","img/flower2.png","76","409.59999999403954","3","0","1","0.7,0.2,0,0,0.7,0.2,0.2,0,0.7",""
"null","","html-keyboard-response","223","209485","0.0-223.0","3907X2AHF1RLYIO9UNNMNHJY5872P7","A6THOSGKI6HQC","39KMGHJ4RZW9S7JH7DZG09TNV4R00C","","","<img src=""img/flower2.png"" style=""width:200px;border:14px solid red;"">","null","","","","","",""
"144.7999999821186","","image-keyboard-response","224","209631","0.0-224.0","3907X2AHF1RLYIO9UNNMNHJY5872P7","A6THOSGKI6HQC","39KMGHJ4RZW9S7JH7DZG09TNV4R00C","","","img/flower6.png","76","145.7000000178814","3","1","3","0.7,0.2,0,0,0.7,0.2,0.2,0,0.7",""
"null","","html-keyboard-response","225","209934","0.0-225.0","3907X2AHF1RLYIO9UNNMNHJY5872P7","A6THOSGKI6HQC","39KMGHJ4RZW9S7JH7DZG09TNV4R00C","","","<img src=""img/flower6.png"" style=""width:200px; border:14px solid green;"">","null","","","","","",""
"632.5999999940395","","image-keyboard-response","226","210567","0.0-226.0","3907X2AHF1RLYIO9UNNMNHJY5872P7","A6THOSGKI6HQC","39KMGHJ4RZW9S7JH7DZG09TNV4R00C","","","img/flower6.png","74","633.4000000059605","1","0","3","0.7,0.2,0,0,0.7,0.2,0.2,0,0.7",""
"null","","html-keyboard-response","227","210869","0.0-227.0","3907X2AHF1RLYIO9UNNMNHJY5872P7","A6THOSGKI6HQC","39KMGHJ4RZW9S7JH7DZG09TNV4R00C","","","<img src=""img/flower6.png"" style=""width:200px;border:14px solid red;"">","null","","","","","",""
"553.5999999940395","","image-keyboard-response","228","211424","0.0-228.0","3907X2AHF1RLYIO9UNNMNHJY5872P7","A6THOSGKI6HQC","39KMGHJ4RZW9S7JH7DZG09TNV4R00C","","","img/flower6.png","74","554.4000000059605","1","0","3","0.7,0.2,0,0,0.7,0.2,0.2,0,0.7",""
"null","","html-keyboard-response","229","211726","0.0-229.0","3907X2AHF1RLYIO9UNNMNHJY5872P7","A6THOSGKI6HQC","39KMGHJ4RZW9S7JH7DZG09TNV4R00C","","","<img src=""img/flower6.png"" style=""width:200px;border:14px solid red;"">","null","","","","","",""
"1592.0999999940395","","image-keyboard-response","230","213319","0.0-230.0","3907X2AHF1RLYIO9UNNMNHJY5872P7","A6THOSGKI6HQC","39KMGHJ4RZW9S7JH7DZG09TNV4R00C","","","img/flower4.png","75","1592.9000000059605","2","0","2","0.7,0.2,0,0,0.7,0.2,0.2,0,0.7",""
"null","","html-keyboard-response","231","213621","0.0-231.0","3907X2AHF1RLYIO9UNNMNHJY5872P7","A6THOSGKI6HQC","39KMGHJ4RZW9S7JH7DZG09TNV4R00C","","","<img src=""img/flower4.png"" style=""width:200px;border:14px solid red;"">","null","","","","","",""
"560.1999999880791","","image-keyboard-response","232","214183","0.0-232.0","3907X2AHF1RLYIO9UNNMNHJY5872P7","A6THOSGKI6HQC","39KMGHJ4RZW9S7JH7DZG09TNV4R00C","","","img/flower4.png","74","561","1","0","2","0.7,0.2,0,0,0.7,0.2,0.2,0,0.7",""
"null","","html-keyboard-response","233","214485","0.0-233.0","3907X2AHF1RLYIO9UNNMNHJY5872P7","A6THOSGKI6HQC","39KMGHJ4RZW9S7JH7DZG09TNV4R00C","","","<img src=""img/flower4.png"" style=""width:200px;border:14px solid red;"">","null","","","","","",""
"8.5","","image-keyboard-response","234","214495","0.0-234.0","3907X2AHF1RLYIO9UNNMNHJY5872P7","A6THOSGKI6HQC","39KMGHJ4RZW9S7JH7DZG09TNV4R00C","","","img/flower4.png","76","9.5","3","1","2","0.7,0.2,0,0,0.7,0.2,0.2,0,0.7",""
"null","","html-keyboard-response","235","214797","0.0-235.0","3907X2AHF1RLYIO9UNNMNHJY5872P7","A6THOSGKI6HQC","39KMGHJ4RZW9S7JH7DZG09TNV4R00C","","","<img src=""img/flower4.png"" style=""width:200px; border:14px solid green;"">","null","","","","","",""
"417.69999998807907","","image-keyboard-response","236","215216","0.0-236.0","3907X2AHF1RLYIO9UNNMNHJY5872P7","A6THOSGKI6HQC","39KMGHJ4RZW9S7JH7DZG09TNV4R00C","","","img/flower4.png","74","418.40000000596046","1","0","2","0.7,0.2,0,0,0.7,0.2,0.2,0,0.7",""
"null","","html-keyboard-response","237","215518","0.0-237.0","3907X2AHF1RLYIO9UNNMNHJY5872P7","A6THOSGKI6HQC","39KMGHJ4RZW9S7JH7DZG09TNV4R00C","","","<img src=""img/flower4.png"" style=""width:200px;border:14px solid red;"">","null","","","","","",""
"480.89999997615814","","image-keyboard-response","238","216000","0.0-238.0","3907X2AHF1RLYIO9UNNMNHJY5872P7","A6THOSGKI6HQC","39KMGHJ4RZW9S7JH7DZG09TNV4R00C","","","img/flower2.png","75","481.7000000178814","2","0","1","0.7,0.2,0,0,0.7,0.2,0.2,0,0.7",""
"null","","html-keyboard-response","239","216303","0.0-239.0","3907X2AHF1RLYIO9UNNMNHJY5872P7","A6THOSGKI6HQC","39KMGHJ4RZW9S7JH7DZG09TNV4R00C","","","<img src=""img/flower2.png"" style=""width:200px;border:14px solid red;"">","null","","","","","",""
"383.09999999403954","","image-keyboard-response","240","216687","0.0-240.0","3907X2AHF1RLYIO9UNNMNHJY5872P7","A6THOSGKI6HQC","39KMGHJ4RZW9S7JH7DZG09TNV4R00C","","","img/flower4.png","74","383.90000000596046","1","0","2","0.7,0.2,0,0,0.7,0.2,0.2,0,0.7",""
"null","","html-keyboard-response","241","216989","0.0-241.0","3907X2AHF1RLYIO9UNNMNHJY5872P7","A6THOSGKI6HQC","39KMGHJ4RZW9S7JH7DZG09TNV4R00C","","","<img src=""img/flower4.png"" style=""width:200px;border:14px solid red;"">","null","","","","","",""
"512.7999999821186","","image-keyboard-response","242","217503","0.0-242.0","3907X2AHF1RLYIO9UNNMNHJY5872P7","A6THOSGKI6HQC","39KMGHJ4RZW9S7JH7DZG09TNV4R00C","","","img/flower2.png","74","513.6000000238419","1","1","1","0.7,0.2,0,0,0.7,0.2,0.2,0,0.7",""
"null","","html-keyboard-response","243","217805","0.0-243.0","3907X2AHF1RLYIO9UNNMNHJY5872P7","A6THOSGKI6HQC","39KMGHJ4RZW9S7JH7DZG09TNV4R00C","","","<img src=""img/flower2.png"" style=""width:200px; border:14px solid green;"">","null","","","","","",""
"0.4000000059604645","","image-keyboard-response","244","217806","0.0-244.0","3907X2AHF1RLYIO9UNNMNHJY5872P7","A6THOSGKI6HQC","39KMGHJ4RZW9S7JH7DZG09TNV4R00C","","","img/flower4.png","75","1.0999999940395355","2","0","2","0.7,0.2,0,0,0.7,0.2,0.2,0,0.7",""
"null","","html-keyboard-response","245","218109","0.0-245.0","3907X2AHF1RLYIO9UNNMNHJY5872P7","A6THOSGKI6HQC","39KMGHJ4RZW9S7JH7DZG09TNV4R00C","","","<img src=""img/flower4.png"" style=""width:200px;border:14px solid red;"">","null","","","","","",""
"424.90000000596046","","image-keyboard-response","246","218535","0.0-246.0","3907X2AHF1RLYIO9UNNMNHJY5872P7","A6THOSGKI6HQC","39KMGHJ4RZW9S7JH7DZG09TNV4R00C","","","img/flower2.png","74","425.59999999403954","1","0","1","0.7,0.2,0,0,0.7,0.2,0.2,0,0.7",""
"null","","html-keyboard-response","247","218837","0.0-247.0","3907X2AHF1RLYIO9UNNMNHJY5872P7","A6THOSGKI6HQC","39KMGHJ4RZW9S7JH7DZG09TNV4R00C","","","<img src=""img/flower2.png"" style=""width:200px;border:14px solid red;"">","null","","","","","",""
"889.7999999821186","","image-keyboard-response","248","219728","0.0-248.0","3907X2AHF1RLYIO9UNNMNHJY5872P7","A6THOSGKI6HQC","39KMGHJ4RZW9S7JH7DZG09TNV4R00C","","","img/flower2.png","75","890.7999999821186","2","0","1","0.7,0.2,0,0,0.7,0.2,0.2,0,0.7",""
"null","","html-keyboard-response","249","220030","0.0-249.0","3907X2AHF1RLYIO9UNNMNHJY5872P7","A6THOSGKI6HQC","39KMGHJ4RZW9S7JH7DZG09TNV4R00C","","","<img src=""img/flower2.png"" style=""width:200px;border:14px solid red;"">","null","","","","","",""
"575.5","","image-keyboard-response","250","220607","0.0-250.0","3907X2AHF1RLYIO9UNNMNHJY5872P7","A6THOSGKI6HQC","39KMGHJ4RZW9S7JH7DZG09TNV4R00C","","","img/flower6.png","75","576.3999999761581","2","0","3","0.7,0.2,0,0,0.7,0.2,0.2,0,0.7",""
"null","","html-keyboard-response","251","220909","0.0-251.0","3907X2AHF1RLYIO9UNNMNHJY5872P7","A6THOSGKI6HQC","39KMGHJ4RZW9S7JH7DZG09TNV4R00C","","","<img src=""img/flower6.png"" style=""width:200px;border:14px solid red;"">","null","","","","","",""
"728.5","","image-keyboard-response","252","221639","0.0-252.0","3907X2AHF1RLYIO9UNNMNHJY5872P7","A6THOSGKI6HQC","39KMGHJ4RZW9S7JH7DZG09TNV4R00C","","","img/flower6.png","74","729.4000000059605","1","0","3","0.7,0.2,0,0,0.7,0.2,0.2,0,0.7",""
"null","","html-keyboard-response","253","221941","0.0-253.0","3907X2AHF1RLYIO9UNNMNHJY5872P7","A6THOSGKI6HQC","39KMGHJ4RZW9S7JH7DZG09TNV4R00C","","","<img src=""img/flower6.png"" style=""width:200px;border:14px solid red;"">","null","","","","","",""
"1400.699999988079","","image-keyboard-response","254","223343","0.0-254.0","3907X2AHF1RLYIO9UNNMNHJY5872P7","A6THOSGKI6HQC","39KMGHJ4RZW9S7JH7DZG09TNV4R00C","","","img/flower4.png","74","1401.6000000238419","1","0","2","0.7,0.2,0,0,0.7,0.2,0.2,0,0.7",""
"null","","html-keyboard-response","255","223645","0.0-255.0","3907X2AHF1RLYIO9UNNMNHJY5872P7","A6THOSGKI6HQC","39KMGHJ4RZW9S7JH7DZG09TNV4R00C","","","<img src=""img/flower4.png"" style=""width:200px;border:14px solid red;"">","null","","","","","",""
"1024.1000000238419","","image-keyboard-response","256","224670","0.0-256.0","3907X2AHF1RLYIO9UNNMNHJY5872P7","A6THOSGKI6HQC","39KMGHJ4RZW9S7JH7DZG09TNV4R00C","","","img/flower6.png","74","1025","1","0","3","0.7,0.2,0,0,0.7,0.2,0.2,0,0.7",""
"null","","html-keyboard-response","257","224973","0.0-257.0","3907X2AHF1RLYIO9UNNMNHJY5872P7","A6THOSGKI6HQC","39KMGHJ4RZW9S7JH7DZG09TNV4R00C","","","<img src=""img/flower6.png"" style=""width:200px;border:14px solid red;"">","null","","","","","",""
"1208.8999999761581","","image-keyboard-response","258","226183","0.0-258.0","3907X2AHF1RLYIO9UNNMNHJY5872P7","A6THOSGKI6HQC","39KMGHJ4RZW9S7JH7DZG09TNV4R00C","","","img/flower4.png","74","1210.0999999940395","1","0","2","0.7,0.2,0,0,0.7,0.2,0.2,0,0.7",""
"null","","html-keyboard-response","259","226485","0.0-259.0","3907X2AHF1RLYIO9UNNMNHJY5872P7","A6THOSGKI6HQC","39KMGHJ4RZW9S7JH7DZG09TNV4R00C","","","<img src=""img/flower4.png"" style=""width:200px;border:14px solid red;"">","null","","","","","",""
"1009.0999999940395","","image-keyboard-response","260","227495","0.0-260.0","3907X2AHF1RLYIO9UNNMNHJY5872P7","A6THOSGKI6HQC","39KMGHJ4RZW9S7JH7DZG09TNV4R00C","","","img/flower2.png","74","1010","1","0","1","0.7,0.2,0,0,0.7,0.2,0.2,0,0.7",""
"null","","html-keyboard-response","261","227798","0.0-261.0","3907X2AHF1RLYIO9UNNMNHJY5872P7","A6THOSGKI6HQC","39KMGHJ4RZW9S7JH7DZG09TNV4R00C","","","<img src=""img/flower2.png"" style=""width:200px;border:14px solid red;"">","null","","","","","",""
"1247.699999988079","","image-keyboard-response","262","229047","0.0-262.0","3907X2AHF1RLYIO9UNNMNHJY5872P7","A6THOSGKI6HQC","39KMGHJ4RZW9S7JH7DZG09TNV4R00C","","","img/flower2.png","75","1248.5999999940395","2","0","1","0.7,0.2,0,0,0.7,0.2,0.2,0,0.7",""
"null","","html-keyboard-response","263","229349","0.0-263.0","3907X2AHF1RLYIO9UNNMNHJY5872P7","A6THOSGKI6HQC","39KMGHJ4RZW9S7JH7DZG09TNV4R00C","","","<img src=""img/flower2.png"" style=""width:200px;border:14px solid red;"">","null","","","","","",""
"1200.5999999940395","","image-keyboard-response","264","230551","0.0-264.0","3907X2AHF1RLYIO9UNNMNHJY5872P7","A6THOSGKI6HQC","39KMGHJ4RZW9S7JH7DZG09TNV4R00C","","","img/flower4.png","74","1201.3999999761581","1","0","2","0.7,0.2,0,0,0.7,0.2,0.2,0,0.7",""
"null","","html-keyboard-response","265","230854","0.0-265.0","3907X2AHF1RLYIO9UNNMNHJY5872P7","A6THOSGKI6HQC","39KMGHJ4RZW9S7JH7DZG09TNV4R00C","","","<img src=""img/flower4.png"" style=""width:200px;border:14px solid red;"">","null","","","","","",""
"2232.2999999821186","","image-keyboard-response","266","233087","0.0-266.0","3907X2AHF1RLYIO9UNNMNHJY5872P7","A6THOSGKI6HQC","39KMGHJ4RZW9S7JH7DZG09TNV4R00C","","","img/flower2.png","75","2233.0999999940395","2","0","1","0.7,0.2,0,0,0.7,0.2,0.2,0,0.7",""
"null","","html-keyboard-response","267","233390","0.0-267.0","3907X2AHF1RLYIO9UNNMNHJY5872P7","A6THOSGKI6HQC","39KMGHJ4RZW9S7JH7DZG09TNV4R00C","","","<img src=""img/flower2.png"" style=""width:200px;border:14px solid red;"">","null","","","","","",""
"1111.7000000178814","","image-keyboard-response","268","234503","0.0-268.0","3907X2AHF1RLYIO9UNNMNHJY5872P7","A6THOSGKI6HQC","39KMGHJ4RZW9S7JH7DZG09TNV4R00C","","","img/flower4.png","74","1112.5999999940395","1","0","2","0.7,0.2,0,0,0.7,0.2,0.2,0,0.7",""
"null","","html-keyboard-response","269","234806","0.0-269.0","3907X2AHF1RLYIO9UNNMNHJY5872P7","A6THOSGKI6HQC","39KMGHJ4RZW9S7JH7DZG09TNV4R00C","","","<img src=""img/flower4.png"" style=""width:200px;border:14px solid red;"">","null","","","","","",""
"776.2000000178814","","image-keyboard-response","270","235583","0.0-270.0","3907X2AHF1RLYIO9UNNMNHJY5872P7","A6THOSGKI6HQC","39KMGHJ4RZW9S7JH7DZG09TNV4R00C","","","img/flower2.png","75","776.9000000059605","2","0","1","0.7,0.2,0,0,0.7,0.2,0.2,0,0.7",""
"null","","html-keyboard-response","271","235885","0.0-271.0","3907X2AHF1RLYIO9UNNMNHJY5872P7","A6THOSGKI6HQC","39KMGHJ4RZW9S7JH7DZG09TNV4R00C","","","<img src=""img/flower2.png"" style=""width:200px;border:14px solid red;"">","null","","","","","",""
"1552.8999999761581","","image-keyboard-response","272","237439","0.0-272.0","3907X2AHF1RLYIO9UNNMNHJY5872P7","A6THOSGKI6HQC","39KMGHJ4RZW9S7JH7DZG09TNV4R00C","","","img/flower2.png","74","1553.7000000178814","1","1","1","0.7,0.2,0,0,0.7,0.2,0.2,0,0.7",""
"null","","html-keyboard-response","273","237742","0.0-273.0","3907X2AHF1RLYIO9UNNMNHJY5872P7","A6THOSGKI6HQC","39KMGHJ4RZW9S7JH7DZG09TNV4R00C","","","<img src=""img/flower2.png"" style=""width:200px; border:14px solid green;"">","null","","","","","",""
"1279.2999999821186","","image-keyboard-response","274","239022","0.0-274.0","3907X2AHF1RLYIO9UNNMNHJY5872P7","A6THOSGKI6HQC","39KMGHJ4RZW9S7JH7DZG09TNV4R00C","","","img/flower6.png","74","1280.300000011921","1","1","3","0.7,0.2,0,0,0.7,0.2,0.2,0,0.7",""
"null","","html-keyboard-response","275","239324","0.0-275.0","3907X2AHF1RLYIO9UNNMNHJY5872P7","A6THOSGKI6HQC","39KMGHJ4RZW9S7JH7DZG09TNV4R00C","","","<img src=""img/flower6.png"" style=""width:200px; border:14px solid green;"">","null","","","","","",""
"1153.0999999940395","","image-keyboard-response","276","240478","0.0-276.0","3907X2AHF1RLYIO9UNNMNHJY5872P7","A6THOSGKI6HQC","39KMGHJ4RZW9S7JH7DZG09TNV4R00C","","","img/flower2.png","74","1153.9000000059605","1","1","1","0.7,0.2,0,0,0.7,0.2,0.2,0,0.7",""
"null","","html-keyboard-response","277","240781","0.0-277.0","3907X2AHF1RLYIO9UNNMNHJY5872P7","A6THOSGKI6HQC","39KMGHJ4RZW9S7JH7DZG09TNV4R00C","","","<img src=""img/flower2.png"" style=""width:200px; border:14px solid green;"">","null","","","","","",""
"872.7000000178814","","image-keyboard-response","278","241654","0.0-278.0","3907X2AHF1RLYIO9UNNMNHJY5872P7","A6THOSGKI6HQC","39KMGHJ4RZW9S7JH7DZG09TNV4R00C","","","img/flower6.png","74","873.5999999940395","1","0","3","0.7,0.2,0,0,0.7,0.2,0.2,0,0.7",""
"null","","html-keyboard-response","279","241957","0.0-279.0","3907X2AHF1RLYIO9UNNMNHJY5872P7","A6THOSGKI6HQC","39KMGHJ4RZW9S7JH7DZG09TNV4R00C","","","<img src=""img/flower6.png"" style=""width:200px;border:14px solid red;"">","null","","","","","",""
"23.799999982118607","","image-keyboard-response","280","241982","0.0-280.0","3907X2AHF1RLYIO9UNNMNHJY5872P7","A6THOSGKI6HQC","39KMGHJ4RZW9S7JH7DZG09TNV4R00C","","","img/flower4.png","76","24.700000017881393","3","0","2","0.7,0.2,0,0,0.7,0.2,0.2,0,0.7",""
"null","","html-keyboard-response","281","242284","0.0-281.0","3907X2AHF1RLYIO9UNNMNHJY5872P7","A6THOSGKI6HQC","39KMGHJ4RZW9S7JH7DZG09TNV4R00C","","","<img src=""img/flower4.png"" style=""width:200px;border:14px solid red;"">","null","","","","","",""
"992.9000000059605","","image-keyboard-response","282","243279","0.0-282.0","3907X2AHF1RLYIO9UNNMNHJY5872P7","A6THOSGKI6HQC","39KMGHJ4RZW9S7JH7DZG09TNV4R00C","","","img/flower4.png","75","994.5999999940395","2","0","2","0.7,0.2,0,0,0.7,0.2,0.2,0,0.7",""
"null","","html-keyboard-response","283","243582","0.0-283.0","3907X2AHF1RLYIO9UNNMNHJY5872P7","A6THOSGKI6HQC","39KMGHJ4RZW9S7JH7DZG09TNV4R00C","","","<img src=""img/flower4.png"" style=""width:200px;border:14px solid red;"">","null","","","","","",""
"1311.4000000059605","","image-keyboard-response","284","244894","0.0-284.0","3907X2AHF1RLYIO9UNNMNHJY5872P7","A6THOSGKI6HQC","39KMGHJ4RZW9S7JH7DZG09TNV4R00C","","","img/flower6.png","74","1312.199999988079","1","0","3","0.7,0.2,0,0,0.7,0.2,0.2,0,0.7",""
"null","","html-keyboard-response","285","245196","0.0-285.0","3907X2AHF1RLYIO9UNNMNHJY5872P7","A6THOSGKI6HQC","39KMGHJ4RZW9S7JH7DZG09TNV4R00C","","","<img src=""img/flower6.png"" style=""width:200px;border:14px solid red;"">","null","","","","","",""
"2913.5999999940395","","image-keyboard-response","286","248111","0.0-286.0","3907X2AHF1RLYIO9UNNMNHJY5872P7","A6THOSGKI6HQC","39KMGHJ4RZW9S7JH7DZG09TNV4R00C","","","img/flower6.png","74","2914.5","1","0","3","0.7,0.2,0,0,0.7,0.2,0.2,0,0.7",""
"null","","html-keyboard-response","287","248413","0.0-287.0","3907X2AHF1RLYIO9UNNMNHJY5872P7","A6THOSGKI6HQC","39KMGHJ4RZW9S7JH7DZG09TNV4R00C","","","<img src=""img/flower6.png"" style=""width:200px;border:14px solid red;"">","null","","","","","",""
"712.3999999761581","","image-keyboard-response","288","249127","0.0-288.0","3907X2AHF1RLYIO9UNNMNHJY5872P7","A6THOSGKI6HQC","39KMGHJ4RZW9S7JH7DZG09TNV4R00C","","","img/flower4.png","74","713.4000000059605","1","0","2","0.7,0.2,0,0,0.7,0.2,0.2,0,0.7",""
"null","","html-keyboard-response","289","249428","0.0-289.0","3907X2AHF1RLYIO9UNNMNHJY5872P7","A6THOSGKI6HQC","39KMGHJ4RZW9S7JH7DZG09TNV4R00C","","","<img src=""img/flower4.png"" style=""width:200px;border:14px solid red;"">","null","","","","","",""
"561.3000000119209","","image-keyboard-response","290","249990","0.0-290.0","3907X2AHF1RLYIO9UNNMNHJY5872P7","A6THOSGKI6HQC","39KMGHJ4RZW9S7JH7DZG09TNV4R00C","","","img/flower4.png","74","562.2000000178814","1","0","2","0.7,0.2,0,0,0.7,0.2,0.2,0,0.7",""
"null","","html-keyboard-response","291","250293","0.0-291.0","3907X2AHF1RLYIO9UNNMNHJY5872P7","A6THOSGKI6HQC","39KMGHJ4RZW9S7JH7DZG09TNV4R00C","","","<img src=""img/flower4.png"" style=""width:200px;border:14px solid red;"">","null","","","","","",""
"536.5","","image-keyboard-response","292","250830","0.0-292.0","3907X2AHF1RLYIO9UNNMNHJY5872P7","A6THOSGKI6HQC","39KMGHJ4RZW9S7JH7DZG09TNV4R00C","","","img/flower6.png","75","537.4000000059605","2","0","3","0.7,0.2,0,0,0.7,0.2,0.2,0,0.7",""
"null","","html-keyboard-response","293","251132","0.0-293.0","3907X2AHF1RLYIO9UNNMNHJY5872P7","A6THOSGKI6HQC","39KMGHJ4RZW9S7JH7DZG09TNV4R00C","","","<img src=""img/flower6.png"" style=""width:200px;border:14px solid red;"">","null","","","","","",""
"49.69999998807907","","image-keyboard-response","294","251183","0.0-294.0","3907X2AHF1RLYIO9UNNMNHJY5872P7","A6THOSGKI6HQC","39KMGHJ4RZW9S7JH7DZG09TNV4R00C","","","img/flower2.png","76","50.39999997615814","3","0","1","0.7,0.2,0,0,0.7,0.2,0.2,0,0.7",""
"null","","html-keyboard-response","295","251485","0.0-295.0","3907X2AHF1RLYIO9UNNMNHJY5872P7","A6THOSGKI6HQC","39KMGHJ4RZW9S7JH7DZG09TNV4R00C","","","<img src=""img/flower2.png"" style=""width:200px;border:14px solid red;"">","null","","","","","",""
"271.89999997615814","","image-keyboard-response","296","251758","0.0-296.0","3907X2AHF1RLYIO9UNNMNHJY5872P7","A6THOSGKI6HQC","39KMGHJ4RZW9S7JH7DZG09TNV4R00C","","","img/flower4.png","74","272.80000001192093","1","0","2","0.7,0.2,0,0,0.7,0.2,0.2,0,0.7",""
"null","","html-keyboard-response","297","252061","0.0-297.0","3907X2AHF1RLYIO9UNNMNHJY5872P7","A6THOSGKI6HQC","39KMGHJ4RZW9S7JH7DZG09TNV4R00C","","","<img src=""img/flower4.png"" style=""width:200px;border:14px solid red;"">","null","","","","","",""
"352.30000001192093","","image-keyboard-response","298","252414","0.0-298.0","3907X2AHF1RLYIO9UNNMNHJY5872P7","A6THOSGKI6HQC","39KMGHJ4RZW9S7JH7DZG09TNV4R00C","","","img/flower2.png","75","353.30000001192093","2","0","1","0.7,0.2,0,0,0.7,0.2,0.2,0,0.7",""
"null","","html-keyboard-response","299","252717","0.0-299.0","3907X2AHF1RLYIO9UNNMNHJY5872P7","A6THOSGKI6HQC","39KMGHJ4RZW9S7JH7DZG09TNV4R00C","","","<img src=""img/flower2.png"" style=""width:200px;border:14px solid red;"">","null","","","","","",""
"1.0999999940395355","","image-keyboard-response","300","252719","0.0-300.0","3907X2AHF1RLYIO9UNNMNHJY5872P7","A6THOSGKI6HQC","39KMGHJ4RZW9S7JH7DZG09TNV4R00C","","","img/flower6.png","76","2.0999999940395355","3","1","3","0.7,0.2,0,0,0.7,0.2,0.2,0,0.7",""
"null","","html-keyboard-response","301","253022","0.0-301.0","3907X2AHF1RLYIO9UNNMNHJY5872P7","A6THOSGKI6HQC","39KMGHJ4RZW9S7JH7DZG09TNV4R00C","","","<img src=""img/flower6.png"" style=""width:200px; border:14px solid green;"">","null","","","","","",""
"192","","image-keyboard-response","302","253215","0.0-302.0","3907X2AHF1RLYIO9UNNMNHJY5872P7","A6THOSGKI6HQC","39KMGHJ4RZW9S7JH7DZG09TNV4R00C","","","img/flower2.png","74","192.80000001192093","1","1","1","0.7,0.2,0,0,0.7,0.2,0.2,0,0.7",""
"null","","html-keyboard-response","303","253518","0.0-303.0","3907X2AHF1RLYIO9UNNMNHJY5872P7","A6THOSGKI6HQC","39KMGHJ4RZW9S7JH7DZG09TNV4R00C","","","<img src=""img/flower2.png"" style=""width:200px; border:14px solid green;"">","null","","","","","",""
"39.80000001192093","","image-keyboard-response","304","253558","0.0-304.0","3907X2AHF1RLYIO9UNNMNHJY5872P7","A6THOSGKI6HQC","39KMGHJ4RZW9S7JH7DZG09TNV4R00C","","","img/flower2.png","76","40.599999994039536","3","0","1","0.7,0.2,0,0,0.7,0.2,0.2,0,0.7",""
"null","","html-keyboard-response","305","253860","0.0-305.0","3907X2AHF1RLYIO9UNNMNHJY5872P7","A6THOSGKI6HQC","39KMGHJ4RZW9S7JH7DZG09TNV4R00C","","","<img src=""img/flower2.png"" style=""width:200px;border:14px solid red;"">","null","","","","","",""
"","","html-keyboard-response","306","256929","0.0-306.0","3907X2AHF1RLYIO9UNNMNHJY5872P7","A6THOSGKI6HQC","39KMGHJ4RZW9S7JH7DZG09TNV4R00C","","","","","","","","","",""
"1811.5","","image-keyboard-response","307","258742","0.0-307.0","3907X2AHF1RLYIO9UNNMNHJY5872P7","A6THOSGKI6HQC","39KMGHJ4RZW9S7JH7DZG09TNV4R00C","","","img/flower5.png","74","1812.5999999940395","1","0","3","0.7,0.2,0,0.7,0,0.2,0.2,0,0.7",""
"null","","html-keyboard-response","308","259044","0.0-308.0","3907X2AHF1RLYIO9UNNMNHJY5872P7","A6THOSGKI6HQC","39KMGHJ4RZW9S7JH7DZG09TNV4R00C","","","<img src=""img/flower5.png"" style=""width:200px;border:14px solid red;"">","null","","","","","",""
"537.4000000059605","","image-keyboard-response","309","259582","0.0-309.0","3907X2AHF1RLYIO9UNNMNHJY5872P7","A6THOSGKI6HQC","39KMGHJ4RZW9S7JH7DZG09TNV4R00C","","","img/flower1.png","74","538.2999999821186","1","1","1","0.7,0.2,0,0.7,0,0.2,0.2,0,0.7",""
"null","","html-keyboard-response","310","259885","0.0-310.0","3907X2AHF1RLYIO9UNNMNHJY5872P7","A6THOSGKI6HQC","39KMGHJ4RZW9S7JH7DZG09TNV4R00C","","","<img src=""img/flower1.png"" style=""width:200px; border:14px solid green;"">","null","","","","","",""
"32.20000001788139","","image-keyboard-response","311","259918","0.0-311.0","3907X2AHF1RLYIO9UNNMNHJY5872P7","A6THOSGKI6HQC","39KMGHJ4RZW9S7JH7DZG09TNV4R00C","","","img/flower5.png","76","33.099999994039536","3","1","3","0.7,0.2,0,0.7,0,0.2,0.2,0,0.7",""
"null","","html-keyboard-response","312","260220","0.0-312.0","3907X2AHF1RLYIO9UNNMNHJY5872P7","A6THOSGKI6HQC","39KMGHJ4RZW9S7JH7DZG09TNV4R00C","","","<img src=""img/flower5.png"" style=""width:200px; border:14px solid green;"">","null","","","","","",""
"384.80000001192093","","image-keyboard-response","313","260606","0.0-313.0","3907X2AHF1RLYIO9UNNMNHJY5872P7","A6THOSGKI6HQC","39KMGHJ4RZW9S7JH7DZG09TNV4R00C","","","img/flower1.png","74","385.7999999821186","1","1","1","0.7,0.2,0,0.7,0,0.2,0.2,0,0.7",""
"null","","html-keyboard-response","314","260909","0.0-314.0","3907X2AHF1RLYIO9UNNMNHJY5872P7","A6THOSGKI6HQC","39KMGHJ4RZW9S7JH7DZG09TNV4R00C","","","<img src=""img/flower1.png"" style=""width:200px; border:14px solid green;"">","null","","","","","",""
"1136.5","","image-keyboard-response","315","262046","0.0-315.0","3907X2AHF1RLYIO9UNNMNHJY5872P7","A6THOSGKI6HQC","39KMGHJ4RZW9S7JH7DZG09TNV4R00C","","","img/flower1.png","74","1137.300000011921","1","1","1","0.7,0.2,0,0.7,0,0.2,0.2,0,0.7",""
"null","","html-keyboard-response","316","262348","0.0-316.0","3907X2AHF1RLYIO9UNNMNHJY5872P7","A6THOSGKI6HQC","39KMGHJ4RZW9S7JH7DZG09TNV4R00C","","","<img src=""img/flower1.png"" style=""width:200px; border:14px solid green;"">","null","","","","","",""
"24.299999982118607","","image-keyboard-response","317","262373","0.0-317.0","3907X2AHF1RLYIO9UNNMNHJY5872P7","A6THOSGKI6HQC","39KMGHJ4RZW9S7JH7DZG09TNV4R00C","","","img/flower5.png","76","25","3","1","3","0.7,0.2,0,0.7,0,0.2,0.2,0,0.7",""
"null","","html-keyboard-response","318","262676","0.0-318.0","3907X2AHF1RLYIO9UNNMNHJY5872P7","A6THOSGKI6HQC","39KMGHJ4RZW9S7JH7DZG09TNV4R00C","","","<img src=""img/flower5.png"" style=""width:200px; border:14px solid green;"">","null","","","","","",""
"1248.5","","image-keyboard-response","319","263926","0.0-319.0","3907X2AHF1RLYIO9UNNMNHJY5872P7","A6THOSGKI6HQC","39KMGHJ4RZW9S7JH7DZG09TNV4R00C","","","img/flower5.png","74","1249.5","1","0","3","0.7,0.2,0,0.7,0,0.2,0.2,0,0.7",""
"null","","html-keyboard-response","320","264228","0.0-320.0","3907X2AHF1RLYIO9UNNMNHJY5872P7","A6THOSGKI6HQC","39KMGHJ4RZW9S7JH7DZG09TNV4R00C","","","<img src=""img/flower5.png"" style=""width:200px;border:14px solid red;"">","null","","","","","",""
"417.60000002384186","","image-keyboard-response","321","264646","0.0-321.0","3907X2AHF1RLYIO9UNNMNHJY5872P7","A6THOSGKI6HQC","39KMGHJ4RZW9S7JH7DZG09TNV4R00C","","","img/flower5.png","74","418.59999999403954","1","0","3","0.7,0.2,0,0.7,0,0.2,0.2,0,0.7",""
"null","","html-keyboard-response","322","264948","0.0-322.0","3907X2AHF1RLYIO9UNNMNHJY5872P7","A6THOSGKI6HQC","39KMGHJ4RZW9S7JH7DZG09TNV4R00C","","","<img src=""img/flower5.png"" style=""width:200px;border:14px solid red;"">","null","","","","","",""
"32.5","","image-keyboard-response","323","264982","0.0-323.0","3907X2AHF1RLYIO9UNNMNHJY5872P7","A6THOSGKI6HQC","39KMGHJ4RZW9S7JH7DZG09TNV4R00C","","","img/flower3.png","76","33.400000005960464","3","0","2","0.7,0.2,0,0.7,0,0.2,0.2,0,0.7",""
"null","","html-keyboard-response","324","265284","0.0-324.0","3907X2AHF1RLYIO9UNNMNHJY5872P7","A6THOSGKI6HQC","39KMGHJ4RZW9S7JH7DZG09TNV4R00C","","","<img src=""img/flower3.png"" style=""width:200px;border:14px solid red;"">","null","","","","","",""
"320.39999997615814","","image-keyboard-response","325","265606","0.0-325.0","3907X2AHF1RLYIO9UNNMNHJY5872P7","A6THOSGKI6HQC","39KMGHJ4RZW9S7JH7DZG09TNV4R00C","","","img/flower5.png","74","321.19999998807907","1","0","3","0.7,0.2,0,0.7,0,0.2,0.2,0,0.7",""
"null","","html-keyboard-response","326","265908","0.0-326.0","3907X2AHF1RLYIO9UNNMNHJY5872P7","A6THOSGKI6HQC","39KMGHJ4RZW9S7JH7DZG09TNV4R00C","","","<img src=""img/flower5.png"" style=""width:200px;border:14px solid red;"">","null","","","","","",""
"361.30000001192093","","image-keyboard-response","327","266270","0.0-327.0","3907X2AHF1RLYIO9UNNMNHJY5872P7","A6THOSGKI6HQC","39KMGHJ4RZW9S7JH7DZG09TNV4R00C","","","img/flower3.png","74","362.09999999403954","1","0","2","0.7,0.2,0,0.7,0,0.2,0.2,0,0.7",""
"null","","html-keyboard-response","328","266572","0.0-328.0","3907X2AHF1RLYIO9UNNMNHJY5872P7","A6THOSGKI6HQC","39KMGHJ4RZW9S7JH7DZG09TNV4R00C","","","<img src=""img/flower3.png"" style=""width:200px;border:14px solid red;"">","null","","","","","",""
"784.7999999821186","","image-keyboard-response","329","267358","0.0-329.0","3907X2AHF1RLYIO9UNNMNHJY5872P7","A6THOSGKI6HQC","39KMGHJ4RZW9S7JH7DZG09TNV4R00C","","","img/flower3.png","75","785.5999999940395","2","0","2","0.7,0.2,0,0.7,0,0.2,0.2,0,0.7",""
"null","","html-keyboard-response","330","267661","0.0-330.0","3907X2AHF1RLYIO9UNNMNHJY5872P7","A6THOSGKI6HQC","39KMGHJ4RZW9S7JH7DZG09TNV4R00C","","","<img src=""img/flower3.png"" style=""width:200px;border:14px solid red;"">","null","","","","","",""
"808.5","","image-keyboard-response","331","268470","0.0-331.0","3907X2AHF1RLYIO9UNNMNHJY5872P7","A6THOSGKI6HQC","39KMGHJ4RZW9S7JH7DZG09TNV4R00C","","","img/flower3.png","75","809.2000000178814","2","0","2","0.7,0.2,0,0.7,0,0.2,0.2,0,0.7",""
"null","","html-keyboard-response","332","268773","0.0-332.0","3907X2AHF1RLYIO9UNNMNHJY5872P7","A6THOSGKI6HQC","39KMGHJ4RZW9S7JH7DZG09TNV4R00C","","","<img src=""img/flower3.png"" style=""width:200px;border:14px solid red;"">","null","","","","","",""
"184.69999998807907","","image-keyboard-response","333","268958","0.0-333.0","3907X2AHF1RLYIO9UNNMNHJY5872P7","A6THOSGKI6HQC","39KMGHJ4RZW9S7JH7DZG09TNV4R00C","","","img/flower3.png","74","185.5","1","0","2","0.7,0.2,0,0.7,0,0.2,0.2,0,0.7",""
"null","","html-keyboard-response","334","269262","0.0-334.0","3907X2AHF1RLYIO9UNNMNHJY5872P7","A6THOSGKI6HQC","39KMGHJ4RZW9S7JH7DZG09TNV4R00C","","","<img src=""img/flower3.png"" style=""width:200px;border:14px solid red;"">","null","","","","","",""
"22.700000017881393","","image-keyboard-response","335","269285","0.0-335.0","3907X2AHF1RLYIO9UNNMNHJY5872P7","A6THOSGKI6HQC","39KMGHJ4RZW9S7JH7DZG09TNV4R00C","","","img/flower1.png","76","23.5","3","0","1","0.7,0.2,0,0.7,0,0.2,0.2,0,0.7",""
"null","","html-keyboard-response","336","269587","0.0-336.0","3907X2AHF1RLYIO9UNNMNHJY5872P7","A6THOSGKI6HQC","39KMGHJ4RZW9S7JH7DZG09TNV4R00C","","","<img src=""img/flower1.png"" style=""width:200px;border:14px solid red;"">","null","","","","","",""
"433.69999998807907","","image-keyboard-response","337","270022","0.0-337.0","3907X2AHF1RLYIO9UNNMNHJY5872P7","A6THOSGKI6HQC","39KMGHJ4RZW9S7JH7DZG09TNV4R00C","","","img/flower1.png","75","434.40000000596046","2","0","1","0.7,0.2,0,0.7,0,0.2,0.2,0,0.7",""
"null","","html-keyboard-response","338","270325","0.0-338.0","3907X2AHF1RLYIO9UNNMNHJY5872P7","A6THOSGKI6HQC","39KMGHJ4RZW9S7JH7DZG09TNV4R00C","","","<img src=""img/flower1.png"" style=""width:200px;border:14px solid red;"">","null","","","","","",""
"712.1000000238419","","image-keyboard-response","339","271038","0.0-339.0","3907X2AHF1RLYIO9UNNMNHJY5872P7","A6THOSGKI6HQC","39KMGHJ4RZW9S7JH7DZG09TNV4R00C","","","img/flower1.png","75","712.9000000059605","2","0","1","0.7,0.2,0,0.7,0,0.2,0.2,0,0.7",""
"null","","html-keyboard-response","340","271340","0.0-340.0","3907X2AHF1RLYIO9UNNMNHJY5872P7","A6THOSGKI6HQC","39KMGHJ4RZW9S7JH7DZG09TNV4R00C","","","<img src=""img/flower1.png"" style=""width:200px;border:14px solid red;"">","null","","","","","",""
"624.5","","image-keyboard-response","341","271966","0.0-341.0","3907X2AHF1RLYIO9UNNMNHJY5872P7","A6THOSGKI6HQC","39KMGHJ4RZW9S7JH7DZG09TNV4R00C","","","img/flower5.png","74","625.4000000059605","1","0","3","0.7,0.2,0,0.7,0,0.2,0.2,0,0.7",""
"null","","html-keyboard-response","342","272268","0.0-342.0","3907X2AHF1RLYIO9UNNMNHJY5872P7","A6THOSGKI6HQC","39KMGHJ4RZW9S7JH7DZG09TNV4R00C","","","<img src=""img/flower5.png"" style=""width:200px;border:14px solid red;"">","null","","","","","",""
"129","","image-keyboard-response","343","272398","0.0-343.0","3907X2AHF1RLYIO9UNNMNHJY5872P7","A6THOSGKI6HQC","39KMGHJ4RZW9S7JH7DZG09TNV4R00C","","","img/flower3.png","75","129.7000000178814","2","0","2","0.7,0.2,0,0.7,0,0.2,0.2,0,0.7",""
"null","","html-keyboard-response","344","272701","0.0-344.0","3907X2AHF1RLYIO9UNNMNHJY5872P7","A6THOSGKI6HQC","39KMGHJ4RZW9S7JH7DZG09TNV4R00C","","","<img src=""img/flower3.png"" style=""width:200px;border:14px solid red;"">","null","","","","","",""
"311.59999999403954","","image-keyboard-response","345","273014","0.0-345.0","3907X2AHF1RLYIO9UNNMNHJY5872P7","A6THOSGKI6HQC","39KMGHJ4RZW9S7JH7DZG09TNV4R00C","","","img/flower5.png","74","312.40000000596046","1","0","3","0.7,0.2,0,0.7,0,0.2,0.2,0,0.7",""
"null","","html-keyboard-response","346","273316","0.0-346.0","3907X2AHF1RLYIO9UNNMNHJY5872P7","A6THOSGKI6HQC","39KMGHJ4RZW9S7JH7DZG09TNV4R00C","","","<img src=""img/flower5.png"" style=""width:200px;border:14px solid red;"">","null","","","","","",""
"17.5","","image-keyboard-response","347","273334","0.0-347.0","3907X2AHF1RLYIO9UNNMNHJY5872P7","A6THOSGKI6HQC","39KMGHJ4RZW9S7JH7DZG09TNV4R00C","","","img/flower1.png","76","18.400000005960464","3","0","1","0.7,0.2,0,0.7,0,0.2,0.2,0,0.7",""
"null","","html-keyboard-response","348","273637","0.0-348.0","3907X2AHF1RLYIO9UNNMNHJY5872P7","A6THOSGKI6HQC","39KMGHJ4RZW9S7JH7DZG09TNV4R00C","","","<img src=""img/flower1.png"" style=""width:200px;border:14px solid red;"">","null","","","","","",""
"95.60000002384186","","image-keyboard-response","349","273733","0.0-349.0","3907X2AHF1RLYIO9UNNMNHJY5872P7","A6THOSGKI6HQC","39KMGHJ4RZW9S7JH7DZG09TNV4R00C","","","img/flower3.png","75","96.5","2","0","2","0.7,0.2,0,0.7,0,0.2,0.2,0,0.7",""
"null","","html-keyboard-response","350","274036","0.0-350.0","3907X2AHF1RLYIO9UNNMNHJY5872P7","A6THOSGKI6HQC","39KMGHJ4RZW9S7JH7DZG09TNV4R00C","","","<img src=""img/flower3.png"" style=""width:200px;border:14px solid red;"">","null","","","","","",""
"273","","image-keyboard-response","351","274310","0.0-351.0","3907X2AHF1RLYIO9UNNMNHJY5872P7","A6THOSGKI6HQC","39KMGHJ4RZW9S7JH7DZG09TNV4R00C","","","img/flower5.png","76","274","3","1","3","0.7,0.2,0,0.7,0,0.2,0.2,0,0.7",""
"null","","html-keyboard-response","352","274612","0.0-352.0","3907X2AHF1RLYIO9UNNMNHJY5872P7","A6THOSGKI6HQC","39KMGHJ4RZW9S7JH7DZG09TNV4R00C","","","<img src=""img/flower5.png"" style=""width:200px; border:14px solid green;"">","null","","","","","",""
"8.300000011920929","","image-keyboard-response","353","274622","0.0-353.0","3907X2AHF1RLYIO9UNNMNHJY5872P7","A6THOSGKI6HQC","39KMGHJ4RZW9S7JH7DZG09TNV4R00C","","","img/flower3.png","74","9","1","1","2","0.7,0.2,0,0.7,0,0.2,0.2,0,0.7",""
"null","","html-keyboard-response","354","274924","0.0-354.0","3907X2AHF1RLYIO9UNNMNHJY5872P7","A6THOSGKI6HQC","39KMGHJ4RZW9S7JH7DZG09TNV4R00C","","","<img src=""img/flower3.png"" style=""width:200px; border:14px solid green;"">","null","","","","","",""
"25","","image-keyboard-response","355","274950","0.0-355.0","3907X2AHF1RLYIO9UNNMNHJY5872P7","A6THOSGKI6HQC","39KMGHJ4RZW9S7JH7DZG09TNV4R00C","","","img/flower3.png","75","25.69999998807907","2","0","2","0.7,0.2,0,0.7,0,0.2,0.2,0,0.7",""
"null","","html-keyboard-response","356","275253","0.0-356.0","3907X2AHF1RLYIO9UNNMNHJY5872P7","A6THOSGKI6HQC","39KMGHJ4RZW9S7JH7DZG09TNV4R00C","","","<img src=""img/flower3.png"" style=""width:200px;border:14px solid red;"">","null","","","","","",""
"1271.199999988079","","image-keyboard-response","357","276525","0.0-357.0","3907X2AHF1RLYIO9UNNMNHJY5872P7","A6THOSGKI6HQC","39KMGHJ4RZW9S7JH7DZG09TNV4R00C","","","img/flower5.png","75","1272.2000000178814","2","0","3","0.7,0.2,0,0.7,0,0.2,0.2,0,0.7",""
"null","","html-keyboard-response","358","276828","0.0-358.0","3907X2AHF1RLYIO9UNNMNHJY5872P7","A6THOSGKI6HQC","39KMGHJ4RZW9S7JH7DZG09TNV4R00C","","","<img src=""img/flower5.png"" style=""width:200px;border:14px solid red;"">","null","","","","","",""
"256.59999999403954","","image-keyboard-response","359","277085","0.0-359.0","3907X2AHF1RLYIO9UNNMNHJY5872P7","A6THOSGKI6HQC","39KMGHJ4RZW9S7JH7DZG09TNV4R00C","","","img/flower1.png","74","257.40000000596046","1","1","1","0.7,0.2,0,0.7,0,0.2,0.2,0,0.7",""
"null","","html-keyboard-response","360","277387","0.0-360.0","3907X2AHF1RLYIO9UNNMNHJY5872P7","A6THOSGKI6HQC","39KMGHJ4RZW9S7JH7DZG09TNV4R00C","","","<img src=""img/flower1.png"" style=""width:200px; border:14px solid green;"">","null","","","","","",""
"73.69999998807907","","image-keyboard-response","361","277462","0.0-361.0","3907X2AHF1RLYIO9UNNMNHJY5872P7","A6THOSGKI6HQC","39KMGHJ4RZW9S7JH7DZG09TNV4R00C","","","img/flower3.png","76","74.5","3","0","2","0.7,0.2,0,0.7,0,0.2,0.2,0,0.7",""
"null","","html-keyboard-response","362","277764","0.0-362.0","3907X2AHF1RLYIO9UNNMNHJY5872P7","A6THOSGKI6HQC","39KMGHJ4RZW9S7JH7DZG09TNV4R00C","","","<img src=""img/flower3.png"" style=""width:200px;border:14px solid red;"">","null","","","","","",""
"776.0999999940395","","image-keyboard-response","363","278541","0.0-363.0","3907X2AHF1RLYIO9UNNMNHJY5872P7","A6THOSGKI6HQC","39KMGHJ4RZW9S7JH7DZG09TNV4R00C","","","img/flower5.png","75","776.9000000059605","2","0","3","0.7,0.2,0,0.7,0,0.2,0.2,0,0.7",""
"null","","html-keyboard-response","364","278844","0.0-364.0","3907X2AHF1RLYIO9UNNMNHJY5872P7","A6THOSGKI6HQC","39KMGHJ4RZW9S7JH7DZG09TNV4R00C","","","<img src=""img/flower5.png"" style=""width:200px;border:14px solid red;"">","null","","","","","",""
"704.2000000178814","","image-keyboard-response","365","279549","0.0-365.0","3907X2AHF1RLYIO9UNNMNHJY5872P7","A6THOSGKI6HQC","39KMGHJ4RZW9S7JH7DZG09TNV4R00C","","","img/flower1.png","75","705","2","0","1","0.7,0.2,0,0.7,0,0.2,0.2,0,0.7",""
"null","","html-keyboard-response","366","279852","0.0-366.0","3907X2AHF1RLYIO9UNNMNHJY5872P7","A6THOSGKI6HQC","39KMGHJ4RZW9S7JH7DZG09TNV4R00C","","","<img src=""img/flower1.png"" style=""width:200px;border:14px solid red;"">","null","","","","","",""
"9344.600000023842","","image-keyboard-response","367","289197","0.0-367.0","3907X2AHF1RLYIO9UNNMNHJY5872P7","A6THOSGKI6HQC","39KMGHJ4RZW9S7JH7DZG09TNV4R00C","","","img/flower5.png","74","9345.40000000596","1","0","3","0.7,0.2,0,0.7,0,0.2,0.2,0,0.7",""
"null","","html-keyboard-response","368","289500","0.0-368.0","3907X2AHF1RLYIO9UNNMNHJY5872P7","A6THOSGKI6HQC","39KMGHJ4RZW9S7JH7DZG09TNV4R00C","","","<img src=""img/flower5.png"" style=""width:200px;border:14px solid red;"">","null","","","","","",""
"928.9000000059605","","image-keyboard-response","369","290430","0.0-369.0","3907X2AHF1RLYIO9UNNMNHJY5872P7","A6THOSGKI6HQC","39KMGHJ4RZW9S7JH7DZG09TNV4R00C","","","img/flower5.png","75","929.8000000119209","2","0","3","0.7,0.2,0,0.7,0,0.2,0.2,0,0.7",""
"null","","html-keyboard-response","370","290731","0.0-370.0","3907X2AHF1RLYIO9UNNMNHJY5872P7","A6THOSGKI6HQC","39KMGHJ4RZW9S7JH7DZG09TNV4R00C","","","<img src=""img/flower5.png"" style=""width:200px;border:14px solid red;"">","null","","","","","",""
"1009.3999999761581","","image-keyboard-response","371","291742","0.0-371.0","3907X2AHF1RLYIO9UNNMNHJY5872P7","A6THOSGKI6HQC","39KMGHJ4RZW9S7JH7DZG09TNV4R00C","","","img/flower1.png","75","1010.4000000059605","2","0","1","0.7,0.2,0,0.7,0,0.2,0.2,0,0.7",""
"null","","html-keyboard-response","372","292044","0.0-372.0","3907X2AHF1RLYIO9UNNMNHJY5872P7","A6THOSGKI6HQC","39KMGHJ4RZW9S7JH7DZG09TNV4R00C","","","<img src=""img/flower1.png"" style=""width:200px;border:14px solid red;"">","null","","","","","",""
"849","","image-keyboard-response","373","292894","0.0-373.0","3907X2AHF1RLYIO9UNNMNHJY5872P7","A6THOSGKI6HQC","39KMGHJ4RZW9S7JH7DZG09TNV4R00C","","","img/flower5.png","75","849.7999999821186","2","0","3","0.7,0.2,0,0.7,0,0.2,0.2,0,0.7",""
"null","","html-keyboard-response","374","293196","0.0-374.0","3907X2AHF1RLYIO9UNNMNHJY5872P7","A6THOSGKI6HQC","39KMGHJ4RZW9S7JH7DZG09TNV4R00C","","","<img src=""img/flower5.png"" style=""width:200px;border:14px solid red;"">","null","","","","","",""
"23.69999998807907","","image-keyboard-response","375","293221","0.0-375.0","3907X2AHF1RLYIO9UNNMNHJY5872P7","A6THOSGKI6HQC","39KMGHJ4RZW9S7JH7DZG09TNV4R00C","","","img/flower3.png","76","24.599999994039536","3","1","2","0.7,0.2,0,0.7,0,0.2,0.2,0,0.7",""
"null","","html-keyboard-response","376","293523","0.0-376.0","3907X2AHF1RLYIO9UNNMNHJY5872P7","A6THOSGKI6HQC","39KMGHJ4RZW9S7JH7DZG09TNV4R00C","","","<img src=""img/flower3.png"" style=""width:200px; border:14px solid green;"">","null","","","","","",""
"192.59999999403954","","image-keyboard-response","377","293717","0.0-377.0","3907X2AHF1RLYIO9UNNMNHJY5872P7","A6THOSGKI6HQC","39KMGHJ4RZW9S7JH7DZG09TNV4R00C","","","img/flower1.png","74","193.2999999821186","1","1","1","0.7,0.2,0,0.7,0,0.2,0.2,0,0.7",""
"null","","html-keyboard-response","378","294019","0.0-378.0","3907X2AHF1RLYIO9UNNMNHJY5872P7","A6THOSGKI6HQC","39KMGHJ4RZW9S7JH7DZG09TNV4R00C","","","<img src=""img/flower1.png"" style=""width:200px; border:14px solid green;"">","null","","","","","",""
"41.20000001788139","","image-keyboard-response","379","294061","0.0-379.0","3907X2AHF1RLYIO9UNNMNHJY5872P7","A6THOSGKI6HQC","39KMGHJ4RZW9S7JH7DZG09TNV4R00C","","","img/flower1.png","75","41.900000005960464","2","0","1","0.7,0.2,0,0.7,0,0.2,0.2,0,0.7",""
"null","","html-keyboard-response","380","294364","0.0-380.0","3907X2AHF1RLYIO9UNNMNHJY5872P7","A6THOSGKI6HQC","39KMGHJ4RZW9S7JH7DZG09TNV4R00C","","","<img src=""img/flower1.png"" style=""width:200px;border:14px solid red;"">","null","","","","","",""
"288.59999999403954","","image-keyboard-response","381","294654","0.0-381.0","3907X2AHF1RLYIO9UNNMNHJY5872P7","A6THOSGKI6HQC","39KMGHJ4RZW9S7JH7DZG09TNV4R00C","","","img/flower1.png","74","289.5","1","0","1","0.7,0.2,0,0.7,0,0.2,0.2,0,0.7",""
"null","","html-keyboard-response","382","294956","0.0-382.0","3907X2AHF1RLYIO9UNNMNHJY5872P7","A6THOSGKI6HQC","39KMGHJ4RZW9S7JH7DZG09TNV4R00C","","","<img src=""img/flower1.png"" style=""width:200px;border:14px solid red;"">","null","","","","","",""
"80.69999998807907","","image-keyboard-response","383","295038","0.0-383.0","3907X2AHF1RLYIO9UNNMNHJY5872P7","A6THOSGKI6HQC","39KMGHJ4RZW9S7JH7DZG09TNV4R00C","","","img/flower3.png","76","81.59999999403954","3","0","2","0.7,0.2,0,0.7,0,0.2,0.2,0,0.7",""
"null","","html-keyboard-response","384","295340","0.0-384.0","3907X2AHF1RLYIO9UNNMNHJY5872P7","A6THOSGKI6HQC","39KMGHJ4RZW9S7JH7DZG09TNV4R00C","","","<img src=""img/flower3.png"" style=""width:200px;border:14px solid red;"">","null","","","","","",""
"464.80000001192093","","image-keyboard-response","385","295805","0.0-385.0","3907X2AHF1RLYIO9UNNMNHJY5872P7","A6THOSGKI6HQC","39KMGHJ4RZW9S7JH7DZG09TNV4R00C","","","img/flower3.png","75","465.7000000178814","2","0","2","0.7,0.2,0,0.7,0,0.2,0.2,0,0.7",""
"null","","html-keyboard-response","386","296107","0.0-386.0","3907X2AHF1RLYIO9UNNMNHJY5872P7","A6THOSGKI6HQC","39KMGHJ4RZW9S7JH7DZG09TNV4R00C","","","<img src=""img/flower3.png"" style=""width:200px;border:14px solid red;"">","null","","","","","",""
"481.2000000178814","","image-keyboard-response","387","296590","0.0-387.0","3907X2AHF1RLYIO9UNNMNHJY5872P7","A6THOSGKI6HQC","39KMGHJ4RZW9S7JH7DZG09TNV4R00C","","","img/flower1.png","74","482.09999999403954","1","0","1","0.7,0.2,0,0.7,0,0.2,0.2,0,0.7",""
"null","","html-keyboard-response","388","296892","0.0-388.0","3907X2AHF1RLYIO9UNNMNHJY5872P7","A6THOSGKI6HQC","39KMGHJ4RZW9S7JH7DZG09TNV4R00C","","","<img src=""img/flower1.png"" style=""width:200px;border:14px solid red;"">","null","","","","","",""
"15.599999994039536","","image-keyboard-response","389","296909","0.0-389.0","3907X2AHF1RLYIO9UNNMNHJY5872P7","A6THOSGKI6HQC","39KMGHJ4RZW9S7JH7DZG09TNV4R00C","","","img/flower5.png","74","16.5","1","0","3","0.7,0.2,0,0.7,0,0.2,0.2,0,0.7",""
"null","","html-keyboard-response","390","297211","0.0-390.0","3907X2AHF1RLYIO9UNNMNHJY5872P7","A6THOSGKI6HQC","39KMGHJ4RZW9S7JH7DZG09TNV4R00C","","","<img src=""img/flower5.png"" style=""width:200px;border:14px solid red;"">","null","","","","","",""
"1025.7000000178814","","image-keyboard-response","391","298238","0.0-391.0","3907X2AHF1RLYIO9UNNMNHJY5872P7","A6THOSGKI6HQC","39KMGHJ4RZW9S7JH7DZG09TNV4R00C","","","img/flower5.png","76","1026.5","3","1","3","0.7,0.2,0,0.7,0,0.2,0.2,0,0.7",""
"null","","html-keyboard-response","392","298540","0.0-392.0","3907X2AHF1RLYIO9UNNMNHJY5872P7","A6THOSGKI6HQC","39KMGHJ4RZW9S7JH7DZG09TNV4R00C","","","<img src=""img/flower5.png"" style=""width:200px; border:14px solid green;"">","null","","","","","",""
"664.3999999761581","","image-keyboard-response","393","299206","0.0-393.0","3907X2AHF1RLYIO9UNNMNHJY5872P7","A6THOSGKI6HQC","39KMGHJ4RZW9S7JH7DZG09TNV4R00C","","","img/flower5.png","74","665.3000000119209","1","0","3","0.7,0.2,0,0.7,0,0.2,0.2,0,0.7",""
"null","","html-keyboard-response","394","299508","0.0-394.0","3907X2AHF1RLYIO9UNNMNHJY5872P7","A6THOSGKI6HQC","39KMGHJ4RZW9S7JH7DZG09TNV4R00C","","","<img src=""img/flower5.png"" style=""width:200px;border:14px solid red;"">","null","","","","","",""
"96.80000001192093","","image-keyboard-response","395","299606","0.0-395.0","3907X2AHF1RLYIO9UNNMNHJY5872P7","A6THOSGKI6HQC","39KMGHJ4RZW9S7JH7DZG09TNV4R00C","","","img/flower1.png","75","97.69999998807907","2","0","1","0.7,0.2,0,0.7,0,0.2,0.2,0,0.7",""
"null","","html-keyboard-response","396","299909","0.0-396.0","3907X2AHF1RLYIO9UNNMNHJY5872P7","A6THOSGKI6HQC","39KMGHJ4RZW9S7JH7DZG09TNV4R00C","","","<img src=""img/flower1.png"" style=""width:200px;border:14px solid red;"">","null","","","","","",""
"311.39999997615814","","image-keyboard-response","397","300221","0.0-397.0","3907X2AHF1RLYIO9UNNMNHJY5872P7","A6THOSGKI6HQC","39KMGHJ4RZW9S7JH7DZG09TNV4R00C","","","img/flower3.png","74","312.19999998807907","1","1","2","0.7,0.2,0,0.7,0,0.2,0.2,0,0.7",""
"null","","html-keyboard-response","398","300523","0.0-398.0","3907X2AHF1RLYIO9UNNMNHJY5872P7","A6THOSGKI6HQC","39KMGHJ4RZW9S7JH7DZG09TNV4R00C","","","<img src=""img/flower3.png"" style=""width:200px; border:14px solid green;"">","null","","","","","",""
"33.30000001192093","","image-keyboard-response","399","300558","0.0-399.0","3907X2AHF1RLYIO9UNNMNHJY5872P7","A6THOSGKI6HQC","39KMGHJ4RZW9S7JH7DZG09TNV4R00C","","","img/flower5.png","76","34.19999998807907","3","1","3","0.7,0.2,0,0.7,0,0.2,0.2,0,0.7",""
"null","","html-keyboard-response","400","300860","0.0-400.0","3907X2AHF1RLYIO9UNNMNHJY5872P7","A6THOSGKI6HQC","39KMGHJ4RZW9S7JH7DZG09TNV4R00C","","","<img src=""img/flower5.png"" style=""width:200px; border:14px solid green;"">","null","","","","","",""
"480.09999999403954","","image-keyboard-response","401","301341","0.0-401.0","3907X2AHF1RLYIO9UNNMNHJY5872P7","A6THOSGKI6HQC","39KMGHJ4RZW9S7JH7DZG09TNV4R00C","","","img/flower1.png","76","480.90000000596046","3","0","1","0.7,0.2,0,0.7,0,0.2,0.2,0,0.7",""
"null","","html-keyboard-response","402","301644","0.0-402.0","3907X2AHF1RLYIO9UNNMNHJY5872P7","A6THOSGKI6HQC","39KMGHJ4RZW9S7JH7DZG09TNV4R00C","","","<img src=""img/flower1.png"" style=""width:200px;border:14px solid red;"">","null","","","","","",""
"488.09999999403954","","image-keyboard-response","403","302133","0.0-403.0","3907X2AHF1RLYIO9UNNMNHJY5872P7","A6THOSGKI6HQC","39KMGHJ4RZW9S7JH7DZG09TNV4R00C","","","img/flower5.png","75","488.7999999821186","2","0","3","0.7,0.2,0,0.7,0,0.2,0.2,0,0.7",""
"null","","html-keyboard-response","404","302436","0.0-404.0","3907X2AHF1RLYIO9UNNMNHJY5872P7","A6THOSGKI6HQC","39KMGHJ4RZW9S7JH7DZG09TNV4R00C","","","<img src=""img/flower5.png"" style=""width:200px;border:14px solid red;"">","null","","","","","",""
