"rt","url","trial_type","trial_index","time_elapsed","internal_node_id","assignmentID","mturkID","hitID","success","view_history","stimulus","key_press","reactionTime","a","r","s","reward_cond","responses"
"11411","consent.html","external-html","0","11532","0.0-0.0","3TS1AR6UQR0GT6WLMW8C7EM2EI67FP","AQ9Y6WD8O72ZC","37S0QRNUFB29SLTNXLPAM35NX0F88U","","","","","","","","","",""
"","","fullscreen","1","50462","0.0-1.0","3TS1AR6UQR0GT6WLMW8C7EM2EI67FP","AQ9Y6WD8O72ZC","37S0QRNUFB29SLTNXLPAM35NX0F88U","true","","","","","","","","",""
"116297","","instructions","2","166760","0.0-2.0","3TS1AR6UQR0GT6WLMW8C7EM2EI67FP","AQ9Y6WD8O72ZC","37S0QRNUFB29SLTNXLPAM35NX0F88U","","[{""page_index"":0,""viewing_time"":33963.79999999702},{""page_index"":1,""viewing_time"":5914.5},{""page_index"":2,""viewing_time"":11972.70000000298},{""page_index"":3,""viewing_time"":32503.39999999851},{""page_index"":2,""viewing_time"":1909.7999999970198},{""page_index"":3,""viewing_time"":3718},{""page_index"":4,""viewing_time"":5562.10000000149},{""page_index"":5,""viewing_time"":20751.80000000447}]","","","","","","","",""
"11892","","instructions","3","178653","0.0-3.0","3TS1AR6UQR0GT6WLMW8C7EM2EI67FP","AQ9Y6WD8O72ZC","37S0QRNUFB29SLTNXLPAM35NX0F88U","","[{""page_index"":0,""viewing_time"":11891.69999999553}]","","","","","","","",""
"1565.2000000029802","","image-keyboard-response","4","180220","0.0-4.0","3TS1AR6UQR0GT6WLMW8C7EM2EI67FP","AQ9Y6WD8O72ZC","37S0QRNUFB29SLTNXLPAM35NX0F88U","","","img/flower4.png","74","1567","1","1","1","",""
"null","","html-keyboard-response","5","180524","0.0-5.0","3TS1AR6UQR0GT6WLMW8C7EM2EI67FP","AQ9Y6WD8O72ZC","37S0QRNUFB29SLTNXLPAM35NX0F88U","","","<img src=""img/flower4.png"" style=""width:200px; border:14px solid green;"">","null","","","","","",""
"911.6000000014901","","image-keyboard-response","6","181437","0.0-6.0","3TS1AR6UQR0GT6WLMW8C7EM2EI67FP","AQ9Y6WD8O72ZC","37S0QRNUFB29SLTNXLPAM35NX0F88U","","","img/flower4.png","74","912.6000000014901","1","0","1","",""
"null","","html-keyboard-response","7","181751","0.0-7.0","3TS1AR6UQR0GT6WLMW8C7EM2EI67FP","AQ9Y6WD8O72ZC","37S0QRNUFB29SLTNXLPAM35NX0F88U","","","<img src=""img/flower4.png"" style=""width:200px;border:14px solid red;"">","null","","","","","",""
"921.5","","image-keyboard-response","8","182673","0.0-8.0","3TS1AR6UQR0GT6WLMW8C7EM2EI67FP","AQ9Y6WD8O72ZC","37S0QRNUFB29SLTNXLPAM35NX0F88U","","","img/flower4.png","74","922.1999999955297","1","1","1","",""
"null","","html-keyboard-response","9","182980","0.0-9.0","3TS1AR6UQR0GT6WLMW8C7EM2EI67FP","AQ9Y6WD8O72ZC","37S0QRNUFB29SLTNXLPAM35NX0F88U","","","<img src=""img/flower4.png"" style=""width:200px; border:14px solid green;"">","null","","","","","",""
"775.1000000014901","","image-keyboard-response","10","183756","0.0-10.0","3TS1AR6UQR0GT6WLMW8C7EM2EI67FP","AQ9Y6WD8O72ZC","37S0QRNUFB29SLTNXLPAM35NX0F88U","","","img/flower5.png","75","776","2","1","2","",""
"null","","html-keyboard-response","11","184063","0.0-11.0","3TS1AR6UQR0GT6WLMW8C7EM2EI67FP","AQ9Y6WD8O72ZC","37S0QRNUFB29SLTNXLPAM35NX0F88U","","","<img src=""img/flower5.png"" style=""width:200px; border:14px solid green;"">","null","","","","","",""
"562","","image-keyboard-response","12","184626","0.0-12.0","3TS1AR6UQR0GT6WLMW8C7EM2EI67FP","AQ9Y6WD8O72ZC","37S0QRNUFB29SLTNXLPAM35NX0F88U","","","img/flower5.png","75","562.8000000044703","2","1","2","",""
"null","","html-keyboard-response","13","184935","0.0-13.0","3TS1AR6UQR0GT6WLMW8C7EM2EI67FP","AQ9Y6WD8O72ZC","37S0QRNUFB29SLTNXLPAM35NX0F88U","","","<img src=""img/flower5.png"" style=""width:200px; border:14px solid green;"">","null","","","","","",""
"353.20000000298023","","image-keyboard-response","14","185289","0.0-14.0","3TS1AR6UQR0GT6WLMW8C7EM2EI67FP","AQ9Y6WD8O72ZC","37S0QRNUFB29SLTNXLPAM35NX0F88U","","","img/flower5.png","75","353.8999999985099","2","1","2","",""
"null","","html-keyboard-response","15","185605","0.0-15.0","3TS1AR6UQR0GT6WLMW8C7EM2EI67FP","AQ9Y6WD8O72ZC","37S0QRNUFB29SLTNXLPAM35NX0F88U","","","<img src=""img/flower5.png"" style=""width:200px; border:14px solid green;"">","null","","","","","",""
"742","","image-keyboard-response","16","186348","0.0-16.0","3TS1AR6UQR0GT6WLMW8C7EM2EI67FP","AQ9Y6WD8O72ZC","37S0QRNUFB29SLTNXLPAM35NX0F88U","","","img/flower4.png","74","742.9000000059605","1","1","1","",""
"null","","html-keyboard-response","17","186658","0.0-17.0","3TS1AR6UQR0GT6WLMW8C7EM2EI67FP","AQ9Y6WD8O72ZC","37S0QRNUFB29SLTNXLPAM35NX0F88U","","","<img src=""img/flower4.png"" style=""width:200px; border:14px solid green;"">","null","","","","","",""
"478","","image-keyboard-response","18","187137","0.0-18.0","3TS1AR6UQR0GT6WLMW8C7EM2EI67FP","AQ9Y6WD8O72ZC","37S0QRNUFB29SLTNXLPAM35NX0F88U","","","img/flower5.png","75","478.6000000014901","2","1","2","",""
"null","","html-keyboard-response","19","187452","0.0-19.0","3TS1AR6UQR0GT6WLMW8C7EM2EI67FP","AQ9Y6WD8O72ZC","37S0QRNUFB29SLTNXLPAM35NX0F88U","","","<img src=""img/flower5.png"" style=""width:200px; border:14px solid green;"">","null","","","","","",""
"729.8999999985099","","image-keyboard-response","20","188182","0.0-20.0","3TS1AR6UQR0GT6WLMW8C7EM2EI67FP","AQ9Y6WD8O72ZC","37S0QRNUFB29SLTNXLPAM35NX0F88U","","","img/flower6.png","76","730.5","3","0","3","",""
"null","","html-keyboard-response","21","188497","0.0-21.0","3TS1AR6UQR0GT6WLMW8C7EM2EI67FP","AQ9Y6WD8O72ZC","37S0QRNUFB29SLTNXLPAM35NX0F88U","","","<img src=""img/flower6.png"" style=""width:200px;border:14px solid red;"">","null","","","","","",""
"607.2000000029802","","image-keyboard-response","22","189105","0.0-22.0","3TS1AR6UQR0GT6WLMW8C7EM2EI67FP","AQ9Y6WD8O72ZC","37S0QRNUFB29SLTNXLPAM35NX0F88U","","","img/flower6.png","76","607.8999999985099","3","0","3","",""
"null","","html-keyboard-response","23","189417","0.0-23.0","3TS1AR6UQR0GT6WLMW8C7EM2EI67FP","AQ9Y6WD8O72ZC","37S0QRNUFB29SLTNXLPAM35NX0F88U","","","<img src=""img/flower6.png"" style=""width:200px;border:14px solid red;"">","null","","","","","",""
"338.3999999985099","","image-keyboard-response","24","189756","0.0-24.0","3TS1AR6UQR0GT6WLMW8C7EM2EI67FP","AQ9Y6WD8O72ZC","37S0QRNUFB29SLTNXLPAM35NX0F88U","","","img/flower6.png","76","339.19999999552965","3","1","3","",""
"null","","html-keyboard-response","25","190070","0.0-25.0","3TS1AR6UQR0GT6WLMW8C7EM2EI67FP","AQ9Y6WD8O72ZC","37S0QRNUFB29SLTNXLPAM35NX0F88U","","","<img src=""img/flower6.png"" style=""width:200px; border:14px solid green;"">","null","","","","","",""
"758.8000000044703","","image-keyboard-response","26","190830","0.0-26.0","3TS1AR6UQR0GT6WLMW8C7EM2EI67FP","AQ9Y6WD8O72ZC","37S0QRNUFB29SLTNXLPAM35NX0F88U","","","img/flower5.png","75","759.5","2","1","2","",""
"null","","html-keyboard-response","27","191132","0.0-27.0","3TS1AR6UQR0GT6WLMW8C7EM2EI67FP","AQ9Y6WD8O72ZC","37S0QRNUFB29SLTNXLPAM35NX0F88U","","","<img src=""img/flower5.png"" style=""width:200px; border:14px solid green;"">","null","","","","","",""
"694","","image-keyboard-response","28","191826","0.0-28.0","3TS1AR6UQR0GT6WLMW8C7EM2EI67FP","AQ9Y6WD8O72ZC","37S0QRNUFB29SLTNXLPAM35NX0F88U","","","img/flower6.png","76","694.5","3","0","3","",""
"null","","html-keyboard-response","29","192142","0.0-29.0","3TS1AR6UQR0GT6WLMW8C7EM2EI67FP","AQ9Y6WD8O72ZC","37S0QRNUFB29SLTNXLPAM35NX0F88U","","","<img src=""img/flower6.png"" style=""width:200px;border:14px solid red;"">","null","","","","","",""
"867.1999999955297","","image-keyboard-response","30","193010","0.0-30.0","3TS1AR6UQR0GT6WLMW8C7EM2EI67FP","AQ9Y6WD8O72ZC","37S0QRNUFB29SLTNXLPAM35NX0F88U","","","img/flower5.png","75","868","2","1","2","",""
"null","","html-keyboard-response","31","193318","0.0-31.0","3TS1AR6UQR0GT6WLMW8C7EM2EI67FP","AQ9Y6WD8O72ZC","37S0QRNUFB29SLTNXLPAM35NX0F88U","","","<img src=""img/flower5.png"" style=""width:200px; border:14px solid green;"">","null","","","","","",""
"764.5","","image-keyboard-response","32","194083","0.0-32.0","3TS1AR6UQR0GT6WLMW8C7EM2EI67FP","AQ9Y6WD8O72ZC","37S0QRNUFB29SLTNXLPAM35NX0F88U","","","img/flower4.png","74","765","1","1","1","",""
"null","","html-keyboard-response","33","194394","0.0-33.0","3TS1AR6UQR0GT6WLMW8C7EM2EI67FP","AQ9Y6WD8O72ZC","37S0QRNUFB29SLTNXLPAM35NX0F88U","","","<img src=""img/flower4.png"" style=""width:200px; border:14px solid green;"">","null","","","","","",""
"668.3999999985099","","image-keyboard-response","34","195063","0.0-34.0","3TS1AR6UQR0GT6WLMW8C7EM2EI67FP","AQ9Y6WD8O72ZC","37S0QRNUFB29SLTNXLPAM35NX0F88U","","","img/flower4.png","74","669.3999999985099","1","1","1","",""
"null","","html-keyboard-response","35","195368","0.0-35.0","3TS1AR6UQR0GT6WLMW8C7EM2EI67FP","AQ9Y6WD8O72ZC","37S0QRNUFB29SLTNXLPAM35NX0F88U","","","<img src=""img/flower4.png"" style=""width:200px; border:14px solid green;"">","null","","","","","",""
"766.1000000014901","","image-keyboard-response","36","196135","0.0-36.0","3TS1AR6UQR0GT6WLMW8C7EM2EI67FP","AQ9Y6WD8O72ZC","37S0QRNUFB29SLTNXLPAM35NX0F88U","","","img/flower6.png","76","766.9000000059605","3","1","3","",""
"null","","html-keyboard-response","37","196450","0.0-37.0","3TS1AR6UQR0GT6WLMW8C7EM2EI67FP","AQ9Y6WD8O72ZC","37S0QRNUFB29SLTNXLPAM35NX0F88U","","","<img src=""img/flower6.png"" style=""width:200px; border:14px solid green;"">","null","","","","","",""
"516.3000000044703","","image-keyboard-response","38","196967","0.0-38.0","3TS1AR6UQR0GT6WLMW8C7EM2EI67FP","AQ9Y6WD8O72ZC","37S0QRNUFB29SLTNXLPAM35NX0F88U","","","img/flower6.png","76","517.1000000014901","3","1","3","",""
"null","","html-keyboard-response","39","197282","0.0-39.0","3TS1AR6UQR0GT6WLMW8C7EM2EI67FP","AQ9Y6WD8O72ZC","37S0QRNUFB29SLTNXLPAM35NX0F88U","","","<img src=""img/flower6.png"" style=""width:200px; border:14px solid green;"">","null","","","","","",""
"524.3000000044703","","image-keyboard-response","40","197807","0.0-40.0","3TS1AR6UQR0GT6WLMW8C7EM2EI67FP","AQ9Y6WD8O72ZC","37S0QRNUFB29SLTNXLPAM35NX0F88U","","","img/flower5.png","75","525.0999999940395","2","1","2","",""
"null","","html-keyboard-response","41","198119","0.0-41.0","3TS1AR6UQR0GT6WLMW8C7EM2EI67FP","AQ9Y6WD8O72ZC","37S0QRNUFB29SLTNXLPAM35NX0F88U","","","<img src=""img/flower5.png"" style=""width:200px; border:14px solid green;"">","null","","","","","",""
"637.7000000029802","","image-keyboard-response","42","198758","0.0-42.0","3TS1AR6UQR0GT6WLMW8C7EM2EI67FP","AQ9Y6WD8O72ZC","37S0QRNUFB29SLTNXLPAM35NX0F88U","","","img/flower4.png","74","638.7000000029802","1","1","1","",""
"null","","html-keyboard-response","43","199064","0.0-43.0","3TS1AR6UQR0GT6WLMW8C7EM2EI67FP","AQ9Y6WD8O72ZC","37S0QRNUFB29SLTNXLPAM35NX0F88U","","","<img src=""img/flower4.png"" style=""width:200px; border:14px solid green;"">","null","","","","","",""
"694.6000000014901","","image-keyboard-response","44","199760","0.0-44.0","3TS1AR6UQR0GT6WLMW8C7EM2EI67FP","AQ9Y6WD8O72ZC","37S0QRNUFB29SLTNXLPAM35NX0F88U","","","img/flower6.png","76","695.3999999985099","3","1","3","",""
"null","","html-keyboard-response","45","200067","0.0-45.0","3TS1AR6UQR0GT6WLMW8C7EM2EI67FP","AQ9Y6WD8O72ZC","37S0QRNUFB29SLTNXLPAM35NX0F88U","","","<img src=""img/flower6.png"" style=""width:200px; border:14px solid green;"">","null","","","","","",""
"650.7999999970198","","image-keyboard-response","46","200719","0.0-46.0","3TS1AR6UQR0GT6WLMW8C7EM2EI67FP","AQ9Y6WD8O72ZC","37S0QRNUFB29SLTNXLPAM35NX0F88U","","","img/flower5.png","75","651.7999999970198","2","1","2","",""
"null","","html-keyboard-response","47","201034","0.0-47.0","3TS1AR6UQR0GT6WLMW8C7EM2EI67FP","AQ9Y6WD8O72ZC","37S0QRNUFB29SLTNXLPAM35NX0F88U","","","<img src=""img/flower5.png"" style=""width:200px; border:14px solid green;"">","null","","","","","",""
"435","","image-keyboard-response","48","201470","0.0-48.0","3TS1AR6UQR0GT6WLMW8C7EM2EI67FP","AQ9Y6WD8O72ZC","37S0QRNUFB29SLTNXLPAM35NX0F88U","","","img/flower5.png","75","435.70000000298023","2","1","2","",""
"null","","html-keyboard-response","49","201780","0.0-49.0","3TS1AR6UQR0GT6WLMW8C7EM2EI67FP","AQ9Y6WD8O72ZC","37S0QRNUFB29SLTNXLPAM35NX0F88U","","","<img src=""img/flower5.png"" style=""width:200px; border:14px solid green;"">","null","","","","","",""
"721.5","","image-keyboard-response","50","202503","0.0-50.0","3TS1AR6UQR0GT6WLMW8C7EM2EI67FP","AQ9Y6WD8O72ZC","37S0QRNUFB29SLTNXLPAM35NX0F88U","","","img/flower6.png","76","722.5999999940395","3","1","3","",""
"null","","html-keyboard-response","51","202806","0.0-51.0","3TS1AR6UQR0GT6WLMW8C7EM2EI67FP","AQ9Y6WD8O72ZC","37S0QRNUFB29SLTNXLPAM35NX0F88U","","","<img src=""img/flower6.png"" style=""width:200px; border:14px solid green;"">","null","","","","","",""
"541.8999999985099","","image-keyboard-response","52","203349","0.0-52.0","3TS1AR6UQR0GT6WLMW8C7EM2EI67FP","AQ9Y6WD8O72ZC","37S0QRNUFB29SLTNXLPAM35NX0F88U","","","img/flower4.png","74","542.6000000014901","1","1","1","",""
"null","","html-keyboard-response","53","203664","0.0-53.0","3TS1AR6UQR0GT6WLMW8C7EM2EI67FP","AQ9Y6WD8O72ZC","37S0QRNUFB29SLTNXLPAM35NX0F88U","","","<img src=""img/flower4.png"" style=""width:200px; border:14px solid green;"">","null","","","","","",""
"738.6000000014901","","image-keyboard-response","54","204403","0.0-54.0","3TS1AR6UQR0GT6WLMW8C7EM2EI67FP","AQ9Y6WD8O72ZC","37S0QRNUFB29SLTNXLPAM35NX0F88U","","","img/flower5.png","75","739.5","2","1","2","",""
"null","","html-keyboard-response","55","204720","0.0-55.0","3TS1AR6UQR0GT6WLMW8C7EM2EI67FP","AQ9Y6WD8O72ZC","37S0QRNUFB29SLTNXLPAM35NX0F88U","","","<img src=""img/flower5.png"" style=""width:200px; border:14px solid green;"">","null","","","","","",""
"621.6999999955297","","image-keyboard-response","56","205342","0.0-56.0","3TS1AR6UQR0GT6WLMW8C7EM2EI67FP","AQ9Y6WD8O72ZC","37S0QRNUFB29SLTNXLPAM35NX0F88U","","","img/flower6.png","76","622.6000000014901","3","1","3","",""
"null","","html-keyboard-response","57","205653","0.0-57.0","3TS1AR6UQR0GT6WLMW8C7EM2EI67FP","AQ9Y6WD8O72ZC","37S0QRNUFB29SLTNXLPAM35NX0F88U","","","<img src=""img/flower6.png"" style=""width:200px; border:14px solid green;"">","null","","","","","",""
"652.8000000044703","","image-keyboard-response","58","206307","0.0-58.0","3TS1AR6UQR0GT6WLMW8C7EM2EI67FP","AQ9Y6WD8O72ZC","37S0QRNUFB29SLTNXLPAM35NX0F88U","","","img/flower4.png","74","653.6000000014901","1","1","1","",""
"null","","html-keyboard-response","59","206617","0.0-59.0","3TS1AR6UQR0GT6WLMW8C7EM2EI67FP","AQ9Y6WD8O72ZC","37S0QRNUFB29SLTNXLPAM35NX0F88U","","","<img src=""img/flower4.png"" style=""width:200px; border:14px solid green;"">","null","","","","","",""
"484.8999999985099","","image-keyboard-response","60","207103","0.0-60.0","3TS1AR6UQR0GT6WLMW8C7EM2EI67FP","AQ9Y6WD8O72ZC","37S0QRNUFB29SLTNXLPAM35NX0F88U","","","img/flower4.png","74","485.79999999701977","1","1","1","",""
"null","","html-keyboard-response","61","207416","0.0-61.0","3TS1AR6UQR0GT6WLMW8C7EM2EI67FP","AQ9Y6WD8O72ZC","37S0QRNUFB29SLTNXLPAM35NX0F88U","","","<img src=""img/flower4.png"" style=""width:200px; border:14px solid green;"">","null","","","","","",""
"662.5","","image-keyboard-response","62","208079","0.0-62.0","3TS1AR6UQR0GT6WLMW8C7EM2EI67FP","AQ9Y6WD8O72ZC","37S0QRNUFB29SLTNXLPAM35NX0F88U","","","img/flower6.png","76","663.3999999985099","3","0","3","",""
"null","","html-keyboard-response","63","208395","0.0-63.0","3TS1AR6UQR0GT6WLMW8C7EM2EI67FP","AQ9Y6WD8O72ZC","37S0QRNUFB29SLTNXLPAM35NX0F88U","","","<img src=""img/flower6.png"" style=""width:200px;border:14px solid red;"">","null","","","","","",""
"11265.29999999702","","instructions","64","219661","0.0-64.0","3TS1AR6UQR0GT6WLMW8C7EM2EI67FP","AQ9Y6WD8O72ZC","37S0QRNUFB29SLTNXLPAM35NX0F88U","","[{""page_index"":0,""viewing_time"":2951.39999999851},{""page_index"":1,""viewing_time"":8313.60000000149}]","","","","","","","",""
"1075.8999999985099","","image-keyboard-response","65","220738","0.0-65.0","3TS1AR6UQR0GT6WLMW8C7EM2EI67FP","AQ9Y6WD8O72ZC","37S0QRNUFB29SLTNXLPAM35NX0F88U","","","img/flower6.png","74","1076.7999999970198","1","1","3","",""
"null","","html-keyboard-response","66","221042","0.0-66.0","3TS1AR6UQR0GT6WLMW8C7EM2EI67FP","AQ9Y6WD8O72ZC","37S0QRNUFB29SLTNXLPAM35NX0F88U","","","<img src=""img/flower6.png"" style=""width:200px; border:14px solid green;"">","null","","","","","",""
"1225.3999999985099","","image-keyboard-response","67","222268","0.0-67.0","3TS1AR6UQR0GT6WLMW8C7EM2EI67FP","AQ9Y6WD8O72ZC","37S0QRNUFB29SLTNXLPAM35NX0F88U","","","img/flower5.png","75","1226","2","1","2","",""
"null","","html-keyboard-response","68","222576","0.0-68.0","3TS1AR6UQR0GT6WLMW8C7EM2EI67FP","AQ9Y6WD8O72ZC","37S0QRNUFB29SLTNXLPAM35NX0F88U","","","<img src=""img/flower5.png"" style=""width:200px; border:14px solid green;"">","null","","","","","",""
"805.6000000014901","","image-keyboard-response","69","223382","0.0-69.0","3TS1AR6UQR0GT6WLMW8C7EM2EI67FP","AQ9Y6WD8O72ZC","37S0QRNUFB29SLTNXLPAM35NX0F88U","","","img/flower4.png","74","806.2999999970198","1","1","1","",""
"null","","html-keyboard-response","70","223689","0.0-70.0","3TS1AR6UQR0GT6WLMW8C7EM2EI67FP","AQ9Y6WD8O72ZC","37S0QRNUFB29SLTNXLPAM35NX0F88U","","","<img src=""img/flower4.png"" style=""width:200px; border:14px solid green;"">","null","","","","","",""
"1007.9000000059605","","image-keyboard-response","71","224699","0.0-71.0","3TS1AR6UQR0GT6WLMW8C7EM2EI67FP","AQ9Y6WD8O72ZC","37S0QRNUFB29SLTNXLPAM35NX0F88U","","","img/flower4.png","75","1009","2","1","1","",""
"null","","html-keyboard-response","72","225015","0.0-72.0","3TS1AR6UQR0GT6WLMW8C7EM2EI67FP","AQ9Y6WD8O72ZC","37S0QRNUFB29SLTNXLPAM35NX0F88U","","","<img src=""img/flower4.png"" style=""width:200px; border:14px solid green;"">","null","","","","","",""
"703.7000000029802","","image-keyboard-response","73","225720","0.0-73.0","3TS1AR6UQR0GT6WLMW8C7EM2EI67FP","AQ9Y6WD8O72ZC","37S0QRNUFB29SLTNXLPAM35NX0F88U","","","img/flower5.png","75","704.6000000014901","2","1","2","",""
"null","","html-keyboard-response","74","226027","0.0-74.0","3TS1AR6UQR0GT6WLMW8C7EM2EI67FP","AQ9Y6WD8O72ZC","37S0QRNUFB29SLTNXLPAM35NX0F88U","","","<img src=""img/flower5.png"" style=""width:200px; border:14px solid green;"">","null","","","","","",""
"584.9000000059605","","image-keyboard-response","75","226612","0.0-75.0","3TS1AR6UQR0GT6WLMW8C7EM2EI67FP","AQ9Y6WD8O72ZC","37S0QRNUFB29SLTNXLPAM35NX0F88U","","","img/flower4.png","74","585.6000000014901","1","1","1","",""
"null","","html-keyboard-response","76","226919","0.0-76.0","3TS1AR6UQR0GT6WLMW8C7EM2EI67FP","AQ9Y6WD8O72ZC","37S0QRNUFB29SLTNXLPAM35NX0F88U","","","<img src=""img/flower4.png"" style=""width:200px; border:14px solid green;"">","null","","","","","",""
"520.1000000014901","","image-keyboard-response","77","227440","0.0-77.0","3TS1AR6UQR0GT6WLMW8C7EM2EI67FP","AQ9Y6WD8O72ZC","37S0QRNUFB29SLTNXLPAM35NX0F88U","","","img/flower4.png","74","520.8999999985099","1","1","1","",""
"null","","html-keyboard-response","78","227743","0.0-78.0","3TS1AR6UQR0GT6WLMW8C7EM2EI67FP","AQ9Y6WD8O72ZC","37S0QRNUFB29SLTNXLPAM35NX0F88U","","","<img src=""img/flower4.png"" style=""width:200px; border:14px solid green;"">","null","","","","","",""
"484.79999999701977","","image-keyboard-response","79","228229","0.0-79.0","3TS1AR6UQR0GT6WLMW8C7EM2EI67FP","AQ9Y6WD8O72ZC","37S0QRNUFB29SLTNXLPAM35NX0F88U","","","img/flower4.png","74","485.5","1","1","1","",""
"null","","html-keyboard-response","80","228531","0.0-80.0","3TS1AR6UQR0GT6WLMW8C7EM2EI67FP","AQ9Y6WD8O72ZC","37S0QRNUFB29SLTNXLPAM35NX0F88U","","","<img src=""img/flower4.png"" style=""width:200px; border:14px solid green;"">","null","","","","","",""
"483","","image-keyboard-response","81","229015","0.0-81.0","3TS1AR6UQR0GT6WLMW8C7EM2EI67FP","AQ9Y6WD8O72ZC","37S0QRNUFB29SLTNXLPAM35NX0F88U","","","img/flower4.png","74","483.69999999552965","1","1","1","",""
"null","","html-keyboard-response","82","229325","0.0-82.0","3TS1AR6UQR0GT6WLMW8C7EM2EI67FP","AQ9Y6WD8O72ZC","37S0QRNUFB29SLTNXLPAM35NX0F88U","","","<img src=""img/flower4.png"" style=""width:200px; border:14px solid green;"">","null","","","","","",""
"349.90000000596046","","image-keyboard-response","83","229675","0.0-83.0","3TS1AR6UQR0GT6WLMW8C7EM2EI67FP","AQ9Y6WD8O72ZC","37S0QRNUFB29SLTNXLPAM35NX0F88U","","","img/flower4.png","74","350.69999999552965","1","1","1","",""
"null","","html-keyboard-response","84","229980","0.0-84.0","3TS1AR6UQR0GT6WLMW8C7EM2EI67FP","AQ9Y6WD8O72ZC","37S0QRNUFB29SLTNXLPAM35NX0F88U","","","<img src=""img/flower4.png"" style=""width:200px; border:14px solid green;"">","null","","","","","",""
"605.7999999970198","","image-keyboard-response","85","230587","0.0-85.0","3TS1AR6UQR0GT6WLMW8C7EM2EI67FP","AQ9Y6WD8O72ZC","37S0QRNUFB29SLTNXLPAM35NX0F88U","","","img/flower6.png","76","606.2999999970198","3","1","3","",""
"null","","html-keyboard-response","86","230891","0.0-86.0","3TS1AR6UQR0GT6WLMW8C7EM2EI67FP","AQ9Y6WD8O72ZC","37S0QRNUFB29SLTNXLPAM35NX0F88U","","","<img src=""img/flower6.png"" style=""width:200px; border:14px solid green;"">","null","","","","","",""
"416","","image-keyboard-response","87","231308","0.0-87.0","3TS1AR6UQR0GT6WLMW8C7EM2EI67FP","AQ9Y6WD8O72ZC","37S0QRNUFB29SLTNXLPAM35NX0F88U","","","img/flower6.png","76","416.69999999552965","3","0","3","",""
"null","","html-keyboard-response","88","231620","0.0-88.0","3TS1AR6UQR0GT6WLMW8C7EM2EI67FP","AQ9Y6WD8O72ZC","37S0QRNUFB29SLTNXLPAM35NX0F88U","","","<img src=""img/flower6.png"" style=""width:200px;border:14px solid red;"">","null","","","","","",""
"521.1000000014901","","image-keyboard-response","89","232142","0.0-89.0","3TS1AR6UQR0GT6WLMW8C7EM2EI67FP","AQ9Y6WD8O72ZC","37S0QRNUFB29SLTNXLPAM35NX0F88U","","","img/flower6.png","76","521.8000000044703","3","0","3","",""
"null","","html-keyboard-response","90","232456","0.0-90.0","3TS1AR6UQR0GT6WLMW8C7EM2EI67FP","AQ9Y6WD8O72ZC","37S0QRNUFB29SLTNXLPAM35NX0F88U","","","<img src=""img/flower6.png"" style=""width:200px;border:14px solid red;"">","null","","","","","",""
"628.1999999955297","","image-keyboard-response","91","233085","0.0-91.0","3TS1AR6UQR0GT6WLMW8C7EM2EI67FP","AQ9Y6WD8O72ZC","37S0QRNUFB29SLTNXLPAM35NX0F88U","","","img/flower5.png","75","628.7999999970198","2","1","2","",""
"null","","html-keyboard-response","92","233387","0.0-92.0","3TS1AR6UQR0GT6WLMW8C7EM2EI67FP","AQ9Y6WD8O72ZC","37S0QRNUFB29SLTNXLPAM35NX0F88U","","","<img src=""img/flower5.png"" style=""width:200px; border:14px solid green;"">","null","","","","","",""
"749.6999999955297","","image-keyboard-response","93","234137","0.0-93.0","3TS1AR6UQR0GT6WLMW8C7EM2EI67FP","AQ9Y6WD8O72ZC","37S0QRNUFB29SLTNXLPAM35NX0F88U","","","img/flower6.png","76","750.3000000044703","3","0","3","",""
"null","","html-keyboard-response","94","234440","0.0-94.0","3TS1AR6UQR0GT6WLMW8C7EM2EI67FP","AQ9Y6WD8O72ZC","37S0QRNUFB29SLTNXLPAM35NX0F88U","","","<img src=""img/flower6.png"" style=""width:200px;border:14px solid red;"">","null","","","","","",""
"315.69999999552965","","image-keyboard-response","95","234757","0.0-95.0","3TS1AR6UQR0GT6WLMW8C7EM2EI67FP","AQ9Y6WD8O72ZC","37S0QRNUFB29SLTNXLPAM35NX0F88U","","","img/flower6.png","76","316.3999999985099","3","0","3","",""
"null","","html-keyboard-response","96","235073","0.0-96.0","3TS1AR6UQR0GT6WLMW8C7EM2EI67FP","AQ9Y6WD8O72ZC","37S0QRNUFB29SLTNXLPAM35NX0F88U","","","<img src=""img/flower6.png"" style=""width:200px;border:14px solid red;"">","null","","","","","",""
"482.79999999701977","","image-keyboard-response","97","235557","0.0-97.0","3TS1AR6UQR0GT6WLMW8C7EM2EI67FP","AQ9Y6WD8O72ZC","37S0QRNUFB29SLTNXLPAM35NX0F88U","","","img/flower5.png","75","483.5","2","1","2","",""
"null","","html-keyboard-response","98","235864","0.0-98.0","3TS1AR6UQR0GT6WLMW8C7EM2EI67FP","AQ9Y6WD8O72ZC","37S0QRNUFB29SLTNXLPAM35NX0F88U","","","<img src=""img/flower5.png"" style=""width:200px; border:14px solid green;"">","null","","","","","",""
"409.19999999552965","","image-keyboard-response","99","236274","0.0-99.0","3TS1AR6UQR0GT6WLMW8C7EM2EI67FP","AQ9Y6WD8O72ZC","37S0QRNUFB29SLTNXLPAM35NX0F88U","","","img/flower5.png","75","410","2","1","2","",""
"null","","html-keyboard-response","100","236578","0.0-100.0","3TS1AR6UQR0GT6WLMW8C7EM2EI67FP","AQ9Y6WD8O72ZC","37S0QRNUFB29SLTNXLPAM35NX0F88U","","","<img src=""img/flower5.png"" style=""width:200px; border:14px solid green;"">","null","","","","","",""
"599.8999999985099","","image-keyboard-response","101","237179","0.0-101.0","3TS1AR6UQR0GT6WLMW8C7EM2EI67FP","AQ9Y6WD8O72ZC","37S0QRNUFB29SLTNXLPAM35NX0F88U","","","img/flower5.png","75","600.8999999985099","2","1","2","",""
"null","","html-keyboard-response","102","237495","0.0-102.0","3TS1AR6UQR0GT6WLMW8C7EM2EI67FP","AQ9Y6WD8O72ZC","37S0QRNUFB29SLTNXLPAM35NX0F88U","","","<img src=""img/flower5.png"" style=""width:200px; border:14px solid green;"">","null","","","","","",""
"411.8999999985099","","image-keyboard-response","103","237907","0.0-103.0","3TS1AR6UQR0GT6WLMW8C7EM2EI67FP","AQ9Y6WD8O72ZC","37S0QRNUFB29SLTNXLPAM35NX0F88U","","","img/flower5.png","75","412.5","2","1","2","",""
"null","","html-keyboard-response","104","238223","0.0-104.0","3TS1AR6UQR0GT6WLMW8C7EM2EI67FP","AQ9Y6WD8O72ZC","37S0QRNUFB29SLTNXLPAM35NX0F88U","","","<img src=""img/flower5.png"" style=""width:200px; border:14px solid green;"">","null","","","","","",""
"598.2000000029802","","image-keyboard-response","105","238822","0.0-105.0","3TS1AR6UQR0GT6WLMW8C7EM2EI67FP","AQ9Y6WD8O72ZC","37S0QRNUFB29SLTNXLPAM35NX0F88U","","","img/flower6.png","76","598.7999999970198","3","1","3","",""
"null","","html-keyboard-response","106","239124","0.0-106.0","3TS1AR6UQR0GT6WLMW8C7EM2EI67FP","AQ9Y6WD8O72ZC","37S0QRNUFB29SLTNXLPAM35NX0F88U","","","<img src=""img/flower6.png"" style=""width:200px; border:14px solid green;"">","null","","","","","",""
"520.6000000014901","","image-keyboard-response","107","239646","0.0-107.0","3TS1AR6UQR0GT6WLMW8C7EM2EI67FP","AQ9Y6WD8O72ZC","37S0QRNUFB29SLTNXLPAM35NX0F88U","","","img/flower4.png","74","521.5","1","0","1","",""
"null","","html-keyboard-response","108","239953","0.0-108.0","3TS1AR6UQR0GT6WLMW8C7EM2EI67FP","AQ9Y6WD8O72ZC","37S0QRNUFB29SLTNXLPAM35NX0F88U","","","<img src=""img/flower4.png"" style=""width:200px;border:14px solid red;"">","null","","","","","",""
"573.1000000014901","","image-keyboard-response","109","240527","0.0-109.0","3TS1AR6UQR0GT6WLMW8C7EM2EI67FP","AQ9Y6WD8O72ZC","37S0QRNUFB29SLTNXLPAM35NX0F88U","","","img/flower6.png","76","574","3","1","3","",""
"null","","html-keyboard-response","110","240837","0.0-110.0","3TS1AR6UQR0GT6WLMW8C7EM2EI67FP","AQ9Y6WD8O72ZC","37S0QRNUFB29SLTNXLPAM35NX0F88U","","","<img src=""img/flower6.png"" style=""width:200px; border:14px solid green;"">","null","","","","","",""
"615.1000000014901","","image-keyboard-response","111","241453","0.0-111.0","3TS1AR6UQR0GT6WLMW8C7EM2EI67FP","AQ9Y6WD8O72ZC","37S0QRNUFB29SLTNXLPAM35NX0F88U","","","img/flower6.png","76","615.9000000059605","3","1","3","",""
"null","","html-keyboard-response","112","241758","0.0-112.0","3TS1AR6UQR0GT6WLMW8C7EM2EI67FP","AQ9Y6WD8O72ZC","37S0QRNUFB29SLTNXLPAM35NX0F88U","","","<img src=""img/flower6.png"" style=""width:200px; border:14px solid green;"">","null","","","","","",""
"564.1000000014901","","image-keyboard-response","113","242324","0.0-113.0","3TS1AR6UQR0GT6WLMW8C7EM2EI67FP","AQ9Y6WD8O72ZC","37S0QRNUFB29SLTNXLPAM35NX0F88U","","","img/flower5.png","75","564.8999999985099","2","0","2","",""
"null","","html-keyboard-response","114","242626","0.0-114.0","3TS1AR6UQR0GT6WLMW8C7EM2EI67FP","AQ9Y6WD8O72ZC","37S0QRNUFB29SLTNXLPAM35NX0F88U","","","<img src=""img/flower5.png"" style=""width:200px;border:14px solid red;"">","null","","","","","",""
"564.2999999970198","","image-keyboard-response","115","243191","0.0-115.0","3TS1AR6UQR0GT6WLMW8C7EM2EI67FP","AQ9Y6WD8O72ZC","37S0QRNUFB29SLTNXLPAM35NX0F88U","","","img/flower4.png","74","565","1","1","1","",""
"null","","html-keyboard-response","116","243506","0.0-116.0","3TS1AR6UQR0GT6WLMW8C7EM2EI67FP","AQ9Y6WD8O72ZC","37S0QRNUFB29SLTNXLPAM35NX0F88U","","","<img src=""img/flower4.png"" style=""width:200px; border:14px solid green;"">","null","","","","","",""
"685","","image-keyboard-response","117","244192","0.0-117.0","3TS1AR6UQR0GT6WLMW8C7EM2EI67FP","AQ9Y6WD8O72ZC","37S0QRNUFB29SLTNXLPAM35NX0F88U","","","img/flower6.png","76","685.8000000044703","3","1","3","",""
"null","","html-keyboard-response","118","244501","0.0-118.0","3TS1AR6UQR0GT6WLMW8C7EM2EI67FP","AQ9Y6WD8O72ZC","37S0QRNUFB29SLTNXLPAM35NX0F88U","","","<img src=""img/flower6.png"" style=""width:200px; border:14px solid green;"">","null","","","","","",""
"633.5","","image-keyboard-response","119","245136","0.0-119.0","3TS1AR6UQR0GT6WLMW8C7EM2EI67FP","AQ9Y6WD8O72ZC","37S0QRNUFB29SLTNXLPAM35NX0F88U","","","img/flower4.png","74","634.2999999970198","1","1","1","",""
"null","","html-keyboard-response","120","245448","0.0-120.0","3TS1AR6UQR0GT6WLMW8C7EM2EI67FP","AQ9Y6WD8O72ZC","37S0QRNUFB29SLTNXLPAM35NX0F88U","","","<img src=""img/flower4.png"" style=""width:200px; border:14px solid green;"">","null","","","","","",""
"530","","image-keyboard-response","121","245979","0.0-121.0","3TS1AR6UQR0GT6WLMW8C7EM2EI67FP","AQ9Y6WD8O72ZC","37S0QRNUFB29SLTNXLPAM35NX0F88U","","","img/flower5.png","75","530.7999999970198","2","0","2","",""
"null","","html-keyboard-response","122","246286","0.0-122.0","3TS1AR6UQR0GT6WLMW8C7EM2EI67FP","AQ9Y6WD8O72ZC","37S0QRNUFB29SLTNXLPAM35NX0F88U","","","<img src=""img/flower5.png"" style=""width:200px;border:14px solid red;"">","null","","","","","",""
"422.3999999985099","","image-keyboard-response","123","246709","0.0-123.0","3TS1AR6UQR0GT6WLMW8C7EM2EI67FP","AQ9Y6WD8O72ZC","37S0QRNUFB29SLTNXLPAM35NX0F88U","","","img/flower5.png","75","423.30000000447035","2","1","2","",""
"null","","html-keyboard-response","124","247018","0.0-124.0","3TS1AR6UQR0GT6WLMW8C7EM2EI67FP","AQ9Y6WD8O72ZC","37S0QRNUFB29SLTNXLPAM35NX0F88U","","","<img src=""img/flower5.png"" style=""width:200px; border:14px solid green;"">","null","","","","","",""
"2395.1999999955297","","instructions","125","249414","0.0-125.0","3TS1AR6UQR0GT6WLMW8C7EM2EI67FP","AQ9Y6WD8O72ZC","37S0QRNUFB29SLTNXLPAM35NX0F88U","","[{""page_index"":0,""viewing_time"":2395}]","","","","","","","",""
"715.1999999955297","","image-keyboard-response","126","250131","0.0-126.0","3TS1AR6UQR0GT6WLMW8C7EM2EI67FP","AQ9Y6WD8O72ZC","37S0QRNUFB29SLTNXLPAM35NX0F88U","","","img/flower2.png","74","716.4000000059605","1","1","2","0.7,0.2,0,0.7,0,0.2,0.2,0,0.7",""
"null","","html-keyboard-response","127","250438","0.0-127.0","3TS1AR6UQR0GT6WLMW8C7EM2EI67FP","AQ9Y6WD8O72ZC","37S0QRNUFB29SLTNXLPAM35NX0F88U","","","<img src=""img/flower2.png"" style=""width:200px; border:14px solid green;"">","null","","","","","",""
"589.9000000059605","","image-keyboard-response","128","251028","0.0-128.0","3TS1AR6UQR0GT6WLMW8C7EM2EI67FP","AQ9Y6WD8O72ZC","37S0QRNUFB29SLTNXLPAM35NX0F88U","","","img/flower3.png","75","590.6000000014901","2","0","1","0.7,0.2,0,0.7,0,0.2,0.2,0,0.7",""
"null","","html-keyboard-response","129","251335","0.0-129.0","3TS1AR6UQR0GT6WLMW8C7EM2EI67FP","AQ9Y6WD8O72ZC","37S0QRNUFB29SLTNXLPAM35NX0F88U","","","<img src=""img/flower3.png"" style=""width:200px;border:14px solid red;"">","null","","","","","",""
"738.3999999985099","","image-keyboard-response","130","252075","0.0-130.0","3TS1AR6UQR0GT6WLMW8C7EM2EI67FP","AQ9Y6WD8O72ZC","37S0QRNUFB29SLTNXLPAM35NX0F88U","","","img/flower2.png","74","739","1","1","2","0.7,0.2,0,0.7,0,0.2,0.2,0,0.7",""
"null","","html-keyboard-response","131","252390","0.0-131.0","3TS1AR6UQR0GT6WLMW8C7EM2EI67FP","AQ9Y6WD8O72ZC","37S0QRNUFB29SLTNXLPAM35NX0F88U","","","<img src=""img/flower2.png"" style=""width:200px; border:14px solid green;"">","null","","","","","",""
"814.3999999985099","","image-keyboard-response","132","253206","0.0-132.0","3TS1AR6UQR0GT6WLMW8C7EM2EI67FP","AQ9Y6WD8O72ZC","37S0QRNUFB29SLTNXLPAM35NX0F88U","","","img/flower3.png","76","815.2999999970198","3","0","1","0.7,0.2,0,0.7,0,0.2,0.2,0,0.7",""
"null","","html-keyboard-response","133","253518","0.0-133.0","3TS1AR6UQR0GT6WLMW8C7EM2EI67FP","AQ9Y6WD8O72ZC","37S0QRNUFB29SLTNXLPAM35NX0F88U","","","<img src=""img/flower3.png"" style=""width:200px;border:14px solid red;"">","null","","","","","",""
"782.1000000014901","","image-keyboard-response","134","254301","0.0-134.0","3TS1AR6UQR0GT6WLMW8C7EM2EI67FP","AQ9Y6WD8O72ZC","37S0QRNUFB29SLTNXLPAM35NX0F88U","","","img/flower6.png","76","782.7000000029802","3","0","3","0.7,0.2,0,0.7,0,0.2,0.2,0,0.7",""
"null","","html-keyboard-response","135","254616","0.0-135.0","3TS1AR6UQR0GT6WLMW8C7EM2EI67FP","AQ9Y6WD8O72ZC","37S0QRNUFB29SLTNXLPAM35NX0F88U","","","<img src=""img/flower6.png"" style=""width:200px;border:14px solid red;"">","null","","","","","",""
"666","","image-keyboard-response","136","255284","0.0-136.0","3TS1AR6UQR0GT6WLMW8C7EM2EI67FP","AQ9Y6WD8O72ZC","37S0QRNUFB29SLTNXLPAM35NX0F88U","","","img/flower2.png","74","666.6000000014901","1","1","2","0.7,0.2,0,0.7,0,0.2,0.2,0,0.7",""
"null","","html-keyboard-response","137","255590","0.0-137.0","3TS1AR6UQR0GT6WLMW8C7EM2EI67FP","AQ9Y6WD8O72ZC","37S0QRNUFB29SLTNXLPAM35NX0F88U","","","<img src=""img/flower2.png"" style=""width:200px; border:14px solid green;"">","null","","","","","",""
"789.6000000014901","","image-keyboard-response","138","256381","0.0-138.0","3TS1AR6UQR0GT6WLMW8C7EM2EI67FP","AQ9Y6WD8O72ZC","37S0QRNUFB29SLTNXLPAM35NX0F88U","","","img/flower2.png","74","790.6999999955297","1","1","2","0.7,0.2,0,0.7,0,0.2,0.2,0,0.7",""
"null","","html-keyboard-response","139","256689","0.0-139.0","3TS1AR6UQR0GT6WLMW8C7EM2EI67FP","AQ9Y6WD8O72ZC","37S0QRNUFB29SLTNXLPAM35NX0F88U","","","<img src=""img/flower2.png"" style=""width:200px; border:14px solid green;"">","null","","","","","",""
"693.2000000029802","","image-keyboard-response","140","257383","0.0-140.0","3TS1AR6UQR0GT6WLMW8C7EM2EI67FP","AQ9Y6WD8O72ZC","37S0QRNUFB29SLTNXLPAM35NX0F88U","","","img/flower6.png","76","693.7000000029802","3","1","3","0.7,0.2,0,0.7,0,0.2,0.2,0,0.7",""
"null","","html-keyboard-response","141","257698","0.0-141.0","3TS1AR6UQR0GT6WLMW8C7EM2EI67FP","AQ9Y6WD8O72ZC","37S0QRNUFB29SLTNXLPAM35NX0F88U","","","<img src=""img/flower6.png"" style=""width:200px; border:14px solid green;"">","null","","","","","",""
"476.8999999985099","","image-keyboard-response","142","258176","0.0-142.0","3TS1AR6UQR0GT6WLMW8C7EM2EI67FP","AQ9Y6WD8O72ZC","37S0QRNUFB29SLTNXLPAM35NX0F88U","","","img/flower6.png","76","477.6000000014901","3","1","3","0.7,0.2,0,0.7,0,0.2,0.2,0,0.7",""
"null","","html-keyboard-response","143","258486","0.0-143.0","3TS1AR6UQR0GT6WLMW8C7EM2EI67FP","AQ9Y6WD8O72ZC","37S0QRNUFB29SLTNXLPAM35NX0F88U","","","<img src=""img/flower6.png"" style=""width:200px; border:14px solid green;"">","null","","","","","",""
"617.3000000044703","","image-keyboard-response","144","259104","0.0-144.0","3TS1AR6UQR0GT6WLMW8C7EM2EI67FP","AQ9Y6WD8O72ZC","37S0QRNUFB29SLTNXLPAM35NX0F88U","","","img/flower2.png","74","618","1","1","2","0.7,0.2,0,0.7,0,0.2,0.2,0,0.7",""
"null","","html-keyboard-response","145","259418","0.0-145.0","3TS1AR6UQR0GT6WLMW8C7EM2EI67FP","AQ9Y6WD8O72ZC","37S0QRNUFB29SLTNXLPAM35NX0F88U","","","<img src=""img/flower2.png"" style=""width:200px; border:14px solid green;"">","null","","","","","",""
"395.5","","image-keyboard-response","146","259814","0.0-146.0","3TS1AR6UQR0GT6WLMW8C7EM2EI67FP","AQ9Y6WD8O72ZC","37S0QRNUFB29SLTNXLPAM35NX0F88U","","","img/flower6.png","76","396.09999999403954","3","1","3","0.7,0.2,0,0.7,0,0.2,0.2,0,0.7",""
"null","","html-keyboard-response","147","260131","0.0-147.0","3TS1AR6UQR0GT6WLMW8C7EM2EI67FP","AQ9Y6WD8O72ZC","37S0QRNUFB29SLTNXLPAM35NX0F88U","","","<img src=""img/flower6.png"" style=""width:200px; border:14px solid green;"">","null","","","","","",""
"603.1999999955297","","image-keyboard-response","148","260736","0.0-148.0","3TS1AR6UQR0GT6WLMW8C7EM2EI67FP","AQ9Y6WD8O72ZC","37S0QRNUFB29SLTNXLPAM35NX0F88U","","","img/flower2.png","74","604.2000000029802","1","1","2","0.7,0.2,0,0.7,0,0.2,0.2,0,0.7",""
"null","","html-keyboard-response","149","261047","0.0-149.0","3TS1AR6UQR0GT6WLMW8C7EM2EI67FP","AQ9Y6WD8O72ZC","37S0QRNUFB29SLTNXLPAM35NX0F88U","","","<img src=""img/flower2.png"" style=""width:200px; border:14px solid green;"">","null","","","","","",""
"401.70000000298023","","image-keyboard-response","150","261450","0.0-150.0","3TS1AR6UQR0GT6WLMW8C7EM2EI67FP","AQ9Y6WD8O72ZC","37S0QRNUFB29SLTNXLPAM35NX0F88U","","","img/flower3.png","75","402.5","2","0","1","0.7,0.2,0,0.7,0,0.2,0.2,0,0.7",""
"null","","html-keyboard-response","151","261758","0.0-151.0","3TS1AR6UQR0GT6WLMW8C7EM2EI67FP","AQ9Y6WD8O72ZC","37S0QRNUFB29SLTNXLPAM35NX0F88U","","","<img src=""img/flower3.png"" style=""width:200px;border:14px solid red;"">","null","","","","","",""
"688.4000000059605","","image-keyboard-response","152","262447","0.0-152.0","3TS1AR6UQR0GT6WLMW8C7EM2EI67FP","AQ9Y6WD8O72ZC","37S0QRNUFB29SLTNXLPAM35NX0F88U","","","img/flower6.png","76","689.1000000014901","3","1","3","0.7,0.2,0,0.7,0,0.2,0.2,0,0.7",""
"null","","html-keyboard-response","153","262764","0.0-153.0","3TS1AR6UQR0GT6WLMW8C7EM2EI67FP","AQ9Y6WD8O72ZC","37S0QRNUFB29SLTNXLPAM35NX0F88U","","","<img src=""img/flower6.png"" style=""width:200px; border:14px solid green;"">","null","","","","","",""
"391.5","","image-keyboard-response","154","263156","0.0-154.0","3TS1AR6UQR0GT6WLMW8C7EM2EI67FP","AQ9Y6WD8O72ZC","37S0QRNUFB29SLTNXLPAM35NX0F88U","","","img/flower2.png","75","392.19999999552965","2","0","2","0.7,0.2,0,0.7,0,0.2,0.2,0,0.7",""
"null","","html-keyboard-response","155","263464","0.0-155.0","3TS1AR6UQR0GT6WLMW8C7EM2EI67FP","AQ9Y6WD8O72ZC","37S0QRNUFB29SLTNXLPAM35NX0F88U","","","<img src=""img/flower2.png"" style=""width:200px;border:14px solid red;"">","null","","","","","",""
"648.7000000029802","","image-keyboard-response","156","264114","0.0-156.0","3TS1AR6UQR0GT6WLMW8C7EM2EI67FP","AQ9Y6WD8O72ZC","37S0QRNUFB29SLTNXLPAM35NX0F88U","","","img/flower2.png","74","649.2999999970198","1","1","2","0.7,0.2,0,0.7,0,0.2,0.2,0,0.7",""
"null","","html-keyboard-response","157","264426","0.0-157.0","3TS1AR6UQR0GT6WLMW8C7EM2EI67FP","AQ9Y6WD8O72ZC","37S0QRNUFB29SLTNXLPAM35NX0F88U","","","<img src=""img/flower2.png"" style=""width:200px; border:14px solid green;"">","null","","","","","",""
"598.7000000029802","","image-keyboard-response","158","265026","0.0-158.0","3TS1AR6UQR0GT6WLMW8C7EM2EI67FP","AQ9Y6WD8O72ZC","37S0QRNUFB29SLTNXLPAM35NX0F88U","","","img/flower3.png","75","599.6999999955297","2","0","1","0.7,0.2,0,0.7,0,0.2,0.2,0,0.7",""
"null","","html-keyboard-response","159","265327","0.0-159.0","3TS1AR6UQR0GT6WLMW8C7EM2EI67FP","AQ9Y6WD8O72ZC","37S0QRNUFB29SLTNXLPAM35NX0F88U","","","<img src=""img/flower3.png"" style=""width:200px;border:14px solid red;"">","null","","","","","",""
"485.6000000014901","","image-keyboard-response","160","265814","0.0-160.0","3TS1AR6UQR0GT6WLMW8C7EM2EI67FP","AQ9Y6WD8O72ZC","37S0QRNUFB29SLTNXLPAM35NX0F88U","","","img/flower2.png","76","486.30000000447035","3","0","2","0.7,0.2,0,0.7,0,0.2,0.2,0,0.7",""
"null","","html-keyboard-response","161","266120","0.0-161.0","3TS1AR6UQR0GT6WLMW8C7EM2EI67FP","AQ9Y6WD8O72ZC","37S0QRNUFB29SLTNXLPAM35NX0F88U","","","<img src=""img/flower2.png"" style=""width:200px;border:14px solid red;"">","null","","","","","",""
"1240.8999999985099","","image-keyboard-response","162","267362","0.0-162.0","3TS1AR6UQR0GT6WLMW8C7EM2EI67FP","AQ9Y6WD8O72ZC","37S0QRNUFB29SLTNXLPAM35NX0F88U","","","img/flower3.png","74","1241.6000000014901","1","1","1","0.7,0.2,0,0.7,0,0.2,0.2,0,0.7",""
"null","","html-keyboard-response","163","267667","0.0-163.0","3TS1AR6UQR0GT6WLMW8C7EM2EI67FP","AQ9Y6WD8O72ZC","37S0QRNUFB29SLTNXLPAM35NX0F88U","","","<img src=""img/flower3.png"" style=""width:200px; border:14px solid green;"">","null","","","","","",""
"738.1000000014901","","image-keyboard-response","164","268406","0.0-164.0","3TS1AR6UQR0GT6WLMW8C7EM2EI67FP","AQ9Y6WD8O72ZC","37S0QRNUFB29SLTNXLPAM35NX0F88U","","","img/flower6.png","76","738.7999999970198","3","1","3","0.7,0.2,0,0.7,0,0.2,0.2,0,0.7",""
"null","","html-keyboard-response","165","268708","0.0-165.0","3TS1AR6UQR0GT6WLMW8C7EM2EI67FP","AQ9Y6WD8O72ZC","37S0QRNUFB29SLTNXLPAM35NX0F88U","","","<img src=""img/flower6.png"" style=""width:200px; border:14px solid green;"">","null","","","","","",""
"546.0999999940395","","image-keyboard-response","166","269254","0.0-166.0","3TS1AR6UQR0GT6WLMW8C7EM2EI67FP","AQ9Y6WD8O72ZC","37S0QRNUFB29SLTNXLPAM35NX0F88U","","","img/flower3.png","74","546.6000000014901","1","1","1","0.7,0.2,0,0.7,0,0.2,0.2,0,0.7",""
"null","","html-keyboard-response","167","269562","0.0-167.0","3TS1AR6UQR0GT6WLMW8C7EM2EI67FP","AQ9Y6WD8O72ZC","37S0QRNUFB29SLTNXLPAM35NX0F88U","","","<img src=""img/flower3.png"" style=""width:200px; border:14px solid green;"">","null","","","","","",""
"580.3999999985099","","image-keyboard-response","168","270144","0.0-168.0","3TS1AR6UQR0GT6WLMW8C7EM2EI67FP","AQ9Y6WD8O72ZC","37S0QRNUFB29SLTNXLPAM35NX0F88U","","","img/flower3.png","74","581.3999999985099","1","1","1","0.7,0.2,0,0.7,0,0.2,0.2,0,0.7",""
"null","","html-keyboard-response","169","270457","0.0-169.0","3TS1AR6UQR0GT6WLMW8C7EM2EI67FP","AQ9Y6WD8O72ZC","37S0QRNUFB29SLTNXLPAM35NX0F88U","","","<img src=""img/flower3.png"" style=""width:200px; border:14px solid green;"">","null","","","","","",""
"436.3999999985099","","image-keyboard-response","170","270894","0.0-170.0","3TS1AR6UQR0GT6WLMW8C7EM2EI67FP","AQ9Y6WD8O72ZC","37S0QRNUFB29SLTNXLPAM35NX0F88U","","","img/flower3.png","74","437.40000000596046","1","1","1","0.7,0.2,0,0.7,0,0.2,0.2,0,0.7",""
"null","","html-keyboard-response","171","271200","0.0-171.0","3TS1AR6UQR0GT6WLMW8C7EM2EI67FP","AQ9Y6WD8O72ZC","37S0QRNUFB29SLTNXLPAM35NX0F88U","","","<img src=""img/flower3.png"" style=""width:200px; border:14px solid green;"">","null","","","","","",""
"425.3999999985099","","image-keyboard-response","172","271626","0.0-172.0","3TS1AR6UQR0GT6WLMW8C7EM2EI67FP","AQ9Y6WD8O72ZC","37S0QRNUFB29SLTNXLPAM35NX0F88U","","","img/flower2.png","74","426.5","1","1","2","0.7,0.2,0,0.7,0,0.2,0.2,0,0.7",""
"null","","html-keyboard-response","173","271933","0.0-173.0","3TS1AR6UQR0GT6WLMW8C7EM2EI67FP","AQ9Y6WD8O72ZC","37S0QRNUFB29SLTNXLPAM35NX0F88U","","","<img src=""img/flower2.png"" style=""width:200px; border:14px solid green;"">","null","","","","","",""
"493.20000000298023","","image-keyboard-response","174","272427","0.0-174.0","3TS1AR6UQR0GT6WLMW8C7EM2EI67FP","AQ9Y6WD8O72ZC","37S0QRNUFB29SLTNXLPAM35NX0F88U","","","img/flower6.png","76","493.79999999701977","3","0","3","0.7,0.2,0,0.7,0,0.2,0.2,0,0.7",""
"null","","html-keyboard-response","175","272737","0.0-175.0","3TS1AR6UQR0GT6WLMW8C7EM2EI67FP","AQ9Y6WD8O72ZC","37S0QRNUFB29SLTNXLPAM35NX0F88U","","","<img src=""img/flower6.png"" style=""width:200px;border:14px solid red;"">","null","","","","","",""
"297.59999999403954","","image-keyboard-response","176","273035","0.0-176.0","3TS1AR6UQR0GT6WLMW8C7EM2EI67FP","AQ9Y6WD8O72ZC","37S0QRNUFB29SLTNXLPAM35NX0F88U","","","img/flower6.png","76","298.20000000298023","3","1","3","0.7,0.2,0,0.7,0,0.2,0.2,0,0.7",""
"null","","html-keyboard-response","177","273341","0.0-177.0","3TS1AR6UQR0GT6WLMW8C7EM2EI67FP","AQ9Y6WD8O72ZC","37S0QRNUFB29SLTNXLPAM35NX0F88U","","","<img src=""img/flower6.png"" style=""width:200px; border:14px solid green;"">","null","","","","","",""
"683.1000000014901","","image-keyboard-response","178","274025","0.0-178.0","3TS1AR6UQR0GT6WLMW8C7EM2EI67FP","AQ9Y6WD8O72ZC","37S0QRNUFB29SLTNXLPAM35NX0F88U","","","img/flower2.png","74","683.7999999970198","1","1","2","0.7,0.2,0,0.7,0,0.2,0.2,0,0.7",""
"null","","html-keyboard-response","179","274336","0.0-179.0","3TS1AR6UQR0GT6WLMW8C7EM2EI67FP","AQ9Y6WD8O72ZC","37S0QRNUFB29SLTNXLPAM35NX0F88U","","","<img src=""img/flower2.png"" style=""width:200px; border:14px solid green;"">","null","","","","","",""
"337.1000000014901","","image-keyboard-response","180","274674","0.0-180.0","3TS1AR6UQR0GT6WLMW8C7EM2EI67FP","AQ9Y6WD8O72ZC","37S0QRNUFB29SLTNXLPAM35NX0F88U","","","img/flower2.png","74","337.80000000447035","1","1","2","0.7,0.2,0,0.7,0,0.2,0.2,0,0.7",""
"null","","html-keyboard-response","181","274975","0.0-181.0","3TS1AR6UQR0GT6WLMW8C7EM2EI67FP","AQ9Y6WD8O72ZC","37S0QRNUFB29SLTNXLPAM35NX0F88U","","","<img src=""img/flower2.png"" style=""width:200px; border:14px solid green;"">","null","","","","","",""
"635.5","","image-keyboard-response","182","275612","0.0-182.0","3TS1AR6UQR0GT6WLMW8C7EM2EI67FP","AQ9Y6WD8O72ZC","37S0QRNUFB29SLTNXLPAM35NX0F88U","","","img/flower3.png","74","636.7000000029802","1","1","1","0.7,0.2,0,0.7,0,0.2,0.2,0,0.7",""
"null","","html-keyboard-response","183","275914","0.0-183.0","3TS1AR6UQR0GT6WLMW8C7EM2EI67FP","AQ9Y6WD8O72ZC","37S0QRNUFB29SLTNXLPAM35NX0F88U","","","<img src=""img/flower3.png"" style=""width:200px; border:14px solid green;"">","null","","","","","",""
"640.7999999970198","","image-keyboard-response","184","276556","0.0-184.0","3TS1AR6UQR0GT6WLMW8C7EM2EI67FP","AQ9Y6WD8O72ZC","37S0QRNUFB29SLTNXLPAM35NX0F88U","","","img/flower6.png","76","641.6999999955297","3","1","3","0.7,0.2,0,0.7,0,0.2,0.2,0,0.7",""
"null","","html-keyboard-response","185","276870","0.0-185.0","3TS1AR6UQR0GT6WLMW8C7EM2EI67FP","AQ9Y6WD8O72ZC","37S0QRNUFB29SLTNXLPAM35NX0F88U","","","<img src=""img/flower6.png"" style=""width:200px; border:14px solid green;"">","null","","","","","",""
"431.80000000447035","","image-keyboard-response","186","277302","0.0-186.0","3TS1AR6UQR0GT6WLMW8C7EM2EI67FP","AQ9Y6WD8O72ZC","37S0QRNUFB29SLTNXLPAM35NX0F88U","","","img/flower2.png","74","432.3999999985099","1","1","2","0.7,0.2,0,0.7,0,0.2,0.2,0,0.7",""
"null","","html-keyboard-response","187","277614","0.0-187.0","3TS1AR6UQR0GT6WLMW8C7EM2EI67FP","AQ9Y6WD8O72ZC","37S0QRNUFB29SLTNXLPAM35NX0F88U","","","<img src=""img/flower2.png"" style=""width:200px; border:14px solid green;"">","null","","","","","",""
"287.6000000014901","","image-keyboard-response","188","277903","0.0-188.0","3TS1AR6UQR0GT6WLMW8C7EM2EI67FP","AQ9Y6WD8O72ZC","37S0QRNUFB29SLTNXLPAM35NX0F88U","","","img/flower6.png","74","288.29999999701977","1","0","3","0.7,0.2,0,0.7,0,0.2,0.2,0,0.7",""
"null","","html-keyboard-response","189","278206","0.0-189.0","3TS1AR6UQR0GT6WLMW8C7EM2EI67FP","AQ9Y6WD8O72ZC","37S0QRNUFB29SLTNXLPAM35NX0F88U","","","<img src=""img/flower6.png"" style=""width:200px;border:14px solid red;"">","null","","","","","",""
"783.3000000044703","","image-keyboard-response","190","278990","0.0-190.0","3TS1AR6UQR0GT6WLMW8C7EM2EI67FP","AQ9Y6WD8O72ZC","37S0QRNUFB29SLTNXLPAM35NX0F88U","","","img/flower2.png","74","784","1","1","2","0.7,0.2,0,0.7,0,0.2,0.2,0,0.7",""
"null","","html-keyboard-response","191","279297","0.0-191.0","3TS1AR6UQR0GT6WLMW8C7EM2EI67FP","AQ9Y6WD8O72ZC","37S0QRNUFB29SLTNXLPAM35NX0F88U","","","<img src=""img/flower2.png"" style=""width:200px; border:14px solid green;"">","null","","","","","",""
"451.6000000014901","","image-keyboard-response","192","279750","0.0-192.0","3TS1AR6UQR0GT6WLMW8C7EM2EI67FP","AQ9Y6WD8O72ZC","37S0QRNUFB29SLTNXLPAM35NX0F88U","","","img/flower2.png","74","452.30000000447035","1","0","2","0.7,0.2,0,0.7,0,0.2,0.2,0,0.7",""
"null","","html-keyboard-response","193","280057","0.0-193.0","3TS1AR6UQR0GT6WLMW8C7EM2EI67FP","AQ9Y6WD8O72ZC","37S0QRNUFB29SLTNXLPAM35NX0F88U","","","<img src=""img/flower2.png"" style=""width:200px;border:14px solid red;"">","null","","","","","",""
"868.6999999955297","","image-keyboard-response","194","280926","0.0-194.0","3TS1AR6UQR0GT6WLMW8C7EM2EI67FP","AQ9Y6WD8O72ZC","37S0QRNUFB29SLTNXLPAM35NX0F88U","","","img/flower3.png","74","869.3000000044703","1","0","1","0.7,0.2,0,0.7,0,0.2,0.2,0,0.7",""
"null","","html-keyboard-response","195","281234","0.0-195.0","3TS1AR6UQR0GT6WLMW8C7EM2EI67FP","AQ9Y6WD8O72ZC","37S0QRNUFB29SLTNXLPAM35NX0F88U","","","<img src=""img/flower3.png"" style=""width:200px;border:14px solid red;"">","null","","","","","",""
"489.79999999701977","","image-keyboard-response","196","281725","0.0-196.0","3TS1AR6UQR0GT6WLMW8C7EM2EI67FP","AQ9Y6WD8O72ZC","37S0QRNUFB29SLTNXLPAM35NX0F88U","","","img/flower6.png","74","490.5","1","1","3","0.7,0.2,0,0.7,0,0.2,0.2,0,0.7",""
"null","","html-keyboard-response","197","282032","0.0-197.0","3TS1AR6UQR0GT6WLMW8C7EM2EI67FP","AQ9Y6WD8O72ZC","37S0QRNUFB29SLTNXLPAM35NX0F88U","","","<img src=""img/flower6.png"" style=""width:200px; border:14px solid green;"">","null","","","","","",""
"1471.1000000014901","","image-keyboard-response","198","283505","0.0-198.0","3TS1AR6UQR0GT6WLMW8C7EM2EI67FP","AQ9Y6WD8O72ZC","37S0QRNUFB29SLTNXLPAM35NX0F88U","","","img/flower2.png","74","1471.9000000059605","1","1","2","0.7,0.2,0,0.7,0,0.2,0.2,0,0.7",""
"null","","html-keyboard-response","199","283815","0.0-199.0","3TS1AR6UQR0GT6WLMW8C7EM2EI67FP","AQ9Y6WD8O72ZC","37S0QRNUFB29SLTNXLPAM35NX0F88U","","","<img src=""img/flower2.png"" style=""width:200px; border:14px solid green;"">","null","","","","","",""
"570.6000000014901","","image-keyboard-response","200","284386","0.0-200.0","3TS1AR6UQR0GT6WLMW8C7EM2EI67FP","AQ9Y6WD8O72ZC","37S0QRNUFB29SLTNXLPAM35NX0F88U","","","img/flower6.png","74","571.3000000044703","1","0","3","0.7,0.2,0,0.7,0,0.2,0.2,0,0.7",""
"null","","html-keyboard-response","201","284702","0.0-201.0","3TS1AR6UQR0GT6WLMW8C7EM2EI67FP","AQ9Y6WD8O72ZC","37S0QRNUFB29SLTNXLPAM35NX0F88U","","","<img src=""img/flower6.png"" style=""width:200px;border:14px solid red;"">","null","","","","","",""
"695.3999999985099","","image-keyboard-response","202","285398","0.0-202.0","3TS1AR6UQR0GT6WLMW8C7EM2EI67FP","AQ9Y6WD8O72ZC","37S0QRNUFB29SLTNXLPAM35NX0F88U","","","img/flower3.png","74","696.2999999970198","1","1","1","0.7,0.2,0,0.7,0,0.2,0.2,0,0.7",""
"null","","html-keyboard-response","203","285702","0.0-203.0","3TS1AR6UQR0GT6WLMW8C7EM2EI67FP","AQ9Y6WD8O72ZC","37S0QRNUFB29SLTNXLPAM35NX0F88U","","","<img src=""img/flower3.png"" style=""width:200px; border:14px solid green;"">","null","","","","","",""
"688","","image-keyboard-response","204","286391","0.0-204.0","3TS1AR6UQR0GT6WLMW8C7EM2EI67FP","AQ9Y6WD8O72ZC","37S0QRNUFB29SLTNXLPAM35NX0F88U","","","img/flower6.png","76","689.1000000014901","3","0","3","0.7,0.2,0,0.7,0,0.2,0.2,0,0.7",""
"null","","html-keyboard-response","205","286701","0.0-205.0","3TS1AR6UQR0GT6WLMW8C7EM2EI67FP","AQ9Y6WD8O72ZC","37S0QRNUFB29SLTNXLPAM35NX0F88U","","","<img src=""img/flower6.png"" style=""width:200px;border:14px solid red;"">","null","","","","","",""
"795.6000000014901","","image-keyboard-response","206","287498","0.0-206.0","3TS1AR6UQR0GT6WLMW8C7EM2EI67FP","AQ9Y6WD8O72ZC","37S0QRNUFB29SLTNXLPAM35NX0F88U","","","img/flower2.png","74","796.1999999955297","1","1","2","0.7,0.2,0,0.7,0,0.2,0.2,0,0.7",""
"null","","html-keyboard-response","207","287808","0.0-207.0","3TS1AR6UQR0GT6WLMW8C7EM2EI67FP","AQ9Y6WD8O72ZC","37S0QRNUFB29SLTNXLPAM35NX0F88U","","","<img src=""img/flower2.png"" style=""width:200px; border:14px solid green;"">","null","","","","","",""
"521.5999999940395","","image-keyboard-response","208","288331","0.0-208.0","3TS1AR6UQR0GT6WLMW8C7EM2EI67FP","AQ9Y6WD8O72ZC","37S0QRNUFB29SLTNXLPAM35NX0F88U","","","img/flower2.png","74","522.8000000044703","1","1","2","0.7,0.2,0,0.7,0,0.2,0.2,0,0.7",""
"null","","html-keyboard-response","209","288638","0.0-209.0","3TS1AR6UQR0GT6WLMW8C7EM2EI67FP","AQ9Y6WD8O72ZC","37S0QRNUFB29SLTNXLPAM35NX0F88U","","","<img src=""img/flower2.png"" style=""width:200px; border:14px solid green;"">","null","","","","","",""
"627.6000000014901","","image-keyboard-response","210","289267","0.0-210.0","3TS1AR6UQR0GT6WLMW8C7EM2EI67FP","AQ9Y6WD8O72ZC","37S0QRNUFB29SLTNXLPAM35NX0F88U","","","img/flower3.png","75","628.3999999985099","2","1","1","0.7,0.2,0,0.7,0,0.2,0.2,0,0.7",""
"null","","html-keyboard-response","211","289570","0.0-211.0","3TS1AR6UQR0GT6WLMW8C7EM2EI67FP","AQ9Y6WD8O72ZC","37S0QRNUFB29SLTNXLPAM35NX0F88U","","","<img src=""img/flower3.png"" style=""width:200px; border:14px solid green;"">","null","","","","","",""
"729.2999999970198","","image-keyboard-response","212","290300","0.0-212.0","3TS1AR6UQR0GT6WLMW8C7EM2EI67FP","AQ9Y6WD8O72ZC","37S0QRNUFB29SLTNXLPAM35NX0F88U","","","img/flower2.png","75","730","2","0","2","0.7,0.2,0,0.7,0,0.2,0.2,0,0.7",""
"null","","html-keyboard-response","213","290609","0.0-213.0","3TS1AR6UQR0GT6WLMW8C7EM2EI67FP","AQ9Y6WD8O72ZC","37S0QRNUFB29SLTNXLPAM35NX0F88U","","","<img src=""img/flower2.png"" style=""width:200px;border:14px solid red;"">","null","","","","","",""
"1227.2000000029802","","image-keyboard-response","214","291837","0.0-214.0","3TS1AR6UQR0GT6WLMW8C7EM2EI67FP","AQ9Y6WD8O72ZC","37S0QRNUFB29SLTNXLPAM35NX0F88U","","","img/flower2.png","74","1228.1000000014901","1","1","2","0.7,0.2,0,0.7,0,0.2,0.2,0,0.7",""
"null","","html-keyboard-response","215","292138","0.0-215.0","3TS1AR6UQR0GT6WLMW8C7EM2EI67FP","AQ9Y6WD8O72ZC","37S0QRNUFB29SLTNXLPAM35NX0F88U","","","<img src=""img/flower2.png"" style=""width:200px; border:14px solid green;"">","null","","","","","",""
"759.2999999970198","","image-keyboard-response","216","292899","0.0-216.0","3TS1AR6UQR0GT6WLMW8C7EM2EI67FP","AQ9Y6WD8O72ZC","37S0QRNUFB29SLTNXLPAM35NX0F88U","","","img/flower2.png","74","760","1","0","2","0.7,0.2,0,0.7,0,0.2,0.2,0,0.7",""
"null","","html-keyboard-response","217","293207","0.0-217.0","3TS1AR6UQR0GT6WLMW8C7EM2EI67FP","AQ9Y6WD8O72ZC","37S0QRNUFB29SLTNXLPAM35NX0F88U","","","<img src=""img/flower2.png"" style=""width:200px;border:14px solid red;"">","null","","","","","",""
"882.2999999970198","","image-keyboard-response","218","294090","0.0-218.0","3TS1AR6UQR0GT6WLMW8C7EM2EI67FP","AQ9Y6WD8O72ZC","37S0QRNUFB29SLTNXLPAM35NX0F88U","","","img/flower6.png","75","883","2","0","3","0.7,0.2,0,0.7,0,0.2,0.2,0,0.7",""
"null","","html-keyboard-response","219","294393","0.0-219.0","3TS1AR6UQR0GT6WLMW8C7EM2EI67FP","AQ9Y6WD8O72ZC","37S0QRNUFB29SLTNXLPAM35NX0F88U","","","<img src=""img/flower6.png"" style=""width:200px;border:14px solid red;"">","null","","","","","",""
"524.2000000029802","","image-keyboard-response","220","294918","0.0-220.0","3TS1AR6UQR0GT6WLMW8C7EM2EI67FP","AQ9Y6WD8O72ZC","37S0QRNUFB29SLTNXLPAM35NX0F88U","","","img/flower2.png","74","525","1","1","2","0.7,0.2,0,0.7,0,0.2,0.2,0,0.7",""
"null","","html-keyboard-response","221","295229","0.0-221.0","3TS1AR6UQR0GT6WLMW8C7EM2EI67FP","AQ9Y6WD8O72ZC","37S0QRNUFB29SLTNXLPAM35NX0F88U","","","<img src=""img/flower2.png"" style=""width:200px; border:14px solid green;"">","null","","","","","",""
"564.0999999940395","","image-keyboard-response","222","295794","0.0-222.0","3TS1AR6UQR0GT6WLMW8C7EM2EI67FP","AQ9Y6WD8O72ZC","37S0QRNUFB29SLTNXLPAM35NX0F88U","","","img/flower3.png","76","564.8999999985099","3","0","1","0.7,0.2,0,0.7,0,0.2,0.2,0,0.7",""
"null","","html-keyboard-response","223","296095","0.0-223.0","3TS1AR6UQR0GT6WLMW8C7EM2EI67FP","AQ9Y6WD8O72ZC","37S0QRNUFB29SLTNXLPAM35NX0F88U","","","<img src=""img/flower3.png"" style=""width:200px;border:14px solid red;"">","null","","","","","",""
"443.80000000447035","","image-keyboard-response","224","296540","0.0-224.0","3TS1AR6UQR0GT6WLMW8C7EM2EI67FP","AQ9Y6WD8O72ZC","37S0QRNUFB29SLTNXLPAM35NX0F88U","","","img/flower3.png","76","444.5","3","0","1","0.7,0.2,0,0.7,0,0.2,0.2,0,0.7",""
"null","","html-keyboard-response","225","296842","0.0-225.0","3TS1AR6UQR0GT6WLMW8C7EM2EI67FP","AQ9Y6WD8O72ZC","37S0QRNUFB29SLTNXLPAM35NX0F88U","","","<img src=""img/flower3.png"" style=""width:200px;border:14px solid red;"">","null","","","","","",""
"672.2999999970198","","image-keyboard-response","226","297516","0.0-226.0","3TS1AR6UQR0GT6WLMW8C7EM2EI67FP","AQ9Y6WD8O72ZC","37S0QRNUFB29SLTNXLPAM35NX0F88U","","","img/flower6.png","76","673.1999999955297","3","1","3","0.7,0.2,0,0.7,0,0.2,0.2,0,0.7",""
"null","","html-keyboard-response","227","297820","0.0-227.0","3TS1AR6UQR0GT6WLMW8C7EM2EI67FP","AQ9Y6WD8O72ZC","37S0QRNUFB29SLTNXLPAM35NX0F88U","","","<img src=""img/flower6.png"" style=""width:200px; border:14px solid green;"">","null","","","","","",""
"643.2999999970198","","image-keyboard-response","228","298464","0.0-228.0","3TS1AR6UQR0GT6WLMW8C7EM2EI67FP","AQ9Y6WD8O72ZC","37S0QRNUFB29SLTNXLPAM35NX0F88U","","","img/flower2.png","74","643.8999999985099","1","1","2","0.7,0.2,0,0.7,0,0.2,0.2,0,0.7",""
"null","","html-keyboard-response","229","298776","0.0-229.0","3TS1AR6UQR0GT6WLMW8C7EM2EI67FP","AQ9Y6WD8O72ZC","37S0QRNUFB29SLTNXLPAM35NX0F88U","","","<img src=""img/flower2.png"" style=""width:200px; border:14px solid green;"">","null","","","","","",""
"411.1000000014901","","image-keyboard-response","230","299188","0.0-230.0","3TS1AR6UQR0GT6WLMW8C7EM2EI67FP","AQ9Y6WD8O72ZC","37S0QRNUFB29SLTNXLPAM35NX0F88U","","","img/flower6.png","75","411.69999999552965","2","0","3","0.7,0.2,0,0.7,0,0.2,0.2,0,0.7",""
"null","","html-keyboard-response","231","299491","0.0-231.0","3TS1AR6UQR0GT6WLMW8C7EM2EI67FP","AQ9Y6WD8O72ZC","37S0QRNUFB29SLTNXLPAM35NX0F88U","","","<img src=""img/flower6.png"" style=""width:200px;border:14px solid red;"">","null","","","","","",""
"812.1000000014901","","image-keyboard-response","232","300304","0.0-232.0","3TS1AR6UQR0GT6WLMW8C7EM2EI67FP","AQ9Y6WD8O72ZC","37S0QRNUFB29SLTNXLPAM35NX0F88U","","","img/flower3.png","74","812.9000000059605","1","1","1","0.7,0.2,0,0.7,0,0.2,0.2,0,0.7",""
"null","","html-keyboard-response","233","300614","0.0-233.0","3TS1AR6UQR0GT6WLMW8C7EM2EI67FP","AQ9Y6WD8O72ZC","37S0QRNUFB29SLTNXLPAM35NX0F88U","","","<img src=""img/flower3.png"" style=""width:200px; border:14px solid green;"">","null","","","","","",""
"448.69999999552965","","image-keyboard-response","234","301063","0.0-234.0","3TS1AR6UQR0GT6WLMW8C7EM2EI67FP","AQ9Y6WD8O72ZC","37S0QRNUFB29SLTNXLPAM35NX0F88U","","","img/flower6.png","74","449.5","1","0","3","0.7,0.2,0,0.7,0,0.2,0.2,0,0.7",""
"null","","html-keyboard-response","235","301365","0.0-235.0","3TS1AR6UQR0GT6WLMW8C7EM2EI67FP","AQ9Y6WD8O72ZC","37S0QRNUFB29SLTNXLPAM35NX0F88U","","","<img src=""img/flower6.png"" style=""width:200px;border:14px solid red;"">","null","","","","","",""
"576.3000000044703","","image-keyboard-response","236","301942","0.0-236.0","3TS1AR6UQR0GT6WLMW8C7EM2EI67FP","AQ9Y6WD8O72ZC","37S0QRNUFB29SLTNXLPAM35NX0F88U","","","img/flower2.png","74","576.9000000059605","1","1","2","0.7,0.2,0,0.7,0,0.2,0.2,0,0.7",""
"null","","html-keyboard-response","237","302252","0.0-237.0","3TS1AR6UQR0GT6WLMW8C7EM2EI67FP","AQ9Y6WD8O72ZC","37S0QRNUFB29SLTNXLPAM35NX0F88U","","","<img src=""img/flower2.png"" style=""width:200px; border:14px solid green;"">","null","","","","","",""
"657.2999999970198","","image-keyboard-response","238","302910","0.0-238.0","3TS1AR6UQR0GT6WLMW8C7EM2EI67FP","AQ9Y6WD8O72ZC","37S0QRNUFB29SLTNXLPAM35NX0F88U","","","img/flower6.png","76","657.8999999985099","3","1","3","0.7,0.2,0,0.7,0,0.2,0.2,0,0.7",""
"null","","html-keyboard-response","239","303216","0.0-239.0","3TS1AR6UQR0GT6WLMW8C7EM2EI67FP","AQ9Y6WD8O72ZC","37S0QRNUFB29SLTNXLPAM35NX0F88U","","","<img src=""img/flower6.png"" style=""width:200px; border:14px solid green;"">","null","","","","","",""
"572.4000000059605","","image-keyboard-response","240","303790","0.0-240.0","3TS1AR6UQR0GT6WLMW8C7EM2EI67FP","AQ9Y6WD8O72ZC","37S0QRNUFB29SLTNXLPAM35NX0F88U","","","img/flower3.png","74","573","1","0","1","0.7,0.2,0,0.7,0,0.2,0.2,0,0.7",""
"null","","html-keyboard-response","241","304104","0.0-241.0","3TS1AR6UQR0GT6WLMW8C7EM2EI67FP","AQ9Y6WD8O72ZC","37S0QRNUFB29SLTNXLPAM35NX0F88U","","","<img src=""img/flower3.png"" style=""width:200px;border:14px solid red;"">","null","","","","","",""
"326.19999999552965","","image-keyboard-response","242","304431","0.0-242.0","3TS1AR6UQR0GT6WLMW8C7EM2EI67FP","AQ9Y6WD8O72ZC","37S0QRNUFB29SLTNXLPAM35NX0F88U","","","img/flower3.png","74","326.8999999985099","1","0","1","0.7,0.2,0,0.7,0,0.2,0.2,0,0.7",""
"null","","html-keyboard-response","243","304744","0.0-243.0","3TS1AR6UQR0GT6WLMW8C7EM2EI67FP","AQ9Y6WD8O72ZC","37S0QRNUFB29SLTNXLPAM35NX0F88U","","","<img src=""img/flower3.png"" style=""width:200px;border:14px solid red;"">","null","","","","","",""
"335.3999999985099","","image-keyboard-response","244","305080","0.0-244.0","3TS1AR6UQR0GT6WLMW8C7EM2EI67FP","AQ9Y6WD8O72ZC","37S0QRNUFB29SLTNXLPAM35NX0F88U","","","img/flower3.png","74","336.19999999552965","1","1","1","0.7,0.2,0,0.7,0,0.2,0.2,0,0.7",""
"null","","html-keyboard-response","245","305389","0.0-245.0","3TS1AR6UQR0GT6WLMW8C7EM2EI67FP","AQ9Y6WD8O72ZC","37S0QRNUFB29SLTNXLPAM35NX0F88U","","","<img src=""img/flower3.png"" style=""width:200px; border:14px solid green;"">","null","","","","","",""
"721.3999999985099","","image-keyboard-response","246","306111","0.0-246.0","3TS1AR6UQR0GT6WLMW8C7EM2EI67FP","AQ9Y6WD8O72ZC","37S0QRNUFB29SLTNXLPAM35NX0F88U","","","img/flower6.png","76","722.2000000029802","3","1","3","0.7,0.2,0,0.7,0,0.2,0.2,0,0.7",""
"null","","html-keyboard-response","247","306413","0.0-247.0","3TS1AR6UQR0GT6WLMW8C7EM2EI67FP","AQ9Y6WD8O72ZC","37S0QRNUFB29SLTNXLPAM35NX0F88U","","","<img src=""img/flower6.png"" style=""width:200px; border:14px solid green;"">","null","","","","","",""
"406.80000000447035","","image-keyboard-response","248","306821","0.0-248.0","3TS1AR6UQR0GT6WLMW8C7EM2EI67FP","AQ9Y6WD8O72ZC","37S0QRNUFB29SLTNXLPAM35NX0F88U","","","img/flower6.png","76","407.59999999403954","3","1","3","0.7,0.2,0,0.7,0,0.2,0.2,0,0.7",""
"null","","html-keyboard-response","249","307129","0.0-249.0","3TS1AR6UQR0GT6WLMW8C7EM2EI67FP","AQ9Y6WD8O72ZC","37S0QRNUFB29SLTNXLPAM35NX0F88U","","","<img src=""img/flower6.png"" style=""width:200px; border:14px solid green;"">","null","","","","","",""
"739.5","","image-keyboard-response","250","307869","0.0-250.0","3TS1AR6UQR0GT6WLMW8C7EM2EI67FP","AQ9Y6WD8O72ZC","37S0QRNUFB29SLTNXLPAM35NX0F88U","","","img/flower3.png","74","740.2999999970198","1","1","1","0.7,0.2,0,0.7,0,0.2,0.2,0,0.7",""
"null","","html-keyboard-response","251","308185","0.0-251.0","3TS1AR6UQR0GT6WLMW8C7EM2EI67FP","AQ9Y6WD8O72ZC","37S0QRNUFB29SLTNXLPAM35NX0F88U","","","<img src=""img/flower3.png"" style=""width:200px; border:14px solid green;"">","null","","","","","",""
"368.79999999701977","","image-keyboard-response","252","308555","0.0-252.0","3TS1AR6UQR0GT6WLMW8C7EM2EI67FP","AQ9Y6WD8O72ZC","37S0QRNUFB29SLTNXLPAM35NX0F88U","","","img/flower2.png","74","369.6000000014901","1","1","2","0.7,0.2,0,0.7,0,0.2,0.2,0,0.7",""
"null","","html-keyboard-response","253","308871","0.0-253.0","3TS1AR6UQR0GT6WLMW8C7EM2EI67FP","AQ9Y6WD8O72ZC","37S0QRNUFB29SLTNXLPAM35NX0F88U","","","<img src=""img/flower2.png"" style=""width:200px; border:14px solid green;"">","null","","","","","",""
"407.69999999552965","","image-keyboard-response","254","309279","0.0-254.0","3TS1AR6UQR0GT6WLMW8C7EM2EI67FP","AQ9Y6WD8O72ZC","37S0QRNUFB29SLTNXLPAM35NX0F88U","","","img/flower6.png","74","408.19999999552965","1","0","3","0.7,0.2,0,0.7,0,0.2,0.2,0,0.7",""
"null","","html-keyboard-response","255","309596","0.0-255.0","3TS1AR6UQR0GT6WLMW8C7EM2EI67FP","AQ9Y6WD8O72ZC","37S0QRNUFB29SLTNXLPAM35NX0F88U","","","<img src=""img/flower6.png"" style=""width:200px;border:14px solid red;"">","null","","","","","",""
"438.20000000298023","","image-keyboard-response","256","310035","0.0-256.0","3TS1AR6UQR0GT6WLMW8C7EM2EI67FP","AQ9Y6WD8O72ZC","37S0QRNUFB29SLTNXLPAM35NX0F88U","","","img/flower6.png","76","439.1000000014901","3","1","3","0.7,0.2,0,0.7,0,0.2,0.2,0,0.7",""
"null","","html-keyboard-response","257","310339","0.0-257.0","3TS1AR6UQR0GT6WLMW8C7EM2EI67FP","AQ9Y6WD8O72ZC","37S0QRNUFB29SLTNXLPAM35NX0F88U","","","<img src=""img/flower6.png"" style=""width:200px; border:14px solid green;"">","null","","","","","",""
"628.6000000014901","","image-keyboard-response","258","310968","0.0-258.0","3TS1AR6UQR0GT6WLMW8C7EM2EI67FP","AQ9Y6WD8O72ZC","37S0QRNUFB29SLTNXLPAM35NX0F88U","","","img/flower3.png","74","629.1999999955297","1","1","1","0.7,0.2,0,0.7,0,0.2,0.2,0,0.7",""
"null","","html-keyboard-response","259","311279","0.0-259.0","3TS1AR6UQR0GT6WLMW8C7EM2EI67FP","AQ9Y6WD8O72ZC","37S0QRNUFB29SLTNXLPAM35NX0F88U","","","<img src=""img/flower3.png"" style=""width:200px; border:14px solid green;"">","null","","","","","",""
"476.40000000596046","","image-keyboard-response","260","311756","0.0-260.0","3TS1AR6UQR0GT6WLMW8C7EM2EI67FP","AQ9Y6WD8O72ZC","37S0QRNUFB29SLTNXLPAM35NX0F88U","","","img/flower6.png","74","477.1000000014901","1","1","3","0.7,0.2,0,0.7,0,0.2,0.2,0,0.7",""
"null","","html-keyboard-response","261","312068","0.0-261.0","3TS1AR6UQR0GT6WLMW8C7EM2EI67FP","AQ9Y6WD8O72ZC","37S0QRNUFB29SLTNXLPAM35NX0F88U","","","<img src=""img/flower6.png"" style=""width:200px; border:14px solid green;"">","null","","","","","",""
"642.1000000014901","","image-keyboard-response","262","312711","0.0-262.0","3TS1AR6UQR0GT6WLMW8C7EM2EI67FP","AQ9Y6WD8O72ZC","37S0QRNUFB29SLTNXLPAM35NX0F88U","","","img/flower2.png","74","643","1","0","2","0.7,0.2,0,0.7,0,0.2,0.2,0,0.7",""
"null","","html-keyboard-response","263","313016","0.0-263.0","3TS1AR6UQR0GT6WLMW8C7EM2EI67FP","AQ9Y6WD8O72ZC","37S0QRNUFB29SLTNXLPAM35NX0F88U","","","<img src=""img/flower2.png"" style=""width:200px;border:14px solid red;"">","null","","","","","",""
"792.8999999985099","","image-keyboard-response","264","313810","0.0-264.0","3TS1AR6UQR0GT6WLMW8C7EM2EI67FP","AQ9Y6WD8O72ZC","37S0QRNUFB29SLTNXLPAM35NX0F88U","","","img/flower3.png","74","793.6999999955297","1","0","1","0.7,0.2,0,0.7,0,0.2,0.2,0,0.7",""
"null","","html-keyboard-response","265","314118","0.0-265.0","3TS1AR6UQR0GT6WLMW8C7EM2EI67FP","AQ9Y6WD8O72ZC","37S0QRNUFB29SLTNXLPAM35NX0F88U","","","<img src=""img/flower3.png"" style=""width:200px;border:14px solid red;"">","null","","","","","",""
"435.79999999701977","","image-keyboard-response","266","314555","0.0-266.0","3TS1AR6UQR0GT6WLMW8C7EM2EI67FP","AQ9Y6WD8O72ZC","37S0QRNUFB29SLTNXLPAM35NX0F88U","","","img/flower3.png","74","436.5","1","1","1","0.7,0.2,0,0.7,0,0.2,0.2,0,0.7",""
"null","","html-keyboard-response","267","314867","0.0-267.0","3TS1AR6UQR0GT6WLMW8C7EM2EI67FP","AQ9Y6WD8O72ZC","37S0QRNUFB29SLTNXLPAM35NX0F88U","","","<img src=""img/flower3.png"" style=""width:200px; border:14px solid green;"">","null","","","","","",""
"660.7000000029802","","image-keyboard-response","268","315529","0.0-268.0","3TS1AR6UQR0GT6WLMW8C7EM2EI67FP","AQ9Y6WD8O72ZC","37S0QRNUFB29SLTNXLPAM35NX0F88U","","","img/flower3.png","74","661.6000000014901","1","0","1","0.7,0.2,0,0.7,0,0.2,0.2,0,0.7",""
"null","","html-keyboard-response","269","315844","0.0-269.0","3TS1AR6UQR0GT6WLMW8C7EM2EI67FP","AQ9Y6WD8O72ZC","37S0QRNUFB29SLTNXLPAM35NX0F88U","","","<img src=""img/flower3.png"" style=""width:200px;border:14px solid red;"">","null","","","","","",""
"452.6000000014901","","image-keyboard-response","270","316298","0.0-270.0","3TS1AR6UQR0GT6WLMW8C7EM2EI67FP","AQ9Y6WD8O72ZC","37S0QRNUFB29SLTNXLPAM35NX0F88U","","","img/flower2.png","74","453.70000000298023","1","1","2","0.7,0.2,0,0.7,0,0.2,0.2,0,0.7",""
"null","","html-keyboard-response","271","316614","0.0-271.0","3TS1AR6UQR0GT6WLMW8C7EM2EI67FP","AQ9Y6WD8O72ZC","37S0QRNUFB29SLTNXLPAM35NX0F88U","","","<img src=""img/flower2.png"" style=""width:200px; border:14px solid green;"">","null","","","","","",""
"535.7999999970198","","image-keyboard-response","272","317150","0.0-272.0","3TS1AR6UQR0GT6WLMW8C7EM2EI67FP","AQ9Y6WD8O72ZC","37S0QRNUFB29SLTNXLPAM35NX0F88U","","","img/flower6.png","76","536.3999999985099","3","1","3","0.7,0.2,0,0.7,0,0.2,0.2,0,0.7",""
"null","","html-keyboard-response","273","317452","0.0-273.0","3TS1AR6UQR0GT6WLMW8C7EM2EI67FP","AQ9Y6WD8O72ZC","37S0QRNUFB29SLTNXLPAM35NX0F88U","","","<img src=""img/flower6.png"" style=""width:200px; border:14px solid green;"">","null","","","","","",""
"630.1000000014901","","image-keyboard-response","274","318083","0.0-274.0","3TS1AR6UQR0GT6WLMW8C7EM2EI67FP","AQ9Y6WD8O72ZC","37S0QRNUFB29SLTNXLPAM35NX0F88U","","","img/flower3.png","74","630.6999999955297","1","0","1","0.7,0.2,0,0.7,0,0.2,0.2,0,0.7",""
"null","","html-keyboard-response","275","318395","0.0-275.0","3TS1AR6UQR0GT6WLMW8C7EM2EI67FP","AQ9Y6WD8O72ZC","37S0QRNUFB29SLTNXLPAM35NX0F88U","","","<img src=""img/flower3.png"" style=""width:200px;border:14px solid red;"">","null","","","","","",""
"178.69999999552965","","image-keyboard-response","276","318575","0.0-276.0","3TS1AR6UQR0GT6WLMW8C7EM2EI67FP","AQ9Y6WD8O72ZC","37S0QRNUFB29SLTNXLPAM35NX0F88U","","","img/flower6.png","74","179.29999999701977","1","0","3","0.7,0.2,0,0.7,0,0.2,0.2,0,0.7",""
"null","","html-keyboard-response","277","318889","0.0-277.0","3TS1AR6UQR0GT6WLMW8C7EM2EI67FP","AQ9Y6WD8O72ZC","37S0QRNUFB29SLTNXLPAM35NX0F88U","","","<img src=""img/flower6.png"" style=""width:200px;border:14px solid red;"">","null","","","","","",""
"876.7000000029802","","image-keyboard-response","278","319767","0.0-278.0","3TS1AR6UQR0GT6WLMW8C7EM2EI67FP","AQ9Y6WD8O72ZC","37S0QRNUFB29SLTNXLPAM35NX0F88U","","","img/flower3.png","74","877.6000000014901","1","0","1","0.7,0.2,0,0.7,0,0.2,0.2,0,0.7",""
"null","","html-keyboard-response","279","320074","0.0-279.0","3TS1AR6UQR0GT6WLMW8C7EM2EI67FP","AQ9Y6WD8O72ZC","37S0QRNUFB29SLTNXLPAM35NX0F88U","","","<img src=""img/flower3.png"" style=""width:200px;border:14px solid red;"">","null","","","","","",""
"716.7999999970198","","image-keyboard-response","280","320791","0.0-280.0","3TS1AR6UQR0GT6WLMW8C7EM2EI67FP","AQ9Y6WD8O72ZC","37S0QRNUFB29SLTNXLPAM35NX0F88U","","","img/flower6.png","76","717.6000000014901","3","1","3","0.7,0.2,0,0.7,0,0.2,0.2,0,0.7",""
"null","","html-keyboard-response","281","321096","0.0-281.0","3TS1AR6UQR0GT6WLMW8C7EM2EI67FP","AQ9Y6WD8O72ZC","37S0QRNUFB29SLTNXLPAM35NX0F88U","","","<img src=""img/flower6.png"" style=""width:200px; border:14px solid green;"">","null","","","","","",""
"603.6000000014901","","image-keyboard-response","282","321700","0.0-282.0","3TS1AR6UQR0GT6WLMW8C7EM2EI67FP","AQ9Y6WD8O72ZC","37S0QRNUFB29SLTNXLPAM35NX0F88U","","","img/flower6.png","76","604.2000000029802","3","1","3","0.7,0.2,0,0.7,0,0.2,0.2,0,0.7",""
"null","","html-keyboard-response","283","322005","0.0-283.0","3TS1AR6UQR0GT6WLMW8C7EM2EI67FP","AQ9Y6WD8O72ZC","37S0QRNUFB29SLTNXLPAM35NX0F88U","","","<img src=""img/flower6.png"" style=""width:200px; border:14px solid green;"">","null","","","","","",""
"619.6999999955297","","image-keyboard-response","284","322626","0.0-284.0","3TS1AR6UQR0GT6WLMW8C7EM2EI67FP","AQ9Y6WD8O72ZC","37S0QRNUFB29SLTNXLPAM35NX0F88U","","","img/flower3.png","74","620.4000000059605","1","0","1","0.7,0.2,0,0.7,0,0.2,0.2,0,0.7",""
"null","","html-keyboard-response","285","322932","0.0-285.0","3TS1AR6UQR0GT6WLMW8C7EM2EI67FP","AQ9Y6WD8O72ZC","37S0QRNUFB29SLTNXLPAM35NX0F88U","","","<img src=""img/flower3.png"" style=""width:200px;border:14px solid red;"">","null","","","","","",""
"258.8999999985099","","image-keyboard-response","286","323192","0.0-286.0","3TS1AR6UQR0GT6WLMW8C7EM2EI67FP","AQ9Y6WD8O72ZC","37S0QRNUFB29SLTNXLPAM35NX0F88U","","","img/flower3.png","74","259.80000000447035","1","1","1","0.7,0.2,0,0.7,0,0.2,0.2,0,0.7",""
"null","","html-keyboard-response","287","323504","0.0-287.0","3TS1AR6UQR0GT6WLMW8C7EM2EI67FP","AQ9Y6WD8O72ZC","37S0QRNUFB29SLTNXLPAM35NX0F88U","","","<img src=""img/flower3.png"" style=""width:200px; border:14px solid green;"">","null","","","","","",""
"532.5","","image-keyboard-response","288","324038","0.0-288.0","3TS1AR6UQR0GT6WLMW8C7EM2EI67FP","AQ9Y6WD8O72ZC","37S0QRNUFB29SLTNXLPAM35NX0F88U","","","img/flower3.png","74","533.1000000014901","1","1","1","0.7,0.2,0,0.7,0,0.2,0.2,0,0.7",""
"null","","html-keyboard-response","289","324340","0.0-289.0","3TS1AR6UQR0GT6WLMW8C7EM2EI67FP","AQ9Y6WD8O72ZC","37S0QRNUFB29SLTNXLPAM35NX0F88U","","","<img src=""img/flower3.png"" style=""width:200px; border:14px solid green;"">","null","","","","","",""
"701.8999999985099","","image-keyboard-response","290","325043","0.0-290.0","3TS1AR6UQR0GT6WLMW8C7EM2EI67FP","AQ9Y6WD8O72ZC","37S0QRNUFB29SLTNXLPAM35NX0F88U","","","img/flower6.png","76","702.7000000029802","3","0","3","0.7,0.2,0,0.7,0,0.2,0.2,0,0.7",""
"null","","html-keyboard-response","291","325349","0.0-291.0","3TS1AR6UQR0GT6WLMW8C7EM2EI67FP","AQ9Y6WD8O72ZC","37S0QRNUFB29SLTNXLPAM35NX0F88U","","","<img src=""img/flower6.png"" style=""width:200px;border:14px solid red;"">","null","","","","","",""
"257.8999999985099","","image-keyboard-response","292","325607","0.0-292.0","3TS1AR6UQR0GT6WLMW8C7EM2EI67FP","AQ9Y6WD8O72ZC","37S0QRNUFB29SLTNXLPAM35NX0F88U","","","img/flower6.png","76","258.5","3","0","3","0.7,0.2,0,0.7,0,0.2,0.2,0,0.7",""
"null","","html-keyboard-response","293","325909","0.0-293.0","3TS1AR6UQR0GT6WLMW8C7EM2EI67FP","AQ9Y6WD8O72ZC","37S0QRNUFB29SLTNXLPAM35NX0F88U","","","<img src=""img/flower6.png"" style=""width:200px;border:14px solid red;"">","null","","","","","",""
"557.7999999970198","","image-keyboard-response","294","326468","0.0-294.0","3TS1AR6UQR0GT6WLMW8C7EM2EI67FP","AQ9Y6WD8O72ZC","37S0QRNUFB29SLTNXLPAM35NX0F88U","","","img/flower3.png","74","558.5","1","1","1","0.7,0.2,0,0.7,0,0.2,0.2,0,0.7",""
"null","","html-keyboard-response","295","326779","0.0-295.0","3TS1AR6UQR0GT6WLMW8C7EM2EI67FP","AQ9Y6WD8O72ZC","37S0QRNUFB29SLTNXLPAM35NX0F88U","","","<img src=""img/flower3.png"" style=""width:200px; border:14px solid green;"">","null","","","","","",""
"417.20000000298023","","image-keyboard-response","296","327197","0.0-296.0","3TS1AR6UQR0GT6WLMW8C7EM2EI67FP","AQ9Y6WD8O72ZC","37S0QRNUFB29SLTNXLPAM35NX0F88U","","","img/flower2.png","74","417.8999999985099","1","1","2","0.7,0.2,0,0.7,0,0.2,0.2,0,0.7",""
"null","","html-keyboard-response","297","327507","0.0-297.0","3TS1AR6UQR0GT6WLMW8C7EM2EI67FP","AQ9Y6WD8O72ZC","37S0QRNUFB29SLTNXLPAM35NX0F88U","","","<img src=""img/flower2.png"" style=""width:200px; border:14px solid green;"">","null","","","","","",""
"443.80000000447035","","image-keyboard-response","298","327952","0.0-298.0","3TS1AR6UQR0GT6WLMW8C7EM2EI67FP","AQ9Y6WD8O72ZC","37S0QRNUFB29SLTNXLPAM35NX0F88U","","","img/flower2.png","74","444.8999999985099","1","1","2","0.7,0.2,0,0.7,0,0.2,0.2,0,0.7",""
"null","","html-keyboard-response","299","328253","0.0-299.0","3TS1AR6UQR0GT6WLMW8C7EM2EI67FP","AQ9Y6WD8O72ZC","37S0QRNUFB29SLTNXLPAM35NX0F88U","","","<img src=""img/flower2.png"" style=""width:200px; border:14px solid green;"">","null","","","","","",""
"605.2000000029802","","image-keyboard-response","300","328859","0.0-300.0","3TS1AR6UQR0GT6WLMW8C7EM2EI67FP","AQ9Y6WD8O72ZC","37S0QRNUFB29SLTNXLPAM35NX0F88U","","","img/flower6.png","76","605.9000000059605","3","0","3","0.7,0.2,0,0.7,0,0.2,0.2,0,0.7",""
"null","","html-keyboard-response","301","329167","0.0-301.0","3TS1AR6UQR0GT6WLMW8C7EM2EI67FP","AQ9Y6WD8O72ZC","37S0QRNUFB29SLTNXLPAM35NX0F88U","","","<img src=""img/flower6.png"" style=""width:200px;border:14px solid red;"">","null","","","","","",""
"591.3000000044703","","image-keyboard-response","302","329760","0.0-302.0","3TS1AR6UQR0GT6WLMW8C7EM2EI67FP","AQ9Y6WD8O72ZC","37S0QRNUFB29SLTNXLPAM35NX0F88U","","","img/flower2.png","74","592.1000000014901","1","1","2","0.7,0.2,0,0.7,0,0.2,0.2,0,0.7",""
"null","","html-keyboard-response","303","330075","0.0-303.0","3TS1AR6UQR0GT6WLMW8C7EM2EI67FP","AQ9Y6WD8O72ZC","37S0QRNUFB29SLTNXLPAM35NX0F88U","","","<img src=""img/flower2.png"" style=""width:200px; border:14px solid green;"">","null","","","","","",""
"615.5","","image-keyboard-response","304","330691","0.0-304.0","3TS1AR6UQR0GT6WLMW8C7EM2EI67FP","AQ9Y6WD8O72ZC","37S0QRNUFB29SLTNXLPAM35NX0F88U","","","img/flower3.png","74","616.5","1","0","1","0.7,0.2,0,0.7,0,0.2,0.2,0,0.7",""
"null","","html-keyboard-response","305","331004","0.0-305.0","3TS1AR6UQR0GT6WLMW8C7EM2EI67FP","AQ9Y6WD8O72ZC","37S0QRNUFB29SLTNXLPAM35NX0F88U","","","<img src=""img/flower3.png"" style=""width:200px;border:14px solid red;"">","null","","","","","",""
"","","html-keyboard-response","306","333172","0.0-306.0","3TS1AR6UQR0GT6WLMW8C7EM2EI67FP","AQ9Y6WD8O72ZC","37S0QRNUFB29SLTNXLPAM35NX0F88U","","","","","","","","","",""
"1510.3999999985099","","image-keyboard-response","307","334683","0.0-307.0","3TS1AR6UQR0GT6WLMW8C7EM2EI67FP","AQ9Y6WD8O72ZC","37S0QRNUFB29SLTNXLPAM35NX0F88U","","","img/flower1.png","75","1511.2999999970198","2","1","2","0.7,0.2,0,0,0.7,0.2,0.2,0,0.7",""
"null","","html-keyboard-response","308","334987","0.0-308.0","3TS1AR6UQR0GT6WLMW8C7EM2EI67FP","AQ9Y6WD8O72ZC","37S0QRNUFB29SLTNXLPAM35NX0F88U","","","<img src=""img/flower1.png"" style=""width:200px; border:14px solid green;"">","null","","","","","",""
"758.2000000029802","","image-keyboard-response","309","335747","0.0-309.0","3TS1AR6UQR0GT6WLMW8C7EM2EI67FP","AQ9Y6WD8O72ZC","37S0QRNUFB29SLTNXLPAM35NX0F88U","","","img/flower5.png","74","759.1000000014901","1","0","1","0.7,0.2,0,0,0.7,0.2,0.2,0,0.7",""
"null","","html-keyboard-response","310","336059","0.0-310.0","3TS1AR6UQR0GT6WLMW8C7EM2EI67FP","AQ9Y6WD8O72ZC","37S0QRNUFB29SLTNXLPAM35NX0F88U","","","<img src=""img/flower5.png"" style=""width:200px;border:14px solid red;"">","null","","","","","",""
"781.8999999985099","","image-keyboard-response","311","336842","0.0-311.0","3TS1AR6UQR0GT6WLMW8C7EM2EI67FP","AQ9Y6WD8O72ZC","37S0QRNUFB29SLTNXLPAM35NX0F88U","","","img/flower1.png","75","782.5","2","1","2","0.7,0.2,0,0,0.7,0.2,0.2,0,0.7",""
"null","","html-keyboard-response","312","337144","0.0-312.0","3TS1AR6UQR0GT6WLMW8C7EM2EI67FP","AQ9Y6WD8O72ZC","37S0QRNUFB29SLTNXLPAM35NX0F88U","","","<img src=""img/flower1.png"" style=""width:200px; border:14px solid green;"">","null","","","","","",""
"917.1000000014901","","image-keyboard-response","313","338062","0.0-313.0","3TS1AR6UQR0GT6WLMW8C7EM2EI67FP","AQ9Y6WD8O72ZC","37S0QRNUFB29SLTNXLPAM35NX0F88U","","","img/flower5.png","75","917.7000000029802","2","0","1","0.7,0.2,0,0,0.7,0.2,0.2,0,0.7",""
"null","","html-keyboard-response","314","338370","0.0-314.0","3TS1AR6UQR0GT6WLMW8C7EM2EI67FP","AQ9Y6WD8O72ZC","37S0QRNUFB29SLTNXLPAM35NX0F88U","","","<img src=""img/flower5.png"" style=""width:200px;border:14px solid red;"">","null","","","","","",""
"1212.2000000029802","","image-keyboard-response","315","339583","0.0-315.0","3TS1AR6UQR0GT6WLMW8C7EM2EI67FP","AQ9Y6WD8O72ZC","37S0QRNUFB29SLTNXLPAM35NX0F88U","","","img/flower4.png","76","1212.9000000059605","3","1","3","0.7,0.2,0,0,0.7,0.2,0.2,0,0.7",""
"null","","html-keyboard-response","316","339892","0.0-316.0","3TS1AR6UQR0GT6WLMW8C7EM2EI67FP","AQ9Y6WD8O72ZC","37S0QRNUFB29SLTNXLPAM35NX0F88U","","","<img src=""img/flower4.png"" style=""width:200px; border:14px solid green;"">","null","","","","","",""
"470.20000000298023","","image-keyboard-response","317","340363","0.0-317.0","3TS1AR6UQR0GT6WLMW8C7EM2EI67FP","AQ9Y6WD8O72ZC","37S0QRNUFB29SLTNXLPAM35NX0F88U","","","img/flower4.png","76","471","3","1","3","0.7,0.2,0,0,0.7,0.2,0.2,0,0.7",""
"null","","html-keyboard-response","318","340671","0.0-318.0","3TS1AR6UQR0GT6WLMW8C7EM2EI67FP","AQ9Y6WD8O72ZC","37S0QRNUFB29SLTNXLPAM35NX0F88U","","","<img src=""img/flower4.png"" style=""width:200px; border:14px solid green;"">","null","","","","","",""
"317.8999999985099","","image-keyboard-response","319","340990","0.0-319.0","3TS1AR6UQR0GT6WLMW8C7EM2EI67FP","AQ9Y6WD8O72ZC","37S0QRNUFB29SLTNXLPAM35NX0F88U","","","img/flower4.png","76","318.5","3","0","3","0.7,0.2,0,0,0.7,0.2,0.2,0,0.7",""
"null","","html-keyboard-response","320","341303","0.0-320.0","3TS1AR6UQR0GT6WLMW8C7EM2EI67FP","AQ9Y6WD8O72ZC","37S0QRNUFB29SLTNXLPAM35NX0F88U","","","<img src=""img/flower4.png"" style=""width:200px;border:14px solid red;"">","null","","","","","",""
"601.2999999970198","","image-keyboard-response","321","341905","0.0-321.0","3TS1AR6UQR0GT6WLMW8C7EM2EI67FP","AQ9Y6WD8O72ZC","37S0QRNUFB29SLTNXLPAM35NX0F88U","","","img/flower5.png","75","602.1000000014901","2","0","1","0.7,0.2,0,0,0.7,0.2,0.2,0,0.7",""
"null","","html-keyboard-response","322","342213","0.0-322.0","3TS1AR6UQR0GT6WLMW8C7EM2EI67FP","AQ9Y6WD8O72ZC","37S0QRNUFB29SLTNXLPAM35NX0F88U","","","<img src=""img/flower5.png"" style=""width:200px;border:14px solid red;"">","null","","","","","",""
"321","","image-keyboard-response","323","342535","0.0-323.0","3TS1AR6UQR0GT6WLMW8C7EM2EI67FP","AQ9Y6WD8O72ZC","37S0QRNUFB29SLTNXLPAM35NX0F88U","","","img/flower5.png","75","321.69999999552965","2","1","1","0.7,0.2,0,0,0.7,0.2,0.2,0,0.7",""
"null","","html-keyboard-response","324","342848","0.0-324.0","3TS1AR6UQR0GT6WLMW8C7EM2EI67FP","AQ9Y6WD8O72ZC","37S0QRNUFB29SLTNXLPAM35NX0F88U","","","<img src=""img/flower5.png"" style=""width:200px; border:14px solid green;"">","null","","","","","",""
"525.8999999985099","","image-keyboard-response","325","343375","0.0-325.0","3TS1AR6UQR0GT6WLMW8C7EM2EI67FP","AQ9Y6WD8O72ZC","37S0QRNUFB29SLTNXLPAM35NX0F88U","","","img/flower4.png","76","526.6000000014901","3","0","3","0.7,0.2,0,0,0.7,0.2,0.2,0,0.7",""
"null","","html-keyboard-response","326","343686","0.0-326.0","3TS1AR6UQR0GT6WLMW8C7EM2EI67FP","AQ9Y6WD8O72ZC","37S0QRNUFB29SLTNXLPAM35NX0F88U","","","<img src=""img/flower4.png"" style=""width:200px;border:14px solid red;"">","null","","","","","",""
"242.69999999552965","","image-keyboard-response","327","343929","0.0-327.0","3TS1AR6UQR0GT6WLMW8C7EM2EI67FP","AQ9Y6WD8O72ZC","37S0QRNUFB29SLTNXLPAM35NX0F88U","","","img/flower5.png","76","243.30000000447035","3","0","1","0.7,0.2,0,0,0.7,0.2,0.2,0,0.7",""
"null","","html-keyboard-response","328","344244","0.0-328.0","3TS1AR6UQR0GT6WLMW8C7EM2EI67FP","AQ9Y6WD8O72ZC","37S0QRNUFB29SLTNXLPAM35NX0F88U","","","<img src=""img/flower5.png"" style=""width:200px;border:14px solid red;"">","null","","","","","",""
"677.5","","image-keyboard-response","329","344922","0.0-329.0","3TS1AR6UQR0GT6WLMW8C7EM2EI67FP","AQ9Y6WD8O72ZC","37S0QRNUFB29SLTNXLPAM35NX0F88U","","","img/flower4.png","75","678.2999999970198","2","0","3","0.7,0.2,0,0,0.7,0.2,0.2,0,0.7",""
"null","","html-keyboard-response","330","345224","0.0-330.0","3TS1AR6UQR0GT6WLMW8C7EM2EI67FP","AQ9Y6WD8O72ZC","37S0QRNUFB29SLTNXLPAM35NX0F88U","","","<img src=""img/flower4.png"" style=""width:200px;border:14px solid red;"">","null","","","","","",""
"662.7999999970198","","image-keyboard-response","331","345888","0.0-331.0","3TS1AR6UQR0GT6WLMW8C7EM2EI67FP","AQ9Y6WD8O72ZC","37S0QRNUFB29SLTNXLPAM35NX0F88U","","","img/flower5.png","75","663.8000000044703","2","0","1","0.7,0.2,0,0,0.7,0.2,0.2,0,0.7",""
"null","","html-keyboard-response","332","346204","0.0-332.0","3TS1AR6UQR0GT6WLMW8C7EM2EI67FP","AQ9Y6WD8O72ZC","37S0QRNUFB29SLTNXLPAM35NX0F88U","","","<img src=""img/flower5.png"" style=""width:200px;border:14px solid red;"">","null","","","","","",""
"789.5","","image-keyboard-response","333","346995","0.0-333.0","3TS1AR6UQR0GT6WLMW8C7EM2EI67FP","AQ9Y6WD8O72ZC","37S0QRNUFB29SLTNXLPAM35NX0F88U","","","img/flower1.png","74","790.5999999940395","1","0","2","0.7,0.2,0,0,0.7,0.2,0.2,0,0.7",""
"null","","html-keyboard-response","334","347306","0.0-334.0","3TS1AR6UQR0GT6WLMW8C7EM2EI67FP","AQ9Y6WD8O72ZC","37S0QRNUFB29SLTNXLPAM35NX0F88U","","","<img src=""img/flower1.png"" style=""width:200px;border:14px solid red;"">","null","","","","","",""
"677.3000000044703","","image-keyboard-response","335","347984","0.0-335.0","3TS1AR6UQR0GT6WLMW8C7EM2EI67FP","AQ9Y6WD8O72ZC","37S0QRNUFB29SLTNXLPAM35NX0F88U","","","img/flower4.png","74","678.1000000014901","1","1","3","0.7,0.2,0,0,0.7,0.2,0.2,0,0.7",""
"null","","html-keyboard-response","336","348290","0.0-336.0","3TS1AR6UQR0GT6WLMW8C7EM2EI67FP","AQ9Y6WD8O72ZC","37S0QRNUFB29SLTNXLPAM35NX0F88U","","","<img src=""img/flower4.png"" style=""width:200px; border:14px solid green;"">","null","","","","","",""
"1471.2000000029802","","image-keyboard-response","337","349762","0.0-337.0","3TS1AR6UQR0GT6WLMW8C7EM2EI67FP","AQ9Y6WD8O72ZC","37S0QRNUFB29SLTNXLPAM35NX0F88U","","","img/flower4.png","74","1472","1","0","3","0.7,0.2,0,0,0.7,0.2,0.2,0,0.7",""
"null","","html-keyboard-response","338","350069","0.0-338.0","3TS1AR6UQR0GT6WLMW8C7EM2EI67FP","AQ9Y6WD8O72ZC","37S0QRNUFB29SLTNXLPAM35NX0F88U","","","<img src=""img/flower4.png"" style=""width:200px;border:14px solid red;"">","null","","","","","",""
"466.8999999985099","","image-keyboard-response","339","350537","0.0-339.0","3TS1AR6UQR0GT6WLMW8C7EM2EI67FP","AQ9Y6WD8O72ZC","37S0QRNUFB29SLTNXLPAM35NX0F88U","","","img/flower5.png","75","467.6000000014901","2","0","1","0.7,0.2,0,0,0.7,0.2,0.2,0,0.7",""
"null","","html-keyboard-response","340","350847","0.0-340.0","3TS1AR6UQR0GT6WLMW8C7EM2EI67FP","AQ9Y6WD8O72ZC","37S0QRNUFB29SLTNXLPAM35NX0F88U","","","<img src=""img/flower5.png"" style=""width:200px;border:14px solid red;"">","null","","","","","",""
"729.5","","image-keyboard-response","341","351577","0.0-341.0","3TS1AR6UQR0GT6WLMW8C7EM2EI67FP","AQ9Y6WD8O72ZC","37S0QRNUFB29SLTNXLPAM35NX0F88U","","","img/flower1.png","76","730.3000000044703","3","0","2","0.7,0.2,0,0,0.7,0.2,0.2,0,0.7",""
"null","","html-keyboard-response","342","351883","0.0-342.0","3TS1AR6UQR0GT6WLMW8C7EM2EI67FP","AQ9Y6WD8O72ZC","37S0QRNUFB29SLTNXLPAM35NX0F88U","","","<img src=""img/flower1.png"" style=""width:200px;border:14px solid red;"">","null","","","","","",""
"940","","image-keyboard-response","343","352824","0.0-343.0","3TS1AR6UQR0GT6WLMW8C7EM2EI67FP","AQ9Y6WD8O72ZC","37S0QRNUFB29SLTNXLPAM35NX0F88U","","","img/flower1.png","76","940.7000000029802","3","0","2","0.7,0.2,0,0,0.7,0.2,0.2,0,0.7",""
"null","","html-keyboard-response","344","353139","0.0-344.0","3TS1AR6UQR0GT6WLMW8C7EM2EI67FP","AQ9Y6WD8O72ZC","37S0QRNUFB29SLTNXLPAM35NX0F88U","","","<img src=""img/flower1.png"" style=""width:200px;border:14px solid red;"">","null","","","","","",""
"872.7999999970198","","image-keyboard-response","345","354013","0.0-345.0","3TS1AR6UQR0GT6WLMW8C7EM2EI67FP","AQ9Y6WD8O72ZC","37S0QRNUFB29SLTNXLPAM35NX0F88U","","","img/flower4.png","76","873.5","3","0","3","0.7,0.2,0,0,0.7,0.2,0.2,0,0.7",""
"null","","html-keyboard-response","346","354317","0.0-346.0","3TS1AR6UQR0GT6WLMW8C7EM2EI67FP","AQ9Y6WD8O72ZC","37S0QRNUFB29SLTNXLPAM35NX0F88U","","","<img src=""img/flower4.png"" style=""width:200px;border:14px solid red;"">","null","","","","","",""
"816.2999999970198","","image-keyboard-response","347","355134","0.0-347.0","3TS1AR6UQR0GT6WLMW8C7EM2EI67FP","AQ9Y6WD8O72ZC","37S0QRNUFB29SLTNXLPAM35NX0F88U","","","img/flower5.png","76","817.2000000029802","3","0","1","0.7,0.2,0,0,0.7,0.2,0.2,0,0.7",""
"null","","html-keyboard-response","348","355438","0.0-348.0","3TS1AR6UQR0GT6WLMW8C7EM2EI67FP","AQ9Y6WD8O72ZC","37S0QRNUFB29SLTNXLPAM35NX0F88U","","","<img src=""img/flower5.png"" style=""width:200px;border:14px solid red;"">","null","","","","","",""
"569.6000000014901","","image-keyboard-response","349","356008","0.0-349.0","3TS1AR6UQR0GT6WLMW8C7EM2EI67FP","AQ9Y6WD8O72ZC","37S0QRNUFB29SLTNXLPAM35NX0F88U","","","img/flower5.png","75","570.2000000029802","2","0","1","0.7,0.2,0,0,0.7,0.2,0.2,0,0.7",""
"null","","html-keyboard-response","350","356322","0.0-350.0","3TS1AR6UQR0GT6WLMW8C7EM2EI67FP","AQ9Y6WD8O72ZC","37S0QRNUFB29SLTNXLPAM35NX0F88U","","","<img src=""img/flower5.png"" style=""width:200px;border:14px solid red;"">","null","","","","","",""
"939.5","","image-keyboard-response","351","357262","0.0-351.0","3TS1AR6UQR0GT6WLMW8C7EM2EI67FP","AQ9Y6WD8O72ZC","37S0QRNUFB29SLTNXLPAM35NX0F88U","","","img/flower4.png","75","940.2999999970198","2","0","3","0.7,0.2,0,0,0.7,0.2,0.2,0,0.7",""
"null","","html-keyboard-response","352","357564","0.0-352.0","3TS1AR6UQR0GT6WLMW8C7EM2EI67FP","AQ9Y6WD8O72ZC","37S0QRNUFB29SLTNXLPAM35NX0F88U","","","<img src=""img/flower4.png"" style=""width:200px;border:14px solid red;"">","null","","","","","",""
"613.7999999970198","","image-keyboard-response","353","358178","0.0-353.0","3TS1AR6UQR0GT6WLMW8C7EM2EI67FP","AQ9Y6WD8O72ZC","37S0QRNUFB29SLTNXLPAM35NX0F88U","","","img/flower4.png","76","614.6000000014901","3","1","3","0.7,0.2,0,0,0.7,0.2,0.2,0,0.7",""
"null","","html-keyboard-response","354","358494","0.0-354.0","3TS1AR6UQR0GT6WLMW8C7EM2EI67FP","AQ9Y6WD8O72ZC","37S0QRNUFB29SLTNXLPAM35NX0F88U","","","<img src=""img/flower4.png"" style=""width:200px; border:14px solid green;"">","null","","","","","",""
"608.7000000029802","","image-keyboard-response","355","359104","0.0-355.0","3TS1AR6UQR0GT6WLMW8C7EM2EI67FP","AQ9Y6WD8O72ZC","37S0QRNUFB29SLTNXLPAM35NX0F88U","","","img/flower5.png","75","609.1999999955297","2","0","1","0.7,0.2,0,0,0.7,0.2,0.2,0,0.7",""
"null","","html-keyboard-response","356","359410","0.0-356.0","3TS1AR6UQR0GT6WLMW8C7EM2EI67FP","AQ9Y6WD8O72ZC","37S0QRNUFB29SLTNXLPAM35NX0F88U","","","<img src=""img/flower5.png"" style=""width:200px;border:14px solid red;"">","null","","","","","",""
"374.30000000447035","","image-keyboard-response","357","359786","0.0-357.0","3TS1AR6UQR0GT6WLMW8C7EM2EI67FP","AQ9Y6WD8O72ZC","37S0QRNUFB29SLTNXLPAM35NX0F88U","","","img/flower5.png","75","375.3999999985099","2","0","1","0.7,0.2,0,0,0.7,0.2,0.2,0,0.7",""
"null","","html-keyboard-response","358","360090","0.0-358.0","3TS1AR6UQR0GT6WLMW8C7EM2EI67FP","AQ9Y6WD8O72ZC","37S0QRNUFB29SLTNXLPAM35NX0F88U","","","<img src=""img/flower5.png"" style=""width:200px;border:14px solid red;"">","null","","","","","",""
"498.5","","image-keyboard-response","359","360590","0.0-359.0","3TS1AR6UQR0GT6WLMW8C7EM2EI67FP","AQ9Y6WD8O72ZC","37S0QRNUFB29SLTNXLPAM35NX0F88U","","","img/flower1.png","76","499.3999999985099","3","0","2","0.7,0.2,0,0,0.7,0.2,0.2,0,0.7",""
"null","","html-keyboard-response","360","360898","0.0-360.0","3TS1AR6UQR0GT6WLMW8C7EM2EI67FP","AQ9Y6WD8O72ZC","37S0QRNUFB29SLTNXLPAM35NX0F88U","","","<img src=""img/flower1.png"" style=""width:200px;border:14px solid red;"">","null","","","","","",""
"662.5","","image-keyboard-response","361","361562","0.0-361.0","3TS1AR6UQR0GT6WLMW8C7EM2EI67FP","AQ9Y6WD8O72ZC","37S0QRNUFB29SLTNXLPAM35NX0F88U","","","img/flower5.png","75","663.8999999985099","2","0","1","0.7,0.2,0,0,0.7,0.2,0.2,0,0.7",""
"null","","html-keyboard-response","362","361865","0.0-362.0","3TS1AR6UQR0GT6WLMW8C7EM2EI67FP","AQ9Y6WD8O72ZC","37S0QRNUFB29SLTNXLPAM35NX0F88U","","","<img src=""img/flower5.png"" style=""width:200px;border:14px solid red;"">","null","","","","","",""
"427.29999999701977","","image-keyboard-response","363","362293","0.0-363.0","3TS1AR6UQR0GT6WLMW8C7EM2EI67FP","AQ9Y6WD8O72ZC","37S0QRNUFB29SLTNXLPAM35NX0F88U","","","img/flower4.png","74","428.19999999552965","1","0","3","0.7,0.2,0,0,0.7,0.2,0.2,0,0.7",""
"null","","html-keyboard-response","364","362597","0.0-364.0","3TS1AR6UQR0GT6WLMW8C7EM2EI67FP","AQ9Y6WD8O72ZC","37S0QRNUFB29SLTNXLPAM35NX0F88U","","","<img src=""img/flower4.png"" style=""width:200px;border:14px solid red;"">","null","","","","","",""
"496.6000000014901","","image-keyboard-response","365","363094","0.0-365.0","3TS1AR6UQR0GT6WLMW8C7EM2EI67FP","AQ9Y6WD8O72ZC","37S0QRNUFB29SLTNXLPAM35NX0F88U","","","img/flower1.png","74","497.20000000298023","1","0","2","0.7,0.2,0,0,0.7,0.2,0.2,0,0.7",""
"null","","html-keyboard-response","366","363407","0.0-366.0","3TS1AR6UQR0GT6WLMW8C7EM2EI67FP","AQ9Y6WD8O72ZC","37S0QRNUFB29SLTNXLPAM35NX0F88U","","","<img src=""img/flower1.png"" style=""width:200px;border:14px solid red;"">","null","","","","","",""
"445.8999999985099","","image-keyboard-response","367","363854","0.0-367.0","3TS1AR6UQR0GT6WLMW8C7EM2EI67FP","AQ9Y6WD8O72ZC","37S0QRNUFB29SLTNXLPAM35NX0F88U","","","img/flower5.png","74","446.6000000014901","1","0","1","0.7,0.2,0,0,0.7,0.2,0.2,0,0.7",""
"null","","html-keyboard-response","368","364168","0.0-368.0","3TS1AR6UQR0GT6WLMW8C7EM2EI67FP","AQ9Y6WD8O72ZC","37S0QRNUFB29SLTNXLPAM35NX0F88U","","","<img src=""img/flower5.png"" style=""width:200px;border:14px solid red;"">","null","","","","","",""
"430.1000000014901","","image-keyboard-response","369","364599","0.0-369.0","3TS1AR6UQR0GT6WLMW8C7EM2EI67FP","AQ9Y6WD8O72ZC","37S0QRNUFB29SLTNXLPAM35NX0F88U","","","img/flower1.png","74","430.8999999985099","1","0","2","0.7,0.2,0,0,0.7,0.2,0.2,0,0.7",""
"null","","html-keyboard-response","370","364913","0.0-370.0","3TS1AR6UQR0GT6WLMW8C7EM2EI67FP","AQ9Y6WD8O72ZC","37S0QRNUFB29SLTNXLPAM35NX0F88U","","","<img src=""img/flower1.png"" style=""width:200px;border:14px solid red;"">","null","","","","","",""
"598.1999999955297","","image-keyboard-response","371","365512","0.0-371.0","3TS1AR6UQR0GT6WLMW8C7EM2EI67FP","AQ9Y6WD8O72ZC","37S0QRNUFB29SLTNXLPAM35NX0F88U","","","img/flower4.png","75","598.8999999985099","2","0","3","0.7,0.2,0,0,0.7,0.2,0.2,0,0.7",""
"null","","html-keyboard-response","372","365826","0.0-372.0","3TS1AR6UQR0GT6WLMW8C7EM2EI67FP","AQ9Y6WD8O72ZC","37S0QRNUFB29SLTNXLPAM35NX0F88U","","","<img src=""img/flower4.png"" style=""width:200px;border:14px solid red;"">","null","","","","","",""
"434","","image-keyboard-response","373","366261","0.0-373.0","3TS1AR6UQR0GT6WLMW8C7EM2EI67FP","AQ9Y6WD8O72ZC","37S0QRNUFB29SLTNXLPAM35NX0F88U","","","img/flower1.png","76","435","3","0","2","0.7,0.2,0,0,0.7,0.2,0.2,0,0.7",""
"null","","html-keyboard-response","374","366568","0.0-374.0","3TS1AR6UQR0GT6WLMW8C7EM2EI67FP","AQ9Y6WD8O72ZC","37S0QRNUFB29SLTNXLPAM35NX0F88U","","","<img src=""img/flower1.png"" style=""width:200px;border:14px solid red;"">","null","","","","","",""
"713.2000000029802","","image-keyboard-response","375","367283","0.0-375.0","3TS1AR6UQR0GT6WLMW8C7EM2EI67FP","AQ9Y6WD8O72ZC","37S0QRNUFB29SLTNXLPAM35NX0F88U","","","img/flower5.png","75","714","2","1","1","0.7,0.2,0,0,0.7,0.2,0.2,0,0.7",""
"null","","html-keyboard-response","376","367591","0.0-376.0","3TS1AR6UQR0GT6WLMW8C7EM2EI67FP","AQ9Y6WD8O72ZC","37S0QRNUFB29SLTNXLPAM35NX0F88U","","","<img src=""img/flower5.png"" style=""width:200px; border:14px solid green;"">","null","","","","","",""
"1275.2999999970198","","image-keyboard-response","377","368867","0.0-377.0","3TS1AR6UQR0GT6WLMW8C7EM2EI67FP","AQ9Y6WD8O72ZC","37S0QRNUFB29SLTNXLPAM35NX0F88U","","","img/flower1.png","75","1276.0999999940395","2","1","2","0.7,0.2,0,0,0.7,0.2,0.2,0,0.7",""
"null","","html-keyboard-response","378","369172","0.0-378.0","3TS1AR6UQR0GT6WLMW8C7EM2EI67FP","AQ9Y6WD8O72ZC","37S0QRNUFB29SLTNXLPAM35NX0F88U","","","<img src=""img/flower1.png"" style=""width:200px; border:14px solid green;"">","null","","","","","",""
"528.6000000014901","","image-keyboard-response","379","369702","0.0-379.0","3TS1AR6UQR0GT6WLMW8C7EM2EI67FP","AQ9Y6WD8O72ZC","37S0QRNUFB29SLTNXLPAM35NX0F88U","","","img/flower5.png","76","529.4000000059605","3","0","1","0.7,0.2,0,0,0.7,0.2,0.2,0,0.7",""
"null","","html-keyboard-response","380","370009","0.0-380.0","3TS1AR6UQR0GT6WLMW8C7EM2EI67FP","AQ9Y6WD8O72ZC","37S0QRNUFB29SLTNXLPAM35NX0F88U","","","<img src=""img/flower5.png"" style=""width:200px;border:14px solid red;"">","null","","","","","",""
"1068.1000000014901","","image-keyboard-response","381","371078","0.0-381.0","3TS1AR6UQR0GT6WLMW8C7EM2EI67FP","AQ9Y6WD8O72ZC","37S0QRNUFB29SLTNXLPAM35NX0F88U","","","img/flower1.png","74","1068.8999999985099","1","0","2","0.7,0.2,0,0,0.7,0.2,0.2,0,0.7",""
"null","","html-keyboard-response","382","371389","0.0-382.0","3TS1AR6UQR0GT6WLMW8C7EM2EI67FP","AQ9Y6WD8O72ZC","37S0QRNUFB29SLTNXLPAM35NX0F88U","","","<img src=""img/flower1.png"" style=""width:200px;border:14px solid red;"">","null","","","","","",""
"778.7000000029802","","image-keyboard-response","383","372169","0.0-383.0","3TS1AR6UQR0GT6WLMW8C7EM2EI67FP","AQ9Y6WD8O72ZC","37S0QRNUFB29SLTNXLPAM35NX0F88U","","","img/flower4.png","76","779.5","3","1","3","0.7,0.2,0,0,0.7,0.2,0.2,0,0.7",""
"null","","html-keyboard-response","384","372471","0.0-384.0","3TS1AR6UQR0GT6WLMW8C7EM2EI67FP","AQ9Y6WD8O72ZC","37S0QRNUFB29SLTNXLPAM35NX0F88U","","","<img src=""img/flower4.png"" style=""width:200px; border:14px solid green;"">","null","","","","","",""
"452","","image-keyboard-response","385","372924","0.0-385.0","3TS1AR6UQR0GT6WLMW8C7EM2EI67FP","AQ9Y6WD8O72ZC","37S0QRNUFB29SLTNXLPAM35NX0F88U","","","img/flower4.png","76","452.79999999701977","3","0","3","0.7,0.2,0,0,0.7,0.2,0.2,0,0.7",""
"null","","html-keyboard-response","386","373229","0.0-386.0","3TS1AR6UQR0GT6WLMW8C7EM2EI67FP","AQ9Y6WD8O72ZC","37S0QRNUFB29SLTNXLPAM35NX0F88U","","","<img src=""img/flower4.png"" style=""width:200px;border:14px solid red;"">","null","","","","","",""
"1743.6000000014901","","image-keyboard-response","387","374973","0.0-387.0","3TS1AR6UQR0GT6WLMW8C7EM2EI67FP","AQ9Y6WD8O72ZC","37S0QRNUFB29SLTNXLPAM35NX0F88U","","","img/flower1.png","75","1744.5","2","1","2","0.7,0.2,0,0,0.7,0.2,0.2,0,0.7",""
"null","","html-keyboard-response","388","375289","0.0-388.0","3TS1AR6UQR0GT6WLMW8C7EM2EI67FP","AQ9Y6WD8O72ZC","37S0QRNUFB29SLTNXLPAM35NX0F88U","","","<img src=""img/flower1.png"" style=""width:200px; border:14px solid green;"">","null","","","","","",""
"307.80000000447035","","image-keyboard-response","389","375598","0.0-389.0","3TS1AR6UQR0GT6WLMW8C7EM2EI67FP","AQ9Y6WD8O72ZC","37S0QRNUFB29SLTNXLPAM35NX0F88U","","","img/flower1.png","75","308.5","2","0","2","0.7,0.2,0,0,0.7,0.2,0.2,0,0.7",""
"null","","html-keyboard-response","390","375899","0.0-390.0","3TS1AR6UQR0GT6WLMW8C7EM2EI67FP","AQ9Y6WD8O72ZC","37S0QRNUFB29SLTNXLPAM35NX0F88U","","","<img src=""img/flower1.png"" style=""width:200px;border:14px solid red;"">","null","","","","","",""
"802.1000000014901","","image-keyboard-response","391","376702","0.0-391.0","3TS1AR6UQR0GT6WLMW8C7EM2EI67FP","AQ9Y6WD8O72ZC","37S0QRNUFB29SLTNXLPAM35NX0F88U","","","img/flower1.png","75","803","2","1","2","0.7,0.2,0,0,0.7,0.2,0.2,0,0.7",""
"null","","html-keyboard-response","392","377009","0.0-392.0","3TS1AR6UQR0GT6WLMW8C7EM2EI67FP","AQ9Y6WD8O72ZC","37S0QRNUFB29SLTNXLPAM35NX0F88U","","","<img src=""img/flower1.png"" style=""width:200px; border:14px solid green;"">","null","","","","","",""
"547.7999999970198","","image-keyboard-response","393","377558","0.0-393.0","3TS1AR6UQR0GT6WLMW8C7EM2EI67FP","AQ9Y6WD8O72ZC","37S0QRNUFB29SLTNXLPAM35NX0F88U","","","img/flower1.png","75","548.7000000029802","2","0","2","0.7,0.2,0,0,0.7,0.2,0.2,0,0.7",""
"null","","html-keyboard-response","394","377864","0.0-394.0","3TS1AR6UQR0GT6WLMW8C7EM2EI67FP","AQ9Y6WD8O72ZC","37S0QRNUFB29SLTNXLPAM35NX0F88U","","","<img src=""img/flower1.png"" style=""width:200px;border:14px solid red;"">","null","","","","","",""
"457.5","","image-keyboard-response","395","378322","0.0-395.0","3TS1AR6UQR0GT6WLMW8C7EM2EI67FP","AQ9Y6WD8O72ZC","37S0QRNUFB29SLTNXLPAM35NX0F88U","","","img/flower1.png","75","458.1000000014901","2","0","2","0.7,0.2,0,0,0.7,0.2,0.2,0,0.7",""
"null","","html-keyboard-response","396","378638","0.0-396.0","3TS1AR6UQR0GT6WLMW8C7EM2EI67FP","AQ9Y6WD8O72ZC","37S0QRNUFB29SLTNXLPAM35NX0F88U","","","<img src=""img/flower1.png"" style=""width:200px;border:14px solid red;"">","null","","","","","",""
"529.8000000044703","","image-keyboard-response","397","379169","0.0-397.0","3TS1AR6UQR0GT6WLMW8C7EM2EI67FP","AQ9Y6WD8O72ZC","37S0QRNUFB29SLTNXLPAM35NX0F88U","","","img/flower5.png","75","530.6000000014901","2","0","1","0.7,0.2,0,0,0.7,0.2,0.2,0,0.7",""
"null","","html-keyboard-response","398","379480","0.0-398.0","3TS1AR6UQR0GT6WLMW8C7EM2EI67FP","AQ9Y6WD8O72ZC","37S0QRNUFB29SLTNXLPAM35NX0F88U","","","<img src=""img/flower5.png"" style=""width:200px;border:14px solid red;"">","null","","","","","",""
"463.3999999985099","","image-keyboard-response","399","379945","0.0-399.0","3TS1AR6UQR0GT6WLMW8C7EM2EI67FP","AQ9Y6WD8O72ZC","37S0QRNUFB29SLTNXLPAM35NX0F88U","","","img/flower1.png","75","464.20000000298023","2","1","2","0.7,0.2,0,0,0.7,0.2,0.2,0,0.7",""
"null","","html-keyboard-response","400","380255","0.0-400.0","3TS1AR6UQR0GT6WLMW8C7EM2EI67FP","AQ9Y6WD8O72ZC","37S0QRNUFB29SLTNXLPAM35NX0F88U","","","<img src=""img/flower1.png"" style=""width:200px; border:14px solid green;"">","null","","","","","",""
"335.8999999985099","","image-keyboard-response","401","380592","0.0-401.0","3TS1AR6UQR0GT6WLMW8C7EM2EI67FP","AQ9Y6WD8O72ZC","37S0QRNUFB29SLTNXLPAM35NX0F88U","","","img/flower1.png","75","336.70000000298023","2","0","2","0.7,0.2,0,0,0.7,0.2,0.2,0,0.7",""
"null","","html-keyboard-response","402","380905","0.0-402.0","3TS1AR6UQR0GT6WLMW8C7EM2EI67FP","AQ9Y6WD8O72ZC","37S0QRNUFB29SLTNXLPAM35NX0F88U","","","<img src=""img/flower1.png"" style=""width:200px;border:14px solid red;"">","null","","","","","",""
"441.59999999403954","","image-keyboard-response","403","381347","0.0-403.0","3TS1AR6UQR0GT6WLMW8C7EM2EI67FP","AQ9Y6WD8O72ZC","37S0QRNUFB29SLTNXLPAM35NX0F88U","","","img/flower5.png","75","442.30000000447035","2","0","1","0.7,0.2,0,0,0.7,0.2,0.2,0,0.7",""
