"rt","url","trial_type","trial_index","time_elapsed","internal_node_id","assignmentID","mturkID","hitID","success","view_history","stimulus","key_press","reactionTime","a","r","s","reward_cond","responses"
"5810","consent.html","external-html","0","5838","0.0-0.0","3TYCR1GOTD5LD8CNR23TTBKLL74ZLD","AYW62R027PUT1","33K3E8REWWHZ7MUV5T1222MGO9NX8Q","","","","","","","","","",""
"","","fullscreen","1","20037","0.0-1.0","3TYCR1GOTD5LD8CNR23TTBKLL74ZLD","AYW62R027PUT1","33K3E8REWWHZ7MUV5T1222MGO9NX8Q","true","","","","","","","","",""
"81929.79999995232","","instructions","2","101968","0.0-2.0","3TYCR1GOTD5LD8CNR23TTBKLL74ZLD","AYW62R027PUT1","33K3E8REWWHZ7MUV5T1222MGO9NX8Q","","[{""page_index"":0,""viewing_time"":6507.5},{""page_index"":1,""viewing_time"":8849.799999952316},{""page_index"":2,""viewing_time"":10852.400000095367},{""page_index"":3,""viewing_time"":17190.5},{""page_index"":4,""viewing_time"":8137.799999952316},{""page_index"":5,""viewing_time"":30391.099999904633}]","","","","","","","",""
"25034.200000047684","","instructions","3","127003","0.0-3.0","3TYCR1GOTD5LD8CNR23TTBKLL74ZLD","AYW62R027PUT1","33K3E8REWWHZ7MUV5T1222MGO9NX8Q","","[{""page_index"":0,""viewing_time"":25034}]","","","","","","","",""
"854.5","","image-keyboard-response","4","127858","0.0-4.0","3TYCR1GOTD5LD8CNR23TTBKLL74ZLD","AYW62R027PUT1","33K3E8REWWHZ7MUV5T1222MGO9NX8Q","","","img/flower6.png","76","855.5","3","0","3","",""
"null","","html-keyboard-response","5","128166","0.0-5.0","3TYCR1GOTD5LD8CNR23TTBKLL74ZLD","AYW62R027PUT1","33K3E8REWWHZ7MUV5T1222MGO9NX8Q","","","<img src=""img/flower6.png"" style=""width:200px;border:14px solid red;"">","null","","","","","",""
"1594.2999999523163","","image-keyboard-response","6","129762","0.0-6.0","3TYCR1GOTD5LD8CNR23TTBKLL74ZLD","AYW62R027PUT1","33K3E8REWWHZ7MUV5T1222MGO9NX8Q","","","img/flower5.png","74","1595","1","0","2","",""
"null","","html-keyboard-response","7","130067","0.0-7.0","3TYCR1GOTD5LD8CNR23TTBKLL74ZLD","AYW62R027PUT1","33K3E8REWWHZ7MUV5T1222MGO9NX8Q","","","<img src=""img/flower5.png"" style=""width:200px;border:14px solid red;"">","null","","","","","",""
"1653.2999999523163","","image-keyboard-response","8","131722","0.0-8.0","3TYCR1GOTD5LD8CNR23TTBKLL74ZLD","AYW62R027PUT1","33K3E8REWWHZ7MUV5T1222MGO9NX8Q","","","img/flower5.png","74","1654","1","0","2","",""
"null","","html-keyboard-response","9","132033","0.0-9.0","3TYCR1GOTD5LD8CNR23TTBKLL74ZLD","AYW62R027PUT1","33K3E8REWWHZ7MUV5T1222MGO9NX8Q","","","<img src=""img/flower5.png"" style=""width:200px;border:14px solid red;"">","null","","","","","",""
"1871.5999999046326","","image-keyboard-response","10","133906","0.0-10.0","3TYCR1GOTD5LD8CNR23TTBKLL74ZLD","AYW62R027PUT1","33K3E8REWWHZ7MUV5T1222MGO9NX8Q","","","img/flower5.png","75","1872.2000000476837","2","1","2","",""
"null","","html-keyboard-response","11","134218","0.0-11.0","3TYCR1GOTD5LD8CNR23TTBKLL74ZLD","AYW62R027PUT1","33K3E8REWWHZ7MUV5T1222MGO9NX8Q","","","<img src=""img/flower5.png"" style=""width:200px; border:14px solid green;"">","null","","","","","",""
"1167.3999998569489","","image-keyboard-response","12","135386","0.0-12.0","3TYCR1GOTD5LD8CNR23TTBKLL74ZLD","AYW62R027PUT1","33K3E8REWWHZ7MUV5T1222MGO9NX8Q","","","img/flower6.png","76","1168.1000001430511","3","1","3","",""
"null","","html-keyboard-response","13","135701","0.0-13.0","3TYCR1GOTD5LD8CNR23TTBKLL74ZLD","AYW62R027PUT1","33K3E8REWWHZ7MUV5T1222MGO9NX8Q","","","<img src=""img/flower6.png"" style=""width:200px; border:14px solid green;"">","null","","","","","",""
"748.1000001430511","","image-keyboard-response","14","136450","0.0-14.0","3TYCR1GOTD5LD8CNR23TTBKLL74ZLD","AYW62R027PUT1","33K3E8REWWHZ7MUV5T1222MGO9NX8Q","","","img/flower5.png","75","748.6999998092651","2","1","2","",""
"null","","html-keyboard-response","15","136766","0.0-15.0","3TYCR1GOTD5LD8CNR23TTBKLL74ZLD","AYW62R027PUT1","33K3E8REWWHZ7MUV5T1222MGO9NX8Q","","","<img src=""img/flower5.png"" style=""width:200px; border:14px solid green;"">","null","","","","","",""
"763","","image-keyboard-response","16","137530","0.0-16.0","3TYCR1GOTD5LD8CNR23TTBKLL74ZLD","AYW62R027PUT1","33K3E8REWWHZ7MUV5T1222MGO9NX8Q","","","img/flower6.png","76","763.6000001430511","3","1","3","",""
"null","","html-keyboard-response","17","137834","0.0-17.0","3TYCR1GOTD5LD8CNR23TTBKLL74ZLD","AYW62R027PUT1","33K3E8REWWHZ7MUV5T1222MGO9NX8Q","","","<img src=""img/flower6.png"" style=""width:200px; border:14px solid green;"">","null","","","","","",""
"879","","image-keyboard-response","18","138713","0.0-18.0","3TYCR1GOTD5LD8CNR23TTBKLL74ZLD","AYW62R027PUT1","33K3E8REWWHZ7MUV5T1222MGO9NX8Q","","","img/flower6.png","76","879.7000000476837","3","1","3","",""
"null","","html-keyboard-response","19","139027","0.0-19.0","3TYCR1GOTD5LD8CNR23TTBKLL74ZLD","AYW62R027PUT1","33K3E8REWWHZ7MUV5T1222MGO9NX8Q","","","<img src=""img/flower6.png"" style=""width:200px; border:14px solid green;"">","null","","","","","",""
"686.0999999046326","","image-keyboard-response","20","139714","0.0-20.0","3TYCR1GOTD5LD8CNR23TTBKLL74ZLD","AYW62R027PUT1","33K3E8REWWHZ7MUV5T1222MGO9NX8Q","","","img/flower6.png","76","686.6000001430511","3","0","3","",""
"null","","html-keyboard-response","21","140017","0.0-21.0","3TYCR1GOTD5LD8CNR23TTBKLL74ZLD","AYW62R027PUT1","33K3E8REWWHZ7MUV5T1222MGO9NX8Q","","","<img src=""img/flower6.png"" style=""width:200px;border:14px solid red;"">","null","","","","","",""
"951.5","","image-keyboard-response","22","140970","0.0-22.0","3TYCR1GOTD5LD8CNR23TTBKLL74ZLD","AYW62R027PUT1","33K3E8REWWHZ7MUV5T1222MGO9NX8Q","","","img/flower6.png","76","952.0999999046326","3","1","3","",""
"null","","html-keyboard-response","23","141283","0.0-23.0","3TYCR1GOTD5LD8CNR23TTBKLL74ZLD","AYW62R027PUT1","33K3E8REWWHZ7MUV5T1222MGO9NX8Q","","","<img src=""img/flower6.png"" style=""width:200px; border:14px solid green;"">","null","","","","","",""
"973.8000001907349","","image-keyboard-response","24","142258","0.0-24.0","3TYCR1GOTD5LD8CNR23TTBKLL74ZLD","AYW62R027PUT1","33K3E8REWWHZ7MUV5T1222MGO9NX8Q","","","img/flower4.png","74","974.2999999523163","1","1","1","",""
"null","","html-keyboard-response","25","142567","0.0-25.0","3TYCR1GOTD5LD8CNR23TTBKLL74ZLD","AYW62R027PUT1","33K3E8REWWHZ7MUV5T1222MGO9NX8Q","","","<img src=""img/flower4.png"" style=""width:200px; border:14px solid green;"">","null","","","","","",""
"825.6000001430511","","image-keyboard-response","26","143394","0.0-26.0","3TYCR1GOTD5LD8CNR23TTBKLL74ZLD","AYW62R027PUT1","33K3E8REWWHZ7MUV5T1222MGO9NX8Q","","","img/flower5.png","75","826.0999999046326","2","1","2","",""
"null","","html-keyboard-response","27","143700","0.0-27.0","3TYCR1GOTD5LD8CNR23TTBKLL74ZLD","AYW62R027PUT1","33K3E8REWWHZ7MUV5T1222MGO9NX8Q","","","<img src=""img/flower5.png"" style=""width:200px; border:14px solid green;"">","null","","","","","",""
"933.0999999046326","","image-keyboard-response","28","144634","0.0-28.0","3TYCR1GOTD5LD8CNR23TTBKLL74ZLD","AYW62R027PUT1","33K3E8REWWHZ7MUV5T1222MGO9NX8Q","","","img/flower4.png","74","933.7000000476837","1","0","1","",""
"null","","html-keyboard-response","29","144948","0.0-29.0","3TYCR1GOTD5LD8CNR23TTBKLL74ZLD","AYW62R027PUT1","33K3E8REWWHZ7MUV5T1222MGO9NX8Q","","","<img src=""img/flower4.png"" style=""width:200px;border:14px solid red;"">","null","","","","","",""
"788.7000000476837","","image-keyboard-response","30","145738","0.0-30.0","3TYCR1GOTD5LD8CNR23TTBKLL74ZLD","AYW62R027PUT1","33K3E8REWWHZ7MUV5T1222MGO9NX8Q","","","img/flower6.png","76","789.1999998092651","3","1","3","",""
"null","","html-keyboard-response","31","146050","0.0-31.0","3TYCR1GOTD5LD8CNR23TTBKLL74ZLD","AYW62R027PUT1","33K3E8REWWHZ7MUV5T1222MGO9NX8Q","","","<img src=""img/flower6.png"" style=""width:200px; border:14px solid green;"">","null","","","","","",""
"559.0999999046326","","image-keyboard-response","32","146609","0.0-32.0","3TYCR1GOTD5LD8CNR23TTBKLL74ZLD","AYW62R027PUT1","33K3E8REWWHZ7MUV5T1222MGO9NX8Q","","","img/flower6.png","76","559.5","3","1","3","",""
"null","","html-keyboard-response","33","146917","0.0-33.0","3TYCR1GOTD5LD8CNR23TTBKLL74ZLD","AYW62R027PUT1","33K3E8REWWHZ7MUV5T1222MGO9NX8Q","","","<img src=""img/flower6.png"" style=""width:200px; border:14px solid green;"">","null","","","","","",""
"780.1999998092651","","image-keyboard-response","34","147698","0.0-34.0","3TYCR1GOTD5LD8CNR23TTBKLL74ZLD","AYW62R027PUT1","33K3E8REWWHZ7MUV5T1222MGO9NX8Q","","","img/flower5.png","75","780.7000000476837","2","1","2","",""
"null","","html-keyboard-response","35","148002","0.0-35.0","3TYCR1GOTD5LD8CNR23TTBKLL74ZLD","AYW62R027PUT1","33K3E8REWWHZ7MUV5T1222MGO9NX8Q","","","<img src=""img/flower5.png"" style=""width:200px; border:14px solid green;"">","null","","","","","",""
"630.6000001430511","","image-keyboard-response","36","148634","0.0-36.0","3TYCR1GOTD5LD8CNR23TTBKLL74ZLD","AYW62R027PUT1","33K3E8REWWHZ7MUV5T1222MGO9NX8Q","","","img/flower4.png","74","631.1999998092651","1","1","1","",""
"null","","html-keyboard-response","37","148948","0.0-37.0","3TYCR1GOTD5LD8CNR23TTBKLL74ZLD","AYW62R027PUT1","33K3E8REWWHZ7MUV5T1222MGO9NX8Q","","","<img src=""img/flower4.png"" style=""width:200px; border:14px solid green;"">","null","","","","","",""
"548.7000000476837","","image-keyboard-response","38","149498","0.0-38.0","3TYCR1GOTD5LD8CNR23TTBKLL74ZLD","AYW62R027PUT1","33K3E8REWWHZ7MUV5T1222MGO9NX8Q","","","img/flower4.png","74","549.1999998092651","1","1","1","",""
"null","","html-keyboard-response","39","149804","0.0-39.0","3TYCR1GOTD5LD8CNR23TTBKLL74ZLD","AYW62R027PUT1","33K3E8REWWHZ7MUV5T1222MGO9NX8Q","","","<img src=""img/flower4.png"" style=""width:200px; border:14px solid green;"">","null","","","","","",""
"868.7000000476837","","image-keyboard-response","40","150674","0.0-40.0","3TYCR1GOTD5LD8CNR23TTBKLL74ZLD","AYW62R027PUT1","33K3E8REWWHZ7MUV5T1222MGO9NX8Q","","","img/flower5.png","75","869.2000000476837","2","1","2","",""
"null","","html-keyboard-response","41","150980","0.0-41.0","3TYCR1GOTD5LD8CNR23TTBKLL74ZLD","AYW62R027PUT1","33K3E8REWWHZ7MUV5T1222MGO9NX8Q","","","<img src=""img/flower5.png"" style=""width:200px; border:14px solid green;"">","null","","","","","",""
"765.3000001907349","","image-keyboard-response","42","151746","0.0-42.0","3TYCR1GOTD5LD8CNR23TTBKLL74ZLD","AYW62R027PUT1","33K3E8REWWHZ7MUV5T1222MGO9NX8Q","","","img/flower6.png","76","766","3","0","3","",""
"null","","html-keyboard-response","43","152055","0.0-43.0","3TYCR1GOTD5LD8CNR23TTBKLL74ZLD","AYW62R027PUT1","33K3E8REWWHZ7MUV5T1222MGO9NX8Q","","","<img src=""img/flower6.png"" style=""width:200px;border:14px solid red;"">","null","","","","","",""
"914.2000000476837","","image-keyboard-response","44","152970","0.0-44.0","3TYCR1GOTD5LD8CNR23TTBKLL74ZLD","AYW62R027PUT1","33K3E8REWWHZ7MUV5T1222MGO9NX8Q","","","img/flower4.png","74","914.5999999046326","1","1","1","",""
"null","","html-keyboard-response","45","153283","0.0-45.0","3TYCR1GOTD5LD8CNR23TTBKLL74ZLD","AYW62R027PUT1","33K3E8REWWHZ7MUV5T1222MGO9NX8Q","","","<img src=""img/flower4.png"" style=""width:200px; border:14px solid green;"">","null","","","","","",""
"454.2999999523163","","image-keyboard-response","46","153738","0.0-46.0","3TYCR1GOTD5LD8CNR23TTBKLL74ZLD","AYW62R027PUT1","33K3E8REWWHZ7MUV5T1222MGO9NX8Q","","","img/flower4.png","74","454.7999999523163","1","1","1","",""
"null","","html-keyboard-response","47","154050","0.0-47.0","3TYCR1GOTD5LD8CNR23TTBKLL74ZLD","AYW62R027PUT1","33K3E8REWWHZ7MUV5T1222MGO9NX8Q","","","<img src=""img/flower4.png"" style=""width:200px; border:14px solid green;"">","null","","","","","",""
"438.2999999523163","","image-keyboard-response","48","154490","0.0-48.0","3TYCR1GOTD5LD8CNR23TTBKLL74ZLD","AYW62R027PUT1","33K3E8REWWHZ7MUV5T1222MGO9NX8Q","","","img/flower4.png","74","438.90000009536743","1","1","1","",""
"null","","html-keyboard-response","49","154800","0.0-49.0","3TYCR1GOTD5LD8CNR23TTBKLL74ZLD","AYW62R027PUT1","33K3E8REWWHZ7MUV5T1222MGO9NX8Q","","","<img src=""img/flower4.png"" style=""width:200px; border:14px solid green;"">","null","","","","","",""
"672.5999999046326","","image-keyboard-response","50","155474","0.0-50.0","3TYCR1GOTD5LD8CNR23TTBKLL74ZLD","AYW62R027PUT1","33K3E8REWWHZ7MUV5T1222MGO9NX8Q","","","img/flower4.png","74","673.0999999046326","1","1","1","",""
"null","","html-keyboard-response","51","155782","0.0-51.0","3TYCR1GOTD5LD8CNR23TTBKLL74ZLD","AYW62R027PUT1","33K3E8REWWHZ7MUV5T1222MGO9NX8Q","","","<img src=""img/flower4.png"" style=""width:200px; border:14px solid green;"">","null","","","","","",""
"794.3999998569489","","image-keyboard-response","52","156578","0.0-52.0","3TYCR1GOTD5LD8CNR23TTBKLL74ZLD","AYW62R027PUT1","33K3E8REWWHZ7MUV5T1222MGO9NX8Q","","","img/flower5.png","75","795","2","1","2","",""
"null","","html-keyboard-response","53","156884","0.0-53.0","3TYCR1GOTD5LD8CNR23TTBKLL74ZLD","AYW62R027PUT1","33K3E8REWWHZ7MUV5T1222MGO9NX8Q","","","<img src=""img/flower5.png"" style=""width:200px; border:14px solid green;"">","null","","","","","",""
"708.9000000953674","","image-keyboard-response","54","157594","0.0-54.0","3TYCR1GOTD5LD8CNR23TTBKLL74ZLD","AYW62R027PUT1","33K3E8REWWHZ7MUV5T1222MGO9NX8Q","","","img/flower4.png","74","709.2999999523163","1","1","1","",""
"null","","html-keyboard-response","55","157900","0.0-55.0","3TYCR1GOTD5LD8CNR23TTBKLL74ZLD","AYW62R027PUT1","33K3E8REWWHZ7MUV5T1222MGO9NX8Q","","","<img src=""img/flower4.png"" style=""width:200px; border:14px solid green;"">","null","","","","","",""
"660.4000000953674","","image-keyboard-response","56","158562","0.0-56.0","3TYCR1GOTD5LD8CNR23TTBKLL74ZLD","AYW62R027PUT1","33K3E8REWWHZ7MUV5T1222MGO9NX8Q","","","img/flower5.png","75","661","2","1","2","",""
"null","","html-keyboard-response","57","158867","0.0-57.0","3TYCR1GOTD5LD8CNR23TTBKLL74ZLD","AYW62R027PUT1","33K3E8REWWHZ7MUV5T1222MGO9NX8Q","","","<img src=""img/flower5.png"" style=""width:200px; border:14px solid green;"">","null","","","","","",""
"677.5999999046326","","image-keyboard-response","58","159546","0.0-58.0","3TYCR1GOTD5LD8CNR23TTBKLL74ZLD","AYW62R027PUT1","33K3E8REWWHZ7MUV5T1222MGO9NX8Q","","","img/flower4.png","74","678.2000000476837","1","1","1","",""
"null","","html-keyboard-response","59","159851","0.0-59.0","3TYCR1GOTD5LD8CNR23TTBKLL74ZLD","AYW62R027PUT1","33K3E8REWWHZ7MUV5T1222MGO9NX8Q","","","<img src=""img/flower4.png"" style=""width:200px; border:14px solid green;"">","null","","","","","",""
"581.7999999523163","","image-keyboard-response","60","160434","0.0-60.0","3TYCR1GOTD5LD8CNR23TTBKLL74ZLD","AYW62R027PUT1","33K3E8REWWHZ7MUV5T1222MGO9NX8Q","","","img/flower5.png","75","582.5","2","0","2","",""
"null","","html-keyboard-response","61","160736","0.0-61.0","3TYCR1GOTD5LD8CNR23TTBKLL74ZLD","AYW62R027PUT1","33K3E8REWWHZ7MUV5T1222MGO9NX8Q","","","<img src=""img/flower5.png"" style=""width:200px;border:14px solid red;"">","null","","","","","",""
"577.0999999046326","","image-keyboard-response","62","161314","0.0-62.0","3TYCR1GOTD5LD8CNR23TTBKLL74ZLD","AYW62R027PUT1","33K3E8REWWHZ7MUV5T1222MGO9NX8Q","","","img/flower6.png","76","577.6999998092651","3","1","3","",""
"null","","html-keyboard-response","63","161615","0.0-63.0","3TYCR1GOTD5LD8CNR23TTBKLL74ZLD","AYW62R027PUT1","33K3E8REWWHZ7MUV5T1222MGO9NX8Q","","","<img src=""img/flower6.png"" style=""width:200px; border:14px solid green;"">","null","","","","","",""
"25703.799999952316","","instructions","64","187319","0.0-64.0","3TYCR1GOTD5LD8CNR23TTBKLL74ZLD","AYW62R027PUT1","33K3E8REWWHZ7MUV5T1222MGO9NX8Q","","[{""page_index"":0,""viewing_time"":9728.200000047684},{""page_index"":1,""viewing_time"":15975.399999856949}]","","","","","","","",""
"681.5","","image-keyboard-response","65","188002","0.0-65.0","3TYCR1GOTD5LD8CNR23TTBKLL74ZLD","AYW62R027PUT1","33K3E8REWWHZ7MUV5T1222MGO9NX8Q","","","img/flower4.png","74","682.2000000476837","1","1","1","",""
"null","","html-keyboard-response","66","188317","0.0-66.0","3TYCR1GOTD5LD8CNR23TTBKLL74ZLD","AYW62R027PUT1","33K3E8REWWHZ7MUV5T1222MGO9NX8Q","","","<img src=""img/flower4.png"" style=""width:200px; border:14px solid green;"">","null","","","","","",""
"860.2999999523163","","image-keyboard-response","67","189178","0.0-67.0","3TYCR1GOTD5LD8CNR23TTBKLL74ZLD","AYW62R027PUT1","33K3E8REWWHZ7MUV5T1222MGO9NX8Q","","","img/flower5.png","75","860.7999999523163","2","1","2","",""
"null","","html-keyboard-response","68","189485","0.0-68.0","3TYCR1GOTD5LD8CNR23TTBKLL74ZLD","AYW62R027PUT1","33K3E8REWWHZ7MUV5T1222MGO9NX8Q","","","<img src=""img/flower5.png"" style=""width:200px; border:14px solid green;"">","null","","","","","",""
"596.1000001430511","","image-keyboard-response","69","190082","0.0-69.0","3TYCR1GOTD5LD8CNR23TTBKLL74ZLD","AYW62R027PUT1","33K3E8REWWHZ7MUV5T1222MGO9NX8Q","","","img/flower6.png","76","596.6999998092651","3","1","3","",""
"null","","html-keyboard-response","70","190386","0.0-70.0","3TYCR1GOTD5LD8CNR23TTBKLL74ZLD","AYW62R027PUT1","33K3E8REWWHZ7MUV5T1222MGO9NX8Q","","","<img src=""img/flower6.png"" style=""width:200px; border:14px solid green;"">","null","","","","","",""
"831.1000001430511","","image-keyboard-response","71","191218","0.0-71.0","3TYCR1GOTD5LD8CNR23TTBKLL74ZLD","AYW62R027PUT1","33K3E8REWWHZ7MUV5T1222MGO9NX8Q","","","img/flower5.png","75","831.5","2","1","2","",""
"null","","html-keyboard-response","72","191519","0.0-72.0","3TYCR1GOTD5LD8CNR23TTBKLL74ZLD","AYW62R027PUT1","33K3E8REWWHZ7MUV5T1222MGO9NX8Q","","","<img src=""img/flower5.png"" style=""width:200px; border:14px solid green;"">","null","","","","","",""
"417.60000014305115","","image-keyboard-response","73","191938","0.0-73.0","3TYCR1GOTD5LD8CNR23TTBKLL74ZLD","AYW62R027PUT1","33K3E8REWWHZ7MUV5T1222MGO9NX8Q","","","img/flower5.png","75","418.09999990463257","2","1","2","",""
"null","","html-keyboard-response","74","192250","0.0-74.0","3TYCR1GOTD5LD8CNR23TTBKLL74ZLD","AYW62R027PUT1","33K3E8REWWHZ7MUV5T1222MGO9NX8Q","","","<img src=""img/flower5.png"" style=""width:200px; border:14px solid green;"">","null","","","","","",""
"431.09999990463257","","image-keyboard-response","75","192682","0.0-75.0","3TYCR1GOTD5LD8CNR23TTBKLL74ZLD","AYW62R027PUT1","33K3E8REWWHZ7MUV5T1222MGO9NX8Q","","","img/flower5.png","75","431.59999990463257","2","1","2","",""
"null","","html-keyboard-response","76","192996","0.0-76.0","3TYCR1GOTD5LD8CNR23TTBKLL74ZLD","AYW62R027PUT1","33K3E8REWWHZ7MUV5T1222MGO9NX8Q","","","<img src=""img/flower5.png"" style=""width:200px; border:14px solid green;"">","null","","","","","",""
"429","","image-keyboard-response","77","193426","0.0-77.0","3TYCR1GOTD5LD8CNR23TTBKLL74ZLD","AYW62R027PUT1","33K3E8REWWHZ7MUV5T1222MGO9NX8Q","","","img/flower5.png","75","429.5","2","1","2","",""
"null","","html-keyboard-response","78","193733","0.0-78.0","3TYCR1GOTD5LD8CNR23TTBKLL74ZLD","AYW62R027PUT1","33K3E8REWWHZ7MUV5T1222MGO9NX8Q","","","<img src=""img/flower5.png"" style=""width:200px; border:14px solid green;"">","null","","","","","",""
"659.7000000476837","","image-keyboard-response","79","194394","0.0-79.0","3TYCR1GOTD5LD8CNR23TTBKLL74ZLD","AYW62R027PUT1","33K3E8REWWHZ7MUV5T1222MGO9NX8Q","","","img/flower4.png","74","660.2999999523163","1","1","1","",""
"null","","html-keyboard-response","80","194701","0.0-80.0","3TYCR1GOTD5LD8CNR23TTBKLL74ZLD","AYW62R027PUT1","33K3E8REWWHZ7MUV5T1222MGO9NX8Q","","","<img src=""img/flower4.png"" style=""width:200px; border:14px solid green;"">","null","","","","","",""
"708.2000000476837","","image-keyboard-response","81","195410","0.0-81.0","3TYCR1GOTD5LD8CNR23TTBKLL74ZLD","AYW62R027PUT1","33K3E8REWWHZ7MUV5T1222MGO9NX8Q","","","img/flower6.png","76","708.7000000476837","3","0","3","",""
"null","","html-keyboard-response","82","195718","0.0-82.0","3TYCR1GOTD5LD8CNR23TTBKLL74ZLD","AYW62R027PUT1","33K3E8REWWHZ7MUV5T1222MGO9NX8Q","","","<img src=""img/flower6.png"" style=""width:200px;border:14px solid red;"">","null","","","","","",""
"451.40000009536743","","image-keyboard-response","83","196170","0.0-83.0","3TYCR1GOTD5LD8CNR23TTBKLL74ZLD","AYW62R027PUT1","33K3E8REWWHZ7MUV5T1222MGO9NX8Q","","","img/flower6.png","76","451.7999999523163","3","1","3","",""
"null","","html-keyboard-response","84","196474","0.0-84.0","3TYCR1GOTD5LD8CNR23TTBKLL74ZLD","AYW62R027PUT1","33K3E8REWWHZ7MUV5T1222MGO9NX8Q","","","<img src=""img/flower6.png"" style=""width:200px; border:14px solid green;"">","null","","","","","",""
"942.5999999046326","","image-keyboard-response","85","197418","0.0-85.0","3TYCR1GOTD5LD8CNR23TTBKLL74ZLD","AYW62R027PUT1","33K3E8REWWHZ7MUV5T1222MGO9NX8Q","","","img/flower5.png","75","943","2","1","2","",""
"null","","html-keyboard-response","86","197718","0.0-86.0","3TYCR1GOTD5LD8CNR23TTBKLL74ZLD","AYW62R027PUT1","33K3E8REWWHZ7MUV5T1222MGO9NX8Q","","","<img src=""img/flower5.png"" style=""width:200px; border:14px solid green;"">","null","","","","","",""
"554.4000000953674","","image-keyboard-response","87","198274","0.0-87.0","3TYCR1GOTD5LD8CNR23TTBKLL74ZLD","AYW62R027PUT1","33K3E8REWWHZ7MUV5T1222MGO9NX8Q","","","img/flower4.png","74","554.7999999523163","1","1","1","",""
"null","","html-keyboard-response","88","198586","0.0-88.0","3TYCR1GOTD5LD8CNR23TTBKLL74ZLD","AYW62R027PUT1","33K3E8REWWHZ7MUV5T1222MGO9NX8Q","","","<img src=""img/flower4.png"" style=""width:200px; border:14px solid green;"">","null","","","","","",""
"622.6000001430511","","image-keyboard-response","89","199210","0.0-89.0","3TYCR1GOTD5LD8CNR23TTBKLL74ZLD","AYW62R027PUT1","33K3E8REWWHZ7MUV5T1222MGO9NX8Q","","","img/flower5.png","75","623.1000001430511","2","0","2","",""
"null","","html-keyboard-response","90","199517","0.0-90.0","3TYCR1GOTD5LD8CNR23TTBKLL74ZLD","AYW62R027PUT1","33K3E8REWWHZ7MUV5T1222MGO9NX8Q","","","<img src=""img/flower5.png"" style=""width:200px;border:14px solid red;"">","null","","","","","",""
"1012.2000000476837","","image-keyboard-response","91","200530","0.0-91.0","3TYCR1GOTD5LD8CNR23TTBKLL74ZLD","AYW62R027PUT1","33K3E8REWWHZ7MUV5T1222MGO9NX8Q","","","img/flower4.png","74","1012.7000000476837","1","1","1","",""
"null","","html-keyboard-response","92","200835","0.0-92.0","3TYCR1GOTD5LD8CNR23TTBKLL74ZLD","AYW62R027PUT1","33K3E8REWWHZ7MUV5T1222MGO9NX8Q","","","<img src=""img/flower4.png"" style=""width:200px; border:14px solid green;"">","null","","","","","",""
"741.6000001430511","","image-keyboard-response","93","201578","0.0-93.0","3TYCR1GOTD5LD8CNR23TTBKLL74ZLD","AYW62R027PUT1","33K3E8REWWHZ7MUV5T1222MGO9NX8Q","","","img/flower6.png","76","742","3","1","3","",""
"null","","html-keyboard-response","94","201884","0.0-94.0","3TYCR1GOTD5LD8CNR23TTBKLL74ZLD","AYW62R027PUT1","33K3E8REWWHZ7MUV5T1222MGO9NX8Q","","","<img src=""img/flower6.png"" style=""width:200px; border:14px solid green;"">","null","","","","","",""
"820.9000000953674","","image-keyboard-response","95","202706","0.0-95.0","3TYCR1GOTD5LD8CNR23TTBKLL74ZLD","AYW62R027PUT1","33K3E8REWWHZ7MUV5T1222MGO9NX8Q","","","img/flower5.png","75","821.3999998569489","2","1","2","",""
"null","","html-keyboard-response","96","203011","0.0-96.0","3TYCR1GOTD5LD8CNR23TTBKLL74ZLD","AYW62R027PUT1","33K3E8REWWHZ7MUV5T1222MGO9NX8Q","","","<img src=""img/flower5.png"" style=""width:200px; border:14px solid green;"">","null","","","","","",""
"725.8999998569489","","image-keyboard-response","97","203737","0.0-97.0","3TYCR1GOTD5LD8CNR23TTBKLL74ZLD","AYW62R027PUT1","33K3E8REWWHZ7MUV5T1222MGO9NX8Q","","","img/flower6.png","76","726.4000000953674","3","1","3","",""
"null","","html-keyboard-response","98","204050","0.0-98.0","3TYCR1GOTD5LD8CNR23TTBKLL74ZLD","AYW62R027PUT1","33K3E8REWWHZ7MUV5T1222MGO9NX8Q","","","<img src=""img/flower6.png"" style=""width:200px; border:14px solid green;"">","null","","","","","",""
"606.8000001907349","","image-keyboard-response","99","204658","0.0-99.0","3TYCR1GOTD5LD8CNR23TTBKLL74ZLD","AYW62R027PUT1","33K3E8REWWHZ7MUV5T1222MGO9NX8Q","","","img/flower4.png","74","607.2999999523163","1","1","1","",""
"null","","html-keyboard-response","100","204964","0.0-100.0","3TYCR1GOTD5LD8CNR23TTBKLL74ZLD","AYW62R027PUT1","33K3E8REWWHZ7MUV5T1222MGO9NX8Q","","","<img src=""img/flower4.png"" style=""width:200px; border:14px solid green;"">","null","","","","","",""
"364.5","","image-keyboard-response","101","205330","0.0-101.0","3TYCR1GOTD5LD8CNR23TTBKLL74ZLD","AYW62R027PUT1","33K3E8REWWHZ7MUV5T1222MGO9NX8Q","","","img/flower4.png","74","365.2000000476837","1","1","1","",""
"null","","html-keyboard-response","102","205634","0.0-102.0","3TYCR1GOTD5LD8CNR23TTBKLL74ZLD","AYW62R027PUT1","33K3E8REWWHZ7MUV5T1222MGO9NX8Q","","","<img src=""img/flower4.png"" style=""width:200px; border:14px solid green;"">","null","","","","","",""
"359.09999990463257","","image-keyboard-response","103","205994","0.0-103.0","3TYCR1GOTD5LD8CNR23TTBKLL74ZLD","AYW62R027PUT1","33K3E8REWWHZ7MUV5T1222MGO9NX8Q","","","img/flower4.png","74","359.59999990463257","1","1","1","",""
"null","","html-keyboard-response","104","206301","0.0-104.0","3TYCR1GOTD5LD8CNR23TTBKLL74ZLD","AYW62R027PUT1","33K3E8REWWHZ7MUV5T1222MGO9NX8Q","","","<img src=""img/flower4.png"" style=""width:200px; border:14px solid green;"">","null","","","","","",""
"476.2000000476837","","image-keyboard-response","105","206778","0.0-105.0","3TYCR1GOTD5LD8CNR23TTBKLL74ZLD","AYW62R027PUT1","33K3E8REWWHZ7MUV5T1222MGO9NX8Q","","","img/flower4.png","74","476.7000000476837","1","1","1","",""
"null","","html-keyboard-response","106","207090","0.0-106.0","3TYCR1GOTD5LD8CNR23TTBKLL74ZLD","AYW62R027PUT1","33K3E8REWWHZ7MUV5T1222MGO9NX8Q","","","<img src=""img/flower4.png"" style=""width:200px; border:14px solid green;"">","null","","","","","",""
"726.5999999046326","","image-keyboard-response","107","207818","0.0-107.0","3TYCR1GOTD5LD8CNR23TTBKLL74ZLD","AYW62R027PUT1","33K3E8REWWHZ7MUV5T1222MGO9NX8Q","","","img/flower6.png","76","727.0999999046326","3","1","3","",""
"null","","html-keyboard-response","108","208134","0.0-108.0","3TYCR1GOTD5LD8CNR23TTBKLL74ZLD","AYW62R027PUT1","33K3E8REWWHZ7MUV5T1222MGO9NX8Q","","","<img src=""img/flower6.png"" style=""width:200px; border:14px solid green;"">","null","","","","","",""
"435.10000014305115","","image-keyboard-response","109","208570","0.0-109.0","3TYCR1GOTD5LD8CNR23TTBKLL74ZLD","AYW62R027PUT1","33K3E8REWWHZ7MUV5T1222MGO9NX8Q","","","img/flower6.png","76","435.5","3","1","3","",""
"null","","html-keyboard-response","110","208883","0.0-110.0","3TYCR1GOTD5LD8CNR23TTBKLL74ZLD","AYW62R027PUT1","33K3E8REWWHZ7MUV5T1222MGO9NX8Q","","","<img src=""img/flower6.png"" style=""width:200px; border:14px solid green;"">","null","","","","","",""
"398.10000014305115","","image-keyboard-response","111","209282","0.0-111.0","3TYCR1GOTD5LD8CNR23TTBKLL74ZLD","AYW62R027PUT1","33K3E8REWWHZ7MUV5T1222MGO9NX8Q","","","img/flower6.png","76","398.60000014305115","3","1","3","",""
"null","","html-keyboard-response","112","209585","0.0-112.0","3TYCR1GOTD5LD8CNR23TTBKLL74ZLD","AYW62R027PUT1","33K3E8REWWHZ7MUV5T1222MGO9NX8Q","","","<img src=""img/flower6.png"" style=""width:200px; border:14px solid green;"">","null","","","","","",""
"415.5","","image-keyboard-response","113","210002","0.0-113.0","3TYCR1GOTD5LD8CNR23TTBKLL74ZLD","AYW62R027PUT1","33K3E8REWWHZ7MUV5T1222MGO9NX8Q","","","img/flower6.png","76","416","3","1","3","",""
"null","","html-keyboard-response","114","210317","0.0-114.0","3TYCR1GOTD5LD8CNR23TTBKLL74ZLD","AYW62R027PUT1","33K3E8REWWHZ7MUV5T1222MGO9NX8Q","","","<img src=""img/flower6.png"" style=""width:200px; border:14px solid green;"">","null","","","","","",""
"771.7999999523163","","image-keyboard-response","115","211089","0.0-115.0","3TYCR1GOTD5LD8CNR23TTBKLL74ZLD","AYW62R027PUT1","33K3E8REWWHZ7MUV5T1222MGO9NX8Q","","","img/flower4.png","74","772.2999999523163","1","1","1","",""
"null","","html-keyboard-response","116","211401","0.0-116.0","3TYCR1GOTD5LD8CNR23TTBKLL74ZLD","AYW62R027PUT1","33K3E8REWWHZ7MUV5T1222MGO9NX8Q","","","<img src=""img/flower4.png"" style=""width:200px; border:14px solid green;"">","null","","","","","",""
"432.09999990463257","","image-keyboard-response","117","211833","0.0-117.0","3TYCR1GOTD5LD8CNR23TTBKLL74ZLD","AYW62R027PUT1","33K3E8REWWHZ7MUV5T1222MGO9NX8Q","","","img/flower4.png","74","432.5","1","1","1","",""
"null","","html-keyboard-response","118","212135","0.0-118.0","3TYCR1GOTD5LD8CNR23TTBKLL74ZLD","AYW62R027PUT1","33K3E8REWWHZ7MUV5T1222MGO9NX8Q","","","<img src=""img/flower4.png"" style=""width:200px; border:14px solid green;"">","null","","","","","",""
"618","","image-keyboard-response","119","212754","0.0-119.0","3TYCR1GOTD5LD8CNR23TTBKLL74ZLD","AYW62R027PUT1","33K3E8REWWHZ7MUV5T1222MGO9NX8Q","","","img/flower5.png","75","618.5","2","1","2","",""
"null","","html-keyboard-response","120","213059","0.0-120.0","3TYCR1GOTD5LD8CNR23TTBKLL74ZLD","AYW62R027PUT1","33K3E8REWWHZ7MUV5T1222MGO9NX8Q","","","<img src=""img/flower5.png"" style=""width:200px; border:14px solid green;"">","null","","","","","",""
"662","","image-keyboard-response","121","213722","0.0-121.0","3TYCR1GOTD5LD8CNR23TTBKLL74ZLD","AYW62R027PUT1","33K3E8REWWHZ7MUV5T1222MGO9NX8Q","","","img/flower6.png","76","662.6999998092651","3","1","3","",""
"null","","html-keyboard-response","122","214035","0.0-122.0","3TYCR1GOTD5LD8CNR23TTBKLL74ZLD","AYW62R027PUT1","33K3E8REWWHZ7MUV5T1222MGO9NX8Q","","","<img src=""img/flower6.png"" style=""width:200px; border:14px solid green;"">","null","","","","","",""
"942","","image-keyboard-response","123","214978","0.0-123.0","3TYCR1GOTD5LD8CNR23TTBKLL74ZLD","AYW62R027PUT1","33K3E8REWWHZ7MUV5T1222MGO9NX8Q","","","img/flower5.png","75","942.4000000953674","2","1","2","",""
"null","","html-keyboard-response","124","215284","0.0-124.0","3TYCR1GOTD5LD8CNR23TTBKLL74ZLD","AYW62R027PUT1","33K3E8REWWHZ7MUV5T1222MGO9NX8Q","","","<img src=""img/flower5.png"" style=""width:200px; border:14px solid green;"">","null","","","","","",""
"2868","","instructions","125","218153","0.0-125.0","3TYCR1GOTD5LD8CNR23TTBKLL74ZLD","AYW62R027PUT1","33K3E8REWWHZ7MUV5T1222MGO9NX8Q","","[{""page_index"":0,""viewing_time"":2867.7999999523163}]","","","","","","","",""
"1191.9000000953674","","image-keyboard-response","126","219346","0.0-126.0","3TYCR1GOTD5LD8CNR23TTBKLL74ZLD","AYW62R027PUT1","33K3E8REWWHZ7MUV5T1222MGO9NX8Q","","","img/flower2.png","74","1192.6000001430511","1","1","1","0.7,0.2,0,0.7,0,0.2,0.2,0,0.7",""
"null","","html-keyboard-response","127","219651","0.0-127.0","3TYCR1GOTD5LD8CNR23TTBKLL74ZLD","AYW62R027PUT1","33K3E8REWWHZ7MUV5T1222MGO9NX8Q","","","<img src=""img/flower2.png"" style=""width:200px; border:14px solid green;"">","null","","","","","",""
"877.7000000476837","","image-keyboard-response","128","220530","0.0-128.0","3TYCR1GOTD5LD8CNR23TTBKLL74ZLD","AYW62R027PUT1","33K3E8REWWHZ7MUV5T1222MGO9NX8Q","","","img/flower2.png","74","878.1000001430511","1","0","1","0.7,0.2,0,0.7,0,0.2,0.2,0,0.7",""
"null","","html-keyboard-response","129","220834","0.0-129.0","3TYCR1GOTD5LD8CNR23TTBKLL74ZLD","AYW62R027PUT1","33K3E8REWWHZ7MUV5T1222MGO9NX8Q","","","<img src=""img/flower2.png"" style=""width:200px;border:14px solid red;"">","null","","","","","",""
"1358.7999999523163","","image-keyboard-response","130","222194","0.0-130.0","3TYCR1GOTD5LD8CNR23TTBKLL74ZLD","AYW62R027PUT1","33K3E8REWWHZ7MUV5T1222MGO9NX8Q","","","img/flower3.png","75","1359.2999999523163","2","0","3","0.7,0.2,0,0.7,0,0.2,0.2,0,0.7",""
"null","","html-keyboard-response","131","222500","0.0-131.0","3TYCR1GOTD5LD8CNR23TTBKLL74ZLD","AYW62R027PUT1","33K3E8REWWHZ7MUV5T1222MGO9NX8Q","","","<img src=""img/flower3.png"" style=""width:200px;border:14px solid red;"">","null","","","","","",""
"956.7999999523163","","image-keyboard-response","132","223458","0.0-132.0","3TYCR1GOTD5LD8CNR23TTBKLL74ZLD","AYW62R027PUT1","33K3E8REWWHZ7MUV5T1222MGO9NX8Q","","","img/flower3.png","75","957.4000000953674","2","0","3","0.7,0.2,0,0.7,0,0.2,0.2,0,0.7",""
"null","","html-keyboard-response","133","223769","0.0-133.0","3TYCR1GOTD5LD8CNR23TTBKLL74ZLD","AYW62R027PUT1","33K3E8REWWHZ7MUV5T1222MGO9NX8Q","","","<img src=""img/flower3.png"" style=""width:200px;border:14px solid red;"">","null","","","","","",""
"1311.4000000953674","","image-keyboard-response","134","225082","0.0-134.0","3TYCR1GOTD5LD8CNR23TTBKLL74ZLD","AYW62R027PUT1","33K3E8REWWHZ7MUV5T1222MGO9NX8Q","","","img/flower4.png","76","1311.8999998569489","3","0","2","0.7,0.2,0,0.7,0,0.2,0.2,0,0.7",""
"null","","html-keyboard-response","135","225386","0.0-135.0","3TYCR1GOTD5LD8CNR23TTBKLL74ZLD","AYW62R027PUT1","33K3E8REWWHZ7MUV5T1222MGO9NX8Q","","","<img src=""img/flower4.png"" style=""width:200px;border:14px solid red;"">","null","","","","","",""
"559.2000000476837","","image-keyboard-response","136","225946","0.0-136.0","3TYCR1GOTD5LD8CNR23TTBKLL74ZLD","AYW62R027PUT1","33K3E8REWWHZ7MUV5T1222MGO9NX8Q","","","img/flower4.png","75","559.6999998092651","2","0","2","0.7,0.2,0,0.7,0,0.2,0.2,0,0.7",""
"null","","html-keyboard-response","137","226251","0.0-137.0","3TYCR1GOTD5LD8CNR23TTBKLL74ZLD","AYW62R027PUT1","33K3E8REWWHZ7MUV5T1222MGO9NX8Q","","","<img src=""img/flower4.png"" style=""width:200px;border:14px solid red;"">","null","","","","","",""
"662.2000000476837","","image-keyboard-response","138","226914","0.0-138.0","3TYCR1GOTD5LD8CNR23TTBKLL74ZLD","AYW62R027PUT1","33K3E8REWWHZ7MUV5T1222MGO9NX8Q","","","img/flower4.png","74","662.5999999046326","1","1","2","0.7,0.2,0,0.7,0,0.2,0.2,0,0.7",""
"null","","html-keyboard-response","139","227217","0.0-139.0","3TYCR1GOTD5LD8CNR23TTBKLL74ZLD","AYW62R027PUT1","33K3E8REWWHZ7MUV5T1222MGO9NX8Q","","","<img src=""img/flower4.png"" style=""width:200px; border:14px solid green;"">","null","","","","","",""
"1623.8999998569489","","image-keyboard-response","140","228842","0.0-140.0","3TYCR1GOTD5LD8CNR23TTBKLL74ZLD","AYW62R027PUT1","33K3E8REWWHZ7MUV5T1222MGO9NX8Q","","","img/flower2.png","75","1624.3999998569489","2","0","1","0.7,0.2,0,0.7,0,0.2,0.2,0,0.7",""
"null","","html-keyboard-response","141","229154","0.0-141.0","3TYCR1GOTD5LD8CNR23TTBKLL74ZLD","AYW62R027PUT1","33K3E8REWWHZ7MUV5T1222MGO9NX8Q","","","<img src=""img/flower2.png"" style=""width:200px;border:14px solid red;"">","null","","","","","",""
"591.2000000476837","","image-keyboard-response","142","229746","0.0-142.0","3TYCR1GOTD5LD8CNR23TTBKLL74ZLD","AYW62R027PUT1","33K3E8REWWHZ7MUV5T1222MGO9NX8Q","","","img/flower2.png","74","591.7000000476837","1","0","1","0.7,0.2,0,0.7,0,0.2,0.2,0,0.7",""
"null","","html-keyboard-response","143","230052","0.0-143.0","3TYCR1GOTD5LD8CNR23TTBKLL74ZLD","AYW62R027PUT1","33K3E8REWWHZ7MUV5T1222MGO9NX8Q","","","<img src=""img/flower2.png"" style=""width:200px;border:14px solid red;"">","null","","","","","",""
"517","","image-keyboard-response","144","230570","0.0-144.0","3TYCR1GOTD5LD8CNR23TTBKLL74ZLD","AYW62R027PUT1","33K3E8REWWHZ7MUV5T1222MGO9NX8Q","","","img/flower2.png","76","517.3999998569489","3","0","1","0.7,0.2,0,0.7,0,0.2,0.2,0,0.7",""
"null","","html-keyboard-response","145","230885","0.0-145.0","3TYCR1GOTD5LD8CNR23TTBKLL74ZLD","AYW62R027PUT1","33K3E8REWWHZ7MUV5T1222MGO9NX8Q","","","<img src=""img/flower2.png"" style=""width:200px;border:14px solid red;"">","null","","","","","",""
"1564","","image-keyboard-response","146","232450","0.0-146.0","3TYCR1GOTD5LD8CNR23TTBKLL74ZLD","AYW62R027PUT1","33K3E8REWWHZ7MUV5T1222MGO9NX8Q","","","img/flower3.png","74","1564.5999999046326","1","0","3","0.7,0.2,0,0.7,0,0.2,0.2,0,0.7",""
"null","","html-keyboard-response","147","232752","0.0-147.0","3TYCR1GOTD5LD8CNR23TTBKLL74ZLD","AYW62R027PUT1","33K3E8REWWHZ7MUV5T1222MGO9NX8Q","","","<img src=""img/flower3.png"" style=""width:200px;border:14px solid red;"">","null","","","","","",""
"1128.8999998569489","","image-keyboard-response","148","233882","0.0-148.0","3TYCR1GOTD5LD8CNR23TTBKLL74ZLD","AYW62R027PUT1","33K3E8REWWHZ7MUV5T1222MGO9NX8Q","","","img/flower2.png","74","1129.3999998569489","1","1","1","0.7,0.2,0,0.7,0,0.2,0.2,0,0.7",""
"null","","html-keyboard-response","149","234186","0.0-149.0","3TYCR1GOTD5LD8CNR23TTBKLL74ZLD","AYW62R027PUT1","33K3E8REWWHZ7MUV5T1222MGO9NX8Q","","","<img src=""img/flower2.png"" style=""width:200px; border:14px solid green;"">","null","","","","","",""
"1391.7000000476837","","image-keyboard-response","150","235578","0.0-150.0","3TYCR1GOTD5LD8CNR23TTBKLL74ZLD","AYW62R027PUT1","33K3E8REWWHZ7MUV5T1222MGO9NX8Q","","","img/flower3.png","74","1392.0999999046326","1","0","3","0.7,0.2,0,0.7,0,0.2,0.2,0,0.7",""
"null","","html-keyboard-response","151","235881","0.0-151.0","3TYCR1GOTD5LD8CNR23TTBKLL74ZLD","AYW62R027PUT1","33K3E8REWWHZ7MUV5T1222MGO9NX8Q","","","<img src=""img/flower3.png"" style=""width:200px;border:14px solid red;"">","null","","","","","",""
"527.5","","image-keyboard-response","152","236410","0.0-152.0","3TYCR1GOTD5LD8CNR23TTBKLL74ZLD","AYW62R027PUT1","33K3E8REWWHZ7MUV5T1222MGO9NX8Q","","","img/flower3.png","75","528.1000001430511","2","0","3","0.7,0.2,0,0.7,0,0.2,0.2,0,0.7",""
"null","","html-keyboard-response","153","236718","0.0-153.0","3TYCR1GOTD5LD8CNR23TTBKLL74ZLD","AYW62R027PUT1","33K3E8REWWHZ7MUV5T1222MGO9NX8Q","","","<img src=""img/flower3.png"" style=""width:200px;border:14px solid red;"">","null","","","","","",""
"475.39999985694885","","image-keyboard-response","154","237194","0.0-154.0","3TYCR1GOTD5LD8CNR23TTBKLL74ZLD","AYW62R027PUT1","33K3E8REWWHZ7MUV5T1222MGO9NX8Q","","","img/flower3.png","76","476","3","1","3","0.7,0.2,0,0.7,0,0.2,0.2,0,0.7",""
"null","","html-keyboard-response","155","237501","0.0-155.0","3TYCR1GOTD5LD8CNR23TTBKLL74ZLD","AYW62R027PUT1","33K3E8REWWHZ7MUV5T1222MGO9NX8Q","","","<img src=""img/flower3.png"" style=""width:200px; border:14px solid green;"">","null","","","","","",""
"2091.9000000953674","","image-keyboard-response","156","239594","0.0-156.0","3TYCR1GOTD5LD8CNR23TTBKLL74ZLD","AYW62R027PUT1","33K3E8REWWHZ7MUV5T1222MGO9NX8Q","","","img/flower4.png","75","2092.5999999046326","2","0","2","0.7,0.2,0,0.7,0,0.2,0.2,0,0.7",""
"null","","html-keyboard-response","157","239901","0.0-157.0","3TYCR1GOTD5LD8CNR23TTBKLL74ZLD","AYW62R027PUT1","33K3E8REWWHZ7MUV5T1222MGO9NX8Q","","","<img src=""img/flower4.png"" style=""width:200px;border:14px solid red;"">","null","","","","","",""
"1251.7000000476837","","image-keyboard-response","158","241153","0.0-158.0","3TYCR1GOTD5LD8CNR23TTBKLL74ZLD","AYW62R027PUT1","33K3E8REWWHZ7MUV5T1222MGO9NX8Q","","","img/flower2.png","74","1252.0999999046326","1","1","1","0.7,0.2,0,0.7,0,0.2,0.2,0,0.7",""
"null","","html-keyboard-response","159","241468","0.0-159.0","3TYCR1GOTD5LD8CNR23TTBKLL74ZLD","AYW62R027PUT1","33K3E8REWWHZ7MUV5T1222MGO9NX8Q","","","<img src=""img/flower2.png"" style=""width:200px; border:14px solid green;"">","null","","","","","",""
"773.4000000953674","","image-keyboard-response","160","242242","0.0-160.0","3TYCR1GOTD5LD8CNR23TTBKLL74ZLD","AYW62R027PUT1","33K3E8REWWHZ7MUV5T1222MGO9NX8Q","","","img/flower3.png","76","774","3","1","3","0.7,0.2,0,0.7,0,0.2,0.2,0,0.7",""
"null","","html-keyboard-response","161","242551","0.0-161.0","3TYCR1GOTD5LD8CNR23TTBKLL74ZLD","AYW62R027PUT1","33K3E8REWWHZ7MUV5T1222MGO9NX8Q","","","<img src=""img/flower3.png"" style=""width:200px; border:14px solid green;"">","null","","","","","",""
"705.4000000953674","","image-keyboard-response","162","243258","0.0-162.0","3TYCR1GOTD5LD8CNR23TTBKLL74ZLD","AYW62R027PUT1","33K3E8REWWHZ7MUV5T1222MGO9NX8Q","","","img/flower3.png","76","706","3","1","3","0.7,0.2,0,0.7,0,0.2,0.2,0,0.7",""
"null","","html-keyboard-response","163","243567","0.0-163.0","3TYCR1GOTD5LD8CNR23TTBKLL74ZLD","AYW62R027PUT1","33K3E8REWWHZ7MUV5T1222MGO9NX8Q","","","<img src=""img/flower3.png"" style=""width:200px; border:14px solid green;"">","null","","","","","",""
"609.3999998569489","","image-keyboard-response","164","244177","0.0-164.0","3TYCR1GOTD5LD8CNR23TTBKLL74ZLD","AYW62R027PUT1","33K3E8REWWHZ7MUV5T1222MGO9NX8Q","","","img/flower3.png","76","610.0999999046326","3","1","3","0.7,0.2,0,0.7,0,0.2,0.2,0,0.7",""
"null","","html-keyboard-response","165","244485","0.0-165.0","3TYCR1GOTD5LD8CNR23TTBKLL74ZLD","AYW62R027PUT1","33K3E8REWWHZ7MUV5T1222MGO9NX8Q","","","<img src=""img/flower3.png"" style=""width:200px; border:14px solid green;"">","null","","","","","",""
"908","","image-keyboard-response","166","245394","0.0-166.0","3TYCR1GOTD5LD8CNR23TTBKLL74ZLD","AYW62R027PUT1","33K3E8REWWHZ7MUV5T1222MGO9NX8Q","","","img/flower2.png","74","908.5999999046326","1","1","1","0.7,0.2,0,0.7,0,0.2,0.2,0,0.7",""
"null","","html-keyboard-response","167","245701","0.0-167.0","3TYCR1GOTD5LD8CNR23TTBKLL74ZLD","AYW62R027PUT1","33K3E8REWWHZ7MUV5T1222MGO9NX8Q","","","<img src=""img/flower2.png"" style=""width:200px; border:14px solid green;"">","null","","","","","",""
"500.09999990463257","","image-keyboard-response","168","246202","0.0-168.0","3TYCR1GOTD5LD8CNR23TTBKLL74ZLD","AYW62R027PUT1","33K3E8REWWHZ7MUV5T1222MGO9NX8Q","","","img/flower2.png","74","500.59999990463257","1","0","1","0.7,0.2,0,0.7,0,0.2,0.2,0,0.7",""
"null","","html-keyboard-response","169","246506","0.0-169.0","3TYCR1GOTD5LD8CNR23TTBKLL74ZLD","AYW62R027PUT1","33K3E8REWWHZ7MUV5T1222MGO9NX8Q","","","<img src=""img/flower2.png"" style=""width:200px;border:14px solid red;"">","null","","","","","",""
"2031.4000000953674","","image-keyboard-response","170","248538","0.0-170.0","3TYCR1GOTD5LD8CNR23TTBKLL74ZLD","AYW62R027PUT1","33K3E8REWWHZ7MUV5T1222MGO9NX8Q","","","img/flower4.png","74","2031.9000000953674","1","1","2","0.7,0.2,0,0.7,0,0.2,0.2,0,0.7",""
"null","","html-keyboard-response","171","248851","0.0-171.0","3TYCR1GOTD5LD8CNR23TTBKLL74ZLD","AYW62R027PUT1","33K3E8REWWHZ7MUV5T1222MGO9NX8Q","","","<img src=""img/flower4.png"" style=""width:200px; border:14px solid green;"">","null","","","","","",""
"1541.7999999523163","","image-keyboard-response","172","250394","0.0-172.0","3TYCR1GOTD5LD8CNR23TTBKLL74ZLD","AYW62R027PUT1","33K3E8REWWHZ7MUV5T1222MGO9NX8Q","","","img/flower3.png","76","1542.4000000953674","3","1","3","0.7,0.2,0,0.7,0,0.2,0.2,0,0.7",""
"null","","html-keyboard-response","173","250701","0.0-173.0","3TYCR1GOTD5LD8CNR23TTBKLL74ZLD","AYW62R027PUT1","33K3E8REWWHZ7MUV5T1222MGO9NX8Q","","","<img src=""img/flower3.png"" style=""width:200px; border:14px solid green;"">","null","","","","","",""
"1291.3000001907349","","image-keyboard-response","174","251994","0.0-174.0","3TYCR1GOTD5LD8CNR23TTBKLL74ZLD","AYW62R027PUT1","33K3E8REWWHZ7MUV5T1222MGO9NX8Q","","","img/flower4.png","74","1291.9000000953674","1","1","2","0.7,0.2,0,0.7,0,0.2,0.2,0,0.7",""
"null","","html-keyboard-response","175","252302","0.0-175.0","3TYCR1GOTD5LD8CNR23TTBKLL74ZLD","AYW62R027PUT1","33K3E8REWWHZ7MUV5T1222MGO9NX8Q","","","<img src=""img/flower4.png"" style=""width:200px; border:14px solid green;"">","null","","","","","",""
"1203.2000000476837","","image-keyboard-response","176","253506","0.0-176.0","3TYCR1GOTD5LD8CNR23TTBKLL74ZLD","AYW62R027PUT1","33K3E8REWWHZ7MUV5T1222MGO9NX8Q","","","img/flower3.png","74","1203.7999999523163","1","1","3","0.7,0.2,0,0.7,0,0.2,0.2,0,0.7",""
"null","","html-keyboard-response","177","253817","0.0-177.0","3TYCR1GOTD5LD8CNR23TTBKLL74ZLD","AYW62R027PUT1","33K3E8REWWHZ7MUV5T1222MGO9NX8Q","","","<img src=""img/flower3.png"" style=""width:200px; border:14px solid green;"">","null","","","","","",""
"583.7999999523163","","image-keyboard-response","178","254402","0.0-178.0","3TYCR1GOTD5LD8CNR23TTBKLL74ZLD","AYW62R027PUT1","33K3E8REWWHZ7MUV5T1222MGO9NX8Q","","","img/flower3.png","74","584.4000000953674","1","0","3","0.7,0.2,0,0.7,0,0.2,0.2,0,0.7",""
"null","","html-keyboard-response","179","254717","0.0-179.0","3TYCR1GOTD5LD8CNR23TTBKLL74ZLD","AYW62R027PUT1","33K3E8REWWHZ7MUV5T1222MGO9NX8Q","","","<img src=""img/flower3.png"" style=""width:200px;border:14px solid red;"">","null","","","","","",""
"1011.4000000953674","","image-keyboard-response","180","255730","0.0-180.0","3TYCR1GOTD5LD8CNR23TTBKLL74ZLD","AYW62R027PUT1","33K3E8REWWHZ7MUV5T1222MGO9NX8Q","","","img/flower4.png","74","1012","1","1","2","0.7,0.2,0,0.7,0,0.2,0.2,0,0.7",""
"null","","html-keyboard-response","181","256036","0.0-181.0","3TYCR1GOTD5LD8CNR23TTBKLL74ZLD","AYW62R027PUT1","33K3E8REWWHZ7MUV5T1222MGO9NX8Q","","","<img src=""img/flower4.png"" style=""width:200px; border:14px solid green;"">","null","","","","","",""
"461.09999990463257","","image-keyboard-response","182","256498","0.0-182.0","3TYCR1GOTD5LD8CNR23TTBKLL74ZLD","AYW62R027PUT1","33K3E8REWWHZ7MUV5T1222MGO9NX8Q","","","img/flower4.png","74","461.5","1","1","2","0.7,0.2,0,0.7,0,0.2,0.2,0,0.7",""
"null","","html-keyboard-response","183","256802","0.0-183.0","3TYCR1GOTD5LD8CNR23TTBKLL74ZLD","AYW62R027PUT1","33K3E8REWWHZ7MUV5T1222MGO9NX8Q","","","<img src=""img/flower4.png"" style=""width:200px; border:14px solid green;"">","null","","","","","",""
"1158.7000000476837","","image-keyboard-response","184","257962","0.0-184.0","3TYCR1GOTD5LD8CNR23TTBKLL74ZLD","AYW62R027PUT1","33K3E8REWWHZ7MUV5T1222MGO9NX8Q","","","img/flower3.png","76","1159.1999998092651","3","1","3","0.7,0.2,0,0.7,0,0.2,0.2,0,0.7",""
"null","","html-keyboard-response","185","258267","0.0-185.0","3TYCR1GOTD5LD8CNR23TTBKLL74ZLD","AYW62R027PUT1","33K3E8REWWHZ7MUV5T1222MGO9NX8Q","","","<img src=""img/flower3.png"" style=""width:200px; border:14px solid green;"">","null","","","","","",""
"885.5","","image-keyboard-response","186","259153","0.0-186.0","3TYCR1GOTD5LD8CNR23TTBKLL74ZLD","AYW62R027PUT1","33K3E8REWWHZ7MUV5T1222MGO9NX8Q","","","img/flower2.png","74","886.0999999046326","1","1","1","0.7,0.2,0,0.7,0,0.2,0.2,0,0.7",""
"null","","html-keyboard-response","187","259467","0.0-187.0","3TYCR1GOTD5LD8CNR23TTBKLL74ZLD","AYW62R027PUT1","33K3E8REWWHZ7MUV5T1222MGO9NX8Q","","","<img src=""img/flower2.png"" style=""width:200px; border:14px solid green;"">","null","","","","","",""
"854","","image-keyboard-response","188","260322","0.0-188.0","3TYCR1GOTD5LD8CNR23TTBKLL74ZLD","AYW62R027PUT1","33K3E8REWWHZ7MUV5T1222MGO9NX8Q","","","img/flower4.png","74","854.6000001430511","1","1","2","0.7,0.2,0,0.7,0,0.2,0.2,0,0.7",""
"null","","html-keyboard-response","189","260635","0.0-189.0","3TYCR1GOTD5LD8CNR23TTBKLL74ZLD","AYW62R027PUT1","33K3E8REWWHZ7MUV5T1222MGO9NX8Q","","","<img src=""img/flower4.png"" style=""width:200px; border:14px solid green;"">","null","","","","","",""
"901.8999998569489","","image-keyboard-response","190","261538","0.0-190.0","3TYCR1GOTD5LD8CNR23TTBKLL74ZLD","AYW62R027PUT1","33K3E8REWWHZ7MUV5T1222MGO9NX8Q","","","img/flower2.png","74","902.5","1","1","1","0.7,0.2,0,0.7,0,0.2,0.2,0,0.7",""
"null","","html-keyboard-response","191","261851","0.0-191.0","3TYCR1GOTD5LD8CNR23TTBKLL74ZLD","AYW62R027PUT1","33K3E8REWWHZ7MUV5T1222MGO9NX8Q","","","<img src=""img/flower2.png"" style=""width:200px; border:14px solid green;"">","null","","","","","",""
"781.8999998569489","","image-keyboard-response","192","262634","0.0-192.0","3TYCR1GOTD5LD8CNR23TTBKLL74ZLD","AYW62R027PUT1","33K3E8REWWHZ7MUV5T1222MGO9NX8Q","","","img/flower3.png","74","782.3999998569489","1","0","3","0.7,0.2,0,0.7,0,0.2,0.2,0,0.7",""
"null","","html-keyboard-response","193","262949","0.0-193.0","3TYCR1GOTD5LD8CNR23TTBKLL74ZLD","AYW62R027PUT1","33K3E8REWWHZ7MUV5T1222MGO9NX8Q","","","<img src=""img/flower3.png"" style=""width:200px;border:14px solid red;"">","null","","","","","",""
"859.5","","image-keyboard-response","194","263810","0.0-194.0","3TYCR1GOTD5LD8CNR23TTBKLL74ZLD","AYW62R027PUT1","33K3E8REWWHZ7MUV5T1222MGO9NX8Q","","","img/flower2.png","74","860.0999999046326","1","1","1","0.7,0.2,0,0.7,0,0.2,0.2,0,0.7",""
"null","","html-keyboard-response","195","264118","0.0-195.0","3TYCR1GOTD5LD8CNR23TTBKLL74ZLD","AYW62R027PUT1","33K3E8REWWHZ7MUV5T1222MGO9NX8Q","","","<img src=""img/flower2.png"" style=""width:200px; border:14px solid green;"">","null","","","","","",""
"563.1999998092651","","image-keyboard-response","196","264682","0.0-196.0","3TYCR1GOTD5LD8CNR23TTBKLL74ZLD","AYW62R027PUT1","33K3E8REWWHZ7MUV5T1222MGO9NX8Q","","","img/flower4.png","74","563.7999999523163","1","1","2","0.7,0.2,0,0.7,0,0.2,0.2,0,0.7",""
"null","","html-keyboard-response","197","264996","0.0-197.0","3TYCR1GOTD5LD8CNR23TTBKLL74ZLD","AYW62R027PUT1","33K3E8REWWHZ7MUV5T1222MGO9NX8Q","","","<img src=""img/flower4.png"" style=""width:200px; border:14px solid green;"">","null","","","","","",""
"756.8000001907349","","image-keyboard-response","198","265754","0.0-198.0","3TYCR1GOTD5LD8CNR23TTBKLL74ZLD","AYW62R027PUT1","33K3E8REWWHZ7MUV5T1222MGO9NX8Q","","","img/flower2.png","74","757.2999999523163","1","1","1","0.7,0.2,0,0.7,0,0.2,0.2,0,0.7",""
"null","","html-keyboard-response","199","266068","0.0-199.0","3TYCR1GOTD5LD8CNR23TTBKLL74ZLD","AYW62R027PUT1","33K3E8REWWHZ7MUV5T1222MGO9NX8Q","","","<img src=""img/flower2.png"" style=""width:200px; border:14px solid green;"">","null","","","","","",""
"709.2000000476837","","image-keyboard-response","200","266778","0.0-200.0","3TYCR1GOTD5LD8CNR23TTBKLL74ZLD","AYW62R027PUT1","33K3E8REWWHZ7MUV5T1222MGO9NX8Q","","","img/flower4.png","74","709.7000000476837","1","1","2","0.7,0.2,0,0.7,0,0.2,0.2,0,0.7",""
"null","","html-keyboard-response","201","267091","0.0-201.0","3TYCR1GOTD5LD8CNR23TTBKLL74ZLD","AYW62R027PUT1","33K3E8REWWHZ7MUV5T1222MGO9NX8Q","","","<img src=""img/flower4.png"" style=""width:200px; border:14px solid green;"">","null","","","","","",""
"566.1000001430511","","image-keyboard-response","202","267658","0.0-202.0","3TYCR1GOTD5LD8CNR23TTBKLL74ZLD","AYW62R027PUT1","33K3E8REWWHZ7MUV5T1222MGO9NX8Q","","","img/flower3.png","76","566.7999999523163","3","1","3","0.7,0.2,0,0.7,0,0.2,0.2,0,0.7",""
"null","","html-keyboard-response","203","267967","0.0-203.0","3TYCR1GOTD5LD8CNR23TTBKLL74ZLD","AYW62R027PUT1","33K3E8REWWHZ7MUV5T1222MGO9NX8Q","","","<img src=""img/flower3.png"" style=""width:200px; border:14px solid green;"">","null","","","","","",""
"474","","image-keyboard-response","204","268442","0.0-204.0","3TYCR1GOTD5LD8CNR23TTBKLL74ZLD","AYW62R027PUT1","33K3E8REWWHZ7MUV5T1222MGO9NX8Q","","","img/flower3.png","76","474.5","3","1","3","0.7,0.2,0,0.7,0,0.2,0.2,0,0.7",""
"null","","html-keyboard-response","205","268755","0.0-205.0","3TYCR1GOTD5LD8CNR23TTBKLL74ZLD","AYW62R027PUT1","33K3E8REWWHZ7MUV5T1222MGO9NX8Q","","","<img src=""img/flower3.png"" style=""width:200px; border:14px solid green;"">","null","","","","","",""
"750","","image-keyboard-response","206","269506","0.0-206.0","3TYCR1GOTD5LD8CNR23TTBKLL74ZLD","AYW62R027PUT1","33K3E8REWWHZ7MUV5T1222MGO9NX8Q","","","img/flower2.png","74","750.5","1","1","1","0.7,0.2,0,0.7,0,0.2,0.2,0,0.7",""
"null","","html-keyboard-response","207","269817","0.0-207.0","3TYCR1GOTD5LD8CNR23TTBKLL74ZLD","AYW62R027PUT1","33K3E8REWWHZ7MUV5T1222MGO9NX8Q","","","<img src=""img/flower2.png"" style=""width:200px; border:14px solid green;"">","null","","","","","",""
"423.59999990463257","","image-keyboard-response","208","270242","0.0-208.0","3TYCR1GOTD5LD8CNR23TTBKLL74ZLD","AYW62R027PUT1","33K3E8REWWHZ7MUV5T1222MGO9NX8Q","","","img/flower2.png","74","424","1","1","1","0.7,0.2,0,0.7,0,0.2,0.2,0,0.7",""
"null","","html-keyboard-response","209","270552","0.0-209.0","3TYCR1GOTD5LD8CNR23TTBKLL74ZLD","AYW62R027PUT1","33K3E8REWWHZ7MUV5T1222MGO9NX8Q","","","<img src=""img/flower2.png"" style=""width:200px; border:14px solid green;"">","null","","","","","",""
"1121.3999998569489","","image-keyboard-response","210","271674","0.0-210.0","3TYCR1GOTD5LD8CNR23TTBKLL74ZLD","AYW62R027PUT1","33K3E8REWWHZ7MUV5T1222MGO9NX8Q","","","img/flower3.png","76","1121.8999998569489","3","1","3","0.7,0.2,0,0.7,0,0.2,0.2,0,0.7",""
"null","","html-keyboard-response","211","271980","0.0-211.0","3TYCR1GOTD5LD8CNR23TTBKLL74ZLD","AYW62R027PUT1","33K3E8REWWHZ7MUV5T1222MGO9NX8Q","","","<img src=""img/flower3.png"" style=""width:200px; border:14px solid green;"">","null","","","","","",""
"653.2000000476837","","image-keyboard-response","212","272634","0.0-212.0","3TYCR1GOTD5LD8CNR23TTBKLL74ZLD","AYW62R027PUT1","33K3E8REWWHZ7MUV5T1222MGO9NX8Q","","","img/flower2.png","74","653.7999999523163","1","1","1","0.7,0.2,0,0.7,0,0.2,0.2,0,0.7",""
"null","","html-keyboard-response","213","272949","0.0-213.0","3TYCR1GOTD5LD8CNR23TTBKLL74ZLD","AYW62R027PUT1","33K3E8REWWHZ7MUV5T1222MGO9NX8Q","","","<img src=""img/flower2.png"" style=""width:200px; border:14px solid green;"">","null","","","","","",""
"387.40000009536743","","image-keyboard-response","214","273338","0.0-214.0","3TYCR1GOTD5LD8CNR23TTBKLL74ZLD","AYW62R027PUT1","33K3E8REWWHZ7MUV5T1222MGO9NX8Q","","","img/flower2.png","74","388","1","1","1","0.7,0.2,0,0.7,0,0.2,0.2,0,0.7",""
"null","","html-keyboard-response","215","273651","0.0-215.0","3TYCR1GOTD5LD8CNR23TTBKLL74ZLD","AYW62R027PUT1","33K3E8REWWHZ7MUV5T1222MGO9NX8Q","","","<img src=""img/flower2.png"" style=""width:200px; border:14px solid green;"">","null","","","","","",""
"597.7000000476837","","image-keyboard-response","216","274250","0.0-216.0","3TYCR1GOTD5LD8CNR23TTBKLL74ZLD","AYW62R027PUT1","33K3E8REWWHZ7MUV5T1222MGO9NX8Q","","","img/flower4.png","74","598.2999999523163","1","1","2","0.7,0.2,0,0.7,0,0.2,0.2,0,0.7",""
"null","","html-keyboard-response","217","274552","0.0-217.0","3TYCR1GOTD5LD8CNR23TTBKLL74ZLD","AYW62R027PUT1","33K3E8REWWHZ7MUV5T1222MGO9NX8Q","","","<img src=""img/flower4.png"" style=""width:200px; border:14px solid green;"">","null","","","","","",""
"472.5","","image-keyboard-response","218","275026","0.0-218.0","3TYCR1GOTD5LD8CNR23TTBKLL74ZLD","AYW62R027PUT1","33K3E8REWWHZ7MUV5T1222MGO9NX8Q","","","img/flower3.png","76","473.10000014305115","3","1","3","0.7,0.2,0,0.7,0,0.2,0.2,0,0.7",""
"null","","html-keyboard-response","219","275335","0.0-219.0","3TYCR1GOTD5LD8CNR23TTBKLL74ZLD","AYW62R027PUT1","33K3E8REWWHZ7MUV5T1222MGO9NX8Q","","","<img src=""img/flower3.png"" style=""width:200px; border:14px solid green;"">","null","","","","","",""
"745.7000000476837","","image-keyboard-response","220","276082","0.0-220.0","3TYCR1GOTD5LD8CNR23TTBKLL74ZLD","AYW62R027PUT1","33K3E8REWWHZ7MUV5T1222MGO9NX8Q","","","img/flower4.png","74","746.2999999523163","1","1","2","0.7,0.2,0,0.7,0,0.2,0.2,0,0.7",""
"null","","html-keyboard-response","221","276385","0.0-221.0","3TYCR1GOTD5LD8CNR23TTBKLL74ZLD","AYW62R027PUT1","33K3E8REWWHZ7MUV5T1222MGO9NX8Q","","","<img src=""img/flower4.png"" style=""width:200px; border:14px solid green;"">","null","","","","","",""
"743.7999999523163","","image-keyboard-response","222","277130","0.0-222.0","3TYCR1GOTD5LD8CNR23TTBKLL74ZLD","AYW62R027PUT1","33K3E8REWWHZ7MUV5T1222MGO9NX8Q","","","img/flower3.png","76","744.3000001907349","3","1","3","0.7,0.2,0,0.7,0,0.2,0.2,0,0.7",""
"null","","html-keyboard-response","223","277434","0.0-223.0","3TYCR1GOTD5LD8CNR23TTBKLL74ZLD","AYW62R027PUT1","33K3E8REWWHZ7MUV5T1222MGO9NX8Q","","","<img src=""img/flower3.png"" style=""width:200px; border:14px solid green;"">","null","","","","","",""
"759.1999998092651","","image-keyboard-response","224","278194","0.0-224.0","3TYCR1GOTD5LD8CNR23TTBKLL74ZLD","AYW62R027PUT1","33K3E8REWWHZ7MUV5T1222MGO9NX8Q","","","img/flower4.png","74","759.7999999523163","1","0","2","0.7,0.2,0,0.7,0,0.2,0.2,0,0.7",""
"null","","html-keyboard-response","225","278501","0.0-225.0","3TYCR1GOTD5LD8CNR23TTBKLL74ZLD","AYW62R027PUT1","33K3E8REWWHZ7MUV5T1222MGO9NX8Q","","","<img src=""img/flower4.png"" style=""width:200px;border:14px solid red;"">","null","","","","","",""
"683.5999999046326","","image-keyboard-response","226","279186","0.0-226.0","3TYCR1GOTD5LD8CNR23TTBKLL74ZLD","AYW62R027PUT1","33K3E8REWWHZ7MUV5T1222MGO9NX8Q","","","img/flower3.png","76","684.0999999046326","3","1","3","0.7,0.2,0,0.7,0,0.2,0.2,0,0.7",""
"null","","html-keyboard-response","227","279501","0.0-227.0","3TYCR1GOTD5LD8CNR23TTBKLL74ZLD","AYW62R027PUT1","33K3E8REWWHZ7MUV5T1222MGO9NX8Q","","","<img src=""img/flower3.png"" style=""width:200px; border:14px solid green;"">","null","","","","","",""
"515.5999999046326","","image-keyboard-response","228","280018","0.0-228.0","3TYCR1GOTD5LD8CNR23TTBKLL74ZLD","AYW62R027PUT1","33K3E8REWWHZ7MUV5T1222MGO9NX8Q","","","img/flower2.png","74","516.2000000476837","1","0","1","0.7,0.2,0,0.7,0,0.2,0.2,0,0.7",""
"null","","html-keyboard-response","229","280334","0.0-229.0","3TYCR1GOTD5LD8CNR23TTBKLL74ZLD","AYW62R027PUT1","33K3E8REWWHZ7MUV5T1222MGO9NX8Q","","","<img src=""img/flower2.png"" style=""width:200px;border:14px solid red;"">","null","","","","","",""
"906.8999998569489","","image-keyboard-response","230","281241","0.0-230.0","3TYCR1GOTD5LD8CNR23TTBKLL74ZLD","AYW62R027PUT1","33K3E8REWWHZ7MUV5T1222MGO9NX8Q","","","img/flower4.png","74","907.4000000953674","1","1","2","0.7,0.2,0,0.7,0,0.2,0.2,0,0.7",""
"null","","html-keyboard-response","231","281552","0.0-231.0","3TYCR1GOTD5LD8CNR23TTBKLL74ZLD","AYW62R027PUT1","33K3E8REWWHZ7MUV5T1222MGO9NX8Q","","","<img src=""img/flower4.png"" style=""width:200px; border:14px solid green;"">","null","","","","","",""
"577.5","","image-keyboard-response","232","282130","0.0-232.0","3TYCR1GOTD5LD8CNR23TTBKLL74ZLD","AYW62R027PUT1","33K3E8REWWHZ7MUV5T1222MGO9NX8Q","","","img/flower3.png","76","577.8999998569489","3","0","3","0.7,0.2,0,0.7,0,0.2,0.2,0,0.7",""
"null","","html-keyboard-response","233","282434","0.0-233.0","3TYCR1GOTD5LD8CNR23TTBKLL74ZLD","AYW62R027PUT1","33K3E8REWWHZ7MUV5T1222MGO9NX8Q","","","<img src=""img/flower3.png"" style=""width:200px;border:14px solid red;"">","null","","","","","",""
"895","","image-keyboard-response","234","283330","0.0-234.0","3TYCR1GOTD5LD8CNR23TTBKLL74ZLD","AYW62R027PUT1","33K3E8REWWHZ7MUV5T1222MGO9NX8Q","","","img/flower4.png","74","895.5","1","1","2","0.7,0.2,0,0.7,0,0.2,0.2,0,0.7",""
"null","","html-keyboard-response","235","283634","0.0-235.0","3TYCR1GOTD5LD8CNR23TTBKLL74ZLD","AYW62R027PUT1","33K3E8REWWHZ7MUV5T1222MGO9NX8Q","","","<img src=""img/flower4.png"" style=""width:200px; border:14px solid green;"">","null","","","","","",""
"510.5","","image-keyboard-response","236","284146","0.0-236.0","3TYCR1GOTD5LD8CNR23TTBKLL74ZLD","AYW62R027PUT1","33K3E8REWWHZ7MUV5T1222MGO9NX8Q","","","img/flower4.png","74","511.19999980926514","1","1","2","0.7,0.2,0,0.7,0,0.2,0.2,0,0.7",""
"null","","html-keyboard-response","237","284450","0.0-237.0","3TYCR1GOTD5LD8CNR23TTBKLL74ZLD","AYW62R027PUT1","33K3E8REWWHZ7MUV5T1222MGO9NX8Q","","","<img src=""img/flower4.png"" style=""width:200px; border:14px solid green;"">","null","","","","","",""
"558.5","","image-keyboard-response","238","285010","0.0-238.0","3TYCR1GOTD5LD8CNR23TTBKLL74ZLD","AYW62R027PUT1","33K3E8REWWHZ7MUV5T1222MGO9NX8Q","","","img/flower4.png","74","559.1000001430511","1","1","2","0.7,0.2,0,0.7,0,0.2,0.2,0,0.7",""
"null","","html-keyboard-response","239","285318","0.0-239.0","3TYCR1GOTD5LD8CNR23TTBKLL74ZLD","AYW62R027PUT1","33K3E8REWWHZ7MUV5T1222MGO9NX8Q","","","<img src=""img/flower4.png"" style=""width:200px; border:14px solid green;"">","null","","","","","",""
"715.1000001430511","","image-keyboard-response","240","286034","0.0-240.0","3TYCR1GOTD5LD8CNR23TTBKLL74ZLD","AYW62R027PUT1","33K3E8REWWHZ7MUV5T1222MGO9NX8Q","","","img/flower2.png","74","715.5999999046326","1","0","1","0.7,0.2,0,0.7,0,0.2,0.2,0,0.7",""
"null","","html-keyboard-response","241","286336","0.0-241.0","3TYCR1GOTD5LD8CNR23TTBKLL74ZLD","AYW62R027PUT1","33K3E8REWWHZ7MUV5T1222MGO9NX8Q","","","<img src=""img/flower2.png"" style=""width:200px;border:14px solid red;"">","null","","","","","",""
"784.6000001430511","","image-keyboard-response","242","287122","0.0-242.0","3TYCR1GOTD5LD8CNR23TTBKLL74ZLD","AYW62R027PUT1","33K3E8REWWHZ7MUV5T1222MGO9NX8Q","","","img/flower3.png","76","785.2999999523163","3","1","3","0.7,0.2,0,0.7,0,0.2,0.2,0,0.7",""
"null","","html-keyboard-response","243","287434","0.0-243.0","3TYCR1GOTD5LD8CNR23TTBKLL74ZLD","AYW62R027PUT1","33K3E8REWWHZ7MUV5T1222MGO9NX8Q","","","<img src=""img/flower3.png"" style=""width:200px; border:14px solid green;"">","null","","","","","",""
"711.0999999046326","","image-keyboard-response","244","288146","0.0-244.0","3TYCR1GOTD5LD8CNR23TTBKLL74ZLD","AYW62R027PUT1","33K3E8REWWHZ7MUV5T1222MGO9NX8Q","","","img/flower2.png","74","711.6000001430511","1","0","1","0.7,0.2,0,0.7,0,0.2,0.2,0,0.7",""
"null","","html-keyboard-response","245","288451","0.0-245.0","3TYCR1GOTD5LD8CNR23TTBKLL74ZLD","AYW62R027PUT1","33K3E8REWWHZ7MUV5T1222MGO9NX8Q","","","<img src=""img/flower2.png"" style=""width:200px;border:14px solid red;"">","null","","","","","",""
"1174.2999999523163","","image-keyboard-response","246","289626","0.0-246.0","3TYCR1GOTD5LD8CNR23TTBKLL74ZLD","AYW62R027PUT1","33K3E8REWWHZ7MUV5T1222MGO9NX8Q","","","img/flower3.png","76","1174.7999999523163","3","1","3","0.7,0.2,0,0.7,0,0.2,0.2,0,0.7",""
"null","","html-keyboard-response","247","289935","0.0-247.0","3TYCR1GOTD5LD8CNR23TTBKLL74ZLD","AYW62R027PUT1","33K3E8REWWHZ7MUV5T1222MGO9NX8Q","","","<img src=""img/flower3.png"" style=""width:200px; border:14px solid green;"">","null","","","","","",""
"634.3000001907349","","image-keyboard-response","248","290570","0.0-248.0","3TYCR1GOTD5LD8CNR23TTBKLL74ZLD","AYW62R027PUT1","33K3E8REWWHZ7MUV5T1222MGO9NX8Q","","","img/flower2.png","74","634.9000000953674","1","1","1","0.7,0.2,0,0.7,0,0.2,0.2,0,0.7",""
"null","","html-keyboard-response","249","290884","0.0-249.0","3TYCR1GOTD5LD8CNR23TTBKLL74ZLD","AYW62R027PUT1","33K3E8REWWHZ7MUV5T1222MGO9NX8Q","","","<img src=""img/flower2.png"" style=""width:200px; border:14px solid green;"">","null","","","","","",""
"532.5999999046326","","image-keyboard-response","250","291418","0.0-250.0","3TYCR1GOTD5LD8CNR23TTBKLL74ZLD","AYW62R027PUT1","33K3E8REWWHZ7MUV5T1222MGO9NX8Q","","","img/flower2.png","74","533.2000000476837","1","1","1","0.7,0.2,0,0.7,0,0.2,0.2,0,0.7",""
"null","","html-keyboard-response","251","291719","0.0-251.0","3TYCR1GOTD5LD8CNR23TTBKLL74ZLD","AYW62R027PUT1","33K3E8REWWHZ7MUV5T1222MGO9NX8Q","","","<img src=""img/flower2.png"" style=""width:200px; border:14px solid green;"">","null","","","","","",""
"850.5","","image-keyboard-response","252","292570","0.0-252.0","3TYCR1GOTD5LD8CNR23TTBKLL74ZLD","AYW62R027PUT1","33K3E8REWWHZ7MUV5T1222MGO9NX8Q","","","img/flower3.png","76","851.1000001430511","3","1","3","0.7,0.2,0,0.7,0,0.2,0.2,0,0.7",""
"null","","html-keyboard-response","253","292885","0.0-253.0","3TYCR1GOTD5LD8CNR23TTBKLL74ZLD","AYW62R027PUT1","33K3E8REWWHZ7MUV5T1222MGO9NX8Q","","","<img src=""img/flower3.png"" style=""width:200px; border:14px solid green;"">","null","","","","","",""
"923.5","","image-keyboard-response","254","293810","0.0-254.0","3TYCR1GOTD5LD8CNR23TTBKLL74ZLD","AYW62R027PUT1","33K3E8REWWHZ7MUV5T1222MGO9NX8Q","","","img/flower4.png","74","924.2999999523163","1","0","2","0.7,0.2,0,0.7,0,0.2,0.2,0,0.7",""
"null","","html-keyboard-response","255","294118","0.0-255.0","3TYCR1GOTD5LD8CNR23TTBKLL74ZLD","AYW62R027PUT1","33K3E8REWWHZ7MUV5T1222MGO9NX8Q","","","<img src=""img/flower4.png"" style=""width:200px;border:14px solid red;"">","null","","","","","",""
"555.3999998569489","","image-keyboard-response","256","294674","0.0-256.0","3TYCR1GOTD5LD8CNR23TTBKLL74ZLD","AYW62R027PUT1","33K3E8REWWHZ7MUV5T1222MGO9NX8Q","","","img/flower3.png","74","556","1","0","3","0.7,0.2,0,0.7,0,0.2,0.2,0,0.7",""
"null","","html-keyboard-response","257","294981","0.0-257.0","3TYCR1GOTD5LD8CNR23TTBKLL74ZLD","AYW62R027PUT1","33K3E8REWWHZ7MUV5T1222MGO9NX8Q","","","<img src=""img/flower3.png"" style=""width:200px;border:14px solid red;"">","null","","","","","",""
"940","","image-keyboard-response","258","295922","0.0-258.0","3TYCR1GOTD5LD8CNR23TTBKLL74ZLD","AYW62R027PUT1","33K3E8REWWHZ7MUV5T1222MGO9NX8Q","","","img/flower4.png","74","940.7000000476837","1","1","2","0.7,0.2,0,0.7,0,0.2,0.2,0,0.7",""
"null","","html-keyboard-response","259","296235","0.0-259.0","3TYCR1GOTD5LD8CNR23TTBKLL74ZLD","AYW62R027PUT1","33K3E8REWWHZ7MUV5T1222MGO9NX8Q","","","<img src=""img/flower4.png"" style=""width:200px; border:14px solid green;"">","null","","","","","",""
"430","","image-keyboard-response","260","296666","0.0-260.0","3TYCR1GOTD5LD8CNR23TTBKLL74ZLD","AYW62R027PUT1","33K3E8REWWHZ7MUV5T1222MGO9NX8Q","","","img/flower4.png","74","430.5","1","0","2","0.7,0.2,0,0.7,0,0.2,0.2,0,0.7",""
"null","","html-keyboard-response","261","296981","0.0-261.0","3TYCR1GOTD5LD8CNR23TTBKLL74ZLD","AYW62R027PUT1","33K3E8REWWHZ7MUV5T1222MGO9NX8Q","","","<img src=""img/flower4.png"" style=""width:200px;border:14px solid red;"">","null","","","","","",""
"891.6000001430511","","image-keyboard-response","262","297874","0.0-262.0","3TYCR1GOTD5LD8CNR23TTBKLL74ZLD","AYW62R027PUT1","33K3E8REWWHZ7MUV5T1222MGO9NX8Q","","","img/flower2.png","74","892.1999998092651","1","1","1","0.7,0.2,0,0.7,0,0.2,0.2,0,0.7",""
"null","","html-keyboard-response","263","298185","0.0-263.0","3TYCR1GOTD5LD8CNR23TTBKLL74ZLD","AYW62R027PUT1","33K3E8REWWHZ7MUV5T1222MGO9NX8Q","","","<img src=""img/flower2.png"" style=""width:200px; border:14px solid green;"">","null","","","","","",""
"1048.5","","image-keyboard-response","264","299234","0.0-264.0","3TYCR1GOTD5LD8CNR23TTBKLL74ZLD","AYW62R027PUT1","33K3E8REWWHZ7MUV5T1222MGO9NX8Q","","","img/flower3.png","76","1049.1000001430511","3","0","3","0.7,0.2,0,0.7,0,0.2,0.2,0,0.7",""
"null","","html-keyboard-response","265","299535","0.0-265.0","3TYCR1GOTD5LD8CNR23TTBKLL74ZLD","AYW62R027PUT1","33K3E8REWWHZ7MUV5T1222MGO9NX8Q","","","<img src=""img/flower3.png"" style=""width:200px;border:14px solid red;"">","null","","","","","",""
"745.6999998092651","","image-keyboard-response","266","300282","0.0-266.0","3TYCR1GOTD5LD8CNR23TTBKLL74ZLD","AYW62R027PUT1","33K3E8REWWHZ7MUV5T1222MGO9NX8Q","","","img/flower3.png","76","746.2000000476837","3","1","3","0.7,0.2,0,0.7,0,0.2,0.2,0,0.7",""
"null","","html-keyboard-response","267","300586","0.0-267.0","3TYCR1GOTD5LD8CNR23TTBKLL74ZLD","AYW62R027PUT1","33K3E8REWWHZ7MUV5T1222MGO9NX8Q","","","<img src=""img/flower3.png"" style=""width:200px; border:14px solid green;"">","null","","","","","",""
"926.5999999046326","","image-keyboard-response","268","301514","0.0-268.0","3TYCR1GOTD5LD8CNR23TTBKLL74ZLD","AYW62R027PUT1","33K3E8REWWHZ7MUV5T1222MGO9NX8Q","","","img/flower4.png","75","927","2","0","2","0.7,0.2,0,0.7,0,0.2,0.2,0,0.7",""
"null","","html-keyboard-response","269","301818","0.0-269.0","3TYCR1GOTD5LD8CNR23TTBKLL74ZLD","AYW62R027PUT1","33K3E8REWWHZ7MUV5T1222MGO9NX8Q","","","<img src=""img/flower4.png"" style=""width:200px;border:14px solid red;"">","null","","","","","",""
"414.69999980926514","","image-keyboard-response","270","302234","0.0-270.0","3TYCR1GOTD5LD8CNR23TTBKLL74ZLD","AYW62R027PUT1","33K3E8REWWHZ7MUV5T1222MGO9NX8Q","","","img/flower4.png","75","415.2000000476837","2","0","2","0.7,0.2,0,0.7,0,0.2,0.2,0,0.7",""
"null","","html-keyboard-response","271","302536","0.0-271.0","3TYCR1GOTD5LD8CNR23TTBKLL74ZLD","AYW62R027PUT1","33K3E8REWWHZ7MUV5T1222MGO9NX8Q","","","<img src=""img/flower4.png"" style=""width:200px;border:14px solid red;"">","null","","","","","",""
"657","","image-keyboard-response","272","303187","0.0-272.0","3TYCR1GOTD5LD8CNR23TTBKLL74ZLD","AYW62R027PUT1","33K3E8REWWHZ7MUV5T1222MGO9NX8Q","","","img/flower2.png","74","657.7000000476837","1","1","1","0.7,0.2,0,0.7,0,0.2,0.2,0,0.7",""
"null","","html-keyboard-response","273","303494","0.0-273.0","3TYCR1GOTD5LD8CNR23TTBKLL74ZLD","AYW62R027PUT1","33K3E8REWWHZ7MUV5T1222MGO9NX8Q","","","<img src=""img/flower2.png"" style=""width:200px; border:14px solid green;"">","null","","","","","",""
"739.3999998569489","","image-keyboard-response","274","304235","0.0-274.0","3TYCR1GOTD5LD8CNR23TTBKLL74ZLD","AYW62R027PUT1","33K3E8REWWHZ7MUV5T1222MGO9NX8Q","","","img/flower3.png","76","740","3","1","3","0.7,0.2,0,0.7,0,0.2,0.2,0,0.7",""
"null","","html-keyboard-response","275","304545","0.0-275.0","3TYCR1GOTD5LD8CNR23TTBKLL74ZLD","AYW62R027PUT1","33K3E8REWWHZ7MUV5T1222MGO9NX8Q","","","<img src=""img/flower3.png"" style=""width:200px; border:14px solid green;"">","null","","","","","",""
"601","","image-keyboard-response","276","305146","0.0-276.0","3TYCR1GOTD5LD8CNR23TTBKLL74ZLD","AYW62R027PUT1","33K3E8REWWHZ7MUV5T1222MGO9NX8Q","","","img/flower2.png","74","601.5","1","1","1","0.7,0.2,0,0.7,0,0.2,0.2,0,0.7",""
"null","","html-keyboard-response","277","305460","0.0-277.0","3TYCR1GOTD5LD8CNR23TTBKLL74ZLD","AYW62R027PUT1","33K3E8REWWHZ7MUV5T1222MGO9NX8Q","","","<img src=""img/flower2.png"" style=""width:200px; border:14px solid green;"">","null","","","","","",""
"765.4000000953674","","image-keyboard-response","278","306226","0.0-278.0","3TYCR1GOTD5LD8CNR23TTBKLL74ZLD","AYW62R027PUT1","33K3E8REWWHZ7MUV5T1222MGO9NX8Q","","","img/flower4.png","74","766.1000001430511","1","1","2","0.7,0.2,0,0.7,0,0.2,0.2,0,0.7",""
"null","","html-keyboard-response","279","306528","0.0-279.0","3TYCR1GOTD5LD8CNR23TTBKLL74ZLD","AYW62R027PUT1","33K3E8REWWHZ7MUV5T1222MGO9NX8Q","","","<img src=""img/flower4.png"" style=""width:200px; border:14px solid green;"">","null","","","","","",""
"401.69999980926514","","image-keyboard-response","280","306931","0.0-280.0","3TYCR1GOTD5LD8CNR23TTBKLL74ZLD","AYW62R027PUT1","33K3E8REWWHZ7MUV5T1222MGO9NX8Q","","","img/flower4.png","74","402.40000009536743","1","1","2","0.7,0.2,0,0.7,0,0.2,0.2,0,0.7",""
"null","","html-keyboard-response","281","307243","0.0-281.0","3TYCR1GOTD5LD8CNR23TTBKLL74ZLD","AYW62R027PUT1","33K3E8REWWHZ7MUV5T1222MGO9NX8Q","","","<img src=""img/flower4.png"" style=""width:200px; border:14px solid green;"">","null","","","","","",""
"414.2000000476837","","image-keyboard-response","282","307658","0.0-282.0","3TYCR1GOTD5LD8CNR23TTBKLL74ZLD","AYW62R027PUT1","33K3E8REWWHZ7MUV5T1222MGO9NX8Q","","","img/flower4.png","74","414.7000000476837","1","1","2","0.7,0.2,0,0.7,0,0.2,0.2,0,0.7",""
"null","","html-keyboard-response","283","307974","0.0-283.0","3TYCR1GOTD5LD8CNR23TTBKLL74ZLD","AYW62R027PUT1","33K3E8REWWHZ7MUV5T1222MGO9NX8Q","","","<img src=""img/flower4.png"" style=""width:200px; border:14px solid green;"">","null","","","","","",""
"748.0999999046326","","image-keyboard-response","284","308723","0.0-284.0","3TYCR1GOTD5LD8CNR23TTBKLL74ZLD","AYW62R027PUT1","33K3E8REWWHZ7MUV5T1222MGO9NX8Q","","","img/flower2.png","74","748.5","1","0","1","0.7,0.2,0,0.7,0,0.2,0.2,0,0.7",""
"null","","html-keyboard-response","285","309037","0.0-285.0","3TYCR1GOTD5LD8CNR23TTBKLL74ZLD","AYW62R027PUT1","33K3E8REWWHZ7MUV5T1222MGO9NX8Q","","","<img src=""img/flower2.png"" style=""width:200px;border:14px solid red;"">","null","","","","","",""
"580.9000000953674","","image-keyboard-response","286","309618","0.0-286.0","3TYCR1GOTD5LD8CNR23TTBKLL74ZLD","AYW62R027PUT1","33K3E8REWWHZ7MUV5T1222MGO9NX8Q","","","img/flower4.png","74","581.5","1","0","2","0.7,0.2,0,0.7,0,0.2,0.2,0,0.7",""
"null","","html-keyboard-response","287","309928","0.0-287.0","3TYCR1GOTD5LD8CNR23TTBKLL74ZLD","AYW62R027PUT1","33K3E8REWWHZ7MUV5T1222MGO9NX8Q","","","<img src=""img/flower4.png"" style=""width:200px;border:14px solid red;"">","null","","","","","",""
"1010.2000000476837","","image-keyboard-response","288","310939","0.0-288.0","3TYCR1GOTD5LD8CNR23TTBKLL74ZLD","AYW62R027PUT1","33K3E8REWWHZ7MUV5T1222MGO9NX8Q","","","img/flower3.png","76","1010.7000000476837","3","0","3","0.7,0.2,0,0.7,0,0.2,0.2,0,0.7",""
"null","","html-keyboard-response","289","311244","0.0-289.0","3TYCR1GOTD5LD8CNR23TTBKLL74ZLD","AYW62R027PUT1","33K3E8REWWHZ7MUV5T1222MGO9NX8Q","","","<img src=""img/flower3.png"" style=""width:200px;border:14px solid red;"">","null","","","","","",""
"837.2999999523163","","image-keyboard-response","290","312082","0.0-290.0","3TYCR1GOTD5LD8CNR23TTBKLL74ZLD","AYW62R027PUT1","33K3E8REWWHZ7MUV5T1222MGO9NX8Q","","","img/flower4.png","74","837.8999998569489","1","0","2","0.7,0.2,0,0.7,0,0.2,0.2,0,0.7",""
"null","","html-keyboard-response","291","312394","0.0-291.0","3TYCR1GOTD5LD8CNR23TTBKLL74ZLD","AYW62R027PUT1","33K3E8REWWHZ7MUV5T1222MGO9NX8Q","","","<img src=""img/flower4.png"" style=""width:200px;border:14px solid red;"">","null","","","","","",""
"415.7999999523163","","image-keyboard-response","292","312811","0.0-292.0","3TYCR1GOTD5LD8CNR23TTBKLL74ZLD","AYW62R027PUT1","33K3E8REWWHZ7MUV5T1222MGO9NX8Q","","","img/flower4.png","74","416.39999985694885","1","0","2","0.7,0.2,0,0.7,0,0.2,0.2,0,0.7",""
"null","","html-keyboard-response","293","313115","0.0-293.0","3TYCR1GOTD5LD8CNR23TTBKLL74ZLD","AYW62R027PUT1","33K3E8REWWHZ7MUV5T1222MGO9NX8Q","","","<img src=""img/flower4.png"" style=""width:200px;border:14px solid red;"">","null","","","","","",""
"702.7000000476837","","image-keyboard-response","294","313819","0.0-294.0","3TYCR1GOTD5LD8CNR23TTBKLL74ZLD","AYW62R027PUT1","33K3E8REWWHZ7MUV5T1222MGO9NX8Q","","","img/flower4.png","74","703.2000000476837","1","0","2","0.7,0.2,0,0.7,0,0.2,0.2,0,0.7",""
"null","","html-keyboard-response","295","314128","0.0-295.0","3TYCR1GOTD5LD8CNR23TTBKLL74ZLD","AYW62R027PUT1","33K3E8REWWHZ7MUV5T1222MGO9NX8Q","","","<img src=""img/flower4.png"" style=""width:200px;border:14px solid red;"">","null","","","","","",""
"1090","","image-keyboard-response","296","315219","0.0-296.0","3TYCR1GOTD5LD8CNR23TTBKLL74ZLD","AYW62R027PUT1","33K3E8REWWHZ7MUV5T1222MGO9NX8Q","","","img/flower2.png","74","1090.5999999046326","1","1","1","0.7,0.2,0,0.7,0,0.2,0.2,0,0.7",""
"null","","html-keyboard-response","297","315528","0.0-297.0","3TYCR1GOTD5LD8CNR23TTBKLL74ZLD","AYW62R027PUT1","33K3E8REWWHZ7MUV5T1222MGO9NX8Q","","","<img src=""img/flower2.png"" style=""width:200px; border:14px solid green;"">","null","","","","","",""
"1450.2000000476837","","image-keyboard-response","298","316979","0.0-298.0","3TYCR1GOTD5LD8CNR23TTBKLL74ZLD","AYW62R027PUT1","33K3E8REWWHZ7MUV5T1222MGO9NX8Q","","","img/flower3.png","76","1450.7000000476837","3","1","3","0.7,0.2,0,0.7,0,0.2,0.2,0,0.7",""
"null","","html-keyboard-response","299","317295","0.0-299.0","3TYCR1GOTD5LD8CNR23TTBKLL74ZLD","AYW62R027PUT1","33K3E8REWWHZ7MUV5T1222MGO9NX8Q","","","<img src=""img/flower3.png"" style=""width:200px; border:14px solid green;"">","null","","","","","",""
"706.8000001907349","","image-keyboard-response","300","318002","0.0-300.0","3TYCR1GOTD5LD8CNR23TTBKLL74ZLD","AYW62R027PUT1","33K3E8REWWHZ7MUV5T1222MGO9NX8Q","","","img/flower2.png","74","707.1999998092651","1","1","1","0.7,0.2,0,0.7,0,0.2,0.2,0,0.7",""
"null","","html-keyboard-response","301","318311","0.0-301.0","3TYCR1GOTD5LD8CNR23TTBKLL74ZLD","AYW62R027PUT1","33K3E8REWWHZ7MUV5T1222MGO9NX8Q","","","<img src=""img/flower2.png"" style=""width:200px; border:14px solid green;"">","null","","","","","",""
"410.60000014305115","","image-keyboard-response","302","318722","0.0-302.0","3TYCR1GOTD5LD8CNR23TTBKLL74ZLD","AYW62R027PUT1","33K3E8REWWHZ7MUV5T1222MGO9NX8Q","","","img/flower2.png","74","411.09999990463257","1","1","1","0.7,0.2,0,0.7,0,0.2,0.2,0,0.7",""
"null","","html-keyboard-response","303","319037","0.0-303.0","3TYCR1GOTD5LD8CNR23TTBKLL74ZLD","AYW62R027PUT1","33K3E8REWWHZ7MUV5T1222MGO9NX8Q","","","<img src=""img/flower2.png"" style=""width:200px; border:14px solid green;"">","null","","","","","",""
"468.89999985694885","","image-keyboard-response","304","319506","0.0-304.0","3TYCR1GOTD5LD8CNR23TTBKLL74ZLD","AYW62R027PUT1","33K3E8REWWHZ7MUV5T1222MGO9NX8Q","","","img/flower2.png","74","469.39999985694885","1","1","1","0.7,0.2,0,0.7,0,0.2,0.2,0,0.7",""
"null","","html-keyboard-response","305","319809","0.0-305.0","3TYCR1GOTD5LD8CNR23TTBKLL74ZLD","AYW62R027PUT1","33K3E8REWWHZ7MUV5T1222MGO9NX8Q","","","<img src=""img/flower2.png"" style=""width:200px; border:14px solid green;"">","null","","","","","",""
"","","html-keyboard-response","306","323209","0.0-306.0","3TYCR1GOTD5LD8CNR23TTBKLL74ZLD","AYW62R027PUT1","33K3E8REWWHZ7MUV5T1222MGO9NX8Q","","","","","","","","","",""
"1936.6999998092651","","image-keyboard-response","307","325147","0.0-307.0","3TYCR1GOTD5LD8CNR23TTBKLL74ZLD","AYW62R027PUT1","33K3E8REWWHZ7MUV5T1222MGO9NX8Q","","","img/flower5.png","75","1937.5","2","0","1","0.7,0.2,0,0,0.7,0.2,0.2,0,0.7",""
"null","","html-keyboard-response","308","325461","0.0-308.0","3TYCR1GOTD5LD8CNR23TTBKLL74ZLD","AYW62R027PUT1","33K3E8REWWHZ7MUV5T1222MGO9NX8Q","","","<img src=""img/flower5.png"" style=""width:200px;border:14px solid red;"">","null","","","","","",""
"580.2000000476837","","image-keyboard-response","309","326042","0.0-309.0","3TYCR1GOTD5LD8CNR23TTBKLL74ZLD","AYW62R027PUT1","33K3E8REWWHZ7MUV5T1222MGO9NX8Q","","","img/flower5.png","74","580.7999999523163","1","1","1","0.7,0.2,0,0,0.7,0.2,0.2,0,0.7",""
"null","","html-keyboard-response","310","326346","0.0-310.0","3TYCR1GOTD5LD8CNR23TTBKLL74ZLD","AYW62R027PUT1","33K3E8REWWHZ7MUV5T1222MGO9NX8Q","","","<img src=""img/flower5.png"" style=""width:200px; border:14px solid green;"">","null","","","","","",""
"1295.3999998569489","","image-keyboard-response","311","327643","0.0-311.0","3TYCR1GOTD5LD8CNR23TTBKLL74ZLD","AYW62R027PUT1","33K3E8REWWHZ7MUV5T1222MGO9NX8Q","","","img/flower6.png","76","1296","3","0","2","0.7,0.2,0,0,0.7,0.2,0.2,0,0.7",""
"null","","html-keyboard-response","312","327946","0.0-312.0","3TYCR1GOTD5LD8CNR23TTBKLL74ZLD","AYW62R027PUT1","33K3E8REWWHZ7MUV5T1222MGO9NX8Q","","","<img src=""img/flower6.png"" style=""width:200px;border:14px solid red;"">","null","","","","","",""
"1223.7999999523163","","image-keyboard-response","313","329170","0.0-313.0","3TYCR1GOTD5LD8CNR23TTBKLL74ZLD","AYW62R027PUT1","33K3E8REWWHZ7MUV5T1222MGO9NX8Q","","","img/flower5.png","74","1224.4000000953674","1","1","1","0.7,0.2,0,0,0.7,0.2,0.2,0,0.7",""
"null","","html-keyboard-response","314","329478","0.0-314.0","3TYCR1GOTD5LD8CNR23TTBKLL74ZLD","AYW62R027PUT1","33K3E8REWWHZ7MUV5T1222MGO9NX8Q","","","<img src=""img/flower5.png"" style=""width:200px; border:14px solid green;"">","null","","","","","",""
"667.9000000953674","","image-keyboard-response","315","330146","0.0-315.0","3TYCR1GOTD5LD8CNR23TTBKLL74ZLD","AYW62R027PUT1","33K3E8REWWHZ7MUV5T1222MGO9NX8Q","","","img/flower5.png","74","668.6000001430511","1","1","1","0.7,0.2,0,0,0.7,0.2,0.2,0,0.7",""
"null","","html-keyboard-response","316","330450","0.0-316.0","3TYCR1GOTD5LD8CNR23TTBKLL74ZLD","AYW62R027PUT1","33K3E8REWWHZ7MUV5T1222MGO9NX8Q","","","<img src=""img/flower5.png"" style=""width:200px; border:14px solid green;"">","null","","","","","",""
"1679.2000000476837","","image-keyboard-response","317","332130","0.0-317.0","3TYCR1GOTD5LD8CNR23TTBKLL74ZLD","AYW62R027PUT1","33K3E8REWWHZ7MUV5T1222MGO9NX8Q","","","img/flower1.png","75","1679.8999998569489","2","0","3","0.7,0.2,0,0,0.7,0.2,0.2,0,0.7",""
"null","","html-keyboard-response","318","332444","0.0-318.0","3TYCR1GOTD5LD8CNR23TTBKLL74ZLD","AYW62R027PUT1","33K3E8REWWHZ7MUV5T1222MGO9NX8Q","","","<img src=""img/flower1.png"" style=""width:200px;border:14px solid red;"">","null","","","","","",""
"1597.2999999523163","","image-keyboard-response","319","334042","0.0-319.0","3TYCR1GOTD5LD8CNR23TTBKLL74ZLD","AYW62R027PUT1","33K3E8REWWHZ7MUV5T1222MGO9NX8Q","","","img/flower6.png","75","1597.7999999523163","2","1","2","0.7,0.2,0,0,0.7,0.2,0.2,0,0.7",""
"null","","html-keyboard-response","320","334347","0.0-320.0","3TYCR1GOTD5LD8CNR23TTBKLL74ZLD","AYW62R027PUT1","33K3E8REWWHZ7MUV5T1222MGO9NX8Q","","","<img src=""img/flower6.png"" style=""width:200px; border:14px solid green;"">","null","","","","","",""
"1007.0999999046326","","image-keyboard-response","321","335355","0.0-321.0","3TYCR1GOTD5LD8CNR23TTBKLL74ZLD","AYW62R027PUT1","33K3E8REWWHZ7MUV5T1222MGO9NX8Q","","","img/flower1.png","74","1007.9000000953674","1","0","3","0.7,0.2,0,0,0.7,0.2,0.2,0,0.7",""
"null","","html-keyboard-response","322","335661","0.0-322.0","3TYCR1GOTD5LD8CNR23TTBKLL74ZLD","AYW62R027PUT1","33K3E8REWWHZ7MUV5T1222MGO9NX8Q","","","<img src=""img/flower1.png"" style=""width:200px;border:14px solid red;"">","null","","","","","",""
"1380.7000000476837","","image-keyboard-response","323","337042","0.0-323.0","3TYCR1GOTD5LD8CNR23TTBKLL74ZLD","AYW62R027PUT1","33K3E8REWWHZ7MUV5T1222MGO9NX8Q","","","img/flower5.png","74","1381.2000000476837","1","0","1","0.7,0.2,0,0,0.7,0.2,0.2,0,0.7",""
"null","","html-keyboard-response","324","337346","0.0-324.0","3TYCR1GOTD5LD8CNR23TTBKLL74ZLD","AYW62R027PUT1","33K3E8REWWHZ7MUV5T1222MGO9NX8Q","","","<img src=""img/flower5.png"" style=""width:200px;border:14px solid red;"">","null","","","","","",""
"479.7999999523163","","image-keyboard-response","325","337827","0.0-325.0","3TYCR1GOTD5LD8CNR23TTBKLL74ZLD","AYW62R027PUT1","33K3E8REWWHZ7MUV5T1222MGO9NX8Q","","","img/flower5.png","74","480.2999999523163","1","0","1","0.7,0.2,0,0,0.7,0.2,0.2,0,0.7",""
"null","","html-keyboard-response","326","338128","0.0-326.0","3TYCR1GOTD5LD8CNR23TTBKLL74ZLD","AYW62R027PUT1","33K3E8REWWHZ7MUV5T1222MGO9NX8Q","","","<img src=""img/flower5.png"" style=""width:200px;border:14px solid red;"">","null","","","","","",""
"945.2000000476837","","image-keyboard-response","327","339074","0.0-327.0","3TYCR1GOTD5LD8CNR23TTBKLL74ZLD","AYW62R027PUT1","33K3E8REWWHZ7MUV5T1222MGO9NX8Q","","","img/flower1.png","75","945.7999999523163","2","0","3","0.7,0.2,0,0,0.7,0.2,0.2,0,0.7",""
"null","","html-keyboard-response","328","339379","0.0-328.0","3TYCR1GOTD5LD8CNR23TTBKLL74ZLD","AYW62R027PUT1","33K3E8REWWHZ7MUV5T1222MGO9NX8Q","","","<img src=""img/flower1.png"" style=""width:200px;border:14px solid red;"">","null","","","","","",""
"983","","image-keyboard-response","329","340362","0.0-329.0","3TYCR1GOTD5LD8CNR23TTBKLL74ZLD","AYW62R027PUT1","33K3E8REWWHZ7MUV5T1222MGO9NX8Q","","","img/flower6.png","75","983.6000001430511","2","0","2","0.7,0.2,0,0,0.7,0.2,0.2,0,0.7",""
"null","","html-keyboard-response","330","340679","0.0-330.0","3TYCR1GOTD5LD8CNR23TTBKLL74ZLD","AYW62R027PUT1","33K3E8REWWHZ7MUV5T1222MGO9NX8Q","","","<img src=""img/flower6.png"" style=""width:200px;border:14px solid red;"">","null","","","","","",""
"978.8999998569489","","image-keyboard-response","331","341659","0.0-331.0","3TYCR1GOTD5LD8CNR23TTBKLL74ZLD","AYW62R027PUT1","33K3E8REWWHZ7MUV5T1222MGO9NX8Q","","","img/flower1.png","76","979.5","3","0","3","0.7,0.2,0,0,0.7,0.2,0.2,0,0.7",""
"null","","html-keyboard-response","332","341963","0.0-332.0","3TYCR1GOTD5LD8CNR23TTBKLL74ZLD","AYW62R027PUT1","33K3E8REWWHZ7MUV5T1222MGO9NX8Q","","","<img src=""img/flower1.png"" style=""width:200px;border:14px solid red;"">","null","","","","","",""
"903","","image-keyboard-response","333","342867","0.0-333.0","3TYCR1GOTD5LD8CNR23TTBKLL74ZLD","AYW62R027PUT1","33K3E8REWWHZ7MUV5T1222MGO9NX8Q","","","img/flower6.png","75","903.6000001430511","2","1","2","0.7,0.2,0,0,0.7,0.2,0.2,0,0.7",""
"null","","html-keyboard-response","334","343179","0.0-334.0","3TYCR1GOTD5LD8CNR23TTBKLL74ZLD","AYW62R027PUT1","33K3E8REWWHZ7MUV5T1222MGO9NX8Q","","","<img src=""img/flower6.png"" style=""width:200px; border:14px solid green;"">","null","","","","","",""
"1231.0999999046326","","image-keyboard-response","335","344410","0.0-335.0","3TYCR1GOTD5LD8CNR23TTBKLL74ZLD","AYW62R027PUT1","33K3E8REWWHZ7MUV5T1222MGO9NX8Q","","","img/flower1.png","74","1231.5","1","0","3","0.7,0.2,0,0,0.7,0.2,0.2,0,0.7",""
"null","","html-keyboard-response","336","344712","0.0-336.0","3TYCR1GOTD5LD8CNR23TTBKLL74ZLD","AYW62R027PUT1","33K3E8REWWHZ7MUV5T1222MGO9NX8Q","","","<img src=""img/flower1.png"" style=""width:200px;border:14px solid red;"">","null","","","","","",""
"673.5","","image-keyboard-response","337","345387","0.0-337.0","3TYCR1GOTD5LD8CNR23TTBKLL74ZLD","AYW62R027PUT1","33K3E8REWWHZ7MUV5T1222MGO9NX8Q","","","img/flower5.png","75","674.1000001430511","2","0","1","0.7,0.2,0,0,0.7,0.2,0.2,0,0.7",""
"null","","html-keyboard-response","338","345695","0.0-338.0","3TYCR1GOTD5LD8CNR23TTBKLL74ZLD","AYW62R027PUT1","33K3E8REWWHZ7MUV5T1222MGO9NX8Q","","","<img src=""img/flower5.png"" style=""width:200px;border:14px solid red;"">","null","","","","","",""
"962.9000000953674","","image-keyboard-response","339","346659","0.0-339.0","3TYCR1GOTD5LD8CNR23TTBKLL74ZLD","AYW62R027PUT1","33K3E8REWWHZ7MUV5T1222MGO9NX8Q","","","img/flower6.png","76","963.5999999046326","3","0","2","0.7,0.2,0,0,0.7,0.2,0.2,0,0.7",""
"null","","html-keyboard-response","340","346975","0.0-340.0","3TYCR1GOTD5LD8CNR23TTBKLL74ZLD","AYW62R027PUT1","33K3E8REWWHZ7MUV5T1222MGO9NX8Q","","","<img src=""img/flower6.png"" style=""width:200px;border:14px solid red;"">","null","","","","","",""
"451.10000014305115","","image-keyboard-response","341","347426","0.0-341.0","3TYCR1GOTD5LD8CNR23TTBKLL74ZLD","AYW62R027PUT1","33K3E8REWWHZ7MUV5T1222MGO9NX8Q","","","img/flower6.png","75","451.59999990463257","2","1","2","0.7,0.2,0,0,0.7,0.2,0.2,0,0.7",""
"null","","html-keyboard-response","342","347729","0.0-342.0","3TYCR1GOTD5LD8CNR23TTBKLL74ZLD","AYW62R027PUT1","33K3E8REWWHZ7MUV5T1222MGO9NX8Q","","","<img src=""img/flower6.png"" style=""width:200px; border:14px solid green;"">","null","","","","","",""
"456.10000014305115","","image-keyboard-response","343","348186","0.0-343.0","3TYCR1GOTD5LD8CNR23TTBKLL74ZLD","AYW62R027PUT1","33K3E8REWWHZ7MUV5T1222MGO9NX8Q","","","img/flower6.png","75","456.7999999523163","2","1","2","0.7,0.2,0,0,0.7,0.2,0.2,0,0.7",""
"null","","html-keyboard-response","344","348495","0.0-344.0","3TYCR1GOTD5LD8CNR23TTBKLL74ZLD","AYW62R027PUT1","33K3E8REWWHZ7MUV5T1222MGO9NX8Q","","","<img src=""img/flower6.png"" style=""width:200px; border:14px solid green;"">","null","","","","","",""
"850.4000000953674","","image-keyboard-response","345","349346","0.0-345.0","3TYCR1GOTD5LD8CNR23TTBKLL74ZLD","AYW62R027PUT1","33K3E8REWWHZ7MUV5T1222MGO9NX8Q","","","img/flower1.png","76","850.7999999523163","3","1","3","0.7,0.2,0,0,0.7,0.2,0.2,0,0.7",""
"null","","html-keyboard-response","346","349661","0.0-346.0","3TYCR1GOTD5LD8CNR23TTBKLL74ZLD","AYW62R027PUT1","33K3E8REWWHZ7MUV5T1222MGO9NX8Q","","","<img src=""img/flower1.png"" style=""width:200px; border:14px solid green;"">","null","","","","","",""
"996.8999998569489","","image-keyboard-response","347","350659","0.0-347.0","3TYCR1GOTD5LD8CNR23TTBKLL74ZLD","AYW62R027PUT1","33K3E8REWWHZ7MUV5T1222MGO9NX8Q","","","img/flower5.png","75","997.5","2","0","1","0.7,0.2,0,0,0.7,0.2,0.2,0,0.7",""
"null","","html-keyboard-response","348","350975","0.0-348.0","3TYCR1GOTD5LD8CNR23TTBKLL74ZLD","AYW62R027PUT1","33K3E8REWWHZ7MUV5T1222MGO9NX8Q","","","<img src=""img/flower5.png"" style=""width:200px;border:14px solid red;"">","null","","","","","",""
"755.0999999046326","","image-keyboard-response","349","351731","0.0-349.0","3TYCR1GOTD5LD8CNR23TTBKLL74ZLD","AYW62R027PUT1","33K3E8REWWHZ7MUV5T1222MGO9NX8Q","","","img/flower5.png","74","755.7000000476837","1","0","1","0.7,0.2,0,0,0.7,0.2,0.2,0,0.7",""
"null","","html-keyboard-response","350","352042","0.0-350.0","3TYCR1GOTD5LD8CNR23TTBKLL74ZLD","AYW62R027PUT1","33K3E8REWWHZ7MUV5T1222MGO9NX8Q","","","<img src=""img/flower5.png"" style=""width:200px;border:14px solid red;"">","null","","","","","",""
"1111.2999999523163","","image-keyboard-response","351","353155","0.0-351.0","3TYCR1GOTD5LD8CNR23TTBKLL74ZLD","AYW62R027PUT1","33K3E8REWWHZ7MUV5T1222MGO9NX8Q","","","img/flower6.png","75","1111.8999998569489","2","1","2","0.7,0.2,0,0,0.7,0.2,0.2,0,0.7",""
"null","","html-keyboard-response","352","353461","0.0-352.0","3TYCR1GOTD5LD8CNR23TTBKLL74ZLD","AYW62R027PUT1","33K3E8REWWHZ7MUV5T1222MGO9NX8Q","","","<img src=""img/flower6.png"" style=""width:200px; border:14px solid green;"">","null","","","","","",""
"1221.0999999046326","","image-keyboard-response","353","354683","0.0-353.0","3TYCR1GOTD5LD8CNR23TTBKLL74ZLD","AYW62R027PUT1","33K3E8REWWHZ7MUV5T1222MGO9NX8Q","","","img/flower1.png","76","1221.7999999523163","3","0","3","0.7,0.2,0,0,0.7,0.2,0.2,0,0.7",""
"null","","html-keyboard-response","354","354990","0.0-354.0","3TYCR1GOTD5LD8CNR23TTBKLL74ZLD","AYW62R027PUT1","33K3E8REWWHZ7MUV5T1222MGO9NX8Q","","","<img src=""img/flower1.png"" style=""width:200px;border:14px solid red;"">","null","","","","","",""
"835.9000000953674","","image-keyboard-response","355","355827","0.0-355.0","3TYCR1GOTD5LD8CNR23TTBKLL74ZLD","AYW62R027PUT1","33K3E8REWWHZ7MUV5T1222MGO9NX8Q","","","img/flower6.png","75","836.3999998569489","2","1","2","0.7,0.2,0,0,0.7,0.2,0.2,0,0.7",""
"null","","html-keyboard-response","356","356129","0.0-356.0","3TYCR1GOTD5LD8CNR23TTBKLL74ZLD","AYW62R027PUT1","33K3E8REWWHZ7MUV5T1222MGO9NX8Q","","","<img src=""img/flower6.png"" style=""width:200px; border:14px solid green;"">","null","","","","","",""
"560.8999998569489","","image-keyboard-response","357","356691","0.0-357.0","3TYCR1GOTD5LD8CNR23TTBKLL74ZLD","AYW62R027PUT1","33K3E8REWWHZ7MUV5T1222MGO9NX8Q","","","img/flower6.png","75","561.6000001430511","2","0","2","0.7,0.2,0,0,0.7,0.2,0.2,0,0.7",""
"null","","html-keyboard-response","358","357005","0.0-358.0","3TYCR1GOTD5LD8CNR23TTBKLL74ZLD","AYW62R027PUT1","33K3E8REWWHZ7MUV5T1222MGO9NX8Q","","","<img src=""img/flower6.png"" style=""width:200px;border:14px solid red;"">","null","","","","","",""
"908.7000000476837","","image-keyboard-response","359","357914","0.0-359.0","3TYCR1GOTD5LD8CNR23TTBKLL74ZLD","AYW62R027PUT1","33K3E8REWWHZ7MUV5T1222MGO9NX8Q","","","img/flower1.png","76","909.4000000953674","3","1","3","0.7,0.2,0,0,0.7,0.2,0.2,0,0.7",""
"null","","html-keyboard-response","360","358228","0.0-360.0","3TYCR1GOTD5LD8CNR23TTBKLL74ZLD","AYW62R027PUT1","33K3E8REWWHZ7MUV5T1222MGO9NX8Q","","","<img src=""img/flower1.png"" style=""width:200px; border:14px solid green;"">","null","","","","","",""
"1181.3000001907349","","image-keyboard-response","361","359410","0.0-361.0","3TYCR1GOTD5LD8CNR23TTBKLL74ZLD","AYW62R027PUT1","33K3E8REWWHZ7MUV5T1222MGO9NX8Q","","","img/flower5.png","74","1182","1","1","1","0.7,0.2,0,0,0.7,0.2,0.2,0,0.7",""
"null","","html-keyboard-response","362","359713","0.0-362.0","3TYCR1GOTD5LD8CNR23TTBKLL74ZLD","AYW62R027PUT1","33K3E8REWWHZ7MUV5T1222MGO9NX8Q","","","<img src=""img/flower5.png"" style=""width:200px; border:14px solid green;"">","null","","","","","",""
"1089","","image-keyboard-response","363","360802","0.0-363.0","3TYCR1GOTD5LD8CNR23TTBKLL74ZLD","AYW62R027PUT1","33K3E8REWWHZ7MUV5T1222MGO9NX8Q","","","img/flower5.png","74","1089.5","1","0","1","0.7,0.2,0,0,0.7,0.2,0.2,0,0.7",""
"null","","html-keyboard-response","364","361115","0.0-364.0","3TYCR1GOTD5LD8CNR23TTBKLL74ZLD","AYW62R027PUT1","33K3E8REWWHZ7MUV5T1222MGO9NX8Q","","","<img src=""img/flower5.png"" style=""width:200px;border:14px solid red;"">","null","","","","","",""
"1126.6999998092651","","image-keyboard-response","365","362243","0.0-365.0","3TYCR1GOTD5LD8CNR23TTBKLL74ZLD","AYW62R027PUT1","33K3E8REWWHZ7MUV5T1222MGO9NX8Q","","","img/flower6.png","75","1127.0999999046326","2","0","2","0.7,0.2,0,0,0.7,0.2,0.2,0,0.7",""
"null","","html-keyboard-response","366","362547","0.0-366.0","3TYCR1GOTD5LD8CNR23TTBKLL74ZLD","AYW62R027PUT1","33K3E8REWWHZ7MUV5T1222MGO9NX8Q","","","<img src=""img/flower6.png"" style=""width:200px;border:14px solid red;"">","null","","","","","",""
"662.5999999046326","","image-keyboard-response","367","363217","0.0-367.0","3TYCR1GOTD5LD8CNR23TTBKLL74ZLD","AYW62R027PUT1","33K3E8REWWHZ7MUV5T1222MGO9NX8Q","","","img/flower6.png","75","663.2000000476837","2","1","2","0.7,0.2,0,0,0.7,0.2,0.2,0,0.7",""
"null","","html-keyboard-response","368","363519","0.0-368.0","3TYCR1GOTD5LD8CNR23TTBKLL74ZLD","AYW62R027PUT1","33K3E8REWWHZ7MUV5T1222MGO9NX8Q","","","<img src=""img/flower6.png"" style=""width:200px; border:14px solid green;"">","null","","","","","",""
"1505.7000000476837","","image-keyboard-response","369","365025","0.0-369.0","3TYCR1GOTD5LD8CNR23TTBKLL74ZLD","AYW62R027PUT1","33K3E8REWWHZ7MUV5T1222MGO9NX8Q","","","img/flower1.png","76","1506.0999999046326","3","1","3","0.7,0.2,0,0,0.7,0.2,0.2,0,0.7",""
"null","","html-keyboard-response","370","365335","0.0-370.0","3TYCR1GOTD5LD8CNR23TTBKLL74ZLD","AYW62R027PUT1","33K3E8REWWHZ7MUV5T1222MGO9NX8Q","","","<img src=""img/flower1.png"" style=""width:200px; border:14px solid green;"">","null","","","","","",""
"1026.2999999523163","","image-keyboard-response","371","366362","0.0-371.0","3TYCR1GOTD5LD8CNR23TTBKLL74ZLD","AYW62R027PUT1","33K3E8REWWHZ7MUV5T1222MGO9NX8Q","","","img/flower5.png","74","1026.6000001430511","1","1","1","0.7,0.2,0,0,0.7,0.2,0.2,0,0.7",""
"null","","html-keyboard-response","372","366668","0.0-372.0","3TYCR1GOTD5LD8CNR23TTBKLL74ZLD","AYW62R027PUT1","33K3E8REWWHZ7MUV5T1222MGO9NX8Q","","","<img src=""img/flower5.png"" style=""width:200px; border:14px solid green;"">","null","","","","","",""
"1004.7000000476837","","image-keyboard-response","373","367674","0.0-373.0","3TYCR1GOTD5LD8CNR23TTBKLL74ZLD","AYW62R027PUT1","33K3E8REWWHZ7MUV5T1222MGO9NX8Q","","","img/flower1.png","76","1005.4000000953674","3","1","3","0.7,0.2,0,0,0.7,0.2,0.2,0,0.7",""
"null","","html-keyboard-response","374","367985","0.0-374.0","3TYCR1GOTD5LD8CNR23TTBKLL74ZLD","AYW62R027PUT1","33K3E8REWWHZ7MUV5T1222MGO9NX8Q","","","<img src=""img/flower1.png"" style=""width:200px; border:14px solid green;"">","null","","","","","",""
"823.5999999046326","","image-keyboard-response","375","368809","0.0-375.0","3TYCR1GOTD5LD8CNR23TTBKLL74ZLD","AYW62R027PUT1","33K3E8REWWHZ7MUV5T1222MGO9NX8Q","","","img/flower6.png","75","824.2999999523163","2","0","2","0.7,0.2,0,0,0.7,0.2,0.2,0,0.7",""
"null","","html-keyboard-response","376","369122","0.0-376.0","3TYCR1GOTD5LD8CNR23TTBKLL74ZLD","AYW62R027PUT1","33K3E8REWWHZ7MUV5T1222MGO9NX8Q","","","<img src=""img/flower6.png"" style=""width:200px;border:14px solid red;"">","null","","","","","",""
"919.5","","image-keyboard-response","377","370042","0.0-377.0","3TYCR1GOTD5LD8CNR23TTBKLL74ZLD","AYW62R027PUT1","33K3E8REWWHZ7MUV5T1222MGO9NX8Q","","","img/flower5.png","74","919.9000000953674","1","1","1","0.7,0.2,0,0,0.7,0.2,0.2,0,0.7",""
"null","","html-keyboard-response","378","370352","0.0-378.0","3TYCR1GOTD5LD8CNR23TTBKLL74ZLD","AYW62R027PUT1","33K3E8REWWHZ7MUV5T1222MGO9NX8Q","","","<img src=""img/flower5.png"" style=""width:200px; border:14px solid green;"">","null","","","","","",""
"872.5999999046326","","image-keyboard-response","379","371225","0.0-379.0","3TYCR1GOTD5LD8CNR23TTBKLL74ZLD","AYW62R027PUT1","33K3E8REWWHZ7MUV5T1222MGO9NX8Q","","","img/flower1.png","76","873.2000000476837","3","1","3","0.7,0.2,0,0,0.7,0.2,0.2,0,0.7",""
"null","","html-keyboard-response","380","371536","0.0-380.0","3TYCR1GOTD5LD8CNR23TTBKLL74ZLD","AYW62R027PUT1","33K3E8REWWHZ7MUV5T1222MGO9NX8Q","","","<img src=""img/flower1.png"" style=""width:200px; border:14px solid green;"">","null","","","","","",""
"504.59999990463257","","image-keyboard-response","381","372042","0.0-381.0","3TYCR1GOTD5LD8CNR23TTBKLL74ZLD","AYW62R027PUT1","33K3E8REWWHZ7MUV5T1222MGO9NX8Q","","","img/flower1.png","76","505.2000000476837","3","0","3","0.7,0.2,0,0,0.7,0.2,0.2,0,0.7",""
"null","","html-keyboard-response","382","372352","0.0-382.0","3TYCR1GOTD5LD8CNR23TTBKLL74ZLD","AYW62R027PUT1","33K3E8REWWHZ7MUV5T1222MGO9NX8Q","","","<img src=""img/flower1.png"" style=""width:200px;border:14px solid red;"">","null","","","","","",""
"512.5999999046326","","image-keyboard-response","383","372865","0.0-383.0","3TYCR1GOTD5LD8CNR23TTBKLL74ZLD","AYW62R027PUT1","33K3E8REWWHZ7MUV5T1222MGO9NX8Q","","","img/flower1.png","76","513.2000000476837","3","1","3","0.7,0.2,0,0,0.7,0.2,0.2,0,0.7",""
"null","","html-keyboard-response","384","373171","0.0-384.0","3TYCR1GOTD5LD8CNR23TTBKLL74ZLD","AYW62R027PUT1","33K3E8REWWHZ7MUV5T1222MGO9NX8Q","","","<img src=""img/flower1.png"" style=""width:200px; border:14px solid green;"">","null","","","","","",""
"846.3999998569489","","image-keyboard-response","385","374018","0.0-385.0","3TYCR1GOTD5LD8CNR23TTBKLL74ZLD","AYW62R027PUT1","33K3E8REWWHZ7MUV5T1222MGO9NX8Q","","","img/flower6.png","75","846.9000000953674","2","1","2","0.7,0.2,0,0,0.7,0.2,0.2,0,0.7",""
"null","","html-keyboard-response","386","374319","0.0-386.0","3TYCR1GOTD5LD8CNR23TTBKLL74ZLD","AYW62R027PUT1","33K3E8REWWHZ7MUV5T1222MGO9NX8Q","","","<img src=""img/flower6.png"" style=""width:200px; border:14px solid green;"">","null","","","","","",""
"777.1999998092651","","image-keyboard-response","387","375097","0.0-387.0","3TYCR1GOTD5LD8CNR23TTBKLL74ZLD","AYW62R027PUT1","33K3E8REWWHZ7MUV5T1222MGO9NX8Q","","","img/flower5.png","74","777.8000001907349","1","1","1","0.7,0.2,0,0,0.7,0.2,0.2,0,0.7",""
"null","","html-keyboard-response","388","375402","0.0-388.0","3TYCR1GOTD5LD8CNR23TTBKLL74ZLD","AYW62R027PUT1","33K3E8REWWHZ7MUV5T1222MGO9NX8Q","","","<img src=""img/flower5.png"" style=""width:200px; border:14px solid green;"">","null","","","","","",""
"1287","","image-keyboard-response","389","376690","0.0-389.0","3TYCR1GOTD5LD8CNR23TTBKLL74ZLD","AYW62R027PUT1","33K3E8REWWHZ7MUV5T1222MGO9NX8Q","","","img/flower6.png","75","1287.6000001430511","2","1","2","0.7,0.2,0,0,0.7,0.2,0.2,0,0.7",""
"null","","html-keyboard-response","390","376997","0.0-390.0","3TYCR1GOTD5LD8CNR23TTBKLL74ZLD","AYW62R027PUT1","33K3E8REWWHZ7MUV5T1222MGO9NX8Q","","","<img src=""img/flower6.png"" style=""width:200px; border:14px solid green;"">","null","","","","","",""
"819.7000000476837","","image-keyboard-response","391","377817","0.0-391.0","3TYCR1GOTD5LD8CNR23TTBKLL74ZLD","AYW62R027PUT1","33K3E8REWWHZ7MUV5T1222MGO9NX8Q","","","img/flower5.png","74","820.2999999523163","1","0","1","0.7,0.2,0,0,0.7,0.2,0.2,0,0.7",""
"null","","html-keyboard-response","392","378119","0.0-392.0","3TYCR1GOTD5LD8CNR23TTBKLL74ZLD","AYW62R027PUT1","33K3E8REWWHZ7MUV5T1222MGO9NX8Q","","","<img src=""img/flower5.png"" style=""width:200px;border:14px solid red;"">","null","","","","","",""
"689.7000000476837","","image-keyboard-response","393","378809","0.0-393.0","3TYCR1GOTD5LD8CNR23TTBKLL74ZLD","AYW62R027PUT1","33K3E8REWWHZ7MUV5T1222MGO9NX8Q","","","img/flower1.png","76","690.2999999523163","3","1","3","0.7,0.2,0,0,0.7,0.2,0.2,0,0.7",""
"null","","html-keyboard-response","394","379122","0.0-394.0","3TYCR1GOTD5LD8CNR23TTBKLL74ZLD","AYW62R027PUT1","33K3E8REWWHZ7MUV5T1222MGO9NX8Q","","","<img src=""img/flower1.png"" style=""width:200px; border:14px solid green;"">","null","","","","","",""
"462.90000009536743","","image-keyboard-response","395","379585","0.0-395.0","3TYCR1GOTD5LD8CNR23TTBKLL74ZLD","AYW62R027PUT1","33K3E8REWWHZ7MUV5T1222MGO9NX8Q","","","img/flower1.png","76","463.5","3","1","3","0.7,0.2,0,0,0.7,0.2,0.2,0,0.7",""
"null","","html-keyboard-response","396","379893","0.0-396.0","3TYCR1GOTD5LD8CNR23TTBKLL74ZLD","AYW62R027PUT1","33K3E8REWWHZ7MUV5T1222MGO9NX8Q","","","<img src=""img/flower1.png"" style=""width:200px; border:14px solid green;"">","null","","","","","",""
"899.6999998092651","","image-keyboard-response","397","380793","0.0-397.0","3TYCR1GOTD5LD8CNR23TTBKLL74ZLD","AYW62R027PUT1","33K3E8REWWHZ7MUV5T1222MGO9NX8Q","","","img/flower5.png","74","900.1000001430511","1","1","1","0.7,0.2,0,0,0.7,0.2,0.2,0,0.7",""
"null","","html-keyboard-response","398","381106","0.0-398.0","3TYCR1GOTD5LD8CNR23TTBKLL74ZLD","AYW62R027PUT1","33K3E8REWWHZ7MUV5T1222MGO9NX8Q","","","<img src=""img/flower5.png"" style=""width:200px; border:14px solid green;"">","null","","","","","",""
"390.7999999523163","","image-keyboard-response","399","381497","0.0-399.0","3TYCR1GOTD5LD8CNR23TTBKLL74ZLD","AYW62R027PUT1","33K3E8REWWHZ7MUV5T1222MGO9NX8Q","","","img/flower5.png","74","391.39999985694885","1","0","1","0.7,0.2,0,0,0.7,0.2,0.2,0,0.7",""
"null","","html-keyboard-response","400","381802","0.0-400.0","3TYCR1GOTD5LD8CNR23TTBKLL74ZLD","AYW62R027PUT1","33K3E8REWWHZ7MUV5T1222MGO9NX8Q","","","<img src=""img/flower5.png"" style=""width:200px;border:14px solid red;"">","null","","","","","",""
"934.6000001430511","","image-keyboard-response","401","382738","0.0-401.0","3TYCR1GOTD5LD8CNR23TTBKLL74ZLD","AYW62R027PUT1","33K3E8REWWHZ7MUV5T1222MGO9NX8Q","","","img/flower1.png","76","935.0999999046326","3","1","3","0.7,0.2,0,0,0.7,0.2,0.2,0,0.7",""
"null","","html-keyboard-response","402","383044","0.0-402.0","3TYCR1GOTD5LD8CNR23TTBKLL74ZLD","AYW62R027PUT1","33K3E8REWWHZ7MUV5T1222MGO9NX8Q","","","<img src=""img/flower1.png"" style=""width:200px; border:14px solid green;"">","null","","","","","",""
"820.7999999523163","","image-keyboard-response","403","383865","0.0-403.0","3TYCR1GOTD5LD8CNR23TTBKLL74ZLD","AYW62R027PUT1","33K3E8REWWHZ7MUV5T1222MGO9NX8Q","","","img/flower6.png","75","821.4000000953674","2","1","2","0.7,0.2,0,0,0.7,0.2,0.2,0,0.7",""
