"rt","url","trial_type","trial_index","time_elapsed","internal_node_id","assignmentID","mturkID","hitID","success","view_history","stimulus","key_press","reactionTime","a","r","s","reward_cond","responses"
"4561.5","consent.html","external-html","0","4632","0.0-0.0","3JRJSWSMQI76M9V2P9LGCFPMXF5E39","AZ8JL3QNIPY4U","37S0QRNUFB29SLTNXLPAM35NX0F88U","","","","","","","","","",""
"","","fullscreen","1","7677","0.0-1.0","3JRJSWSMQI76M9V2P9LGCFPMXF5E39","AZ8JL3QNIPY4U","37S0QRNUFB29SLTNXLPAM35NX0F88U","true","","","","","","","","",""
"37913.20000000112","","instructions","2","45591","0.0-2.0","3JRJSWSMQI76M9V2P9LGCFPMXF5E39","AZ8JL3QNIPY4U","37S0QRNUFB29SLTNXLPAM35NX0F88U","","[{""page_index"":0,""viewing_time"":2512.9000000003725},{""page_index"":1,""viewing_time"":5955.800000000745},{""page_index"":2,""viewing_time"":7776},{""page_index"":3,""viewing_time"":5691.5999999996275},{""page_index"":4,""viewing_time"":5212.0999999996275},{""page_index"":5,""viewing_time"":10764}]","","","","","","","",""
"11382.89999999851","","instructions","3","56975","0.0-3.0","3JRJSWSMQI76M9V2P9LGCFPMXF5E39","AZ8JL3QNIPY4U","37S0QRNUFB29SLTNXLPAM35NX0F88U","","[{""page_index"":0,""viewing_time"":11382.599999999627}]","","","","","","","",""
"1202.5","","image-keyboard-response","4","58179","0.0-4.0","3JRJSWSMQI76M9V2P9LGCFPMXF5E39","AZ8JL3QNIPY4U","37S0QRNUFB29SLTNXLPAM35NX0F88U","","","img/flower6.png","75","1203.7000000011176","2","0","3","",""
"null","","html-keyboard-response","5","58481","0.0-5.0","3JRJSWSMQI76M9V2P9LGCFPMXF5E39","AZ8JL3QNIPY4U","37S0QRNUFB29SLTNXLPAM35NX0F88U","","","<img src=""img/flower6.png"" style=""width:200px;border:14px solid red;"">","null","","","","","",""
"1512.300000000745","","image-keyboard-response","6","59995","0.0-6.0","3JRJSWSMQI76M9V2P9LGCFPMXF5E39","AZ8JL3QNIPY4U","37S0QRNUFB29SLTNXLPAM35NX0F88U","","","img/flower5.png","75","1513.0999999996275","2","1","2","",""
"null","","html-keyboard-response","7","60297","0.0-7.0","3JRJSWSMQI76M9V2P9LGCFPMXF5E39","AZ8JL3QNIPY4U","37S0QRNUFB29SLTNXLPAM35NX0F88U","","","<img src=""img/flower5.png"" style=""width:200px; border:14px solid green;"">","null","","","","","",""
"2592.300000000745","","image-keyboard-response","8","62891","0.0-8.0","3JRJSWSMQI76M9V2P9LGCFPMXF5E39","AZ8JL3QNIPY4U","37S0QRNUFB29SLTNXLPAM35NX0F88U","","","img/flower5.png","75","2593.0999999996275","2","1","2","",""
"null","","html-keyboard-response","9","63193","0.0-9.0","3JRJSWSMQI76M9V2P9LGCFPMXF5E39","AZ8JL3QNIPY4U","37S0QRNUFB29SLTNXLPAM35NX0F88U","","","<img src=""img/flower5.png"" style=""width:200px; border:14px solid green;"">","null","","","","","",""
"1809.1000000014901","","image-keyboard-response","10","65002","0.0-10.0","3JRJSWSMQI76M9V2P9LGCFPMXF5E39","AZ8JL3QNIPY4U","37S0QRNUFB29SLTNXLPAM35NX0F88U","","","img/flower5.png","75","1809.7999999988824","2","1","2","",""
"null","","html-keyboard-response","11","65305","0.0-11.0","3JRJSWSMQI76M9V2P9LGCFPMXF5E39","AZ8JL3QNIPY4U","37S0QRNUFB29SLTNXLPAM35NX0F88U","","","<img src=""img/flower5.png"" style=""width:200px; border:14px solid green;"">","null","","","","","",""
"888.4000000003725","","image-keyboard-response","12","66194","0.0-12.0","3JRJSWSMQI76M9V2P9LGCFPMXF5E39","AZ8JL3QNIPY4U","37S0QRNUFB29SLTNXLPAM35NX0F88U","","","img/flower4.png","74","889.2000000011176","1","1","1","",""
"null","","html-keyboard-response","13","66496","0.0-13.0","3JRJSWSMQI76M9V2P9LGCFPMXF5E39","AZ8JL3QNIPY4U","37S0QRNUFB29SLTNXLPAM35NX0F88U","","","<img src=""img/flower4.png"" style=""width:200px; border:14px solid green;"">","null","","","","","",""
"1099.5","","image-keyboard-response","14","67596","0.0-14.0","3JRJSWSMQI76M9V2P9LGCFPMXF5E39","AZ8JL3QNIPY4U","37S0QRNUFB29SLTNXLPAM35NX0F88U","","","img/flower4.png","74","1100.5","1","1","1","",""
"null","","html-keyboard-response","15","67898","0.0-15.0","3JRJSWSMQI76M9V2P9LGCFPMXF5E39","AZ8JL3QNIPY4U","37S0QRNUFB29SLTNXLPAM35NX0F88U","","","<img src=""img/flower4.png"" style=""width:200px; border:14px solid green;"">","null","","","","","",""
"647.5999999996275","","image-keyboard-response","16","68546","0.0-16.0","3JRJSWSMQI76M9V2P9LGCFPMXF5E39","AZ8JL3QNIPY4U","37S0QRNUFB29SLTNXLPAM35NX0F88U","","","img/flower6.png","76","648.5999999996275","3","0","3","",""
"null","","html-keyboard-response","17","68848","0.0-17.0","3JRJSWSMQI76M9V2P9LGCFPMXF5E39","AZ8JL3QNIPY4U","37S0QRNUFB29SLTNXLPAM35NX0F88U","","","<img src=""img/flower6.png"" style=""width:200px;border:14px solid red;"">","null","","","","","",""
"1313.9000000003725","","image-keyboard-response","18","70162","0.0-18.0","3JRJSWSMQI76M9V2P9LGCFPMXF5E39","AZ8JL3QNIPY4U","37S0QRNUFB29SLTNXLPAM35NX0F88U","","","img/flower6.png","76","1314.699999999255","3","0","3","",""
"null","","html-keyboard-response","19","70464","0.0-19.0","3JRJSWSMQI76M9V2P9LGCFPMXF5E39","AZ8JL3QNIPY4U","37S0QRNUFB29SLTNXLPAM35NX0F88U","","","<img src=""img/flower6.png"" style=""width:200px;border:14px solid red;"">","null","","","","","",""
"1313.8999999985099","","image-keyboard-response","20","71778","0.0-20.0","3JRJSWSMQI76M9V2P9LGCFPMXF5E39","AZ8JL3QNIPY4U","37S0QRNUFB29SLTNXLPAM35NX0F88U","","","img/flower5.png","75","1314.699999999255","2","0","2","",""
"null","","html-keyboard-response","21","72080","0.0-21.0","3JRJSWSMQI76M9V2P9LGCFPMXF5E39","AZ8JL3QNIPY4U","37S0QRNUFB29SLTNXLPAM35NX0F88U","","","<img src=""img/flower5.png"" style=""width:200px;border:14px solid red;"">","null","","","","","",""
"1121.5999999996275","","image-keyboard-response","22","73202","0.0-22.0","3JRJSWSMQI76M9V2P9LGCFPMXF5E39","AZ8JL3QNIPY4U","37S0QRNUFB29SLTNXLPAM35NX0F88U","","","img/flower5.png","75","1122.4000000003725","2","1","2","",""
"null","","html-keyboard-response","23","73503","0.0-23.0","3JRJSWSMQI76M9V2P9LGCFPMXF5E39","AZ8JL3QNIPY4U","37S0QRNUFB29SLTNXLPAM35NX0F88U","","","<img src=""img/flower5.png"" style=""width:200px; border:14px solid green;"">","null","","","","","",""
"994","","image-keyboard-response","24","74498","0.0-24.0","3JRJSWSMQI76M9V2P9LGCFPMXF5E39","AZ8JL3QNIPY4U","37S0QRNUFB29SLTNXLPAM35NX0F88U","","","img/flower4.png","74","994.7000000011176","1","1","1","",""
"null","","html-keyboard-response","25","74799","0.0-25.0","3JRJSWSMQI76M9V2P9LGCFPMXF5E39","AZ8JL3QNIPY4U","37S0QRNUFB29SLTNXLPAM35NX0F88U","","","<img src=""img/flower4.png"" style=""width:200px; border:14px solid green;"">","null","","","","","",""
"762.3000000007451","","image-keyboard-response","26","75562","0.0-26.0","3JRJSWSMQI76M9V2P9LGCFPMXF5E39","AZ8JL3QNIPY4U","37S0QRNUFB29SLTNXLPAM35NX0F88U","","","img/flower4.png","74","763","1","0","1","",""
"null","","html-keyboard-response","27","75863","0.0-27.0","3JRJSWSMQI76M9V2P9LGCFPMXF5E39","AZ8JL3QNIPY4U","37S0QRNUFB29SLTNXLPAM35NX0F88U","","","<img src=""img/flower4.png"" style=""width:200px;border:14px solid red;"">","null","","","","","",""
"1049.800000000745","","image-keyboard-response","28","76914","0.0-28.0","3JRJSWSMQI76M9V2P9LGCFPMXF5E39","AZ8JL3QNIPY4U","37S0QRNUFB29SLTNXLPAM35NX0F88U","","","img/flower4.png","74","1050.5999999996275","1","1","1","",""
"null","","html-keyboard-response","29","77216","0.0-29.0","3JRJSWSMQI76M9V2P9LGCFPMXF5E39","AZ8JL3QNIPY4U","37S0QRNUFB29SLTNXLPAM35NX0F88U","","","<img src=""img/flower4.png"" style=""width:200px; border:14px solid green;"">","null","","","","","",""
"713.5999999996275","","image-keyboard-response","30","77930","0.0-30.0","3JRJSWSMQI76M9V2P9LGCFPMXF5E39","AZ8JL3QNIPY4U","37S0QRNUFB29SLTNXLPAM35NX0F88U","","","img/flower6.png","76","714.3000000007451","3","0","3","",""
"null","","html-keyboard-response","31","78232","0.0-31.0","3JRJSWSMQI76M9V2P9LGCFPMXF5E39","AZ8JL3QNIPY4U","37S0QRNUFB29SLTNXLPAM35NX0F88U","","","<img src=""img/flower6.png"" style=""width:200px;border:14px solid red;"">","null","","","","","",""
"889.6999999992549","","image-keyboard-response","32","79122","0.0-32.0","3JRJSWSMQI76M9V2P9LGCFPMXF5E39","AZ8JL3QNIPY4U","37S0QRNUFB29SLTNXLPAM35NX0F88U","","","img/flower4.png","74","890.5","1","1","1","",""
"null","","html-keyboard-response","33","79424","0.0-33.0","3JRJSWSMQI76M9V2P9LGCFPMXF5E39","AZ8JL3QNIPY4U","37S0QRNUFB29SLTNXLPAM35NX0F88U","","","<img src=""img/flower4.png"" style=""width:200px; border:14px solid green;"">","null","","","","","",""
"593.7999999988824","","image-keyboard-response","34","80018","0.0-34.0","3JRJSWSMQI76M9V2P9LGCFPMXF5E39","AZ8JL3QNIPY4U","37S0QRNUFB29SLTNXLPAM35NX0F88U","","","img/flower6.png","76","594.4000000003725","3","1","3","",""
"null","","html-keyboard-response","35","80321","0.0-35.0","3JRJSWSMQI76M9V2P9LGCFPMXF5E39","AZ8JL3QNIPY4U","37S0QRNUFB29SLTNXLPAM35NX0F88U","","","<img src=""img/flower6.png"" style=""width:200px; border:14px solid green;"">","null","","","","","",""
"784.6999999992549","","image-keyboard-response","36","81106","0.0-36.0","3JRJSWSMQI76M9V2P9LGCFPMXF5E39","AZ8JL3QNIPY4U","37S0QRNUFB29SLTNXLPAM35NX0F88U","","","img/flower5.png","75","785.4000000003725","2","1","2","",""
"null","","html-keyboard-response","37","81409","0.0-37.0","3JRJSWSMQI76M9V2P9LGCFPMXF5E39","AZ8JL3QNIPY4U","37S0QRNUFB29SLTNXLPAM35NX0F88U","","","<img src=""img/flower5.png"" style=""width:200px; border:14px solid green;"">","null","","","","","",""
"697","","image-keyboard-response","38","82107","0.0-38.0","3JRJSWSMQI76M9V2P9LGCFPMXF5E39","AZ8JL3QNIPY4U","37S0QRNUFB29SLTNXLPAM35NX0F88U","","","img/flower6.png","76","697.9000000003725","3","1","3","",""
"null","","html-keyboard-response","39","82408","0.0-39.0","3JRJSWSMQI76M9V2P9LGCFPMXF5E39","AZ8JL3QNIPY4U","37S0QRNUFB29SLTNXLPAM35NX0F88U","","","<img src=""img/flower6.png"" style=""width:200px; border:14px solid green;"">","null","","","","","",""
"1361.5","","image-keyboard-response","40","83770","0.0-40.0","3JRJSWSMQI76M9V2P9LGCFPMXF5E39","AZ8JL3QNIPY4U","37S0QRNUFB29SLTNXLPAM35NX0F88U","","","img/flower6.png","76","1362.2999999988824","3","1","3","",""
"null","","html-keyboard-response","41","84072","0.0-41.0","3JRJSWSMQI76M9V2P9LGCFPMXF5E39","AZ8JL3QNIPY4U","37S0QRNUFB29SLTNXLPAM35NX0F88U","","","<img src=""img/flower6.png"" style=""width:200px; border:14px solid green;"">","null","","","","","",""
"809.5999999996275","","image-keyboard-response","42","84882","0.0-42.0","3JRJSWSMQI76M9V2P9LGCFPMXF5E39","AZ8JL3QNIPY4U","37S0QRNUFB29SLTNXLPAM35NX0F88U","","","img/flower6.png","76","810.4000000003725","3","1","3","",""
"null","","html-keyboard-response","43","85184","0.0-43.0","3JRJSWSMQI76M9V2P9LGCFPMXF5E39","AZ8JL3QNIPY4U","37S0QRNUFB29SLTNXLPAM35NX0F88U","","","<img src=""img/flower6.png"" style=""width:200px; border:14px solid green;"">","null","","","","","",""
"1105.800000000745","","image-keyboard-response","44","86290","0.0-44.0","3JRJSWSMQI76M9V2P9LGCFPMXF5E39","AZ8JL3QNIPY4U","37S0QRNUFB29SLTNXLPAM35NX0F88U","","","img/flower4.png","74","1106.5999999996275","1","1","1","",""
"null","","html-keyboard-response","45","86592","0.0-45.0","3JRJSWSMQI76M9V2P9LGCFPMXF5E39","AZ8JL3QNIPY4U","37S0QRNUFB29SLTNXLPAM35NX0F88U","","","<img src=""img/flower4.png"" style=""width:200px; border:14px solid green;"">","null","","","","","",""
"713.6999999992549","","image-keyboard-response","46","87306","0.0-46.0","3JRJSWSMQI76M9V2P9LGCFPMXF5E39","AZ8JL3QNIPY4U","37S0QRNUFB29SLTNXLPAM35NX0F88U","","","img/flower6.png","76","714.5","3","1","3","",""
"null","","html-keyboard-response","47","87608","0.0-47.0","3JRJSWSMQI76M9V2P9LGCFPMXF5E39","AZ8JL3QNIPY4U","37S0QRNUFB29SLTNXLPAM35NX0F88U","","","<img src=""img/flower6.png"" style=""width:200px; border:14px solid green;"">","null","","","","","",""
"537.5","","image-keyboard-response","48","88146","0.0-48.0","3JRJSWSMQI76M9V2P9LGCFPMXF5E39","AZ8JL3QNIPY4U","37S0QRNUFB29SLTNXLPAM35NX0F88U","","","img/flower5.png","75","538.4000000003725","2","1","2","",""
"null","","html-keyboard-response","49","88448","0.0-49.0","3JRJSWSMQI76M9V2P9LGCFPMXF5E39","AZ8JL3QNIPY4U","37S0QRNUFB29SLTNXLPAM35NX0F88U","","","<img src=""img/flower5.png"" style=""width:200px; border:14px solid green;"">","null","","","","","",""
"849.5","","image-keyboard-response","50","89298","0.0-50.0","3JRJSWSMQI76M9V2P9LGCFPMXF5E39","AZ8JL3QNIPY4U","37S0QRNUFB29SLTNXLPAM35NX0F88U","","","img/flower5.png","75","850.3000000007451","2","1","2","",""
"null","","html-keyboard-response","51","89600","0.0-51.0","3JRJSWSMQI76M9V2P9LGCFPMXF5E39","AZ8JL3QNIPY4U","37S0QRNUFB29SLTNXLPAM35NX0F88U","","","<img src=""img/flower5.png"" style=""width:200px; border:14px solid green;"">","null","","","","","",""
"625.6999999992549","","image-keyboard-response","52","90226","0.0-52.0","3JRJSWSMQI76M9V2P9LGCFPMXF5E39","AZ8JL3QNIPY4U","37S0QRNUFB29SLTNXLPAM35NX0F88U","","","img/flower5.png","75","626.5","2","1","2","",""
"null","","html-keyboard-response","53","90528","0.0-53.0","3JRJSWSMQI76M9V2P9LGCFPMXF5E39","AZ8JL3QNIPY4U","37S0QRNUFB29SLTNXLPAM35NX0F88U","","","<img src=""img/flower5.png"" style=""width:200px; border:14px solid green;"">","null","","","","","",""
"529.5999999996275","","image-keyboard-response","54","91058","0.0-54.0","3JRJSWSMQI76M9V2P9LGCFPMXF5E39","AZ8JL3QNIPY4U","37S0QRNUFB29SLTNXLPAM35NX0F88U","","","img/flower4.png","74","530.3999999985099","1","1","1","",""
"null","","html-keyboard-response","55","91360","0.0-55.0","3JRJSWSMQI76M9V2P9LGCFPMXF5E39","AZ8JL3QNIPY4U","37S0QRNUFB29SLTNXLPAM35NX0F88U","","","<img src=""img/flower4.png"" style=""width:200px; border:14px solid green;"">","null","","","","","",""
"569.4000000003725","","image-keyboard-response","56","91930","0.0-56.0","3JRJSWSMQI76M9V2P9LGCFPMXF5E39","AZ8JL3QNIPY4U","37S0QRNUFB29SLTNXLPAM35NX0F88U","","","img/flower4.png","74","570.3000000007451","1","1","1","",""
"null","","html-keyboard-response","57","92231","0.0-57.0","3JRJSWSMQI76M9V2P9LGCFPMXF5E39","AZ8JL3QNIPY4U","37S0QRNUFB29SLTNXLPAM35NX0F88U","","","<img src=""img/flower4.png"" style=""width:200px; border:14px solid green;"">","null","","","","","",""
"769.8999999985099","","image-keyboard-response","58","93002","0.0-58.0","3JRJSWSMQI76M9V2P9LGCFPMXF5E39","AZ8JL3QNIPY4U","37S0QRNUFB29SLTNXLPAM35NX0F88U","","","img/flower5.png","75","770.6999999992549","2","1","2","",""
"null","","html-keyboard-response","59","93303","0.0-59.0","3JRJSWSMQI76M9V2P9LGCFPMXF5E39","AZ8JL3QNIPY4U","37S0QRNUFB29SLTNXLPAM35NX0F88U","","","<img src=""img/flower5.png"" style=""width:200px; border:14px solid green;"">","null","","","","","",""
"497.8999999985099","","image-keyboard-response","60","93802","0.0-60.0","3JRJSWSMQI76M9V2P9LGCFPMXF5E39","AZ8JL3QNIPY4U","37S0QRNUFB29SLTNXLPAM35NX0F88U","","","img/flower6.png","76","498.6000000014901","3","1","3","",""
"null","","html-keyboard-response","61","94103","0.0-61.0","3JRJSWSMQI76M9V2P9LGCFPMXF5E39","AZ8JL3QNIPY4U","37S0QRNUFB29SLTNXLPAM35NX0F88U","","","<img src=""img/flower6.png"" style=""width:200px; border:14px solid green;"">","null","","","","","",""
"673.9000000022352","","image-keyboard-response","62","94778","0.0-62.0","3JRJSWSMQI76M9V2P9LGCFPMXF5E39","AZ8JL3QNIPY4U","37S0QRNUFB29SLTNXLPAM35NX0F88U","","","img/flower4.png","74","674.8000000007451","1","1","1","",""
"null","","html-keyboard-response","63","95080","0.0-63.0","3JRJSWSMQI76M9V2P9LGCFPMXF5E39","AZ8JL3QNIPY4U","37S0QRNUFB29SLTNXLPAM35NX0F88U","","","<img src=""img/flower4.png"" style=""width:200px; border:14px solid green;"">","null","","","","","",""
"8802.400000002235","","instructions","64","103883","0.0-64.0","3JRJSWSMQI76M9V2P9LGCFPMXF5E39","AZ8JL3QNIPY4U","37S0QRNUFB29SLTNXLPAM35NX0F88U","","[{""page_index"":0,""viewing_time"":3074.10000000149},{""page_index"":1,""viewing_time"":5727.89999999851}]","","","","","","","",""
"1222.5","","image-keyboard-response","65","105106","0.0-65.0","3JRJSWSMQI76M9V2P9LGCFPMXF5E39","AZ8JL3QNIPY4U","37S0QRNUFB29SLTNXLPAM35NX0F88U","","","img/flower5.png","75","1223.300000000745","2","1","2","",""
"null","","html-keyboard-response","66","105408","0.0-66.0","3JRJSWSMQI76M9V2P9LGCFPMXF5E39","AZ8JL3QNIPY4U","37S0QRNUFB29SLTNXLPAM35NX0F88U","","","<img src=""img/flower5.png"" style=""width:200px; border:14px solid green;"">","null","","","","","",""
"1049.300000000745","","image-keyboard-response","67","106458","0.0-67.0","3JRJSWSMQI76M9V2P9LGCFPMXF5E39","AZ8JL3QNIPY4U","37S0QRNUFB29SLTNXLPAM35NX0F88U","","","img/flower5.png","74","1050","1","0","2","",""
"null","","html-keyboard-response","68","106760","0.0-68.0","3JRJSWSMQI76M9V2P9LGCFPMXF5E39","AZ8JL3QNIPY4U","37S0QRNUFB29SLTNXLPAM35NX0F88U","","","<img src=""img/flower5.png"" style=""width:200px;border:14px solid red;"">","null","","","","","",""
"433.3999999985099","","image-keyboard-response","69","107194","0.0-69.0","3JRJSWSMQI76M9V2P9LGCFPMXF5E39","AZ8JL3QNIPY4U","37S0QRNUFB29SLTNXLPAM35NX0F88U","","","img/flower5.png","74","435.1000000014901","1","0","2","",""
"null","","html-keyboard-response","70","107496","0.0-70.0","3JRJSWSMQI76M9V2P9LGCFPMXF5E39","AZ8JL3QNIPY4U","37S0QRNUFB29SLTNXLPAM35NX0F88U","","","<img src=""img/flower5.png"" style=""width:200px;border:14px solid red;"">","null","","","","","",""
"288.5","","image-keyboard-response","71","107786","0.0-71.0","3JRJSWSMQI76M9V2P9LGCFPMXF5E39","AZ8JL3QNIPY4U","37S0QRNUFB29SLTNXLPAM35NX0F88U","","","img/flower5.png","75","289.29999999701977","2","0","2","",""
"null","","html-keyboard-response","72","108087","0.0-72.0","3JRJSWSMQI76M9V2P9LGCFPMXF5E39","AZ8JL3QNIPY4U","37S0QRNUFB29SLTNXLPAM35NX0F88U","","","<img src=""img/flower5.png"" style=""width:200px;border:14px solid red;"">","null","","","","","",""
"218.19999999925494","","image-keyboard-response","73","108306","0.0-73.0","3JRJSWSMQI76M9V2P9LGCFPMXF5E39","AZ8JL3QNIPY4U","37S0QRNUFB29SLTNXLPAM35NX0F88U","","","img/flower6.png","76","219.10000000149012","3","1","3","",""
"null","","html-keyboard-response","74","108607","0.0-74.0","3JRJSWSMQI76M9V2P9LGCFPMXF5E39","AZ8JL3QNIPY4U","37S0QRNUFB29SLTNXLPAM35NX0F88U","","","<img src=""img/flower6.png"" style=""width:200px; border:14px solid green;"">","null","","","","","",""
"1202.1000000014901","","image-keyboard-response","75","109810","0.0-75.0","3JRJSWSMQI76M9V2P9LGCFPMXF5E39","AZ8JL3QNIPY4U","37S0QRNUFB29SLTNXLPAM35NX0F88U","","","img/flower4.png","74","1203","1","0","1","",""
"null","","html-keyboard-response","76","110111","0.0-76.0","3JRJSWSMQI76M9V2P9LGCFPMXF5E39","AZ8JL3QNIPY4U","37S0QRNUFB29SLTNXLPAM35NX0F88U","","","<img src=""img/flower4.png"" style=""width:200px;border:14px solid red;"">","null","","","","","",""
"905.5","","image-keyboard-response","77","111018","0.0-77.0","3JRJSWSMQI76M9V2P9LGCFPMXF5E39","AZ8JL3QNIPY4U","37S0QRNUFB29SLTNXLPAM35NX0F88U","","","img/flower5.png","75","906.3999999985099","2","1","2","",""
"null","","html-keyboard-response","78","111319","0.0-78.0","3JRJSWSMQI76M9V2P9LGCFPMXF5E39","AZ8JL3QNIPY4U","37S0QRNUFB29SLTNXLPAM35NX0F88U","","","<img src=""img/flower5.png"" style=""width:200px; border:14px solid green;"">","null","","","","","",""
"953.8999999985099","","image-keyboard-response","79","112274","0.0-79.0","3JRJSWSMQI76M9V2P9LGCFPMXF5E39","AZ8JL3QNIPY4U","37S0QRNUFB29SLTNXLPAM35NX0F88U","","","img/flower6.png","76","954.8000000007451","3","1","3","",""
"null","","html-keyboard-response","80","112576","0.0-80.0","3JRJSWSMQI76M9V2P9LGCFPMXF5E39","AZ8JL3QNIPY4U","37S0QRNUFB29SLTNXLPAM35NX0F88U","","","<img src=""img/flower6.png"" style=""width:200px; border:14px solid green;"">","null","","","","","",""
"537.3000000007451","","image-keyboard-response","81","113114","0.0-81.0","3JRJSWSMQI76M9V2P9LGCFPMXF5E39","AZ8JL3QNIPY4U","37S0QRNUFB29SLTNXLPAM35NX0F88U","","","img/flower6.png","75","537.9000000022352","2","0","3","",""
"null","","html-keyboard-response","82","113415","0.0-82.0","3JRJSWSMQI76M9V2P9LGCFPMXF5E39","AZ8JL3QNIPY4U","37S0QRNUFB29SLTNXLPAM35NX0F88U","","","<img src=""img/flower6.png"" style=""width:200px;border:14px solid red;"">","null","","","","","",""
"186.09999999776483","","image-keyboard-response","83","113602","0.0-83.0","3JRJSWSMQI76M9V2P9LGCFPMXF5E39","AZ8JL3QNIPY4U","37S0QRNUFB29SLTNXLPAM35NX0F88U","","","img/flower4.png","75","186.79999999701977","2","0","1","",""
"null","","html-keyboard-response","84","113903","0.0-84.0","3JRJSWSMQI76M9V2P9LGCFPMXF5E39","AZ8JL3QNIPY4U","37S0QRNUFB29SLTNXLPAM35NX0F88U","","","<img src=""img/flower4.png"" style=""width:200px;border:14px solid red;"">","null","","","","","",""
"370.0999999977648","","image-keyboard-response","85","114274","0.0-85.0","3JRJSWSMQI76M9V2P9LGCFPMXF5E39","AZ8JL3QNIPY4U","37S0QRNUFB29SLTNXLPAM35NX0F88U","","","img/flower4.png","74","371","1","1","1","",""
"null","","html-keyboard-response","86","114577","0.0-86.0","3JRJSWSMQI76M9V2P9LGCFPMXF5E39","AZ8JL3QNIPY4U","37S0QRNUFB29SLTNXLPAM35NX0F88U","","","<img src=""img/flower4.png"" style=""width:200px; border:14px solid green;"">","null","","","","","",""
"671.8999999985099","","image-keyboard-response","87","115250","0.0-87.0","3JRJSWSMQI76M9V2P9LGCFPMXF5E39","AZ8JL3QNIPY4U","37S0QRNUFB29SLTNXLPAM35NX0F88U","","","img/flower5.png","75","672.6999999992549","2","1","2","",""
"null","","html-keyboard-response","88","115551","0.0-88.0","3JRJSWSMQI76M9V2P9LGCFPMXF5E39","AZ8JL3QNIPY4U","37S0QRNUFB29SLTNXLPAM35NX0F88U","","","<img src=""img/flower5.png"" style=""width:200px; border:14px solid green;"">","null","","","","","",""
"874.1999999992549","","image-keyboard-response","89","116426","0.0-89.0","3JRJSWSMQI76M9V2P9LGCFPMXF5E39","AZ8JL3QNIPY4U","37S0QRNUFB29SLTNXLPAM35NX0F88U","","","img/flower4.png","74","874.8999999985099","1","0","1","",""
"null","","html-keyboard-response","90","116728","0.0-90.0","3JRJSWSMQI76M9V2P9LGCFPMXF5E39","AZ8JL3QNIPY4U","37S0QRNUFB29SLTNXLPAM35NX0F88U","","","<img src=""img/flower4.png"" style=""width:200px;border:14px solid red;"">","null","","","","","",""
"289.19999999925494","","image-keyboard-response","91","117018","0.0-91.0","3JRJSWSMQI76M9V2P9LGCFPMXF5E39","AZ8JL3QNIPY4U","37S0QRNUFB29SLTNXLPAM35NX0F88U","","","img/flower6.png","74","289.8999999985099","1","1","3","",""
"null","","html-keyboard-response","92","117319","0.0-92.0","3JRJSWSMQI76M9V2P9LGCFPMXF5E39","AZ8JL3QNIPY4U","37S0QRNUFB29SLTNXLPAM35NX0F88U","","","<img src=""img/flower6.png"" style=""width:200px; border:14px solid green;"">","null","","","","","",""
"1858.0999999977648","","image-keyboard-response","93","119178","0.0-93.0","3JRJSWSMQI76M9V2P9LGCFPMXF5E39","AZ8JL3QNIPY4U","37S0QRNUFB29SLTNXLPAM35NX0F88U","","","img/flower4.png","74","1858.8999999985099","1","0","1","",""
"null","","html-keyboard-response","94","119480","0.0-94.0","3JRJSWSMQI76M9V2P9LGCFPMXF5E39","AZ8JL3QNIPY4U","37S0QRNUFB29SLTNXLPAM35NX0F88U","","","<img src=""img/flower4.png"" style=""width:200px;border:14px solid red;"">","null","","","","","",""
"737.1000000014901","","image-keyboard-response","95","120218","0.0-95.0","3JRJSWSMQI76M9V2P9LGCFPMXF5E39","AZ8JL3QNIPY4U","37S0QRNUFB29SLTNXLPAM35NX0F88U","","","img/flower4.png","74","738","1","0","1","",""
"null","","html-keyboard-response","96","120519","0.0-96.0","3JRJSWSMQI76M9V2P9LGCFPMXF5E39","AZ8JL3QNIPY4U","37S0QRNUFB29SLTNXLPAM35NX0F88U","","","<img src=""img/flower4.png"" style=""width:200px;border:14px solid red;"">","null","","","","","",""
"514.0999999977648","","image-keyboard-response","97","121034","0.0-97.0","3JRJSWSMQI76M9V2P9LGCFPMXF5E39","AZ8JL3QNIPY4U","37S0QRNUFB29SLTNXLPAM35NX0F88U","","","img/flower4.png","74","515","1","1","1","",""
"null","","html-keyboard-response","98","121336","0.0-98.0","3JRJSWSMQI76M9V2P9LGCFPMXF5E39","AZ8JL3QNIPY4U","37S0QRNUFB29SLTNXLPAM35NX0F88U","","","<img src=""img/flower4.png"" style=""width:200px; border:14px solid green;"">","null","","","","","",""
"576.8999999985099","","image-keyboard-response","99","121914","0.0-99.0","3JRJSWSMQI76M9V2P9LGCFPMXF5E39","AZ8JL3QNIPY4U","37S0QRNUFB29SLTNXLPAM35NX0F88U","","","img/flower5.png","75","577.6999999992549","2","1","2","",""
"null","","html-keyboard-response","100","122215","0.0-100.0","3JRJSWSMQI76M9V2P9LGCFPMXF5E39","AZ8JL3QNIPY4U","37S0QRNUFB29SLTNXLPAM35NX0F88U","","","<img src=""img/flower5.png"" style=""width:200px; border:14px solid green;"">","null","","","","","",""
"474.1000000014901","","image-keyboard-response","101","122690","0.0-101.0","3JRJSWSMQI76M9V2P9LGCFPMXF5E39","AZ8JL3QNIPY4U","37S0QRNUFB29SLTNXLPAM35NX0F88U","","","img/flower5.png","75","474.80000000074506","2","1","2","",""
"null","","html-keyboard-response","102","122992","0.0-102.0","3JRJSWSMQI76M9V2P9LGCFPMXF5E39","AZ8JL3QNIPY4U","37S0QRNUFB29SLTNXLPAM35NX0F88U","","","<img src=""img/flower5.png"" style=""width:200px; border:14px solid green;"">","null","","","","","",""
"508.3999999985099","","image-keyboard-response","103","123501","0.0-103.0","3JRJSWSMQI76M9V2P9LGCFPMXF5E39","AZ8JL3QNIPY4U","37S0QRNUFB29SLTNXLPAM35NX0F88U","","","img/flower6.png","76","509","3","1","3","",""
"null","","html-keyboard-response","104","123802","0.0-104.0","3JRJSWSMQI76M9V2P9LGCFPMXF5E39","AZ8JL3QNIPY4U","37S0QRNUFB29SLTNXLPAM35NX0F88U","","","<img src=""img/flower6.png"" style=""width:200px; border:14px solid green;"">","null","","","","","",""
"798.6999999992549","","image-keyboard-response","105","124602","0.0-105.0","3JRJSWSMQI76M9V2P9LGCFPMXF5E39","AZ8JL3QNIPY4U","37S0QRNUFB29SLTNXLPAM35NX0F88U","","","img/flower4.png","74","799.5","1","1","1","",""
"null","","html-keyboard-response","106","124903","0.0-106.0","3JRJSWSMQI76M9V2P9LGCFPMXF5E39","AZ8JL3QNIPY4U","37S0QRNUFB29SLTNXLPAM35NX0F88U","","","<img src=""img/flower4.png"" style=""width:200px; border:14px solid green;"">","null","","","","","",""
"337.5","","image-keyboard-response","107","125242","0.0-107.0","3JRJSWSMQI76M9V2P9LGCFPMXF5E39","AZ8JL3QNIPY4U","37S0QRNUFB29SLTNXLPAM35NX0F88U","","","img/flower4.png","74","338.1000000014901","1","1","1","",""
"null","","html-keyboard-response","108","125544","0.0-108.0","3JRJSWSMQI76M9V2P9LGCFPMXF5E39","AZ8JL3QNIPY4U","37S0QRNUFB29SLTNXLPAM35NX0F88U","","","<img src=""img/flower4.png"" style=""width:200px; border:14px solid green;"">","null","","","","","",""
"625.3999999985099","","image-keyboard-response","109","126170","0.0-109.0","3JRJSWSMQI76M9V2P9LGCFPMXF5E39","AZ8JL3QNIPY4U","37S0QRNUFB29SLTNXLPAM35NX0F88U","","","img/flower6.png","76","626.3000000007451","3","1","3","",""
"null","","html-keyboard-response","110","126471","0.0-110.0","3JRJSWSMQI76M9V2P9LGCFPMXF5E39","AZ8JL3QNIPY4U","37S0QRNUFB29SLTNXLPAM35NX0F88U","","","<img src=""img/flower6.png"" style=""width:200px; border:14px solid green;"">","null","","","","","",""
"337.80000000074506","","image-keyboard-response","111","126810","0.0-111.0","3JRJSWSMQI76M9V2P9LGCFPMXF5E39","AZ8JL3QNIPY4U","37S0QRNUFB29SLTNXLPAM35NX0F88U","","","img/flower6.png","76","338.70000000298023","3","1","3","",""
"null","","html-keyboard-response","112","127111","0.0-112.0","3JRJSWSMQI76M9V2P9LGCFPMXF5E39","AZ8JL3QNIPY4U","37S0QRNUFB29SLTNXLPAM35NX0F88U","","","<img src=""img/flower6.png"" style=""width:200px; border:14px solid green;"">","null","","","","","",""
"379","","image-keyboard-response","113","127491","0.0-113.0","3JRJSWSMQI76M9V2P9LGCFPMXF5E39","AZ8JL3QNIPY4U","37S0QRNUFB29SLTNXLPAM35NX0F88U","","","img/flower6.png","76","379.69999999925494","3","1","3","",""
"null","","html-keyboard-response","114","127792","0.0-114.0","3JRJSWSMQI76M9V2P9LGCFPMXF5E39","AZ8JL3QNIPY4U","37S0QRNUFB29SLTNXLPAM35NX0F88U","","","<img src=""img/flower6.png"" style=""width:200px; border:14px solid green;"">","null","","","","","",""
"665.1999999992549","","image-keyboard-response","115","128458","0.0-115.0","3JRJSWSMQI76M9V2P9LGCFPMXF5E39","AZ8JL3QNIPY4U","37S0QRNUFB29SLTNXLPAM35NX0F88U","","","img/flower4.png","74","665.9000000022352","1","1","1","",""
"null","","html-keyboard-response","116","128760","0.0-116.0","3JRJSWSMQI76M9V2P9LGCFPMXF5E39","AZ8JL3QNIPY4U","37S0QRNUFB29SLTNXLPAM35NX0F88U","","","<img src=""img/flower4.png"" style=""width:200px; border:14px solid green;"">","null","","","","","",""
"601.0999999977648","","image-keyboard-response","117","129362","0.0-117.0","3JRJSWSMQI76M9V2P9LGCFPMXF5E39","AZ8JL3QNIPY4U","37S0QRNUFB29SLTNXLPAM35NX0F88U","","","img/flower6.png","76","602","3","0","3","",""
"null","","html-keyboard-response","118","129663","0.0-118.0","3JRJSWSMQI76M9V2P9LGCFPMXF5E39","AZ8JL3QNIPY4U","37S0QRNUFB29SLTNXLPAM35NX0F88U","","","<img src=""img/flower6.png"" style=""width:200px;border:14px solid red;"">","null","","","","","",""
"369.80000000074506","","image-keyboard-response","119","130034","0.0-119.0","3JRJSWSMQI76M9V2P9LGCFPMXF5E39","AZ8JL3QNIPY4U","37S0QRNUFB29SLTNXLPAM35NX0F88U","","","img/flower6.png","76","370.6000000014901","3","1","3","",""
"null","","html-keyboard-response","120","130335","0.0-120.0","3JRJSWSMQI76M9V2P9LGCFPMXF5E39","AZ8JL3QNIPY4U","37S0QRNUFB29SLTNXLPAM35NX0F88U","","","<img src=""img/flower6.png"" style=""width:200px; border:14px solid green;"">","null","","","","","",""
"569.7999999970198","","image-keyboard-response","121","130906","0.0-121.0","3JRJSWSMQI76M9V2P9LGCFPMXF5E39","AZ8JL3QNIPY4U","37S0QRNUFB29SLTNXLPAM35NX0F88U","","","img/flower5.png","75","570.6999999992549","2","0","2","",""
"null","","html-keyboard-response","122","131207","0.0-122.0","3JRJSWSMQI76M9V2P9LGCFPMXF5E39","AZ8JL3QNIPY4U","37S0QRNUFB29SLTNXLPAM35NX0F88U","","","<img src=""img/flower5.png"" style=""width:200px;border:14px solid red;"">","null","","","","","",""
"1177.699999999255","","image-keyboard-response","123","132386","0.0-123.0","3JRJSWSMQI76M9V2P9LGCFPMXF5E39","AZ8JL3QNIPY4U","37S0QRNUFB29SLTNXLPAM35NX0F88U","","","img/flower5.png","75","1178.6000000014901","2","1","2","",""
"null","","html-keyboard-response","124","132687","0.0-124.0","3JRJSWSMQI76M9V2P9LGCFPMXF5E39","AZ8JL3QNIPY4U","37S0QRNUFB29SLTNXLPAM35NX0F88U","","","<img src=""img/flower5.png"" style=""width:200px; border:14px solid green;"">","null","","","","","",""
"1790.6000000014901","","instructions","125","134478","0.0-125.0","3JRJSWSMQI76M9V2P9LGCFPMXF5E39","AZ8JL3QNIPY4U","37S0QRNUFB29SLTNXLPAM35NX0F88U","","[{""page_index"":0,""viewing_time"":1790.199999999255}]","","","","","","","",""
"1514.5","","image-keyboard-response","126","135994","0.0-126.0","3JRJSWSMQI76M9V2P9LGCFPMXF5E39","AZ8JL3QNIPY4U","37S0QRNUFB29SLTNXLPAM35NX0F88U","","","img/flower5.png","75","1515.5","2","1","1","0.7,0.2,0,0.7,0,0.2,0.2,0,0.7",""
"null","","html-keyboard-response","127","136296","0.0-127.0","3JRJSWSMQI76M9V2P9LGCFPMXF5E39","AZ8JL3QNIPY4U","37S0QRNUFB29SLTNXLPAM35NX0F88U","","","<img src=""img/flower5.png"" style=""width:200px; border:14px solid green;"">","null","","","","","",""
"1585","","image-keyboard-response","128","137882","0.0-128.0","3JRJSWSMQI76M9V2P9LGCFPMXF5E39","AZ8JL3QNIPY4U","37S0QRNUFB29SLTNXLPAM35NX0F88U","","","img/flower2.png","74","1585.800000000745","1","1","2","0.7,0.2,0,0.7,0,0.2,0.2,0,0.7",""
"null","","html-keyboard-response","129","138183","0.0-129.0","3JRJSWSMQI76M9V2P9LGCFPMXF5E39","AZ8JL3QNIPY4U","37S0QRNUFB29SLTNXLPAM35NX0F88U","","","<img src=""img/flower2.png"" style=""width:200px; border:14px solid green;"">","null","","","","","",""
"561.5","","image-keyboard-response","130","138746","0.0-130.0","3JRJSWSMQI76M9V2P9LGCFPMXF5E39","AZ8JL3QNIPY4U","37S0QRNUFB29SLTNXLPAM35NX0F88U","","","img/flower2.png","74","562.3999999985099","1","1","2","0.7,0.2,0,0.7,0,0.2,0.2,0,0.7",""
"null","","html-keyboard-response","131","139047","0.0-131.0","3JRJSWSMQI76M9V2P9LGCFPMXF5E39","AZ8JL3QNIPY4U","37S0QRNUFB29SLTNXLPAM35NX0F88U","","","<img src=""img/flower2.png"" style=""width:200px; border:14px solid green;"">","null","","","","","",""
"377.80000000074506","","image-keyboard-response","132","139426","0.0-132.0","3JRJSWSMQI76M9V2P9LGCFPMXF5E39","AZ8JL3QNIPY4U","37S0QRNUFB29SLTNXLPAM35NX0F88U","","","img/flower2.png","74","378.69999999925494","1","1","2","0.7,0.2,0,0.7,0,0.2,0.2,0,0.7",""
"null","","html-keyboard-response","133","139728","0.0-133.0","3JRJSWSMQI76M9V2P9LGCFPMXF5E39","AZ8JL3QNIPY4U","37S0QRNUFB29SLTNXLPAM35NX0F88U","","","<img src=""img/flower2.png"" style=""width:200px; border:14px solid green;"">","null","","","","","",""
"817","","image-keyboard-response","134","140546","0.0-134.0","3JRJSWSMQI76M9V2P9LGCFPMXF5E39","AZ8JL3QNIPY4U","37S0QRNUFB29SLTNXLPAM35NX0F88U","","","img/flower6.png","76","817.8999999985099","3","1","3","0.7,0.2,0,0.7,0,0.2,0.2,0,0.7",""
"null","","html-keyboard-response","135","140848","0.0-135.0","3JRJSWSMQI76M9V2P9LGCFPMXF5E39","AZ8JL3QNIPY4U","37S0QRNUFB29SLTNXLPAM35NX0F88U","","","<img src=""img/flower6.png"" style=""width:200px; border:14px solid green;"">","null","","","","","",""
"1200.7999999970198","","image-keyboard-response","136","142050","0.0-136.0","3JRJSWSMQI76M9V2P9LGCFPMXF5E39","AZ8JL3QNIPY4U","37S0QRNUFB29SLTNXLPAM35NX0F88U","","","img/flower2.png","74","1201.9000000022352","1","0","2","0.7,0.2,0,0.7,0,0.2,0.2,0,0.7",""
"null","","html-keyboard-response","137","142351","0.0-137.0","3JRJSWSMQI76M9V2P9LGCFPMXF5E39","AZ8JL3QNIPY4U","37S0QRNUFB29SLTNXLPAM35NX0F88U","","","<img src=""img/flower2.png"" style=""width:200px;border:14px solid red;"">","null","","","","","",""
"1065.5999999977648","","image-keyboard-response","138","143418","0.0-138.0","3JRJSWSMQI76M9V2P9LGCFPMXF5E39","AZ8JL3QNIPY4U","37S0QRNUFB29SLTNXLPAM35NX0F88U","","","img/flower5.png","75","1066.3999999985099","2","0","1","0.7,0.2,0,0.7,0,0.2,0.2,0,0.7",""
"null","","html-keyboard-response","139","143719","0.0-139.0","3JRJSWSMQI76M9V2P9LGCFPMXF5E39","AZ8JL3QNIPY4U","37S0QRNUFB29SLTNXLPAM35NX0F88U","","","<img src=""img/flower5.png"" style=""width:200px;border:14px solid red;"">","null","","","","","",""
"649.5999999977648","","image-keyboard-response","140","144370","0.0-140.0","3JRJSWSMQI76M9V2P9LGCFPMXF5E39","AZ8JL3QNIPY4U","37S0QRNUFB29SLTNXLPAM35NX0F88U","","","img/flower6.png","76","650.5","3","1","3","0.7,0.2,0,0.7,0,0.2,0.2,0,0.7",""
"null","","html-keyboard-response","141","144671","0.0-141.0","3JRJSWSMQI76M9V2P9LGCFPMXF5E39","AZ8JL3QNIPY4U","37S0QRNUFB29SLTNXLPAM35NX0F88U","","","<img src=""img/flower6.png"" style=""width:200px; border:14px solid green;"">","null","","","","","",""
"985.5","","image-keyboard-response","142","145658","0.0-142.0","3JRJSWSMQI76M9V2P9LGCFPMXF5E39","AZ8JL3QNIPY4U","37S0QRNUFB29SLTNXLPAM35NX0F88U","","","img/flower2.png","74","986.3000000007451","1","1","2","0.7,0.2,0,0.7,0,0.2,0.2,0,0.7",""
"null","","html-keyboard-response","143","145959","0.0-143.0","3JRJSWSMQI76M9V2P9LGCFPMXF5E39","AZ8JL3QNIPY4U","37S0QRNUFB29SLTNXLPAM35NX0F88U","","","<img src=""img/flower2.png"" style=""width:200px; border:14px solid green;"">","null","","","","","",""
"761.5","","image-keyboard-response","144","146722","0.0-144.0","3JRJSWSMQI76M9V2P9LGCFPMXF5E39","AZ8JL3QNIPY4U","37S0QRNUFB29SLTNXLPAM35NX0F88U","","","img/flower5.png","75","762.3000000007451","2","0","1","0.7,0.2,0,0.7,0,0.2,0.2,0,0.7",""
"null","","html-keyboard-response","145","147024","0.0-145.0","3JRJSWSMQI76M9V2P9LGCFPMXF5E39","AZ8JL3QNIPY4U","37S0QRNUFB29SLTNXLPAM35NX0F88U","","","<img src=""img/flower5.png"" style=""width:200px;border:14px solid red;"">","null","","","","","",""
"408.9000000022352","","image-keyboard-response","146","147434","0.0-146.0","3JRJSWSMQI76M9V2P9LGCFPMXF5E39","AZ8JL3QNIPY4U","37S0QRNUFB29SLTNXLPAM35NX0F88U","","","img/flower5.png","75","409.79999999701977","2","0","1","0.7,0.2,0,0.7,0,0.2,0.2,0,0.7",""
"null","","html-keyboard-response","147","147735","0.0-147.0","3JRJSWSMQI76M9V2P9LGCFPMXF5E39","AZ8JL3QNIPY4U","37S0QRNUFB29SLTNXLPAM35NX0F88U","","","<img src=""img/flower5.png"" style=""width:200px;border:14px solid red;"">","null","","","","","",""
"945.6999999992549","","image-keyboard-response","148","148682","0.0-148.0","3JRJSWSMQI76M9V2P9LGCFPMXF5E39","AZ8JL3QNIPY4U","37S0QRNUFB29SLTNXLPAM35NX0F88U","","","img/flower2.png","74","946.3999999985099","1","1","2","0.7,0.2,0,0.7,0,0.2,0.2,0,0.7",""
"null","","html-keyboard-response","149","148984","0.0-149.0","3JRJSWSMQI76M9V2P9LGCFPMXF5E39","AZ8JL3QNIPY4U","37S0QRNUFB29SLTNXLPAM35NX0F88U","","","<img src=""img/flower2.png"" style=""width:200px; border:14px solid green;"">","null","","","","","",""
"513.8999999985099","","image-keyboard-response","150","149499","0.0-150.0","3JRJSWSMQI76M9V2P9LGCFPMXF5E39","AZ8JL3QNIPY4U","37S0QRNUFB29SLTNXLPAM35NX0F88U","","","img/flower2.png","74","514.8999999985099","1","1","2","0.7,0.2,0,0.7,0,0.2,0.2,0,0.7",""
"null","","html-keyboard-response","151","149801","0.0-151.0","3JRJSWSMQI76M9V2P9LGCFPMXF5E39","AZ8JL3QNIPY4U","37S0QRNUFB29SLTNXLPAM35NX0F88U","","","<img src=""img/flower2.png"" style=""width:200px; border:14px solid green;"">","null","","","","","",""
"359.3999999985099","","image-keyboard-response","152","150161","0.0-152.0","3JRJSWSMQI76M9V2P9LGCFPMXF5E39","AZ8JL3QNIPY4U","37S0QRNUFB29SLTNXLPAM35NX0F88U","","","img/flower2.png","74","360.30000000074506","1","0","2","0.7,0.2,0,0.7,0,0.2,0.2,0,0.7",""
"null","","html-keyboard-response","153","150463","0.0-153.0","3JRJSWSMQI76M9V2P9LGCFPMXF5E39","AZ8JL3QNIPY4U","37S0QRNUFB29SLTNXLPAM35NX0F88U","","","<img src=""img/flower2.png"" style=""width:200px;border:14px solid red;"">","null","","","","","",""
"729.9000000022352","","image-keyboard-response","154","151194","0.0-154.0","3JRJSWSMQI76M9V2P9LGCFPMXF5E39","AZ8JL3QNIPY4U","37S0QRNUFB29SLTNXLPAM35NX0F88U","","","img/flower6.png","76","730.6999999992549","3","1","3","0.7,0.2,0,0.7,0,0.2,0.2,0,0.7",""
"null","","html-keyboard-response","155","151496","0.0-155.0","3JRJSWSMQI76M9V2P9LGCFPMXF5E39","AZ8JL3QNIPY4U","37S0QRNUFB29SLTNXLPAM35NX0F88U","","","<img src=""img/flower6.png"" style=""width:200px; border:14px solid green;"">","null","","","","","",""
"688.6000000014901","","image-keyboard-response","156","152185","0.0-156.0","3JRJSWSMQI76M9V2P9LGCFPMXF5E39","AZ8JL3QNIPY4U","37S0QRNUFB29SLTNXLPAM35NX0F88U","","","img/flower2.png","74","689.4000000022352","1","1","2","0.7,0.2,0,0.7,0,0.2,0.2,0,0.7",""
"null","","html-keyboard-response","157","152486","0.0-157.0","3JRJSWSMQI76M9V2P9LGCFPMXF5E39","AZ8JL3QNIPY4U","37S0QRNUFB29SLTNXLPAM35NX0F88U","","","<img src=""img/flower2.png"" style=""width:200px; border:14px solid green;"">","null","","","","","",""
"610.3000000007451","","image-keyboard-response","158","153098","0.0-158.0","3JRJSWSMQI76M9V2P9LGCFPMXF5E39","AZ8JL3QNIPY4U","37S0QRNUFB29SLTNXLPAM35NX0F88U","","","img/flower6.png","76","611.1000000014901","3","1","3","0.7,0.2,0,0.7,0,0.2,0.2,0,0.7",""
"null","","html-keyboard-response","159","153399","0.0-159.0","3JRJSWSMQI76M9V2P9LGCFPMXF5E39","AZ8JL3QNIPY4U","37S0QRNUFB29SLTNXLPAM35NX0F88U","","","<img src=""img/flower6.png"" style=""width:200px; border:14px solid green;"">","null","","","","","",""
"914","","image-keyboard-response","160","154313","0.0-160.0","3JRJSWSMQI76M9V2P9LGCFPMXF5E39","AZ8JL3QNIPY4U","37S0QRNUFB29SLTNXLPAM35NX0F88U","","","img/flower5.png","74","914.8000000007451","1","1","1","0.7,0.2,0,0.7,0,0.2,0.2,0,0.7",""
"null","","html-keyboard-response","161","154614","0.0-161.0","3JRJSWSMQI76M9V2P9LGCFPMXF5E39","AZ8JL3QNIPY4U","37S0QRNUFB29SLTNXLPAM35NX0F88U","","","<img src=""img/flower5.png"" style=""width:200px; border:14px solid green;"">","null","","","","","",""
"688.6000000014901","","image-keyboard-response","162","155304","0.0-162.0","3JRJSWSMQI76M9V2P9LGCFPMXF5E39","AZ8JL3QNIPY4U","37S0QRNUFB29SLTNXLPAM35NX0F88U","","","img/flower2.png","74","689.5","1","0","2","0.7,0.2,0,0.7,0,0.2,0.2,0,0.7",""
"null","","html-keyboard-response","163","155606","0.0-163.0","3JRJSWSMQI76M9V2P9LGCFPMXF5E39","AZ8JL3QNIPY4U","37S0QRNUFB29SLTNXLPAM35NX0F88U","","","<img src=""img/flower2.png"" style=""width:200px;border:14px solid red;"">","null","","","","","",""
"674.8000000007451","","image-keyboard-response","164","156282","0.0-164.0","3JRJSWSMQI76M9V2P9LGCFPMXF5E39","AZ8JL3QNIPY4U","37S0QRNUFB29SLTNXLPAM35NX0F88U","","","img/flower5.png","74","675.6000000014901","1","1","1","0.7,0.2,0,0.7,0,0.2,0.2,0,0.7",""
"null","","html-keyboard-response","165","156583","0.0-165.0","3JRJSWSMQI76M9V2P9LGCFPMXF5E39","AZ8JL3QNIPY4U","37S0QRNUFB29SLTNXLPAM35NX0F88U","","","<img src=""img/flower5.png"" style=""width:200px; border:14px solid green;"">","null","","","","","",""
"714.1000000014901","","image-keyboard-response","166","157298","0.0-166.0","3JRJSWSMQI76M9V2P9LGCFPMXF5E39","AZ8JL3QNIPY4U","37S0QRNUFB29SLTNXLPAM35NX0F88U","","","img/flower6.png","76","715","3","1","3","0.7,0.2,0,0.7,0,0.2,0.2,0,0.7",""
"null","","html-keyboard-response","167","157599","0.0-167.0","3JRJSWSMQI76M9V2P9LGCFPMXF5E39","AZ8JL3QNIPY4U","37S0QRNUFB29SLTNXLPAM35NX0F88U","","","<img src=""img/flower6.png"" style=""width:200px; border:14px solid green;"">","null","","","","","",""
"625.8000000007451","","image-keyboard-response","168","158226","0.0-168.0","3JRJSWSMQI76M9V2P9LGCFPMXF5E39","AZ8JL3QNIPY4U","37S0QRNUFB29SLTNXLPAM35NX0F88U","","","img/flower2.png","74","626.6999999992549","1","1","2","0.7,0.2,0,0.7,0,0.2,0.2,0,0.7",""
"null","","html-keyboard-response","169","158527","0.0-169.0","3JRJSWSMQI76M9V2P9LGCFPMXF5E39","AZ8JL3QNIPY4U","37S0QRNUFB29SLTNXLPAM35NX0F88U","","","<img src=""img/flower2.png"" style=""width:200px; border:14px solid green;"">","null","","","","","",""
"521.5","","image-keyboard-response","170","159049","0.0-170.0","3JRJSWSMQI76M9V2P9LGCFPMXF5E39","AZ8JL3QNIPY4U","37S0QRNUFB29SLTNXLPAM35NX0F88U","","","img/flower2.png","74","522.3000000007451","1","1","2","0.7,0.2,0,0.7,0,0.2,0.2,0,0.7",""
"null","","html-keyboard-response","171","159351","0.0-171.0","3JRJSWSMQI76M9V2P9LGCFPMXF5E39","AZ8JL3QNIPY4U","37S0QRNUFB29SLTNXLPAM35NX0F88U","","","<img src=""img/flower2.png"" style=""width:200px; border:14px solid green;"">","null","","","","","",""
"825.5","","image-keyboard-response","172","160177","0.0-172.0","3JRJSWSMQI76M9V2P9LGCFPMXF5E39","AZ8JL3QNIPY4U","37S0QRNUFB29SLTNXLPAM35NX0F88U","","","img/flower6.png","76","826.1000000014901","3","1","3","0.7,0.2,0,0.7,0,0.2,0.2,0,0.7",""
"null","","html-keyboard-response","173","160479","0.0-173.0","3JRJSWSMQI76M9V2P9LGCFPMXF5E39","AZ8JL3QNIPY4U","37S0QRNUFB29SLTNXLPAM35NX0F88U","","","<img src=""img/flower6.png"" style=""width:200px; border:14px solid green;"">","null","","","","","",""
"585.6000000014901","","image-keyboard-response","174","161065","0.0-174.0","3JRJSWSMQI76M9V2P9LGCFPMXF5E39","AZ8JL3QNIPY4U","37S0QRNUFB29SLTNXLPAM35NX0F88U","","","img/flower5.png","74","586.1999999992549","1","1","1","0.7,0.2,0,0.7,0,0.2,0.2,0,0.7",""
"null","","html-keyboard-response","175","161367","0.0-175.0","3JRJSWSMQI76M9V2P9LGCFPMXF5E39","AZ8JL3QNIPY4U","37S0QRNUFB29SLTNXLPAM35NX0F88U","","","<img src=""img/flower5.png"" style=""width:200px; border:14px solid green;"">","null","","","","","",""
"417.3999999985099","","image-keyboard-response","176","161785","0.0-176.0","3JRJSWSMQI76M9V2P9LGCFPMXF5E39","AZ8JL3QNIPY4U","37S0QRNUFB29SLTNXLPAM35NX0F88U","","","img/flower5.png","74","418.1000000014901","1","1","1","0.7,0.2,0,0.7,0,0.2,0.2,0,0.7",""
"null","","html-keyboard-response","177","162088","0.0-177.0","3JRJSWSMQI76M9V2P9LGCFPMXF5E39","AZ8JL3QNIPY4U","37S0QRNUFB29SLTNXLPAM35NX0F88U","","","<img src=""img/flower5.png"" style=""width:200px; border:14px solid green;"">","null","","","","","",""
"776.6000000014901","","image-keyboard-response","178","162865","0.0-178.0","3JRJSWSMQI76M9V2P9LGCFPMXF5E39","AZ8JL3QNIPY4U","37S0QRNUFB29SLTNXLPAM35NX0F88U","","","img/flower6.png","76","777.3000000007451","3","1","3","0.7,0.2,0,0.7,0,0.2,0.2,0,0.7",""
"null","","html-keyboard-response","179","163167","0.0-179.0","3JRJSWSMQI76M9V2P9LGCFPMXF5E39","AZ8JL3QNIPY4U","37S0QRNUFB29SLTNXLPAM35NX0F88U","","","<img src=""img/flower6.png"" style=""width:200px; border:14px solid green;"">","null","","","","","",""
"393.5","","image-keyboard-response","180","163561","0.0-180.0","3JRJSWSMQI76M9V2P9LGCFPMXF5E39","AZ8JL3QNIPY4U","37S0QRNUFB29SLTNXLPAM35NX0F88U","","","img/flower6.png","76","394.30000000074506","3","1","3","0.7,0.2,0,0.7,0,0.2,0.2,0,0.7",""
"null","","html-keyboard-response","181","163863","0.0-181.0","3JRJSWSMQI76M9V2P9LGCFPMXF5E39","AZ8JL3QNIPY4U","37S0QRNUFB29SLTNXLPAM35NX0F88U","","","<img src=""img/flower6.png"" style=""width:200px; border:14px solid green;"">","null","","","","","",""
"1113.5","","image-keyboard-response","182","164977","0.0-182.0","3JRJSWSMQI76M9V2P9LGCFPMXF5E39","AZ8JL3QNIPY4U","37S0QRNUFB29SLTNXLPAM35NX0F88U","","","img/flower5.png","74","1114.300000000745","1","1","1","0.7,0.2,0,0.7,0,0.2,0.2,0,0.7",""
"null","","html-keyboard-response","183","165278","0.0-183.0","3JRJSWSMQI76M9V2P9LGCFPMXF5E39","AZ8JL3QNIPY4U","37S0QRNUFB29SLTNXLPAM35NX0F88U","","","<img src=""img/flower5.png"" style=""width:200px; border:14px solid green;"">","null","","","","","",""
"586.4000000022352","","image-keyboard-response","184","165865","0.0-184.0","3JRJSWSMQI76M9V2P9LGCFPMXF5E39","AZ8JL3QNIPY4U","37S0QRNUFB29SLTNXLPAM35NX0F88U","","","img/flower6.png","76","587.1999999992549","3","1","3","0.7,0.2,0,0.7,0,0.2,0.2,0,0.7",""
"null","","html-keyboard-response","185","166167","0.0-185.0","3JRJSWSMQI76M9V2P9LGCFPMXF5E39","AZ8JL3QNIPY4U","37S0QRNUFB29SLTNXLPAM35NX0F88U","","","<img src=""img/flower6.png"" style=""width:200px; border:14px solid green;"">","null","","","","","",""
"353.30000000074506","","image-keyboard-response","186","166521","0.0-186.0","3JRJSWSMQI76M9V2P9LGCFPMXF5E39","AZ8JL3QNIPY4U","37S0QRNUFB29SLTNXLPAM35NX0F88U","","","img/flower6.png","76","354","3","1","3","0.7,0.2,0,0.7,0,0.2,0.2,0,0.7",""
"null","","html-keyboard-response","187","166823","0.0-187.0","3JRJSWSMQI76M9V2P9LGCFPMXF5E39","AZ8JL3QNIPY4U","37S0QRNUFB29SLTNXLPAM35NX0F88U","","","<img src=""img/flower6.png"" style=""width:200px; border:14px solid green;"">","null","","","","","",""
"673.8000000007451","","image-keyboard-response","188","167497","0.0-188.0","3JRJSWSMQI76M9V2P9LGCFPMXF5E39","AZ8JL3QNIPY4U","37S0QRNUFB29SLTNXLPAM35NX0F88U","","","img/flower5.png","74","674.6000000014901","1","0","1","0.7,0.2,0,0.7,0,0.2,0.2,0,0.7",""
"null","","html-keyboard-response","189","167798","0.0-189.0","3JRJSWSMQI76M9V2P9LGCFPMXF5E39","AZ8JL3QNIPY4U","37S0QRNUFB29SLTNXLPAM35NX0F88U","","","<img src=""img/flower5.png"" style=""width:200px;border:14px solid red;"">","null","","","","","",""
"546.1000000014901","","image-keyboard-response","190","168345","0.0-190.0","3JRJSWSMQI76M9V2P9LGCFPMXF5E39","AZ8JL3QNIPY4U","37S0QRNUFB29SLTNXLPAM35NX0F88U","","","img/flower5.png","74","546.9000000022352","1","1","1","0.7,0.2,0,0.7,0,0.2,0.2,0,0.7",""
"null","","html-keyboard-response","191","168647","0.0-191.0","3JRJSWSMQI76M9V2P9LGCFPMXF5E39","AZ8JL3QNIPY4U","37S0QRNUFB29SLTNXLPAM35NX0F88U","","","<img src=""img/flower5.png"" style=""width:200px; border:14px solid green;"">","null","","","","","",""
"553.4000000022352","","image-keyboard-response","192","169201","0.0-192.0","3JRJSWSMQI76M9V2P9LGCFPMXF5E39","AZ8JL3QNIPY4U","37S0QRNUFB29SLTNXLPAM35NX0F88U","","","img/flower2.png","74","554","1","1","2","0.7,0.2,0,0.7,0,0.2,0.2,0,0.7",""
"null","","html-keyboard-response","193","169503","0.0-193.0","3JRJSWSMQI76M9V2P9LGCFPMXF5E39","AZ8JL3QNIPY4U","37S0QRNUFB29SLTNXLPAM35NX0F88U","","","<img src=""img/flower2.png"" style=""width:200px; border:14px solid green;"">","null","","","","","",""
"329.80000000074506","","image-keyboard-response","194","169833","0.0-194.0","3JRJSWSMQI76M9V2P9LGCFPMXF5E39","AZ8JL3QNIPY4U","37S0QRNUFB29SLTNXLPAM35NX0F88U","","","img/flower2.png","74","330.4000000022352","1","1","2","0.7,0.2,0,0.7,0,0.2,0.2,0,0.7",""
"null","","html-keyboard-response","195","170135","0.0-195.0","3JRJSWSMQI76M9V2P9LGCFPMXF5E39","AZ8JL3QNIPY4U","37S0QRNUFB29SLTNXLPAM35NX0F88U","","","<img src=""img/flower2.png"" style=""width:200px; border:14px solid green;"">","null","","","","","",""
"713.1999999992549","","image-keyboard-response","196","170849","0.0-196.0","3JRJSWSMQI76M9V2P9LGCFPMXF5E39","AZ8JL3QNIPY4U","37S0QRNUFB29SLTNXLPAM35NX0F88U","","","img/flower6.png","76","713.8999999985099","3","1","3","0.7,0.2,0,0.7,0,0.2,0.2,0,0.7",""
"null","","html-keyboard-response","197","171150","0.0-197.0","3JRJSWSMQI76M9V2P9LGCFPMXF5E39","AZ8JL3QNIPY4U","37S0QRNUFB29SLTNXLPAM35NX0F88U","","","<img src=""img/flower6.png"" style=""width:200px; border:14px solid green;"">","null","","","","","",""
"370.80000000074506","","image-keyboard-response","198","171522","0.0-198.0","3JRJSWSMQI76M9V2P9LGCFPMXF5E39","AZ8JL3QNIPY4U","37S0QRNUFB29SLTNXLPAM35NX0F88U","","","img/flower6.png","76","371.5","3","1","3","0.7,0.2,0,0.7,0,0.2,0.2,0,0.7",""
"null","","html-keyboard-response","199","171823","0.0-199.0","3JRJSWSMQI76M9V2P9LGCFPMXF5E39","AZ8JL3QNIPY4U","37S0QRNUFB29SLTNXLPAM35NX0F88U","","","<img src=""img/flower6.png"" style=""width:200px; border:14px solid green;"">","null","","","","","",""
"362","","image-keyboard-response","200","172185","0.0-200.0","3JRJSWSMQI76M9V2P9LGCFPMXF5E39","AZ8JL3QNIPY4U","37S0QRNUFB29SLTNXLPAM35NX0F88U","","","img/flower6.png","76","362.5999999977648","3","1","3","0.7,0.2,0,0.7,0,0.2,0.2,0,0.7",""
"null","","html-keyboard-response","201","172486","0.0-201.0","3JRJSWSMQI76M9V2P9LGCFPMXF5E39","AZ8JL3QNIPY4U","37S0QRNUFB29SLTNXLPAM35NX0F88U","","","<img src=""img/flower6.png"" style=""width:200px; border:14px solid green;"">","null","","","","","",""
"321.70000000298023","","image-keyboard-response","202","172809","0.0-202.0","3JRJSWSMQI76M9V2P9LGCFPMXF5E39","AZ8JL3QNIPY4U","37S0QRNUFB29SLTNXLPAM35NX0F88U","","","img/flower6.png","76","322.5","3","0","3","0.7,0.2,0,0.7,0,0.2,0.2,0,0.7",""
"null","","html-keyboard-response","203","173111","0.0-203.0","3JRJSWSMQI76M9V2P9LGCFPMXF5E39","AZ8JL3QNIPY4U","37S0QRNUFB29SLTNXLPAM35NX0F88U","","","<img src=""img/flower6.png"" style=""width:200px;border:14px solid red;"">","null","","","","","",""
"561.6999999992549","","image-keyboard-response","204","173673","0.0-204.0","3JRJSWSMQI76M9V2P9LGCFPMXF5E39","AZ8JL3QNIPY4U","37S0QRNUFB29SLTNXLPAM35NX0F88U","","","img/flower2.png","74","562.3999999985099","1","1","2","0.7,0.2,0,0.7,0,0.2,0.2,0,0.7",""
"null","","html-keyboard-response","205","173974","0.0-205.0","3JRJSWSMQI76M9V2P9LGCFPMXF5E39","AZ8JL3QNIPY4U","37S0QRNUFB29SLTNXLPAM35NX0F88U","","","<img src=""img/flower2.png"" style=""width:200px; border:14px solid green;"">","null","","","","","",""
"826.3000000007451","","image-keyboard-response","206","174801","0.0-206.0","3JRJSWSMQI76M9V2P9LGCFPMXF5E39","AZ8JL3QNIPY4U","37S0QRNUFB29SLTNXLPAM35NX0F88U","","","img/flower5.png","74","827","1","1","1","0.7,0.2,0,0.7,0,0.2,0.2,0,0.7",""
"null","","html-keyboard-response","207","175103","0.0-207.0","3JRJSWSMQI76M9V2P9LGCFPMXF5E39","AZ8JL3QNIPY4U","37S0QRNUFB29SLTNXLPAM35NX0F88U","","","<img src=""img/flower5.png"" style=""width:200px; border:14px solid green;"">","null","","","","","",""
"313.8999999985099","","image-keyboard-response","208","175417","0.0-208.0","3JRJSWSMQI76M9V2P9LGCFPMXF5E39","AZ8JL3QNIPY4U","37S0QRNUFB29SLTNXLPAM35NX0F88U","","","img/flower5.png","74","314.5","1","1","1","0.7,0.2,0,0.7,0,0.2,0.2,0,0.7",""
"null","","html-keyboard-response","209","175718","0.0-209.0","3JRJSWSMQI76M9V2P9LGCFPMXF5E39","AZ8JL3QNIPY4U","37S0QRNUFB29SLTNXLPAM35NX0F88U","","","<img src=""img/flower5.png"" style=""width:200px; border:14px solid green;"">","null","","","","","",""
"650","","image-keyboard-response","210","176369","0.0-210.0","3JRJSWSMQI76M9V2P9LGCFPMXF5E39","AZ8JL3QNIPY4U","37S0QRNUFB29SLTNXLPAM35NX0F88U","","","img/flower6.png","76","650.5","3","1","3","0.7,0.2,0,0.7,0,0.2,0.2,0,0.7",""
"null","","html-keyboard-response","211","176670","0.0-211.0","3JRJSWSMQI76M9V2P9LGCFPMXF5E39","AZ8JL3QNIPY4U","37S0QRNUFB29SLTNXLPAM35NX0F88U","","","<img src=""img/flower6.png"" style=""width:200px; border:14px solid green;"">","null","","","","","",""
"554.1999999992549","","image-keyboard-response","212","177225","0.0-212.0","3JRJSWSMQI76M9V2P9LGCFPMXF5E39","AZ8JL3QNIPY4U","37S0QRNUFB29SLTNXLPAM35NX0F88U","","","img/flower2.png","74","554.8999999985099","1","1","2","0.7,0.2,0,0.7,0,0.2,0.2,0,0.7",""
"null","","html-keyboard-response","213","177527","0.0-213.0","3JRJSWSMQI76M9V2P9LGCFPMXF5E39","AZ8JL3QNIPY4U","37S0QRNUFB29SLTNXLPAM35NX0F88U","","","<img src=""img/flower2.png"" style=""width:200px; border:14px solid green;"">","null","","","","","",""
"577.5","","image-keyboard-response","214","178105","0.0-214.0","3JRJSWSMQI76M9V2P9LGCFPMXF5E39","AZ8JL3QNIPY4U","37S0QRNUFB29SLTNXLPAM35NX0F88U","","","img/flower6.png","76","578.1999999992549","3","1","3","0.7,0.2,0,0.7,0,0.2,0.2,0,0.7",""
"null","","html-keyboard-response","215","178407","0.0-215.0","3JRJSWSMQI76M9V2P9LGCFPMXF5E39","AZ8JL3QNIPY4U","37S0QRNUFB29SLTNXLPAM35NX0F88U","","","<img src=""img/flower6.png"" style=""width:200px; border:14px solid green;"">","null","","","","","",""
"785.6000000014901","","image-keyboard-response","216","179193","0.0-216.0","3JRJSWSMQI76M9V2P9LGCFPMXF5E39","AZ8JL3QNIPY4U","37S0QRNUFB29SLTNXLPAM35NX0F88U","","","img/flower5.png","74","786.1999999992549","1","1","1","0.7,0.2,0,0.7,0,0.2,0.2,0,0.7",""
"null","","html-keyboard-response","217","179495","0.0-217.0","3JRJSWSMQI76M9V2P9LGCFPMXF5E39","AZ8JL3QNIPY4U","37S0QRNUFB29SLTNXLPAM35NX0F88U","","","<img src=""img/flower5.png"" style=""width:200px; border:14px solid green;"">","null","","","","","",""
"1785.199999999255","","image-keyboard-response","218","181281","0.0-218.0","3JRJSWSMQI76M9V2P9LGCFPMXF5E39","AZ8JL3QNIPY4U","37S0QRNUFB29SLTNXLPAM35NX0F88U","","","img/flower6.png","76","1785.8999999985099","3","0","3","0.7,0.2,0,0.7,0,0.2,0.2,0,0.7",""
"null","","html-keyboard-response","219","181582","0.0-219.0","3JRJSWSMQI76M9V2P9LGCFPMXF5E39","AZ8JL3QNIPY4U","37S0QRNUFB29SLTNXLPAM35NX0F88U","","","<img src=""img/flower6.png"" style=""width:200px;border:14px solid red;"">","null","","","","","",""
"506","","image-keyboard-response","220","182089","0.0-220.0","3JRJSWSMQI76M9V2P9LGCFPMXF5E39","AZ8JL3QNIPY4U","37S0QRNUFB29SLTNXLPAM35NX0F88U","","","img/flower2.png","74","506.69999999925494","1","1","2","0.7,0.2,0,0.7,0,0.2,0.2,0,0.7",""
"null","","html-keyboard-response","221","182390","0.0-221.0","3JRJSWSMQI76M9V2P9LGCFPMXF5E39","AZ8JL3QNIPY4U","37S0QRNUFB29SLTNXLPAM35NX0F88U","","","<img src=""img/flower2.png"" style=""width:200px; border:14px solid green;"">","null","","","","","",""
"1082.3999999985099","","image-keyboard-response","222","183473","0.0-222.0","3JRJSWSMQI76M9V2P9LGCFPMXF5E39","AZ8JL3QNIPY4U","37S0QRNUFB29SLTNXLPAM35NX0F88U","","","img/flower5.png","74","1083.199999999255","1","1","1","0.7,0.2,0,0.7,0,0.2,0.2,0,0.7",""
"null","","html-keyboard-response","223","183775","0.0-223.0","3JRJSWSMQI76M9V2P9LGCFPMXF5E39","AZ8JL3QNIPY4U","37S0QRNUFB29SLTNXLPAM35NX0F88U","","","<img src=""img/flower5.png"" style=""width:200px; border:14px solid green;"">","null","","","","","",""
"353.19999999925494","","image-keyboard-response","224","184129","0.0-224.0","3JRJSWSMQI76M9V2P9LGCFPMXF5E39","AZ8JL3QNIPY4U","37S0QRNUFB29SLTNXLPAM35NX0F88U","","","img/flower5.png","74","353.79999999701977","1","0","1","0.7,0.2,0,0.7,0,0.2,0.2,0,0.7",""
"null","","html-keyboard-response","225","184430","0.0-225.0","3JRJSWSMQI76M9V2P9LGCFPMXF5E39","AZ8JL3QNIPY4U","37S0QRNUFB29SLTNXLPAM35NX0F88U","","","<img src=""img/flower5.png"" style=""width:200px;border:14px solid red;"">","null","","","","","",""
"593.8999999985099","","image-keyboard-response","226","185025","0.0-226.0","3JRJSWSMQI76M9V2P9LGCFPMXF5E39","AZ8JL3QNIPY4U","37S0QRNUFB29SLTNXLPAM35NX0F88U","","","img/flower6.png","76","594.6000000014901","3","0","3","0.7,0.2,0,0.7,0,0.2,0.2,0,0.7",""
"null","","html-keyboard-response","227","185328","0.0-227.0","3JRJSWSMQI76M9V2P9LGCFPMXF5E39","AZ8JL3QNIPY4U","37S0QRNUFB29SLTNXLPAM35NX0F88U","","","<img src=""img/flower6.png"" style=""width:200px;border:14px solid red;"">","null","","","","","",""
"328.30000000074506","","image-keyboard-response","228","185657","0.0-228.0","3JRJSWSMQI76M9V2P9LGCFPMXF5E39","AZ8JL3QNIPY4U","37S0QRNUFB29SLTNXLPAM35NX0F88U","","","img/flower6.png","76","329","3","0","3","0.7,0.2,0,0.7,0,0.2,0.2,0,0.7",""
"null","","html-keyboard-response","229","185958","0.0-229.0","3JRJSWSMQI76M9V2P9LGCFPMXF5E39","AZ8JL3QNIPY4U","37S0QRNUFB29SLTNXLPAM35NX0F88U","","","<img src=""img/flower6.png"" style=""width:200px;border:14px solid red;"">","null","","","","","",""
"682.1999999992549","","image-keyboard-response","230","186641","0.0-230.0","3JRJSWSMQI76M9V2P9LGCFPMXF5E39","AZ8JL3QNIPY4U","37S0QRNUFB29SLTNXLPAM35NX0F88U","","","img/flower2.png","74","682.8999999985099","1","0","2","0.7,0.2,0,0.7,0,0.2,0.2,0,0.7",""
"null","","html-keyboard-response","231","186942","0.0-231.0","3JRJSWSMQI76M9V2P9LGCFPMXF5E39","AZ8JL3QNIPY4U","37S0QRNUFB29SLTNXLPAM35NX0F88U","","","<img src=""img/flower2.png"" style=""width:200px;border:14px solid red;"">","null","","","","","",""
"649.5","","image-keyboard-response","232","187593","0.0-232.0","3JRJSWSMQI76M9V2P9LGCFPMXF5E39","AZ8JL3QNIPY4U","37S0QRNUFB29SLTNXLPAM35NX0F88U","","","img/flower5.png","74","650.4000000022352","1","1","1","0.7,0.2,0,0.7,0,0.2,0.2,0,0.7",""
"null","","html-keyboard-response","233","187894","0.0-233.0","3JRJSWSMQI76M9V2P9LGCFPMXF5E39","AZ8JL3QNIPY4U","37S0QRNUFB29SLTNXLPAM35NX0F88U","","","<img src=""img/flower5.png"" style=""width:200px; border:14px solid green;"">","null","","","","","",""
"698.5999999977648","","image-keyboard-response","234","188593","0.0-234.0","3JRJSWSMQI76M9V2P9LGCFPMXF5E39","AZ8JL3QNIPY4U","37S0QRNUFB29SLTNXLPAM35NX0F88U","","","img/flower2.png","74","699.3000000007451","1","1","2","0.7,0.2,0,0.7,0,0.2,0.2,0,0.7",""
"null","","html-keyboard-response","235","188895","0.0-235.0","3JRJSWSMQI76M9V2P9LGCFPMXF5E39","AZ8JL3QNIPY4U","37S0QRNUFB29SLTNXLPAM35NX0F88U","","","<img src=""img/flower2.png"" style=""width:200px; border:14px solid green;"">","null","","","","","",""
"611.8999999985099","","image-keyboard-response","236","189507","0.0-236.0","3JRJSWSMQI76M9V2P9LGCFPMXF5E39","AZ8JL3QNIPY4U","37S0QRNUFB29SLTNXLPAM35NX0F88U","","","img/flower5.png","74","612.6000000014901","1","0","1","0.7,0.2,0,0.7,0,0.2,0.2,0,0.7",""
"null","","html-keyboard-response","237","189809","0.0-237.0","3JRJSWSMQI76M9V2P9LGCFPMXF5E39","AZ8JL3QNIPY4U","37S0QRNUFB29SLTNXLPAM35NX0F88U","","","<img src=""img/flower5.png"" style=""width:200px;border:14px solid red;"">","null","","","","","",""
"303.3999999985099","","image-keyboard-response","238","190113","0.0-238.0","3JRJSWSMQI76M9V2P9LGCFPMXF5E39","AZ8JL3QNIPY4U","37S0QRNUFB29SLTNXLPAM35NX0F88U","","","img/flower5.png","74","304.19999999925494","1","0","1","0.7,0.2,0,0.7,0,0.2,0.2,0,0.7",""
"null","","html-keyboard-response","239","190414","0.0-239.0","3JRJSWSMQI76M9V2P9LGCFPMXF5E39","AZ8JL3QNIPY4U","37S0QRNUFB29SLTNXLPAM35NX0F88U","","","<img src=""img/flower5.png"" style=""width:200px;border:14px solid red;"">","null","","","","","",""
"426.19999999925494","","image-keyboard-response","240","190841","0.0-240.0","3JRJSWSMQI76M9V2P9LGCFPMXF5E39","AZ8JL3QNIPY4U","37S0QRNUFB29SLTNXLPAM35NX0F88U","","","img/flower5.png","75","426.8999999985099","2","0","1","0.7,0.2,0,0.7,0,0.2,0.2,0,0.7",""
"null","","html-keyboard-response","241","191143","0.0-241.0","3JRJSWSMQI76M9V2P9LGCFPMXF5E39","AZ8JL3QNIPY4U","37S0QRNUFB29SLTNXLPAM35NX0F88U","","","<img src=""img/flower5.png"" style=""width:200px;border:14px solid red;"">","null","","","","","",""
"673.5","","image-keyboard-response","242","191817","0.0-242.0","3JRJSWSMQI76M9V2P9LGCFPMXF5E39","AZ8JL3QNIPY4U","37S0QRNUFB29SLTNXLPAM35NX0F88U","","","img/flower2.png","74","674.0999999977648","1","0","2","0.7,0.2,0,0.7,0,0.2,0.2,0,0.7",""
"null","","html-keyboard-response","243","192118","0.0-243.0","3JRJSWSMQI76M9V2P9LGCFPMXF5E39","AZ8JL3QNIPY4U","37S0QRNUFB29SLTNXLPAM35NX0F88U","","","<img src=""img/flower2.png"" style=""width:200px;border:14px solid red;"">","null","","","","","",""
"266","","image-keyboard-response","244","192385","0.0-244.0","3JRJSWSMQI76M9V2P9LGCFPMXF5E39","AZ8JL3QNIPY4U","37S0QRNUFB29SLTNXLPAM35NX0F88U","","","img/flower2.png","74","266.69999999925494","1","1","2","0.7,0.2,0,0.7,0,0.2,0.2,0,0.7",""
"null","","html-keyboard-response","245","192686","0.0-245.0","3JRJSWSMQI76M9V2P9LGCFPMXF5E39","AZ8JL3QNIPY4U","37S0QRNUFB29SLTNXLPAM35NX0F88U","","","<img src=""img/flower2.png"" style=""width:200px; border:14px solid green;"">","null","","","","","",""
"602.3000000007451","","image-keyboard-response","246","193289","0.0-246.0","3JRJSWSMQI76M9V2P9LGCFPMXF5E39","AZ8JL3QNIPY4U","37S0QRNUFB29SLTNXLPAM35NX0F88U","","","img/flower6.png","76","603.0999999977648","3","1","3","0.7,0.2,0,0.7,0,0.2,0.2,0,0.7",""
"null","","html-keyboard-response","247","193590","0.0-247.0","3JRJSWSMQI76M9V2P9LGCFPMXF5E39","AZ8JL3QNIPY4U","37S0QRNUFB29SLTNXLPAM35NX0F88U","","","<img src=""img/flower6.png"" style=""width:200px; border:14px solid green;"">","null","","","","","",""
"481.6000000014901","","image-keyboard-response","248","194072","0.0-248.0","3JRJSWSMQI76M9V2P9LGCFPMXF5E39","AZ8JL3QNIPY4U","37S0QRNUFB29SLTNXLPAM35NX0F88U","","","img/flower2.png","74","482.20000000298023","1","0","2","0.7,0.2,0,0.7,0,0.2,0.2,0,0.7",""
"null","","html-keyboard-response","249","194374","0.0-249.0","3JRJSWSMQI76M9V2P9LGCFPMXF5E39","AZ8JL3QNIPY4U","37S0QRNUFB29SLTNXLPAM35NX0F88U","","","<img src=""img/flower2.png"" style=""width:200px;border:14px solid red;"">","null","","","","","",""
"873.8999999985099","","image-keyboard-response","250","195249","0.0-250.0","3JRJSWSMQI76M9V2P9LGCFPMXF5E39","AZ8JL3QNIPY4U","37S0QRNUFB29SLTNXLPAM35NX0F88U","","","img/flower5.png","76","874.6999999992549","3","0","1","0.7,0.2,0,0.7,0,0.2,0.2,0,0.7",""
"null","","html-keyboard-response","251","195550","0.0-251.0","3JRJSWSMQI76M9V2P9LGCFPMXF5E39","AZ8JL3QNIPY4U","37S0QRNUFB29SLTNXLPAM35NX0F88U","","","<img src=""img/flower5.png"" style=""width:200px;border:14px solid red;"">","null","","","","","",""
"697.6999999992549","","image-keyboard-response","252","196248","0.0-252.0","3JRJSWSMQI76M9V2P9LGCFPMXF5E39","AZ8JL3QNIPY4U","37S0QRNUFB29SLTNXLPAM35NX0F88U","","","img/flower6.png","76","698.4000000022352","3","1","3","0.7,0.2,0,0.7,0,0.2,0.2,0,0.7",""
"null","","html-keyboard-response","253","196550","0.0-253.0","3JRJSWSMQI76M9V2P9LGCFPMXF5E39","AZ8JL3QNIPY4U","37S0QRNUFB29SLTNXLPAM35NX0F88U","","","<img src=""img/flower6.png"" style=""width:200px; border:14px solid green;"">","null","","","","","",""
"866","","image-keyboard-response","254","197417","0.0-254.0","3JRJSWSMQI76M9V2P9LGCFPMXF5E39","AZ8JL3QNIPY4U","37S0QRNUFB29SLTNXLPAM35NX0F88U","","","img/flower2.png","74","866.6999999992549","1","1","2","0.7,0.2,0,0.7,0,0.2,0.2,0,0.7",""
"null","","html-keyboard-response","255","197718","0.0-255.0","3JRJSWSMQI76M9V2P9LGCFPMXF5E39","AZ8JL3QNIPY4U","37S0QRNUFB29SLTNXLPAM35NX0F88U","","","<img src=""img/flower2.png"" style=""width:200px; border:14px solid green;"">","null","","","","","",""
"938.1000000014901","","image-keyboard-response","256","198657","0.0-256.0","3JRJSWSMQI76M9V2P9LGCFPMXF5E39","AZ8JL3QNIPY4U","37S0QRNUFB29SLTNXLPAM35NX0F88U","","","img/flower5.png","74","938.6999999992549","1","0","1","0.7,0.2,0,0.7,0,0.2,0.2,0,0.7",""
"null","","html-keyboard-response","257","198965","0.0-257.0","3JRJSWSMQI76M9V2P9LGCFPMXF5E39","AZ8JL3QNIPY4U","37S0QRNUFB29SLTNXLPAM35NX0F88U","","","<img src=""img/flower5.png"" style=""width:200px;border:14px solid red;"">","null","","","","","",""
"347.30000000074506","","image-keyboard-response","258","199313","0.0-258.0","3JRJSWSMQI76M9V2P9LGCFPMXF5E39","AZ8JL3QNIPY4U","37S0QRNUFB29SLTNXLPAM35NX0F88U","","","img/flower5.png","74","348","1","1","1","0.7,0.2,0,0.7,0,0.2,0.2,0,0.7",""
"null","","html-keyboard-response","259","199614","0.0-259.0","3JRJSWSMQI76M9V2P9LGCFPMXF5E39","AZ8JL3QNIPY4U","37S0QRNUFB29SLTNXLPAM35NX0F88U","","","<img src=""img/flower5.png"" style=""width:200px; border:14px solid green;"">","null","","","","","",""
"386","","image-keyboard-response","260","200000","0.0-260.0","3JRJSWSMQI76M9V2P9LGCFPMXF5E39","AZ8JL3QNIPY4U","37S0QRNUFB29SLTNXLPAM35NX0F88U","","","img/flower5.png","74","386.69999999925494","1","0","1","0.7,0.2,0,0.7,0,0.2,0.2,0,0.7",""
"null","","html-keyboard-response","261","200302","0.0-261.0","3JRJSWSMQI76M9V2P9LGCFPMXF5E39","AZ8JL3QNIPY4U","37S0QRNUFB29SLTNXLPAM35NX0F88U","","","<img src=""img/flower5.png"" style=""width:200px;border:14px solid red;"">","null","","","","","",""
"281.80000000074506","","image-keyboard-response","262","200585","0.0-262.0","3JRJSWSMQI76M9V2P9LGCFPMXF5E39","AZ8JL3QNIPY4U","37S0QRNUFB29SLTNXLPAM35NX0F88U","","","img/flower5.png","74","282.3999999985099","1","1","1","0.7,0.2,0,0.7,0,0.2,0.2,0,0.7",""
"null","","html-keyboard-response","263","200887","0.0-263.0","3JRJSWSMQI76M9V2P9LGCFPMXF5E39","AZ8JL3QNIPY4U","37S0QRNUFB29SLTNXLPAM35NX0F88U","","","<img src=""img/flower5.png"" style=""width:200px; border:14px solid green;"">","null","","","","","",""
"600.7999999970198","","image-keyboard-response","264","201488","0.0-264.0","3JRJSWSMQI76M9V2P9LGCFPMXF5E39","AZ8JL3QNIPY4U","37S0QRNUFB29SLTNXLPAM35NX0F88U","","","img/flower6.png","76","601.4000000022352","3","0","3","0.7,0.2,0,0.7,0,0.2,0.2,0,0.7",""
"null","","html-keyboard-response","265","201790","0.0-265.0","3JRJSWSMQI76M9V2P9LGCFPMXF5E39","AZ8JL3QNIPY4U","37S0QRNUFB29SLTNXLPAM35NX0F88U","","","<img src=""img/flower6.png"" style=""width:200px;border:14px solid red;"">","null","","","","","",""
"273.5999999977648","","image-keyboard-response","266","202064","0.0-266.0","3JRJSWSMQI76M9V2P9LGCFPMXF5E39","AZ8JL3QNIPY4U","37S0QRNUFB29SLTNXLPAM35NX0F88U","","","img/flower6.png","76","274.19999999925494","3","1","3","0.7,0.2,0,0.7,0,0.2,0.2,0,0.7",""
"null","","html-keyboard-response","267","202367","0.0-267.0","3JRJSWSMQI76M9V2P9LGCFPMXF5E39","AZ8JL3QNIPY4U","37S0QRNUFB29SLTNXLPAM35NX0F88U","","","<img src=""img/flower6.png"" style=""width:200px; border:14px solid green;"">","null","","","","","",""
"344.69999999925494","","image-keyboard-response","268","202712","0.0-268.0","3JRJSWSMQI76M9V2P9LGCFPMXF5E39","AZ8JL3QNIPY4U","37S0QRNUFB29SLTNXLPAM35NX0F88U","","","img/flower6.png","76","345.5","3","0","3","0.7,0.2,0,0.7,0,0.2,0.2,0,0.7",""
"null","","html-keyboard-response","269","203013","0.0-269.0","3JRJSWSMQI76M9V2P9LGCFPMXF5E39","AZ8JL3QNIPY4U","37S0QRNUFB29SLTNXLPAM35NX0F88U","","","<img src=""img/flower6.png"" style=""width:200px;border:14px solid red;"">","null","","","","","",""
"666.4000000022352","","image-keyboard-response","270","203680","0.0-270.0","3JRJSWSMQI76M9V2P9LGCFPMXF5E39","AZ8JL3QNIPY4U","37S0QRNUFB29SLTNXLPAM35NX0F88U","","","img/flower5.png","74","667","1","0","1","0.7,0.2,0,0.7,0,0.2,0.2,0,0.7",""
"null","","html-keyboard-response","271","203982","0.0-271.0","3JRJSWSMQI76M9V2P9LGCFPMXF5E39","AZ8JL3QNIPY4U","37S0QRNUFB29SLTNXLPAM35NX0F88U","","","<img src=""img/flower5.png"" style=""width:200px;border:14px solid red;"">","null","","","","","",""
"210","","image-keyboard-response","272","204192","0.0-272.0","3JRJSWSMQI76M9V2P9LGCFPMXF5E39","AZ8JL3QNIPY4U","37S0QRNUFB29SLTNXLPAM35NX0F88U","","","img/flower5.png","74","210.70000000298023","1","1","1","0.7,0.2,0,0.7,0,0.2,0.2,0,0.7",""
"null","","html-keyboard-response","273","204494","0.0-273.0","3JRJSWSMQI76M9V2P9LGCFPMXF5E39","AZ8JL3QNIPY4U","37S0QRNUFB29SLTNXLPAM35NX0F88U","","","<img src=""img/flower5.png"" style=""width:200px; border:14px solid green;"">","null","","","","","",""
"698.3000000007451","","image-keyboard-response","274","205192","0.0-274.0","3JRJSWSMQI76M9V2P9LGCFPMXF5E39","AZ8JL3QNIPY4U","37S0QRNUFB29SLTNXLPAM35NX0F88U","","","img/flower6.png","76","698.8000000007451","3","0","3","0.7,0.2,0,0.7,0,0.2,0.2,0,0.7",""
"null","","html-keyboard-response","275","205494","0.0-275.0","3JRJSWSMQI76M9V2P9LGCFPMXF5E39","AZ8JL3QNIPY4U","37S0QRNUFB29SLTNXLPAM35NX0F88U","","","<img src=""img/flower6.png"" style=""width:200px;border:14px solid red;"">","null","","","","","",""
"602.1000000014901","","image-keyboard-response","276","206097","0.0-276.0","3JRJSWSMQI76M9V2P9LGCFPMXF5E39","AZ8JL3QNIPY4U","37S0QRNUFB29SLTNXLPAM35NX0F88U","","","img/flower2.png","74","602.8999999985099","1","1","2","0.7,0.2,0,0.7,0,0.2,0.2,0,0.7",""
"null","","html-keyboard-response","277","206398","0.0-277.0","3JRJSWSMQI76M9V2P9LGCFPMXF5E39","AZ8JL3QNIPY4U","37S0QRNUFB29SLTNXLPAM35NX0F88U","","","<img src=""img/flower2.png"" style=""width:200px; border:14px solid green;"">","null","","","","","",""
"297.5999999977648","","image-keyboard-response","278","206696","0.0-278.0","3JRJSWSMQI76M9V2P9LGCFPMXF5E39","AZ8JL3QNIPY4U","37S0QRNUFB29SLTNXLPAM35NX0F88U","","","img/flower2.png","74","298.29999999701977","1","1","2","0.7,0.2,0,0.7,0,0.2,0.2,0,0.7",""
"null","","html-keyboard-response","279","207002","0.0-279.0","3JRJSWSMQI76M9V2P9LGCFPMXF5E39","AZ8JL3QNIPY4U","37S0QRNUFB29SLTNXLPAM35NX0F88U","","","<img src=""img/flower2.png"" style=""width:200px; border:14px solid green;"">","null","","","","","",""
"557.8999999985099","","image-keyboard-response","280","207560","0.0-280.0","3JRJSWSMQI76M9V2P9LGCFPMXF5E39","AZ8JL3QNIPY4U","37S0QRNUFB29SLTNXLPAM35NX0F88U","","","img/flower6.png","76","558.5","3","0","3","0.7,0.2,0,0.7,0,0.2,0.2,0,0.7",""
"null","","html-keyboard-response","281","207861","0.0-281.0","3JRJSWSMQI76M9V2P9LGCFPMXF5E39","AZ8JL3QNIPY4U","37S0QRNUFB29SLTNXLPAM35NX0F88U","","","<img src=""img/flower6.png"" style=""width:200px;border:14px solid red;"">","null","","","","","",""
"594.1999999992549","","image-keyboard-response","282","208456","0.0-282.0","3JRJSWSMQI76M9V2P9LGCFPMXF5E39","AZ8JL3QNIPY4U","37S0QRNUFB29SLTNXLPAM35NX0F88U","","","img/flower2.png","74","595","1","0","2","0.7,0.2,0,0.7,0,0.2,0.2,0,0.7",""
"null","","html-keyboard-response","283","208759","0.0-283.0","3JRJSWSMQI76M9V2P9LGCFPMXF5E39","AZ8JL3QNIPY4U","37S0QRNUFB29SLTNXLPAM35NX0F88U","","","<img src=""img/flower2.png"" style=""width:200px;border:14px solid red;"">","null","","","","","",""
"800.8000000007451","","image-keyboard-response","284","209560","0.0-284.0","3JRJSWSMQI76M9V2P9LGCFPMXF5E39","AZ8JL3QNIPY4U","37S0QRNUFB29SLTNXLPAM35NX0F88U","","","img/flower6.png","74","801.5","1","0","3","0.7,0.2,0,0.7,0,0.2,0.2,0,0.7",""
"null","","html-keyboard-response","285","209862","0.0-285.0","3JRJSWSMQI76M9V2P9LGCFPMXF5E39","AZ8JL3QNIPY4U","37S0QRNUFB29SLTNXLPAM35NX0F88U","","","<img src=""img/flower6.png"" style=""width:200px;border:14px solid red;"">","null","","","","","",""
"634.0999999977648","","image-keyboard-response","286","210496","0.0-286.0","3JRJSWSMQI76M9V2P9LGCFPMXF5E39","AZ8JL3QNIPY4U","37S0QRNUFB29SLTNXLPAM35NX0F88U","","","img/flower2.png","74","634.6999999992549","1","1","2","0.7,0.2,0,0.7,0,0.2,0.2,0,0.7",""
"null","","html-keyboard-response","287","210798","0.0-287.0","3JRJSWSMQI76M9V2P9LGCFPMXF5E39","AZ8JL3QNIPY4U","37S0QRNUFB29SLTNXLPAM35NX0F88U","","","<img src=""img/flower2.png"" style=""width:200px; border:14px solid green;"">","null","","","","","",""
"266","","image-keyboard-response","288","211065","0.0-288.0","3JRJSWSMQI76M9V2P9LGCFPMXF5E39","AZ8JL3QNIPY4U","37S0QRNUFB29SLTNXLPAM35NX0F88U","","","img/flower6.png","74","266.5999999977648","1","1","3","0.7,0.2,0,0.7,0,0.2,0.2,0,0.7",""
"null","","html-keyboard-response","289","211367","0.0-289.0","3JRJSWSMQI76M9V2P9LGCFPMXF5E39","AZ8JL3QNIPY4U","37S0QRNUFB29SLTNXLPAM35NX0F88U","","","<img src=""img/flower6.png"" style=""width:200px; border:14px solid green;"">","null","","","","","",""
"1528.5","","image-keyboard-response","290","212896","0.0-290.0","3JRJSWSMQI76M9V2P9LGCFPMXF5E39","AZ8JL3QNIPY4U","37S0QRNUFB29SLTNXLPAM35NX0F88U","","","img/flower5.png","74","1529.2999999970198","1","1","1","0.7,0.2,0,0.7,0,0.2,0.2,0,0.7",""
"null","","html-keyboard-response","291","213198","0.0-291.0","3JRJSWSMQI76M9V2P9LGCFPMXF5E39","AZ8JL3QNIPY4U","37S0QRNUFB29SLTNXLPAM35NX0F88U","","","<img src=""img/flower5.png"" style=""width:200px; border:14px solid green;"">","null","","","","","",""
"561.7999999970198","","image-keyboard-response","292","213760","0.0-292.0","3JRJSWSMQI76M9V2P9LGCFPMXF5E39","AZ8JL3QNIPY4U","37S0QRNUFB29SLTNXLPAM35NX0F88U","","","img/flower2.png","74","562.3999999985099","1","1","2","0.7,0.2,0,0.7,0,0.2,0.2,0,0.7",""
"null","","html-keyboard-response","293","214061","0.0-293.0","3JRJSWSMQI76M9V2P9LGCFPMXF5E39","AZ8JL3QNIPY4U","37S0QRNUFB29SLTNXLPAM35NX0F88U","","","<img src=""img/flower2.png"" style=""width:200px; border:14px solid green;"">","null","","","","","",""
"378.3999999985099","","image-keyboard-response","294","214440","0.0-294.0","3JRJSWSMQI76M9V2P9LGCFPMXF5E39","AZ8JL3QNIPY4U","37S0QRNUFB29SLTNXLPAM35NX0F88U","","","img/flower2.png","74","379","1","1","2","0.7,0.2,0,0.7,0,0.2,0.2,0,0.7",""
"null","","html-keyboard-response","295","214742","0.0-295.0","3JRJSWSMQI76M9V2P9LGCFPMXF5E39","AZ8JL3QNIPY4U","37S0QRNUFB29SLTNXLPAM35NX0F88U","","","<img src=""img/flower2.png"" style=""width:200px; border:14px solid green;"">","null","","","","","",""
"593.8000000007451","","image-keyboard-response","296","215336","0.0-296.0","3JRJSWSMQI76M9V2P9LGCFPMXF5E39","AZ8JL3QNIPY4U","37S0QRNUFB29SLTNXLPAM35NX0F88U","","","img/flower6.png","76","594.6000000014901","3","1","3","0.7,0.2,0,0.7,0,0.2,0.2,0,0.7",""
"null","","html-keyboard-response","297","215637","0.0-297.0","3JRJSWSMQI76M9V2P9LGCFPMXF5E39","AZ8JL3QNIPY4U","37S0QRNUFB29SLTNXLPAM35NX0F88U","","","<img src=""img/flower6.png"" style=""width:200px; border:14px solid green;"">","null","","","","","",""
"354.3999999985099","","image-keyboard-response","298","215992","0.0-298.0","3JRJSWSMQI76M9V2P9LGCFPMXF5E39","AZ8JL3QNIPY4U","37S0QRNUFB29SLTNXLPAM35NX0F88U","","","img/flower6.png","76","354.8999999985099","3","0","3","0.7,0.2,0,0.7,0,0.2,0.2,0,0.7",""
"null","","html-keyboard-response","299","216294","0.0-299.0","3JRJSWSMQI76M9V2P9LGCFPMXF5E39","AZ8JL3QNIPY4U","37S0QRNUFB29SLTNXLPAM35NX0F88U","","","<img src=""img/flower6.png"" style=""width:200px;border:14px solid red;"">","null","","","","","",""
"537.6000000014901","","image-keyboard-response","300","216832","0.0-300.0","3JRJSWSMQI76M9V2P9LGCFPMXF5E39","AZ8JL3QNIPY4U","37S0QRNUFB29SLTNXLPAM35NX0F88U","","","img/flower2.png","74","538.3000000007451","1","1","2","0.7,0.2,0,0.7,0,0.2,0.2,0,0.7",""
"null","","html-keyboard-response","301","217133","0.0-301.0","3JRJSWSMQI76M9V2P9LGCFPMXF5E39","AZ8JL3QNIPY4U","37S0QRNUFB29SLTNXLPAM35NX0F88U","","","<img src=""img/flower2.png"" style=""width:200px; border:14px solid green;"">","null","","","","","",""
"586","","image-keyboard-response","302","217720","0.0-302.0","3JRJSWSMQI76M9V2P9LGCFPMXF5E39","AZ8JL3QNIPY4U","37S0QRNUFB29SLTNXLPAM35NX0F88U","","","img/flower5.png","75","586.6000000014901","2","1","1","0.7,0.2,0,0.7,0,0.2,0.2,0,0.7",""
"null","","html-keyboard-response","303","218022","0.0-303.0","3JRJSWSMQI76M9V2P9LGCFPMXF5E39","AZ8JL3QNIPY4U","37S0QRNUFB29SLTNXLPAM35NX0F88U","","","<img src=""img/flower5.png"" style=""width:200px; border:14px solid green;"">","null","","","","","",""
"537.6999999992549","","image-keyboard-response","304","218560","0.0-304.0","3JRJSWSMQI76M9V2P9LGCFPMXF5E39","AZ8JL3QNIPY4U","37S0QRNUFB29SLTNXLPAM35NX0F88U","","","img/flower5.png","74","538.3999999985099","1","0","1","0.7,0.2,0,0.7,0,0.2,0.2,0,0.7",""
"null","","html-keyboard-response","305","218861","0.0-305.0","3JRJSWSMQI76M9V2P9LGCFPMXF5E39","AZ8JL3QNIPY4U","37S0QRNUFB29SLTNXLPAM35NX0F88U","","","<img src=""img/flower5.png"" style=""width:200px;border:14px solid red;"">","null","","","","","",""
"","","html-keyboard-response","306","220965","0.0-306.0","3JRJSWSMQI76M9V2P9LGCFPMXF5E39","AZ8JL3QNIPY4U","37S0QRNUFB29SLTNXLPAM35NX0F88U","","","","","","","","","",""
"1690.699999999255","","image-keyboard-response","307","222656","0.0-307.0","3JRJSWSMQI76M9V2P9LGCFPMXF5E39","AZ8JL3QNIPY4U","37S0QRNUFB29SLTNXLPAM35NX0F88U","","","img/flower1.png","74","1691.5999999977648","1","0","2","0.7,0.2,0,0,0.7,0.2,0.2,0,0.7",""
"null","","html-keyboard-response","308","222957","0.0-308.0","3JRJSWSMQI76M9V2P9LGCFPMXF5E39","AZ8JL3QNIPY4U","37S0QRNUFB29SLTNXLPAM35NX0F88U","","","<img src=""img/flower1.png"" style=""width:200px;border:14px solid red;"">","null","","","","","",""
"418","","image-keyboard-response","309","223376","0.0-309.0","3JRJSWSMQI76M9V2P9LGCFPMXF5E39","AZ8JL3QNIPY4U","37S0QRNUFB29SLTNXLPAM35NX0F88U","","","img/flower1.png","75","418.69999999925494","2","1","2","0.7,0.2,0,0,0.7,0.2,0.2,0,0.7",""
"null","","html-keyboard-response","310","223690","0.0-310.0","3JRJSWSMQI76M9V2P9LGCFPMXF5E39","AZ8JL3QNIPY4U","37S0QRNUFB29SLTNXLPAM35NX0F88U","","","<img src=""img/flower1.png"" style=""width:200px; border:14px solid green;"">","null","","","","","",""
"1077.5","","image-keyboard-response","311","224768","0.0-311.0","3JRJSWSMQI76M9V2P9LGCFPMXF5E39","AZ8JL3QNIPY4U","37S0QRNUFB29SLTNXLPAM35NX0F88U","","","img/flower4.png","74","1078.199999999255","1","1","1","0.7,0.2,0,0,0.7,0.2,0.2,0,0.7",""
"null","","html-keyboard-response","312","225069","0.0-312.0","3JRJSWSMQI76M9V2P9LGCFPMXF5E39","AZ8JL3QNIPY4U","37S0QRNUFB29SLTNXLPAM35NX0F88U","","","<img src=""img/flower4.png"" style=""width:200px; border:14px solid green;"">","null","","","","","",""
"914.1000000014901","","image-keyboard-response","313","225984","0.0-313.0","3JRJSWSMQI76M9V2P9LGCFPMXF5E39","AZ8JL3QNIPY4U","37S0QRNUFB29SLTNXLPAM35NX0F88U","","","img/flower3.png","76","914.6999999992549","3","0","3","0.7,0.2,0,0,0.7,0.2,0.2,0,0.7",""
"null","","html-keyboard-response","314","226286","0.0-314.0","3JRJSWSMQI76M9V2P9LGCFPMXF5E39","AZ8JL3QNIPY4U","37S0QRNUFB29SLTNXLPAM35NX0F88U","","","<img src=""img/flower3.png"" style=""width:200px;border:14px solid red;"">","null","","","","","",""
"953.9000000022352","","image-keyboard-response","315","227240","0.0-315.0","3JRJSWSMQI76M9V2P9LGCFPMXF5E39","AZ8JL3QNIPY4U","37S0QRNUFB29SLTNXLPAM35NX0F88U","","","img/flower4.png","74","954.6000000014901","1","1","1","0.7,0.2,0,0,0.7,0.2,0.2,0,0.7",""
"null","","html-keyboard-response","316","227542","0.0-316.0","3JRJSWSMQI76M9V2P9LGCFPMXF5E39","AZ8JL3QNIPY4U","37S0QRNUFB29SLTNXLPAM35NX0F88U","","","<img src=""img/flower4.png"" style=""width:200px; border:14px solid green;"">","null","","","","","",""
"761.6999999992549","","image-keyboard-response","317","228304","0.0-317.0","3JRJSWSMQI76M9V2P9LGCFPMXF5E39","AZ8JL3QNIPY4U","37S0QRNUFB29SLTNXLPAM35NX0F88U","","","img/flower3.png","74","762.3999999985099","1","0","3","0.7,0.2,0,0,0.7,0.2,0.2,0,0.7",""
"null","","html-keyboard-response","318","228606","0.0-318.0","3JRJSWSMQI76M9V2P9LGCFPMXF5E39","AZ8JL3QNIPY4U","37S0QRNUFB29SLTNXLPAM35NX0F88U","","","<img src=""img/flower3.png"" style=""width:200px;border:14px solid red;"">","null","","","","","",""
"705.1999999992549","","image-keyboard-response","319","229312","0.0-319.0","3JRJSWSMQI76M9V2P9LGCFPMXF5E39","AZ8JL3QNIPY4U","37S0QRNUFB29SLTNXLPAM35NX0F88U","","","img/flower4.png","74","705.8999999985099","1","0","1","0.7,0.2,0,0,0.7,0.2,0.2,0,0.7",""
"null","","html-keyboard-response","320","229614","0.0-320.0","3JRJSWSMQI76M9V2P9LGCFPMXF5E39","AZ8JL3QNIPY4U","37S0QRNUFB29SLTNXLPAM35NX0F88U","","","<img src=""img/flower4.png"" style=""width:200px;border:14px solid red;"">","null","","","","","",""
"377.5","","image-keyboard-response","321","229992","0.0-321.0","3JRJSWSMQI76M9V2P9LGCFPMXF5E39","AZ8JL3QNIPY4U","37S0QRNUFB29SLTNXLPAM35NX0F88U","","","img/flower4.png","74","378.19999999925494","1","1","1","0.7,0.2,0,0,0.7,0.2,0.2,0,0.7",""
"null","","html-keyboard-response","322","230293","0.0-322.0","3JRJSWSMQI76M9V2P9LGCFPMXF5E39","AZ8JL3QNIPY4U","37S0QRNUFB29SLTNXLPAM35NX0F88U","","","<img src=""img/flower4.png"" style=""width:200px; border:14px solid green;"">","null","","","","","",""
"490.5","","image-keyboard-response","323","230784","0.0-323.0","3JRJSWSMQI76M9V2P9LGCFPMXF5E39","AZ8JL3QNIPY4U","37S0QRNUFB29SLTNXLPAM35NX0F88U","","","img/flower4.png","74","491.19999999925494","1","1","1","0.7,0.2,0,0,0.7,0.2,0.2,0,0.7",""
"null","","html-keyboard-response","324","231087","0.0-324.0","3JRJSWSMQI76M9V2P9LGCFPMXF5E39","AZ8JL3QNIPY4U","37S0QRNUFB29SLTNXLPAM35NX0F88U","","","<img src=""img/flower4.png"" style=""width:200px; border:14px solid green;"">","null","","","","","",""
"784.3999999985099","","image-keyboard-response","325","231872","0.0-325.0","3JRJSWSMQI76M9V2P9LGCFPMXF5E39","AZ8JL3QNIPY4U","37S0QRNUFB29SLTNXLPAM35NX0F88U","","","img/flower1.png","75","785.1999999992549","2","1","2","0.7,0.2,0,0,0.7,0.2,0.2,0,0.7",""
"null","","html-keyboard-response","326","232173","0.0-326.0","3JRJSWSMQI76M9V2P9LGCFPMXF5E39","AZ8JL3QNIPY4U","37S0QRNUFB29SLTNXLPAM35NX0F88U","","","<img src=""img/flower1.png"" style=""width:200px; border:14px solid green;"">","null","","","","","",""
"341.6000000014901","","image-keyboard-response","327","232516","0.0-327.0","3JRJSWSMQI76M9V2P9LGCFPMXF5E39","AZ8JL3QNIPY4U","37S0QRNUFB29SLTNXLPAM35NX0F88U","","","img/flower1.png","75","342.4000000022352","2","1","2","0.7,0.2,0,0,0.7,0.2,0.2,0,0.7",""
"null","","html-keyboard-response","328","232828","0.0-328.0","3JRJSWSMQI76M9V2P9LGCFPMXF5E39","AZ8JL3QNIPY4U","37S0QRNUFB29SLTNXLPAM35NX0F88U","","","<img src=""img/flower1.png"" style=""width:200px; border:14px solid green;"">","null","","","","","",""
"595.5999999977648","","image-keyboard-response","329","233424","0.0-329.0","3JRJSWSMQI76M9V2P9LGCFPMXF5E39","AZ8JL3QNIPY4U","37S0QRNUFB29SLTNXLPAM35NX0F88U","","","img/flower4.png","74","596.2999999970198","1","1","1","0.7,0.2,0,0,0.7,0.2,0.2,0,0.7",""
"null","","html-keyboard-response","330","233726","0.0-330.0","3JRJSWSMQI76M9V2P9LGCFPMXF5E39","AZ8JL3QNIPY4U","37S0QRNUFB29SLTNXLPAM35NX0F88U","","","<img src=""img/flower4.png"" style=""width:200px; border:14px solid green;"">","null","","","","","",""
"897.3000000007451","","image-keyboard-response","331","234624","0.0-331.0","3JRJSWSMQI76M9V2P9LGCFPMXF5E39","AZ8JL3QNIPY4U","37S0QRNUFB29SLTNXLPAM35NX0F88U","","","img/flower3.png","75","898.1000000014901","2","0","3","0.7,0.2,0,0,0.7,0.2,0.2,0,0.7",""
"null","","html-keyboard-response","332","234926","0.0-332.0","3JRJSWSMQI76M9V2P9LGCFPMXF5E39","AZ8JL3QNIPY4U","37S0QRNUFB29SLTNXLPAM35NX0F88U","","","<img src=""img/flower3.png"" style=""width:200px;border:14px solid red;"">","null","","","","","",""
"873.3999999985099","","image-keyboard-response","333","235800","0.0-333.0","3JRJSWSMQI76M9V2P9LGCFPMXF5E39","AZ8JL3QNIPY4U","37S0QRNUFB29SLTNXLPAM35NX0F88U","","","img/flower1.png","74","874.1999999992549","1","0","2","0.7,0.2,0,0,0.7,0.2,0.2,0,0.7",""
"null","","html-keyboard-response","334","236101","0.0-334.0","3JRJSWSMQI76M9V2P9LGCFPMXF5E39","AZ8JL3QNIPY4U","37S0QRNUFB29SLTNXLPAM35NX0F88U","","","<img src=""img/flower1.png"" style=""width:200px;border:14px solid red;"">","null","","","","","",""
"570.3000000007451","","image-keyboard-response","335","236672","0.0-335.0","3JRJSWSMQI76M9V2P9LGCFPMXF5E39","AZ8JL3QNIPY4U","37S0QRNUFB29SLTNXLPAM35NX0F88U","","","img/flower4.png","74","571.0999999977648","1","0","1","0.7,0.2,0,0,0.7,0.2,0.2,0,0.7",""
"null","","html-keyboard-response","336","236973","0.0-336.0","3JRJSWSMQI76M9V2P9LGCFPMXF5E39","AZ8JL3QNIPY4U","37S0QRNUFB29SLTNXLPAM35NX0F88U","","","<img src=""img/flower4.png"" style=""width:200px;border:14px solid red;"">","null","","","","","",""
"746.1999999992549","","image-keyboard-response","337","237720","0.0-337.0","3JRJSWSMQI76M9V2P9LGCFPMXF5E39","AZ8JL3QNIPY4U","37S0QRNUFB29SLTNXLPAM35NX0F88U","","","img/flower1.png","75","746.9000000022352","2","1","2","0.7,0.2,0,0,0.7,0.2,0.2,0,0.7",""
"null","","html-keyboard-response","338","238021","0.0-338.0","3JRJSWSMQI76M9V2P9LGCFPMXF5E39","AZ8JL3QNIPY4U","37S0QRNUFB29SLTNXLPAM35NX0F88U","","","<img src=""img/flower1.png"" style=""width:200px; border:14px solid green;"">","null","","","","","",""
"1154","","image-keyboard-response","339","239176","0.0-339.0","3JRJSWSMQI76M9V2P9LGCFPMXF5E39","AZ8JL3QNIPY4U","37S0QRNUFB29SLTNXLPAM35NX0F88U","","","img/flower4.png","74","1154.800000000745","1","0","1","0.7,0.2,0,0,0.7,0.2,0.2,0,0.7",""
"null","","html-keyboard-response","340","239477","0.0-340.0","3JRJSWSMQI76M9V2P9LGCFPMXF5E39","AZ8JL3QNIPY4U","37S0QRNUFB29SLTNXLPAM35NX0F88U","","","<img src=""img/flower4.png"" style=""width:200px;border:14px solid red;"">","null","","","","","",""
"546.1999999992549","","image-keyboard-response","341","240024","0.0-341.0","3JRJSWSMQI76M9V2P9LGCFPMXF5E39","AZ8JL3QNIPY4U","37S0QRNUFB29SLTNXLPAM35NX0F88U","","","img/flower1.png","75","546.8999999985099","2","1","2","0.7,0.2,0,0,0.7,0.2,0.2,0,0.7",""
"null","","html-keyboard-response","342","240325","0.0-342.0","3JRJSWSMQI76M9V2P9LGCFPMXF5E39","AZ8JL3QNIPY4U","37S0QRNUFB29SLTNXLPAM35NX0F88U","","","<img src=""img/flower1.png"" style=""width:200px; border:14px solid green;"">","null","","","","","",""
"1258.300000000745","","image-keyboard-response","343","241584","0.0-343.0","3JRJSWSMQI76M9V2P9LGCFPMXF5E39","AZ8JL3QNIPY4U","37S0QRNUFB29SLTNXLPAM35NX0F88U","","","img/flower3.png","75","1258.800000000745","2","0","3","0.7,0.2,0,0,0.7,0.2,0.2,0,0.7",""
"null","","html-keyboard-response","344","241884","0.0-344.0","3JRJSWSMQI76M9V2P9LGCFPMXF5E39","AZ8JL3QNIPY4U","37S0QRNUFB29SLTNXLPAM35NX0F88U","","","<img src=""img/flower3.png"" style=""width:200px;border:14px solid red;"">","null","","","","","",""
"762.1999999992549","","image-keyboard-response","345","242648","0.0-345.0","3JRJSWSMQI76M9V2P9LGCFPMXF5E39","AZ8JL3QNIPY4U","37S0QRNUFB29SLTNXLPAM35NX0F88U","","","img/flower3.png","74","762.8999999985099","1","0","3","0.7,0.2,0,0,0.7,0.2,0.2,0,0.7",""
"null","","html-keyboard-response","346","242949","0.0-346.0","3JRJSWSMQI76M9V2P9LGCFPMXF5E39","AZ8JL3QNIPY4U","37S0QRNUFB29SLTNXLPAM35NX0F88U","","","<img src=""img/flower3.png"" style=""width:200px;border:14px solid red;"">","null","","","","","",""
"1417.800000000745","","image-keyboard-response","347","244368","0.0-347.0","3JRJSWSMQI76M9V2P9LGCFPMXF5E39","AZ8JL3QNIPY4U","37S0QRNUFB29SLTNXLPAM35NX0F88U","","","img/flower4.png","74","1418.5","1","0","1","0.7,0.2,0,0,0.7,0.2,0.2,0,0.7",""
"null","","html-keyboard-response","348","244669","0.0-348.0","3JRJSWSMQI76M9V2P9LGCFPMXF5E39","AZ8JL3QNIPY4U","37S0QRNUFB29SLTNXLPAM35NX0F88U","","","<img src=""img/flower4.png"" style=""width:200px;border:14px solid red;"">","null","","","","","",""
"321.9000000022352","","image-keyboard-response","349","244991","0.0-349.0","3JRJSWSMQI76M9V2P9LGCFPMXF5E39","AZ8JL3QNIPY4U","37S0QRNUFB29SLTNXLPAM35NX0F88U","","","img/flower4.png","74","322.6000000014901","1","1","1","0.7,0.2,0,0,0.7,0.2,0.2,0,0.7",""
"null","","html-keyboard-response","350","245293","0.0-350.0","3JRJSWSMQI76M9V2P9LGCFPMXF5E39","AZ8JL3QNIPY4U","37S0QRNUFB29SLTNXLPAM35NX0F88U","","","<img src=""img/flower4.png"" style=""width:200px; border:14px solid green;"">","null","","","","","",""
"362","","image-keyboard-response","351","245655","0.0-351.0","3JRJSWSMQI76M9V2P9LGCFPMXF5E39","AZ8JL3QNIPY4U","37S0QRNUFB29SLTNXLPAM35NX0F88U","","","img/flower4.png","74","362.69999999925494","1","1","1","0.7,0.2,0,0,0.7,0.2,0.2,0,0.7",""
"null","","html-keyboard-response","352","245957","0.0-352.0","3JRJSWSMQI76M9V2P9LGCFPMXF5E39","AZ8JL3QNIPY4U","37S0QRNUFB29SLTNXLPAM35NX0F88U","","","<img src=""img/flower4.png"" style=""width:200px; border:14px solid green;"">","null","","","","","",""
"297.30000000074506","","image-keyboard-response","353","246255","0.0-353.0","3JRJSWSMQI76M9V2P9LGCFPMXF5E39","AZ8JL3QNIPY4U","37S0QRNUFB29SLTNXLPAM35NX0F88U","","","img/flower4.png","74","297.8999999985099","1","1","1","0.7,0.2,0,0,0.7,0.2,0.2,0,0.7",""
"null","","html-keyboard-response","354","246557","0.0-354.0","3JRJSWSMQI76M9V2P9LGCFPMXF5E39","AZ8JL3QNIPY4U","37S0QRNUFB29SLTNXLPAM35NX0F88U","","","<img src=""img/flower4.png"" style=""width:200px; border:14px solid green;"">","null","","","","","",""
"722.3999999985099","","image-keyboard-response","355","247280","0.0-355.0","3JRJSWSMQI76M9V2P9LGCFPMXF5E39","AZ8JL3QNIPY4U","37S0QRNUFB29SLTNXLPAM35NX0F88U","","","img/flower3.png","76","723.1999999992549","3","1","3","0.7,0.2,0,0,0.7,0.2,0.2,0,0.7",""
"null","","html-keyboard-response","356","247582","0.0-356.0","3JRJSWSMQI76M9V2P9LGCFPMXF5E39","AZ8JL3QNIPY4U","37S0QRNUFB29SLTNXLPAM35NX0F88U","","","<img src=""img/flower3.png"" style=""width:200px; border:14px solid green;"">","null","","","","","",""
"1097.199999999255","","image-keyboard-response","357","248680","0.0-357.0","3JRJSWSMQI76M9V2P9LGCFPMXF5E39","AZ8JL3QNIPY4U","37S0QRNUFB29SLTNXLPAM35NX0F88U","","","img/flower1.png","75","1097.800000000745","2","1","2","0.7,0.2,0,0,0.7,0.2,0.2,0,0.7",""
"null","","html-keyboard-response","358","248980","0.0-358.0","3JRJSWSMQI76M9V2P9LGCFPMXF5E39","AZ8JL3QNIPY4U","37S0QRNUFB29SLTNXLPAM35NX0F88U","","","<img src=""img/flower1.png"" style=""width:200px; border:14px solid green;"">","null","","","","","",""
"634","","image-keyboard-response","359","249615","0.0-359.0","3JRJSWSMQI76M9V2P9LGCFPMXF5E39","AZ8JL3QNIPY4U","37S0QRNUFB29SLTNXLPAM35NX0F88U","","","img/flower3.png","76","634.6999999992549","3","0","3","0.7,0.2,0,0,0.7,0.2,0.2,0,0.7",""
"null","","html-keyboard-response","360","249917","0.0-360.0","3JRJSWSMQI76M9V2P9LGCFPMXF5E39","AZ8JL3QNIPY4U","37S0QRNUFB29SLTNXLPAM35NX0F88U","","","<img src=""img/flower3.png"" style=""width:200px;border:14px solid red;"">","null","","","","","",""
"361.3999999985099","","image-keyboard-response","361","250280","0.0-361.0","3JRJSWSMQI76M9V2P9LGCFPMXF5E39","AZ8JL3QNIPY4U","37S0QRNUFB29SLTNXLPAM35NX0F88U","","","img/flower3.png","76","362.1000000014901","3","1","3","0.7,0.2,0,0,0.7,0.2,0.2,0,0.7",""
"null","","html-keyboard-response","362","250581","0.0-362.0","3JRJSWSMQI76M9V2P9LGCFPMXF5E39","AZ8JL3QNIPY4U","37S0QRNUFB29SLTNXLPAM35NX0F88U","","","<img src=""img/flower3.png"" style=""width:200px; border:14px solid green;"">","null","","","","","",""
"361.5999999977648","","image-keyboard-response","363","250943","0.0-363.0","3JRJSWSMQI76M9V2P9LGCFPMXF5E39","AZ8JL3QNIPY4U","37S0QRNUFB29SLTNXLPAM35NX0F88U","","","img/flower3.png","76","362.19999999925494","3","1","3","0.7,0.2,0,0,0.7,0.2,0.2,0,0.7",""
"null","","html-keyboard-response","364","251244","0.0-364.0","3JRJSWSMQI76M9V2P9LGCFPMXF5E39","AZ8JL3QNIPY4U","37S0QRNUFB29SLTNXLPAM35NX0F88U","","","<img src=""img/flower3.png"" style=""width:200px; border:14px solid green;"">","null","","","","","",""
"786.1999999992549","","image-keyboard-response","365","252031","0.0-365.0","3JRJSWSMQI76M9V2P9LGCFPMXF5E39","AZ8JL3QNIPY4U","37S0QRNUFB29SLTNXLPAM35NX0F88U","","","img/flower4.png","74","787","1","1","1","0.7,0.2,0,0,0.7,0.2,0.2,0,0.7",""
"null","","html-keyboard-response","366","252333","0.0-366.0","3JRJSWSMQI76M9V2P9LGCFPMXF5E39","AZ8JL3QNIPY4U","37S0QRNUFB29SLTNXLPAM35NX0F88U","","","<img src=""img/flower4.png"" style=""width:200px; border:14px solid green;"">","null","","","","","",""
"305.0999999977648","","image-keyboard-response","367","252639","0.0-367.0","3JRJSWSMQI76M9V2P9LGCFPMXF5E39","AZ8JL3QNIPY4U","37S0QRNUFB29SLTNXLPAM35NX0F88U","","","img/flower4.png","74","305.8999999985099","1","1","1","0.7,0.2,0,0,0.7,0.2,0.2,0,0.7",""
"null","","html-keyboard-response","368","252941","0.0-368.0","3JRJSWSMQI76M9V2P9LGCFPMXF5E39","AZ8JL3QNIPY4U","37S0QRNUFB29SLTNXLPAM35NX0F88U","","","<img src=""img/flower4.png"" style=""width:200px; border:14px solid green;"">","null","","","","","",""
"705.8000000007451","","image-keyboard-response","369","253647","0.0-369.0","3JRJSWSMQI76M9V2P9LGCFPMXF5E39","AZ8JL3QNIPY4U","37S0QRNUFB29SLTNXLPAM35NX0F88U","","","img/flower3.png","76","706.5","3","1","3","0.7,0.2,0,0,0.7,0.2,0.2,0,0.7",""
"null","","html-keyboard-response","370","253949","0.0-370.0","3JRJSWSMQI76M9V2P9LGCFPMXF5E39","AZ8JL3QNIPY4U","37S0QRNUFB29SLTNXLPAM35NX0F88U","","","<img src=""img/flower3.png"" style=""width:200px; border:14px solid green;"">","null","","","","","",""
"593.5999999977648","","image-keyboard-response","371","254543","0.0-371.0","3JRJSWSMQI76M9V2P9LGCFPMXF5E39","AZ8JL3QNIPY4U","37S0QRNUFB29SLTNXLPAM35NX0F88U","","","img/flower1.png","75","594.2999999970198","2","0","2","0.7,0.2,0,0,0.7,0.2,0.2,0,0.7",""
"null","","html-keyboard-response","372","254845","0.0-372.0","3JRJSWSMQI76M9V2P9LGCFPMXF5E39","AZ8JL3QNIPY4U","37S0QRNUFB29SLTNXLPAM35NX0F88U","","","<img src=""img/flower1.png"" style=""width:200px;border:14px solid red;"">","null","","","","","",""
"673.3000000007451","","image-keyboard-response","373","255519","0.0-373.0","3JRJSWSMQI76M9V2P9LGCFPMXF5E39","AZ8JL3QNIPY4U","37S0QRNUFB29SLTNXLPAM35NX0F88U","","","img/flower3.png","76","674","3","1","3","0.7,0.2,0,0,0.7,0.2,0.2,0,0.7",""
"null","","html-keyboard-response","374","255821","0.0-374.0","3JRJSWSMQI76M9V2P9LGCFPMXF5E39","AZ8JL3QNIPY4U","37S0QRNUFB29SLTNXLPAM35NX0F88U","","","<img src=""img/flower3.png"" style=""width:200px; border:14px solid green;"">","null","","","","","",""
"458","","image-keyboard-response","375","256279","0.0-375.0","3JRJSWSMQI76M9V2P9LGCFPMXF5E39","AZ8JL3QNIPY4U","37S0QRNUFB29SLTNXLPAM35NX0F88U","","","img/flower1.png","75","458.6000000014901","2","1","2","0.7,0.2,0,0,0.7,0.2,0.2,0,0.7",""
"null","","html-keyboard-response","376","256581","0.0-376.0","3JRJSWSMQI76M9V2P9LGCFPMXF5E39","AZ8JL3QNIPY4U","37S0QRNUFB29SLTNXLPAM35NX0F88U","","","<img src=""img/flower1.png"" style=""width:200px; border:14px solid green;"">","null","","","","","",""
"377.3999999985099","","image-keyboard-response","377","256960","0.0-377.0","3JRJSWSMQI76M9V2P9LGCFPMXF5E39","AZ8JL3QNIPY4U","37S0QRNUFB29SLTNXLPAM35NX0F88U","","","img/flower1.png","75","378.19999999925494","2","1","2","0.7,0.2,0,0,0.7,0.2,0.2,0,0.7",""
"null","","html-keyboard-response","378","257260","0.0-378.0","3JRJSWSMQI76M9V2P9LGCFPMXF5E39","AZ8JL3QNIPY4U","37S0QRNUFB29SLTNXLPAM35NX0F88U","","","<img src=""img/flower1.png"" style=""width:200px; border:14px solid green;"">","null","","","","","",""
"778","","image-keyboard-response","379","258039","0.0-379.0","3JRJSWSMQI76M9V2P9LGCFPMXF5E39","AZ8JL3QNIPY4U","37S0QRNUFB29SLTNXLPAM35NX0F88U","","","img/flower4.png","74","778.8000000007451","1","0","1","0.7,0.2,0,0,0.7,0.2,0.2,0,0.7",""
"null","","html-keyboard-response","380","258341","0.0-380.0","3JRJSWSMQI76M9V2P9LGCFPMXF5E39","AZ8JL3QNIPY4U","37S0QRNUFB29SLTNXLPAM35NX0F88U","","","<img src=""img/flower4.png"" style=""width:200px;border:14px solid red;"">","null","","","","","",""
"665.9000000022352","","image-keyboard-response","381","259007","0.0-381.0","3JRJSWSMQI76M9V2P9LGCFPMXF5E39","AZ8JL3QNIPY4U","37S0QRNUFB29SLTNXLPAM35NX0F88U","","","img/flower3.png","76","666.5","3","1","3","0.7,0.2,0,0,0.7,0.2,0.2,0,0.7",""
"null","","html-keyboard-response","382","259308","0.0-382.0","3JRJSWSMQI76M9V2P9LGCFPMXF5E39","AZ8JL3QNIPY4U","37S0QRNUFB29SLTNXLPAM35NX0F88U","","","<img src=""img/flower3.png"" style=""width:200px; border:14px solid green;"">","null","","","","","",""
"602.1999999992549","","image-keyboard-response","383","259911","0.0-383.0","3JRJSWSMQI76M9V2P9LGCFPMXF5E39","AZ8JL3QNIPY4U","37S0QRNUFB29SLTNXLPAM35NX0F88U","","","img/flower4.png","74","603","1","0","1","0.7,0.2,0,0,0.7,0.2,0.2,0,0.7",""
"null","","html-keyboard-response","384","260212","0.0-384.0","3JRJSWSMQI76M9V2P9LGCFPMXF5E39","AZ8JL3QNIPY4U","37S0QRNUFB29SLTNXLPAM35NX0F88U","","","<img src=""img/flower4.png"" style=""width:200px;border:14px solid red;"">","null","","","","","",""
"354","","image-keyboard-response","385","260567","0.0-385.0","3JRJSWSMQI76M9V2P9LGCFPMXF5E39","AZ8JL3QNIPY4U","37S0QRNUFB29SLTNXLPAM35NX0F88U","","","img/flower4.png","74","354.80000000074506","1","1","1","0.7,0.2,0,0,0.7,0.2,0.2,0,0.7",""
"null","","html-keyboard-response","386","260869","0.0-386.0","3JRJSWSMQI76M9V2P9LGCFPMXF5E39","AZ8JL3QNIPY4U","37S0QRNUFB29SLTNXLPAM35NX0F88U","","","<img src=""img/flower4.png"" style=""width:200px; border:14px solid green;"">","null","","","","","",""
"658.1000000014901","","image-keyboard-response","387","261528","0.0-387.0","3JRJSWSMQI76M9V2P9LGCFPMXF5E39","AZ8JL3QNIPY4U","37S0QRNUFB29SLTNXLPAM35NX0F88U","","","img/flower3.png","76","658.8000000007451","3","1","3","0.7,0.2,0,0,0.7,0.2,0.2,0,0.7",""
"null","","html-keyboard-response","388","261829","0.0-388.0","3JRJSWSMQI76M9V2P9LGCFPMXF5E39","AZ8JL3QNIPY4U","37S0QRNUFB29SLTNXLPAM35NX0F88U","","","<img src=""img/flower3.png"" style=""width:200px; border:14px solid green;"">","null","","","","","",""
"521.6999999992549","","image-keyboard-response","389","262351","0.0-389.0","3JRJSWSMQI76M9V2P9LGCFPMXF5E39","AZ8JL3QNIPY4U","37S0QRNUFB29SLTNXLPAM35NX0F88U","","","img/flower1.png","75","522.5999999977648","2","1","2","0.7,0.2,0,0,0.7,0.2,0.2,0,0.7",""
"null","","html-keyboard-response","390","262653","0.0-390.0","3JRJSWSMQI76M9V2P9LGCFPMXF5E39","AZ8JL3QNIPY4U","37S0QRNUFB29SLTNXLPAM35NX0F88U","","","<img src=""img/flower1.png"" style=""width:200px; border:14px solid green;"">","null","","","","","",""
"577.4000000022352","","image-keyboard-response","391","263231","0.0-391.0","3JRJSWSMQI76M9V2P9LGCFPMXF5E39","AZ8JL3QNIPY4U","37S0QRNUFB29SLTNXLPAM35NX0F88U","","","img/flower4.png","76","578.1999999992549","3","0","1","0.7,0.2,0,0,0.7,0.2,0.2,0,0.7",""
"null","","html-keyboard-response","392","263532","0.0-392.0","3JRJSWSMQI76M9V2P9LGCFPMXF5E39","AZ8JL3QNIPY4U","37S0QRNUFB29SLTNXLPAM35NX0F88U","","","<img src=""img/flower4.png"" style=""width:200px;border:14px solid red;"">","null","","","","","",""
"370.1000000014901","","image-keyboard-response","393","263903","0.0-393.0","3JRJSWSMQI76M9V2P9LGCFPMXF5E39","AZ8JL3QNIPY4U","37S0QRNUFB29SLTNXLPAM35NX0F88U","","","img/flower4.png","76","370.69999999925494","3","0","1","0.7,0.2,0,0,0.7,0.2,0.2,0,0.7",""
"null","","html-keyboard-response","394","264204","0.0-394.0","3JRJSWSMQI76M9V2P9LGCFPMXF5E39","AZ8JL3QNIPY4U","37S0QRNUFB29SLTNXLPAM35NX0F88U","","","<img src=""img/flower4.png"" style=""width:200px;border:14px solid red;"">","null","","","","","",""
"242","","image-keyboard-response","395","264447","0.0-395.0","3JRJSWSMQI76M9V2P9LGCFPMXF5E39","AZ8JL3QNIPY4U","37S0QRNUFB29SLTNXLPAM35NX0F88U","","","img/flower4.png","74","242.80000000074506","1","1","1","0.7,0.2,0,0,0.7,0.2,0.2,0,0.7",""
"null","","html-keyboard-response","396","264749","0.0-396.0","3JRJSWSMQI76M9V2P9LGCFPMXF5E39","AZ8JL3QNIPY4U","37S0QRNUFB29SLTNXLPAM35NX0F88U","","","<img src=""img/flower4.png"" style=""width:200px; border:14px solid green;"">","null","","","","","",""
"777.6000000014901","","image-keyboard-response","397","265527","0.0-397.0","3JRJSWSMQI76M9V2P9LGCFPMXF5E39","AZ8JL3QNIPY4U","37S0QRNUFB29SLTNXLPAM35NX0F88U","","","img/flower1.png","75","778.3999999985099","2","0","2","0.7,0.2,0,0,0.7,0.2,0.2,0,0.7",""
"null","","html-keyboard-response","398","265830","0.0-398.0","3JRJSWSMQI76M9V2P9LGCFPMXF5E39","AZ8JL3QNIPY4U","37S0QRNUFB29SLTNXLPAM35NX0F88U","","","<img src=""img/flower1.png"" style=""width:200px;border:14px solid red;"">","null","","","","","",""
"905","","image-keyboard-response","399","266735","0.0-399.0","3JRJSWSMQI76M9V2P9LGCFPMXF5E39","AZ8JL3QNIPY4U","37S0QRNUFB29SLTNXLPAM35NX0F88U","","","img/flower3.png","76","905.7999999970198","3","1","3","0.7,0.2,0,0,0.7,0.2,0.2,0,0.7",""
"null","","html-keyboard-response","400","267037","0.0-400.0","3JRJSWSMQI76M9V2P9LGCFPMXF5E39","AZ8JL3QNIPY4U","37S0QRNUFB29SLTNXLPAM35NX0F88U","","","<img src=""img/flower3.png"" style=""width:200px; border:14px solid green;"">","null","","","","","",""
"529.8999999985099","","image-keyboard-response","401","267567","0.0-401.0","3JRJSWSMQI76M9V2P9LGCFPMXF5E39","AZ8JL3QNIPY4U","37S0QRNUFB29SLTNXLPAM35NX0F88U","","","img/flower4.png","74","530.5","1","1","1","0.7,0.2,0,0,0.7,0.2,0.2,0,0.7",""
"null","","html-keyboard-response","402","267869","0.0-402.0","3JRJSWSMQI76M9V2P9LGCFPMXF5E39","AZ8JL3QNIPY4U","37S0QRNUFB29SLTNXLPAM35NX0F88U","","","<img src=""img/flower4.png"" style=""width:200px; border:14px solid green;"">","null","","","","","",""
"337.6000000014901","","image-keyboard-response","403","268207","0.0-403.0","3JRJSWSMQI76M9V2P9LGCFPMXF5E39","AZ8JL3QNIPY4U","37S0QRNUFB29SLTNXLPAM35NX0F88U","","","img/flower4.png","74","338.4000000022352","1","1","1","0.7,0.2,0,0,0.7,0.2,0.2,0,0.7",""
"null","","html-keyboard-response","404","268509","0.0-404.0","3JRJSWSMQI76M9V2P9LGCFPMXF5E39","AZ8JL3QNIPY4U","37S0QRNUFB29SLTNXLPAM35NX0F88U","","","<img src=""img/flower4.png"" style=""width:200px; border:14px solid green;"">","null","","","","","",""
