"success","trial_type","trial_index","time_elapsed","internal_node_id","assignmentID","mturkID","hitID","view_history","rt","stimulus","key_press","reactionTime","a","r","s","cond","reward_cond","reward_cond_actual","reward_matrix_idx","responses"
"true","fullscreen","0","9114","0.0-0.0","39RP059MEIF91SRSL0O576S7X5FBMN","A10FNV58WR3D0G","335VBRURDJMQFRMOFGHOE9WKSHX9E1","","","","","","","","","","","","",""
"","instructions","1","63370","0.0-1.0","39RP059MEIF91SRSL0O576S7X5FBMN","A10FNV58WR3D0G","335VBRURDJMQFRMOFGHOE9WKSHX9E1","[{""page_index"":0,""viewing_time"":5874.800000011921},{""page_index"":1,""viewing_time"":4480.0999999940395},{""page_index"":2,""viewing_time"":2665.2000000178814},{""page_index"":3,""viewing_time"":931.0999999940395},{""page_index"":4,""viewing_time"":11939},{""page_index"":5,""viewing_time"":5350},{""page_index"":6,""viewing_time"":20249.90000000596},{""page_index"":7,""viewing_time"":2763.899999976158}]","54254.60000002384","","","","","","","","","","",""
"","image-keyboard-response","2","65383","0.0-2.0","39RP059MEIF91SRSL0O576S7X5FBMN","A10FNV58WR3D0G","335VBRURDJMQFRMOFGHOE9WKSHX9E1","","","img/flower4.png","","2012.9000000059605","-1","0","3","1","1,0.333,0.333,0.333,1,0.333,0.333,0.333,1","1,0.333,0.333,0.333,1,0.333,0.333,0.333,1","1",""
"","html-keyboard-response","3","65686","0.0-3.0","39RP059MEIF91SRSL0O576S7X5FBMN","A10FNV58WR3D0G","335VBRURDJMQFRMOFGHOE9WKSHX9E1","","null","<img src=""img/flower4.png"" style=""width:200px;border:14px solid red;"">","null","","","","","","","","",""
"","image-keyboard-response","4","66571","0.0-4.0","39RP059MEIF91SRSL0O576S7X5FBMN","A10FNV58WR3D0G","335VBRURDJMQFRMOFGHOE9WKSHX9E1","","884.4000000059605","img/flower2.png","76","885.4000000059605","3","0","2","1","1,0.333,0.333,0.333,1,0.333,0.333,0.333,1","1,0.333,0.333,0.333,1,0.333,0.333,0.333,1","1",""
"","html-keyboard-response","5","66874","0.0-5.0","39RP059MEIF91SRSL0O576S7X5FBMN","A10FNV58WR3D0G","335VBRURDJMQFRMOFGHOE9WKSHX9E1","","null","<img src=""img/flower2.png"" style=""width:200px;border:14px solid red;"">","null","","","","","","","","",""
"","image-keyboard-response","6","68416","0.0-6.0","39RP059MEIF91SRSL0O576S7X5FBMN","A10FNV58WR3D0G","335VBRURDJMQFRMOFGHOE9WKSHX9E1","","1541.4000000059605","img/flower2.png","74","1542.2000000178814","1","0","2","1","1,0.333,0.333,0.333,1,0.333,0.333,0.333,1","1,0.333,0.333,0.333,1,0.333,0.333,0.333,1","1",""
"","html-keyboard-response","7","68717","0.0-7.0","39RP059MEIF91SRSL0O576S7X5FBMN","A10FNV58WR3D0G","335VBRURDJMQFRMOFGHOE9WKSHX9E1","","null","<img src=""img/flower2.png"" style=""width:200px;border:14px solid red;"">","null","","","","","","","","",""
"","image-keyboard-response","8","69212","0.0-8.0","39RP059MEIF91SRSL0O576S7X5FBMN","A10FNV58WR3D0G","335VBRURDJMQFRMOFGHOE9WKSHX9E1","","493.19999998807907","img/flower2.png","75","494.5","2","1","2","1","1,0.333,0.333,0.333,1,0.333,0.333,0.333,1","1,0.333,0.333,0.333,1,0.333,0.333,0.333,1","1",""
"","html-keyboard-response","9","69514","0.0-9.0","39RP059MEIF91SRSL0O576S7X5FBMN","A10FNV58WR3D0G","335VBRURDJMQFRMOFGHOE9WKSHX9E1","","null","<img src=""img/flower2.png"" style=""width:200px; border:14px solid green;"">","null","","","","","","","","",""
"","image-keyboard-response","10","71325","0.0-10.0","39RP059MEIF91SRSL0O576S7X5FBMN","A10FNV58WR3D0G","335VBRURDJMQFRMOFGHOE9WKSHX9E1","","1809","img/flower2.png","75","1810.2999999821186","2","1","2","1","1,0.333,0.333,0.333,1,0.333,0.333,0.333,1","1,0.333,0.333,0.333,1,0.333,0.333,0.333,1","1",""
"","html-keyboard-response","11","71638","0.0-11.0","39RP059MEIF91SRSL0O576S7X5FBMN","A10FNV58WR3D0G","335VBRURDJMQFRMOFGHOE9WKSHX9E1","","null","<img src=""img/flower2.png"" style=""width:200px; border:14px solid green;"">","null","","","","","","","","",""
"","image-keyboard-response","12","72275","0.0-12.0","39RP059MEIF91SRSL0O576S7X5FBMN","A10FNV58WR3D0G","335VBRURDJMQFRMOFGHOE9WKSHX9E1","","636.2000000178814","img/flower2.png","75","636.7999999821186","2","1","2","1","1,0.333,0.333,0.333,1,0.333,0.333,0.333,1","1,0.333,0.333,0.333,1,0.333,0.333,0.333,1","1",""
"","html-keyboard-response","13","72577","0.0-13.0","39RP059MEIF91SRSL0O576S7X5FBMN","A10FNV58WR3D0G","335VBRURDJMQFRMOFGHOE9WKSHX9E1","","null","<img src=""img/flower2.png"" style=""width:200px; border:14px solid green;"">","null","","","","","","","","",""
"","image-keyboard-response","14","73117","0.0-14.0","39RP059MEIF91SRSL0O576S7X5FBMN","A10FNV58WR3D0G","335VBRURDJMQFRMOFGHOE9WKSHX9E1","","538.7999999821186","img/flower2.png","75","540.2000000178814","2","1","2","1","1,0.333,0.333,0.333,1,0.333,0.333,0.333,1","1,0.333,0.333,0.333,1,0.333,0.333,0.333,1","1",""
"","html-keyboard-response","15","73419","0.0-15.0","39RP059MEIF91SRSL0O576S7X5FBMN","A10FNV58WR3D0G","335VBRURDJMQFRMOFGHOE9WKSHX9E1","","null","<img src=""img/flower2.png"" style=""width:200px; border:14px solid green;"">","null","","","","","","","","",""
"","image-keyboard-response","16","74380","0.0-16.0","39RP059MEIF91SRSL0O576S7X5FBMN","A10FNV58WR3D0G","335VBRURDJMQFRMOFGHOE9WKSHX9E1","","959.8000000119209","img/flower3.png","76","961.0999999940395","3","0","1","1","1,0.333,0.333,0.333,1,0.333,0.333,0.333,1","1,0.333,0.333,0.333,1,0.333,0.333,0.333,1","1",""
"","html-keyboard-response","17","74683","0.0-17.0","39RP059MEIF91SRSL0O576S7X5FBMN","A10FNV58WR3D0G","335VBRURDJMQFRMOFGHOE9WKSHX9E1","","null","<img src=""img/flower3.png"" style=""width:200px;border:14px solid red;"">","null","","","","","","","","",""
"","image-keyboard-response","18","75036","0.0-18.0","39RP059MEIF91SRSL0O576S7X5FBMN","A10FNV58WR3D0G","335VBRURDJMQFRMOFGHOE9WKSHX9E1","","352.5","img/flower3.png","74","353.7999999821186","1","1","1","1","1,0.333,0.333,0.333,1,0.333,0.333,0.333,1","1,0.333,0.333,0.333,1,0.333,0.333,0.333,1","1",""
"","html-keyboard-response","19","75337","0.0-19.0","39RP059MEIF91SRSL0O576S7X5FBMN","A10FNV58WR3D0G","335VBRURDJMQFRMOFGHOE9WKSHX9E1","","null","<img src=""img/flower3.png"" style=""width:200px; border:14px solid green;"">","null","","","","","","","","",""
"","image-keyboard-response","20","76393","0.0-20.0","39RP059MEIF91SRSL0O576S7X5FBMN","A10FNV58WR3D0G","335VBRURDJMQFRMOFGHOE9WKSHX9E1","","1053.300000011921","img/flower2.png","75","1054.7999999821186","2","1","2","1","1,0.333,0.333,0.333,1,0.333,0.333,0.333,1","1,0.333,0.333,0.333,1,0.333,0.333,0.333,1","1",""
"","html-keyboard-response","21","76694","0.0-21.0","39RP059MEIF91SRSL0O576S7X5FBMN","A10FNV58WR3D0G","335VBRURDJMQFRMOFGHOE9WKSHX9E1","","null","<img src=""img/flower2.png"" style=""width:200px; border:14px solid green;"">","null","","","","","","","","",""
"","image-keyboard-response","22","78652","0.0-22.0","39RP059MEIF91SRSL0O576S7X5FBMN","A10FNV58WR3D0G","335VBRURDJMQFRMOFGHOE9WKSHX9E1","","1956.0999999940395","img/flower2.png","75","1957.199999988079","2","1","2","1","1,0.333,0.333,0.333,1,0.333,0.333,0.333,1","1,0.333,0.333,0.333,1,0.333,0.333,0.333,1","1",""
"","html-keyboard-response","23","78953","0.0-23.0","39RP059MEIF91SRSL0O576S7X5FBMN","A10FNV58WR3D0G","335VBRURDJMQFRMOFGHOE9WKSHX9E1","","null","<img src=""img/flower2.png"" style=""width:200px; border:14px solid green;"">","null","","","","","","","","",""
"","image-keyboard-response","24","79589","0.0-24.0","39RP059MEIF91SRSL0O576S7X5FBMN","A10FNV58WR3D0G","335VBRURDJMQFRMOFGHOE9WKSHX9E1","","634.9000000059605","img/flower4.png","74","635.9000000059605","1","0","3","1","1,0.333,0.333,0.333,1,0.333,0.333,0.333,1","1,0.333,0.333,0.333,1,0.333,0.333,0.333,1","1",""
"","html-keyboard-response","25","79890","0.0-25.0","39RP059MEIF91SRSL0O576S7X5FBMN","A10FNV58WR3D0G","335VBRURDJMQFRMOFGHOE9WKSHX9E1","","null","<img src=""img/flower4.png"" style=""width:200px;border:14px solid red;"">","null","","","","","","","","",""
"","image-keyboard-response","26","81150","0.0-26.0","39RP059MEIF91SRSL0O576S7X5FBMN","A10FNV58WR3D0G","335VBRURDJMQFRMOFGHOE9WKSHX9E1","","1258.7000000178814","img/flower3.png","74","1259.9000000059605","1","1","1","1","1,0.333,0.333,0.333,1,0.333,0.333,0.333,1","1,0.333,0.333,0.333,1,0.333,0.333,0.333,1","1",""
"","html-keyboard-response","27","81452","0.0-27.0","39RP059MEIF91SRSL0O576S7X5FBMN","A10FNV58WR3D0G","335VBRURDJMQFRMOFGHOE9WKSHX9E1","","null","<img src=""img/flower3.png"" style=""width:200px; border:14px solid green;"">","null","","","","","","","","",""
"","image-keyboard-response","28","83454","0.0-28.0","39RP059MEIF91SRSL0O576S7X5FBMN","A10FNV58WR3D0G","335VBRURDJMQFRMOFGHOE9WKSHX9E1","","","img/flower3.png","","2001.9000000059605","-1","0","1","1","1,0.333,0.333,0.333,1,0.333,0.333,0.333,1","1,0.333,0.333,0.333,1,0.333,0.333,0.333,1","1",""
"","html-keyboard-response","29","83756","0.0-29.0","39RP059MEIF91SRSL0O576S7X5FBMN","A10FNV58WR3D0G","335VBRURDJMQFRMOFGHOE9WKSHX9E1","","null","<img src=""img/flower3.png"" style=""width:200px;border:14px solid red;"">","null","","","","","","","","",""
"","image-keyboard-response","30","85041","0.0-30.0","39RP059MEIF91SRSL0O576S7X5FBMN","A10FNV58WR3D0G","335VBRURDJMQFRMOFGHOE9WKSHX9E1","","1284.4000000059605","img/flower4.png","76","1285.5","3","1","3","1","1,0.333,0.333,0.333,1,0.333,0.333,0.333,1","1,0.333,0.333,0.333,1,0.333,0.333,0.333,1","1",""
"","html-keyboard-response","31","85344","0.0-31.0","39RP059MEIF91SRSL0O576S7X5FBMN","A10FNV58WR3D0G","335VBRURDJMQFRMOFGHOE9WKSHX9E1","","null","<img src=""img/flower4.png"" style=""width:200px; border:14px solid green;"">","null","","","","","","","","",""
"","image-keyboard-response","32","87352","0.0-32.0","39RP059MEIF91SRSL0O576S7X5FBMN","A10FNV58WR3D0G","335VBRURDJMQFRMOFGHOE9WKSHX9E1","","","img/flower4.png","","2008.5","-1","0","3","1","1,0.333,0.333,0.333,1,0.333,0.333,0.333,1","1,0.333,0.333,0.333,1,0.333,0.333,0.333,1","1",""
"","html-keyboard-response","33","87654","0.0-33.0","39RP059MEIF91SRSL0O576S7X5FBMN","A10FNV58WR3D0G","335VBRURDJMQFRMOFGHOE9WKSHX9E1","","null","<img src=""img/flower4.png"" style=""width:200px;border:14px solid red;"">","null","","","","","","","","",""
"","image-keyboard-response","34","87807","0.0-34.0","39RP059MEIF91SRSL0O576S7X5FBMN","A10FNV58WR3D0G","335VBRURDJMQFRMOFGHOE9WKSHX9E1","","151.40000000596046","img/flower3.png","76","152.60000002384186","3","1","1","1","1,0.333,0.333,0.333,1,0.333,0.333,0.333,1","1,0.333,0.333,0.333,1,0.333,0.333,0.333,1","1",""
"","html-keyboard-response","35","88109","0.0-35.0","39RP059MEIF91SRSL0O576S7X5FBMN","A10FNV58WR3D0G","335VBRURDJMQFRMOFGHOE9WKSHX9E1","","null","<img src=""img/flower3.png"" style=""width:200px; border:14px solid green;"">","null","","","","","","","","",""
"","image-keyboard-response","36","88820","0.0-36.0","39RP059MEIF91SRSL0O576S7X5FBMN","A10FNV58WR3D0G","335VBRURDJMQFRMOFGHOE9WKSHX9E1","","709.7000000178814","img/flower3.png","74","710.9000000059605","1","1","1","1","1,0.333,0.333,0.333,1,0.333,0.333,0.333,1","1,0.333,0.333,0.333,1,0.333,0.333,0.333,1","1",""
"","html-keyboard-response","37","89122","0.0-37.0","39RP059MEIF91SRSL0O576S7X5FBMN","A10FNV58WR3D0G","335VBRURDJMQFRMOFGHOE9WKSHX9E1","","null","<img src=""img/flower3.png"" style=""width:200px; border:14px solid green;"">","null","","","","","","","","",""
"","image-keyboard-response","38","89939","0.0-38.0","39RP059MEIF91SRSL0O576S7X5FBMN","A10FNV58WR3D0G","335VBRURDJMQFRMOFGHOE9WKSHX9E1","","816.0999999940395","img/flower4.png","76","817.0999999940395","3","1","3","1","1,0.333,0.333,0.333,1,0.333,0.333,0.333,1","1,0.333,0.333,0.333,1,0.333,0.333,0.333,1","1",""
"","html-keyboard-response","39","90242","0.0-39.0","39RP059MEIF91SRSL0O576S7X5FBMN","A10FNV58WR3D0G","335VBRURDJMQFRMOFGHOE9WKSHX9E1","","null","<img src=""img/flower4.png"" style=""width:200px; border:14px solid green;"">","null","","","","","","","","",""
"","image-keyboard-response","40","91267","0.0-40.0","39RP059MEIF91SRSL0O576S7X5FBMN","A10FNV58WR3D0G","335VBRURDJMQFRMOFGHOE9WKSHX9E1","","1024.5","img/flower3.png","74","1025.5","1","1","1","1","1,0.333,0.333,0.333,1,0.333,0.333,0.333,1","1,0.333,0.333,0.333,1,0.333,0.333,0.333,1","1",""
"","html-keyboard-response","41","91569","0.0-41.0","39RP059MEIF91SRSL0O576S7X5FBMN","A10FNV58WR3D0G","335VBRURDJMQFRMOFGHOE9WKSHX9E1","","null","<img src=""img/flower3.png"" style=""width:200px; border:14px solid green;"">","null","","","","","","","","",""
"","image-keyboard-response","42","93571","0.0-42.0","39RP059MEIF91SRSL0O576S7X5FBMN","A10FNV58WR3D0G","335VBRURDJMQFRMOFGHOE9WKSHX9E1","","","img/flower3.png","","2002","-1","0","1","1","1,0.333,0.333,0.333,1,0.333,0.333,0.333,1","1,0.333,0.333,0.333,1,0.333,0.333,0.333,1","1",""
"","html-keyboard-response","43","93874","0.0-43.0","39RP059MEIF91SRSL0O576S7X5FBMN","A10FNV58WR3D0G","335VBRURDJMQFRMOFGHOE9WKSHX9E1","","null","<img src=""img/flower3.png"" style=""width:200px;border:14px solid red;"">","null","","","","","","","","",""
"","image-keyboard-response","44","94289","0.0-44.0","39RP059MEIF91SRSL0O576S7X5FBMN","A10FNV58WR3D0G","335VBRURDJMQFRMOFGHOE9WKSHX9E1","","414.7000000178814","img/flower3.png","74","415.59999999403954","1","1","1","1","1,0.333,0.333,0.333,1,0.333,0.333,0.333,1","1,0.333,0.333,0.333,1,0.333,0.333,0.333,1","1",""
"","html-keyboard-response","45","94590","0.0-45.0","39RP059MEIF91SRSL0O576S7X5FBMN","A10FNV58WR3D0G","335VBRURDJMQFRMOFGHOE9WKSHX9E1","","null","<img src=""img/flower3.png"" style=""width:200px; border:14px solid green;"">","null","","","","","","","","",""
"","image-keyboard-response","46","95239","0.0-46.0","39RP059MEIF91SRSL0O576S7X5FBMN","A10FNV58WR3D0G","335VBRURDJMQFRMOFGHOE9WKSHX9E1","","647.5","img/flower4.png","76","649.0999999940395","3","1","3","1","1,0.333,0.333,0.333,1,0.333,0.333,0.333,1","1,0.333,0.333,0.333,1,0.333,0.333,0.333,1","1",""
"","html-keyboard-response","47","95541","0.0-47.0","39RP059MEIF91SRSL0O576S7X5FBMN","A10FNV58WR3D0G","335VBRURDJMQFRMOFGHOE9WKSHX9E1","","null","<img src=""img/flower4.png"" style=""width:200px; border:14px solid green;"">","null","","","","","","","","",""
"","image-keyboard-response","48","96146","0.0-48.0","39RP059MEIF91SRSL0O576S7X5FBMN","A10FNV58WR3D0G","335VBRURDJMQFRMOFGHOE9WKSHX9E1","","604.1999999880791","img/flower2.png","75","605.2000000178814","2","1","2","1","1,0.333,0.333,0.333,1,0.333,0.333,0.333,1","1,0.333,0.333,0.333,1,0.333,0.333,0.333,1","1",""
"","html-keyboard-response","49","96448","0.0-49.0","39RP059MEIF91SRSL0O576S7X5FBMN","A10FNV58WR3D0G","335VBRURDJMQFRMOFGHOE9WKSHX9E1","","null","<img src=""img/flower2.png"" style=""width:200px; border:14px solid green;"">","null","","","","","","","","",""
"","image-keyboard-response","50","98450","0.0-50.0","39RP059MEIF91SRSL0O576S7X5FBMN","A10FNV58WR3D0G","335VBRURDJMQFRMOFGHOE9WKSHX9E1","","","img/flower2.png","","2001.5999999940395","-1","0","2","1","1,0.333,0.333,0.333,1,0.333,0.333,0.333,1","1,0.333,0.333,0.333,1,0.333,0.333,0.333,1","1",""
"","html-keyboard-response","51","98752","0.0-51.0","39RP059MEIF91SRSL0O576S7X5FBMN","A10FNV58WR3D0G","335VBRURDJMQFRMOFGHOE9WKSHX9E1","","null","<img src=""img/flower2.png"" style=""width:200px;border:14px solid red;"">","null","","","","","","","","",""
"","image-keyboard-response","52","99174","0.0-52.0","39RP059MEIF91SRSL0O576S7X5FBMN","A10FNV58WR3D0G","335VBRURDJMQFRMOFGHOE9WKSHX9E1","","421.19999998807907","img/flower2.png","75","422.2999999821186","2","1","2","1","1,0.333,0.333,0.333,1,0.333,0.333,0.333,1","1,0.333,0.333,0.333,1,0.333,0.333,0.333,1","1",""
"","html-keyboard-response","53","99477","0.0-53.0","39RP059MEIF91SRSL0O576S7X5FBMN","A10FNV58WR3D0G","335VBRURDJMQFRMOFGHOE9WKSHX9E1","","null","<img src=""img/flower2.png"" style=""width:200px; border:14px solid green;"">","null","","","","","","","","",""
"","image-keyboard-response","54","101198","0.0-54.0","39RP059MEIF91SRSL0O576S7X5FBMN","A10FNV58WR3D0G","335VBRURDJMQFRMOFGHOE9WKSHX9E1","","1720.7000000178814","img/flower2.png","75","1721.5999999940395","2","1","2","1","1,0.333,0.333,0.333,1,0.333,0.333,0.333,1","1,0.333,0.333,0.333,1,0.333,0.333,0.333,1","1",""
"","html-keyboard-response","55","101500","0.0-55.0","39RP059MEIF91SRSL0O576S7X5FBMN","A10FNV58WR3D0G","335VBRURDJMQFRMOFGHOE9WKSHX9E1","","null","<img src=""img/flower2.png"" style=""width:200px; border:14px solid green;"">","null","","","","","","","","",""
"","image-keyboard-response","56","102455","0.0-56.0","39RP059MEIF91SRSL0O576S7X5FBMN","A10FNV58WR3D0G","335VBRURDJMQFRMOFGHOE9WKSHX9E1","","953.5","img/flower2.png","75","954.7000000178814","2","1","2","1","1,0.333,0.333,0.333,1,0.333,0.333,0.333,1","1,0.333,0.333,0.333,1,0.333,0.333,0.333,1","1",""
"","html-keyboard-response","57","102756","0.0-57.0","39RP059MEIF91SRSL0O576S7X5FBMN","A10FNV58WR3D0G","335VBRURDJMQFRMOFGHOE9WKSHX9E1","","null","<img src=""img/flower2.png"" style=""width:200px; border:14px solid green;"">","null","","","","","","","","",""
"","image-keyboard-response","58","103624","0.0-58.0","39RP059MEIF91SRSL0O576S7X5FBMN","A10FNV58WR3D0G","335VBRURDJMQFRMOFGHOE9WKSHX9E1","","866.5","img/flower3.png","74","867.6999999880791","1","1","1","1","1,0.333,0.333,0.333,1,0.333,0.333,0.333,1","1,0.333,0.333,0.333,1,0.333,0.333,0.333,1","1",""
"","html-keyboard-response","59","103926","0.0-59.0","39RP059MEIF91SRSL0O576S7X5FBMN","A10FNV58WR3D0G","335VBRURDJMQFRMOFGHOE9WKSHX9E1","","null","<img src=""img/flower3.png"" style=""width:200px; border:14px solid green;"">","null","","","","","","","","",""
"","image-keyboard-response","60","104734","0.0-60.0","39RP059MEIF91SRSL0O576S7X5FBMN","A10FNV58WR3D0G","335VBRURDJMQFRMOFGHOE9WKSHX9E1","","806.8000000119209","img/flower2.png","75","808.0999999940395","2","1","2","1","1,0.333,0.333,0.333,1,0.333,0.333,0.333,1","1,0.333,0.333,0.333,1,0.333,0.333,0.333,1","1",""
"","html-keyboard-response","61","105036","0.0-61.0","39RP059MEIF91SRSL0O576S7X5FBMN","A10FNV58WR3D0G","335VBRURDJMQFRMOFGHOE9WKSHX9E1","","null","<img src=""img/flower2.png"" style=""width:200px; border:14px solid green;"">","null","","","","","","","","",""
"","image-keyboard-response","62","105690","0.0-62.0","39RP059MEIF91SRSL0O576S7X5FBMN","A10FNV58WR3D0G","335VBRURDJMQFRMOFGHOE9WKSHX9E1","","652.5","img/flower4.png","76","653.7999999821186","3","1","3","1","1,0.333,0.333,0.333,1,0.333,0.333,0.333,1","1,0.333,0.333,0.333,1,0.333,0.333,0.333,1","1",""
"","html-keyboard-response","63","105991","0.0-63.0","39RP059MEIF91SRSL0O576S7X5FBMN","A10FNV58WR3D0G","335VBRURDJMQFRMOFGHOE9WKSHX9E1","","null","<img src=""img/flower4.png"" style=""width:200px; border:14px solid green;"">","null","","","","","","","","",""
"","image-keyboard-response","64","106748","0.0-64.0","39RP059MEIF91SRSL0O576S7X5FBMN","A10FNV58WR3D0G","335VBRURDJMQFRMOFGHOE9WKSHX9E1","","755.0999999940395","img/flower3.png","74","756.4000000059605","1","1","1","1","1,0.333,0.333,0.333,1,0.333,0.333,0.333,1","1,0.333,0.333,0.333,1,0.333,0.333,0.333,1","1",""
"","html-keyboard-response","65","107049","0.0-65.0","39RP059MEIF91SRSL0O576S7X5FBMN","A10FNV58WR3D0G","335VBRURDJMQFRMOFGHOE9WKSHX9E1","","null","<img src=""img/flower3.png"" style=""width:200px; border:14px solid green;"">","null","","","","","","","","",""
"","image-keyboard-response","66","108714","0.0-66.0","39RP059MEIF91SRSL0O576S7X5FBMN","A10FNV58WR3D0G","335VBRURDJMQFRMOFGHOE9WKSHX9E1","","1664.0999999940395","img/flower3.png","74","1665.0999999940395","1","1","1","1","1,0.333,0.333,0.333,1,0.333,0.333,0.333,1","1,0.333,0.333,0.333,1,0.333,0.333,0.333,1","1",""
"","html-keyboard-response","67","109018","0.0-67.0","39RP059MEIF91SRSL0O576S7X5FBMN","A10FNV58WR3D0G","335VBRURDJMQFRMOFGHOE9WKSHX9E1","","null","<img src=""img/flower3.png"" style=""width:200px; border:14px solid green;"">","null","","","","","","","","",""
"","image-keyboard-response","68","109695","0.0-68.0","39RP059MEIF91SRSL0O576S7X5FBMN","A10FNV58WR3D0G","335VBRURDJMQFRMOFGHOE9WKSHX9E1","","675.2000000178814","img/flower2.png","75","676.4000000059605","2","1","2","1","1,0.333,0.333,0.333,1,0.333,0.333,0.333,1","1,0.333,0.333,0.333,1,0.333,0.333,0.333,1","1",""
"","html-keyboard-response","69","109996","0.0-69.0","39RP059MEIF91SRSL0O576S7X5FBMN","A10FNV58WR3D0G","335VBRURDJMQFRMOFGHOE9WKSHX9E1","","null","<img src=""img/flower2.png"" style=""width:200px; border:14px solid green;"">","null","","","","","","","","",""
"","image-keyboard-response","70","111778","0.0-70.0","39RP059MEIF91SRSL0O576S7X5FBMN","A10FNV58WR3D0G","335VBRURDJMQFRMOFGHOE9WKSHX9E1","","1780.4000000059605","img/flower2.png","75","1781.7000000178814","2","1","2","1","1,0.333,0.333,0.333,1,0.333,0.333,0.333,1","1,0.333,0.333,0.333,1,0.333,0.333,0.333,1","1",""
"","html-keyboard-response","71","112079","0.0-71.0","39RP059MEIF91SRSL0O576S7X5FBMN","A10FNV58WR3D0G","335VBRURDJMQFRMOFGHOE9WKSHX9E1","","null","<img src=""img/flower2.png"" style=""width:200px; border:14px solid green;"">","null","","","","","","","","",""
"","image-keyboard-response","72","113041","0.0-72.0","39RP059MEIF91SRSL0O576S7X5FBMN","A10FNV58WR3D0G","335VBRURDJMQFRMOFGHOE9WKSHX9E1","","960.9000000059605","img/flower4.png","76","961.7999999821186","3","1","3","1","1,0.333,0.333,0.333,1,0.333,0.333,0.333,1","1,0.333,0.333,0.333,1,0.333,0.333,0.333,1","1",""
"","html-keyboard-response","73","113344","0.0-73.0","39RP059MEIF91SRSL0O576S7X5FBMN","A10FNV58WR3D0G","335VBRURDJMQFRMOFGHOE9WKSHX9E1","","null","<img src=""img/flower4.png"" style=""width:200px; border:14px solid green;"">","null","","","","","","","","",""
"","image-keyboard-response","74","113940","0.0-74.0","39RP059MEIF91SRSL0O576S7X5FBMN","A10FNV58WR3D0G","335VBRURDJMQFRMOFGHOE9WKSHX9E1","","595.1999999880791","img/flower3.png","74","596.3000000119209","1","1","1","1","1,0.333,0.333,0.333,1,0.333,0.333,0.333,1","1,0.333,0.333,0.333,1,0.333,0.333,0.333,1","1",""
"","html-keyboard-response","75","114241","0.0-75.0","39RP059MEIF91SRSL0O576S7X5FBMN","A10FNV58WR3D0G","335VBRURDJMQFRMOFGHOE9WKSHX9E1","","null","<img src=""img/flower3.png"" style=""width:200px; border:14px solid green;"">","null","","","","","","","","",""
"","image-keyboard-response","76","114912","0.0-76.0","39RP059MEIF91SRSL0O576S7X5FBMN","A10FNV58WR3D0G","335VBRURDJMQFRMOFGHOE9WKSHX9E1","","669.8000000119209","img/flower4.png","76","670.4000000059605","3","1","3","1","1,0.333,0.333,0.333,1,0.333,0.333,0.333,1","1,0.333,0.333,0.333,1,0.333,0.333,0.333,1","1",""
"","html-keyboard-response","77","115214","0.0-77.0","39RP059MEIF91SRSL0O576S7X5FBMN","A10FNV58WR3D0G","335VBRURDJMQFRMOFGHOE9WKSHX9E1","","null","<img src=""img/flower4.png"" style=""width:200px; border:14px solid green;"">","null","","","","","","","","",""
"","image-keyboard-response","78","117216","0.0-78.0","39RP059MEIF91SRSL0O576S7X5FBMN","A10FNV58WR3D0G","335VBRURDJMQFRMOFGHOE9WKSHX9E1","","","img/flower4.png","","2001.5999999940395","-1","0","3","1","1,0.333,0.333,0.333,1,0.333,0.333,0.333,1","1,0.333,0.333,0.333,1,0.333,0.333,0.333,1","1",""
"","html-keyboard-response","79","117518","0.0-79.0","39RP059MEIF91SRSL0O576S7X5FBMN","A10FNV58WR3D0G","335VBRURDJMQFRMOFGHOE9WKSHX9E1","","null","<img src=""img/flower4.png"" style=""width:200px;border:14px solid red;"">","null","","","","","","","","",""
"","image-keyboard-response","80","118421","0.0-80.0","39RP059MEIF91SRSL0O576S7X5FBMN","A10FNV58WR3D0G","335VBRURDJMQFRMOFGHOE9WKSHX9E1","","901.2000000178814","img/flower2.png","75","902.1999999880791","2","1","2","1","1,0.333,0.333,0.333,1,0.333,0.333,0.333,1","1,0.333,0.333,0.333,1,0.333,0.333,0.333,1","1",""
"","html-keyboard-response","81","118724","0.0-81.0","39RP059MEIF91SRSL0O576S7X5FBMN","A10FNV58WR3D0G","335VBRURDJMQFRMOFGHOE9WKSHX9E1","","null","<img src=""img/flower2.png"" style=""width:200px; border:14px solid green;"">","null","","","","","","","","",""
"","image-keyboard-response","82","119474","0.0-82.0","39RP059MEIF91SRSL0O576S7X5FBMN","A10FNV58WR3D0G","335VBRURDJMQFRMOFGHOE9WKSHX9E1","","749","img/flower3.png","74","749.9000000059605","1","1","1","1","1,0.333,0.333,0.333,1,0.333,0.333,0.333,1","1,0.333,0.333,0.333,1,0.333,0.333,0.333,1","1",""
"","html-keyboard-response","83","119775","0.0-83.0","39RP059MEIF91SRSL0O576S7X5FBMN","A10FNV58WR3D0G","335VBRURDJMQFRMOFGHOE9WKSHX9E1","","null","<img src=""img/flower3.png"" style=""width:200px; border:14px solid green;"">","null","","","","","","","","",""
"","image-keyboard-response","84","120450","0.0-84.0","39RP059MEIF91SRSL0O576S7X5FBMN","A10FNV58WR3D0G","335VBRURDJMQFRMOFGHOE9WKSHX9E1","","672.9000000059605","img/flower2.png","75","673.9000000059605","2","1","2","1","1,0.333,0.333,0.333,1,0.333,0.333,0.333,1","1,0.333,0.333,0.333,1,0.333,0.333,0.333,1","1",""
"","html-keyboard-response","85","120751","0.0-85.0","39RP059MEIF91SRSL0O576S7X5FBMN","A10FNV58WR3D0G","335VBRURDJMQFRMOFGHOE9WKSHX9E1","","null","<img src=""img/flower2.png"" style=""width:200px; border:14px solid green;"">","null","","","","","","","","",""
"","image-keyboard-response","86","121516","0.0-86.0","39RP059MEIF91SRSL0O576S7X5FBMN","A10FNV58WR3D0G","335VBRURDJMQFRMOFGHOE9WKSHX9E1","","763","img/flower4.png","76","764.1999999880791","3","1","3","1","1,0.333,0.333,0.333,1,0.333,0.333,0.333,1","1,0.333,0.333,0.333,1,0.333,0.333,0.333,1","1",""
"","html-keyboard-response","87","121823","0.0-87.0","39RP059MEIF91SRSL0O576S7X5FBMN","A10FNV58WR3D0G","335VBRURDJMQFRMOFGHOE9WKSHX9E1","","null","<img src=""img/flower4.png"" style=""width:200px; border:14px solid green;"">","null","","","","","","","","",""
"","image-keyboard-response","88","122452","0.0-88.0","39RP059MEIF91SRSL0O576S7X5FBMN","A10FNV58WR3D0G","335VBRURDJMQFRMOFGHOE9WKSHX9E1","","628.1999999880791","img/flower3.png","74","629.3000000119209","1","1","1","1","1,0.333,0.333,0.333,1,0.333,0.333,0.333,1","1,0.333,0.333,0.333,1,0.333,0.333,0.333,1","1",""
"","html-keyboard-response","89","122754","0.0-89.0","39RP059MEIF91SRSL0O576S7X5FBMN","A10FNV58WR3D0G","335VBRURDJMQFRMOFGHOE9WKSHX9E1","","null","<img src=""img/flower3.png"" style=""width:200px; border:14px solid green;"">","null","","","","","","","","",""
"","image-keyboard-response","90","123482","0.0-90.0","39RP059MEIF91SRSL0O576S7X5FBMN","A10FNV58WR3D0G","335VBRURDJMQFRMOFGHOE9WKSHX9E1","","727.3000000119209","img/flower4.png","76","728.5999999940395","3","1","3","1","1,0.333,0.333,0.333,1,0.333,0.333,0.333,1","1,0.333,0.333,0.333,1,0.333,0.333,0.333,1","1",""
"","html-keyboard-response","91","123784","0.0-91.0","39RP059MEIF91SRSL0O576S7X5FBMN","A10FNV58WR3D0G","335VBRURDJMQFRMOFGHOE9WKSHX9E1","","null","<img src=""img/flower4.png"" style=""width:200px; border:14px solid green;"">","null","","","","","","","","",""
"","image-keyboard-response","92","124386","0.0-92.0","39RP059MEIF91SRSL0O576S7X5FBMN","A10FNV58WR3D0G","335VBRURDJMQFRMOFGHOE9WKSHX9E1","","600.4000000059605","img/flower4.png","76","601.5","3","1","3","1","1,0.333,0.333,0.333,1,0.333,0.333,0.333,1","1,0.333,0.333,0.333,1,0.333,0.333,0.333,1","1",""
"","html-keyboard-response","93","124687","0.0-93.0","39RP059MEIF91SRSL0O576S7X5FBMN","A10FNV58WR3D0G","335VBRURDJMQFRMOFGHOE9WKSHX9E1","","null","<img src=""img/flower4.png"" style=""width:200px; border:14px solid green;"">","null","","","","","","","","",""
"","image-keyboard-response","94","125220","0.0-94.0","39RP059MEIF91SRSL0O576S7X5FBMN","A10FNV58WR3D0G","335VBRURDJMQFRMOFGHOE9WKSHX9E1","","531.2000000178814","img/flower4.png","76","532.5999999940395","3","1","3","1","1,0.333,0.333,0.333,1,0.333,0.333,0.333,1","1,0.333,0.333,0.333,1,0.333,0.333,0.333,1","1",""
"","html-keyboard-response","95","125521","0.0-95.0","39RP059MEIF91SRSL0O576S7X5FBMN","A10FNV58WR3D0G","335VBRURDJMQFRMOFGHOE9WKSHX9E1","","null","<img src=""img/flower4.png"" style=""width:200px; border:14px solid green;"">","null","","","","","","","","",""
"","image-keyboard-response","96","126255","0.0-96.0","39RP059MEIF91SRSL0O576S7X5FBMN","A10FNV58WR3D0G","335VBRURDJMQFRMOFGHOE9WKSHX9E1","","731.7999999821186","img/flower3.png","74","733","1","1","1","1","1,0.333,0.333,0.333,1,0.333,0.333,0.333,1","1,0.333,0.333,0.333,1,0.333,0.333,0.333,1","1",""
"","html-keyboard-response","97","126556","0.0-97.0","39RP059MEIF91SRSL0O576S7X5FBMN","A10FNV58WR3D0G","335VBRURDJMQFRMOFGHOE9WKSHX9E1","","null","<img src=""img/flower3.png"" style=""width:200px; border:14px solid green;"">","null","","","","","","","","",""
"","image-keyboard-response","98","127205","0.0-98.0","39RP059MEIF91SRSL0O576S7X5FBMN","A10FNV58WR3D0G","335VBRURDJMQFRMOFGHOE9WKSHX9E1","","647.5999999940395","img/flower2.png","75","648.8000000119209","2","1","2","1","1,0.333,0.333,0.333,1,0.333,0.333,0.333,1","1,0.333,0.333,0.333,1,0.333,0.333,0.333,1","1",""
"","html-keyboard-response","99","127507","0.0-99.0","39RP059MEIF91SRSL0O576S7X5FBMN","A10FNV58WR3D0G","335VBRURDJMQFRMOFGHOE9WKSHX9E1","","null","<img src=""img/flower2.png"" style=""width:200px; border:14px solid green;"">","null","","","","","","","","",""
"","image-keyboard-response","100","128135","0.0-100.0","39RP059MEIF91SRSL0O576S7X5FBMN","A10FNV58WR3D0G","335VBRURDJMQFRMOFGHOE9WKSHX9E1","","626.6999999880791","img/flower4.png","76","627.8000000119209","3","1","3","1","1,0.333,0.333,0.333,1,0.333,0.333,0.333,1","1,0.333,0.333,0.333,1,0.333,0.333,0.333,1","1",""
"","html-keyboard-response","101","128437","0.0-101.0","39RP059MEIF91SRSL0O576S7X5FBMN","A10FNV58WR3D0G","335VBRURDJMQFRMOFGHOE9WKSHX9E1","","null","<img src=""img/flower4.png"" style=""width:200px; border:14px solid green;"">","null","","","","","","","","",""
"","image-keyboard-response","102","129117","0.0-102.0","39RP059MEIF91SRSL0O576S7X5FBMN","A10FNV58WR3D0G","335VBRURDJMQFRMOFGHOE9WKSHX9E1","","678.5999999940395","img/flower3.png","74","679.8000000119209","1","1","1","1","1,0.333,0.333,0.333,1,0.333,0.333,0.333,1","1,0.333,0.333,0.333,1,0.333,0.333,0.333,1","1",""
"","html-keyboard-response","103","129418","0.0-103.0","39RP059MEIF91SRSL0O576S7X5FBMN","A10FNV58WR3D0G","335VBRURDJMQFRMOFGHOE9WKSHX9E1","","null","<img src=""img/flower3.png"" style=""width:200px; border:14px solid green;"">","null","","","","","","","","",""
"","image-keyboard-response","104","130497","0.0-104.0","39RP059MEIF91SRSL0O576S7X5FBMN","A10FNV58WR3D0G","335VBRURDJMQFRMOFGHOE9WKSHX9E1","","1077.300000011921","img/flower4.png","76","1078.4000000059605","3","1","3","1","1,0.333,0.333,0.333,1,0.333,0.333,0.333,1","1,0.333,0.333,0.333,1,0.333,0.333,0.333,1","1",""
"","html-keyboard-response","105","130798","0.0-105.0","39RP059MEIF91SRSL0O576S7X5FBMN","A10FNV58WR3D0G","335VBRURDJMQFRMOFGHOE9WKSHX9E1","","null","<img src=""img/flower4.png"" style=""width:200px; border:14px solid green;"">","null","","","","","","","","",""
"","image-keyboard-response","106","131899","0.0-106.0","39RP059MEIF91SRSL0O576S7X5FBMN","A10FNV58WR3D0G","335VBRURDJMQFRMOFGHOE9WKSHX9E1","","1099.7999999821186","img/flower4.png","76","1100.699999988079","3","1","3","1","1,0.333,0.333,0.333,1,0.333,0.333,0.333,1","1,0.333,0.333,0.333,1,0.333,0.333,0.333,1","1",""
"","html-keyboard-response","107","132201","0.0-107.0","39RP059MEIF91SRSL0O576S7X5FBMN","A10FNV58WR3D0G","335VBRURDJMQFRMOFGHOE9WKSHX9E1","","null","<img src=""img/flower4.png"" style=""width:200px; border:14px solid green;"">","null","","","","","","","","",""
"","image-keyboard-response","108","133083","0.0-108.0","39RP059MEIF91SRSL0O576S7X5FBMN","A10FNV58WR3D0G","335VBRURDJMQFRMOFGHOE9WKSHX9E1","","881.2999999821186","img/flower2.png","75","882.4000000059605","2","1","2","1","1,0.333,0.333,0.333,1,0.333,0.333,0.333,1","1,0.333,0.333,0.333,1,0.333,0.333,0.333,1","1",""
"","html-keyboard-response","109","133385","0.0-109.0","39RP059MEIF91SRSL0O576S7X5FBMN","A10FNV58WR3D0G","335VBRURDJMQFRMOFGHOE9WKSHX9E1","","null","<img src=""img/flower2.png"" style=""width:200px; border:14px solid green;"">","null","","","","","","","","",""
"","image-keyboard-response","110","133924","0.0-110.0","39RP059MEIF91SRSL0O576S7X5FBMN","A10FNV58WR3D0G","335VBRURDJMQFRMOFGHOE9WKSHX9E1","","538","img/flower2.png","75","539.0999999940395","2","1","2","1","1,0.333,0.333,0.333,1,0.333,0.333,0.333,1","1,0.333,0.333,0.333,1,0.333,0.333,0.333,1","1",""
"","html-keyboard-response","111","134225","0.0-111.0","39RP059MEIF91SRSL0O576S7X5FBMN","A10FNV58WR3D0G","335VBRURDJMQFRMOFGHOE9WKSHX9E1","","null","<img src=""img/flower2.png"" style=""width:200px; border:14px solid green;"">","null","","","","","","","","",""
"","image-keyboard-response","112","134907","0.0-112.0","39RP059MEIF91SRSL0O576S7X5FBMN","A10FNV58WR3D0G","335VBRURDJMQFRMOFGHOE9WKSHX9E1","","679.9000000059605","img/flower3.png","74","681.1000000238419","1","1","1","1","1,0.333,0.333,0.333,1,0.333,0.333,0.333,1","1,0.333,0.333,0.333,1,0.333,0.333,0.333,1","1",""
"","html-keyboard-response","113","135209","0.0-113.0","39RP059MEIF91SRSL0O576S7X5FBMN","A10FNV58WR3D0G","335VBRURDJMQFRMOFGHOE9WKSHX9E1","","null","<img src=""img/flower3.png"" style=""width:200px; border:14px solid green;"">","null","","","","","","","","",""
"","image-keyboard-response","114","135858","0.0-114.0","39RP059MEIF91SRSL0O576S7X5FBMN","A10FNV58WR3D0G","335VBRURDJMQFRMOFGHOE9WKSHX9E1","","647.4000000059605","img/flower3.png","74","648.7000000178814","1","1","1","1","1,0.333,0.333,0.333,1,0.333,0.333,0.333,1","1,0.333,0.333,0.333,1,0.333,0.333,0.333,1","1",""
"","html-keyboard-response","115","136160","0.0-115.0","39RP059MEIF91SRSL0O576S7X5FBMN","A10FNV58WR3D0G","335VBRURDJMQFRMOFGHOE9WKSHX9E1","","null","<img src=""img/flower3.png"" style=""width:200px; border:14px solid green;"">","null","","","","","","","","",""
"","image-keyboard-response","116","136720","0.0-116.0","39RP059MEIF91SRSL0O576S7X5FBMN","A10FNV58WR3D0G","335VBRURDJMQFRMOFGHOE9WKSHX9E1","","559.3000000119209","img/flower2.png","76","559.8000000119209","3","0","2","1","1,0.333,0.333,0.333,1,0.333,0.333,0.333,1","1,0.333,0.333,0.333,1,0.333,0.333,0.333,1","1",""
"","html-keyboard-response","117","137022","0.0-117.0","39RP059MEIF91SRSL0O576S7X5FBMN","A10FNV58WR3D0G","335VBRURDJMQFRMOFGHOE9WKSHX9E1","","null","<img src=""img/flower2.png"" style=""width:200px;border:14px solid red;"">","null","","","","","","","","",""
"","image-keyboard-response","118","137339","0.0-118.0","39RP059MEIF91SRSL0O576S7X5FBMN","A10FNV58WR3D0G","335VBRURDJMQFRMOFGHOE9WKSHX9E1","","315.5","img/flower2.png","75","316.59999999403954","2","1","2","1","1,0.333,0.333,0.333,1,0.333,0.333,0.333,1","1,0.333,0.333,0.333,1,0.333,0.333,0.333,1","1",""
"","html-keyboard-response","119","137641","0.0-119.0","39RP059MEIF91SRSL0O576S7X5FBMN","A10FNV58WR3D0G","335VBRURDJMQFRMOFGHOE9WKSHX9E1","","null","<img src=""img/flower2.png"" style=""width:200px; border:14px solid green;"">","null","","","","","","","","",""
"","image-keyboard-response","120","138306","0.0-120.0","39RP059MEIF91SRSL0O576S7X5FBMN","A10FNV58WR3D0G","335VBRURDJMQFRMOFGHOE9WKSHX9E1","","664","img/flower4.png","76","664.6999999880791","3","1","3","1","1,0.333,0.333,0.333,1,0.333,0.333,0.333,1","1,0.333,0.333,0.333,1,0.333,0.333,0.333,1","1",""
"","html-keyboard-response","121","138607","0.0-121.0","39RP059MEIF91SRSL0O576S7X5FBMN","A10FNV58WR3D0G","335VBRURDJMQFRMOFGHOE9WKSHX9E1","","null","<img src=""img/flower4.png"" style=""width:200px; border:14px solid green;"">","null","","","","","","","","",""
"","image-keyboard-response","122","140609","0.0-122.0","39RP059MEIF91SRSL0O576S7X5FBMN","A10FNV58WR3D0G","335VBRURDJMQFRMOFGHOE9WKSHX9E1","","","img/flower4.png","","2002.300000011921","-1","0","3","1","1,0.333,0.333,0.333,1,0.333,0.333,0.333,1","1,0.333,0.333,0.333,1,0.333,0.333,0.333,1","1",""
"","html-keyboard-response","123","140912","0.0-123.0","39RP059MEIF91SRSL0O576S7X5FBMN","A10FNV58WR3D0G","335VBRURDJMQFRMOFGHOE9WKSHX9E1","","null","<img src=""img/flower4.png"" style=""width:200px;border:14px solid red;"">","null","","","","","","","","",""
"","image-keyboard-response","124","141173","0.0-124.0","39RP059MEIF91SRSL0O576S7X5FBMN","A10FNV58WR3D0G","335VBRURDJMQFRMOFGHOE9WKSHX9E1","","260","img/flower4.png","75","261","2","0","3","1","1,0.333,0.333,0.333,1,0.333,0.333,0.333,1","1,0.333,0.333,0.333,1,0.333,0.333,0.333,1","1",""
"","html-keyboard-response","125","141474","0.0-125.0","39RP059MEIF91SRSL0O576S7X5FBMN","A10FNV58WR3D0G","335VBRURDJMQFRMOFGHOE9WKSHX9E1","","null","<img src=""img/flower4.png"" style=""width:200px;border:14px solid red;"">","null","","","","","","","","",""
"","image-keyboard-response","126","142247","0.0-126.0","39RP059MEIF91SRSL0O576S7X5FBMN","A10FNV58WR3D0G","335VBRURDJMQFRMOFGHOE9WKSHX9E1","","772","img/flower3.png","74","773","1","1","1","1","1,0.333,0.333,0.333,1,0.333,0.333,0.333,1","1,0.333,0.333,0.333,1,0.333,0.333,0.333,1","1",""
"","html-keyboard-response","127","142549","0.0-127.0","39RP059MEIF91SRSL0O576S7X5FBMN","A10FNV58WR3D0G","335VBRURDJMQFRMOFGHOE9WKSHX9E1","","null","<img src=""img/flower3.png"" style=""width:200px; border:14px solid green;"">","null","","","","","","","","",""
"","image-keyboard-response","128","143081","0.0-128.0","39RP059MEIF91SRSL0O576S7X5FBMN","A10FNV58WR3D0G","335VBRURDJMQFRMOFGHOE9WKSHX9E1","","530.9000000059605","img/flower2.png","75","532","2","1","2","1","1,0.333,0.333,0.333,1,0.333,0.333,0.333,1","1,0.333,0.333,0.333,1,0.333,0.333,0.333,1","1",""
"","html-keyboard-response","129","143383","0.0-129.0","39RP059MEIF91SRSL0O576S7X5FBMN","A10FNV58WR3D0G","335VBRURDJMQFRMOFGHOE9WKSHX9E1","","null","<img src=""img/flower2.png"" style=""width:200px; border:14px solid green;"">","null","","","","","","","","",""
"","image-keyboard-response","130","144160","0.0-130.0","39RP059MEIF91SRSL0O576S7X5FBMN","A10FNV58WR3D0G","335VBRURDJMQFRMOFGHOE9WKSHX9E1","","775","img/flower2.png","75","776.0999999940395","2","1","2","1","1,0.333,0.333,0.333,1,0.333,0.333,0.333,1","1,0.333,0.333,0.333,1,0.333,0.333,0.333,1","1",""
"","html-keyboard-response","131","144464","0.0-131.0","39RP059MEIF91SRSL0O576S7X5FBMN","A10FNV58WR3D0G","335VBRURDJMQFRMOFGHOE9WKSHX9E1","","null","<img src=""img/flower2.png"" style=""width:200px; border:14px solid green;"">","null","","","","","","","","",""
"","image-keyboard-response","132","145142","0.0-132.0","39RP059MEIF91SRSL0O576S7X5FBMN","A10FNV58WR3D0G","335VBRURDJMQFRMOFGHOE9WKSHX9E1","","677","img/flower2.png","75","678","2","1","2","1","1,0.333,0.333,0.333,1,0.333,0.333,0.333,1","1,0.333,0.333,0.333,1,0.333,0.333,0.333,1","1",""
"","html-keyboard-response","133","145443","0.0-133.0","39RP059MEIF91SRSL0O576S7X5FBMN","A10FNV58WR3D0G","335VBRURDJMQFRMOFGHOE9WKSHX9E1","","null","<img src=""img/flower2.png"" style=""width:200px; border:14px solid green;"">","null","","","","","","","","",""
"","image-keyboard-response","134","146147","0.0-134.0","39RP059MEIF91SRSL0O576S7X5FBMN","A10FNV58WR3D0G","335VBRURDJMQFRMOFGHOE9WKSHX9E1","","701.9000000059605","img/flower4.png","76","703","3","1","3","1","1,0.333,0.333,0.333,1,0.333,0.333,0.333,1","1,0.333,0.333,0.333,1,0.333,0.333,0.333,1","1",""
"","html-keyboard-response","135","146448","0.0-135.0","39RP059MEIF91SRSL0O576S7X5FBMN","A10FNV58WR3D0G","335VBRURDJMQFRMOFGHOE9WKSHX9E1","","null","<img src=""img/flower4.png"" style=""width:200px; border:14px solid green;"">","null","","","","","","","","",""
"","image-keyboard-response","136","147262","0.0-136.0","39RP059MEIF91SRSL0O576S7X5FBMN","A10FNV58WR3D0G","335VBRURDJMQFRMOFGHOE9WKSHX9E1","","813.7000000178814","img/flower4.png","76","814.3000000119209","3","1","3","1","1,0.333,0.333,0.333,1,0.333,0.333,0.333,1","1,0.333,0.333,0.333,1,0.333,0.333,0.333,1","1",""
"","html-keyboard-response","137","147565","0.0-137.0","39RP059MEIF91SRSL0O576S7X5FBMN","A10FNV58WR3D0G","335VBRURDJMQFRMOFGHOE9WKSHX9E1","","null","<img src=""img/flower4.png"" style=""width:200px; border:14px solid green;"">","null","","","","","","","","",""
"","image-keyboard-response","138","148178","0.0-138.0","39RP059MEIF91SRSL0O576S7X5FBMN","A10FNV58WR3D0G","335VBRURDJMQFRMOFGHOE9WKSHX9E1","","611.7999999821186","img/flower2.png","74","612.8000000119209","1","0","2","1","1,0.333,0.333,0.333,1,0.333,0.333,0.333,1","1,0.333,0.333,0.333,1,0.333,0.333,0.333,1","1",""
"","html-keyboard-response","139","148479","0.0-139.0","39RP059MEIF91SRSL0O576S7X5FBMN","A10FNV58WR3D0G","335VBRURDJMQFRMOFGHOE9WKSHX9E1","","null","<img src=""img/flower2.png"" style=""width:200px;border:14px solid red;"">","null","","","","","","","","",""
"","image-keyboard-response","140","149248","0.0-140.0","39RP059MEIF91SRSL0O576S7X5FBMN","A10FNV58WR3D0G","335VBRURDJMQFRMOFGHOE9WKSHX9E1","","767.2000000178814","img/flower2.png","75","768.3000000119209","2","1","2","1","1,0.333,0.333,0.333,1,0.333,0.333,0.333,1","1,0.333,0.333,0.333,1,0.333,0.333,0.333,1","1",""
"","html-keyboard-response","141","149549","0.0-141.0","39RP059MEIF91SRSL0O576S7X5FBMN","A10FNV58WR3D0G","335VBRURDJMQFRMOFGHOE9WKSHX9E1","","null","<img src=""img/flower2.png"" style=""width:200px; border:14px solid green;"">","null","","","","","","","","",""
"","image-keyboard-response","142","150342","0.0-142.0","39RP059MEIF91SRSL0O576S7X5FBMN","A10FNV58WR3D0G","335VBRURDJMQFRMOFGHOE9WKSHX9E1","","791.4000000059605","img/flower4.png","76","792.3999999761581","3","1","3","1","1,0.333,0.333,0.333,1,0.333,0.333,0.333,1","1,0.333,0.333,0.333,1,0.333,0.333,0.333,1","1",""
"","html-keyboard-response","143","150643","0.0-143.0","39RP059MEIF91SRSL0O576S7X5FBMN","A10FNV58WR3D0G","335VBRURDJMQFRMOFGHOE9WKSHX9E1","","null","<img src=""img/flower4.png"" style=""width:200px; border:14px solid green;"">","null","","","","","","","","",""
"","image-keyboard-response","144","151562","0.0-144.0","39RP059MEIF91SRSL0O576S7X5FBMN","A10FNV58WR3D0G","335VBRURDJMQFRMOFGHOE9WKSHX9E1","","918","img/flower2.png","75","919.0999999940395","2","1","2","1","1,0.333,0.333,0.333,1,0.333,0.333,0.333,1","1,0.333,0.333,0.333,1,0.333,0.333,0.333,1","1",""
"","html-keyboard-response","145","151865","0.0-145.0","39RP059MEIF91SRSL0O576S7X5FBMN","A10FNV58WR3D0G","335VBRURDJMQFRMOFGHOE9WKSHX9E1","","null","<img src=""img/flower2.png"" style=""width:200px; border:14px solid green;"">","null","","","","","","","","",""
"","image-keyboard-response","146","152463","0.0-146.0","39RP059MEIF91SRSL0O576S7X5FBMN","A10FNV58WR3D0G","335VBRURDJMQFRMOFGHOE9WKSHX9E1","","596.4000000059605","img/flower3.png","74","597.8000000119209","1","1","1","1","1,0.333,0.333,0.333,1,0.333,0.333,0.333,1","1,0.333,0.333,0.333,1,0.333,0.333,0.333,1","1",""
"","html-keyboard-response","147","152764","0.0-147.0","39RP059MEIF91SRSL0O576S7X5FBMN","A10FNV58WR3D0G","335VBRURDJMQFRMOFGHOE9WKSHX9E1","","null","<img src=""img/flower3.png"" style=""width:200px; border:14px solid green;"">","null","","","","","","","","",""
"","image-keyboard-response","148","153488","0.0-148.0","39RP059MEIF91SRSL0O576S7X5FBMN","A10FNV58WR3D0G","335VBRURDJMQFRMOFGHOE9WKSHX9E1","","722.8999999761581","img/flower4.png","76","724","3","1","3","1","1,0.333,0.333,0.333,1,0.333,0.333,0.333,1","1,0.333,0.333,0.333,1,0.333,0.333,0.333,1","1",""
"","html-keyboard-response","149","153790","0.0-149.0","39RP059MEIF91SRSL0O576S7X5FBMN","A10FNV58WR3D0G","335VBRURDJMQFRMOFGHOE9WKSHX9E1","","null","<img src=""img/flower4.png"" style=""width:200px; border:14px solid green;"">","null","","","","","","","","",""
"","image-keyboard-response","150","154473","0.0-150.0","39RP059MEIF91SRSL0O576S7X5FBMN","A10FNV58WR3D0G","335VBRURDJMQFRMOFGHOE9WKSHX9E1","","680.8000000119209","img/flower3.png","75","682.0999999940395","2","0","1","1","1,0.333,0.333,0.333,1,0.333,0.333,0.333,1","1,0.333,0.333,0.333,1,0.333,0.333,0.333,1","1",""
"","html-keyboard-response","151","154774","0.0-151.0","39RP059MEIF91SRSL0O576S7X5FBMN","A10FNV58WR3D0G","335VBRURDJMQFRMOFGHOE9WKSHX9E1","","null","<img src=""img/flower3.png"" style=""width:200px;border:14px solid red;"">","null","","","","","","","","",""
"","image-keyboard-response","152","155528","0.0-152.0","39RP059MEIF91SRSL0O576S7X5FBMN","A10FNV58WR3D0G","335VBRURDJMQFRMOFGHOE9WKSHX9E1","","753.2999999821186","img/flower4.png","76","753.9000000059605","3","1","3","1","1,0.333,0.333,0.333,1,0.333,0.333,0.333,1","1,0.333,0.333,0.333,1,0.333,0.333,0.333,1","1",""
"","html-keyboard-response","153","155830","0.0-153.0","39RP059MEIF91SRSL0O576S7X5FBMN","A10FNV58WR3D0G","335VBRURDJMQFRMOFGHOE9WKSHX9E1","","null","<img src=""img/flower4.png"" style=""width:200px; border:14px solid green;"">","null","","","","","","","","",""
"","image-keyboard-response","154","156569","0.0-154.0","39RP059MEIF91SRSL0O576S7X5FBMN","A10FNV58WR3D0G","335VBRURDJMQFRMOFGHOE9WKSHX9E1","","738.2999999821186","img/flower3.png","74","739.4000000059605","1","1","1","1","1,0.333,0.333,0.333,1,0.333,0.333,0.333,1","1,0.333,0.333,0.333,1,0.333,0.333,0.333,1","1",""
"","html-keyboard-response","155","156871","0.0-155.0","39RP059MEIF91SRSL0O576S7X5FBMN","A10FNV58WR3D0G","335VBRURDJMQFRMOFGHOE9WKSHX9E1","","null","<img src=""img/flower3.png"" style=""width:200px; border:14px solid green;"">","null","","","","","","","","",""
"","image-keyboard-response","156","157493","0.0-156.0","39RP059MEIF91SRSL0O576S7X5FBMN","A10FNV58WR3D0G","335VBRURDJMQFRMOFGHOE9WKSHX9E1","","620.9000000059605","img/flower3.png","74","621.5999999940395","1","1","1","1","1,0.333,0.333,0.333,1,0.333,0.333,0.333,1","1,0.333,0.333,0.333,1,0.333,0.333,0.333,1","1",""
"","html-keyboard-response","157","157794","0.0-157.0","39RP059MEIF91SRSL0O576S7X5FBMN","A10FNV58WR3D0G","335VBRURDJMQFRMOFGHOE9WKSHX9E1","","null","<img src=""img/flower3.png"" style=""width:200px; border:14px solid green;"">","null","","","","","","","","",""
"","image-keyboard-response","158","158484","0.0-158.0","39RP059MEIF91SRSL0O576S7X5FBMN","A10FNV58WR3D0G","335VBRURDJMQFRMOFGHOE9WKSHX9E1","","687.7999999821186","img/flower2.png","75","688.8999999761581","2","1","2","1","1,0.333,0.333,0.333,1,0.333,0.333,0.333,1","1,0.333,0.333,0.333,1,0.333,0.333,0.333,1","1",""
"","html-keyboard-response","159","158791","0.0-159.0","39RP059MEIF91SRSL0O576S7X5FBMN","A10FNV58WR3D0G","335VBRURDJMQFRMOFGHOE9WKSHX9E1","","null","<img src=""img/flower2.png"" style=""width:200px; border:14px solid green;"">","null","","","","","","","","",""
"","image-keyboard-response","160","159754","0.0-160.0","39RP059MEIF91SRSL0O576S7X5FBMN","A10FNV58WR3D0G","335VBRURDJMQFRMOFGHOE9WKSHX9E1","","962.1000000238419","img/flower3.png","74","963.4000000059605","1","1","1","1","1,0.333,0.333,0.333,1,0.333,0.333,0.333,1","1,0.333,0.333,0.333,1,0.333,0.333,0.333,1","1",""
"","html-keyboard-response","161","160056","0.0-161.0","39RP059MEIF91SRSL0O576S7X5FBMN","A10FNV58WR3D0G","335VBRURDJMQFRMOFGHOE9WKSHX9E1","","null","<img src=""img/flower3.png"" style=""width:200px; border:14px solid green;"">","null","","","","","","","","",""
"","image-keyboard-response","162","160794","0.0-162.0","39RP059MEIF91SRSL0O576S7X5FBMN","A10FNV58WR3D0G","335VBRURDJMQFRMOFGHOE9WKSHX9E1","","736.3999999761581","img/flower4.png","76","737.2000000178814","3","1","3","1","1,0.333,0.333,0.333,1,0.333,0.333,0.333,1","1,0.333,0.333,0.333,1,0.333,0.333,0.333,1","1",""
"","html-keyboard-response","163","161095","0.0-163.0","39RP059MEIF91SRSL0O576S7X5FBMN","A10FNV58WR3D0G","335VBRURDJMQFRMOFGHOE9WKSHX9E1","","null","<img src=""img/flower4.png"" style=""width:200px; border:14px solid green;"">","null","","","","","","","","",""
"","image-keyboard-response","164","161955","0.0-164.0","39RP059MEIF91SRSL0O576S7X5FBMN","A10FNV58WR3D0G","335VBRURDJMQFRMOFGHOE9WKSHX9E1","","858.8999999761581","img/flower3.png","74","860.1000000238419","1","1","1","1","1,0.333,0.333,0.333,1,0.333,0.333,0.333,1","1,0.333,0.333,0.333,1,0.333,0.333,0.333,1","1",""
"","html-keyboard-response","165","162257","0.0-165.0","39RP059MEIF91SRSL0O576S7X5FBMN","A10FNV58WR3D0G","335VBRURDJMQFRMOFGHOE9WKSHX9E1","","null","<img src=""img/flower3.png"" style=""width:200px; border:14px solid green;"">","null","","","","","","","","",""
"","image-keyboard-response","166","162951","0.0-166.0","39RP059MEIF91SRSL0O576S7X5FBMN","A10FNV58WR3D0G","335VBRURDJMQFRMOFGHOE9WKSHX9E1","","693.0999999940395","img/flower3.png","74","693.8000000119209","1","1","1","1","1,0.333,0.333,0.333,1,0.333,0.333,0.333,1","1,0.333,0.333,0.333,1,0.333,0.333,0.333,1","1",""
"","html-keyboard-response","167","163252","0.0-167.0","39RP059MEIF91SRSL0O576S7X5FBMN","A10FNV58WR3D0G","335VBRURDJMQFRMOFGHOE9WKSHX9E1","","null","<img src=""img/flower3.png"" style=""width:200px; border:14px solid green;"">","null","","","","","","","","",""
"","image-keyboard-response","168","163829","0.0-168.0","39RP059MEIF91SRSL0O576S7X5FBMN","A10FNV58WR3D0G","335VBRURDJMQFRMOFGHOE9WKSHX9E1","","575.5999999940395","img/flower3.png","74","576.8000000119209","1","1","1","1","1,0.333,0.333,0.333,1,0.333,0.333,0.333,1","1,0.333,0.333,0.333,1,0.333,0.333,0.333,1","1",""
"","html-keyboard-response","169","164130","0.0-169.0","39RP059MEIF91SRSL0O576S7X5FBMN","A10FNV58WR3D0G","335VBRURDJMQFRMOFGHOE9WKSHX9E1","","null","<img src=""img/flower3.png"" style=""width:200px; border:14px solid green;"">","null","","","","","","","","",""
"","image-keyboard-response","170","165272","0.0-170.0","39RP059MEIF91SRSL0O576S7X5FBMN","A10FNV58WR3D0G","335VBRURDJMQFRMOFGHOE9WKSHX9E1","","1139.699999988079","img/flower4.png","76","1140.8999999761581","3","1","3","1","1,0.333,0.333,0.333,1,0.333,0.333,0.333,1","1,0.333,0.333,0.333,1,0.333,0.333,0.333,1","1",""
"","html-keyboard-response","171","165573","0.0-171.0","39RP059MEIF91SRSL0O576S7X5FBMN","A10FNV58WR3D0G","335VBRURDJMQFRMOFGHOE9WKSHX9E1","","null","<img src=""img/flower4.png"" style=""width:200px; border:14px solid green;"">","null","","","","","","","","",""
"","image-keyboard-response","172","166447","0.0-172.0","39RP059MEIF91SRSL0O576S7X5FBMN","A10FNV58WR3D0G","335VBRURDJMQFRMOFGHOE9WKSHX9E1","","872.5","img/flower3.png","74","873.6999999880791","1","1","1","1","1,0.333,0.333,0.333,1,0.333,0.333,0.333,1","1,0.333,0.333,0.333,1,0.333,0.333,0.333,1","1",""
"","html-keyboard-response","173","166750","0.0-173.0","39RP059MEIF91SRSL0O576S7X5FBMN","A10FNV58WR3D0G","335VBRURDJMQFRMOFGHOE9WKSHX9E1","","null","<img src=""img/flower3.png"" style=""width:200px; border:14px solid green;"">","null","","","","","","","","",""
"","image-keyboard-response","174","167555","0.0-174.0","39RP059MEIF91SRSL0O576S7X5FBMN","A10FNV58WR3D0G","335VBRURDJMQFRMOFGHOE9WKSHX9E1","","804.1000000238419","img/flower4.png","76","805.2000000178814","3","1","3","1","1,0.333,0.333,0.333,1,0.333,0.333,0.333,1","1,0.333,0.333,0.333,1,0.333,0.333,0.333,1","1",""
"","html-keyboard-response","175","167857","0.0-175.0","39RP059MEIF91SRSL0O576S7X5FBMN","A10FNV58WR3D0G","335VBRURDJMQFRMOFGHOE9WKSHX9E1","","null","<img src=""img/flower4.png"" style=""width:200px; border:14px solid green;"">","null","","","","","","","","",""
"","image-keyboard-response","176","168798","0.0-176.0","39RP059MEIF91SRSL0O576S7X5FBMN","A10FNV58WR3D0G","335VBRURDJMQFRMOFGHOE9WKSHX9E1","","939.5999999940395","img/flower3.png","74","941","1","1","1","1","1,0.333,0.333,0.333,1,0.333,0.333,0.333,1","1,0.333,0.333,0.333,1,0.333,0.333,0.333,1","1",""
"","html-keyboard-response","177","169100","0.0-177.0","39RP059MEIF91SRSL0O576S7X5FBMN","A10FNV58WR3D0G","335VBRURDJMQFRMOFGHOE9WKSHX9E1","","null","<img src=""img/flower3.png"" style=""width:200px; border:14px solid green;"">","null","","","","","","","","",""
"","image-keyboard-response","178","169781","0.0-178.0","39RP059MEIF91SRSL0O576S7X5FBMN","A10FNV58WR3D0G","335VBRURDJMQFRMOFGHOE9WKSHX9E1","","679.5","img/flower4.png","76","680.5","3","1","3","1","1,0.333,0.333,0.333,1,0.333,0.333,0.333,1","1,0.333,0.333,0.333,1,0.333,0.333,0.333,1","1",""
"","html-keyboard-response","179","170083","0.0-179.0","39RP059MEIF91SRSL0O576S7X5FBMN","A10FNV58WR3D0G","335VBRURDJMQFRMOFGHOE9WKSHX9E1","","null","<img src=""img/flower4.png"" style=""width:200px; border:14px solid green;"">","null","","","","","","","","",""
"","image-keyboard-response","180","170635","0.0-180.0","39RP059MEIF91SRSL0O576S7X5FBMN","A10FNV58WR3D0G","335VBRURDJMQFRMOFGHOE9WKSHX9E1","","551.4000000059605","img/flower4.png","76","552.5","3","1","3","1","1,0.333,0.333,0.333,1,0.333,0.333,0.333,1","1,0.333,0.333,0.333,1,0.333,0.333,0.333,1","1",""
"","html-keyboard-response","181","170937","0.0-181.0","39RP059MEIF91SRSL0O576S7X5FBMN","A10FNV58WR3D0G","335VBRURDJMQFRMOFGHOE9WKSHX9E1","","null","<img src=""img/flower4.png"" style=""width:200px; border:14px solid green;"">","null","","","","","","","","",""
"","html-keyboard-response","182","179156","0.0-182.0","39RP059MEIF91SRSL0O576S7X5FBMN","A10FNV58WR3D0G","335VBRURDJMQFRMOFGHOE9WKSHX9E1","","","","","","","","","","","","",""
"","image-keyboard-response","183","181158","0.0-183.0","39RP059MEIF91SRSL0O576S7X5FBMN","A10FNV58WR3D0G","335VBRURDJMQFRMOFGHOE9WKSHX9E1","","","img/flower5.png","","2002.2999999821186","-1","0","3","2","1,0,0,1,1,0,1,0,1","1,0,0,1,1,0,1,0,1","1",""
"","html-keyboard-response","184","181460","0.0-184.0","39RP059MEIF91SRSL0O576S7X5FBMN","A10FNV58WR3D0G","335VBRURDJMQFRMOFGHOE9WKSHX9E1","","null","<img src=""img/flower5.png"" style=""width:200px;border:14px solid red;"">","null","","","","","","","","",""
"","image-keyboard-response","185","182382","0.0-185.0","39RP059MEIF91SRSL0O576S7X5FBMN","A10FNV58WR3D0G","335VBRURDJMQFRMOFGHOE9WKSHX9E1","","920.6999999880791","img/flower1.png","74","921.5999999940395","1","1","1","2","1,0,0,1,1,0,1,0,1","1,0,0,1,1,0,1,0,1","1",""
"","html-keyboard-response","186","182684","0.0-186.0","39RP059MEIF91SRSL0O576S7X5FBMN","A10FNV58WR3D0G","335VBRURDJMQFRMOFGHOE9WKSHX9E1","","null","<img src=""img/flower1.png"" style=""width:200px; border:14px solid green;"">","null","","","","","","","","",""
"","image-keyboard-response","187","183733","0.0-187.0","39RP059MEIF91SRSL0O576S7X5FBMN","A10FNV58WR3D0G","335VBRURDJMQFRMOFGHOE9WKSHX9E1","","1047.199999988079","img/flower6.png","75","1048.4000000059605","2","1","2","2","1,0,0,1,1,0,1,0,1","1,0,0,1,1,0,1,0,1","1",""
"","html-keyboard-response","188","184035","0.0-188.0","39RP059MEIF91SRSL0O576S7X5FBMN","A10FNV58WR3D0G","335VBRURDJMQFRMOFGHOE9WKSHX9E1","","null","<img src=""img/flower6.png"" style=""width:200px; border:14px solid green;"">","null","","","","","","","","",""
"","image-keyboard-response","189","185192","0.0-189.0","39RP059MEIF91SRSL0O576S7X5FBMN","A10FNV58WR3D0G","335VBRURDJMQFRMOFGHOE9WKSHX9E1","","1156.5","img/flower5.png","76","1157.3999999761581","3","1","3","2","1,0,0,1,1,0,1,0,1","1,0,0,1,1,0,1,0,1","1",""
"","html-keyboard-response","190","185495","0.0-190.0","39RP059MEIF91SRSL0O576S7X5FBMN","A10FNV58WR3D0G","335VBRURDJMQFRMOFGHOE9WKSHX9E1","","null","<img src=""img/flower5.png"" style=""width:200px; border:14px solid green;"">","null","","","","","","","","",""
"","image-keyboard-response","191","186396","0.0-191.0","39RP059MEIF91SRSL0O576S7X5FBMN","A10FNV58WR3D0G","335VBRURDJMQFRMOFGHOE9WKSHX9E1","","900.0999999940395","img/flower6.png","75","901.2000000178814","2","1","2","2","1,0,0,1,1,0,1,0,1","1,0,0,1,1,0,1,0,1","1",""
"","html-keyboard-response","192","186699","0.0-192.0","39RP059MEIF91SRSL0O576S7X5FBMN","A10FNV58WR3D0G","335VBRURDJMQFRMOFGHOE9WKSHX9E1","","null","<img src=""img/flower6.png"" style=""width:200px; border:14px solid green;"">","null","","","","","","","","",""
"","image-keyboard-response","193","187685","0.0-193.0","39RP059MEIF91SRSL0O576S7X5FBMN","A10FNV58WR3D0G","335VBRURDJMQFRMOFGHOE9WKSHX9E1","","985.5","img/flower6.png","75","986.5999999940395","2","1","2","2","1,0,0,1,1,0,1,0,1","1,0,0,1,1,0,1,0,1","1",""
"","html-keyboard-response","194","187990","0.0-194.0","39RP059MEIF91SRSL0O576S7X5FBMN","A10FNV58WR3D0G","335VBRURDJMQFRMOFGHOE9WKSHX9E1","","null","<img src=""img/flower6.png"" style=""width:200px; border:14px solid green;"">","null","","","","","","","","",""
"","image-keyboard-response","195","188808","0.0-195.0","39RP059MEIF91SRSL0O576S7X5FBMN","A10FNV58WR3D0G","335VBRURDJMQFRMOFGHOE9WKSHX9E1","","817.5","img/flower5.png","76","818.3000000119209","3","1","3","2","1,0,0,1,1,0,1,0,1","1,0,0,1,1,0,1,0,1","1",""
"","html-keyboard-response","196","189110","0.0-196.0","39RP059MEIF91SRSL0O576S7X5FBMN","A10FNV58WR3D0G","335VBRURDJMQFRMOFGHOE9WKSHX9E1","","null","<img src=""img/flower5.png"" style=""width:200px; border:14px solid green;"">","null","","","","","","","","",""
"","image-keyboard-response","197","190109","0.0-197.0","39RP059MEIF91SRSL0O576S7X5FBMN","A10FNV58WR3D0G","335VBRURDJMQFRMOFGHOE9WKSHX9E1","","997.3000000119209","img/flower1.png","74","998.5999999940395","1","1","1","2","1,0,0,1,1,0,1,0,1","1,0,0,1,1,0,1,0,1","1",""
"","html-keyboard-response","198","190410","0.0-198.0","39RP059MEIF91SRSL0O576S7X5FBMN","A10FNV58WR3D0G","335VBRURDJMQFRMOFGHOE9WKSHX9E1","","null","<img src=""img/flower1.png"" style=""width:200px; border:14px solid green;"">","null","","","","","","","","",""
"","image-keyboard-response","199","191814","0.0-199.0","39RP059MEIF91SRSL0O576S7X5FBMN","A10FNV58WR3D0G","335VBRURDJMQFRMOFGHOE9WKSHX9E1","","1402.0999999940395","img/flower1.png","74","1403.300000011921","1","1","1","2","1,0,0,1,1,0,1,0,1","1,0,0,1,1,0,1,0,1","1",""
"","html-keyboard-response","200","192116","0.0-200.0","39RP059MEIF91SRSL0O576S7X5FBMN","A10FNV58WR3D0G","335VBRURDJMQFRMOFGHOE9WKSHX9E1","","null","<img src=""img/flower1.png"" style=""width:200px; border:14px solid green;"">","null","","","","","","","","",""
"","image-keyboard-response","201","193002","0.0-201.0","39RP059MEIF91SRSL0O576S7X5FBMN","A10FNV58WR3D0G","335VBRURDJMQFRMOFGHOE9WKSHX9E1","","884.9000000059605","img/flower5.png","75","886","2","0","3","2","1,0,0,1,1,0,1,0,1","1,0,0,1,1,0,1,0,1","1",""
"","html-keyboard-response","202","193303","0.0-202.0","39RP059MEIF91SRSL0O576S7X5FBMN","A10FNV58WR3D0G","335VBRURDJMQFRMOFGHOE9WKSHX9E1","","null","<img src=""img/flower5.png"" style=""width:200px;border:14px solid red;"">","null","","","","","","","","",""
"","image-keyboard-response","203","194000","0.0-203.0","39RP059MEIF91SRSL0O576S7X5FBMN","A10FNV58WR3D0G","335VBRURDJMQFRMOFGHOE9WKSHX9E1","","695.3999999761581","img/flower1.png","74","696.2000000178814","1","1","1","2","1,0,0,1,1,0,1,0,1","1,0,0,1,1,0,1,0,1","1",""
"","html-keyboard-response","204","194301","0.0-204.0","39RP059MEIF91SRSL0O576S7X5FBMN","A10FNV58WR3D0G","335VBRURDJMQFRMOFGHOE9WKSHX9E1","","null","<img src=""img/flower1.png"" style=""width:200px; border:14px solid green;"">","null","","","","","","","","",""
"","image-keyboard-response","205","195010","0.0-205.0","39RP059MEIF91SRSL0O576S7X5FBMN","A10FNV58WR3D0G","335VBRURDJMQFRMOFGHOE9WKSHX9E1","","707.9000000059605","img/flower1.png","74","708.5999999940395","1","1","1","2","1,0,0,1,1,0,1,0,1","1,0,0,1,1,0,1,0,1","1",""
"","html-keyboard-response","206","195312","0.0-206.0","39RP059MEIF91SRSL0O576S7X5FBMN","A10FNV58WR3D0G","335VBRURDJMQFRMOFGHOE9WKSHX9E1","","null","<img src=""img/flower1.png"" style=""width:200px; border:14px solid green;"">","null","","","","","","","","",""
"","image-keyboard-response","207","196104","0.0-207.0","39RP059MEIF91SRSL0O576S7X5FBMN","A10FNV58WR3D0G","335VBRURDJMQFRMOFGHOE9WKSHX9E1","","791","img/flower5.png","75","791.5","2","0","3","2","1,0,0,1,1,0,1,0,1","1,0,0,1,1,0,1,0,1","1",""
"","html-keyboard-response","208","196405","0.0-208.0","39RP059MEIF91SRSL0O576S7X5FBMN","A10FNV58WR3D0G","335VBRURDJMQFRMOFGHOE9WKSHX9E1","","null","<img src=""img/flower5.png"" style=""width:200px;border:14px solid red;"">","null","","","","","","","","",""
"","image-keyboard-response","209","197317","0.0-209.0","39RP059MEIF91SRSL0O576S7X5FBMN","A10FNV58WR3D0G","335VBRURDJMQFRMOFGHOE9WKSHX9E1","","910.1999999880791","img/flower5.png","75","911.0999999940395","2","0","3","2","1,0,0,1,1,0,1,0,1","1,0,0,1,1,0,1,0,1","1",""
"","html-keyboard-response","210","197619","0.0-210.0","39RP059MEIF91SRSL0O576S7X5FBMN","A10FNV58WR3D0G","335VBRURDJMQFRMOFGHOE9WKSHX9E1","","null","<img src=""img/flower5.png"" style=""width:200px;border:14px solid red;"">","null","","","","","","","","",""
"","image-keyboard-response","211","198368","0.0-211.0","39RP059MEIF91SRSL0O576S7X5FBMN","A10FNV58WR3D0G","335VBRURDJMQFRMOFGHOE9WKSHX9E1","","748.5999999940395","img/flower1.png","74","749","1","1","1","2","1,0,0,1,1,0,1,0,1","1,0,0,1,1,0,1,0,1","1",""
"","html-keyboard-response","212","198670","0.0-212.0","39RP059MEIF91SRSL0O576S7X5FBMN","A10FNV58WR3D0G","335VBRURDJMQFRMOFGHOE9WKSHX9E1","","null","<img src=""img/flower1.png"" style=""width:200px; border:14px solid green;"">","null","","","","","","","","",""
"","image-keyboard-response","213","199192","0.0-213.0","39RP059MEIF91SRSL0O576S7X5FBMN","A10FNV58WR3D0G","335VBRURDJMQFRMOFGHOE9WKSHX9E1","","520.6999999880791","img/flower1.png","74","521.6999999880791","1","1","1","2","1,0,0,1,1,0,1,0,1","1,0,0,1,1,0,1,0,1","1",""
"","html-keyboard-response","214","199493","0.0-214.0","39RP059MEIF91SRSL0O576S7X5FBMN","A10FNV58WR3D0G","335VBRURDJMQFRMOFGHOE9WKSHX9E1","","null","<img src=""img/flower1.png"" style=""width:200px; border:14px solid green;"">","null","","","","","","","","",""
"","image-keyboard-response","215","199846","0.0-215.0","39RP059MEIF91SRSL0O576S7X5FBMN","A10FNV58WR3D0G","335VBRURDJMQFRMOFGHOE9WKSHX9E1","","351.40000000596046","img/flower1.png","74","352.40000000596046","1","1","1","2","1,0,0,1,1,0,1,0,1","1,0,0,1,1,0,1,0,1","1",""
"","html-keyboard-response","216","200147","0.0-216.0","39RP059MEIF91SRSL0O576S7X5FBMN","A10FNV58WR3D0G","335VBRURDJMQFRMOFGHOE9WKSHX9E1","","null","<img src=""img/flower1.png"" style=""width:200px; border:14px solid green;"">","null","","","","","","","","",""
"","image-keyboard-response","217","200772","0.0-217.0","39RP059MEIF91SRSL0O576S7X5FBMN","A10FNV58WR3D0G","335VBRURDJMQFRMOFGHOE9WKSHX9E1","","623","img/flower6.png","76","624.0999999940395","3","0","2","2","1,0,0,1,1,0,1,0,1","1,0,0,1,1,0,1,0,1","1",""
"","html-keyboard-response","218","201073","0.0-218.0","39RP059MEIF91SRSL0O576S7X5FBMN","A10FNV58WR3D0G","335VBRURDJMQFRMOFGHOE9WKSHX9E1","","null","<img src=""img/flower6.png"" style=""width:200px;border:14px solid red;"">","null","","","","","","","","",""
"","image-keyboard-response","219","202033","0.0-219.0","39RP059MEIF91SRSL0O576S7X5FBMN","A10FNV58WR3D0G","335VBRURDJMQFRMOFGHOE9WKSHX9E1","","959.0999999940395","img/flower5.png","75","959.9000000059605","2","0","3","2","1,0,0,1,1,0,1,0,1","1,0,0,1,1,0,1,0,1","1",""
"","html-keyboard-response","220","202335","0.0-220.0","39RP059MEIF91SRSL0O576S7X5FBMN","A10FNV58WR3D0G","335VBRURDJMQFRMOFGHOE9WKSHX9E1","","null","<img src=""img/flower5.png"" style=""width:200px;border:14px solid red;"">","null","","","","","","","","",""
"","image-keyboard-response","221","203181","0.0-221.0","39RP059MEIF91SRSL0O576S7X5FBMN","A10FNV58WR3D0G","335VBRURDJMQFRMOFGHOE9WKSHX9E1","","844.5","img/flower5.png","74","845.7000000178814","1","1","3","2","1,0,0,1,1,0,1,0,1","1,0,0,1,1,0,1,0,1","1",""
"","html-keyboard-response","222","203483","0.0-222.0","39RP059MEIF91SRSL0O576S7X5FBMN","A10FNV58WR3D0G","335VBRURDJMQFRMOFGHOE9WKSHX9E1","","null","<img src=""img/flower5.png"" style=""width:200px; border:14px solid green;"">","null","","","","","","","","",""
"","image-keyboard-response","223","204514","0.0-223.0","39RP059MEIF91SRSL0O576S7X5FBMN","A10FNV58WR3D0G","335VBRURDJMQFRMOFGHOE9WKSHX9E1","","1029.0999999940395","img/flower1.png","74","1030.0999999940395","1","1","1","2","1,0,0,1,1,0,1,0,1","1,0,0,1,1,0,1,0,1","1",""
"","html-keyboard-response","224","204816","0.0-224.0","39RP059MEIF91SRSL0O576S7X5FBMN","A10FNV58WR3D0G","335VBRURDJMQFRMOFGHOE9WKSHX9E1","","null","<img src=""img/flower1.png"" style=""width:200px; border:14px solid green;"">","null","","","","","","","","",""
"","image-keyboard-response","225","206647","0.0-225.0","39RP059MEIF91SRSL0O576S7X5FBMN","A10FNV58WR3D0G","335VBRURDJMQFRMOFGHOE9WKSHX9E1","","1829.5999999940395","img/flower1.png","76","1830.7999999821186","3","0","1","2","1,0,0,1,1,0,1,0,1","1,0,0,1,1,0,1,0,1","1",""
"","html-keyboard-response","226","206949","0.0-226.0","39RP059MEIF91SRSL0O576S7X5FBMN","A10FNV58WR3D0G","335VBRURDJMQFRMOFGHOE9WKSHX9E1","","null","<img src=""img/flower1.png"" style=""width:200px;border:14px solid red;"">","null","","","","","","","","",""
"","image-keyboard-response","227","207996","0.0-227.0","39RP059MEIF91SRSL0O576S7X5FBMN","A10FNV58WR3D0G","335VBRURDJMQFRMOFGHOE9WKSHX9E1","","1045.5","img/flower6.png","75","1046.4000000059605","2","1","2","2","1,0,0,1,1,0,1,0,1","1,0,0,1,1,0,1,0,1","1",""
"","html-keyboard-response","228","208298","0.0-228.0","39RP059MEIF91SRSL0O576S7X5FBMN","A10FNV58WR3D0G","335VBRURDJMQFRMOFGHOE9WKSHX9E1","","null","<img src=""img/flower6.png"" style=""width:200px; border:14px solid green;"">","null","","","","","","","","",""
"","image-keyboard-response","229","208944","0.0-229.0","39RP059MEIF91SRSL0O576S7X5FBMN","A10FNV58WR3D0G","335VBRURDJMQFRMOFGHOE9WKSHX9E1","","644.1999999880791","img/flower5.png","75","645.2000000178814","2","0","3","2","1,0,0,1,1,0,1,0,1","1,0,0,1,1,0,1,0,1","1",""
"","html-keyboard-response","230","209245","0.0-230.0","39RP059MEIF91SRSL0O576S7X5FBMN","A10FNV58WR3D0G","335VBRURDJMQFRMOFGHOE9WKSHX9E1","","null","<img src=""img/flower5.png"" style=""width:200px;border:14px solid red;"">","null","","","","","","","","",""
"","image-keyboard-response","231","210555","0.0-231.0","39RP059MEIF91SRSL0O576S7X5FBMN","A10FNV58WR3D0G","335VBRURDJMQFRMOFGHOE9WKSHX9E1","","1308.5","img/flower5.png","75","1309.8999999761581","2","0","3","2","1,0,0,1,1,0,1,0,1","1,0,0,1,1,0,1,0,1","1",""
"","html-keyboard-response","232","210857","0.0-232.0","39RP059MEIF91SRSL0O576S7X5FBMN","A10FNV58WR3D0G","335VBRURDJMQFRMOFGHOE9WKSHX9E1","","null","<img src=""img/flower5.png"" style=""width:200px;border:14px solid red;"">","null","","","","","","","","",""
"","image-keyboard-response","233","212119","0.0-233.0","39RP059MEIF91SRSL0O576S7X5FBMN","A10FNV58WR3D0G","335VBRURDJMQFRMOFGHOE9WKSHX9E1","","1260.300000011921","img/flower6.png","76","1261.5999999940395","3","0","2","2","1,0,0,1,1,0,1,0,1","1,0,0,1,1,0,1,0,1","1",""
"","html-keyboard-response","234","212421","0.0-234.0","39RP059MEIF91SRSL0O576S7X5FBMN","A10FNV58WR3D0G","335VBRURDJMQFRMOFGHOE9WKSHX9E1","","null","<img src=""img/flower6.png"" style=""width:200px;border:14px solid red;"">","null","","","","","","","","",""
"","image-keyboard-response","235","212692","0.0-235.0","39RP059MEIF91SRSL0O576S7X5FBMN","A10FNV58WR3D0G","335VBRURDJMQFRMOFGHOE9WKSHX9E1","","270.19999998807907","img/flower6.png","75","271.2000000178814","2","1","2","2","1,0,0,1,1,0,1,0,1","1,0,0,1,1,0,1,0,1","1",""
"","html-keyboard-response","236","212994","0.0-236.0","39RP059MEIF91SRSL0O576S7X5FBMN","A10FNV58WR3D0G","335VBRURDJMQFRMOFGHOE9WKSHX9E1","","null","<img src=""img/flower6.png"" style=""width:200px; border:14px solid green;"">","null","","","","","","","","",""
"","image-keyboard-response","237","213542","0.0-237.0","39RP059MEIF91SRSL0O576S7X5FBMN","A10FNV58WR3D0G","335VBRURDJMQFRMOFGHOE9WKSHX9E1","","547.0999999940395","img/flower6.png","75","548.3000000119209","2","1","2","2","1,0,0,1,1,0,1,0,1","1,0,0,1,1,0,1,0,1","1",""
"","html-keyboard-response","238","213844","0.0-238.0","39RP059MEIF91SRSL0O576S7X5FBMN","A10FNV58WR3D0G","335VBRURDJMQFRMOFGHOE9WKSHX9E1","","null","<img src=""img/flower6.png"" style=""width:200px; border:14px solid green;"">","null","","","","","","","","",""
"","image-keyboard-response","239","214694","0.0-239.0","39RP059MEIF91SRSL0O576S7X5FBMN","A10FNV58WR3D0G","335VBRURDJMQFRMOFGHOE9WKSHX9E1","","848.4000000059605","img/flower1.png","74","849.6999999880791","1","1","1","2","1,0,0,1,1,0,1,0,1","1,0,0,1,1,0,1,0,1","1",""
"","html-keyboard-response","240","214995","0.0-240.0","39RP059MEIF91SRSL0O576S7X5FBMN","A10FNV58WR3D0G","335VBRURDJMQFRMOFGHOE9WKSHX9E1","","null","<img src=""img/flower1.png"" style=""width:200px; border:14px solid green;"">","null","","","","","","","","",""
"","image-keyboard-response","241","215065","0.0-241.0","39RP059MEIF91SRSL0O576S7X5FBMN","A10FNV58WR3D0G","335VBRURDJMQFRMOFGHOE9WKSHX9E1","","67.90000000596046","img/flower1.png","74","68.39999997615814","1","1","1","2","1,0,0,1,1,0,1,0,1","1,0,0,1,1,0,1,0,1","1",""
"","html-keyboard-response","242","215366","0.0-242.0","39RP059MEIF91SRSL0O576S7X5FBMN","A10FNV58WR3D0G","335VBRURDJMQFRMOFGHOE9WKSHX9E1","","null","<img src=""img/flower1.png"" style=""width:200px; border:14px solid green;"">","null","","","","","","","","",""
"","image-keyboard-response","243","215482","0.0-243.0","39RP059MEIF91SRSL0O576S7X5FBMN","A10FNV58WR3D0G","335VBRURDJMQFRMOFGHOE9WKSHX9E1","","114.30000001192093","img/flower1.png","74","115.30000001192093","1","1","1","2","1,0,0,1,1,0,1,0,1","1,0,0,1,1,0,1,0,1","1",""
"","html-keyboard-response","244","215783","0.0-244.0","39RP059MEIF91SRSL0O576S7X5FBMN","A10FNV58WR3D0G","335VBRURDJMQFRMOFGHOE9WKSHX9E1","","null","<img src=""img/flower1.png"" style=""width:200px; border:14px solid green;"">","null","","","","","","","","",""
"","image-keyboard-response","245","215869","0.0-245.0","39RP059MEIF91SRSL0O576S7X5FBMN","A10FNV58WR3D0G","335VBRURDJMQFRMOFGHOE9WKSHX9E1","","84.19999998807907","img/flower5.png","74","85.10000002384186","1","1","3","2","1,0,0,1,1,0,1,0,1","1,0,0,1,1,0,1,0,1","1",""
"","html-keyboard-response","246","216170","0.0-246.0","39RP059MEIF91SRSL0O576S7X5FBMN","A10FNV58WR3D0G","335VBRURDJMQFRMOFGHOE9WKSHX9E1","","null","<img src=""img/flower5.png"" style=""width:200px; border:14px solid green;"">","null","","","","","","","","",""
"","image-keyboard-response","247","216553","0.0-247.0","39RP059MEIF91SRSL0O576S7X5FBMN","A10FNV58WR3D0G","335VBRURDJMQFRMOFGHOE9WKSHX9E1","","381.7000000178814","img/flower5.png","75","382.80000001192093","2","0","3","2","1,0,0,1,1,0,1,0,1","1,0,0,1,1,0,1,0,1","1",""
"","html-keyboard-response","248","216854","0.0-248.0","39RP059MEIF91SRSL0O576S7X5FBMN","A10FNV58WR3D0G","335VBRURDJMQFRMOFGHOE9WKSHX9E1","","null","<img src=""img/flower5.png"" style=""width:200px;border:14px solid red;"">","null","","","","","","","","",""
"","image-keyboard-response","249","217059","0.0-249.0","39RP059MEIF91SRSL0O576S7X5FBMN","A10FNV58WR3D0G","335VBRURDJMQFRMOFGHOE9WKSHX9E1","","203.90000000596046","img/flower6.png","75","205.2000000178814","2","1","2","2","1,0,0,1,1,0,1,0,1","1,0,0,1,1,0,1,0,1","1",""
"","html-keyboard-response","250","217360","0.0-250.0","39RP059MEIF91SRSL0O576S7X5FBMN","A10FNV58WR3D0G","335VBRURDJMQFRMOFGHOE9WKSHX9E1","","null","<img src=""img/flower6.png"" style=""width:200px; border:14px solid green;"">","null","","","","","","","","",""
"","image-keyboard-response","251","217536","0.0-251.0","39RP059MEIF91SRSL0O576S7X5FBMN","A10FNV58WR3D0G","335VBRURDJMQFRMOFGHOE9WKSHX9E1","","174.59999999403954","img/flower5.png","75","175.7999999821186","2","0","3","2","1,0,0,1,1,0,1,0,1","1,0,0,1,1,0,1,0,1","1",""
"","html-keyboard-response","252","217841","0.0-252.0","39RP059MEIF91SRSL0O576S7X5FBMN","A10FNV58WR3D0G","335VBRURDJMQFRMOFGHOE9WKSHX9E1","","null","<img src=""img/flower5.png"" style=""width:200px;border:14px solid red;"">","null","","","","","","","","",""
"","image-keyboard-response","253","218904","0.0-253.0","39RP059MEIF91SRSL0O576S7X5FBMN","A10FNV58WR3D0G","335VBRURDJMQFRMOFGHOE9WKSHX9E1","","1062.5","img/flower1.png","74","1063.5","1","1","1","2","1,0,0,1,1,0,1,0,1","1,0,0,1,1,0,1,0,1","1",""
"","html-keyboard-response","254","219205","0.0-254.0","39RP059MEIF91SRSL0O576S7X5FBMN","A10FNV58WR3D0G","335VBRURDJMQFRMOFGHOE9WKSHX9E1","","null","<img src=""img/flower1.png"" style=""width:200px; border:14px solid green;"">","null","","","","","","","","",""
"","image-keyboard-response","255","219298","0.0-255.0","39RP059MEIF91SRSL0O576S7X5FBMN","A10FNV58WR3D0G","335VBRURDJMQFRMOFGHOE9WKSHX9E1","","91","img/flower6.png","74","92.09999999403954","1","1","2","2","1,0,0,1,1,0,1,0,1","1,0,0,1,1,0,1,0,1","1",""
"","html-keyboard-response","256","219599","0.0-256.0","39RP059MEIF91SRSL0O576S7X5FBMN","A10FNV58WR3D0G","335VBRURDJMQFRMOFGHOE9WKSHX9E1","","null","<img src=""img/flower6.png"" style=""width:200px; border:14px solid green;"">","null","","","","","","","","",""
"","image-keyboard-response","257","220964","0.0-257.0","39RP059MEIF91SRSL0O576S7X5FBMN","A10FNV58WR3D0G","335VBRURDJMQFRMOFGHOE9WKSHX9E1","","1363.699999988079","img/flower1.png","75","1365","2","0","1","2","1,0,0,1,1,0,1,0,1","1,0,0,1,1,0,1,0,1","1",""
"","html-keyboard-response","258","221266","0.0-258.0","39RP059MEIF91SRSL0O576S7X5FBMN","A10FNV58WR3D0G","335VBRURDJMQFRMOFGHOE9WKSHX9E1","","null","<img src=""img/flower1.png"" style=""width:200px;border:14px solid red;"">","null","","","","","","","","",""
"","image-keyboard-response","259","221907","0.0-259.0","39RP059MEIF91SRSL0O576S7X5FBMN","A10FNV58WR3D0G","335VBRURDJMQFRMOFGHOE9WKSHX9E1","","640.5999999940395","img/flower6.png","75","641.6999999880791","2","1","2","2","1,0,0,1,1,0,1,0,1","1,0,0,1,1,0,1,0,1","1",""
"","html-keyboard-response","260","222209","0.0-260.0","39RP059MEIF91SRSL0O576S7X5FBMN","A10FNV58WR3D0G","335VBRURDJMQFRMOFGHOE9WKSHX9E1","","null","<img src=""img/flower6.png"" style=""width:200px; border:14px solid green;"">","null","","","","","","","","",""
"","image-keyboard-response","261","222408","0.0-261.0","39RP059MEIF91SRSL0O576S7X5FBMN","A10FNV58WR3D0G","335VBRURDJMQFRMOFGHOE9WKSHX9E1","","197.59999999403954","img/flower1.png","75","198.59999999403954","2","0","1","2","1,0,0,1,1,0,1,0,1","1,0,0,1,1,0,1,0,1","1",""
"","html-keyboard-response","262","222709","0.0-262.0","39RP059MEIF91SRSL0O576S7X5FBMN","A10FNV58WR3D0G","335VBRURDJMQFRMOFGHOE9WKSHX9E1","","null","<img src=""img/flower1.png"" style=""width:200px;border:14px solid red;"">","null","","","","","","","","",""
"","image-keyboard-response","263","223911","0.0-263.0","39RP059MEIF91SRSL0O576S7X5FBMN","A10FNV58WR3D0G","335VBRURDJMQFRMOFGHOE9WKSHX9E1","","1200","img/flower5.png","75","1201.300000011921","2","0","3","2","1,0,0,1,1,0,1,0,1","1,0,0,1,1,0,1,0,1","1",""
"","html-keyboard-response","264","224212","0.0-264.0","39RP059MEIF91SRSL0O576S7X5FBMN","A10FNV58WR3D0G","335VBRURDJMQFRMOFGHOE9WKSHX9E1","","null","<img src=""img/flower5.png"" style=""width:200px;border:14px solid red;"">","null","","","","","","","","",""
"","image-keyboard-response","265","224408","0.0-265.0","39RP059MEIF91SRSL0O576S7X5FBMN","A10FNV58WR3D0G","335VBRURDJMQFRMOFGHOE9WKSHX9E1","","195.09999999403954","img/flower1.png","75","195.89999997615814","2","0","1","2","1,0,0,1,1,0,1,0,1","1,0,0,1,1,0,1,0,1","1",""
"","html-keyboard-response","266","224710","0.0-266.0","39RP059MEIF91SRSL0O576S7X5FBMN","A10FNV58WR3D0G","335VBRURDJMQFRMOFGHOE9WKSHX9E1","","null","<img src=""img/flower1.png"" style=""width:200px;border:14px solid red;"">","null","","","","","","","","",""
"","image-keyboard-response","267","225442","0.0-267.0","39RP059MEIF91SRSL0O576S7X5FBMN","A10FNV58WR3D0G","335VBRURDJMQFRMOFGHOE9WKSHX9E1","","729.7999999821186","img/flower1.png","76","731","3","0","1","2","1,0,0,1,1,0,1,0,1","1,0,0,1,1,0,1,0,1","1",""
"","html-keyboard-response","268","225744","0.0-268.0","39RP059MEIF91SRSL0O576S7X5FBMN","A10FNV58WR3D0G","335VBRURDJMQFRMOFGHOE9WKSHX9E1","","null","<img src=""img/flower1.png"" style=""width:200px;border:14px solid red;"">","null","","","","","","","","",""
"","image-keyboard-response","269","226258","0.0-269.0","39RP059MEIF91SRSL0O576S7X5FBMN","A10FNV58WR3D0G","335VBRURDJMQFRMOFGHOE9WKSHX9E1","","512.5999999940395","img/flower5.png","76","513.9000000059605","3","1","3","2","1,0,0,1,1,0,1,0,1","1,0,0,1,1,0,1,0,1","1",""
"","html-keyboard-response","270","226561","0.0-270.0","39RP059MEIF91SRSL0O576S7X5FBMN","A10FNV58WR3D0G","335VBRURDJMQFRMOFGHOE9WKSHX9E1","","null","<img src=""img/flower5.png"" style=""width:200px; border:14px solid green;"">","null","","","","","","","","",""
"","image-keyboard-response","271","227755","0.0-271.0","39RP059MEIF91SRSL0O576S7X5FBMN","A10FNV58WR3D0G","335VBRURDJMQFRMOFGHOE9WKSHX9E1","","1193.199999988079","img/flower1.png","74","1193.800000011921","1","1","1","2","1,0,0,1,1,0,1,0,1","1,0,0,1,1,0,1,0,1","1",""
"","html-keyboard-response","272","228057","0.0-272.0","39RP059MEIF91SRSL0O576S7X5FBMN","A10FNV58WR3D0G","335VBRURDJMQFRMOFGHOE9WKSHX9E1","","null","<img src=""img/flower1.png"" style=""width:200px; border:14px solid green;"">","null","","","","","","","","",""
"","image-keyboard-response","273","228544","0.0-273.0","39RP059MEIF91SRSL0O576S7X5FBMN","A10FNV58WR3D0G","335VBRURDJMQFRMOFGHOE9WKSHX9E1","","485.69999998807907","img/flower1.png","74","487","1","1","1","2","1,0,0,1,1,0,1,0,1","1,0,0,1,1,0,1,0,1","1",""
"","html-keyboard-response","274","228845","0.0-274.0","39RP059MEIF91SRSL0O576S7X5FBMN","A10FNV58WR3D0G","335VBRURDJMQFRMOFGHOE9WKSHX9E1","","null","<img src=""img/flower1.png"" style=""width:200px; border:14px solid green;"">","null","","","","","","","","",""
"","image-keyboard-response","275","229603","0.0-275.0","39RP059MEIF91SRSL0O576S7X5FBMN","A10FNV58WR3D0G","335VBRURDJMQFRMOFGHOE9WKSHX9E1","","756.2999999821186","img/flower5.png","75","757.6999999880791","2","0","3","2","1,0,0,1,1,0,1,0,1","1,0,0,1,1,0,1,0,1","1",""
"","html-keyboard-response","276","229905","0.0-276.0","39RP059MEIF91SRSL0O576S7X5FBMN","A10FNV58WR3D0G","335VBRURDJMQFRMOFGHOE9WKSHX9E1","","null","<img src=""img/flower5.png"" style=""width:200px;border:14px solid red;"">","null","","","","","","","","",""
"","image-keyboard-response","277","230983","0.0-277.0","39RP059MEIF91SRSL0O576S7X5FBMN","A10FNV58WR3D0G","335VBRURDJMQFRMOFGHOE9WKSHX9E1","","1077","img/flower6.png","75","1078.199999988079","2","1","2","2","1,0,0,1,1,0,1,0,1","1,0,0,1,1,0,1,0,1","1",""
"","html-keyboard-response","278","231286","0.0-278.0","39RP059MEIF91SRSL0O576S7X5FBMN","A10FNV58WR3D0G","335VBRURDJMQFRMOFGHOE9WKSHX9E1","","null","<img src=""img/flower6.png"" style=""width:200px; border:14px solid green;"">","null","","","","","","","","",""
"","image-keyboard-response","279","231811","0.0-279.0","39RP059MEIF91SRSL0O576S7X5FBMN","A10FNV58WR3D0G","335VBRURDJMQFRMOFGHOE9WKSHX9E1","","524.1999999880791","img/flower6.png","75","525.4000000059605","2","1","2","2","1,0,0,1,1,0,1,0,1","1,0,0,1,1,0,1,0,1","1",""
"","html-keyboard-response","280","232113","0.0-280.0","39RP059MEIF91SRSL0O576S7X5FBMN","A10FNV58WR3D0G","335VBRURDJMQFRMOFGHOE9WKSHX9E1","","null","<img src=""img/flower6.png"" style=""width:200px; border:14px solid green;"">","null","","","","","","","","",""
"","image-keyboard-response","281","232941","0.0-281.0","39RP059MEIF91SRSL0O576S7X5FBMN","A10FNV58WR3D0G","335VBRURDJMQFRMOFGHOE9WKSHX9E1","","827","img/flower5.png","76","828.1999999880791","3","1","3","2","1,0,0,1,1,0,1,0,1","1,0,0,1,1,0,1,0,1","1",""
"","html-keyboard-response","282","233243","0.0-282.0","39RP059MEIF91SRSL0O576S7X5FBMN","A10FNV58WR3D0G","335VBRURDJMQFRMOFGHOE9WKSHX9E1","","null","<img src=""img/flower5.png"" style=""width:200px; border:14px solid green;"">","null","","","","","","","","",""
"","image-keyboard-response","283","233283","0.0-283.0","39RP059MEIF91SRSL0O576S7X5FBMN","A10FNV58WR3D0G","335VBRURDJMQFRMOFGHOE9WKSHX9E1","","38.70000001788139","img/flower5.png","76","39.80000001192093","3","1","3","2","1,0,0,1,1,0,1,0,1","1,0,0,1,1,0,1,0,1","1",""
"","html-keyboard-response","284","233584","0.0-284.0","39RP059MEIF91SRSL0O576S7X5FBMN","A10FNV58WR3D0G","335VBRURDJMQFRMOFGHOE9WKSHX9E1","","null","<img src=""img/flower5.png"" style=""width:200px; border:14px solid green;"">","null","","","","","","","","",""
"","image-keyboard-response","285","233788","0.0-285.0","39RP059MEIF91SRSL0O576S7X5FBMN","A10FNV58WR3D0G","335VBRURDJMQFRMOFGHOE9WKSHX9E1","","202.30000001192093","img/flower6.png","76","203.69999998807907","3","0","2","2","1,0,0,1,1,0,1,0,1","1,0,0,1,1,0,1,0,1","1",""
"","html-keyboard-response","286","234090","0.0-286.0","39RP059MEIF91SRSL0O576S7X5FBMN","A10FNV58WR3D0G","335VBRURDJMQFRMOFGHOE9WKSHX9E1","","null","<img src=""img/flower6.png"" style=""width:200px;border:14px solid red;"">","null","","","","","","","","",""
"","image-keyboard-response","287","234986","0.0-287.0","39RP059MEIF91SRSL0O576S7X5FBMN","A10FNV58WR3D0G","335VBRURDJMQFRMOFGHOE9WKSHX9E1","","894.8000000119209","img/flower5.png","76","895.5","3","1","3","2","1,0,0,1,1,0,1,0,1","1,0,0,1,1,0,1,0,1","1",""
"","html-keyboard-response","288","235289","0.0-288.0","39RP059MEIF91SRSL0O576S7X5FBMN","A10FNV58WR3D0G","335VBRURDJMQFRMOFGHOE9WKSHX9E1","","null","<img src=""img/flower5.png"" style=""width:200px; border:14px solid green;"">","null","","","","","","","","",""
"","image-keyboard-response","289","235313","0.0-289.0","39RP059MEIF91SRSL0O576S7X5FBMN","A10FNV58WR3D0G","335VBRURDJMQFRMOFGHOE9WKSHX9E1","","22.599999994039536","img/flower6.png","76","23.799999982118607","3","0","2","2","1,0,0,1,1,0,1,0,1","1,0,0,1,1,0,1,0,1","1",""
"","html-keyboard-response","290","235615","0.0-290.0","39RP059MEIF91SRSL0O576S7X5FBMN","A10FNV58WR3D0G","335VBRURDJMQFRMOFGHOE9WKSHX9E1","","null","<img src=""img/flower6.png"" style=""width:200px;border:14px solid red;"">","null","","","","","","","","",""
"","image-keyboard-response","291","236719","0.0-291.0","39RP059MEIF91SRSL0O576S7X5FBMN","A10FNV58WR3D0G","335VBRURDJMQFRMOFGHOE9WKSHX9E1","","1103","img/flower5.png","76","1103.699999988079","3","1","3","2","1,0,0,1,1,0,1,0,1","1,0,0,1,1,0,1,0,1","1",""
"","html-keyboard-response","292","237020","0.0-292.0","39RP059MEIF91SRSL0O576S7X5FBMN","A10FNV58WR3D0G","335VBRURDJMQFRMOFGHOE9WKSHX9E1","","null","<img src=""img/flower5.png"" style=""width:200px; border:14px solid green;"">","null","","","","","","","","",""
"","image-keyboard-response","293","237529","0.0-293.0","39RP059MEIF91SRSL0O576S7X5FBMN","A10FNV58WR3D0G","335VBRURDJMQFRMOFGHOE9WKSHX9E1","","507.59999999403954","img/flower6.png","75","508.7000000178814","2","1","2","2","1,0,0,1,1,0,1,0,1","1,0,0,1,1,0,1,0,1","1",""
"","html-keyboard-response","294","237830","0.0-294.0","39RP059MEIF91SRSL0O576S7X5FBMN","A10FNV58WR3D0G","335VBRURDJMQFRMOFGHOE9WKSHX9E1","","null","<img src=""img/flower6.png"" style=""width:200px; border:14px solid green;"">","null","","","","","","","","",""
"","image-keyboard-response","295","238557","0.0-295.0","39RP059MEIF91SRSL0O576S7X5FBMN","A10FNV58WR3D0G","335VBRURDJMQFRMOFGHOE9WKSHX9E1","","724.6999999880791","img/flower5.png","76","726","3","1","3","2","1,0,0,1,1,0,1,0,1","1,0,0,1,1,0,1,0,1","1",""
"","html-keyboard-response","296","238859","0.0-296.0","39RP059MEIF91SRSL0O576S7X5FBMN","A10FNV58WR3D0G","335VBRURDJMQFRMOFGHOE9WKSHX9E1","","null","<img src=""img/flower5.png"" style=""width:200px; border:14px solid green;"">","null","","","","","","","","",""
"","image-keyboard-response","297","239538","0.0-297.0","39RP059MEIF91SRSL0O576S7X5FBMN","A10FNV58WR3D0G","335VBRURDJMQFRMOFGHOE9WKSHX9E1","","677.9000000059605","img/flower1.png","74","679","1","1","1","2","1,0,0,1,1,0,1,0,1","1,0,0,1,1,0,1,0,1","1",""
"","html-keyboard-response","298","239840","0.0-298.0","39RP059MEIF91SRSL0O576S7X5FBMN","A10FNV58WR3D0G","335VBRURDJMQFRMOFGHOE9WKSHX9E1","","null","<img src=""img/flower1.png"" style=""width:200px; border:14px solid green;"">","null","","","","","","","","",""
"","image-keyboard-response","299","240536","0.0-299.0","39RP059MEIF91SRSL0O576S7X5FBMN","A10FNV58WR3D0G","335VBRURDJMQFRMOFGHOE9WKSHX9E1","","694.1999999880791","img/flower6.png","75","695.4000000059605","2","1","2","2","1,0,0,1,1,0,1,0,1","1,0,0,1,1,0,1,0,1","1",""
"","html-keyboard-response","300","240839","0.0-300.0","39RP059MEIF91SRSL0O576S7X5FBMN","A10FNV58WR3D0G","335VBRURDJMQFRMOFGHOE9WKSHX9E1","","null","<img src=""img/flower6.png"" style=""width:200px; border:14px solid green;"">","null","","","","","","","","",""
"","image-keyboard-response","301","241526","0.0-301.0","39RP059MEIF91SRSL0O576S7X5FBMN","A10FNV58WR3D0G","335VBRURDJMQFRMOFGHOE9WKSHX9E1","","687","img/flower6.png","75","688.0999999940395","2","1","2","2","1,0,0,1,1,0,1,0,1","1,0,0,1,1,0,1,0,1","1",""
"","html-keyboard-response","302","241829","0.0-302.0","39RP059MEIF91SRSL0O576S7X5FBMN","A10FNV58WR3D0G","335VBRURDJMQFRMOFGHOE9WKSHX9E1","","null","<img src=""img/flower6.png"" style=""width:200px; border:14px solid green;"">","null","","","","","","","","",""
"","image-keyboard-response","303","242549","0.0-303.0","39RP059MEIF91SRSL0O576S7X5FBMN","A10FNV58WR3D0G","335VBRURDJMQFRMOFGHOE9WKSHX9E1","","718.6999999880791","img/flower6.png","75","719.6999999880791","2","1","2","2","1,0,0,1,1,0,1,0,1","1,0,0,1,1,0,1,0,1","1",""
"","html-keyboard-response","304","242852","0.0-304.0","39RP059MEIF91SRSL0O576S7X5FBMN","A10FNV58WR3D0G","335VBRURDJMQFRMOFGHOE9WKSHX9E1","","null","<img src=""img/flower6.png"" style=""width:200px; border:14px solid green;"">","null","","","","","","","","",""
"","image-keyboard-response","305","243665","0.0-305.0","39RP059MEIF91SRSL0O576S7X5FBMN","A10FNV58WR3D0G","335VBRURDJMQFRMOFGHOE9WKSHX9E1","","812.5","img/flower5.png","76","813.6999999880791","3","1","3","2","1,0,0,1,1,0,1,0,1","1,0,0,1,1,0,1,0,1","1",""
"","html-keyboard-response","306","243967","0.0-306.0","39RP059MEIF91SRSL0O576S7X5FBMN","A10FNV58WR3D0G","335VBRURDJMQFRMOFGHOE9WKSHX9E1","","null","<img src=""img/flower5.png"" style=""width:200px; border:14px solid green;"">","null","","","","","","","","",""
"","image-keyboard-response","307","244931","0.0-307.0","39RP059MEIF91SRSL0O576S7X5FBMN","A10FNV58WR3D0G","335VBRURDJMQFRMOFGHOE9WKSHX9E1","","963.2999999821186","img/flower6.png","75","964.9000000059605","2","1","2","2","1,0,0,1,1,0,1,0,1","1,0,0,1,1,0,1,0,1","1",""
"","html-keyboard-response","308","245233","0.0-308.0","39RP059MEIF91SRSL0O576S7X5FBMN","A10FNV58WR3D0G","335VBRURDJMQFRMOFGHOE9WKSHX9E1","","null","<img src=""img/flower6.png"" style=""width:200px; border:14px solid green;"">","null","","","","","","","","",""
"","image-keyboard-response","309","246035","0.0-309.0","39RP059MEIF91SRSL0O576S7X5FBMN","A10FNV58WR3D0G","335VBRURDJMQFRMOFGHOE9WKSHX9E1","","800.9000000059605","img/flower1.png","74","801.5999999940395","1","1","1","2","1,0,0,1,1,0,1,0,1","1,0,0,1,1,0,1,0,1","1",""
"","html-keyboard-response","310","246338","0.0-310.0","39RP059MEIF91SRSL0O576S7X5FBMN","A10FNV58WR3D0G","335VBRURDJMQFRMOFGHOE9WKSHX9E1","","null","<img src=""img/flower1.png"" style=""width:200px; border:14px solid green;"">","null","","","","","","","","",""
"","image-keyboard-response","311","247066","0.0-311.0","39RP059MEIF91SRSL0O576S7X5FBMN","A10FNV58WR3D0G","335VBRURDJMQFRMOFGHOE9WKSHX9E1","","726.8000000119209","img/flower5.png","76","727.9000000059605","3","1","3","2","1,0,0,1,1,0,1,0,1","1,0,0,1,1,0,1,0,1","1",""
"","html-keyboard-response","312","247368","0.0-312.0","39RP059MEIF91SRSL0O576S7X5FBMN","A10FNV58WR3D0G","335VBRURDJMQFRMOFGHOE9WKSHX9E1","","null","<img src=""img/flower5.png"" style=""width:200px; border:14px solid green;"">","null","","","","","","","","",""
"","image-keyboard-response","313","248027","0.0-313.0","39RP059MEIF91SRSL0O576S7X5FBMN","A10FNV58WR3D0G","335VBRURDJMQFRMOFGHOE9WKSHX9E1","","657.0999999940395","img/flower6.png","75","658.2000000178814","2","1","2","2","1,0,0,1,1,0,1,0,1","1,0,0,1,1,0,1,0,1","1",""
"","html-keyboard-response","314","248329","0.0-314.0","39RP059MEIF91SRSL0O576S7X5FBMN","A10FNV58WR3D0G","335VBRURDJMQFRMOFGHOE9WKSHX9E1","","null","<img src=""img/flower6.png"" style=""width:200px; border:14px solid green;"">","null","","","","","","","","",""
"","image-keyboard-response","315","249059","0.0-315.0","39RP059MEIF91SRSL0O576S7X5FBMN","A10FNV58WR3D0G","335VBRURDJMQFRMOFGHOE9WKSHX9E1","","728.5999999940395","img/flower1.png","74","729.7000000178814","1","1","1","2","1,0,0,1,1,0,1,0,1","1,0,0,1,1,0,1,0,1","1",""
"","html-keyboard-response","316","249362","0.0-316.0","39RP059MEIF91SRSL0O576S7X5FBMN","A10FNV58WR3D0G","335VBRURDJMQFRMOFGHOE9WKSHX9E1","","null","<img src=""img/flower1.png"" style=""width:200px; border:14px solid green;"">","null","","","","","","","","",""
"","image-keyboard-response","317","249989","0.0-317.0","39RP059MEIF91SRSL0O576S7X5FBMN","A10FNV58WR3D0G","335VBRURDJMQFRMOFGHOE9WKSHX9E1","","626.5","img/flower6.png","75","627.2000000178814","2","1","2","2","1,0,0,1,1,0,1,0,1","1,0,0,1,1,0,1,0,1","1",""
"","html-keyboard-response","318","250291","0.0-318.0","39RP059MEIF91SRSL0O576S7X5FBMN","A10FNV58WR3D0G","335VBRURDJMQFRMOFGHOE9WKSHX9E1","","null","<img src=""img/flower6.png"" style=""width:200px; border:14px solid green;"">","null","","","","","","","","",""
"","image-keyboard-response","319","250978","0.0-319.0","39RP059MEIF91SRSL0O576S7X5FBMN","A10FNV58WR3D0G","335VBRURDJMQFRMOFGHOE9WKSHX9E1","","686.3999999761581","img/flower6.png","75","686.9000000059605","2","1","2","2","1,0,0,1,1,0,1,0,1","1,0,0,1,1,0,1,0,1","1",""
"","html-keyboard-response","320","251280","0.0-320.0","39RP059MEIF91SRSL0O576S7X5FBMN","A10FNV58WR3D0G","335VBRURDJMQFRMOFGHOE9WKSHX9E1","","null","<img src=""img/flower6.png"" style=""width:200px; border:14px solid green;"">","null","","","","","","","","",""
"","image-keyboard-response","321","252168","0.0-321.0","39RP059MEIF91SRSL0O576S7X5FBMN","A10FNV58WR3D0G","335VBRURDJMQFRMOFGHOE9WKSHX9E1","","886.6999999880791","img/flower5.png","76","887.9000000059605","3","1","3","2","1,0,0,1,1,0,1,0,1","1,0,0,1,1,0,1,0,1","1",""
"","html-keyboard-response","322","252469","0.0-322.0","39RP059MEIF91SRSL0O576S7X5FBMN","A10FNV58WR3D0G","335VBRURDJMQFRMOFGHOE9WKSHX9E1","","null","<img src=""img/flower5.png"" style=""width:200px; border:14px solid green;"">","null","","","","","","","","",""
"","image-keyboard-response","323","254104","0.0-323.0","39RP059MEIF91SRSL0O576S7X5FBMN","A10FNV58WR3D0G","335VBRURDJMQFRMOFGHOE9WKSHX9E1","","1634","img/flower1.png","74","1635","1","1","1","2","1,0,0,1,1,0,1,0,1","1,0,0,1,1,0,1,0,1","1",""
"","html-keyboard-response","324","254407","0.0-324.0","39RP059MEIF91SRSL0O576S7X5FBMN","A10FNV58WR3D0G","335VBRURDJMQFRMOFGHOE9WKSHX9E1","","null","<img src=""img/flower1.png"" style=""width:200px; border:14px solid green;"">","null","","","","","","","","",""
"","image-keyboard-response","325","255324","0.0-325.0","39RP059MEIF91SRSL0O576S7X5FBMN","A10FNV58WR3D0G","335VBRURDJMQFRMOFGHOE9WKSHX9E1","","916","img/flower5.png","75","917.1999999880791","2","0","3","2","1,0,0,1,1,0,1,0,1","1,0,0,1,1,0,1,0,1","1",""
"","html-keyboard-response","326","255626","0.0-326.0","39RP059MEIF91SRSL0O576S7X5FBMN","A10FNV58WR3D0G","335VBRURDJMQFRMOFGHOE9WKSHX9E1","","null","<img src=""img/flower5.png"" style=""width:200px;border:14px solid red;"">","null","","","","","","","","",""
"","image-keyboard-response","327","256950","0.0-327.0","39RP059MEIF91SRSL0O576S7X5FBMN","A10FNV58WR3D0G","335VBRURDJMQFRMOFGHOE9WKSHX9E1","","1321.800000011921","img/flower5.png","75","1323.199999988079","2","0","3","2","1,0,0,1,1,0,1,0,1","1,0,0,1,1,0,1,0,1","1",""
"","html-keyboard-response","328","257251","0.0-328.0","39RP059MEIF91SRSL0O576S7X5FBMN","A10FNV58WR3D0G","335VBRURDJMQFRMOFGHOE9WKSHX9E1","","null","<img src=""img/flower5.png"" style=""width:200px;border:14px solid red;"">","null","","","","","","","","",""
"","image-keyboard-response","329","258050","0.0-329.0","39RP059MEIF91SRSL0O576S7X5FBMN","A10FNV58WR3D0G","335VBRURDJMQFRMOFGHOE9WKSHX9E1","","797.7000000178814","img/flower6.png","75","798.7000000178814","2","1","2","2","1,0,0,1,1,0,1,0,1","1,0,0,1,1,0,1,0,1","1",""
"","html-keyboard-response","330","258352","0.0-330.0","39RP059MEIF91SRSL0O576S7X5FBMN","A10FNV58WR3D0G","335VBRURDJMQFRMOFGHOE9WKSHX9E1","","null","<img src=""img/flower6.png"" style=""width:200px; border:14px solid green;"">","null","","","","","","","","",""
"","image-keyboard-response","331","259063","0.0-331.0","39RP059MEIF91SRSL0O576S7X5FBMN","A10FNV58WR3D0G","335VBRURDJMQFRMOFGHOE9WKSHX9E1","","710.0999999940395","img/flower1.png","74","711.2000000178814","1","1","1","2","1,0,0,1,1,0,1,0,1","1,0,0,1,1,0,1,0,1","1",""
"","html-keyboard-response","332","259364","0.0-332.0","39RP059MEIF91SRSL0O576S7X5FBMN","A10FNV58WR3D0G","335VBRURDJMQFRMOFGHOE9WKSHX9E1","","null","<img src=""img/flower1.png"" style=""width:200px; border:14px solid green;"">","null","","","","","","","","",""
"","image-keyboard-response","333","260110","0.0-333.0","39RP059MEIF91SRSL0O576S7X5FBMN","A10FNV58WR3D0G","335VBRURDJMQFRMOFGHOE9WKSHX9E1","","744.7000000178814","img/flower6.png","75","745.3000000119209","2","1","2","2","1,0,0,1,1,0,1,0,1","1,0,0,1,1,0,1,0,1","1",""
"","html-keyboard-response","334","260412","0.0-334.0","39RP059MEIF91SRSL0O576S7X5FBMN","A10FNV58WR3D0G","335VBRURDJMQFRMOFGHOE9WKSHX9E1","","null","<img src=""img/flower6.png"" style=""width:200px; border:14px solid green;"">","null","","","","","","","","",""
"","image-keyboard-response","335","260990","0.0-335.0","39RP059MEIF91SRSL0O576S7X5FBMN","A10FNV58WR3D0G","335VBRURDJMQFRMOFGHOE9WKSHX9E1","","577.3000000119209","img/flower5.png","76","578.3000000119209","3","1","3","2","1,0,0,1,1,0,1,0,1","1,0,0,1,1,0,1,0,1","1",""
"","html-keyboard-response","336","261292","0.0-336.0","39RP059MEIF91SRSL0O576S7X5FBMN","A10FNV58WR3D0G","335VBRURDJMQFRMOFGHOE9WKSHX9E1","","null","<img src=""img/flower5.png"" style=""width:200px; border:14px solid green;"">","null","","","","","","","","",""
"","image-keyboard-response","337","261964","0.0-337.0","39RP059MEIF91SRSL0O576S7X5FBMN","A10FNV58WR3D0G","335VBRURDJMQFRMOFGHOE9WKSHX9E1","","670.5999999940395","img/flower1.png","74","671.9000000059605","1","1","1","2","1,0,0,1,1,0,1,0,1","1,0,0,1,1,0,1,0,1","1",""
"","html-keyboard-response","338","262266","0.0-338.0","39RP059MEIF91SRSL0O576S7X5FBMN","A10FNV58WR3D0G","335VBRURDJMQFRMOFGHOE9WKSHX9E1","","null","<img src=""img/flower1.png"" style=""width:200px; border:14px solid green;"">","null","","","","","","","","",""
"","image-keyboard-response","339","262751","0.0-339.0","39RP059MEIF91SRSL0O576S7X5FBMN","A10FNV58WR3D0G","335VBRURDJMQFRMOFGHOE9WKSHX9E1","","484.09999999403954","img/flower6.png","75","485.5","2","1","2","2","1,0,0,1,1,0,1,0,1","1,0,0,1,1,0,1,0,1","1",""
"","html-keyboard-response","340","263053","0.0-340.0","39RP059MEIF91SRSL0O576S7X5FBMN","A10FNV58WR3D0G","335VBRURDJMQFRMOFGHOE9WKSHX9E1","","null","<img src=""img/flower6.png"" style=""width:200px; border:14px solid green;"">","null","","","","","","","","",""
"","image-keyboard-response","341","263712","0.0-341.0","39RP059MEIF91SRSL0O576S7X5FBMN","A10FNV58WR3D0G","335VBRURDJMQFRMOFGHOE9WKSHX9E1","","657.8000000119209","img/flower6.png","75","659","2","1","2","2","1,0,0,1,1,0,1,0,1","1,0,0,1,1,0,1,0,1","1",""
"","html-keyboard-response","342","264015","0.0-342.0","39RP059MEIF91SRSL0O576S7X5FBMN","A10FNV58WR3D0G","335VBRURDJMQFRMOFGHOE9WKSHX9E1","","null","<img src=""img/flower6.png"" style=""width:200px; border:14px solid green;"">","null","","","","","","","","",""
"","image-keyboard-response","343","264909","0.0-343.0","39RP059MEIF91SRSL0O576S7X5FBMN","A10FNV58WR3D0G","335VBRURDJMQFRMOFGHOE9WKSHX9E1","","893.8000000119209","img/flower5.png","76","894.8000000119209","3","1","3","2","1,0,0,1,1,0,1,0,1","1,0,0,1,1,0,1,0,1","1",""
"","html-keyboard-response","344","265211","0.0-344.0","39RP059MEIF91SRSL0O576S7X5FBMN","A10FNV58WR3D0G","335VBRURDJMQFRMOFGHOE9WKSHX9E1","","null","<img src=""img/flower5.png"" style=""width:200px; border:14px solid green;"">","null","","","","","","","","",""
"","image-keyboard-response","345","265727","0.0-345.0","39RP059MEIF91SRSL0O576S7X5FBMN","A10FNV58WR3D0G","335VBRURDJMQFRMOFGHOE9WKSHX9E1","","514.2999999821186","img/flower1.png","74","515.4000000059605","1","1","1","2","1,0,0,1,1,0,1,0,1","1,0,0,1,1,0,1,0,1","1",""
"","html-keyboard-response","346","266030","0.0-346.0","39RP059MEIF91SRSL0O576S7X5FBMN","A10FNV58WR3D0G","335VBRURDJMQFRMOFGHOE9WKSHX9E1","","null","<img src=""img/flower1.png"" style=""width:200px; border:14px solid green;"">","null","","","","","","","","",""
"","image-keyboard-response","347","266696","0.0-347.0","39RP059MEIF91SRSL0O576S7X5FBMN","A10FNV58WR3D0G","335VBRURDJMQFRMOFGHOE9WKSHX9E1","","665","img/flower6.png","75","665.9000000059605","2","1","2","2","1,0,0,1,1,0,1,0,1","1,0,0,1,1,0,1,0,1","1",""
"","html-keyboard-response","348","266999","0.0-348.0","39RP059MEIF91SRSL0O576S7X5FBMN","A10FNV58WR3D0G","335VBRURDJMQFRMOFGHOE9WKSHX9E1","","null","<img src=""img/flower6.png"" style=""width:200px; border:14px solid green;"">","null","","","","","","","","",""
"","image-keyboard-response","349","267476","0.0-349.0","39RP059MEIF91SRSL0O576S7X5FBMN","A10FNV58WR3D0G","335VBRURDJMQFRMOFGHOE9WKSHX9E1","","476.5","img/flower6.png","75","477.2000000178814","2","1","2","2","1,0,0,1,1,0,1,0,1","1,0,0,1,1,0,1,0,1","1",""
"","html-keyboard-response","350","267777","0.0-350.0","39RP059MEIF91SRSL0O576S7X5FBMN","A10FNV58WR3D0G","335VBRURDJMQFRMOFGHOE9WKSHX9E1","","null","<img src=""img/flower6.png"" style=""width:200px; border:14px solid green;"">","null","","","","","","","","",""
"","image-keyboard-response","351","268621","0.0-351.0","39RP059MEIF91SRSL0O576S7X5FBMN","A10FNV58WR3D0G","335VBRURDJMQFRMOFGHOE9WKSHX9E1","","842.9000000059605","img/flower5.png","76","844.1999999880791","3","1","3","2","1,0,0,1,1,0,1,0,1","1,0,0,1,1,0,1,0,1","1",""
"","html-keyboard-response","352","268923","0.0-352.0","39RP059MEIF91SRSL0O576S7X5FBMN","A10FNV58WR3D0G","335VBRURDJMQFRMOFGHOE9WKSHX9E1","","null","<img src=""img/flower5.png"" style=""width:200px; border:14px solid green;"">","null","","","","","","","","",""
"","image-keyboard-response","353","269680","0.0-353.0","39RP059MEIF91SRSL0O576S7X5FBMN","A10FNV58WR3D0G","335VBRURDJMQFRMOFGHOE9WKSHX9E1","","755.8000000119209","img/flower1.png","74","756.8999999761581","1","1","1","2","1,0,0,1,1,0,1,0,1","1,0,0,1,1,0,1,0,1","1",""
"","html-keyboard-response","354","269981","0.0-354.0","39RP059MEIF91SRSL0O576S7X5FBMN","A10FNV58WR3D0G","335VBRURDJMQFRMOFGHOE9WKSHX9E1","","null","<img src=""img/flower1.png"" style=""width:200px; border:14px solid green;"">","null","","","","","","","","",""
"","image-keyboard-response","355","270831","0.0-355.0","39RP059MEIF91SRSL0O576S7X5FBMN","A10FNV58WR3D0G","335VBRURDJMQFRMOFGHOE9WKSHX9E1","","848.0999999940395","img/flower1.png","74","849.1999999880791","1","1","1","2","1,0,0,1,1,0,1,0,1","1,0,0,1,1,0,1,0,1","1",""
"","html-keyboard-response","356","271133","0.0-356.0","39RP059MEIF91SRSL0O576S7X5FBMN","A10FNV58WR3D0G","335VBRURDJMQFRMOFGHOE9WKSHX9E1","","null","<img src=""img/flower1.png"" style=""width:200px; border:14px solid green;"">","null","","","","","","","","",""
"","image-keyboard-response","357","271710","0.0-357.0","39RP059MEIF91SRSL0O576S7X5FBMN","A10FNV58WR3D0G","335VBRURDJMQFRMOFGHOE9WKSHX9E1","","576.1999999880791","img/flower1.png","74","576.7000000178814","1","1","1","2","1,0,0,1,1,0,1,0,1","1,0,0,1,1,0,1,0,1","1",""
"","html-keyboard-response","358","272011","0.0-358.0","39RP059MEIF91SRSL0O576S7X5FBMN","A10FNV58WR3D0G","335VBRURDJMQFRMOFGHOE9WKSHX9E1","","null","<img src=""img/flower1.png"" style=""width:200px; border:14px solid green;"">","null","","","","","","","","",""
"","image-keyboard-response","359","273129","0.0-359.0","39RP059MEIF91SRSL0O576S7X5FBMN","A10FNV58WR3D0G","335VBRURDJMQFRMOFGHOE9WKSHX9E1","","1116","img/flower5.png","76","1117.2000000178814","3","1","3","2","1,0,0,1,1,0,1,0,1","1,0,0,1,1,0,1,0,1","1",""
"","html-keyboard-response","360","273431","0.0-360.0","39RP059MEIF91SRSL0O576S7X5FBMN","A10FNV58WR3D0G","335VBRURDJMQFRMOFGHOE9WKSHX9E1","","null","<img src=""img/flower5.png"" style=""width:200px; border:14px solid green;"">","null","","","","","","","","",""
"","image-keyboard-response","361","274202","0.0-361.0","39RP059MEIF91SRSL0O576S7X5FBMN","A10FNV58WR3D0G","335VBRURDJMQFRMOFGHOE9WKSHX9E1","","770.0999999940395","img/flower6.png","75","771.3999999761581","2","1","2","2","1,0,0,1,1,0,1,0,1","1,0,0,1,1,0,1,0,1","1",""
"","html-keyboard-response","362","274505","0.0-362.0","39RP059MEIF91SRSL0O576S7X5FBMN","A10FNV58WR3D0G","335VBRURDJMQFRMOFGHOE9WKSHX9E1","","null","<img src=""img/flower6.png"" style=""width:200px; border:14px solid green;"">","null","","","","","","","","",""
"","instructions","363","282822","0.0-363.0","39RP059MEIF91SRSL0O576S7X5FBMN","A10FNV58WR3D0G","335VBRURDJMQFRMOFGHOE9WKSHX9E1","[{""page_index"":0,""viewing_time"":8315.5}]","8315.800000011921","","","","","","","","","","",""
"","survey-text","364","315211","0.0-364.0","39RP059MEIF91SRSL0O576S7X5FBMN","A10FNV58WR3D0G","335VBRURDJMQFRMOFGHOE9WKSHX9E1","","32385.59999999404","","","","","","","","","","","{""Q0"":""A10FNV58WR3D0G""}"
