"success","trial_type","trial_index","time_elapsed","internal_node_id","assignmentID","mturkID","hitID","view_history","rt","stimulus","key_press","reactionTime","a","r","s","cond","reward_cond","reward_cond_actual","reward_matrix_idx","responses"
"true","fullscreen","0","3542","0.0-0.0","3MHW492WW1ZOA6PYQHF58IME0QYMVT","A10HW8JXM17XLD","3HUR21WDDUBEMSLDIXZW1FAIHW8YX3","","","","","","","","","","","","",""
"","instructions","1","60873","0.0-1.0","3MHW492WW1ZOA6PYQHF58IME0QYMVT","A10HW8JXM17XLD","3HUR21WDDUBEMSLDIXZW1FAIHW8YX3","[{""page_index"":0,""viewing_time"":12158.699999809265},{""page_index"":1,""viewing_time"":5343.900000095367},{""page_index"":2,""viewing_time"":2775.699999809265},{""page_index"":3,""viewing_time"":6016},{""page_index"":4,""viewing_time"":7688},{""page_index"":5,""viewing_time"":8919.900000095367},{""page_index"":6,""viewing_time"":6487.900000095367},{""page_index"":7,""viewing_time"":7935.900000095367}]","57327.59999990463","","","","","","","","","","",""
"","image-keyboard-response","2","61889","0.0-2.0","3MHW492WW1ZOA6PYQHF58IME0QYMVT","A10HW8JXM17XLD","3HUR21WDDUBEMSLDIXZW1FAIHW8YX3","","1013","img/flower6.png","74","1015.5999999046326","1","1","1","2","1,0,0,1,1,0,1,0,1","1,0,0,1,1,0,1,0,1","1",""
"","html-keyboard-response","3","62197","0.0-3.0","3MHW492WW1ZOA6PYQHF58IME0QYMVT","A10HW8JXM17XLD","3HUR21WDDUBEMSLDIXZW1FAIHW8YX3","","null","<img src=""img/flower6.png"" style=""width:200px; border:14px solid green;"">","null","","","","","","","","",""
"","image-keyboard-response","4","63177","0.0-4.0","3MHW492WW1ZOA6PYQHF58IME0QYMVT","A10HW8JXM17XLD","3HUR21WDDUBEMSLDIXZW1FAIHW8YX3","","976.9000000953674","img/flower4.png","74","979.4000000953674","1","1","2","2","1,0,0,1,1,0,1,0,1","1,0,0,1,1,0,1,0,1","1",""
"","html-keyboard-response","5","63484","0.0-5.0","3MHW492WW1ZOA6PYQHF58IME0QYMVT","A10HW8JXM17XLD","3HUR21WDDUBEMSLDIXZW1FAIHW8YX3","","null","<img src=""img/flower4.png"" style=""width:200px; border:14px solid green;"">","null","","","","","","","","",""
"","image-keyboard-response","6","64593","0.0-6.0","3MHW492WW1ZOA6PYQHF58IME0QYMVT","A10HW8JXM17XLD","3HUR21WDDUBEMSLDIXZW1FAIHW8YX3","","1105.7000002861023","img/flower4.png","74","1108.4000000953674","1","1","2","2","1,0,0,1,1,0,1,0,1","1,0,0,1,1,0,1,0,1","1",""
"","html-keyboard-response","7","64900","0.0-7.0","3MHW492WW1ZOA6PYQHF58IME0QYMVT","A10HW8JXM17XLD","3HUR21WDDUBEMSLDIXZW1FAIHW8YX3","","null","<img src=""img/flower4.png"" style=""width:200px; border:14px solid green;"">","null","","","","","","","","",""
"","image-keyboard-response","8","65729","0.0-8.0","3MHW492WW1ZOA6PYQHF58IME0QYMVT","A10HW8JXM17XLD","3HUR21WDDUBEMSLDIXZW1FAIHW8YX3","","826.6000003814697","img/flower4.png","74","828.2999997138977","1","1","2","2","1,0,0,1,1,0,1,0,1","1,0,0,1,1,0,1,0,1","1",""
"","html-keyboard-response","9","66036","0.0-9.0","3MHW492WW1ZOA6PYQHF58IME0QYMVT","A10HW8JXM17XLD","3HUR21WDDUBEMSLDIXZW1FAIHW8YX3","","null","<img src=""img/flower4.png"" style=""width:200px; border:14px solid green;"">","null","","","","","","","","",""
"","image-keyboard-response","10","66841","0.0-10.0","3MHW492WW1ZOA6PYQHF58IME0QYMVT","A10HW8JXM17XLD","3HUR21WDDUBEMSLDIXZW1FAIHW8YX3","","802.1999998092651","img/flower5.png","74","804.3000001907349","1","1","3","2","1,0,0,1,1,0,1,0,1","1,0,0,1,1,0,1,0,1","1",""
"","html-keyboard-response","11","67148","0.0-11.0","3MHW492WW1ZOA6PYQHF58IME0QYMVT","A10HW8JXM17XLD","3HUR21WDDUBEMSLDIXZW1FAIHW8YX3","","null","<img src=""img/flower5.png"" style=""width:200px; border:14px solid green;"">","null","","","","","","","","",""
"","image-keyboard-response","12","67816","0.0-12.0","3MHW492WW1ZOA6PYQHF58IME0QYMVT","A10HW8JXM17XLD","3HUR21WDDUBEMSLDIXZW1FAIHW8YX3","","665.5","img/flower6.png","74","667.5","1","1","1","2","1,0,0,1,1,0,1,0,1","1,0,0,1,1,0,1,0,1","1",""
"","html-keyboard-response","13","68124","0.0-13.0","3MHW492WW1ZOA6PYQHF58IME0QYMVT","A10HW8JXM17XLD","3HUR21WDDUBEMSLDIXZW1FAIHW8YX3","","null","<img src=""img/flower6.png"" style=""width:200px; border:14px solid green;"">","null","","","","","","","","",""
"","image-keyboard-response","14","68920","0.0-14.0","3MHW492WW1ZOA6PYQHF58IME0QYMVT","A10HW8JXM17XLD","3HUR21WDDUBEMSLDIXZW1FAIHW8YX3","","793.2999997138977","img/flower5.png","74","795.5999999046326","1","1","3","2","1,0,0,1,1,0,1,0,1","1,0,0,1,1,0,1,0,1","1",""
"","html-keyboard-response","15","69229","0.0-15.0","3MHW492WW1ZOA6PYQHF58IME0QYMVT","A10HW8JXM17XLD","3HUR21WDDUBEMSLDIXZW1FAIHW8YX3","","null","<img src=""img/flower5.png"" style=""width:200px; border:14px solid green;"">","null","","","","","","","","",""
"","image-keyboard-response","16","69920","0.0-16.0","3MHW492WW1ZOA6PYQHF58IME0QYMVT","A10HW8JXM17XLD","3HUR21WDDUBEMSLDIXZW1FAIHW8YX3","","688.9000000953674","img/flower4.png","74","691.1000003814697","1","1","2","2","1,0,0,1,1,0,1,0,1","1,0,0,1,1,0,1,0,1","1",""
"","html-keyboard-response","17","70228","0.0-17.0","3MHW492WW1ZOA6PYQHF58IME0QYMVT","A10HW8JXM17XLD","3HUR21WDDUBEMSLDIXZW1FAIHW8YX3","","null","<img src=""img/flower4.png"" style=""width:200px; border:14px solid green;"">","null","","","","","","","","",""
"","image-keyboard-response","18","70929","0.0-18.0","3MHW492WW1ZOA6PYQHF58IME0QYMVT","A10HW8JXM17XLD","3HUR21WDDUBEMSLDIXZW1FAIHW8YX3","","697.7999997138977","img/flower5.png","74","699.9000000953674","1","1","3","2","1,0,0,1,1,0,1,0,1","1,0,0,1,1,0,1,0,1","1",""
"","html-keyboard-response","19","71236","0.0-19.0","3MHW492WW1ZOA6PYQHF58IME0QYMVT","A10HW8JXM17XLD","3HUR21WDDUBEMSLDIXZW1FAIHW8YX3","","null","<img src=""img/flower5.png"" style=""width:200px; border:14px solid green;"">","null","","","","","","","","",""
"","image-keyboard-response","20","71985","0.0-20.0","3MHW492WW1ZOA6PYQHF58IME0QYMVT","A10HW8JXM17XLD","3HUR21WDDUBEMSLDIXZW1FAIHW8YX3","","745.7999997138977","img/flower4.png","74","748","1","1","2","2","1,0,0,1,1,0,1,0,1","1,0,0,1,1,0,1,0,1","1",""
"","html-keyboard-response","21","72293","0.0-21.0","3MHW492WW1ZOA6PYQHF58IME0QYMVT","A10HW8JXM17XLD","3HUR21WDDUBEMSLDIXZW1FAIHW8YX3","","null","<img src=""img/flower4.png"" style=""width:200px; border:14px solid green;"">","null","","","","","","","","",""
"","image-keyboard-response","22","72904","0.0-22.0","3MHW492WW1ZOA6PYQHF58IME0QYMVT","A10HW8JXM17XLD","3HUR21WDDUBEMSLDIXZW1FAIHW8YX3","","609.5999999046326","img/flower5.png","74","611.7000002861023","1","1","3","2","1,0,0,1,1,0,1,0,1","1,0,0,1,1,0,1,0,1","1",""
"","html-keyboard-response","23","73212","0.0-23.0","3MHW492WW1ZOA6PYQHF58IME0QYMVT","A10HW8JXM17XLD","3HUR21WDDUBEMSLDIXZW1FAIHW8YX3","","null","<img src=""img/flower5.png"" style=""width:200px; border:14px solid green;"">","null","","","","","","","","",""
"","image-keyboard-response","24","74072","0.0-24.0","3MHW492WW1ZOA6PYQHF58IME0QYMVT","A10HW8JXM17XLD","3HUR21WDDUBEMSLDIXZW1FAIHW8YX3","","857.5999999046326","img/flower6.png","74","859.8000001907349","1","1","1","2","1,0,0,1,1,0,1,0,1","1,0,0,1,1,0,1,0,1","1",""
"","html-keyboard-response","25","74379","0.0-25.0","3MHW492WW1ZOA6PYQHF58IME0QYMVT","A10HW8JXM17XLD","3HUR21WDDUBEMSLDIXZW1FAIHW8YX3","","null","<img src=""img/flower6.png"" style=""width:200px; border:14px solid green;"">","null","","","","","","","","",""
"","image-keyboard-response","26","74984","0.0-26.0","3MHW492WW1ZOA6PYQHF58IME0QYMVT","A10HW8JXM17XLD","3HUR21WDDUBEMSLDIXZW1FAIHW8YX3","","602.6999998092651","img/flower4.png","74","604.8000001907349","1","1","2","2","1,0,0,1,1,0,1,0,1","1,0,0,1,1,0,1,0,1","1",""
"","html-keyboard-response","27","75292","0.0-27.0","3MHW492WW1ZOA6PYQHF58IME0QYMVT","A10HW8JXM17XLD","3HUR21WDDUBEMSLDIXZW1FAIHW8YX3","","null","<img src=""img/flower4.png"" style=""width:200px; border:14px solid green;"">","null","","","","","","","","",""
"","image-keyboard-response","28","75936","0.0-28.0","3MHW492WW1ZOA6PYQHF58IME0QYMVT","A10HW8JXM17XLD","3HUR21WDDUBEMSLDIXZW1FAIHW8YX3","","642","img/flower4.png","74","643.9000000953674","1","1","2","2","1,0,0,1,1,0,1,0,1","1,0,0,1,1,0,1,0,1","1",""
"","html-keyboard-response","29","76244","0.0-29.0","3MHW492WW1ZOA6PYQHF58IME0QYMVT","A10HW8JXM17XLD","3HUR21WDDUBEMSLDIXZW1FAIHW8YX3","","null","<img src=""img/flower4.png"" style=""width:200px; border:14px solid green;"">","null","","","","","","","","",""
"","image-keyboard-response","30","76977","0.0-30.0","3MHW492WW1ZOA6PYQHF58IME0QYMVT","A10HW8JXM17XLD","3HUR21WDDUBEMSLDIXZW1FAIHW8YX3","","730.8000001907349","img/flower5.png","74","732.7999997138977","1","1","3","2","1,0,0,1,1,0,1,0,1","1,0,0,1,1,0,1,0,1","1",""
"","html-keyboard-response","31","77284","0.0-31.0","3MHW492WW1ZOA6PYQHF58IME0QYMVT","A10HW8JXM17XLD","3HUR21WDDUBEMSLDIXZW1FAIHW8YX3","","null","<img src=""img/flower5.png"" style=""width:200px; border:14px solid green;"">","null","","","","","","","","",""
"","image-keyboard-response","32","77888","0.0-32.0","3MHW492WW1ZOA6PYQHF58IME0QYMVT","A10HW8JXM17XLD","3HUR21WDDUBEMSLDIXZW1FAIHW8YX3","","601.7999997138977","img/flower5.png","74","603.7000002861023","1","1","3","2","1,0,0,1,1,0,1,0,1","1,0,0,1,1,0,1,0,1","1",""
"","html-keyboard-response","33","78196","0.0-33.0","3MHW492WW1ZOA6PYQHF58IME0QYMVT","A10HW8JXM17XLD","3HUR21WDDUBEMSLDIXZW1FAIHW8YX3","","null","<img src=""img/flower5.png"" style=""width:200px; border:14px solid green;"">","null","","","","","","","","",""
"","image-keyboard-response","34","78824","0.0-34.0","3MHW492WW1ZOA6PYQHF58IME0QYMVT","A10HW8JXM17XLD","3HUR21WDDUBEMSLDIXZW1FAIHW8YX3","","625.6999998092651","img/flower4.png","74","627.5","1","1","2","2","1,0,0,1,1,0,1,0,1","1,0,0,1,1,0,1,0,1","1",""
"","html-keyboard-response","35","79132","0.0-35.0","3MHW492WW1ZOA6PYQHF58IME0QYMVT","A10HW8JXM17XLD","3HUR21WDDUBEMSLDIXZW1FAIHW8YX3","","null","<img src=""img/flower4.png"" style=""width:200px; border:14px solid green;"">","null","","","","","","","","",""
"","image-keyboard-response","36","79704","0.0-36.0","3MHW492WW1ZOA6PYQHF58IME0QYMVT","A10HW8JXM17XLD","3HUR21WDDUBEMSLDIXZW1FAIHW8YX3","","569.7999997138977","img/flower5.png","74","571.9000000953674","1","1","3","2","1,0,0,1,1,0,1,0,1","1,0,0,1,1,0,1,0,1","1",""
"","html-keyboard-response","37","80011","0.0-37.0","3MHW492WW1ZOA6PYQHF58IME0QYMVT","A10HW8JXM17XLD","3HUR21WDDUBEMSLDIXZW1FAIHW8YX3","","null","<img src=""img/flower5.png"" style=""width:200px; border:14px solid green;"">","null","","","","","","","","",""
"","image-keyboard-response","38","80600","0.0-38.0","3MHW492WW1ZOA6PYQHF58IME0QYMVT","A10HW8JXM17XLD","3HUR21WDDUBEMSLDIXZW1FAIHW8YX3","","586.6999998092651","img/flower6.png","74","588.6000003814697","1","1","1","2","1,0,0,1,1,0,1,0,1","1,0,0,1,1,0,1,0,1","1",""
"","html-keyboard-response","39","80908","0.0-39.0","3MHW492WW1ZOA6PYQHF58IME0QYMVT","A10HW8JXM17XLD","3HUR21WDDUBEMSLDIXZW1FAIHW8YX3","","null","<img src=""img/flower6.png"" style=""width:200px; border:14px solid green;"">","null","","","","","","","","",""
"","image-keyboard-response","40","81664","0.0-40.0","3MHW492WW1ZOA6PYQHF58IME0QYMVT","A10HW8JXM17XLD","3HUR21WDDUBEMSLDIXZW1FAIHW8YX3","","753.7999997138977","img/flower5.png","74","755.9000000953674","1","1","3","2","1,0,0,1,1,0,1,0,1","1,0,0,1,1,0,1,0,1","1",""
"","html-keyboard-response","41","81972","0.0-41.0","3MHW492WW1ZOA6PYQHF58IME0QYMVT","A10HW8JXM17XLD","3HUR21WDDUBEMSLDIXZW1FAIHW8YX3","","null","<img src=""img/flower5.png"" style=""width:200px; border:14px solid green;"">","null","","","","","","","","",""
"","image-keyboard-response","42","82544","0.0-42.0","3MHW492WW1ZOA6PYQHF58IME0QYMVT","A10HW8JXM17XLD","3HUR21WDDUBEMSLDIXZW1FAIHW8YX3","","569.5","img/flower6.png","74","571.6000003814697","1","1","1","2","1,0,0,1,1,0,1,0,1","1,0,0,1,1,0,1,0,1","1",""
"","html-keyboard-response","43","82851","0.0-43.0","3MHW492WW1ZOA6PYQHF58IME0QYMVT","A10HW8JXM17XLD","3HUR21WDDUBEMSLDIXZW1FAIHW8YX3","","null","<img src=""img/flower6.png"" style=""width:200px; border:14px solid green;"">","null","","","","","","","","",""
"","image-keyboard-response","44","83480","0.0-44.0","3MHW492WW1ZOA6PYQHF58IME0QYMVT","A10HW8JXM17XLD","3HUR21WDDUBEMSLDIXZW1FAIHW8YX3","","626.6999998092651","img/flower4.png","74","628.5999999046326","1","1","2","2","1,0,0,1,1,0,1,0,1","1,0,0,1,1,0,1,0,1","1",""
"","html-keyboard-response","45","83787","0.0-45.0","3MHW492WW1ZOA6PYQHF58IME0QYMVT","A10HW8JXM17XLD","3HUR21WDDUBEMSLDIXZW1FAIHW8YX3","","null","<img src=""img/flower4.png"" style=""width:200px; border:14px solid green;"">","null","","","","","","","","",""
"","image-keyboard-response","46","84432","0.0-46.0","3MHW492WW1ZOA6PYQHF58IME0QYMVT","A10HW8JXM17XLD","3HUR21WDDUBEMSLDIXZW1FAIHW8YX3","","642.4000000953674","img/flower6.png","74","644.3999996185303","1","1","1","2","1,0,0,1,1,0,1,0,1","1,0,0,1,1,0,1,0,1","1",""
"","html-keyboard-response","47","84741","0.0-47.0","3MHW492WW1ZOA6PYQHF58IME0QYMVT","A10HW8JXM17XLD","3HUR21WDDUBEMSLDIXZW1FAIHW8YX3","","null","<img src=""img/flower6.png"" style=""width:200px; border:14px solid green;"">","null","","","","","","","","",""
"","image-keyboard-response","48","85393","0.0-48.0","3MHW492WW1ZOA6PYQHF58IME0QYMVT","A10HW8JXM17XLD","3HUR21WDDUBEMSLDIXZW1FAIHW8YX3","","649.1000003814697","img/flower4.png","74","651.5","1","1","2","2","1,0,0,1,1,0,1,0,1","1,0,0,1,1,0,1,0,1","1",""
"","html-keyboard-response","49","85701","0.0-49.0","3MHW492WW1ZOA6PYQHF58IME0QYMVT","A10HW8JXM17XLD","3HUR21WDDUBEMSLDIXZW1FAIHW8YX3","","null","<img src=""img/flower4.png"" style=""width:200px; border:14px solid green;"">","null","","","","","","","","",""
"","image-keyboard-response","50","86296","0.0-50.0","3MHW492WW1ZOA6PYQHF58IME0QYMVT","A10HW8JXM17XLD","3HUR21WDDUBEMSLDIXZW1FAIHW8YX3","","593.0999999046326","img/flower6.png","74","595.4000000953674","1","1","1","2","1,0,0,1,1,0,1,0,1","1,0,0,1,1,0,1,0,1","1",""
"","html-keyboard-response","51","86603","0.0-51.0","3MHW492WW1ZOA6PYQHF58IME0QYMVT","A10HW8JXM17XLD","3HUR21WDDUBEMSLDIXZW1FAIHW8YX3","","null","<img src=""img/flower6.png"" style=""width:200px; border:14px solid green;"">","null","","","","","","","","",""
"","image-keyboard-response","52","87393","0.0-52.0","3MHW492WW1ZOA6PYQHF58IME0QYMVT","A10HW8JXM17XLD","3HUR21WDDUBEMSLDIXZW1FAIHW8YX3","","787.1999998092651","img/flower5.png","74","789.1000003814697","1","1","3","2","1,0,0,1,1,0,1,0,1","1,0,0,1,1,0,1,0,1","1",""
"","html-keyboard-response","53","87700","0.0-53.0","3MHW492WW1ZOA6PYQHF58IME0QYMVT","A10HW8JXM17XLD","3HUR21WDDUBEMSLDIXZW1FAIHW8YX3","","null","<img src=""img/flower5.png"" style=""width:200px; border:14px solid green;"">","null","","","","","","","","",""
"","image-keyboard-response","54","88360","0.0-54.0","3MHW492WW1ZOA6PYQHF58IME0QYMVT","A10HW8JXM17XLD","3HUR21WDDUBEMSLDIXZW1FAIHW8YX3","","657.6999998092651","img/flower6.png","74","659.6000003814697","1","1","1","2","1,0,0,1,1,0,1,0,1","1,0,0,1,1,0,1,0,1","1",""
"","html-keyboard-response","55","88668","0.0-55.0","3MHW492WW1ZOA6PYQHF58IME0QYMVT","A10HW8JXM17XLD","3HUR21WDDUBEMSLDIXZW1FAIHW8YX3","","null","<img src=""img/flower6.png"" style=""width:200px; border:14px solid green;"">","null","","","","","","","","",""
"","image-keyboard-response","56","89768","0.0-56.0","3MHW492WW1ZOA6PYQHF58IME0QYMVT","A10HW8JXM17XLD","3HUR21WDDUBEMSLDIXZW1FAIHW8YX3","","1097.6999998092651","img/flower6.png","74","1099.9000000953674","1","1","1","2","1,0,0,1,1,0,1,0,1","1,0,0,1,1,0,1,0,1","1",""
"","html-keyboard-response","57","90076","0.0-57.0","3MHW492WW1ZOA6PYQHF58IME0QYMVT","A10HW8JXM17XLD","3HUR21WDDUBEMSLDIXZW1FAIHW8YX3","","null","<img src=""img/flower6.png"" style=""width:200px; border:14px solid green;"">","null","","","","","","","","",""
"","image-keyboard-response","58","90752","0.0-58.0","3MHW492WW1ZOA6PYQHF58IME0QYMVT","A10HW8JXM17XLD","3HUR21WDDUBEMSLDIXZW1FAIHW8YX3","","673.5999999046326","img/flower6.png","74","675.5999999046326","1","1","1","2","1,0,0,1,1,0,1,0,1","1,0,0,1,1,0,1,0,1","1",""
"","html-keyboard-response","59","91060","0.0-59.0","3MHW492WW1ZOA6PYQHF58IME0QYMVT","A10HW8JXM17XLD","3HUR21WDDUBEMSLDIXZW1FAIHW8YX3","","null","<img src=""img/flower6.png"" style=""width:200px; border:14px solid green;"">","null","","","","","","","","",""
"","image-keyboard-response","60","91816","0.0-60.0","3MHW492WW1ZOA6PYQHF58IME0QYMVT","A10HW8JXM17XLD","3HUR21WDDUBEMSLDIXZW1FAIHW8YX3","","753.5","img/flower5.png","74","755.5999999046326","1","1","3","2","1,0,0,1,1,0,1,0,1","1,0,0,1,1,0,1,0,1","1",""
"","html-keyboard-response","61","92123","0.0-61.0","3MHW492WW1ZOA6PYQHF58IME0QYMVT","A10HW8JXM17XLD","3HUR21WDDUBEMSLDIXZW1FAIHW8YX3","","null","<img src=""img/flower5.png"" style=""width:200px; border:14px solid green;"">","null","","","","","","","","",""
"","image-keyboard-response","62","92672","0.0-62.0","3MHW492WW1ZOA6PYQHF58IME0QYMVT","A10HW8JXM17XLD","3HUR21WDDUBEMSLDIXZW1FAIHW8YX3","","546.0999999046326","img/flower4.png","74","548.1999998092651","1","1","2","2","1,0,0,1,1,0,1,0,1","1,0,0,1,1,0,1,0,1","1",""
"","html-keyboard-response","63","92980","0.0-63.0","3MHW492WW1ZOA6PYQHF58IME0QYMVT","A10HW8JXM17XLD","3HUR21WDDUBEMSLDIXZW1FAIHW8YX3","","null","<img src=""img/flower4.png"" style=""width:200px; border:14px solid green;"">","null","","","","","","","","",""
"","image-keyboard-response","64","93552","0.0-64.0","3MHW492WW1ZOA6PYQHF58IME0QYMVT","A10HW8JXM17XLD","3HUR21WDDUBEMSLDIXZW1FAIHW8YX3","","569.9000000953674","img/flower4.png","74","571.9000000953674","1","1","2","2","1,0,0,1,1,0,1,0,1","1,0,0,1,1,0,1,0,1","1",""
"","html-keyboard-response","65","93861","0.0-65.0","3MHW492WW1ZOA6PYQHF58IME0QYMVT","A10HW8JXM17XLD","3HUR21WDDUBEMSLDIXZW1FAIHW8YX3","","null","<img src=""img/flower4.png"" style=""width:200px; border:14px solid green;"">","null","","","","","","","","",""
"","image-keyboard-response","66","94696","0.0-66.0","3MHW492WW1ZOA6PYQHF58IME0QYMVT","A10HW8JXM17XLD","3HUR21WDDUBEMSLDIXZW1FAIHW8YX3","","833.3000001907349","img/flower5.png","74","835.2999997138977","1","1","3","2","1,0,0,1,1,0,1,0,1","1,0,0,1,1,0,1,0,1","1",""
"","html-keyboard-response","67","95004","0.0-67.0","3MHW492WW1ZOA6PYQHF58IME0QYMVT","A10HW8JXM17XLD","3HUR21WDDUBEMSLDIXZW1FAIHW8YX3","","null","<img src=""img/flower5.png"" style=""width:200px; border:14px solid green;"">","null","","","","","","","","",""
"","image-keyboard-response","68","95624","0.0-68.0","3MHW492WW1ZOA6PYQHF58IME0QYMVT","A10HW8JXM17XLD","3HUR21WDDUBEMSLDIXZW1FAIHW8YX3","","617.6999998092651","img/flower4.png","74","619.9000000953674","1","1","2","2","1,0,0,1,1,0,1,0,1","1,0,0,1,1,0,1,0,1","1",""
"","html-keyboard-response","69","95932","0.0-69.0","3MHW492WW1ZOA6PYQHF58IME0QYMVT","A10HW8JXM17XLD","3HUR21WDDUBEMSLDIXZW1FAIHW8YX3","","null","<img src=""img/flower4.png"" style=""width:200px; border:14px solid green;"">","null","","","","","","","","",""
"","image-keyboard-response","70","96480","0.0-70.0","3MHW492WW1ZOA6PYQHF58IME0QYMVT","A10HW8JXM17XLD","3HUR21WDDUBEMSLDIXZW1FAIHW8YX3","","545.9000000953674","img/flower4.png","74","547.6999998092651","1","1","2","2","1,0,0,1,1,0,1,0,1","1,0,0,1,1,0,1,0,1","1",""
"","html-keyboard-response","71","96788","0.0-71.0","3MHW492WW1ZOA6PYQHF58IME0QYMVT","A10HW8JXM17XLD","3HUR21WDDUBEMSLDIXZW1FAIHW8YX3","","null","<img src=""img/flower4.png"" style=""width:200px; border:14px solid green;"">","null","","","","","","","","",""
"","image-keyboard-response","72","97432","0.0-72.0","3MHW492WW1ZOA6PYQHF58IME0QYMVT","A10HW8JXM17XLD","3HUR21WDDUBEMSLDIXZW1FAIHW8YX3","","641.3000001907349","img/flower5.png","74","642.8999996185303","1","1","3","2","1,0,0,1,1,0,1,0,1","1,0,0,1,1,0,1,0,1","1",""
"","html-keyboard-response","73","97740","0.0-73.0","3MHW492WW1ZOA6PYQHF58IME0QYMVT","A10HW8JXM17XLD","3HUR21WDDUBEMSLDIXZW1FAIHW8YX3","","null","<img src=""img/flower5.png"" style=""width:200px; border:14px solid green;"">","null","","","","","","","","",""
"","image-keyboard-response","74","98272","0.0-74.0","3MHW492WW1ZOA6PYQHF58IME0QYMVT","A10HW8JXM17XLD","3HUR21WDDUBEMSLDIXZW1FAIHW8YX3","","529.4000000953674","img/flower5.png","74","531.5","1","1","3","2","1,0,0,1,1,0,1,0,1","1,0,0,1,1,0,1,0,1","1",""
"","html-keyboard-response","75","98579","0.0-75.0","3MHW492WW1ZOA6PYQHF58IME0QYMVT","A10HW8JXM17XLD","3HUR21WDDUBEMSLDIXZW1FAIHW8YX3","","null","<img src=""img/flower5.png"" style=""width:200px; border:14px solid green;"">","null","","","","","","","","",""
"","image-keyboard-response","76","99225","0.0-76.0","3MHW492WW1ZOA6PYQHF58IME0QYMVT","A10HW8JXM17XLD","3HUR21WDDUBEMSLDIXZW1FAIHW8YX3","","642.5999999046326","img/flower4.png","74","644.8000001907349","1","1","2","2","1,0,0,1,1,0,1,0,1","1,0,0,1,1,0,1,0,1","1",""
"","html-keyboard-response","77","99533","0.0-77.0","3MHW492WW1ZOA6PYQHF58IME0QYMVT","A10HW8JXM17XLD","3HUR21WDDUBEMSLDIXZW1FAIHW8YX3","","null","<img src=""img/flower4.png"" style=""width:200px; border:14px solid green;"">","null","","","","","","","","",""
"","image-keyboard-response","78","100120","0.0-78.0","3MHW492WW1ZOA6PYQHF58IME0QYMVT","A10HW8JXM17XLD","3HUR21WDDUBEMSLDIXZW1FAIHW8YX3","","585.8000001907349","img/flower6.png","74","587.4000000953674","1","1","1","2","1,0,0,1,1,0,1,0,1","1,0,0,1,1,0,1,0,1","1",""
"","html-keyboard-response","79","100428","0.0-79.0","3MHW492WW1ZOA6PYQHF58IME0QYMVT","A10HW8JXM17XLD","3HUR21WDDUBEMSLDIXZW1FAIHW8YX3","","null","<img src=""img/flower6.png"" style=""width:200px; border:14px solid green;"">","null","","","","","","","","",""
"","image-keyboard-response","80","101032","0.0-80.0","3MHW492WW1ZOA6PYQHF58IME0QYMVT","A10HW8JXM17XLD","3HUR21WDDUBEMSLDIXZW1FAIHW8YX3","","601.4000000953674","img/flower4.png","74","603.3999996185303","1","1","2","2","1,0,0,1,1,0,1,0,1","1,0,0,1,1,0,1,0,1","1",""
"","html-keyboard-response","81","101341","0.0-81.0","3MHW492WW1ZOA6PYQHF58IME0QYMVT","A10HW8JXM17XLD","3HUR21WDDUBEMSLDIXZW1FAIHW8YX3","","null","<img src=""img/flower4.png"" style=""width:200px; border:14px solid green;"">","null","","","","","","","","",""
"","image-keyboard-response","82","102016","0.0-82.0","3MHW492WW1ZOA6PYQHF58IME0QYMVT","A10HW8JXM17XLD","3HUR21WDDUBEMSLDIXZW1FAIHW8YX3","","672.4000000953674","img/flower5.png","74","674.9000000953674","1","1","3","2","1,0,0,1,1,0,1,0,1","1,0,0,1,1,0,1,0,1","1",""
"","html-keyboard-response","83","102324","0.0-83.0","3MHW492WW1ZOA6PYQHF58IME0QYMVT","A10HW8JXM17XLD","3HUR21WDDUBEMSLDIXZW1FAIHW8YX3","","null","<img src=""img/flower5.png"" style=""width:200px; border:14px solid green;"">","null","","","","","","","","",""
"","image-keyboard-response","84","102880","0.0-84.0","3MHW492WW1ZOA6PYQHF58IME0QYMVT","A10HW8JXM17XLD","3HUR21WDDUBEMSLDIXZW1FAIHW8YX3","","554.1999998092651","img/flower5.png","74","556.0999999046326","1","1","3","2","1,0,0,1,1,0,1,0,1","1,0,0,1,1,0,1,0,1","1",""
"","html-keyboard-response","85","103188","0.0-85.0","3MHW492WW1ZOA6PYQHF58IME0QYMVT","A10HW8JXM17XLD","3HUR21WDDUBEMSLDIXZW1FAIHW8YX3","","null","<img src=""img/flower5.png"" style=""width:200px; border:14px solid green;"">","null","","","","","","","","",""
"","image-keyboard-response","86","103784","0.0-86.0","3MHW492WW1ZOA6PYQHF58IME0QYMVT","A10HW8JXM17XLD","3HUR21WDDUBEMSLDIXZW1FAIHW8YX3","","594.0999999046326","img/flower6.png","74","596","1","1","1","2","1,0,0,1,1,0,1,0,1","1,0,0,1,1,0,1,0,1","1",""
"","html-keyboard-response","87","104093","0.0-87.0","3MHW492WW1ZOA6PYQHF58IME0QYMVT","A10HW8JXM17XLD","3HUR21WDDUBEMSLDIXZW1FAIHW8YX3","","null","<img src=""img/flower6.png"" style=""width:200px; border:14px solid green;"">","null","","","","","","","","",""
"","image-keyboard-response","88","104632","0.0-88.0","3MHW492WW1ZOA6PYQHF58IME0QYMVT","A10HW8JXM17XLD","3HUR21WDDUBEMSLDIXZW1FAIHW8YX3","","537.1000003814697","img/flower6.png","74","539","1","1","1","2","1,0,0,1,1,0,1,0,1","1,0,0,1,1,0,1,0,1","1",""
"","html-keyboard-response","89","104940","0.0-89.0","3MHW492WW1ZOA6PYQHF58IME0QYMVT","A10HW8JXM17XLD","3HUR21WDDUBEMSLDIXZW1FAIHW8YX3","","null","<img src=""img/flower6.png"" style=""width:200px; border:14px solid green;"">","null","","","","","","","","",""
"","image-keyboard-response","90","105440","0.0-90.0","3MHW492WW1ZOA6PYQHF58IME0QYMVT","A10HW8JXM17XLD","3HUR21WDDUBEMSLDIXZW1FAIHW8YX3","","497.7000002861023","img/flower6.png","74","500.19999980926514","1","1","1","2","1,0,0,1,1,0,1,0,1","1,0,0,1,1,0,1,0,1","1",""
"","html-keyboard-response","91","105747","0.0-91.0","3MHW492WW1ZOA6PYQHF58IME0QYMVT","A10HW8JXM17XLD","3HUR21WDDUBEMSLDIXZW1FAIHW8YX3","","null","<img src=""img/flower6.png"" style=""width:200px; border:14px solid green;"">","null","","","","","","","","",""
"","image-keyboard-response","92","106360","0.0-92.0","3MHW492WW1ZOA6PYQHF58IME0QYMVT","A10HW8JXM17XLD","3HUR21WDDUBEMSLDIXZW1FAIHW8YX3","","610.5999999046326","img/flower4.png","74","612.5","1","1","2","2","1,0,0,1,1,0,1,0,1","1,0,0,1,1,0,1,0,1","1",""
"","html-keyboard-response","93","106668","0.0-93.0","3MHW492WW1ZOA6PYQHF58IME0QYMVT","A10HW8JXM17XLD","3HUR21WDDUBEMSLDIXZW1FAIHW8YX3","","null","<img src=""img/flower4.png"" style=""width:200px; border:14px solid green;"">","null","","","","","","","","",""
"","image-keyboard-response","94","107128","0.0-94.0","3MHW492WW1ZOA6PYQHF58IME0QYMVT","A10HW8JXM17XLD","3HUR21WDDUBEMSLDIXZW1FAIHW8YX3","","457.40000009536743","img/flower5.png","74","459.59999990463257","1","1","3","2","1,0,0,1,1,0,1,0,1","1,0,0,1,1,0,1,0,1","1",""
"","html-keyboard-response","95","107436","0.0-95.0","3MHW492WW1ZOA6PYQHF58IME0QYMVT","A10HW8JXM17XLD","3HUR21WDDUBEMSLDIXZW1FAIHW8YX3","","null","<img src=""img/flower5.png"" style=""width:200px; border:14px solid green;"">","null","","","","","","","","",""
"","image-keyboard-response","96","108033","0.0-96.0","3MHW492WW1ZOA6PYQHF58IME0QYMVT","A10HW8JXM17XLD","3HUR21WDDUBEMSLDIXZW1FAIHW8YX3","","594.3000001907349","img/flower6.png","74","596.3000001907349","1","1","1","2","1,0,0,1,1,0,1,0,1","1,0,0,1,1,0,1,0,1","1",""
"","html-keyboard-response","97","108340","0.0-97.0","3MHW492WW1ZOA6PYQHF58IME0QYMVT","A10HW8JXM17XLD","3HUR21WDDUBEMSLDIXZW1FAIHW8YX3","","null","<img src=""img/flower6.png"" style=""width:200px; border:14px solid green;"">","null","","","","","","","","",""
"","image-keyboard-response","98","108840","0.0-98.0","3MHW492WW1ZOA6PYQHF58IME0QYMVT","A10HW8JXM17XLD","3HUR21WDDUBEMSLDIXZW1FAIHW8YX3","","497.80000019073486","img/flower5.png","74","499.80000019073486","1","1","3","2","1,0,0,1,1,0,1,0,1","1,0,0,1,1,0,1,0,1","1",""
"","html-keyboard-response","99","109148","0.0-99.0","3MHW492WW1ZOA6PYQHF58IME0QYMVT","A10HW8JXM17XLD","3HUR21WDDUBEMSLDIXZW1FAIHW8YX3","","null","<img src=""img/flower5.png"" style=""width:200px; border:14px solid green;"">","null","","","","","","","","",""
"","image-keyboard-response","100","109759","0.0-100.0","3MHW492WW1ZOA6PYQHF58IME0QYMVT","A10HW8JXM17XLD","3HUR21WDDUBEMSLDIXZW1FAIHW8YX3","","608.8999996185303","img/flower4.png","74","610.5","1","1","2","2","1,0,0,1,1,0,1,0,1","1,0,0,1,1,0,1,0,1","1",""
"","html-keyboard-response","101","110069","0.0-101.0","3MHW492WW1ZOA6PYQHF58IME0QYMVT","A10HW8JXM17XLD","3HUR21WDDUBEMSLDIXZW1FAIHW8YX3","","null","<img src=""img/flower4.png"" style=""width:200px; border:14px solid green;"">","null","","","","","","","","",""
"","image-keyboard-response","102","110536","0.0-102.0","3MHW492WW1ZOA6PYQHF58IME0QYMVT","A10HW8JXM17XLD","3HUR21WDDUBEMSLDIXZW1FAIHW8YX3","","465.2999997138977","img/flower6.png","74","467.2999997138977","1","1","1","2","1,0,0,1,1,0,1,0,1","1,0,0,1,1,0,1,0,1","1",""
"","html-keyboard-response","103","110844","0.0-103.0","3MHW492WW1ZOA6PYQHF58IME0QYMVT","A10HW8JXM17XLD","3HUR21WDDUBEMSLDIXZW1FAIHW8YX3","","null","<img src=""img/flower6.png"" style=""width:200px; border:14px solid green;"">","null","","","","","","","","",""
"","image-keyboard-response","104","111368","0.0-104.0","3MHW492WW1ZOA6PYQHF58IME0QYMVT","A10HW8JXM17XLD","3HUR21WDDUBEMSLDIXZW1FAIHW8YX3","","522.1000003814697","img/flower4.png","74","524.1999998092651","1","1","2","2","1,0,0,1,1,0,1,0,1","1,0,0,1,1,0,1,0,1","1",""
"","html-keyboard-response","105","111676","0.0-105.0","3MHW492WW1ZOA6PYQHF58IME0QYMVT","A10HW8JXM17XLD","3HUR21WDDUBEMSLDIXZW1FAIHW8YX3","","null","<img src=""img/flower4.png"" style=""width:200px; border:14px solid green;"">","null","","","","","","","","",""
"","image-keyboard-response","106","112088","0.0-106.0","3MHW492WW1ZOA6PYQHF58IME0QYMVT","A10HW8JXM17XLD","3HUR21WDDUBEMSLDIXZW1FAIHW8YX3","","409.40000009536743","img/flower5.png","74","411.3999996185303","1","1","3","2","1,0,0,1,1,0,1,0,1","1,0,0,1,1,0,1,0,1","1",""
"","html-keyboard-response","107","112396","0.0-107.0","3MHW492WW1ZOA6PYQHF58IME0QYMVT","A10HW8JXM17XLD","3HUR21WDDUBEMSLDIXZW1FAIHW8YX3","","null","<img src=""img/flower5.png"" style=""width:200px; border:14px solid green;"">","null","","","","","","","","",""
"","image-keyboard-response","108","112880","0.0-108.0","3MHW492WW1ZOA6PYQHF58IME0QYMVT","A10HW8JXM17XLD","3HUR21WDDUBEMSLDIXZW1FAIHW8YX3","","481.90000009536743","img/flower5.png","74","483.90000009536743","1","1","3","2","1,0,0,1,1,0,1,0,1","1,0,0,1,1,0,1,0,1","1",""
"","html-keyboard-response","109","113189","0.0-109.0","3MHW492WW1ZOA6PYQHF58IME0QYMVT","A10HW8JXM17XLD","3HUR21WDDUBEMSLDIXZW1FAIHW8YX3","","null","<img src=""img/flower5.png"" style=""width:200px; border:14px solid green;"">","null","","","","","","","","",""
"","image-keyboard-response","110","113760","0.0-110.0","3MHW492WW1ZOA6PYQHF58IME0QYMVT","A10HW8JXM17XLD","3HUR21WDDUBEMSLDIXZW1FAIHW8YX3","","568.6000003814697","img/flower5.png","74","570.9000000953674","1","1","3","2","1,0,0,1,1,0,1,0,1","1,0,0,1,1,0,1,0,1","1",""
"","html-keyboard-response","111","114067","0.0-111.0","3MHW492WW1ZOA6PYQHF58IME0QYMVT","A10HW8JXM17XLD","3HUR21WDDUBEMSLDIXZW1FAIHW8YX3","","null","<img src=""img/flower5.png"" style=""width:200px; border:14px solid green;"">","null","","","","","","","","",""
"","image-keyboard-response","112","114552","0.0-112.0","3MHW492WW1ZOA6PYQHF58IME0QYMVT","A10HW8JXM17XLD","3HUR21WDDUBEMSLDIXZW1FAIHW8YX3","","482.5","img/flower6.png","74","484.40000009536743","1","1","1","2","1,0,0,1,1,0,1,0,1","1,0,0,1,1,0,1,0,1","1",""
"","html-keyboard-response","113","114860","0.0-113.0","3MHW492WW1ZOA6PYQHF58IME0QYMVT","A10HW8JXM17XLD","3HUR21WDDUBEMSLDIXZW1FAIHW8YX3","","null","<img src=""img/flower6.png"" style=""width:200px; border:14px solid green;"">","null","","","","","","","","",""
"","image-keyboard-response","114","115528","0.0-114.0","3MHW492WW1ZOA6PYQHF58IME0QYMVT","A10HW8JXM17XLD","3HUR21WDDUBEMSLDIXZW1FAIHW8YX3","","665.7000002861023","img/flower4.png","74","667.5999999046326","1","1","2","2","1,0,0,1,1,0,1,0,1","1,0,0,1,1,0,1,0,1","1",""
"","html-keyboard-response","115","115835","0.0-115.0","3MHW492WW1ZOA6PYQHF58IME0QYMVT","A10HW8JXM17XLD","3HUR21WDDUBEMSLDIXZW1FAIHW8YX3","","null","<img src=""img/flower4.png"" style=""width:200px; border:14px solid green;"">","null","","","","","","","","",""
"","image-keyboard-response","116","116328","0.0-116.0","3MHW492WW1ZOA6PYQHF58IME0QYMVT","A10HW8JXM17XLD","3HUR21WDDUBEMSLDIXZW1FAIHW8YX3","","489.90000009536743","img/flower5.png","75","492.09999990463257","2","0","3","2","1,0,0,1,1,0,1,0,1","1,0,0,1,1,0,1,0,1","1",""
"","html-keyboard-response","117","116636","0.0-117.0","3MHW492WW1ZOA6PYQHF58IME0QYMVT","A10HW8JXM17XLD","3HUR21WDDUBEMSLDIXZW1FAIHW8YX3","","null","<img src=""img/flower5.png"" style=""width:200px;border:14px solid red;"">","null","","","","","","","","",""
"","image-keyboard-response","118","117896","0.0-118.0","3MHW492WW1ZOA6PYQHF58IME0QYMVT","A10HW8JXM17XLD","3HUR21WDDUBEMSLDIXZW1FAIHW8YX3","","1257.8999996185303","img/flower5.png","74","1259.8000001907349","1","1","3","2","1,0,0,1,1,0,1,0,1","1,0,0,1,1,0,1,0,1","1",""
"","html-keyboard-response","119","118204","0.0-119.0","3MHW492WW1ZOA6PYQHF58IME0QYMVT","A10HW8JXM17XLD","3HUR21WDDUBEMSLDIXZW1FAIHW8YX3","","null","<img src=""img/flower5.png"" style=""width:200px; border:14px solid green;"">","null","","","","","","","","",""
"","image-keyboard-response","120","118937","0.0-120.0","3MHW492WW1ZOA6PYQHF58IME0QYMVT","A10HW8JXM17XLD","3HUR21WDDUBEMSLDIXZW1FAIHW8YX3","","730.3000001907349","img/flower4.png","74","732.2999997138977","1","1","2","2","1,0,0,1,1,0,1,0,1","1,0,0,1,1,0,1,0,1","1",""
"","html-keyboard-response","121","119244","0.0-121.0","3MHW492WW1ZOA6PYQHF58IME0QYMVT","A10HW8JXM17XLD","3HUR21WDDUBEMSLDIXZW1FAIHW8YX3","","null","<img src=""img/flower4.png"" style=""width:200px; border:14px solid green;"">","null","","","","","","","","",""
"","image-keyboard-response","122","120456","0.0-122.0","3MHW492WW1ZOA6PYQHF58IME0QYMVT","A10HW8JXM17XLD","3HUR21WDDUBEMSLDIXZW1FAIHW8YX3","","1209.1000003814697","img/flower6.png","74","1211.1999998092651","1","1","1","2","1,0,0,1,1,0,1,0,1","1,0,0,1,1,0,1,0,1","1",""
"","html-keyboard-response","123","120764","0.0-123.0","3MHW492WW1ZOA6PYQHF58IME0QYMVT","A10HW8JXM17XLD","3HUR21WDDUBEMSLDIXZW1FAIHW8YX3","","null","<img src=""img/flower6.png"" style=""width:200px; border:14px solid green;"">","null","","","","","","","","",""
"","image-keyboard-response","124","121312","0.0-124.0","3MHW492WW1ZOA6PYQHF58IME0QYMVT","A10HW8JXM17XLD","3HUR21WDDUBEMSLDIXZW1FAIHW8YX3","","545.7000002861023","img/flower4.png","74","547.6999998092651","1","1","2","2","1,0,0,1,1,0,1,0,1","1,0,0,1,1,0,1,0,1","1",""
"","html-keyboard-response","125","121620","0.0-125.0","3MHW492WW1ZOA6PYQHF58IME0QYMVT","A10HW8JXM17XLD","3HUR21WDDUBEMSLDIXZW1FAIHW8YX3","","null","<img src=""img/flower4.png"" style=""width:200px; border:14px solid green;"">","null","","","","","","","","",""
"","image-keyboard-response","126","122136","0.0-126.0","3MHW492WW1ZOA6PYQHF58IME0QYMVT","A10HW8JXM17XLD","3HUR21WDDUBEMSLDIXZW1FAIHW8YX3","","514","img/flower6.png","74","516","1","1","1","2","1,0,0,1,1,0,1,0,1","1,0,0,1,1,0,1,0,1","1",""
"","html-keyboard-response","127","122443","0.0-127.0","3MHW492WW1ZOA6PYQHF58IME0QYMVT","A10HW8JXM17XLD","3HUR21WDDUBEMSLDIXZW1FAIHW8YX3","","null","<img src=""img/flower6.png"" style=""width:200px; border:14px solid green;"">","null","","","","","","","","",""
"","image-keyboard-response","128","123032","0.0-128.0","3MHW492WW1ZOA6PYQHF58IME0QYMVT","A10HW8JXM17XLD","3HUR21WDDUBEMSLDIXZW1FAIHW8YX3","","586.4000000953674","img/flower4.png","76","588.3000001907349","3","0","2","2","1,0,0,1,1,0,1,0,1","1,0,0,1,1,0,1,0,1","1",""
"","html-keyboard-response","129","123340","0.0-129.0","3MHW492WW1ZOA6PYQHF58IME0QYMVT","A10HW8JXM17XLD","3HUR21WDDUBEMSLDIXZW1FAIHW8YX3","","null","<img src=""img/flower4.png"" style=""width:200px;border:14px solid red;"">","null","","","","","","","","",""
"","image-keyboard-response","130","124720","0.0-130.0","3MHW492WW1ZOA6PYQHF58IME0QYMVT","A10HW8JXM17XLD","3HUR21WDDUBEMSLDIXZW1FAIHW8YX3","","1377.3000001907349","img/flower4.png","74","1379.5","1","1","2","2","1,0,0,1,1,0,1,0,1","1,0,0,1,1,0,1,0,1","1",""
"","html-keyboard-response","131","125028","0.0-131.0","3MHW492WW1ZOA6PYQHF58IME0QYMVT","A10HW8JXM17XLD","3HUR21WDDUBEMSLDIXZW1FAIHW8YX3","","null","<img src=""img/flower4.png"" style=""width:200px; border:14px solid green;"">","null","","","","","","","","",""
"","image-keyboard-response","132","126432","0.0-132.0","3MHW492WW1ZOA6PYQHF58IME0QYMVT","A10HW8JXM17XLD","3HUR21WDDUBEMSLDIXZW1FAIHW8YX3","","1402.1999998092651","img/flower5.png","75","1404.2999997138977","2","0","3","2","1,0,0,1,1,0,1,0,1","1,0,0,1,1,0,1,0,1","1",""
"","html-keyboard-response","133","126740","0.0-133.0","3MHW492WW1ZOA6PYQHF58IME0QYMVT","A10HW8JXM17XLD","3HUR21WDDUBEMSLDIXZW1FAIHW8YX3","","null","<img src=""img/flower5.png"" style=""width:200px;border:14px solid red;"">","null","","","","","","","","",""
"","image-keyboard-response","134","127392","0.0-134.0","3MHW492WW1ZOA6PYQHF58IME0QYMVT","A10HW8JXM17XLD","3HUR21WDDUBEMSLDIXZW1FAIHW8YX3","","648.7000002861023","img/flower5.png","74","651","1","1","3","2","1,0,0,1,1,0,1,0,1","1,0,0,1,1,0,1,0,1","1",""
"","html-keyboard-response","135","127700","0.0-135.0","3MHW492WW1ZOA6PYQHF58IME0QYMVT","A10HW8JXM17XLD","3HUR21WDDUBEMSLDIXZW1FAIHW8YX3","","null","<img src=""img/flower5.png"" style=""width:200px; border:14px solid green;"">","null","","","","","","","","",""
"","image-keyboard-response","136","128224","0.0-136.0","3MHW492WW1ZOA6PYQHF58IME0QYMVT","A10HW8JXM17XLD","3HUR21WDDUBEMSLDIXZW1FAIHW8YX3","","522","img/flower5.png","74","524","1","1","3","2","1,0,0,1,1,0,1,0,1","1,0,0,1,1,0,1,0,1","1",""
"","html-keyboard-response","137","128531","0.0-137.0","3MHW492WW1ZOA6PYQHF58IME0QYMVT","A10HW8JXM17XLD","3HUR21WDDUBEMSLDIXZW1FAIHW8YX3","","null","<img src=""img/flower5.png"" style=""width:200px; border:14px solid green;"">","null","","","","","","","","",""
"","image-keyboard-response","138","129080","0.0-138.0","3MHW492WW1ZOA6PYQHF58IME0QYMVT","A10HW8JXM17XLD","3HUR21WDDUBEMSLDIXZW1FAIHW8YX3","","546.6999998092651","img/flower4.png","74","548.7000002861023","1","1","2","2","1,0,0,1,1,0,1,0,1","1,0,0,1,1,0,1,0,1","1",""
"","html-keyboard-response","139","129388","0.0-139.0","3MHW492WW1ZOA6PYQHF58IME0QYMVT","A10HW8JXM17XLD","3HUR21WDDUBEMSLDIXZW1FAIHW8YX3","","null","<img src=""img/flower4.png"" style=""width:200px; border:14px solid green;"">","null","","","","","","","","",""
"","image-keyboard-response","140","129976","0.0-140.0","3MHW492WW1ZOA6PYQHF58IME0QYMVT","A10HW8JXM17XLD","3HUR21WDDUBEMSLDIXZW1FAIHW8YX3","","585.2999997138977","img/flower4.png","74","587.3000001907349","1","1","2","2","1,0,0,1,1,0,1,0,1","1,0,0,1,1,0,1,0,1","1",""
"","html-keyboard-response","141","130283","0.0-141.0","3MHW492WW1ZOA6PYQHF58IME0QYMVT","A10HW8JXM17XLD","3HUR21WDDUBEMSLDIXZW1FAIHW8YX3","","null","<img src=""img/flower4.png"" style=""width:200px; border:14px solid green;"">","null","","","","","","","","",""
"","image-keyboard-response","142","131032","0.0-142.0","3MHW492WW1ZOA6PYQHF58IME0QYMVT","A10HW8JXM17XLD","3HUR21WDDUBEMSLDIXZW1FAIHW8YX3","","746.2000002861023","img/flower4.png","74","748.1000003814697","1","1","2","2","1,0,0,1,1,0,1,0,1","1,0,0,1,1,0,1,0,1","1",""
"","html-keyboard-response","143","131340","0.0-143.0","3MHW492WW1ZOA6PYQHF58IME0QYMVT","A10HW8JXM17XLD","3HUR21WDDUBEMSLDIXZW1FAIHW8YX3","","null","<img src=""img/flower4.png"" style=""width:200px; border:14px solid green;"">","null","","","","","","","","",""
"","image-keyboard-response","144","132744","0.0-144.0","3MHW492WW1ZOA6PYQHF58IME0QYMVT","A10HW8JXM17XLD","3HUR21WDDUBEMSLDIXZW1FAIHW8YX3","","1400.6999998092651","img/flower6.png","76","1403.0999999046326","3","0","1","2","1,0,0,1,1,0,1,0,1","1,0,0,1,1,0,1,0,1","1",""
"","html-keyboard-response","145","133051","0.0-145.0","3MHW492WW1ZOA6PYQHF58IME0QYMVT","A10HW8JXM17XLD","3HUR21WDDUBEMSLDIXZW1FAIHW8YX3","","null","<img src=""img/flower6.png"" style=""width:200px;border:14px solid red;"">","null","","","","","","","","",""
"","image-keyboard-response","146","133576","0.0-146.0","3MHW492WW1ZOA6PYQHF58IME0QYMVT","A10HW8JXM17XLD","3HUR21WDDUBEMSLDIXZW1FAIHW8YX3","","523.5","img/flower6.png","74","524.7999997138977","1","1","1","2","1,0,0,1,1,0,1,0,1","1,0,0,1,1,0,1,0,1","1",""
"","html-keyboard-response","147","133884","0.0-147.0","3MHW492WW1ZOA6PYQHF58IME0QYMVT","A10HW8JXM17XLD","3HUR21WDDUBEMSLDIXZW1FAIHW8YX3","","null","<img src=""img/flower6.png"" style=""width:200px; border:14px solid green;"">","null","","","","","","","","",""
"","image-keyboard-response","148","134408","0.0-148.0","3MHW492WW1ZOA6PYQHF58IME0QYMVT","A10HW8JXM17XLD","3HUR21WDDUBEMSLDIXZW1FAIHW8YX3","","521.5","img/flower4.png","74","523.5","1","1","2","2","1,0,0,1,1,0,1,0,1","1,0,0,1,1,0,1,0,1","1",""
"","html-keyboard-response","149","134716","0.0-149.0","3MHW492WW1ZOA6PYQHF58IME0QYMVT","A10HW8JXM17XLD","3HUR21WDDUBEMSLDIXZW1FAIHW8YX3","","null","<img src=""img/flower4.png"" style=""width:200px; border:14px solid green;"">","null","","","","","","","","",""
"","image-keyboard-response","150","135608","0.0-150.0","3MHW492WW1ZOA6PYQHF58IME0QYMVT","A10HW8JXM17XLD","3HUR21WDDUBEMSLDIXZW1FAIHW8YX3","","890","img/flower5.png","74","892","1","1","3","2","1,0,0,1,1,0,1,0,1","1,0,0,1,1,0,1,0,1","1",""
"","html-keyboard-response","151","135916","0.0-151.0","3MHW492WW1ZOA6PYQHF58IME0QYMVT","A10HW8JXM17XLD","3HUR21WDDUBEMSLDIXZW1FAIHW8YX3","","null","<img src=""img/flower5.png"" style=""width:200px; border:14px solid green;"">","null","","","","","","","","",""
"","image-keyboard-response","152","136568","0.0-152.0","3MHW492WW1ZOA6PYQHF58IME0QYMVT","A10HW8JXM17XLD","3HUR21WDDUBEMSLDIXZW1FAIHW8YX3","","649.0999999046326","img/flower6.png","74","651","1","1","1","2","1,0,0,1,1,0,1,0,1","1,0,0,1,1,0,1,0,1","1",""
"","html-keyboard-response","153","136876","0.0-153.0","3MHW492WW1ZOA6PYQHF58IME0QYMVT","A10HW8JXM17XLD","3HUR21WDDUBEMSLDIXZW1FAIHW8YX3","","null","<img src=""img/flower6.png"" style=""width:200px; border:14px solid green;"">","null","","","","","","","","",""
"","image-keyboard-response","154","137416","0.0-154.0","3MHW492WW1ZOA6PYQHF58IME0QYMVT","A10HW8JXM17XLD","3HUR21WDDUBEMSLDIXZW1FAIHW8YX3","","537.4000000953674","img/flower6.png","74","539.2999997138977","1","1","1","2","1,0,0,1,1,0,1,0,1","1,0,0,1,1,0,1,0,1","1",""
"","html-keyboard-response","155","137724","0.0-155.0","3MHW492WW1ZOA6PYQHF58IME0QYMVT","A10HW8JXM17XLD","3HUR21WDDUBEMSLDIXZW1FAIHW8YX3","","null","<img src=""img/flower6.png"" style=""width:200px; border:14px solid green;"">","null","","","","","","","","",""
"","image-keyboard-response","156","138184","0.0-156.0","3MHW492WW1ZOA6PYQHF58IME0QYMVT","A10HW8JXM17XLD","3HUR21WDDUBEMSLDIXZW1FAIHW8YX3","","457.19999980926514","img/flower4.png","74","459.1000003814697","1","1","2","2","1,0,0,1,1,0,1,0,1","1,0,0,1,1,0,1,0,1","1",""
"","html-keyboard-response","157","138492","0.0-157.0","3MHW492WW1ZOA6PYQHF58IME0QYMVT","A10HW8JXM17XLD","3HUR21WDDUBEMSLDIXZW1FAIHW8YX3","","null","<img src=""img/flower4.png"" style=""width:200px; border:14px solid green;"">","null","","","","","","","","",""
"","image-keyboard-response","158","138904","0.0-158.0","3MHW492WW1ZOA6PYQHF58IME0QYMVT","A10HW8JXM17XLD","3HUR21WDDUBEMSLDIXZW1FAIHW8YX3","","409.69999980926514","img/flower6.png","74","411.69999980926514","1","1","1","2","1,0,0,1,1,0,1,0,1","1,0,0,1,1,0,1,0,1","1",""
"","html-keyboard-response","159","139211","0.0-159.0","3MHW492WW1ZOA6PYQHF58IME0QYMVT","A10HW8JXM17XLD","3HUR21WDDUBEMSLDIXZW1FAIHW8YX3","","null","<img src=""img/flower6.png"" style=""width:200px; border:14px solid green;"">","null","","","","","","","","",""
"","image-keyboard-response","160","139696","0.0-160.0","3MHW492WW1ZOA6PYQHF58IME0QYMVT","A10HW8JXM17XLD","3HUR21WDDUBEMSLDIXZW1FAIHW8YX3","","482.7000002861023","img/flower6.png","74","484.6000003814697","1","1","1","2","1,0,0,1,1,0,1,0,1","1,0,0,1,1,0,1,0,1","1",""
"","html-keyboard-response","161","140003","0.0-161.0","3MHW492WW1ZOA6PYQHF58IME0QYMVT","A10HW8JXM17XLD","3HUR21WDDUBEMSLDIXZW1FAIHW8YX3","","null","<img src=""img/flower6.png"" style=""width:200px; border:14px solid green;"">","null","","","","","","","","",""
"","image-keyboard-response","162","140369","0.0-162.0","3MHW492WW1ZOA6PYQHF58IME0QYMVT","A10HW8JXM17XLD","3HUR21WDDUBEMSLDIXZW1FAIHW8YX3","","362.90000009536743","img/flower6.png","74","364.80000019073486","1","1","1","2","1,0,0,1,1,0,1,0,1","1,0,0,1,1,0,1,0,1","1",""
"","html-keyboard-response","163","140675","0.0-163.0","3MHW492WW1ZOA6PYQHF58IME0QYMVT","A10HW8JXM17XLD","3HUR21WDDUBEMSLDIXZW1FAIHW8YX3","","null","<img src=""img/flower6.png"" style=""width:200px; border:14px solid green;"">","null","","","","","","","","",""
"","image-keyboard-response","164","141120","0.0-164.0","3MHW492WW1ZOA6PYQHF58IME0QYMVT","A10HW8JXM17XLD","3HUR21WDDUBEMSLDIXZW1FAIHW8YX3","","442.40000009536743","img/flower6.png","74","444.40000009536743","1","1","1","2","1,0,0,1,1,0,1,0,1","1,0,0,1,1,0,1,0,1","1",""
"","html-keyboard-response","165","141427","0.0-165.0","3MHW492WW1ZOA6PYQHF58IME0QYMVT","A10HW8JXM17XLD","3HUR21WDDUBEMSLDIXZW1FAIHW8YX3","","null","<img src=""img/flower6.png"" style=""width:200px; border:14px solid green;"">","null","","","","","","","","",""
"","image-keyboard-response","166","141696","0.0-166.0","3MHW492WW1ZOA6PYQHF58IME0QYMVT","A10HW8JXM17XLD","3HUR21WDDUBEMSLDIXZW1FAIHW8YX3","","266.09999990463257","img/flower6.png","74","268","1","1","1","2","1,0,0,1,1,0,1,0,1","1,0,0,1,1,0,1,0,1","1",""
"","html-keyboard-response","167","142004","0.0-167.0","3MHW492WW1ZOA6PYQHF58IME0QYMVT","A10HW8JXM17XLD","3HUR21WDDUBEMSLDIXZW1FAIHW8YX3","","null","<img src=""img/flower6.png"" style=""width:200px; border:14px solid green;"">","null","","","","","","","","",""
"","image-keyboard-response","168","142552","0.0-168.0","3MHW492WW1ZOA6PYQHF58IME0QYMVT","A10HW8JXM17XLD","3HUR21WDDUBEMSLDIXZW1FAIHW8YX3","","545.6999998092651","img/flower5.png","74","547.8000001907349","1","1","3","2","1,0,0,1,1,0,1,0,1","1,0,0,1,1,0,1,0,1","1",""
"","html-keyboard-response","169","142860","0.0-169.0","3MHW492WW1ZOA6PYQHF58IME0QYMVT","A10HW8JXM17XLD","3HUR21WDDUBEMSLDIXZW1FAIHW8YX3","","null","<img src=""img/flower5.png"" style=""width:200px; border:14px solid green;"">","null","","","","","","","","",""
"","image-keyboard-response","170","143376","0.0-170.0","3MHW492WW1ZOA6PYQHF58IME0QYMVT","A10HW8JXM17XLD","3HUR21WDDUBEMSLDIXZW1FAIHW8YX3","","513.5","img/flower5.png","74","515.4000000953674","1","1","3","2","1,0,0,1,1,0,1,0,1","1,0,0,1,1,0,1,0,1","1",""
"","html-keyboard-response","171","143684","0.0-171.0","3MHW492WW1ZOA6PYQHF58IME0QYMVT","A10HW8JXM17XLD","3HUR21WDDUBEMSLDIXZW1FAIHW8YX3","","null","<img src=""img/flower5.png"" style=""width:200px; border:14px solid green;"">","null","","","","","","","","",""
"","image-keyboard-response","172","143952","0.0-172.0","3MHW492WW1ZOA6PYQHF58IME0QYMVT","A10HW8JXM17XLD","3HUR21WDDUBEMSLDIXZW1FAIHW8YX3","","265.40000009536743","img/flower5.png","74","267.2999997138977","1","1","3","2","1,0,0,1,1,0,1,0,1","1,0,0,1,1,0,1,0,1","1",""
"","html-keyboard-response","173","144260","0.0-173.0","3MHW492WW1ZOA6PYQHF58IME0QYMVT","A10HW8JXM17XLD","3HUR21WDDUBEMSLDIXZW1FAIHW8YX3","","null","<img src=""img/flower5.png"" style=""width:200px; border:14px solid green;"">","null","","","","","","","","",""
"","image-keyboard-response","174","144384","0.0-174.0","3MHW492WW1ZOA6PYQHF58IME0QYMVT","A10HW8JXM17XLD","3HUR21WDDUBEMSLDIXZW1FAIHW8YX3","","121.69999980926514","img/flower5.png","74","123.80000019073486","1","1","3","2","1,0,0,1,1,0,1,0,1","1,0,0,1,1,0,1,0,1","1",""
"","html-keyboard-response","175","144692","0.0-175.0","3MHW492WW1ZOA6PYQHF58IME0QYMVT","A10HW8JXM17XLD","3HUR21WDDUBEMSLDIXZW1FAIHW8YX3","","null","<img src=""img/flower5.png"" style=""width:200px; border:14px solid green;"">","null","","","","","","","","",""
"","image-keyboard-response","176","145680","0.0-176.0","3MHW492WW1ZOA6PYQHF58IME0QYMVT","A10HW8JXM17XLD","3HUR21WDDUBEMSLDIXZW1FAIHW8YX3","","985.5999999046326","img/flower4.png","74","987.5","1","1","2","2","1,0,0,1,1,0,1,0,1","1,0,0,1,1,0,1,0,1","1",""
"","html-keyboard-response","177","145988","0.0-177.0","3MHW492WW1ZOA6PYQHF58IME0QYMVT","A10HW8JXM17XLD","3HUR21WDDUBEMSLDIXZW1FAIHW8YX3","","null","<img src=""img/flower4.png"" style=""width:200px; border:14px solid green;"">","null","","","","","","","","",""
"","image-keyboard-response","178","146520","0.0-178.0","3MHW492WW1ZOA6PYQHF58IME0QYMVT","A10HW8JXM17XLD","3HUR21WDDUBEMSLDIXZW1FAIHW8YX3","","529","img/flower6.png","74","531.1999998092651","1","1","1","2","1,0,0,1,1,0,1,0,1","1,0,0,1,1,0,1,0,1","1",""
"","html-keyboard-response","179","146828","0.0-179.0","3MHW492WW1ZOA6PYQHF58IME0QYMVT","A10HW8JXM17XLD","3HUR21WDDUBEMSLDIXZW1FAIHW8YX3","","null","<img src=""img/flower6.png"" style=""width:200px; border:14px solid green;"">","null","","","","","","","","",""
"","image-keyboard-response","180","147384","0.0-180.0","3MHW492WW1ZOA6PYQHF58IME0QYMVT","A10HW8JXM17XLD","3HUR21WDDUBEMSLDIXZW1FAIHW8YX3","","553.0999999046326","img/flower6.png","74","555.4000000953674","1","1","1","2","1,0,0,1,1,0,1,0,1","1,0,0,1,1,0,1,0,1","1",""
"","html-keyboard-response","181","147691","0.0-181.0","3MHW492WW1ZOA6PYQHF58IME0QYMVT","A10HW8JXM17XLD","3HUR21WDDUBEMSLDIXZW1FAIHW8YX3","","null","<img src=""img/flower6.png"" style=""width:200px; border:14px solid green;"">","null","","","","","","","","",""
"","image-keyboard-response","182","147912","0.0-182.0","3MHW492WW1ZOA6PYQHF58IME0QYMVT","A10HW8JXM17XLD","3HUR21WDDUBEMSLDIXZW1FAIHW8YX3","","218.19999980926514","img/flower1.png","74","220","1","0","3","1","1,0.333,0.333,0.333,1,0.333,0.333,0.333,1","1,0.333,0.333,0.333,1,0.333,0.333,0.333,1","1",""
"","html-keyboard-response","183","148221","0.0-183.0","3MHW492WW1ZOA6PYQHF58IME0QYMVT","A10HW8JXM17XLD","3HUR21WDDUBEMSLDIXZW1FAIHW8YX3","","null","<img src=""img/flower1.png"" style=""width:200px;border:14px solid red;"">","null","","","","","","","","",""
"","image-keyboard-response","184","149135","0.0-184.0","3MHW492WW1ZOA6PYQHF58IME0QYMVT","A10HW8JXM17XLD","3HUR21WDDUBEMSLDIXZW1FAIHW8YX3","","912.2999997138977","img/flower2.png","74","914.5999999046326","1","0","2","1","1,0.333,0.333,0.333,1,0.333,0.333,0.333,1","1,0.333,0.333,0.333,1,0.333,0.333,0.333,1","1",""
"","html-keyboard-response","185","149444","0.0-185.0","3MHW492WW1ZOA6PYQHF58IME0QYMVT","A10HW8JXM17XLD","3HUR21WDDUBEMSLDIXZW1FAIHW8YX3","","null","<img src=""img/flower2.png"" style=""width:200px;border:14px solid red;"">","null","","","","","","","","",""
"","image-keyboard-response","186","150208","0.0-186.0","3MHW492WW1ZOA6PYQHF58IME0QYMVT","A10HW8JXM17XLD","3HUR21WDDUBEMSLDIXZW1FAIHW8YX3","","762.0999999046326","img/flower1.png","75","763.8999996185303","2","1","3","1","1,0.333,0.333,0.333,1,0.333,0.333,0.333,1","1,0.333,0.333,0.333,1,0.333,0.333,0.333,1","1",""
"","html-keyboard-response","187","150515","0.0-187.0","3MHW492WW1ZOA6PYQHF58IME0QYMVT","A10HW8JXM17XLD","3HUR21WDDUBEMSLDIXZW1FAIHW8YX3","","null","<img src=""img/flower1.png"" style=""width:200px; border:14px solid green;"">","null","","","","","","","","",""
"","image-keyboard-response","188","151247","0.0-188.0","3MHW492WW1ZOA6PYQHF58IME0QYMVT","A10HW8JXM17XLD","3HUR21WDDUBEMSLDIXZW1FAIHW8YX3","","729.9000000953674","img/flower1.png","75","731.9000000953674","2","0","3","1","1,0.333,0.333,0.333,1,0.333,0.333,0.333,1","1,0.333,0.333,0.333,1,0.333,0.333,0.333,1","1",""
"","html-keyboard-response","189","151556","0.0-189.0","3MHW492WW1ZOA6PYQHF58IME0QYMVT","A10HW8JXM17XLD","3HUR21WDDUBEMSLDIXZW1FAIHW8YX3","","null","<img src=""img/flower1.png"" style=""width:200px;border:14px solid red;"">","null","","","","","","","","",""
"","image-keyboard-response","190","152631","0.0-190.0","3MHW492WW1ZOA6PYQHF58IME0QYMVT","A10HW8JXM17XLD","3HUR21WDDUBEMSLDIXZW1FAIHW8YX3","","1073","img/flower3.png","75","1074.8999996185303","2","0","1","1","1,0.333,0.333,0.333,1,0.333,0.333,0.333,1","1,0.333,0.333,0.333,1,0.333,0.333,0.333,1","1",""
"","html-keyboard-response","191","152940","0.0-191.0","3MHW492WW1ZOA6PYQHF58IME0QYMVT","A10HW8JXM17XLD","3HUR21WDDUBEMSLDIXZW1FAIHW8YX3","","null","<img src=""img/flower3.png"" style=""width:200px;border:14px solid red;"">","null","","","","","","","","",""
"","image-keyboard-response","192","153991","0.0-192.0","3MHW492WW1ZOA6PYQHF58IME0QYMVT","A10HW8JXM17XLD","3HUR21WDDUBEMSLDIXZW1FAIHW8YX3","","1048.9000000953674","img/flower1.png","76","1050.8999996185303","3","1","3","1","1,0.333,0.333,0.333,1,0.333,0.333,0.333,1","1,0.333,0.333,0.333,1,0.333,0.333,0.333,1","1",""
"","html-keyboard-response","193","154300","0.0-193.0","3MHW492WW1ZOA6PYQHF58IME0QYMVT","A10HW8JXM17XLD","3HUR21WDDUBEMSLDIXZW1FAIHW8YX3","","null","<img src=""img/flower1.png"" style=""width:200px; border:14px solid green;"">","null","","","","","","","","",""
"","image-keyboard-response","194","155456","0.0-194.0","3MHW492WW1ZOA6PYQHF58IME0QYMVT","A10HW8JXM17XLD","3HUR21WDDUBEMSLDIXZW1FAIHW8YX3","","1153.5","img/flower3.png","75","1155.5999999046326","2","1","1","1","1,0.333,0.333,0.333,1,0.333,0.333,0.333,1","1,0.333,0.333,0.333,1,0.333,0.333,0.333,1","1",""
"","html-keyboard-response","195","155763","0.0-195.0","3MHW492WW1ZOA6PYQHF58IME0QYMVT","A10HW8JXM17XLD","3HUR21WDDUBEMSLDIXZW1FAIHW8YX3","","null","<img src=""img/flower3.png"" style=""width:200px; border:14px solid green;"">","null","","","","","","","","",""
"","image-keyboard-response","196","156479","0.0-196.0","3MHW492WW1ZOA6PYQHF58IME0QYMVT","A10HW8JXM17XLD","3HUR21WDDUBEMSLDIXZW1FAIHW8YX3","","713.6999998092651","img/flower3.png","75","715.7000002861023","2","0","1","1","1,0.333,0.333,0.333,1,0.333,0.333,0.333,1","1,0.333,0.333,0.333,1,0.333,0.333,0.333,1","1",""
"","html-keyboard-response","197","156788","0.0-197.0","3MHW492WW1ZOA6PYQHF58IME0QYMVT","A10HW8JXM17XLD","3HUR21WDDUBEMSLDIXZW1FAIHW8YX3","","null","<img src=""img/flower3.png"" style=""width:200px;border:14px solid red;"">","null","","","","","","","","",""
"","image-keyboard-response","198","157519","0.0-198.0","3MHW492WW1ZOA6PYQHF58IME0QYMVT","A10HW8JXM17XLD","3HUR21WDDUBEMSLDIXZW1FAIHW8YX3","","728.0999999046326","img/flower3.png","75","730.9000000953674","2","0","1","1","1,0.333,0.333,0.333,1,0.333,0.333,0.333,1","1,0.333,0.333,0.333,1,0.333,0.333,0.333,1","1",""
"","html-keyboard-response","199","157828","0.0-199.0","3MHW492WW1ZOA6PYQHF58IME0QYMVT","A10HW8JXM17XLD","3HUR21WDDUBEMSLDIXZW1FAIHW8YX3","","null","<img src=""img/flower3.png"" style=""width:200px;border:14px solid red;"">","null","","","","","","","","",""
"","image-keyboard-response","200","159079","0.0-200.0","3MHW492WW1ZOA6PYQHF58IME0QYMVT","A10HW8JXM17XLD","3HUR21WDDUBEMSLDIXZW1FAIHW8YX3","","1248.3000001907349","img/flower2.png","76","1250.5","3","0","2","1","1,0.333,0.333,0.333,1,0.333,0.333,0.333,1","1,0.333,0.333,0.333,1,0.333,0.333,0.333,1","1",""
"","html-keyboard-response","201","159387","0.0-201.0","3MHW492WW1ZOA6PYQHF58IME0QYMVT","A10HW8JXM17XLD","3HUR21WDDUBEMSLDIXZW1FAIHW8YX3","","null","<img src=""img/flower2.png"" style=""width:200px;border:14px solid red;"">","null","","","","","","","","",""
"","image-keyboard-response","202","160608","0.0-202.0","3MHW492WW1ZOA6PYQHF58IME0QYMVT","A10HW8JXM17XLD","3HUR21WDDUBEMSLDIXZW1FAIHW8YX3","","1217.8999996185303","img/flower1.png","75","1220.2999997138977","2","1","3","1","1,0.333,0.333,0.333,1,0.333,0.333,0.333,1","1,0.333,0.333,0.333,1,0.333,0.333,0.333,1","1",""
"","html-keyboard-response","203","160915","0.0-203.0","3MHW492WW1ZOA6PYQHF58IME0QYMVT","A10HW8JXM17XLD","3HUR21WDDUBEMSLDIXZW1FAIHW8YX3","","null","<img src=""img/flower1.png"" style=""width:200px; border:14px solid green;"">","null","","","","","","","","",""
"","image-keyboard-response","204","162447","0.0-204.0","3MHW492WW1ZOA6PYQHF58IME0QYMVT","A10HW8JXM17XLD","3HUR21WDDUBEMSLDIXZW1FAIHW8YX3","","1530.0999999046326","img/flower2.png","74","1531.8999996185303","1","1","2","1","1,0.333,0.333,0.333,1,0.333,0.333,0.333,1","1,0.333,0.333,0.333,1,0.333,0.333,0.333,1","1",""
"","html-keyboard-response","205","162756","0.0-205.0","3MHW492WW1ZOA6PYQHF58IME0QYMVT","A10HW8JXM17XLD","3HUR21WDDUBEMSLDIXZW1FAIHW8YX3","","null","<img src=""img/flower2.png"" style=""width:200px; border:14px solid green;"">","null","","","","","","","","",""
"","image-keyboard-response","206","163359","0.0-206.0","3MHW492WW1ZOA6PYQHF58IME0QYMVT","A10HW8JXM17XLD","3HUR21WDDUBEMSLDIXZW1FAIHW8YX3","","600.2999997138977","img/flower2.png","74","602.5","1","0","2","1","1,0.333,0.333,0.333,1,0.333,0.333,0.333,1","1,0.333,0.333,0.333,1,0.333,0.333,0.333,1","1",""
"","html-keyboard-response","207","163667","0.0-207.0","3MHW492WW1ZOA6PYQHF58IME0QYMVT","A10HW8JXM17XLD","3HUR21WDDUBEMSLDIXZW1FAIHW8YX3","","null","<img src=""img/flower2.png"" style=""width:200px;border:14px solid red;"">","null","","","","","","","","",""
"","image-keyboard-response","208","164503","0.0-208.0","3MHW492WW1ZOA6PYQHF58IME0QYMVT","A10HW8JXM17XLD","3HUR21WDDUBEMSLDIXZW1FAIHW8YX3","","833.5999999046326","img/flower2.png","74","835.5999999046326","1","0","2","1","1,0.333,0.333,0.333,1,0.333,0.333,0.333,1","1,0.333,0.333,0.333,1,0.333,0.333,0.333,1","1",""
"","html-keyboard-response","209","164812","0.0-209.0","3MHW492WW1ZOA6PYQHF58IME0QYMVT","A10HW8JXM17XLD","3HUR21WDDUBEMSLDIXZW1FAIHW8YX3","","null","<img src=""img/flower2.png"" style=""width:200px;border:14px solid red;"">","null","","","","","","","","",""
"","image-keyboard-response","210","165472","0.0-210.0","3MHW492WW1ZOA6PYQHF58IME0QYMVT","A10HW8JXM17XLD","3HUR21WDDUBEMSLDIXZW1FAIHW8YX3","","656.5","img/flower2.png","75","659.0999999046326","2","1","2","1","1,0.333,0.333,0.333,1,0.333,0.333,0.333,1","1,0.333,0.333,0.333,1,0.333,0.333,0.333,1","1",""
"","html-keyboard-response","211","165779","0.0-211.0","3MHW492WW1ZOA6PYQHF58IME0QYMVT","A10HW8JXM17XLD","3HUR21WDDUBEMSLDIXZW1FAIHW8YX3","","null","<img src=""img/flower2.png"" style=""width:200px; border:14px solid green;"">","null","","","","","","","","",""
"","image-keyboard-response","212","166463","0.0-212.0","3MHW492WW1ZOA6PYQHF58IME0QYMVT","A10HW8JXM17XLD","3HUR21WDDUBEMSLDIXZW1FAIHW8YX3","","681.6999998092651","img/flower2.png","75","683.5999999046326","2","1","2","1","1,0.333,0.333,0.333,1,0.333,0.333,0.333,1","1,0.333,0.333,0.333,1,0.333,0.333,0.333,1","1",""
"","html-keyboard-response","213","166772","0.0-213.0","3MHW492WW1ZOA6PYQHF58IME0QYMVT","A10HW8JXM17XLD","3HUR21WDDUBEMSLDIXZW1FAIHW8YX3","","null","<img src=""img/flower2.png"" style=""width:200px; border:14px solid green;"">","null","","","","","","","","",""
"","image-keyboard-response","214","167527","0.0-214.0","3MHW492WW1ZOA6PYQHF58IME0QYMVT","A10HW8JXM17XLD","3HUR21WDDUBEMSLDIXZW1FAIHW8YX3","","753.4000000953674","img/flower3.png","75","755.4000000953674","2","0","1","1","1,0.333,0.333,0.333,1,0.333,0.333,0.333,1","1,0.333,0.333,0.333,1,0.333,0.333,0.333,1","1",""
"","html-keyboard-response","215","167836","0.0-215.0","3MHW492WW1ZOA6PYQHF58IME0QYMVT","A10HW8JXM17XLD","3HUR21WDDUBEMSLDIXZW1FAIHW8YX3","","null","<img src=""img/flower3.png"" style=""width:200px;border:14px solid red;"">","null","","","","","","","","",""
"","image-keyboard-response","216","168695","0.0-216.0","3MHW492WW1ZOA6PYQHF58IME0QYMVT","A10HW8JXM17XLD","3HUR21WDDUBEMSLDIXZW1FAIHW8YX3","","857.0999999046326","img/flower2.png","75","859.1999998092651","2","1","2","1","1,0.333,0.333,0.333,1,0.333,0.333,0.333,1","1,0.333,0.333,0.333,1,0.333,0.333,0.333,1","1",""
"","html-keyboard-response","217","169005","0.0-217.0","3MHW492WW1ZOA6PYQHF58IME0QYMVT","A10HW8JXM17XLD","3HUR21WDDUBEMSLDIXZW1FAIHW8YX3","","null","<img src=""img/flower2.png"" style=""width:200px; border:14px solid green;"">","null","","","","","","","","",""
"","image-keyboard-response","218","170256","0.0-218.0","3MHW492WW1ZOA6PYQHF58IME0QYMVT","A10HW8JXM17XLD","3HUR21WDDUBEMSLDIXZW1FAIHW8YX3","","1248.9000000953674","img/flower3.png","76","1251.1999998092651","3","0","1","1","1,0.333,0.333,0.333,1,0.333,0.333,0.333,1","1,0.333,0.333,0.333,1,0.333,0.333,0.333,1","1",""
"","html-keyboard-response","219","170563","0.0-219.0","3MHW492WW1ZOA6PYQHF58IME0QYMVT","A10HW8JXM17XLD","3HUR21WDDUBEMSLDIXZW1FAIHW8YX3","","null","<img src=""img/flower3.png"" style=""width:200px;border:14px solid red;"">","null","","","","","","","","",""
"","image-keyboard-response","220","171352","0.0-220.0","3MHW492WW1ZOA6PYQHF58IME0QYMVT","A10HW8JXM17XLD","3HUR21WDDUBEMSLDIXZW1FAIHW8YX3","","785.7000002861023","img/flower3.png","74","787.8000001907349","1","1","1","1","1,0.333,0.333,0.333,1,0.333,0.333,0.333,1","1,0.333,0.333,0.333,1,0.333,0.333,0.333,1","1",""
"","html-keyboard-response","221","171659","0.0-221.0","3MHW492WW1ZOA6PYQHF58IME0QYMVT","A10HW8JXM17XLD","3HUR21WDDUBEMSLDIXZW1FAIHW8YX3","","null","<img src=""img/flower3.png"" style=""width:200px; border:14px solid green;"">","null","","","","","","","","",""
"","image-keyboard-response","222","172767","0.0-222.0","3MHW492WW1ZOA6PYQHF58IME0QYMVT","A10HW8JXM17XLD","3HUR21WDDUBEMSLDIXZW1FAIHW8YX3","","1105.4000000953674","img/flower3.png","74","1107.5","1","1","1","1","1,0.333,0.333,0.333,1,0.333,0.333,0.333,1","1,0.333,0.333,0.333,1,0.333,0.333,0.333,1","1",""
"","html-keyboard-response","223","173076","0.0-223.0","3MHW492WW1ZOA6PYQHF58IME0QYMVT","A10HW8JXM17XLD","3HUR21WDDUBEMSLDIXZW1FAIHW8YX3","","null","<img src=""img/flower3.png"" style=""width:200px; border:14px solid green;"">","null","","","","","","","","",""
"","image-keyboard-response","224","174624","0.0-224.0","3MHW492WW1ZOA6PYQHF58IME0QYMVT","A10HW8JXM17XLD","3HUR21WDDUBEMSLDIXZW1FAIHW8YX3","","1545","img/flower1.png","75","1547.1999998092651","2","0","3","1","1,0.333,0.333,0.333,1,0.333,0.333,0.333,1","1,0.333,0.333,0.333,1,0.333,0.333,0.333,1","1",""
"","html-keyboard-response","225","174932","0.0-225.0","3MHW492WW1ZOA6PYQHF58IME0QYMVT","A10HW8JXM17XLD","3HUR21WDDUBEMSLDIXZW1FAIHW8YX3","","null","<img src=""img/flower1.png"" style=""width:200px;border:14px solid red;"">","null","","","","","","","","",""
"","image-keyboard-response","226","175751","0.0-226.0","3MHW492WW1ZOA6PYQHF58IME0QYMVT","A10HW8JXM17XLD","3HUR21WDDUBEMSLDIXZW1FAIHW8YX3","","816.8000001907349","img/flower3.png","74","818.6999998092651","1","1","1","1","1,0.333,0.333,0.333,1,0.333,0.333,0.333,1","1,0.333,0.333,0.333,1,0.333,0.333,0.333,1","1",""
"","html-keyboard-response","227","176059","0.0-227.0","3MHW492WW1ZOA6PYQHF58IME0QYMVT","A10HW8JXM17XLD","3HUR21WDDUBEMSLDIXZW1FAIHW8YX3","","null","<img src=""img/flower3.png"" style=""width:200px; border:14px solid green;"">","null","","","","","","","","",""
"","image-keyboard-response","228","177191","0.0-228.0","3MHW492WW1ZOA6PYQHF58IME0QYMVT","A10HW8JXM17XLD","3HUR21WDDUBEMSLDIXZW1FAIHW8YX3","","1129.7000002861023","img/flower2.png","76","1131.8000001907349","3","0","2","1","1,0.333,0.333,0.333,1,0.333,0.333,0.333,1","1,0.333,0.333,0.333,1,0.333,0.333,0.333,1","1",""
"","html-keyboard-response","229","177499","0.0-229.0","3MHW492WW1ZOA6PYQHF58IME0QYMVT","A10HW8JXM17XLD","3HUR21WDDUBEMSLDIXZW1FAIHW8YX3","","null","<img src=""img/flower2.png"" style=""width:200px;border:14px solid red;"">","null","","","","","","","","",""
"","image-keyboard-response","230","178327","0.0-230.0","3MHW492WW1ZOA6PYQHF58IME0QYMVT","A10HW8JXM17XLD","3HUR21WDDUBEMSLDIXZW1FAIHW8YX3","","825.5999999046326","img/flower3.png","74","827.5","1","1","1","1","1,0.333,0.333,0.333,1,0.333,0.333,0.333,1","1,0.333,0.333,0.333,1,0.333,0.333,0.333,1","1",""
"","html-keyboard-response","231","178635","0.0-231.0","3MHW492WW1ZOA6PYQHF58IME0QYMVT","A10HW8JXM17XLD","3HUR21WDDUBEMSLDIXZW1FAIHW8YX3","","null","<img src=""img/flower3.png"" style=""width:200px; border:14px solid green;"">","null","","","","","","","","",""
"","image-keyboard-response","232","179624","0.0-232.0","3MHW492WW1ZOA6PYQHF58IME0QYMVT","A10HW8JXM17XLD","3HUR21WDDUBEMSLDIXZW1FAIHW8YX3","","985.8000001907349","img/flower1.png","75","988.2999997138977","2","0","3","1","1,0.333,0.333,0.333,1,0.333,0.333,0.333,1","1,0.333,0.333,0.333,1,0.333,0.333,0.333,1","1",""
"","html-keyboard-response","233","179932","0.0-233.0","3MHW492WW1ZOA6PYQHF58IME0QYMVT","A10HW8JXM17XLD","3HUR21WDDUBEMSLDIXZW1FAIHW8YX3","","null","<img src=""img/flower1.png"" style=""width:200px;border:14px solid red;"">","null","","","","","","","","",""
"","image-keyboard-response","234","180591","0.0-234.0","3MHW492WW1ZOA6PYQHF58IME0QYMVT","A10HW8JXM17XLD","3HUR21WDDUBEMSLDIXZW1FAIHW8YX3","","657.0999999046326","img/flower1.png","76","658.9000000953674","3","1","3","1","1,0.333,0.333,0.333,1,0.333,0.333,0.333,1","1,0.333,0.333,0.333,1,0.333,0.333,0.333,1","1",""
"","html-keyboard-response","235","180900","0.0-235.0","3MHW492WW1ZOA6PYQHF58IME0QYMVT","A10HW8JXM17XLD","3HUR21WDDUBEMSLDIXZW1FAIHW8YX3","","null","<img src=""img/flower1.png"" style=""width:200px; border:14px solid green;"">","null","","","","","","","","",""
"","image-keyboard-response","236","181888","0.0-236.0","3MHW492WW1ZOA6PYQHF58IME0QYMVT","A10HW8JXM17XLD","3HUR21WDDUBEMSLDIXZW1FAIHW8YX3","","985.0999999046326","img/flower1.png","76","987.2000002861023","3","1","3","1","1,0.333,0.333,0.333,1,0.333,0.333,0.333,1","1,0.333,0.333,0.333,1,0.333,0.333,0.333,1","1",""
"","html-keyboard-response","237","182196","0.0-237.0","3MHW492WW1ZOA6PYQHF58IME0QYMVT","A10HW8JXM17XLD","3HUR21WDDUBEMSLDIXZW1FAIHW8YX3","","null","<img src=""img/flower1.png"" style=""width:200px; border:14px solid green;"">","null","","","","","","","","",""
"","image-keyboard-response","238","182872","0.0-238.0","3MHW492WW1ZOA6PYQHF58IME0QYMVT","A10HW8JXM17XLD","3HUR21WDDUBEMSLDIXZW1FAIHW8YX3","","672.8999996185303","img/flower1.png","76","674.9000000953674","3","1","3","1","1,0.333,0.333,0.333,1,0.333,0.333,0.333,1","1,0.333,0.333,0.333,1,0.333,0.333,0.333,1","1",""
"","html-keyboard-response","239","183179","0.0-239.0","3MHW492WW1ZOA6PYQHF58IME0QYMVT","A10HW8JXM17XLD","3HUR21WDDUBEMSLDIXZW1FAIHW8YX3","","null","<img src=""img/flower1.png"" style=""width:200px; border:14px solid green;"">","null","","","","","","","","",""
"","image-keyboard-response","240","184295","0.0-240.0","3MHW492WW1ZOA6PYQHF58IME0QYMVT","A10HW8JXM17XLD","3HUR21WDDUBEMSLDIXZW1FAIHW8YX3","","1113.4000000953674","img/flower3.png","74","1115.5","1","1","1","1","1,0.333,0.333,0.333,1,0.333,0.333,0.333,1","1,0.333,0.333,0.333,1,0.333,0.333,0.333,1","1",""
"","html-keyboard-response","241","184603","0.0-241.0","3MHW492WW1ZOA6PYQHF58IME0QYMVT","A10HW8JXM17XLD","3HUR21WDDUBEMSLDIXZW1FAIHW8YX3","","null","<img src=""img/flower3.png"" style=""width:200px; border:14px solid green;"">","null","","","","","","","","",""
"","image-keyboard-response","242","185895","0.0-242.0","3MHW492WW1ZOA6PYQHF58IME0QYMVT","A10HW8JXM17XLD","3HUR21WDDUBEMSLDIXZW1FAIHW8YX3","","1289.4000000953674","img/flower2.png","75","1291.5999999046326","2","1","2","1","1,0.333,0.333,0.333,1,0.333,0.333,0.333,1","1,0.333,0.333,0.333,1,0.333,0.333,0.333,1","1",""
"","html-keyboard-response","243","186204","0.0-243.0","3MHW492WW1ZOA6PYQHF58IME0QYMVT","A10HW8JXM17XLD","3HUR21WDDUBEMSLDIXZW1FAIHW8YX3","","null","<img src=""img/flower2.png"" style=""width:200px; border:14px solid green;"">","null","","","","","","","","",""
"","image-keyboard-response","244","186767","0.0-244.0","3MHW492WW1ZOA6PYQHF58IME0QYMVT","A10HW8JXM17XLD","3HUR21WDDUBEMSLDIXZW1FAIHW8YX3","","560.8000001907349","img/flower2.png","75","562.6999998092651","2","1","2","1","1,0.333,0.333,0.333,1,0.333,0.333,0.333,1","1,0.333,0.333,0.333,1,0.333,0.333,0.333,1","1",""
"","html-keyboard-response","245","187075","0.0-245.0","3MHW492WW1ZOA6PYQHF58IME0QYMVT","A10HW8JXM17XLD","3HUR21WDDUBEMSLDIXZW1FAIHW8YX3","","null","<img src=""img/flower2.png"" style=""width:200px; border:14px solid green;"">","null","","","","","","","","",""
"","image-keyboard-response","246","187983","0.0-246.0","3MHW492WW1ZOA6PYQHF58IME0QYMVT","A10HW8JXM17XLD","3HUR21WDDUBEMSLDIXZW1FAIHW8YX3","","906","img/flower2.png","75","908.0999999046326","2","1","2","1","1,0.333,0.333,0.333,1,0.333,0.333,0.333,1","1,0.333,0.333,0.333,1,0.333,0.333,0.333,1","1",""
"","html-keyboard-response","247","188292","0.0-247.0","3MHW492WW1ZOA6PYQHF58IME0QYMVT","A10HW8JXM17XLD","3HUR21WDDUBEMSLDIXZW1FAIHW8YX3","","null","<img src=""img/flower2.png"" style=""width:200px; border:14px solid green;"">","null","","","","","","","","",""
"","image-keyboard-response","248","189311","0.0-248.0","3MHW492WW1ZOA6PYQHF58IME0QYMVT","A10HW8JXM17XLD","3HUR21WDDUBEMSLDIXZW1FAIHW8YX3","","1016.8999996185303","img/flower3.png","74","1018.8000001907349","1","1","1","1","1,0.333,0.333,0.333,1,0.333,0.333,0.333,1","1,0.333,0.333,0.333,1,0.333,0.333,0.333,1","1",""
"","html-keyboard-response","249","189619","0.0-249.0","3MHW492WW1ZOA6PYQHF58IME0QYMVT","A10HW8JXM17XLD","3HUR21WDDUBEMSLDIXZW1FAIHW8YX3","","null","<img src=""img/flower3.png"" style=""width:200px; border:14px solid green;"">","null","","","","","","","","",""
"","image-keyboard-response","250","190311","0.0-250.0","3MHW492WW1ZOA6PYQHF58IME0QYMVT","A10HW8JXM17XLD","3HUR21WDDUBEMSLDIXZW1FAIHW8YX3","","689.3000001907349","img/flower2.png","75","691.3000001907349","2","1","2","1","1,0.333,0.333,0.333,1,0.333,0.333,0.333,1","1,0.333,0.333,0.333,1,0.333,0.333,0.333,1","1",""
"","html-keyboard-response","251","190619","0.0-251.0","3MHW492WW1ZOA6PYQHF58IME0QYMVT","A10HW8JXM17XLD","3HUR21WDDUBEMSLDIXZW1FAIHW8YX3","","null","<img src=""img/flower2.png"" style=""width:200px; border:14px solid green;"">","null","","","","","","","","",""
"","image-keyboard-response","252","191407","0.0-252.0","3MHW492WW1ZOA6PYQHF58IME0QYMVT","A10HW8JXM17XLD","3HUR21WDDUBEMSLDIXZW1FAIHW8YX3","","785.2999997138977","img/flower1.png","76","787.5999999046326","3","1","3","1","1,0.333,0.333,0.333,1,0.333,0.333,0.333,1","1,0.333,0.333,0.333,1,0.333,0.333,0.333,1","1",""
"","html-keyboard-response","253","191716","0.0-253.0","3MHW492WW1ZOA6PYQHF58IME0QYMVT","A10HW8JXM17XLD","3HUR21WDDUBEMSLDIXZW1FAIHW8YX3","","null","<img src=""img/flower1.png"" style=""width:200px; border:14px solid green;"">","null","","","","","","","","",""
"","image-keyboard-response","254","192623","0.0-254.0","3MHW492WW1ZOA6PYQHF58IME0QYMVT","A10HW8JXM17XLD","3HUR21WDDUBEMSLDIXZW1FAIHW8YX3","","905.1999998092651","img/flower2.png","75","907.2000002861023","2","1","2","1","1,0.333,0.333,0.333,1,0.333,0.333,0.333,1","1,0.333,0.333,0.333,1,0.333,0.333,0.333,1","1",""
"","html-keyboard-response","255","192931","0.0-255.0","3MHW492WW1ZOA6PYQHF58IME0QYMVT","A10HW8JXM17XLD","3HUR21WDDUBEMSLDIXZW1FAIHW8YX3","","null","<img src=""img/flower2.png"" style=""width:200px; border:14px solid green;"">","null","","","","","","","","",""
"","image-keyboard-response","256","193543","0.0-256.0","3MHW492WW1ZOA6PYQHF58IME0QYMVT","A10HW8JXM17XLD","3HUR21WDDUBEMSLDIXZW1FAIHW8YX3","","609.2999997138977","img/flower3.png","74","611.1999998092651","1","1","1","1","1,0.333,0.333,0.333,1,0.333,0.333,0.333,1","1,0.333,0.333,0.333,1,0.333,0.333,0.333,1","1",""
"","html-keyboard-response","257","193851","0.0-257.0","3MHW492WW1ZOA6PYQHF58IME0QYMVT","A10HW8JXM17XLD","3HUR21WDDUBEMSLDIXZW1FAIHW8YX3","","null","<img src=""img/flower3.png"" style=""width:200px; border:14px solid green;"">","null","","","","","","","","",""
"","image-keyboard-response","258","194495","0.0-258.0","3MHW492WW1ZOA6PYQHF58IME0QYMVT","A10HW8JXM17XLD","3HUR21WDDUBEMSLDIXZW1FAIHW8YX3","","641.1999998092651","img/flower3.png","74","643.2000002861023","1","1","1","1","1,0.333,0.333,0.333,1,0.333,0.333,0.333,1","1,0.333,0.333,0.333,1,0.333,0.333,0.333,1","1",""
"","html-keyboard-response","259","194803","0.0-259.0","3MHW492WW1ZOA6PYQHF58IME0QYMVT","A10HW8JXM17XLD","3HUR21WDDUBEMSLDIXZW1FAIHW8YX3","","null","<img src=""img/flower3.png"" style=""width:200px; border:14px solid green;"">","null","","","","","","","","",""
"","image-keyboard-response","260","195487","0.0-260.0","3MHW492WW1ZOA6PYQHF58IME0QYMVT","A10HW8JXM17XLD","3HUR21WDDUBEMSLDIXZW1FAIHW8YX3","","681.2000002861023","img/flower2.png","75","683.0999999046326","2","1","2","1","1,0.333,0.333,0.333,1,0.333,0.333,0.333,1","1,0.333,0.333,0.333,1,0.333,0.333,0.333,1","1",""
"","html-keyboard-response","261","195796","0.0-261.0","3MHW492WW1ZOA6PYQHF58IME0QYMVT","A10HW8JXM17XLD","3HUR21WDDUBEMSLDIXZW1FAIHW8YX3","","null","<img src=""img/flower2.png"" style=""width:200px; border:14px solid green;"">","null","","","","","","","","",""
"","image-keyboard-response","262","196535","0.0-262.0","3MHW492WW1ZOA6PYQHF58IME0QYMVT","A10HW8JXM17XLD","3HUR21WDDUBEMSLDIXZW1FAIHW8YX3","","737.3999996185303","img/flower2.png","75","739","2","1","2","1","1,0.333,0.333,0.333,1,0.333,0.333,0.333,1","1,0.333,0.333,0.333,1,0.333,0.333,0.333,1","1",""
"","html-keyboard-response","263","196843","0.0-263.0","3MHW492WW1ZOA6PYQHF58IME0QYMVT","A10HW8JXM17XLD","3HUR21WDDUBEMSLDIXZW1FAIHW8YX3","","null","<img src=""img/flower2.png"" style=""width:200px; border:14px solid green;"">","null","","","","","","","","",""
"","image-keyboard-response","264","197911","0.0-264.0","3MHW492WW1ZOA6PYQHF58IME0QYMVT","A10HW8JXM17XLD","3HUR21WDDUBEMSLDIXZW1FAIHW8YX3","","1065.1999998092651","img/flower1.png","76","1067.2000002861023","3","1","3","1","1,0.333,0.333,0.333,1,0.333,0.333,0.333,1","1,0.333,0.333,0.333,1,0.333,0.333,0.333,1","1",""
"","html-keyboard-response","265","198220","0.0-265.0","3MHW492WW1ZOA6PYQHF58IME0QYMVT","A10HW8JXM17XLD","3HUR21WDDUBEMSLDIXZW1FAIHW8YX3","","null","<img src=""img/flower1.png"" style=""width:200px; border:14px solid green;"">","null","","","","","","","","",""
"","image-keyboard-response","266","198903","0.0-266.0","3MHW492WW1ZOA6PYQHF58IME0QYMVT","A10HW8JXM17XLD","3HUR21WDDUBEMSLDIXZW1FAIHW8YX3","","680.1999998092651","img/flower3.png","74","682.5","1","1","1","1","1,0.333,0.333,0.333,1,0.333,0.333,0.333,1","1,0.333,0.333,0.333,1,0.333,0.333,0.333,1","1",""
"","html-keyboard-response","267","199211","0.0-267.0","3MHW492WW1ZOA6PYQHF58IME0QYMVT","A10HW8JXM17XLD","3HUR21WDDUBEMSLDIXZW1FAIHW8YX3","","null","<img src=""img/flower3.png"" style=""width:200px; border:14px solid green;"">","null","","","","","","","","",""
"","image-keyboard-response","268","199856","0.0-268.0","3MHW492WW1ZOA6PYQHF58IME0QYMVT","A10HW8JXM17XLD","3HUR21WDDUBEMSLDIXZW1FAIHW8YX3","","642.0999999046326","img/flower2.png","75","644.0999999046326","2","1","2","1","1,0.333,0.333,0.333,1,0.333,0.333,0.333,1","1,0.333,0.333,0.333,1,0.333,0.333,0.333,1","1",""
"","html-keyboard-response","269","200164","0.0-269.0","3MHW492WW1ZOA6PYQHF58IME0QYMVT","A10HW8JXM17XLD","3HUR21WDDUBEMSLDIXZW1FAIHW8YX3","","null","<img src=""img/flower2.png"" style=""width:200px; border:14px solid green;"">","null","","","","","","","","",""
"","image-keyboard-response","270","200847","0.0-270.0","3MHW492WW1ZOA6PYQHF58IME0QYMVT","A10HW8JXM17XLD","3HUR21WDDUBEMSLDIXZW1FAIHW8YX3","","680.7999997138977","img/flower1.png","76","682.9000000953674","3","1","3","1","1,0.333,0.333,0.333,1,0.333,0.333,0.333,1","1,0.333,0.333,0.333,1,0.333,0.333,0.333,1","1",""
"","html-keyboard-response","271","201155","0.0-271.0","3MHW492WW1ZOA6PYQHF58IME0QYMVT","A10HW8JXM17XLD","3HUR21WDDUBEMSLDIXZW1FAIHW8YX3","","null","<img src=""img/flower1.png"" style=""width:200px; border:14px solid green;"">","null","","","","","","","","",""
"","image-keyboard-response","272","201823","0.0-272.0","3MHW492WW1ZOA6PYQHF58IME0QYMVT","A10HW8JXM17XLD","3HUR21WDDUBEMSLDIXZW1FAIHW8YX3","","667.0999999046326","img/flower3.png","74","668.5","1","1","1","1","1,0.333,0.333,0.333,1,0.333,0.333,0.333,1","1,0.333,0.333,0.333,1,0.333,0.333,0.333,1","1",""
"","html-keyboard-response","273","202131","0.0-273.0","3MHW492WW1ZOA6PYQHF58IME0QYMVT","A10HW8JXM17XLD","3HUR21WDDUBEMSLDIXZW1FAIHW8YX3","","null","<img src=""img/flower3.png"" style=""width:200px; border:14px solid green;"">","null","","","","","","","","",""
"","image-keyboard-response","274","202823","0.0-274.0","3MHW492WW1ZOA6PYQHF58IME0QYMVT","A10HW8JXM17XLD","3HUR21WDDUBEMSLDIXZW1FAIHW8YX3","","689.5999999046326","img/flower3.png","74","691.5999999046326","1","1","1","1","1,0.333,0.333,0.333,1,0.333,0.333,0.333,1","1,0.333,0.333,0.333,1,0.333,0.333,0.333,1","1",""
"","html-keyboard-response","275","203132","0.0-275.0","3MHW492WW1ZOA6PYQHF58IME0QYMVT","A10HW8JXM17XLD","3HUR21WDDUBEMSLDIXZW1FAIHW8YX3","","null","<img src=""img/flower3.png"" style=""width:200px; border:14px solid green;"">","null","","","","","","","","",""
"","image-keyboard-response","276","203767","0.0-276.0","3MHW492WW1ZOA6PYQHF58IME0QYMVT","A10HW8JXM17XLD","3HUR21WDDUBEMSLDIXZW1FAIHW8YX3","","632.9000000953674","img/flower2.png","75","634.7999997138977","2","1","2","1","1,0.333,0.333,0.333,1,0.333,0.333,0.333,1","1,0.333,0.333,0.333,1,0.333,0.333,0.333,1","1",""
"","html-keyboard-response","277","204075","0.0-277.0","3MHW492WW1ZOA6PYQHF58IME0QYMVT","A10HW8JXM17XLD","3HUR21WDDUBEMSLDIXZW1FAIHW8YX3","","null","<img src=""img/flower2.png"" style=""width:200px; border:14px solid green;"">","null","","","","","","","","",""
"","image-keyboard-response","278","204847","0.0-278.0","3MHW492WW1ZOA6PYQHF58IME0QYMVT","A10HW8JXM17XLD","3HUR21WDDUBEMSLDIXZW1FAIHW8YX3","","769.0999999046326","img/flower3.png","74","770.8999996185303","1","1","1","1","1,0.333,0.333,0.333,1,0.333,0.333,0.333,1","1,0.333,0.333,0.333,1,0.333,0.333,0.333,1","1",""
"","html-keyboard-response","279","205155","0.0-279.0","3MHW492WW1ZOA6PYQHF58IME0QYMVT","A10HW8JXM17XLD","3HUR21WDDUBEMSLDIXZW1FAIHW8YX3","","null","<img src=""img/flower3.png"" style=""width:200px; border:14px solid green;"">","null","","","","","","","","",""
"","image-keyboard-response","280","205999","0.0-280.0","3MHW492WW1ZOA6PYQHF58IME0QYMVT","A10HW8JXM17XLD","3HUR21WDDUBEMSLDIXZW1FAIHW8YX3","","841.6999998092651","img/flower1.png","76","843.6999998092651","3","1","3","1","1,0.333,0.333,0.333,1,0.333,0.333,0.333,1","1,0.333,0.333,0.333,1,0.333,0.333,0.333,1","1",""
"","html-keyboard-response","281","206308","0.0-281.0","3MHW492WW1ZOA6PYQHF58IME0QYMVT","A10HW8JXM17XLD","3HUR21WDDUBEMSLDIXZW1FAIHW8YX3","","null","<img src=""img/flower1.png"" style=""width:200px; border:14px solid green;"">","null","","","","","","","","",""
"","image-keyboard-response","282","207095","0.0-282.0","3MHW492WW1ZOA6PYQHF58IME0QYMVT","A10HW8JXM17XLD","3HUR21WDDUBEMSLDIXZW1FAIHW8YX3","","784.6999998092651","img/flower3.png","74","786.6000003814697","1","1","1","1","1,0.333,0.333,0.333,1,0.333,0.333,0.333,1","1,0.333,0.333,0.333,1,0.333,0.333,0.333,1","1",""
"","html-keyboard-response","283","207404","0.0-283.0","3MHW492WW1ZOA6PYQHF58IME0QYMVT","A10HW8JXM17XLD","3HUR21WDDUBEMSLDIXZW1FAIHW8YX3","","null","<img src=""img/flower3.png"" style=""width:200px; border:14px solid green;"">","null","","","","","","","","",""
"","image-keyboard-response","284","208103","0.0-284.0","3MHW492WW1ZOA6PYQHF58IME0QYMVT","A10HW8JXM17XLD","3HUR21WDDUBEMSLDIXZW1FAIHW8YX3","","696.9000000953674","img/flower2.png","75","699.0999999046326","2","1","2","1","1,0.333,0.333,0.333,1,0.333,0.333,0.333,1","1,0.333,0.333,0.333,1,0.333,0.333,0.333,1","1",""
"","html-keyboard-response","285","208413","0.0-285.0","3MHW492WW1ZOA6PYQHF58IME0QYMVT","A10HW8JXM17XLD","3HUR21WDDUBEMSLDIXZW1FAIHW8YX3","","null","<img src=""img/flower2.png"" style=""width:200px; border:14px solid green;"">","null","","","","","","","","",""
"","image-keyboard-response","286","209223","0.0-286.0","3MHW492WW1ZOA6PYQHF58IME0QYMVT","A10HW8JXM17XLD","3HUR21WDDUBEMSLDIXZW1FAIHW8YX3","","807.7999997138977","img/flower3.png","74","809.7000002861023","1","1","1","1","1,0.333,0.333,0.333,1,0.333,0.333,0.333,1","1,0.333,0.333,0.333,1,0.333,0.333,0.333,1","1",""
"","html-keyboard-response","287","209532","0.0-287.0","3MHW492WW1ZOA6PYQHF58IME0QYMVT","A10HW8JXM17XLD","3HUR21WDDUBEMSLDIXZW1FAIHW8YX3","","null","<img src=""img/flower3.png"" style=""width:200px; border:14px solid green;"">","null","","","","","","","","",""
"","image-keyboard-response","288","210671","0.0-288.0","3MHW492WW1ZOA6PYQHF58IME0QYMVT","A10HW8JXM17XLD","3HUR21WDDUBEMSLDIXZW1FAIHW8YX3","","1136.6999998092651","img/flower2.png","75","1138.4000000953674","2","1","2","1","1,0.333,0.333,0.333,1,0.333,0.333,0.333,1","1,0.333,0.333,0.333,1,0.333,0.333,0.333,1","1",""
"","html-keyboard-response","289","210972","0.0-289.0","3MHW492WW1ZOA6PYQHF58IME0QYMVT","A10HW8JXM17XLD","3HUR21WDDUBEMSLDIXZW1FAIHW8YX3","","null","<img src=""img/flower2.png"" style=""width:200px; border:14px solid green;"">","null","","","","","","","","",""
"","image-keyboard-response","290","211559","0.0-290.0","3MHW492WW1ZOA6PYQHF58IME0QYMVT","A10HW8JXM17XLD","3HUR21WDDUBEMSLDIXZW1FAIHW8YX3","","584.5999999046326","img/flower2.png","75","586.7000002861023","2","1","2","1","1,0.333,0.333,0.333,1,0.333,0.333,0.333,1","1,0.333,0.333,0.333,1,0.333,0.333,0.333,1","1",""
"","html-keyboard-response","291","211867","0.0-291.0","3MHW492WW1ZOA6PYQHF58IME0QYMVT","A10HW8JXM17XLD","3HUR21WDDUBEMSLDIXZW1FAIHW8YX3","","null","<img src=""img/flower2.png"" style=""width:200px; border:14px solid green;"">","null","","","","","","","","",""
"","image-keyboard-response","292","212663","0.0-292.0","3MHW492WW1ZOA6PYQHF58IME0QYMVT","A10HW8JXM17XLD","3HUR21WDDUBEMSLDIXZW1FAIHW8YX3","","793.3000001907349","img/flower3.png","74","795.5","1","1","1","1","1,0.333,0.333,0.333,1,0.333,0.333,0.333,1","1,0.333,0.333,0.333,1,0.333,0.333,0.333,1","1",""
"","html-keyboard-response","293","212972","0.0-293.0","3MHW492WW1ZOA6PYQHF58IME0QYMVT","A10HW8JXM17XLD","3HUR21WDDUBEMSLDIXZW1FAIHW8YX3","","null","<img src=""img/flower3.png"" style=""width:200px; border:14px solid green;"">","null","","","","","","","","",""
"","image-keyboard-response","294","213616","0.0-294.0","3MHW492WW1ZOA6PYQHF58IME0QYMVT","A10HW8JXM17XLD","3HUR21WDDUBEMSLDIXZW1FAIHW8YX3","","641.2999997138977","img/flower1.png","76","643.1999998092651","3","1","3","1","1,0.333,0.333,0.333,1,0.333,0.333,0.333,1","1,0.333,0.333,0.333,1,0.333,0.333,0.333,1","1",""
"","html-keyboard-response","295","213924","0.0-295.0","3MHW492WW1ZOA6PYQHF58IME0QYMVT","A10HW8JXM17XLD","3HUR21WDDUBEMSLDIXZW1FAIHW8YX3","","null","<img src=""img/flower1.png"" style=""width:200px; border:14px solid green;"">","null","","","","","","","","",""
"","image-keyboard-response","296","214455","0.0-296.0","3MHW492WW1ZOA6PYQHF58IME0QYMVT","A10HW8JXM17XLD","3HUR21WDDUBEMSLDIXZW1FAIHW8YX3","","529.0999999046326","img/flower1.png","76","531.1000003814697","3","1","3","1","1,0.333,0.333,0.333,1,0.333,0.333,0.333,1","1,0.333,0.333,0.333,1,0.333,0.333,0.333,1","1",""
"","html-keyboard-response","297","214763","0.0-297.0","3MHW492WW1ZOA6PYQHF58IME0QYMVT","A10HW8JXM17XLD","3HUR21WDDUBEMSLDIXZW1FAIHW8YX3","","null","<img src=""img/flower1.png"" style=""width:200px; border:14px solid green;"">","null","","","","","","","","",""
"","image-keyboard-response","298","215431","0.0-298.0","3MHW492WW1ZOA6PYQHF58IME0QYMVT","A10HW8JXM17XLD","3HUR21WDDUBEMSLDIXZW1FAIHW8YX3","","665.6999998092651","img/flower3.png","74","667.5","1","1","1","1","1,0.333,0.333,0.333,1,0.333,0.333,0.333,1","1,0.333,0.333,0.333,1,0.333,0.333,0.333,1","1",""
"","html-keyboard-response","299","215740","0.0-299.0","3MHW492WW1ZOA6PYQHF58IME0QYMVT","A10HW8JXM17XLD","3HUR21WDDUBEMSLDIXZW1FAIHW8YX3","","null","<img src=""img/flower3.png"" style=""width:200px; border:14px solid green;"">","null","","","","","","","","",""
"","image-keyboard-response","300","216407","0.0-300.0","3MHW492WW1ZOA6PYQHF58IME0QYMVT","A10HW8JXM17XLD","3HUR21WDDUBEMSLDIXZW1FAIHW8YX3","","664.6999998092651","img/flower3.png","74","666.5999999046326","1","1","1","1","1,0.333,0.333,0.333,1,0.333,0.333,0.333,1","1,0.333,0.333,0.333,1,0.333,0.333,0.333,1","1",""
"","html-keyboard-response","301","216716","0.0-301.0","3MHW492WW1ZOA6PYQHF58IME0QYMVT","A10HW8JXM17XLD","3HUR21WDDUBEMSLDIXZW1FAIHW8YX3","","null","<img src=""img/flower3.png"" style=""width:200px; border:14px solid green;"">","null","","","","","","","","",""
"","image-keyboard-response","302","217511","0.0-302.0","3MHW492WW1ZOA6PYQHF58IME0QYMVT","A10HW8JXM17XLD","3HUR21WDDUBEMSLDIXZW1FAIHW8YX3","","792.6999998092651","img/flower1.png","76","794.5999999046326","3","1","3","1","1,0.333,0.333,0.333,1,0.333,0.333,0.333,1","1,0.333,0.333,0.333,1,0.333,0.333,0.333,1","1",""
"","html-keyboard-response","303","217820","0.0-303.0","3MHW492WW1ZOA6PYQHF58IME0QYMVT","A10HW8JXM17XLD","3HUR21WDDUBEMSLDIXZW1FAIHW8YX3","","null","<img src=""img/flower1.png"" style=""width:200px; border:14px solid green;"">","null","","","","","","","","",""
"","image-keyboard-response","304","218351","0.0-304.0","3MHW492WW1ZOA6PYQHF58IME0QYMVT","A10HW8JXM17XLD","3HUR21WDDUBEMSLDIXZW1FAIHW8YX3","","528.9000000953674","img/flower1.png","76","530.6999998092651","3","1","3","1","1,0.333,0.333,0.333,1,0.333,0.333,0.333,1","1,0.333,0.333,0.333,1,0.333,0.333,0.333,1","1",""
"","html-keyboard-response","305","218660","0.0-305.0","3MHW492WW1ZOA6PYQHF58IME0QYMVT","A10HW8JXM17XLD","3HUR21WDDUBEMSLDIXZW1FAIHW8YX3","","null","<img src=""img/flower1.png"" style=""width:200px; border:14px solid green;"">","null","","","","","","","","",""
"","image-keyboard-response","306","219351","0.0-306.0","3MHW492WW1ZOA6PYQHF58IME0QYMVT","A10HW8JXM17XLD","3HUR21WDDUBEMSLDIXZW1FAIHW8YX3","","688.6999998092651","img/flower3.png","74","690.5999999046326","1","1","1","1","1,0.333,0.333,0.333,1,0.333,0.333,0.333,1","1,0.333,0.333,0.333,1,0.333,0.333,0.333,1","1",""
"","html-keyboard-response","307","219660","0.0-307.0","3MHW492WW1ZOA6PYQHF58IME0QYMVT","A10HW8JXM17XLD","3HUR21WDDUBEMSLDIXZW1FAIHW8YX3","","null","<img src=""img/flower3.png"" style=""width:200px; border:14px solid green;"">","null","","","","","","","","",""
"","image-keyboard-response","308","220575","0.0-308.0","3MHW492WW1ZOA6PYQHF58IME0QYMVT","A10HW8JXM17XLD","3HUR21WDDUBEMSLDIXZW1FAIHW8YX3","","912.9000000953674","img/flower1.png","76","914.7999997138977","3","1","3","1","1,0.333,0.333,0.333,1,0.333,0.333,0.333,1","1,0.333,0.333,0.333,1,0.333,0.333,0.333,1","1",""
"","html-keyboard-response","309","220884","0.0-309.0","3MHW492WW1ZOA6PYQHF58IME0QYMVT","A10HW8JXM17XLD","3HUR21WDDUBEMSLDIXZW1FAIHW8YX3","","null","<img src=""img/flower1.png"" style=""width:200px; border:14px solid green;"">","null","","","","","","","","",""
"","image-keyboard-response","310","221463","0.0-310.0","3MHW492WW1ZOA6PYQHF58IME0QYMVT","A10HW8JXM17XLD","3HUR21WDDUBEMSLDIXZW1FAIHW8YX3","","577","img/flower3.png","74","579.2000002861023","1","1","1","1","1,0.333,0.333,0.333,1,0.333,0.333,0.333,1","1,0.333,0.333,0.333,1,0.333,0.333,0.333,1","1",""
"","html-keyboard-response","311","221772","0.0-311.0","3MHW492WW1ZOA6PYQHF58IME0QYMVT","A10HW8JXM17XLD","3HUR21WDDUBEMSLDIXZW1FAIHW8YX3","","null","<img src=""img/flower3.png"" style=""width:200px; border:14px solid green;"">","null","","","","","","","","",""
"","image-keyboard-response","312","222383","0.0-312.0","3MHW492WW1ZOA6PYQHF58IME0QYMVT","A10HW8JXM17XLD","3HUR21WDDUBEMSLDIXZW1FAIHW8YX3","","608.9000000953674","img/flower3.png","74","611.0999999046326","1","1","1","1","1,0.333,0.333,0.333,1,0.333,0.333,0.333,1","1,0.333,0.333,0.333,1,0.333,0.333,0.333,1","1",""
"","html-keyboard-response","313","222692","0.0-313.0","3MHW492WW1ZOA6PYQHF58IME0QYMVT","A10HW8JXM17XLD","3HUR21WDDUBEMSLDIXZW1FAIHW8YX3","","null","<img src=""img/flower3.png"" style=""width:200px; border:14px solid green;"">","null","","","","","","","","",""
"","image-keyboard-response","314","223167","0.0-314.0","3MHW492WW1ZOA6PYQHF58IME0QYMVT","A10HW8JXM17XLD","3HUR21WDDUBEMSLDIXZW1FAIHW8YX3","","473","img/flower3.png","74","475.09999990463257","1","1","1","1","1,0.333,0.333,0.333,1,0.333,0.333,0.333,1","1,0.333,0.333,0.333,1,0.333,0.333,0.333,1","1",""
"","html-keyboard-response","315","223476","0.0-315.0","3MHW492WW1ZOA6PYQHF58IME0QYMVT","A10HW8JXM17XLD","3HUR21WDDUBEMSLDIXZW1FAIHW8YX3","","null","<img src=""img/flower3.png"" style=""width:200px; border:14px solid green;"">","null","","","","","","","","",""
"","image-keyboard-response","316","224048","0.0-316.0","3MHW492WW1ZOA6PYQHF58IME0QYMVT","A10HW8JXM17XLD","3HUR21WDDUBEMSLDIXZW1FAIHW8YX3","","569.4000000953674","img/flower1.png","76","571.5","3","1","3","1","1,0.333,0.333,0.333,1,0.333,0.333,0.333,1","1,0.333,0.333,0.333,1,0.333,0.333,0.333,1","1",""
"","html-keyboard-response","317","224355","0.0-317.0","3MHW492WW1ZOA6PYQHF58IME0QYMVT","A10HW8JXM17XLD","3HUR21WDDUBEMSLDIXZW1FAIHW8YX3","","null","<img src=""img/flower1.png"" style=""width:200px; border:14px solid green;"">","null","","","","","","","","",""
"","image-keyboard-response","318","225063","0.0-318.0","3MHW492WW1ZOA6PYQHF58IME0QYMVT","A10HW8JXM17XLD","3HUR21WDDUBEMSLDIXZW1FAIHW8YX3","","706.1999998092651","img/flower2.png","75","707.5999999046326","2","1","2","1","1,0.333,0.333,0.333,1,0.333,0.333,0.333,1","1,0.333,0.333,0.333,1,0.333,0.333,0.333,1","1",""
"","html-keyboard-response","319","225372","0.0-319.0","3MHW492WW1ZOA6PYQHF58IME0QYMVT","A10HW8JXM17XLD","3HUR21WDDUBEMSLDIXZW1FAIHW8YX3","","null","<img src=""img/flower2.png"" style=""width:200px; border:14px solid green;"">","null","","","","","","","","",""
"","image-keyboard-response","320","226455","0.0-320.0","3MHW492WW1ZOA6PYQHF58IME0QYMVT","A10HW8JXM17XLD","3HUR21WDDUBEMSLDIXZW1FAIHW8YX3","","1080.4000000953674","img/flower1.png","76","1082.0999999046326","3","1","3","1","1,0.333,0.333,0.333,1,0.333,0.333,0.333,1","1,0.333,0.333,0.333,1,0.333,0.333,0.333,1","1",""
"","html-keyboard-response","321","226764","0.0-321.0","3MHW492WW1ZOA6PYQHF58IME0QYMVT","A10HW8JXM17XLD","3HUR21WDDUBEMSLDIXZW1FAIHW8YX3","","null","<img src=""img/flower1.png"" style=""width:200px; border:14px solid green;"">","null","","","","","","","","",""
"","image-keyboard-response","322","227295","0.0-322.0","3MHW492WW1ZOA6PYQHF58IME0QYMVT","A10HW8JXM17XLD","3HUR21WDDUBEMSLDIXZW1FAIHW8YX3","","528.5","img/flower1.png","76","530.2999997138977","3","1","3","1","1,0.333,0.333,0.333,1,0.333,0.333,0.333,1","1,0.333,0.333,0.333,1,0.333,0.333,0.333,1","1",""
"","html-keyboard-response","323","227604","0.0-323.0","3MHW492WW1ZOA6PYQHF58IME0QYMVT","A10HW8JXM17XLD","3HUR21WDDUBEMSLDIXZW1FAIHW8YX3","","null","<img src=""img/flower1.png"" style=""width:200px; border:14px solid green;"">","null","","","","","","","","",""
"","image-keyboard-response","324","228335","0.0-324.0","3MHW492WW1ZOA6PYQHF58IME0QYMVT","A10HW8JXM17XLD","3HUR21WDDUBEMSLDIXZW1FAIHW8YX3","","728.4000000953674","img/flower2.png","75","730.5","2","1","2","1","1,0.333,0.333,0.333,1,0.333,0.333,0.333,1","1,0.333,0.333,0.333,1,0.333,0.333,0.333,1","1",""
"","html-keyboard-response","325","228644","0.0-325.0","3MHW492WW1ZOA6PYQHF58IME0QYMVT","A10HW8JXM17XLD","3HUR21WDDUBEMSLDIXZW1FAIHW8YX3","","null","<img src=""img/flower2.png"" style=""width:200px; border:14px solid green;"">","null","","","","","","","","",""
"","image-keyboard-response","326","229175","0.0-326.0","3MHW492WW1ZOA6PYQHF58IME0QYMVT","A10HW8JXM17XLD","3HUR21WDDUBEMSLDIXZW1FAIHW8YX3","","528.9000000953674","img/flower2.png","75","530.7999997138977","2","1","2","1","1,0.333,0.333,0.333,1,0.333,0.333,0.333,1","1,0.333,0.333,0.333,1,0.333,0.333,0.333,1","1",""
"","html-keyboard-response","327","229484","0.0-327.0","3MHW492WW1ZOA6PYQHF58IME0QYMVT","A10HW8JXM17XLD","3HUR21WDDUBEMSLDIXZW1FAIHW8YX3","","null","<img src=""img/flower2.png"" style=""width:200px; border:14px solid green;"">","null","","","","","","","","",""
"","image-keyboard-response","328","230592","0.0-328.0","3MHW492WW1ZOA6PYQHF58IME0QYMVT","A10HW8JXM17XLD","3HUR21WDDUBEMSLDIXZW1FAIHW8YX3","","1103.9000000953674","img/flower1.png","76","1106.6999998092651","3","1","3","1","1,0.333,0.333,0.333,1,0.333,0.333,0.333,1","1,0.333,0.333,0.333,1,0.333,0.333,0.333,1","1",""
"","html-keyboard-response","329","230900","0.0-329.0","3MHW492WW1ZOA6PYQHF58IME0QYMVT","A10HW8JXM17XLD","3HUR21WDDUBEMSLDIXZW1FAIHW8YX3","","null","<img src=""img/flower1.png"" style=""width:200px; border:14px solid green;"">","null","","","","","","","","",""
"","image-keyboard-response","330","231679","0.0-330.0","3MHW492WW1ZOA6PYQHF58IME0QYMVT","A10HW8JXM17XLD","3HUR21WDDUBEMSLDIXZW1FAIHW8YX3","","776.9000000953674","img/flower2.png","75","778.9000000953674","2","1","2","1","1,0.333,0.333,0.333,1,0.333,0.333,0.333,1","1,0.333,0.333,0.333,1,0.333,0.333,0.333,1","1",""
"","html-keyboard-response","331","231988","0.0-331.0","3MHW492WW1ZOA6PYQHF58IME0QYMVT","A10HW8JXM17XLD","3HUR21WDDUBEMSLDIXZW1FAIHW8YX3","","null","<img src=""img/flower2.png"" style=""width:200px; border:14px solid green;"">","null","","","","","","","","",""
"","image-keyboard-response","332","232590","0.0-332.0","3MHW492WW1ZOA6PYQHF58IME0QYMVT","A10HW8JXM17XLD","3HUR21WDDUBEMSLDIXZW1FAIHW8YX3","","600.5999999046326","img/flower2.png","75","602.2999997138977","2","1","2","1","1,0.333,0.333,0.333,1,0.333,0.333,0.333,1","1,0.333,0.333,0.333,1,0.333,0.333,0.333,1","1",""
"","html-keyboard-response","333","232900","0.0-333.0","3MHW492WW1ZOA6PYQHF58IME0QYMVT","A10HW8JXM17XLD","3HUR21WDDUBEMSLDIXZW1FAIHW8YX3","","null","<img src=""img/flower2.png"" style=""width:200px; border:14px solid green;"">","null","","","","","","","","",""
"","image-keyboard-response","334","233543","0.0-334.0","3MHW492WW1ZOA6PYQHF58IME0QYMVT","A10HW8JXM17XLD","3HUR21WDDUBEMSLDIXZW1FAIHW8YX3","","641.2999997138977","img/flower3.png","74","643.1999998092651","1","1","1","1","1,0.333,0.333,0.333,1,0.333,0.333,0.333,1","1,0.333,0.333,0.333,1,0.333,0.333,0.333,1","1",""
"","html-keyboard-response","335","233852","0.0-335.0","3MHW492WW1ZOA6PYQHF58IME0QYMVT","A10HW8JXM17XLD","3HUR21WDDUBEMSLDIXZW1FAIHW8YX3","","null","<img src=""img/flower3.png"" style=""width:200px; border:14px solid green;"">","null","","","","","","","","",""
"","image-keyboard-response","336","234591","0.0-336.0","3MHW492WW1ZOA6PYQHF58IME0QYMVT","A10HW8JXM17XLD","3HUR21WDDUBEMSLDIXZW1FAIHW8YX3","","736.8000001907349","img/flower2.png","75","738.0999999046326","2","1","2","1","1,0.333,0.333,0.333,1,0.333,0.333,0.333,1","1,0.333,0.333,0.333,1,0.333,0.333,0.333,1","1",""
"","html-keyboard-response","337","234900","0.0-337.0","3MHW492WW1ZOA6PYQHF58IME0QYMVT","A10HW8JXM17XLD","3HUR21WDDUBEMSLDIXZW1FAIHW8YX3","","null","<img src=""img/flower2.png"" style=""width:200px; border:14px solid green;"">","null","","","","","","","","",""
"","image-keyboard-response","338","235479","0.0-338.0","3MHW492WW1ZOA6PYQHF58IME0QYMVT","A10HW8JXM17XLD","3HUR21WDDUBEMSLDIXZW1FAIHW8YX3","","576.7999997138977","img/flower2.png","75","578.6999998092651","2","1","2","1","1,0.333,0.333,0.333,1,0.333,0.333,0.333,1","1,0.333,0.333,0.333,1,0.333,0.333,0.333,1","1",""
"","html-keyboard-response","339","235788","0.0-339.0","3MHW492WW1ZOA6PYQHF58IME0QYMVT","A10HW8JXM17XLD","3HUR21WDDUBEMSLDIXZW1FAIHW8YX3","","null","<img src=""img/flower2.png"" style=""width:200px; border:14px solid green;"">","null","","","","","","","","",""
"","image-keyboard-response","340","236359","0.0-340.0","3MHW492WW1ZOA6PYQHF58IME0QYMVT","A10HW8JXM17XLD","3HUR21WDDUBEMSLDIXZW1FAIHW8YX3","","568.5","img/flower1.png","76","570.5999999046326","3","1","3","1","1,0.333,0.333,0.333,1,0.333,0.333,0.333,1","1,0.333,0.333,0.333,1,0.333,0.333,0.333,1","1",""
"","html-keyboard-response","341","236668","0.0-341.0","3MHW492WW1ZOA6PYQHF58IME0QYMVT","A10HW8JXM17XLD","3HUR21WDDUBEMSLDIXZW1FAIHW8YX3","","null","<img src=""img/flower1.png"" style=""width:200px; border:14px solid green;"">","null","","","","","","","","",""
"","image-keyboard-response","342","237391","0.0-342.0","3MHW492WW1ZOA6PYQHF58IME0QYMVT","A10HW8JXM17XLD","3HUR21WDDUBEMSLDIXZW1FAIHW8YX3","","722","img/flower3.png","74","723.3000001907349","1","1","1","1","1,0.333,0.333,0.333,1,0.333,0.333,0.333,1","1,0.333,0.333,0.333,1,0.333,0.333,0.333,1","1",""
"","html-keyboard-response","343","237700","0.0-343.0","3MHW492WW1ZOA6PYQHF58IME0QYMVT","A10HW8JXM17XLD","3HUR21WDDUBEMSLDIXZW1FAIHW8YX3","","null","<img src=""img/flower3.png"" style=""width:200px; border:14px solid green;"">","null","","","","","","","","",""
"","image-keyboard-response","344","238647","0.0-344.0","3MHW492WW1ZOA6PYQHF58IME0QYMVT","A10HW8JXM17XLD","3HUR21WDDUBEMSLDIXZW1FAIHW8YX3","","944.4000000953674","img/flower1.png","76","946.6000003814697","3","1","3","1","1,0.333,0.333,0.333,1,0.333,0.333,0.333,1","1,0.333,0.333,0.333,1,0.333,0.333,0.333,1","1",""
"","html-keyboard-response","345","238956","0.0-345.0","3MHW492WW1ZOA6PYQHF58IME0QYMVT","A10HW8JXM17XLD","3HUR21WDDUBEMSLDIXZW1FAIHW8YX3","","null","<img src=""img/flower1.png"" style=""width:200px; border:14px solid green;"">","null","","","","","","","","",""
"","image-keyboard-response","346","239655","0.0-346.0","3MHW492WW1ZOA6PYQHF58IME0QYMVT","A10HW8JXM17XLD","3HUR21WDDUBEMSLDIXZW1FAIHW8YX3","","696.3000001907349","img/flower3.png","74","698.2000002861023","1","1","1","1","1,0.333,0.333,0.333,1,0.333,0.333,0.333,1","1,0.333,0.333,0.333,1,0.333,0.333,0.333,1","1",""
"","html-keyboard-response","347","239964","0.0-347.0","3MHW492WW1ZOA6PYQHF58IME0QYMVT","A10HW8JXM17XLD","3HUR21WDDUBEMSLDIXZW1FAIHW8YX3","","null","<img src=""img/flower3.png"" style=""width:200px; border:14px solid green;"">","null","","","","","","","","",""
"","image-keyboard-response","348","240767","0.0-348.0","3MHW492WW1ZOA6PYQHF58IME0QYMVT","A10HW8JXM17XLD","3HUR21WDDUBEMSLDIXZW1FAIHW8YX3","","801.2000002861023","img/flower1.png","76","803.1999998092651","3","1","3","1","1,0.333,0.333,0.333,1,0.333,0.333,0.333,1","1,0.333,0.333,0.333,1,0.333,0.333,0.333,1","1",""
"","html-keyboard-response","349","241076","0.0-349.0","3MHW492WW1ZOA6PYQHF58IME0QYMVT","A10HW8JXM17XLD","3HUR21WDDUBEMSLDIXZW1FAIHW8YX3","","null","<img src=""img/flower1.png"" style=""width:200px; border:14px solid green;"">","null","","","","","","","","",""
"","image-keyboard-response","350","241871","0.0-350.0","3MHW492WW1ZOA6PYQHF58IME0QYMVT","A10HW8JXM17XLD","3HUR21WDDUBEMSLDIXZW1FAIHW8YX3","","792.5","img/flower2.png","75","794.5","2","1","2","1","1,0.333,0.333,0.333,1,0.333,0.333,0.333,1","1,0.333,0.333,0.333,1,0.333,0.333,0.333,1","1",""
"","html-keyboard-response","351","242180","0.0-351.0","3MHW492WW1ZOA6PYQHF58IME0QYMVT","A10HW8JXM17XLD","3HUR21WDDUBEMSLDIXZW1FAIHW8YX3","","null","<img src=""img/flower2.png"" style=""width:200px; border:14px solid green;"">","null","","","","","","","","",""
"","image-keyboard-response","352","242815","0.0-352.0","3MHW492WW1ZOA6PYQHF58IME0QYMVT","A10HW8JXM17XLD","3HUR21WDDUBEMSLDIXZW1FAIHW8YX3","","632.0999999046326","img/flower2.png","75","633.9000000953674","2","1","2","1","1,0.333,0.333,0.333,1,0.333,0.333,0.333,1","1,0.333,0.333,0.333,1,0.333,0.333,0.333,1","1",""
"","html-keyboard-response","353","243124","0.0-353.0","3MHW492WW1ZOA6PYQHF58IME0QYMVT","A10HW8JXM17XLD","3HUR21WDDUBEMSLDIXZW1FAIHW8YX3","","null","<img src=""img/flower2.png"" style=""width:200px; border:14px solid green;"">","null","","","","","","","","",""
"","image-keyboard-response","354","243935","0.0-354.0","3MHW492WW1ZOA6PYQHF58IME0QYMVT","A10HW8JXM17XLD","3HUR21WDDUBEMSLDIXZW1FAIHW8YX3","","808.3000001907349","img/flower1.png","76","810.4000000953674","3","1","3","1","1,0.333,0.333,0.333,1,0.333,0.333,0.333,1","1,0.333,0.333,0.333,1,0.333,0.333,0.333,1","1",""
"","html-keyboard-response","355","244244","0.0-355.0","3MHW492WW1ZOA6PYQHF58IME0QYMVT","A10HW8JXM17XLD","3HUR21WDDUBEMSLDIXZW1FAIHW8YX3","","null","<img src=""img/flower1.png"" style=""width:200px; border:14px solid green;"">","null","","","","","","","","",""
"","image-keyboard-response","356","244728","0.0-356.0","3MHW492WW1ZOA6PYQHF58IME0QYMVT","A10HW8JXM17XLD","3HUR21WDDUBEMSLDIXZW1FAIHW8YX3","","481.2000002861023","img/flower1.png","76","483.19999980926514","3","1","3","1","1,0.333,0.333,0.333,1,0.333,0.333,0.333,1","1,0.333,0.333,0.333,1,0.333,0.333,0.333,1","1",""
"","html-keyboard-response","357","245037","0.0-357.0","3MHW492WW1ZOA6PYQHF58IME0QYMVT","A10HW8JXM17XLD","3HUR21WDDUBEMSLDIXZW1FAIHW8YX3","","null","<img src=""img/flower1.png"" style=""width:200px; border:14px solid green;"">","null","","","","","","","","",""
"","image-keyboard-response","358","245688","0.0-358.0","3MHW492WW1ZOA6PYQHF58IME0QYMVT","A10HW8JXM17XLD","3HUR21WDDUBEMSLDIXZW1FAIHW8YX3","","648.5","img/flower1.png","76","650.7000002861023","3","1","3","1","1,0.333,0.333,0.333,1,0.333,0.333,0.333,1","1,0.333,0.333,0.333,1,0.333,0.333,0.333,1","1",""
"","html-keyboard-response","359","245997","0.0-359.0","3MHW492WW1ZOA6PYQHF58IME0QYMVT","A10HW8JXM17XLD","3HUR21WDDUBEMSLDIXZW1FAIHW8YX3","","null","<img src=""img/flower1.png"" style=""width:200px; border:14px solid green;"">","null","","","","","","","","",""
"","image-keyboard-response","360","246688","0.0-360.0","3MHW492WW1ZOA6PYQHF58IME0QYMVT","A10HW8JXM17XLD","3HUR21WDDUBEMSLDIXZW1FAIHW8YX3","","688.7000002861023","img/flower1.png","76","690.5999999046326","3","1","3","1","1,0.333,0.333,0.333,1,0.333,0.333,0.333,1","1,0.333,0.333,0.333,1,0.333,0.333,0.333,1","1",""
"","html-keyboard-response","361","246996","0.0-361.0","3MHW492WW1ZOA6PYQHF58IME0QYMVT","A10HW8JXM17XLD","3HUR21WDDUBEMSLDIXZW1FAIHW8YX3","","null","<img src=""img/flower1.png"" style=""width:200px; border:14px solid green;"">","null","","","","","","","","",""
"","html-keyboard-response","362","254319","0.0-362.0","3MHW492WW1ZOA6PYQHF58IME0QYMVT","A10HW8JXM17XLD","3HUR21WDDUBEMSLDIXZW1FAIHW8YX3","","","","","","","","","","","","",""
