"rt","url","trial_type","trial_index","time_elapsed","internal_node_id","assignmentID","mturkID","hitID","success","view_history","stimulus","key_press","reactionTime","chosenAction","reward","responses"
"28603.100000023842","consent.html","external-html","0","28704","0.0-0.0","39RP059MEIF91SRSL0O576S7TICBM6","A10JXOU89D5RXR","39WSF6KUV27TMEQUH506BZR9N6KEO1","","","","","","","",""
"","","fullscreen","1","32613","0.0-1.0","39RP059MEIF91SRSL0O576S7TICBM6","A10JXOU89D5RXR","39WSF6KUV27TMEQUH506BZR9N6KEO1","true","","","","","","",""
"71405.5","","instructions","2","104022","0.0-2.0","39RP059MEIF91SRSL0O576S7TICBM6","A10JXOU89D5RXR","39WSF6KUV27TMEQUH506BZR9N6KEO1","","[{""page_index"":0,""viewing_time"":8350.700000047684},{""page_index"":1,""viewing_time"":12101.699999988079},{""page_index"":2,""viewing_time"":7877.599999964237},{""page_index"":3,""viewing_time"":11501.400000035763},{""page_index"":4,""viewing_time"":6783.099999964237},{""page_index"":5,""viewing_time"":16628.100000023842},{""page_index"":6,""viewing_time"":8161.800000011921}]","","","","","",""
"37396","","instructions","3","141422","0.0-3.0","39RP059MEIF91SRSL0O576S7TICBM6","A10JXOU89D5RXR","39WSF6KUV27TMEQUH506BZR9N6KEO1","","[{""page_index"":0,""viewing_time"":37395.69999998808}]","","","","","",""
"1582.5","","image-keyboard-response","4","143006","0.0-4.0","39RP059MEIF91SRSL0O576S7TICBM6","A10JXOU89D5RXR","39WSF6KUV27TMEQUH506BZR9N6KEO1","","","img/flower6.png","76","1583.800000011921","76","1",""
"null","","html-keyboard-response","5","143322","0.0-5.0","39RP059MEIF91SRSL0O576S7TICBM6","A10JXOU89D5RXR","39WSF6KUV27TMEQUH506BZR9N6KEO1","","","<img src=""img/flower6.png"" style=""width:200px; border:14px solid green;"">","null","","","",""
"1054.6000000238419","","image-keyboard-response","6","144378","0.0-6.0","39RP059MEIF91SRSL0O576S7TICBM6","A10JXOU89D5RXR","39WSF6KUV27TMEQUH506BZR9N6KEO1","","","img/flower5.png","75","1055.4000000357628","75","1",""
"null","","html-keyboard-response","7","144682","0.0-7.0","39RP059MEIF91SRSL0O576S7TICBM6","A10JXOU89D5RXR","39WSF6KUV27TMEQUH506BZR9N6KEO1","","","<img src=""img/flower5.png"" style=""width:200px; border:14px solid green;"">","null","","","",""
"758.8000000119209","","image-keyboard-response","8","145442","0.0-8.0","39RP059MEIF91SRSL0O576S7TICBM6","A10JXOU89D5RXR","39WSF6KUV27TMEQUH506BZR9N6KEO1","","","img/flower6.png","76","759.7000000476837","76","1",""
"null","","html-keyboard-response","9","145746","0.0-9.0","39RP059MEIF91SRSL0O576S7TICBM6","A10JXOU89D5RXR","39WSF6KUV27TMEQUH506BZR9N6KEO1","","","<img src=""img/flower6.png"" style=""width:200px; border:14px solid green;"">","null","","","",""
"783.1999999880791","","image-keyboard-response","10","146530","0.0-10.0","39RP059MEIF91SRSL0O576S7TICBM6","A10JXOU89D5RXR","39WSF6KUV27TMEQUH506BZR9N6KEO1","","","img/flower5.png","75","784","75","1",""
"null","","html-keyboard-response","11","146843","0.0-11.0","39RP059MEIF91SRSL0O576S7TICBM6","A10JXOU89D5RXR","39WSF6KUV27TMEQUH506BZR9N6KEO1","","","<img src=""img/flower5.png"" style=""width:200px; border:14px solid green;"">","null","","","",""
"805.8999999761581","","image-keyboard-response","12","147650","0.0-12.0","39RP059MEIF91SRSL0O576S7TICBM6","A10JXOU89D5RXR","39WSF6KUV27TMEQUH506BZR9N6KEO1","","","img/flower4.png","74","806.8999999761581","74","1",""
"null","","html-keyboard-response","13","147961","0.0-13.0","39RP059MEIF91SRSL0O576S7TICBM6","A10JXOU89D5RXR","39WSF6KUV27TMEQUH506BZR9N6KEO1","","","<img src=""img/flower4.png"" style=""width:200px; border:14px solid green;"">","null","","","",""
"695.8000000119209","","image-keyboard-response","14","148658","0.0-14.0","39RP059MEIF91SRSL0O576S7TICBM6","A10JXOU89D5RXR","39WSF6KUV27TMEQUH506BZR9N6KEO1","","","img/flower4.png","74","696.8000000119209","74","1",""
"null","","html-keyboard-response","15","148964","0.0-15.0","39RP059MEIF91SRSL0O576S7TICBM6","A10JXOU89D5RXR","39WSF6KUV27TMEQUH506BZR9N6KEO1","","","<img src=""img/flower4.png"" style=""width:200px; border:14px solid green;"">","null","","","",""
"860.5","","image-keyboard-response","16","149825","0.0-16.0","39RP059MEIF91SRSL0O576S7TICBM6","A10JXOU89D5RXR","39WSF6KUV27TMEQUH506BZR9N6KEO1","","","img/flower6.png","76","861.3999999761581","76","1",""
"null","","html-keyboard-response","17","150142","0.0-17.0","39RP059MEIF91SRSL0O576S7TICBM6","A10JXOU89D5RXR","39WSF6KUV27TMEQUH506BZR9N6KEO1","","","<img src=""img/flower6.png"" style=""width:200px; border:14px solid green;"">","null","","","",""
"955.5","","image-keyboard-response","18","151098","0.0-18.0","39RP059MEIF91SRSL0O576S7TICBM6","A10JXOU89D5RXR","39WSF6KUV27TMEQUH506BZR9N6KEO1","","","img/flower4.png","74","956.5","74","0",""
"null","","html-keyboard-response","19","151400","0.0-19.0","39RP059MEIF91SRSL0O576S7TICBM6","A10JXOU89D5RXR","39WSF6KUV27TMEQUH506BZR9N6KEO1","","","<img src=""img/flower4.png"" style=""width:200px;border:14px solid red;"">","null","","","",""
"784.5999999642372","","image-keyboard-response","20","152186","0.0-20.0","39RP059MEIF91SRSL0O576S7TICBM6","A10JXOU89D5RXR","39WSF6KUV27TMEQUH506BZR9N6KEO1","","","img/flower4.png","74","785.6000000238419","74","1",""
"null","","html-keyboard-response","21","152493","0.0-21.0","39RP059MEIF91SRSL0O576S7TICBM6","A10JXOU89D5RXR","39WSF6KUV27TMEQUH506BZR9N6KEO1","","","<img src=""img/flower4.png"" style=""width:200px; border:14px solid green;"">","null","","","",""
"740.1999999880791","","image-keyboard-response","22","153234","0.0-22.0","39RP059MEIF91SRSL0O576S7TICBM6","A10JXOU89D5RXR","39WSF6KUV27TMEQUH506BZR9N6KEO1","","","img/flower4.png","74","741.2999999523163","74","1",""
"null","","html-keyboard-response","23","153536","0.0-23.0","39RP059MEIF91SRSL0O576S7TICBM6","A10JXOU89D5RXR","39WSF6KUV27TMEQUH506BZR9N6KEO1","","","<img src=""img/flower4.png"" style=""width:200px; border:14px solid green;"">","null","","","",""
"776.8000000119209","","image-keyboard-response","24","154314","0.0-24.0","39RP059MEIF91SRSL0O576S7TICBM6","A10JXOU89D5RXR","39WSF6KUV27TMEQUH506BZR9N6KEO1","","","img/flower6.png","76","777.5999999642372","76","0",""
"null","","html-keyboard-response","25","154616","0.0-25.0","39RP059MEIF91SRSL0O576S7TICBM6","A10JXOU89D5RXR","39WSF6KUV27TMEQUH506BZR9N6KEO1","","","<img src=""img/flower6.png"" style=""width:200px;border:14px solid red;"">","null","","","",""
"815.7999999523163","","image-keyboard-response","26","155433","0.0-26.0","39RP059MEIF91SRSL0O576S7TICBM6","A10JXOU89D5RXR","39WSF6KUV27TMEQUH506BZR9N6KEO1","","","img/flower4.png","74","816.8999999761581","74","0",""
"null","","html-keyboard-response","27","155747","0.0-27.0","39RP059MEIF91SRSL0O576S7TICBM6","A10JXOU89D5RXR","39WSF6KUV27TMEQUH506BZR9N6KEO1","","","<img src=""img/flower4.png"" style=""width:200px;border:14px solid red;"">","null","","","",""
"773.8000000119209","","image-keyboard-response","28","156522","0.0-28.0","39RP059MEIF91SRSL0O576S7TICBM6","A10JXOU89D5RXR","39WSF6KUV27TMEQUH506BZR9N6KEO1","","","img/flower4.png","74","774.3999999761581","74","1",""
"null","","html-keyboard-response","29","156826","0.0-29.0","39RP059MEIF91SRSL0O576S7TICBM6","A10JXOU89D5RXR","39WSF6KUV27TMEQUH506BZR9N6KEO1","","","<img src=""img/flower4.png"" style=""width:200px; border:14px solid green;"">","null","","","",""
"1006.9000000357628","","image-keyboard-response","30","157834","0.0-30.0","39RP059MEIF91SRSL0O576S7TICBM6","A10JXOU89D5RXR","39WSF6KUV27TMEQUH506BZR9N6KEO1","","","img/flower6.png","76","1007.7000000476837","76","1",""
"null","","html-keyboard-response","31","158136","0.0-31.0","39RP059MEIF91SRSL0O576S7TICBM6","A10JXOU89D5RXR","39WSF6KUV27TMEQUH506BZR9N6KEO1","","","<img src=""img/flower6.png"" style=""width:200px; border:14px solid green;"">","null","","","",""
"809.1000000238419","","image-keyboard-response","32","158946","0.0-32.0","39RP059MEIF91SRSL0O576S7TICBM6","A10JXOU89D5RXR","39WSF6KUV27TMEQUH506BZR9N6KEO1","","","img/flower6.png","76","810.1000000238419","76","1",""
"null","","html-keyboard-response","33","159259","0.0-33.0","39RP059MEIF91SRSL0O576S7TICBM6","A10JXOU89D5RXR","39WSF6KUV27TMEQUH506BZR9N6KEO1","","","<img src=""img/flower6.png"" style=""width:200px; border:14px solid green;"">","null","","","",""
"926.2999999523163","","image-keyboard-response","34","160187","0.0-34.0","39RP059MEIF91SRSL0O576S7TICBM6","A10JXOU89D5RXR","39WSF6KUV27TMEQUH506BZR9N6KEO1","","","img/flower5.png","75","927.3999999761581","75","1",""
"null","","html-keyboard-response","35","160497","0.0-35.0","39RP059MEIF91SRSL0O576S7TICBM6","A10JXOU89D5RXR","39WSF6KUV27TMEQUH506BZR9N6KEO1","","","<img src=""img/flower5.png"" style=""width:200px; border:14px solid green;"">","null","","","",""
"827.5","","image-keyboard-response","36","161325","0.0-36.0","39RP059MEIF91SRSL0O576S7TICBM6","A10JXOU89D5RXR","39WSF6KUV27TMEQUH506BZR9N6KEO1","","","img/flower6.png","76","828.4000000357628","76","1",""
"null","","html-keyboard-response","37","161636","0.0-37.0","39RP059MEIF91SRSL0O576S7TICBM6","A10JXOU89D5RXR","39WSF6KUV27TMEQUH506BZR9N6KEO1","","","<img src=""img/flower6.png"" style=""width:200px; border:14px solid green;"">","null","","","",""
"868.0999999642372","","image-keyboard-response","38","162506","0.0-38.0","39RP059MEIF91SRSL0O576S7TICBM6","A10JXOU89D5RXR","39WSF6KUV27TMEQUH506BZR9N6KEO1","","","img/flower5.png","75","869.1999999880791","75","1",""
"null","","html-keyboard-response","39","162814","0.0-39.0","39RP059MEIF91SRSL0O576S7TICBM6","A10JXOU89D5RXR","39WSF6KUV27TMEQUH506BZR9N6KEO1","","","<img src=""img/flower5.png"" style=""width:200px; border:14px solid green;"">","null","","","",""
"770.6999999880791","","image-keyboard-response","40","163586","0.0-40.0","39RP059MEIF91SRSL0O576S7TICBM6","A10JXOU89D5RXR","39WSF6KUV27TMEQUH506BZR9N6KEO1","","","img/flower4.png","74","771.6999999880791","74","1",""
"null","","html-keyboard-response","41","163890","0.0-41.0","39RP059MEIF91SRSL0O576S7TICBM6","A10JXOU89D5RXR","39WSF6KUV27TMEQUH506BZR9N6KEO1","","","<img src=""img/flower4.png"" style=""width:200px; border:14px solid green;"">","null","","","",""
"909.6999999880791","","image-keyboard-response","42","164801","0.0-42.0","39RP059MEIF91SRSL0O576S7TICBM6","A10JXOU89D5RXR","39WSF6KUV27TMEQUH506BZR9N6KEO1","","","img/flower5.png","76","910.6000000238419","76","1",""
"null","","html-keyboard-response","43","165118","0.0-43.0","39RP059MEIF91SRSL0O576S7TICBM6","A10JXOU89D5RXR","39WSF6KUV27TMEQUH506BZR9N6KEO1","","","<img src=""img/flower5.png"" style=""width:200px; border:14px solid green;"">","null","","","",""
"882.3000000119209","","image-keyboard-response","44","166002","0.0-44.0","39RP059MEIF91SRSL0O576S7TICBM6","A10JXOU89D5RXR","39WSF6KUV27TMEQUH506BZR9N6KEO1","","","img/flower4.png","74","883.5","74","1",""
"null","","html-keyboard-response","45","166307","0.0-45.0","39RP059MEIF91SRSL0O576S7TICBM6","A10JXOU89D5RXR","39WSF6KUV27TMEQUH506BZR9N6KEO1","","","<img src=""img/flower4.png"" style=""width:200px; border:14px solid green;"">","null","","","",""
"1149.3999999761581","","image-keyboard-response","46","167458","0.0-46.0","39RP059MEIF91SRSL0O576S7TICBM6","A10JXOU89D5RXR","39WSF6KUV27TMEQUH506BZR9N6KEO1","","","img/flower5.png","75","1150.300000011921","75","1",""
"null","","html-keyboard-response","47","167760","0.0-47.0","39RP059MEIF91SRSL0O576S7TICBM6","A10JXOU89D5RXR","39WSF6KUV27TMEQUH506BZR9N6KEO1","","","<img src=""img/flower5.png"" style=""width:200px; border:14px solid green;"">","null","","","",""
"688.3999999761581","","image-keyboard-response","48","168450","0.0-48.0","39RP059MEIF91SRSL0O576S7TICBM6","A10JXOU89D5RXR","39WSF6KUV27TMEQUH506BZR9N6KEO1","","","img/flower6.png","76","689.1999999880791","76","1",""
"null","","html-keyboard-response","49","168753","0.0-49.0","39RP059MEIF91SRSL0O576S7TICBM6","A10JXOU89D5RXR","39WSF6KUV27TMEQUH506BZR9N6KEO1","","","<img src=""img/flower6.png"" style=""width:200px; border:14px solid green;"">","null","","","",""
"935.5","","image-keyboard-response","50","169690","0.0-50.0","39RP059MEIF91SRSL0O576S7TICBM6","A10JXOU89D5RXR","39WSF6KUV27TMEQUH506BZR9N6KEO1","","","img/flower4.png","74","936.4000000357628","74","1",""
"null","","html-keyboard-response","51","170006","0.0-51.0","39RP059MEIF91SRSL0O576S7TICBM6","A10JXOU89D5RXR","39WSF6KUV27TMEQUH506BZR9N6KEO1","","","<img src=""img/flower4.png"" style=""width:200px; border:14px solid green;"">","null","","","",""
"778.9000000357628","","image-keyboard-response","52","170786","0.0-52.0","39RP059MEIF91SRSL0O576S7TICBM6","A10JXOU89D5RXR","39WSF6KUV27TMEQUH506BZR9N6KEO1","","","img/flower5.png","75","779.8000000119209","75","1",""
"null","","html-keyboard-response","53","171090","0.0-53.0","39RP059MEIF91SRSL0O576S7TICBM6","A10JXOU89D5RXR","39WSF6KUV27TMEQUH506BZR9N6KEO1","","","<img src=""img/flower5.png"" style=""width:200px; border:14px solid green;"">","null","","","",""
"535.1000000238419","","image-keyboard-response","54","171626","0.0-54.0","39RP059MEIF91SRSL0O576S7TICBM6","A10JXOU89D5RXR","39WSF6KUV27TMEQUH506BZR9N6KEO1","","","img/flower5.png","75","536.1999999880791","75","1",""
"null","","html-keyboard-response","55","171937","0.0-55.0","39RP059MEIF91SRSL0O576S7TICBM6","A10JXOU89D5RXR","39WSF6KUV27TMEQUH506BZR9N6KEO1","","","<img src=""img/flower5.png"" style=""width:200px; border:14px solid green;"">","null","","","",""
"680.3999999761581","","image-keyboard-response","56","172618","0.0-56.0","39RP059MEIF91SRSL0O576S7TICBM6","A10JXOU89D5RXR","39WSF6KUV27TMEQUH506BZR9N6KEO1","","","img/flower6.png","76","681","76","1",""
"null","","html-keyboard-response","57","172920","0.0-57.0","39RP059MEIF91SRSL0O576S7TICBM6","A10JXOU89D5RXR","39WSF6KUV27TMEQUH506BZR9N6KEO1","","","<img src=""img/flower6.png"" style=""width:200px; border:14px solid green;"">","null","","","",""
"913.2000000476837","","image-keyboard-response","58","173837","0.0-58.0","39RP059MEIF91SRSL0O576S7TICBM6","A10JXOU89D5RXR","39WSF6KUV27TMEQUH506BZR9N6KEO1","","","img/flower5.png","75","914.2000000476837","75","1",""
"null","","html-keyboard-response","59","174139","0.0-59.0","39RP059MEIF91SRSL0O576S7TICBM6","A10JXOU89D5RXR","39WSF6KUV27TMEQUH506BZR9N6KEO1","","","<img src=""img/flower5.png"" style=""width:200px; border:14px solid green;"">","null","","","",""
"912.3000000119209","","image-keyboard-response","60","175053","0.0-60.0","39RP059MEIF91SRSL0O576S7TICBM6","A10JXOU89D5RXR","39WSF6KUV27TMEQUH506BZR9N6KEO1","","","img/flower5.png","75","913.5","75","1",""
"null","","html-keyboard-response","61","175357","0.0-61.0","39RP059MEIF91SRSL0O576S7TICBM6","A10JXOU89D5RXR","39WSF6KUV27TMEQUH506BZR9N6KEO1","","","<img src=""img/flower5.png"" style=""width:200px; border:14px solid green;"">","null","","","",""
"662.6000000238419","","image-keyboard-response","62","176021","0.0-62.0","39RP059MEIF91SRSL0O576S7TICBM6","A10JXOU89D5RXR","39WSF6KUV27TMEQUH506BZR9N6KEO1","","","img/flower6.png","76","663.6000000238419","76","1",""
"null","","html-keyboard-response","63","176338","0.0-63.0","39RP059MEIF91SRSL0O576S7TICBM6","A10JXOU89D5RXR","39WSF6KUV27TMEQUH506BZR9N6KEO1","","","<img src=""img/flower6.png"" style=""width:200px; border:14px solid green;"">","null","","","",""
"28764.400000035763","","instructions","64","205103","0.0-64.0","39RP059MEIF91SRSL0O576S7TICBM6","A10JXOU89D5RXR","39WSF6KUV27TMEQUH506BZR9N6KEO1","","[{""page_index"":0,""viewing_time"":7837.900000035763},{""page_index"":1,""viewing_time"":20926.19999998808}]","","","","","",""
"2260.5","","image-keyboard-response","65","207365","0.0-65.0","39RP059MEIF91SRSL0O576S7TICBM6","A10JXOU89D5RXR","39WSF6KUV27TMEQUH506BZR9N6KEO1","","","img/flower4.png","74","2261.399999976158","74","0",""
"null","","html-keyboard-response","66","207679","0.0-66.0","39RP059MEIF91SRSL0O576S7TICBM6","A10JXOU89D5RXR","39WSF6KUV27TMEQUH506BZR9N6KEO1","","","<img src=""img/flower4.png"" style=""width:200px;border:14px solid red;"">","null","","","",""
"900.9000000357628","","image-keyboard-response","67","208581","0.0-67.0","39RP059MEIF91SRSL0O576S7TICBM6","A10JXOU89D5RXR","39WSF6KUV27TMEQUH506BZR9N6KEO1","","","img/flower4.png","75","901.5999999642372","75","1",""
"null","","html-keyboard-response","68","208894","0.0-68.0","39RP059MEIF91SRSL0O576S7TICBM6","A10JXOU89D5RXR","39WSF6KUV27TMEQUH506BZR9N6KEO1","","","<img src=""img/flower4.png"" style=""width:200px; border:14px solid green;"">","null","","","",""
"1542.5999999642372","","image-keyboard-response","69","210437","0.0-69.0","39RP059MEIF91SRSL0O576S7TICBM6","A10JXOU89D5RXR","39WSF6KUV27TMEQUH506BZR9N6KEO1","","","img/flower5.png","76","1543.4000000357628","76","0",""
"null","","html-keyboard-response","70","210749","0.0-70.0","39RP059MEIF91SRSL0O576S7TICBM6","A10JXOU89D5RXR","39WSF6KUV27TMEQUH506BZR9N6KEO1","","","<img src=""img/flower5.png"" style=""width:200px;border:14px solid red;"">","null","","","",""
"798.6000000238419","","image-keyboard-response","71","211548","0.0-71.0","39RP059MEIF91SRSL0O576S7TICBM6","A10JXOU89D5RXR","39WSF6KUV27TMEQUH506BZR9N6KEO1","","","img/flower5.png","75","799.2999999523163","75","0",""
"null","","html-keyboard-response","72","211860","0.0-72.0","39RP059MEIF91SRSL0O576S7TICBM6","A10JXOU89D5RXR","39WSF6KUV27TMEQUH506BZR9N6KEO1","","","<img src=""img/flower5.png"" style=""width:200px;border:14px solid red;"">","null","","","",""
"782.8000000119209","","image-keyboard-response","73","212644","0.0-73.0","39RP059MEIF91SRSL0O576S7TICBM6","A10JXOU89D5RXR","39WSF6KUV27TMEQUH506BZR9N6KEO1","","","img/flower6.png","76","783.6000000238419","76","1",""
"null","","html-keyboard-response","74","212957","0.0-74.0","39RP059MEIF91SRSL0O576S7TICBM6","A10JXOU89D5RXR","39WSF6KUV27TMEQUH506BZR9N6KEO1","","","<img src=""img/flower6.png"" style=""width:200px; border:14px solid green;"">","null","","","",""
"1423.5","","image-keyboard-response","75","214381","0.0-75.0","39RP059MEIF91SRSL0O576S7TICBM6","A10JXOU89D5RXR","39WSF6KUV27TMEQUH506BZR9N6KEO1","","","img/flower6.png","76","1424.3999999761581","76","1",""
"null","","html-keyboard-response","76","214689","0.0-76.0","39RP059MEIF91SRSL0O576S7TICBM6","A10JXOU89D5RXR","39WSF6KUV27TMEQUH506BZR9N6KEO1","","","<img src=""img/flower6.png"" style=""width:200px; border:14px solid green;"">","null","","","",""
"843.5","","image-keyboard-response","77","215533","0.0-77.0","39RP059MEIF91SRSL0O576S7TICBM6","A10JXOU89D5RXR","39WSF6KUV27TMEQUH506BZR9N6KEO1","","","img/flower5.png","75","844.1999999880791","75","0",""
"null","","html-keyboard-response","78","215842","0.0-78.0","39RP059MEIF91SRSL0O576S7TICBM6","A10JXOU89D5RXR","39WSF6KUV27TMEQUH506BZR9N6KEO1","","","<img src=""img/flower5.png"" style=""width:200px;border:14px solid red;"">","null","","","",""
"1079.6000000238419","","image-keyboard-response","79","216925","0.0-79.0","39RP059MEIF91SRSL0O576S7TICBM6","A10JXOU89D5RXR","39WSF6KUV27TMEQUH506BZR9N6KEO1","","","img/flower5.png","75","1080.7000000476837","75","0",""
"null","","html-keyboard-response","80","217230","0.0-80.0","39RP059MEIF91SRSL0O576S7TICBM6","A10JXOU89D5RXR","39WSF6KUV27TMEQUH506BZR9N6KEO1","","","<img src=""img/flower5.png"" style=""width:200px;border:14px solid red;"">","null","","","",""
"694.7000000476837","","image-keyboard-response","81","217925","0.0-81.0","39RP059MEIF91SRSL0O576S7TICBM6","A10JXOU89D5RXR","39WSF6KUV27TMEQUH506BZR9N6KEO1","","","img/flower6.png","76","695.3000000119209","76","1",""
"null","","html-keyboard-response","82","218227","0.0-82.0","39RP059MEIF91SRSL0O576S7TICBM6","A10JXOU89D5RXR","39WSF6KUV27TMEQUH506BZR9N6KEO1","","","<img src=""img/flower6.png"" style=""width:200px; border:14px solid green;"">","null","","","",""
"777.3999999761581","","image-keyboard-response","83","219006","0.0-83.0","39RP059MEIF91SRSL0O576S7TICBM6","A10JXOU89D5RXR","39WSF6KUV27TMEQUH506BZR9N6KEO1","","","img/flower4.png","74","778.3000000119209","74","1",""
"null","","html-keyboard-response","84","219309","0.0-84.0","39RP059MEIF91SRSL0O576S7TICBM6","A10JXOU89D5RXR","39WSF6KUV27TMEQUH506BZR9N6KEO1","","","<img src=""img/flower4.png"" style=""width:200px; border:14px solid green;"">","null","","","",""
"696","","image-keyboard-response","85","220006","0.0-85.0","39RP059MEIF91SRSL0O576S7TICBM6","A10JXOU89D5RXR","39WSF6KUV27TMEQUH506BZR9N6KEO1","","","img/flower5.png","75","696.8999999761581","75","1",""
"null","","html-keyboard-response","86","220314","0.0-86.0","39RP059MEIF91SRSL0O576S7TICBM6","A10JXOU89D5RXR","39WSF6KUV27TMEQUH506BZR9N6KEO1","","","<img src=""img/flower5.png"" style=""width:200px; border:14px solid green;"">","null","","","",""
"721.8999999761581","","image-keyboard-response","87","221037","0.0-87.0","39RP059MEIF91SRSL0O576S7TICBM6","A10JXOU89D5RXR","39WSF6KUV27TMEQUH506BZR9N6KEO1","","","img/flower6.png","76","722.8999999761581","76","0",""
"null","","html-keyboard-response","88","221341","0.0-88.0","39RP059MEIF91SRSL0O576S7TICBM6","A10JXOU89D5RXR","39WSF6KUV27TMEQUH506BZR9N6KEO1","","","<img src=""img/flower6.png"" style=""width:200px;border:14px solid red;"">","null","","","",""
"847.5","","image-keyboard-response","89","222190","0.0-89.0","39RP059MEIF91SRSL0O576S7TICBM6","A10JXOU89D5RXR","39WSF6KUV27TMEQUH506BZR9N6KEO1","","","img/flower5.png","75","848.1999999880791","75","1",""
"null","","html-keyboard-response","90","222502","0.0-90.0","39RP059MEIF91SRSL0O576S7TICBM6","A10JXOU89D5RXR","39WSF6KUV27TMEQUH506BZR9N6KEO1","","","<img src=""img/flower5.png"" style=""width:200px; border:14px solid green;"">","null","","","",""
"654","","image-keyboard-response","91","223157","0.0-91.0","39RP059MEIF91SRSL0O576S7TICBM6","A10JXOU89D5RXR","39WSF6KUV27TMEQUH506BZR9N6KEO1","","","img/flower6.png","76","654.8999999761581","76","1",""
"null","","html-keyboard-response","92","223469","0.0-92.0","39RP059MEIF91SRSL0O576S7TICBM6","A10JXOU89D5RXR","39WSF6KUV27TMEQUH506BZR9N6KEO1","","","<img src=""img/flower6.png"" style=""width:200px; border:14px solid green;"">","null","","","",""
"542.9000000357628","","image-keyboard-response","93","224013","0.0-93.0","39RP059MEIF91SRSL0O576S7TICBM6","A10JXOU89D5RXR","39WSF6KUV27TMEQUH506BZR9N6KEO1","","","img/flower4.png","74","543.6999999880791","74","1",""
"null","","html-keyboard-response","94","224316","0.0-94.0","39RP059MEIF91SRSL0O576S7TICBM6","A10JXOU89D5RXR","39WSF6KUV27TMEQUH506BZR9N6KEO1","","","<img src=""img/flower4.png"" style=""width:200px; border:14px solid green;"">","null","","","",""
"623.2999999523163","","image-keyboard-response","95","224940","0.0-95.0","39RP059MEIF91SRSL0O576S7TICBM6","A10JXOU89D5RXR","39WSF6KUV27TMEQUH506BZR9N6KEO1","","","img/flower5.png","75","624.1000000238419","75","1",""
"null","","html-keyboard-response","96","225253","0.0-96.0","39RP059MEIF91SRSL0O576S7TICBM6","A10JXOU89D5RXR","39WSF6KUV27TMEQUH506BZR9N6KEO1","","","<img src=""img/flower5.png"" style=""width:200px; border:14px solid green;"">","null","","","",""
"621.8999999761581","","image-keyboard-response","97","225877","0.0-97.0","39RP059MEIF91SRSL0O576S7TICBM6","A10JXOU89D5RXR","39WSF6KUV27TMEQUH506BZR9N6KEO1","","","img/flower6.png","76","622.9000000357628","76","1",""
"null","","html-keyboard-response","98","226189","0.0-98.0","39RP059MEIF91SRSL0O576S7TICBM6","A10JXOU89D5RXR","39WSF6KUV27TMEQUH506BZR9N6KEO1","","","<img src=""img/flower6.png"" style=""width:200px; border:14px solid green;"">","null","","","",""
"935.3000000119209","","image-keyboard-response","99","227125","0.0-99.0","39RP059MEIF91SRSL0O576S7TICBM6","A10JXOU89D5RXR","39WSF6KUV27TMEQUH506BZR9N6KEO1","","","img/flower5.png","75","935.9000000357628","75","1",""
"null","","html-keyboard-response","100","227441","0.0-100.0","39RP059MEIF91SRSL0O576S7TICBM6","A10JXOU89D5RXR","39WSF6KUV27TMEQUH506BZR9N6KEO1","","","<img src=""img/flower5.png"" style=""width:200px; border:14px solid green;"">","null","","","",""
"491.19999998807907","","image-keyboard-response","101","227933","0.0-101.0","39RP059MEIF91SRSL0O576S7TICBM6","A10JXOU89D5RXR","39WSF6KUV27TMEQUH506BZR9N6KEO1","","","img/flower5.png","75","492.0999999642372","75","0",""
"null","","html-keyboard-response","102","228236","0.0-102.0","39RP059MEIF91SRSL0O576S7TICBM6","A10JXOU89D5RXR","39WSF6KUV27TMEQUH506BZR9N6KEO1","","","<img src=""img/flower5.png"" style=""width:200px;border:14px solid red;"">","null","","","",""
"624.5","","image-keyboard-response","103","228862","0.0-103.0","39RP059MEIF91SRSL0O576S7TICBM6","A10JXOU89D5RXR","39WSF6KUV27TMEQUH506BZR9N6KEO1","","","img/flower6.png","76","625.3000000119209","76","1",""
"null","","html-keyboard-response","104","229178","0.0-104.0","39RP059MEIF91SRSL0O576S7TICBM6","A10JXOU89D5RXR","39WSF6KUV27TMEQUH506BZR9N6KEO1","","","<img src=""img/flower6.png"" style=""width:200px; border:14px solid green;"">","null","","","",""
"561.6000000238419","","image-keyboard-response","105","229741","0.0-105.0","39RP059MEIF91SRSL0O576S7TICBM6","A10JXOU89D5RXR","39WSF6KUV27TMEQUH506BZR9N6KEO1","","","img/flower6.png","76","562.5","76","1",""
"null","","html-keyboard-response","106","230053","0.0-106.0","39RP059MEIF91SRSL0O576S7TICBM6","A10JXOU89D5RXR","39WSF6KUV27TMEQUH506BZR9N6KEO1","","","<img src=""img/flower6.png"" style=""width:200px; border:14px solid green;"">","null","","","",""
"647","","image-keyboard-response","107","230702","0.0-107.0","39RP059MEIF91SRSL0O576S7TICBM6","A10JXOU89D5RXR","39WSF6KUV27TMEQUH506BZR9N6KEO1","","","img/flower5.png","75","648.1000000238419","75","0",""
"null","","html-keyboard-response","108","231010","0.0-108.0","39RP059MEIF91SRSL0O576S7TICBM6","A10JXOU89D5RXR","39WSF6KUV27TMEQUH506BZR9N6KEO1","","","<img src=""img/flower5.png"" style=""width:200px;border:14px solid red;"">","null","","","",""
"650.3999999761581","","image-keyboard-response","109","231661","0.0-109.0","39RP059MEIF91SRSL0O576S7TICBM6","A10JXOU89D5RXR","39WSF6KUV27TMEQUH506BZR9N6KEO1","","","img/flower6.png","76","651.1000000238419","76","0",""
"null","","html-keyboard-response","110","231967","0.0-110.0","39RP059MEIF91SRSL0O576S7TICBM6","A10JXOU89D5RXR","39WSF6KUV27TMEQUH506BZR9N6KEO1","","","<img src=""img/flower6.png"" style=""width:200px;border:14px solid red;"">","null","","","",""
"604.5999999642372","","image-keyboard-response","111","232573","0.0-111.0","39RP059MEIF91SRSL0O576S7TICBM6","A10JXOU89D5RXR","39WSF6KUV27TMEQUH506BZR9N6KEO1","","","img/flower6.png","76","605.7000000476837","76","0",""
"null","","html-keyboard-response","112","232879","0.0-112.0","39RP059MEIF91SRSL0O576S7TICBM6","A10JXOU89D5RXR","39WSF6KUV27TMEQUH506BZR9N6KEO1","","","<img src=""img/flower6.png"" style=""width:200px;border:14px solid red;"">","null","","","",""
"788.1000000238419","","image-keyboard-response","113","233668","0.0-113.0","39RP059MEIF91SRSL0O576S7TICBM6","A10JXOU89D5RXR","39WSF6KUV27TMEQUH506BZR9N6KEO1","","","img/flower4.png","74","789","74","1",""
"null","","html-keyboard-response","114","233972","0.0-114.0","39RP059MEIF91SRSL0O576S7TICBM6","A10JXOU89D5RXR","39WSF6KUV27TMEQUH506BZR9N6KEO1","","","<img src=""img/flower4.png"" style=""width:200px; border:14px solid green;"">","null","","","",""
"569.6999999880791","","image-keyboard-response","115","234543","0.0-115.0","39RP059MEIF91SRSL0O576S7TICBM6","A10JXOU89D5RXR","39WSF6KUV27TMEQUH506BZR9N6KEO1","","","img/flower4.png","74","570.5999999642372","74","0",""
"null","","html-keyboard-response","116","234846","0.0-116.0","39RP059MEIF91SRSL0O576S7TICBM6","A10JXOU89D5RXR","39WSF6KUV27TMEQUH506BZR9N6KEO1","","","<img src=""img/flower4.png"" style=""width:200px;border:14px solid red;"">","null","","","",""
"535.8000000119209","","image-keyboard-response","117","235383","0.0-117.0","39RP059MEIF91SRSL0O576S7TICBM6","A10JXOU89D5RXR","39WSF6KUV27TMEQUH506BZR9N6KEO1","","","img/flower4.png","74","536.5","74","1",""
"null","","html-keyboard-response","118","235689","0.0-118.0","39RP059MEIF91SRSL0O576S7TICBM6","A10JXOU89D5RXR","39WSF6KUV27TMEQUH506BZR9N6KEO1","","","<img src=""img/flower4.png"" style=""width:200px; border:14px solid green;"">","null","","","",""
"515.9000000357628","","image-keyboard-response","119","236206","0.0-119.0","39RP059MEIF91SRSL0O576S7TICBM6","A10JXOU89D5RXR","39WSF6KUV27TMEQUH506BZR9N6KEO1","","","img/flower4.png","74","517.1000000238419","74","1",""
"null","","html-keyboard-response","120","236515","0.0-120.0","39RP059MEIF91SRSL0O576S7TICBM6","A10JXOU89D5RXR","39WSF6KUV27TMEQUH506BZR9N6KEO1","","","<img src=""img/flower4.png"" style=""width:200px; border:14px solid green;"">","null","","","",""
"522.5","","image-keyboard-response","121","237039","0.0-121.0","39RP059MEIF91SRSL0O576S7TICBM6","A10JXOU89D5RXR","39WSF6KUV27TMEQUH506BZR9N6KEO1","","","img/flower4.png","74","523.3000000119209","74","1",""
"null","","html-keyboard-response","122","237344","0.0-122.0","39RP059MEIF91SRSL0O576S7TICBM6","A10JXOU89D5RXR","39WSF6KUV27TMEQUH506BZR9N6KEO1","","","<img src=""img/flower4.png"" style=""width:200px; border:14px solid green;"">","null","","","",""
"493.5","","image-keyboard-response","123","237839","0.0-123.0","39RP059MEIF91SRSL0O576S7TICBM6","A10JXOU89D5RXR","39WSF6KUV27TMEQUH506BZR9N6KEO1","","","img/flower4.png","74","494.39999997615814","74","1",""
"null","","html-keyboard-response","124","238140","0.0-124.0","39RP059MEIF91SRSL0O576S7TICBM6","A10JXOU89D5RXR","39WSF6KUV27TMEQUH506BZR9N6KEO1","","","<img src=""img/flower4.png"" style=""width:200px; border:14px solid green;"">","null","","","",""
"7637.5","","instructions","125","245778","0.0-125.0","39RP059MEIF91SRSL0O576S7TICBM6","A10JXOU89D5RXR","39WSF6KUV27TMEQUH506BZR9N6KEO1","","[{""page_index"":0,""viewing_time"":7637.199999988079}]","","","","","",""
"1884","","image-keyboard-response","126","247663","0.0-126.0","39RP059MEIF91SRSL0O576S7TICBM6","A10JXOU89D5RXR","39WSF6KUV27TMEQUH506BZR9N6KEO1","","","img/flower9.png","74","1884.8999999761581","74","1",""
"null","","html-keyboard-response","127","247978","0.0-127.0","39RP059MEIF91SRSL0O576S7TICBM6","A10JXOU89D5RXR","39WSF6KUV27TMEQUH506BZR9N6KEO1","","","<img src=""img/flower9.png"" style=""width:200px; border:14px solid green;"">","null","","","",""
"1572.800000011921","","image-keyboard-response","128","249551","0.0-128.0","39RP059MEIF91SRSL0O576S7TICBM6","A10JXOU89D5RXR","39WSF6KUV27TMEQUH506BZR9N6KEO1","","","img/flower7.png","76","1573.699999988079","76","1",""
"null","","html-keyboard-response","129","249862","0.0-129.0","39RP059MEIF91SRSL0O576S7TICBM6","A10JXOU89D5RXR","39WSF6KUV27TMEQUH506BZR9N6KEO1","","","<img src=""img/flower7.png"" style=""width:200px; border:14px solid green;"">","null","","","",""
"1359.699999988079","","image-keyboard-response","130","251223","0.0-130.0","39RP059MEIF91SRSL0O576S7TICBM6","A10JXOU89D5RXR","39WSF6KUV27TMEQUH506BZR9N6KEO1","","","img/flower2.png","75","1360.5","75","1",""
"null","","html-keyboard-response","131","251538","0.0-131.0","39RP059MEIF91SRSL0O576S7TICBM6","A10JXOU89D5RXR","39WSF6KUV27TMEQUH506BZR9N6KEO1","","","<img src=""img/flower2.png"" style=""width:200px; border:14px solid green;"">","null","","","",""
"628","","image-keyboard-response","132","252167","0.0-132.0","39RP059MEIF91SRSL0O576S7TICBM6","A10JXOU89D5RXR","39WSF6KUV27TMEQUH506BZR9N6KEO1","","","img/flower2.png","75","628.6999999880791","75","1",""
"null","","html-keyboard-response","133","252480","0.0-133.0","39RP059MEIF91SRSL0O576S7TICBM6","A10JXOU89D5RXR","39WSF6KUV27TMEQUH506BZR9N6KEO1","","","<img src=""img/flower2.png"" style=""width:200px; border:14px solid green;"">","null","","","",""
"982","","image-keyboard-response","134","253463","0.0-134.0","39RP059MEIF91SRSL0O576S7TICBM6","A10JXOU89D5RXR","39WSF6KUV27TMEQUH506BZR9N6KEO1","","","img/flower9.png","74","983.1000000238419","74","0",""
"null","","html-keyboard-response","135","253773","0.0-135.0","39RP059MEIF91SRSL0O576S7TICBM6","A10JXOU89D5RXR","39WSF6KUV27TMEQUH506BZR9N6KEO1","","","<img src=""img/flower9.png"" style=""width:200px;border:14px solid red;"">","null","","","",""
"849.3000000119209","","image-keyboard-response","136","254623","0.0-136.0","39RP059MEIF91SRSL0O576S7TICBM6","A10JXOU89D5RXR","39WSF6KUV27TMEQUH506BZR9N6KEO1","","","img/flower7.png","76","850","76","1",""
"null","","html-keyboard-response","137","254928","0.0-137.0","39RP059MEIF91SRSL0O576S7TICBM6","A10JXOU89D5RXR","39WSF6KUV27TMEQUH506BZR9N6KEO1","","","<img src=""img/flower7.png"" style=""width:200px; border:14px solid green;"">","null","","","",""
"846","","image-keyboard-response","138","255775","0.0-138.0","39RP059MEIF91SRSL0O576S7TICBM6","A10JXOU89D5RXR","39WSF6KUV27TMEQUH506BZR9N6KEO1","","","img/flower9.png","74","846.9000000357628","74","1",""
"null","","html-keyboard-response","139","256077","0.0-139.0","39RP059MEIF91SRSL0O576S7TICBM6","A10JXOU89D5RXR","39WSF6KUV27TMEQUH506BZR9N6KEO1","","","<img src=""img/flower9.png"" style=""width:200px; border:14px solid green;"">","null","","","",""
"679.4000000357628","","image-keyboard-response","140","256758","0.0-140.0","39RP059MEIF91SRSL0O576S7TICBM6","A10JXOU89D5RXR","39WSF6KUV27TMEQUH506BZR9N6KEO1","","","img/flower7.png","75","680.3000000119209","75","0",""
"null","","html-keyboard-response","141","257060","0.0-141.0","39RP059MEIF91SRSL0O576S7TICBM6","A10JXOU89D5RXR","39WSF6KUV27TMEQUH506BZR9N6KEO1","","","<img src=""img/flower7.png"" style=""width:200px;border:14px solid red;"">","null","","","",""
"593.6000000238419","","image-keyboard-response","142","257655","0.0-142.0","39RP059MEIF91SRSL0O576S7TICBM6","A10JXOU89D5RXR","39WSF6KUV27TMEQUH506BZR9N6KEO1","","","img/flower7.png","75","594.6999999880791","75","0",""
"null","","html-keyboard-response","143","257958","0.0-143.0","39RP059MEIF91SRSL0O576S7TICBM6","A10JXOU89D5RXR","39WSF6KUV27TMEQUH506BZR9N6KEO1","","","<img src=""img/flower7.png"" style=""width:200px;border:14px solid red;"">","null","","","",""
"687.6999999880791","","image-keyboard-response","144","258646","0.0-144.0","39RP059MEIF91SRSL0O576S7TICBM6","A10JXOU89D5RXR","39WSF6KUV27TMEQUH506BZR9N6KEO1","","","img/flower9.png","74","688.4000000357628","74","1",""
"null","","html-keyboard-response","145","258964","0.0-145.0","39RP059MEIF91SRSL0O576S7TICBM6","A10JXOU89D5RXR","39WSF6KUV27TMEQUH506BZR9N6KEO1","","","<img src=""img/flower9.png"" style=""width:200px; border:14px solid green;"">","null","","","",""
"849.8999999761581","","image-keyboard-response","146","259815","0.0-146.0","39RP059MEIF91SRSL0O576S7TICBM6","A10JXOU89D5RXR","39WSF6KUV27TMEQUH506BZR9N6KEO1","","","img/flower7.png","76","850.6000000238419","76","1",""
"null","","html-keyboard-response","147","260122","0.0-147.0","39RP059MEIF91SRSL0O576S7TICBM6","A10JXOU89D5RXR","39WSF6KUV27TMEQUH506BZR9N6KEO1","","","<img src=""img/flower7.png"" style=""width:200px; border:14px solid green;"">","null","","","",""
"491.80000001192093","","image-keyboard-response","148","260614","0.0-148.0","39RP059MEIF91SRSL0O576S7TICBM6","A10JXOU89D5RXR","39WSF6KUV27TMEQUH506BZR9N6KEO1","","","img/flower7.png","76","492.5","76","1",""
"null","","html-keyboard-response","149","260918","0.0-149.0","39RP059MEIF91SRSL0O576S7TICBM6","A10JXOU89D5RXR","39WSF6KUV27TMEQUH506BZR9N6KEO1","","","<img src=""img/flower7.png"" style=""width:200px; border:14px solid green;"">","null","","","",""
"654.9000000357628","","image-keyboard-response","150","261574","0.0-150.0","39RP059MEIF91SRSL0O576S7TICBM6","A10JXOU89D5RXR","39WSF6KUV27TMEQUH506BZR9N6KEO1","","","img/flower9.png","74","655.5999999642372","74","0",""
"null","","html-keyboard-response","151","261886","0.0-151.0","39RP059MEIF91SRSL0O576S7TICBM6","A10JXOU89D5RXR","39WSF6KUV27TMEQUH506BZR9N6KEO1","","","<img src=""img/flower9.png"" style=""width:200px;border:14px solid red;"">","null","","","",""
"791.6999999880791","","image-keyboard-response","152","262678","0.0-152.0","39RP059MEIF91SRSL0O576S7TICBM6","A10JXOU89D5RXR","39WSF6KUV27TMEQUH506BZR9N6KEO1","","","img/flower7.png","76","792.5999999642372","76","0",""
"null","","html-keyboard-response","153","262993","0.0-153.0","39RP059MEIF91SRSL0O576S7TICBM6","A10JXOU89D5RXR","39WSF6KUV27TMEQUH506BZR9N6KEO1","","","<img src=""img/flower7.png"" style=""width:200px;border:14px solid red;"">","null","","","",""
"508.19999998807907","","image-keyboard-response","154","263502","0.0-154.0","39RP059MEIF91SRSL0O576S7TICBM6","A10JXOU89D5RXR","39WSF6KUV27TMEQUH506BZR9N6KEO1","","","img/flower7.png","76","509.10000002384186","76","1",""
"null","","html-keyboard-response","155","263812","0.0-155.0","39RP059MEIF91SRSL0O576S7TICBM6","A10JXOU89D5RXR","39WSF6KUV27TMEQUH506BZR9N6KEO1","","","<img src=""img/flower7.png"" style=""width:200px; border:14px solid green;"">","null","","","",""
"440.5","","image-keyboard-response","156","264254","0.0-156.0","39RP059MEIF91SRSL0O576S7TICBM6","A10JXOU89D5RXR","39WSF6KUV27TMEQUH506BZR9N6KEO1","","","img/flower7.png","76","441.39999997615814","76","0",""
"null","","html-keyboard-response","157","264560","0.0-157.0","39RP059MEIF91SRSL0O576S7TICBM6","A10JXOU89D5RXR","39WSF6KUV27TMEQUH506BZR9N6KEO1","","","<img src=""img/flower7.png"" style=""width:200px;border:14px solid red;"">","null","","","",""
"503.5999999642372","","image-keyboard-response","158","265064","0.0-158.0","39RP059MEIF91SRSL0O576S7TICBM6","A10JXOU89D5RXR","39WSF6KUV27TMEQUH506BZR9N6KEO1","","","img/flower7.png","76","504.5","76","0",""
"null","","html-keyboard-response","159","265371","0.0-159.0","39RP059MEIF91SRSL0O576S7TICBM6","A10JXOU89D5RXR","39WSF6KUV27TMEQUH506BZR9N6KEO1","","","<img src=""img/flower7.png"" style=""width:200px;border:14px solid red;"">","null","","","",""
"810.5","","image-keyboard-response","160","266183","0.0-160.0","39RP059MEIF91SRSL0O576S7TICBM6","A10JXOU89D5RXR","39WSF6KUV27TMEQUH506BZR9N6KEO1","","","img/flower9.png","74","811.2000000476837","74","1",""
"null","","html-keyboard-response","161","266484","0.0-161.0","39RP059MEIF91SRSL0O576S7TICBM6","A10JXOU89D5RXR","39WSF6KUV27TMEQUH506BZR9N6KEO1","","","<img src=""img/flower9.png"" style=""width:200px; border:14px solid green;"">","null","","","",""
"401.39999997615814","","image-keyboard-response","162","266887","0.0-162.0","39RP059MEIF91SRSL0O576S7TICBM6","A10JXOU89D5RXR","39WSF6KUV27TMEQUH506BZR9N6KEO1","","","img/flower9.png","74","402.39999997615814","74","1",""
"null","","html-keyboard-response","163","267199","0.0-163.0","39RP059MEIF91SRSL0O576S7TICBM6","A10JXOU89D5RXR","39WSF6KUV27TMEQUH506BZR9N6KEO1","","","<img src=""img/flower9.png"" style=""width:200px; border:14px solid green;"">","null","","","",""
"1021.4000000357628","","image-keyboard-response","164","268222","0.0-164.0","39RP059MEIF91SRSL0O576S7TICBM6","A10JXOU89D5RXR","39WSF6KUV27TMEQUH506BZR9N6KEO1","","","img/flower7.png","76","1022.3999999761581","76","1",""
"null","","html-keyboard-response","165","268524","0.0-165.0","39RP059MEIF91SRSL0O576S7TICBM6","A10JXOU89D5RXR","39WSF6KUV27TMEQUH506BZR9N6KEO1","","","<img src=""img/flower7.png"" style=""width:200px; border:14px solid green;"">","null","","","",""
"665.3999999761581","","image-keyboard-response","166","269191","0.0-166.0","39RP059MEIF91SRSL0O576S7TICBM6","A10JXOU89D5RXR","39WSF6KUV27TMEQUH506BZR9N6KEO1","","","img/flower2.png","75","666.3000000119209","75","0",""
"null","","html-keyboard-response","167","269506","0.0-167.0","39RP059MEIF91SRSL0O576S7TICBM6","A10JXOU89D5RXR","39WSF6KUV27TMEQUH506BZR9N6KEO1","","","<img src=""img/flower2.png"" style=""width:200px;border:14px solid red;"">","null","","","",""
"859.2999999523163","","image-keyboard-response","168","270366","0.0-168.0","39RP059MEIF91SRSL0O576S7TICBM6","A10JXOU89D5RXR","39WSF6KUV27TMEQUH506BZR9N6KEO1","","","img/flower9.png","76","860.1999999880791","76","0",""
"null","","html-keyboard-response","169","270669","0.0-169.0","39RP059MEIF91SRSL0O576S7TICBM6","A10JXOU89D5RXR","39WSF6KUV27TMEQUH506BZR9N6KEO1","","","<img src=""img/flower9.png"" style=""width:200px;border:14px solid red;"">","null","","","",""
"481.10000002384186","","image-keyboard-response","170","271151","0.0-170.0","39RP059MEIF91SRSL0O576S7TICBM6","A10JXOU89D5RXR","39WSF6KUV27TMEQUH506BZR9N6KEO1","","","img/flower9.png","74","482.30000001192093","74","0",""
"null","","html-keyboard-response","171","271465","0.0-171.0","39RP059MEIF91SRSL0O576S7TICBM6","A10JXOU89D5RXR","39WSF6KUV27TMEQUH506BZR9N6KEO1","","","<img src=""img/flower9.png"" style=""width:200px;border:14px solid red;"">","null","","","",""
"373.5999999642372","","image-keyboard-response","172","271839","0.0-172.0","39RP059MEIF91SRSL0O576S7TICBM6","A10JXOU89D5RXR","39WSF6KUV27TMEQUH506BZR9N6KEO1","","","img/flower9.png","74","374.60000002384186","74","1",""
"null","","html-keyboard-response","173","272150","0.0-173.0","39RP059MEIF91SRSL0O576S7TICBM6","A10JXOU89D5RXR","39WSF6KUV27TMEQUH506BZR9N6KEO1","","","<img src=""img/flower9.png"" style=""width:200px; border:14px solid green;"">","null","","","",""
"406.5999999642372","","image-keyboard-response","174","272558","0.0-174.0","39RP059MEIF91SRSL0O576S7TICBM6","A10JXOU89D5RXR","39WSF6KUV27TMEQUH506BZR9N6KEO1","","","img/flower9.png","74","407.5","74","0",""
"null","","html-keyboard-response","175","272861","0.0-175.0","39RP059MEIF91SRSL0O576S7TICBM6","A10JXOU89D5RXR","39WSF6KUV27TMEQUH506BZR9N6KEO1","","","<img src=""img/flower9.png"" style=""width:200px;border:14px solid red;"">","null","","","",""
"1616.5999999642372","","image-keyboard-response","176","274478","0.0-176.0","39RP059MEIF91SRSL0O576S7TICBM6","A10JXOU89D5RXR","39WSF6KUV27TMEQUH506BZR9N6KEO1","","","img/flower2.png","74","1617.4000000357628","74","0",""
"null","","html-keyboard-response","177","274784","0.0-177.0","39RP059MEIF91SRSL0O576S7TICBM6","A10JXOU89D5RXR","39WSF6KUV27TMEQUH506BZR9N6KEO1","","","<img src=""img/flower2.png"" style=""width:200px;border:14px solid red;"">","null","","","",""
"902.1999999880791","","image-keyboard-response","178","275687","0.0-178.0","39RP059MEIF91SRSL0O576S7TICBM6","A10JXOU89D5RXR","39WSF6KUV27TMEQUH506BZR9N6KEO1","","","img/flower7.png","76","902.8999999761581","76","1",""
"null","","html-keyboard-response","179","276002","0.0-179.0","39RP059MEIF91SRSL0O576S7TICBM6","A10JXOU89D5RXR","39WSF6KUV27TMEQUH506BZR9N6KEO1","","","<img src=""img/flower7.png"" style=""width:200px; border:14px solid green;"">","null","","","",""
"835.9000000357628","","image-keyboard-response","180","276839","0.0-180.0","39RP059MEIF91SRSL0O576S7TICBM6","A10JXOU89D5RXR","39WSF6KUV27TMEQUH506BZR9N6KEO1","","","img/flower2.png","75","836.8000000119209","75","1",""
"null","","html-keyboard-response","181","277142","0.0-181.0","39RP059MEIF91SRSL0O576S7TICBM6","A10JXOU89D5RXR","39WSF6KUV27TMEQUH506BZR9N6KEO1","","","<img src=""img/flower2.png"" style=""width:200px; border:14px solid green;"">","null","","","",""
"783","","image-keyboard-response","182","277926","0.0-182.0","39RP059MEIF91SRSL0O576S7TICBM6","A10JXOU89D5RXR","39WSF6KUV27TMEQUH506BZR9N6KEO1","","","img/flower9.png","74","783.6999999880791","74","1",""
"null","","html-keyboard-response","183","278250","0.0-183.0","39RP059MEIF91SRSL0O576S7TICBM6","A10JXOU89D5RXR","39WSF6KUV27TMEQUH506BZR9N6KEO1","","","<img src=""img/flower9.png"" style=""width:200px; border:14px solid green;"">","null","","","",""
"739.4000000357628","","image-keyboard-response","184","278991","0.0-184.0","39RP059MEIF91SRSL0O576S7TICBM6","A10JXOU89D5RXR","39WSF6KUV27TMEQUH506BZR9N6KEO1","","","img/flower2.png","75","740.3999999761581","75","1",""
"null","","html-keyboard-response","185","279298","0.0-185.0","39RP059MEIF91SRSL0O576S7TICBM6","A10JXOU89D5RXR","39WSF6KUV27TMEQUH506BZR9N6KEO1","","","<img src=""img/flower2.png"" style=""width:200px; border:14px solid green;"">","null","","","",""
"435.30000001192093","","image-keyboard-response","186","279734","0.0-186.0","39RP059MEIF91SRSL0O576S7TICBM6","A10JXOU89D5RXR","39WSF6KUV27TMEQUH506BZR9N6KEO1","","","img/flower2.png","75","436.19999998807907","75","1",""
"null","","html-keyboard-response","187","280045","0.0-187.0","39RP059MEIF91SRSL0O576S7TICBM6","A10JXOU89D5RXR","39WSF6KUV27TMEQUH506BZR9N6KEO1","","","<img src=""img/flower2.png"" style=""width:200px; border:14px solid green;"">","null","","","",""
"560.5","","image-keyboard-response","188","280607","0.0-188.0","39RP059MEIF91SRSL0O576S7TICBM6","A10JXOU89D5RXR","39WSF6KUV27TMEQUH506BZR9N6KEO1","","","img/flower9.png","74","561.6000000238419","74","1",""
"null","","html-keyboard-response","189","280917","0.0-189.0","39RP059MEIF91SRSL0O576S7TICBM6","A10JXOU89D5RXR","39WSF6KUV27TMEQUH506BZR9N6KEO1","","","<img src=""img/flower9.png"" style=""width:200px; border:14px solid green;"">","null","","","",""
"648.5","","image-keyboard-response","190","281567","0.0-190.0","39RP059MEIF91SRSL0O576S7TICBM6","A10JXOU89D5RXR","39WSF6KUV27TMEQUH506BZR9N6KEO1","","","img/flower7.png","76","649.7000000476837","76","1",""
"null","","html-keyboard-response","191","281883","0.0-191.0","39RP059MEIF91SRSL0O576S7TICBM6","A10JXOU89D5RXR","39WSF6KUV27TMEQUH506BZR9N6KEO1","","","<img src=""img/flower7.png"" style=""width:200px; border:14px solid green;"">","null","","","",""
"618.1000000238419","","image-keyboard-response","192","282502","0.0-192.0","39RP059MEIF91SRSL0O576S7TICBM6","A10JXOU89D5RXR","39WSF6KUV27TMEQUH506BZR9N6KEO1","","","img/flower9.png","74","619","74","0",""
"null","","html-keyboard-response","193","282810","0.0-193.0","39RP059MEIF91SRSL0O576S7TICBM6","A10JXOU89D5RXR","39WSF6KUV27TMEQUH506BZR9N6KEO1","","","<img src=""img/flower9.png"" style=""width:200px;border:14px solid red;"">","null","","","",""
"715.6000000238419","","image-keyboard-response","194","283527","0.0-194.0","39RP059MEIF91SRSL0O576S7TICBM6","A10JXOU89D5RXR","39WSF6KUV27TMEQUH506BZR9N6KEO1","","","img/flower7.png","76","716.5","76","0",""
"null","","html-keyboard-response","195","283837","0.0-195.0","39RP059MEIF91SRSL0O576S7TICBM6","A10JXOU89D5RXR","39WSF6KUV27TMEQUH506BZR9N6KEO1","","","<img src=""img/flower7.png"" style=""width:200px;border:14px solid red;"">","null","","","",""
"647.5999999642372","","image-keyboard-response","196","284486","0.0-196.0","39RP059MEIF91SRSL0O576S7TICBM6","A10JXOU89D5RXR","39WSF6KUV27TMEQUH506BZR9N6KEO1","","","img/flower9.png","74","648.3999999761581","74","1",""
"null","","html-keyboard-response","197","284789","0.0-197.0","39RP059MEIF91SRSL0O576S7TICBM6","A10JXOU89D5RXR","39WSF6KUV27TMEQUH506BZR9N6KEO1","","","<img src=""img/flower9.png"" style=""width:200px; border:14px solid green;"">","null","","","",""
"495.9000000357628","","image-keyboard-response","198","285286","0.0-198.0","39RP059MEIF91SRSL0O576S7TICBM6","A10JXOU89D5RXR","39WSF6KUV27TMEQUH506BZR9N6KEO1","","","img/flower9.png","74","496.69999998807907","74","1",""
"null","","html-keyboard-response","199","285588","0.0-199.0","39RP059MEIF91SRSL0O576S7TICBM6","A10JXOU89D5RXR","39WSF6KUV27TMEQUH506BZR9N6KEO1","","","<img src=""img/flower9.png"" style=""width:200px; border:14px solid green;"">","null","","","",""
"593.0999999642372","","image-keyboard-response","200","286182","0.0-200.0","39RP059MEIF91SRSL0O576S7TICBM6","A10JXOU89D5RXR","39WSF6KUV27TMEQUH506BZR9N6KEO1","","","img/flower7.png","76","593.9000000357628","76","0",""
"null","","html-keyboard-response","201","286488","0.0-201.0","39RP059MEIF91SRSL0O576S7TICBM6","A10JXOU89D5RXR","39WSF6KUV27TMEQUH506BZR9N6KEO1","","","<img src=""img/flower7.png"" style=""width:200px;border:14px solid red;"">","null","","","",""
"606.1999999880791","","image-keyboard-response","202","287095","0.0-202.0","39RP059MEIF91SRSL0O576S7TICBM6","A10JXOU89D5RXR","39WSF6KUV27TMEQUH506BZR9N6KEO1","","","img/flower2.png","75","607.2999999523163","75","1",""
"null","","html-keyboard-response","203","287411","0.0-203.0","39RP059MEIF91SRSL0O576S7TICBM6","A10JXOU89D5RXR","39WSF6KUV27TMEQUH506BZR9N6KEO1","","","<img src=""img/flower2.png"" style=""width:200px; border:14px solid green;"">","null","","","",""
"395.5","","image-keyboard-response","204","287807","0.0-204.0","39RP059MEIF91SRSL0O576S7TICBM6","A10JXOU89D5RXR","39WSF6KUV27TMEQUH506BZR9N6KEO1","","","img/flower2.png","75","396.39999997615814","75","0",""
"null","","html-keyboard-response","205","288113","0.0-205.0","39RP059MEIF91SRSL0O576S7TICBM6","A10JXOU89D5RXR","39WSF6KUV27TMEQUH506BZR9N6KEO1","","","<img src=""img/flower2.png"" style=""width:200px;border:14px solid red;"">","null","","","",""
"652.3000000119209","","image-keyboard-response","206","288766","0.0-206.0","39RP059MEIF91SRSL0O576S7TICBM6","A10JXOU89D5RXR","39WSF6KUV27TMEQUH506BZR9N6KEO1","","","img/flower9.png","74","653.3000000119209","74","0",""
"null","","html-keyboard-response","207","289076","0.0-207.0","39RP059MEIF91SRSL0O576S7TICBM6","A10JXOU89D5RXR","39WSF6KUV27TMEQUH506BZR9N6KEO1","","","<img src=""img/flower9.png"" style=""width:200px;border:14px solid red;"">","null","","","",""
"457.5","","image-keyboard-response","208","289535","0.0-208.0","39RP059MEIF91SRSL0O576S7TICBM6","A10JXOU89D5RXR","39WSF6KUV27TMEQUH506BZR9N6KEO1","","","img/flower2.png","74","458.4000000357628","74","0",""
"null","","html-keyboard-response","209","289846","0.0-209.0","39RP059MEIF91SRSL0O576S7TICBM6","A10JXOU89D5RXR","39WSF6KUV27TMEQUH506BZR9N6KEO1","","","<img src=""img/flower2.png"" style=""width:200px;border:14px solid red;"">","null","","","",""
"647.3999999761581","","image-keyboard-response","210","290495","0.0-210.0","39RP059MEIF91SRSL0O576S7TICBM6","A10JXOU89D5RXR","39WSF6KUV27TMEQUH506BZR9N6KEO1","","","img/flower7.png","76","648.3000000119209","76","1",""
"null","","html-keyboard-response","211","290807","0.0-211.0","39RP059MEIF91SRSL0O576S7TICBM6","A10JXOU89D5RXR","39WSF6KUV27TMEQUH506BZR9N6KEO1","","","<img src=""img/flower7.png"" style=""width:200px; border:14px solid green;"">","null","","","",""
"662.5","","image-keyboard-response","212","291470","0.0-212.0","39RP059MEIF91SRSL0O576S7TICBM6","A10JXOU89D5RXR","39WSF6KUV27TMEQUH506BZR9N6KEO1","","","img/flower9.png","74","663.1999999880791","74","0",""
"null","","html-keyboard-response","213","291774","0.0-213.0","39RP059MEIF91SRSL0O576S7TICBM6","A10JXOU89D5RXR","39WSF6KUV27TMEQUH506BZR9N6KEO1","","","<img src=""img/flower9.png"" style=""width:200px;border:14px solid red;"">","null","","","",""
"711.2999999523163","","image-keyboard-response","214","292486","0.0-214.0","39RP059MEIF91SRSL0O576S7TICBM6","A10JXOU89D5RXR","39WSF6KUV27TMEQUH506BZR9N6KEO1","","","img/flower7.png","76","712.1999999880791","76","1",""
"null","","html-keyboard-response","215","292792","0.0-215.0","39RP059MEIF91SRSL0O576S7TICBM6","A10JXOU89D5RXR","39WSF6KUV27TMEQUH506BZR9N6KEO1","","","<img src=""img/flower7.png"" style=""width:200px; border:14px solid green;"">","null","","","",""
"357.7000000476837","","image-keyboard-response","216","293151","0.0-216.0","39RP059MEIF91SRSL0O576S7TICBM6","A10JXOU89D5RXR","39WSF6KUV27TMEQUH506BZR9N6KEO1","","","img/flower7.png","76","358.5","76","0",""
"null","","html-keyboard-response","217","293461","0.0-217.0","39RP059MEIF91SRSL0O576S7TICBM6","A10JXOU89D5RXR","39WSF6KUV27TMEQUH506BZR9N6KEO1","","","<img src=""img/flower7.png"" style=""width:200px;border:14px solid red;"">","null","","","",""
"600.7000000476837","","image-keyboard-response","218","294066","0.0-218.0","39RP059MEIF91SRSL0O576S7TICBM6","A10JXOU89D5RXR","39WSF6KUV27TMEQUH506BZR9N6KEO1","","","img/flower2.png","75","601.8000000119209","75","0",""
"null","","html-keyboard-response","219","294383","0.0-219.0","39RP059MEIF91SRSL0O576S7TICBM6","A10JXOU89D5RXR","39WSF6KUV27TMEQUH506BZR9N6KEO1","","","<img src=""img/flower2.png"" style=""width:200px;border:14px solid red;"">","null","","","",""
"297.5","","image-keyboard-response","220","294682","0.0-220.0","39RP059MEIF91SRSL0O576S7TICBM6","A10JXOU89D5RXR","39WSF6KUV27TMEQUH506BZR9N6KEO1","","","img/flower2.png","75","298.5","75","0",""
"null","","html-keyboard-response","221","294997","0.0-221.0","39RP059MEIF91SRSL0O576S7TICBM6","A10JXOU89D5RXR","39WSF6KUV27TMEQUH506BZR9N6KEO1","","","<img src=""img/flower2.png"" style=""width:200px;border:14px solid red;"">","null","","","",""
"1067.699999988079","","image-keyboard-response","222","296066","0.0-222.0","39RP059MEIF91SRSL0O576S7TICBM6","A10JXOU89D5RXR","39WSF6KUV27TMEQUH506BZR9N6KEO1","","","img/flower9.png","74","1068.699999988079","74","1",""
"null","","html-keyboard-response","223","296374","0.0-223.0","39RP059MEIF91SRSL0O576S7TICBM6","A10JXOU89D5RXR","39WSF6KUV27TMEQUH506BZR9N6KEO1","","","<img src=""img/flower9.png"" style=""width:200px; border:14px solid green;"">","null","","","",""
"985.8000000119209","","image-keyboard-response","224","297361","0.0-224.0","39RP059MEIF91SRSL0O576S7TICBM6","A10JXOU89D5RXR","39WSF6KUV27TMEQUH506BZR9N6KEO1","","","img/flower2.png","75","986.9000000357628","75","1",""
"null","","html-keyboard-response","225","297670","0.0-225.0","39RP059MEIF91SRSL0O576S7TICBM6","A10JXOU89D5RXR","39WSF6KUV27TMEQUH506BZR9N6KEO1","","","<img src=""img/flower2.png"" style=""width:200px; border:14px solid green;"">","null","","","",""
"594.1000000238419","","image-keyboard-response","226","298265","0.0-226.0","39RP059MEIF91SRSL0O576S7TICBM6","A10JXOU89D5RXR","39WSF6KUV27TMEQUH506BZR9N6KEO1","","","img/flower9.png","74","595.2000000476837","74","1",""
"null","","html-keyboard-response","227","298575","0.0-227.0","39RP059MEIF91SRSL0O576S7TICBM6","A10JXOU89D5RXR","39WSF6KUV27TMEQUH506BZR9N6KEO1","","","<img src=""img/flower9.png"" style=""width:200px; border:14px solid green;"">","null","","","",""
"737.3999999761581","","image-keyboard-response","228","299313","0.0-228.0","39RP059MEIF91SRSL0O576S7TICBM6","A10JXOU89D5RXR","39WSF6KUV27TMEQUH506BZR9N6KEO1","","","img/flower7.png","76","738.3000000119209","76","1",""
"null","","html-keyboard-response","229","299620","0.0-229.0","39RP059MEIF91SRSL0O576S7TICBM6","A10JXOU89D5RXR","39WSF6KUV27TMEQUH506BZR9N6KEO1","","","<img src=""img/flower7.png"" style=""width:200px; border:14px solid green;"">","null","","","",""
"340.4000000357628","","image-keyboard-response","230","299962","0.0-230.0","39RP059MEIF91SRSL0O576S7TICBM6","A10JXOU89D5RXR","39WSF6KUV27TMEQUH506BZR9N6KEO1","","","img/flower7.png","76","341.2000000476837","76","1",""
"null","","html-keyboard-response","231","300276","0.0-231.0","39RP059MEIF91SRSL0O576S7TICBM6","A10JXOU89D5RXR","39WSF6KUV27TMEQUH506BZR9N6KEO1","","","<img src=""img/flower7.png"" style=""width:200px; border:14px solid green;"">","null","","","",""
"1004.3000000119209","","image-keyboard-response","232","301281","0.0-232.0","39RP059MEIF91SRSL0O576S7TICBM6","A10JXOU89D5RXR","39WSF6KUV27TMEQUH506BZR9N6KEO1","","","img/flower2.png","75","1005.3999999761581","75","1",""
"null","","html-keyboard-response","233","301587","0.0-233.0","39RP059MEIF91SRSL0O576S7TICBM6","A10JXOU89D5RXR","39WSF6KUV27TMEQUH506BZR9N6KEO1","","","<img src=""img/flower2.png"" style=""width:200px; border:14px solid green;"">","null","","","",""
"645.5999999642372","","image-keyboard-response","234","302233","0.0-234.0","39RP059MEIF91SRSL0O576S7TICBM6","A10JXOU89D5RXR","39WSF6KUV27TMEQUH506BZR9N6KEO1","","","img/flower7.png","76","646.4000000357628","76","1",""
"null","","html-keyboard-response","235","302541","0.0-235.0","39RP059MEIF91SRSL0O576S7TICBM6","A10JXOU89D5RXR","39WSF6KUV27TMEQUH506BZR9N6KEO1","","","<img src=""img/flower7.png"" style=""width:200px; border:14px solid green;"">","null","","","",""
"427.30000001192093","","image-keyboard-response","236","302969","0.0-236.0","39RP059MEIF91SRSL0O576S7TICBM6","A10JXOU89D5RXR","39WSF6KUV27TMEQUH506BZR9N6KEO1","","","img/flower7.png","76","428.39999997615814","76","0",""
"null","","html-keyboard-response","237","303279","0.0-237.0","39RP059MEIF91SRSL0O576S7TICBM6","A10JXOU89D5RXR","39WSF6KUV27TMEQUH506BZR9N6KEO1","","","<img src=""img/flower7.png"" style=""width:200px;border:14px solid red;"">","null","","","",""
"585.5","","image-keyboard-response","238","303866","0.0-238.0","39RP059MEIF91SRSL0O576S7TICBM6","A10JXOU89D5RXR","39WSF6KUV27TMEQUH506BZR9N6KEO1","","","img/flower2.png","74","586.3000000119209","74","0",""
"null","","html-keyboard-response","239","304169","0.0-239.0","39RP059MEIF91SRSL0O576S7TICBM6","A10JXOU89D5RXR","39WSF6KUV27TMEQUH506BZR9N6KEO1","","","<img src=""img/flower2.png"" style=""width:200px;border:14px solid red;"">","null","","","",""
"695.6999999880791","","image-keyboard-response","240","304866","0.0-240.0","39RP059MEIF91SRSL0O576S7TICBM6","A10JXOU89D5RXR","39WSF6KUV27TMEQUH506BZR9N6KEO1","","","img/flower2.png","75","696.3999999761581","75","1",""
"null","","html-keyboard-response","241","305168","0.0-241.0","39RP059MEIF91SRSL0O576S7TICBM6","A10JXOU89D5RXR","39WSF6KUV27TMEQUH506BZR9N6KEO1","","","<img src=""img/flower2.png"" style=""width:200px; border:14px solid green;"">","null","","","",""
"640.5999999642372","","image-keyboard-response","242","305809","0.0-242.0","39RP059MEIF91SRSL0O576S7TICBM6","A10JXOU89D5RXR","39WSF6KUV27TMEQUH506BZR9N6KEO1","","","img/flower9.png","74","641.4000000357628","74","0",""
"null","","html-keyboard-response","243","306121","0.0-243.0","39RP059MEIF91SRSL0O576S7TICBM6","A10JXOU89D5RXR","39WSF6KUV27TMEQUH506BZR9N6KEO1","","","<img src=""img/flower9.png"" style=""width:200px;border:14px solid red;"">","null","","","",""
"670.3999999761581","","image-keyboard-response","244","306793","0.0-244.0","39RP059MEIF91SRSL0O576S7TICBM6","A10JXOU89D5RXR","39WSF6KUV27TMEQUH506BZR9N6KEO1","","","img/flower7.png","76","671.4000000357628","76","1",""
"null","","html-keyboard-response","245","307110","0.0-245.0","39RP059MEIF91SRSL0O576S7TICBM6","A10JXOU89D5RXR","39WSF6KUV27TMEQUH506BZR9N6KEO1","","","<img src=""img/flower7.png"" style=""width:200px; border:14px solid green;"">","null","","","",""
"747.1000000238419","","image-keyboard-response","246","307858","0.0-246.0","39RP059MEIF91SRSL0O576S7TICBM6","A10JXOU89D5RXR","39WSF6KUV27TMEQUH506BZR9N6KEO1","","","img/flower2.png","75","748.1000000238419","75","1",""
"null","","html-keyboard-response","247","308170","0.0-247.0","39RP059MEIF91SRSL0O576S7TICBM6","A10JXOU89D5RXR","39WSF6KUV27TMEQUH506BZR9N6KEO1","","","<img src=""img/flower2.png"" style=""width:200px; border:14px solid green;"">","null","","","",""
"407","","image-keyboard-response","248","308578","0.0-248.0","39RP059MEIF91SRSL0O576S7TICBM6","A10JXOU89D5RXR","39WSF6KUV27TMEQUH506BZR9N6KEO1","","","img/flower2.png","75","407.80000001192093","75","0",""
"null","","html-keyboard-response","249","308887","0.0-249.0","39RP059MEIF91SRSL0O576S7TICBM6","A10JXOU89D5RXR","39WSF6KUV27TMEQUH506BZR9N6KEO1","","","<img src=""img/flower2.png"" style=""width:200px;border:14px solid red;"">","null","","","",""
"689.6999999880791","","image-keyboard-response","250","309578","0.0-250.0","39RP059MEIF91SRSL0O576S7TICBM6","A10JXOU89D5RXR","39WSF6KUV27TMEQUH506BZR9N6KEO1","","","img/flower9.png","74","690.5","74","0",""
"null","","html-keyboard-response","251","309886","0.0-251.0","39RP059MEIF91SRSL0O576S7TICBM6","A10JXOU89D5RXR","39WSF6KUV27TMEQUH506BZR9N6KEO1","","","<img src=""img/flower9.png"" style=""width:200px;border:14px solid red;"">","null","","","",""
"402.19999998807907","","image-keyboard-response","252","310289","0.0-252.0","39RP059MEIF91SRSL0O576S7TICBM6","A10JXOU89D5RXR","39WSF6KUV27TMEQUH506BZR9N6KEO1","","","img/flower9.png","74","403.19999998807907","74","0",""
"null","","html-keyboard-response","253","310603","0.0-253.0","39RP059MEIF91SRSL0O576S7TICBM6","A10JXOU89D5RXR","39WSF6KUV27TMEQUH506BZR9N6KEO1","","","<img src=""img/flower9.png"" style=""width:200px;border:14px solid red;"">","null","","","",""
"797.6000000238419","","image-keyboard-response","254","311402","0.0-254.0","39RP059MEIF91SRSL0O576S7TICBM6","A10JXOU89D5RXR","39WSF6KUV27TMEQUH506BZR9N6KEO1","","","img/flower9.png","76","798.3000000119209","76","0",""
"null","","html-keyboard-response","255","311712","0.0-255.0","39RP059MEIF91SRSL0O576S7TICBM6","A10JXOU89D5RXR","39WSF6KUV27TMEQUH506BZR9N6KEO1","","","<img src=""img/flower9.png"" style=""width:200px;border:14px solid red;"">","null","","","",""
"759.5999999642372","","image-keyboard-response","256","312473","0.0-256.0","39RP059MEIF91SRSL0O576S7TICBM6","A10JXOU89D5RXR","39WSF6KUV27TMEQUH506BZR9N6KEO1","","","img/flower2.png","75","760.3999999761581","75","1",""
"null","","html-keyboard-response","257","312777","0.0-257.0","39RP059MEIF91SRSL0O576S7TICBM6","A10JXOU89D5RXR","39WSF6KUV27TMEQUH506BZR9N6KEO1","","","<img src=""img/flower2.png"" style=""width:200px; border:14px solid green;"">","null","","","",""
"638.6000000238419","","image-keyboard-response","258","313417","0.0-258.0","39RP059MEIF91SRSL0O576S7TICBM6","A10JXOU89D5RXR","39WSF6KUV27TMEQUH506BZR9N6KEO1","","","img/flower9.png","74","639.3000000119209","74","0",""
"null","","html-keyboard-response","259","313725","0.0-259.0","39RP059MEIF91SRSL0O576S7TICBM6","A10JXOU89D5RXR","39WSF6KUV27TMEQUH506BZR9N6KEO1","","","<img src=""img/flower9.png"" style=""width:200px;border:14px solid red;"">","null","","","",""
"715.1999999880791","","image-keyboard-response","260","314441","0.0-260.0","39RP059MEIF91SRSL0O576S7TICBM6","A10JXOU89D5RXR","39WSF6KUV27TMEQUH506BZR9N6KEO1","","","img/flower7.png","76","716.0999999642372","76","1",""
"null","","html-keyboard-response","261","314754","0.0-261.0","39RP059MEIF91SRSL0O576S7TICBM6","A10JXOU89D5RXR","39WSF6KUV27TMEQUH506BZR9N6KEO1","","","<img src=""img/flower7.png"" style=""width:200px; border:14px solid green;"">","null","","","",""
"310.69999998807907","","image-keyboard-response","262","315066","0.0-262.0","39RP059MEIF91SRSL0O576S7TICBM6","A10JXOU89D5RXR","39WSF6KUV27TMEQUH506BZR9N6KEO1","","","img/flower7.png","76","311.5","76","1",""
"null","","html-keyboard-response","263","315380","0.0-263.0","39RP059MEIF91SRSL0O576S7TICBM6","A10JXOU89D5RXR","39WSF6KUV27TMEQUH506BZR9N6KEO1","","","<img src=""img/flower7.png"" style=""width:200px; border:14px solid green;"">","null","","","",""
"844.5","","image-keyboard-response","264","316225","0.0-264.0","39RP059MEIF91SRSL0O576S7TICBM6","A10JXOU89D5RXR","39WSF6KUV27TMEQUH506BZR9N6KEO1","","","img/flower2.png","75","845.5","75","0",""
"null","","html-keyboard-response","265","316534","0.0-265.0","39RP059MEIF91SRSL0O576S7TICBM6","A10JXOU89D5RXR","39WSF6KUV27TMEQUH506BZR9N6KEO1","","","<img src=""img/flower2.png"" style=""width:200px;border:14px solid red;"">","null","","","",""
"402.19999998807907","","image-keyboard-response","266","316937","0.0-266.0","39RP059MEIF91SRSL0O576S7TICBM6","A10JXOU89D5RXR","39WSF6KUV27TMEQUH506BZR9N6KEO1","","","img/flower2.png","75","402.9000000357628","75","0",""
"null","","html-keyboard-response","267","317253","0.0-267.0","39RP059MEIF91SRSL0O576S7TICBM6","A10JXOU89D5RXR","39WSF6KUV27TMEQUH506BZR9N6KEO1","","","<img src=""img/flower2.png"" style=""width:200px;border:14px solid red;"">","null","","","",""
"555.3000000119209","","image-keyboard-response","268","317810","0.0-268.0","39RP059MEIF91SRSL0O576S7TICBM6","A10JXOU89D5RXR","39WSF6KUV27TMEQUH506BZR9N6KEO1","","","img/flower2.png","74","556.5","74","0",""
"null","","html-keyboard-response","269","318125","0.0-269.0","39RP059MEIF91SRSL0O576S7TICBM6","A10JXOU89D5RXR","39WSF6KUV27TMEQUH506BZR9N6KEO1","","","<img src=""img/flower2.png"" style=""width:200px;border:14px solid red;"">","null","","","",""
"787.5999999642372","","image-keyboard-response","270","318914","0.0-270.0","39RP059MEIF91SRSL0O576S7TICBM6","A10JXOU89D5RXR","39WSF6KUV27TMEQUH506BZR9N6KEO1","","","img/flower9.png","74","788.5999999642372","74","1",""
"null","","html-keyboard-response","271","319218","0.0-271.0","39RP059MEIF91SRSL0O576S7TICBM6","A10JXOU89D5RXR","39WSF6KUV27TMEQUH506BZR9N6KEO1","","","<img src=""img/flower9.png"" style=""width:200px; border:14px solid green;"">","null","","","",""
"663","","image-keyboard-response","272","319882","0.0-272.0","39RP059MEIF91SRSL0O576S7TICBM6","A10JXOU89D5RXR","39WSF6KUV27TMEQUH506BZR9N6KEO1","","","img/flower2.png","75","663.8000000119209","75","1",""
"null","","html-keyboard-response","273","320184","0.0-273.0","39RP059MEIF91SRSL0O576S7TICBM6","A10JXOU89D5RXR","39WSF6KUV27TMEQUH506BZR9N6KEO1","","","<img src=""img/flower2.png"" style=""width:200px; border:14px solid green;"">","null","","","",""
"489.10000002384186","","image-keyboard-response","274","320674","0.0-274.0","39RP059MEIF91SRSL0O576S7TICBM6","A10JXOU89D5RXR","39WSF6KUV27TMEQUH506BZR9N6KEO1","","","img/flower2.png","75","489.9000000357628","75","0",""
"null","","html-keyboard-response","275","320978","0.0-275.0","39RP059MEIF91SRSL0O576S7TICBM6","A10JXOU89D5RXR","39WSF6KUV27TMEQUH506BZR9N6KEO1","","","<img src=""img/flower2.png"" style=""width:200px;border:14px solid red;"">","null","","","",""
"573.9000000357628","","image-keyboard-response","276","321553","0.0-276.0","39RP059MEIF91SRSL0O576S7TICBM6","A10JXOU89D5RXR","39WSF6KUV27TMEQUH506BZR9N6KEO1","","","img/flower9.png","74","574.8000000119209","74","1",""
"null","","html-keyboard-response","277","321865","0.0-277.0","39RP059MEIF91SRSL0O576S7TICBM6","A10JXOU89D5RXR","39WSF6KUV27TMEQUH506BZR9N6KEO1","","","<img src=""img/flower9.png"" style=""width:200px; border:14px solid green;"">","null","","","",""
"654.6999999880791","","image-keyboard-response","278","322521","0.0-278.0","39RP059MEIF91SRSL0O576S7TICBM6","A10JXOU89D5RXR","39WSF6KUV27TMEQUH506BZR9N6KEO1","","","img/flower7.png","76","656.6999999880791","76","1",""
"null","","html-keyboard-response","279","322837","0.0-279.0","39RP059MEIF91SRSL0O576S7TICBM6","A10JXOU89D5RXR","39WSF6KUV27TMEQUH506BZR9N6KEO1","","","<img src=""img/flower7.png"" style=""width:200px; border:14px solid green;"">","null","","","",""
"619.1000000238419","","image-keyboard-response","280","323457","0.0-280.0","39RP059MEIF91SRSL0O576S7TICBM6","A10JXOU89D5RXR","39WSF6KUV27TMEQUH506BZR9N6KEO1","","","img/flower9.png","74","620.0999999642372","74","1",""
"null","","html-keyboard-response","281","323774","0.0-281.0","39RP059MEIF91SRSL0O576S7TICBM6","A10JXOU89D5RXR","39WSF6KUV27TMEQUH506BZR9N6KEO1","","","<img src=""img/flower9.png"" style=""width:200px; border:14px solid green;"">","null","","","",""
"745.9000000357628","","image-keyboard-response","282","324521","0.0-282.0","39RP059MEIF91SRSL0O576S7TICBM6","A10JXOU89D5RXR","39WSF6KUV27TMEQUH506BZR9N6KEO1","","","img/flower2.png","75","746.8000000119209","75","0",""
"null","","html-keyboard-response","283","324834","0.0-283.0","39RP059MEIF91SRSL0O576S7TICBM6","A10JXOU89D5RXR","39WSF6KUV27TMEQUH506BZR9N6KEO1","","","<img src=""img/flower2.png"" style=""width:200px;border:14px solid red;"">","null","","","",""
"718.3999999761581","","image-keyboard-response","284","325553","0.0-284.0","39RP059MEIF91SRSL0O576S7TICBM6","A10JXOU89D5RXR","39WSF6KUV27TMEQUH506BZR9N6KEO1","","","img/flower7.png","76","719.5","76","1",""
"null","","html-keyboard-response","285","325870","0.0-285.0","39RP059MEIF91SRSL0O576S7TICBM6","A10JXOU89D5RXR","39WSF6KUV27TMEQUH506BZR9N6KEO1","","","<img src=""img/flower7.png"" style=""width:200px; border:14px solid green;"">","null","","","",""
"1010.3000000119209","","image-keyboard-response","286","326882","0.0-286.0","39RP059MEIF91SRSL0O576S7TICBM6","A10JXOU89D5RXR","39WSF6KUV27TMEQUH506BZR9N6KEO1","","","img/flower2.png","74","1011.3999999761581","74","0",""
"null","","html-keyboard-response","287","327185","0.0-287.0","39RP059MEIF91SRSL0O576S7TICBM6","A10JXOU89D5RXR","39WSF6KUV27TMEQUH506BZR9N6KEO1","","","<img src=""img/flower2.png"" style=""width:200px;border:14px solid red;"">","null","","","",""
"640","","image-keyboard-response","288","327826","0.0-288.0","39RP059MEIF91SRSL0O576S7TICBM6","A10JXOU89D5RXR","39WSF6KUV27TMEQUH506BZR9N6KEO1","","","img/flower7.png","76","640.7999999523163","76","1",""
"null","","html-keyboard-response","289","328136","0.0-289.0","39RP059MEIF91SRSL0O576S7TICBM6","A10JXOU89D5RXR","39WSF6KUV27TMEQUH506BZR9N6KEO1","","","<img src=""img/flower7.png"" style=""width:200px; border:14px solid green;"">","null","","","",""
"600.0999999642372","","image-keyboard-response","290","328737","0.0-290.0","39RP059MEIF91SRSL0O576S7TICBM6","A10JXOU89D5RXR","39WSF6KUV27TMEQUH506BZR9N6KEO1","","","img/flower9.png","74","600.8000000119209","74","0",""
"null","","html-keyboard-response","291","329042","0.0-291.0","39RP059MEIF91SRSL0O576S7TICBM6","A10JXOU89D5RXR","39WSF6KUV27TMEQUH506BZR9N6KEO1","","","<img src=""img/flower9.png"" style=""width:200px;border:14px solid red;"">","null","","","",""
"973.9000000357628","","image-keyboard-response","292","330017","0.0-292.0","39RP059MEIF91SRSL0O576S7TICBM6","A10JXOU89D5RXR","39WSF6KUV27TMEQUH506BZR9N6KEO1","","","img/flower7.png","76","975","76","1",""
"null","","html-keyboard-response","293","330334","0.0-293.0","39RP059MEIF91SRSL0O576S7TICBM6","A10JXOU89D5RXR","39WSF6KUV27TMEQUH506BZR9N6KEO1","","","<img src=""img/flower7.png"" style=""width:200px; border:14px solid green;"">","null","","","",""
"474.7000000476837","","image-keyboard-response","294","330810","0.0-294.0","39RP059MEIF91SRSL0O576S7TICBM6","A10JXOU89D5RXR","39WSF6KUV27TMEQUH506BZR9N6KEO1","","","img/flower7.png","76","475.7000000476837","76","1",""
"null","","html-keyboard-response","295","331114","0.0-295.0","39RP059MEIF91SRSL0O576S7TICBM6","A10JXOU89D5RXR","39WSF6KUV27TMEQUH506BZR9N6KEO1","","","<img src=""img/flower7.png"" style=""width:200px; border:14px solid green;"">","null","","","",""
"933.5999999642372","","image-keyboard-response","296","332049","0.0-296.0","39RP059MEIF91SRSL0O576S7TICBM6","A10JXOU89D5RXR","39WSF6KUV27TMEQUH506BZR9N6KEO1","","","img/flower2.png","74","934.5999999642372","74","0",""
"null","","html-keyboard-response","297","332359","0.0-297.0","39RP059MEIF91SRSL0O576S7TICBM6","A10JXOU89D5RXR","39WSF6KUV27TMEQUH506BZR9N6KEO1","","","<img src=""img/flower2.png"" style=""width:200px;border:14px solid red;"">","null","","","",""
"696.5","","image-keyboard-response","298","333057","0.0-298.0","39RP059MEIF91SRSL0O576S7TICBM6","A10JXOU89D5RXR","39WSF6KUV27TMEQUH506BZR9N6KEO1","","","img/flower2.png","75","697.5999999642372","75","1",""
"null","","html-keyboard-response","299","333362","0.0-299.0","39RP059MEIF91SRSL0O576S7TICBM6","A10JXOU89D5RXR","39WSF6KUV27TMEQUH506BZR9N6KEO1","","","<img src=""img/flower2.png"" style=""width:200px; border:14px solid green;"">","null","","","",""
"663.6999999880791","","image-keyboard-response","300","334026","0.0-300.0","39RP059MEIF91SRSL0O576S7TICBM6","A10JXOU89D5RXR","39WSF6KUV27TMEQUH506BZR9N6KEO1","","","img/flower9.png","74","664.4000000357628","74","0",""
"null","","html-keyboard-response","301","334330","0.0-301.0","39RP059MEIF91SRSL0O576S7TICBM6","A10JXOU89D5RXR","39WSF6KUV27TMEQUH506BZR9N6KEO1","","","<img src=""img/flower9.png"" style=""width:200px;border:14px solid red;"">","null","","","",""
"533.9000000357628","","image-keyboard-response","302","334865","0.0-302.0","39RP059MEIF91SRSL0O576S7TICBM6","A10JXOU89D5RXR","39WSF6KUV27TMEQUH506BZR9N6KEO1","","","img/flower2.png","75","534.5999999642372","75","0",""
"null","","html-keyboard-response","303","335173","0.0-303.0","39RP059MEIF91SRSL0O576S7TICBM6","A10JXOU89D5RXR","39WSF6KUV27TMEQUH506BZR9N6KEO1","","","<img src=""img/flower2.png"" style=""width:200px;border:14px solid red;"">","null","","","",""
"371","","image-keyboard-response","304","335545","0.0-304.0","39RP059MEIF91SRSL0O576S7TICBM6","A10JXOU89D5RXR","39WSF6KUV27TMEQUH506BZR9N6KEO1","","","img/flower2.png","75","371.9000000357628","75","1",""
"null","","html-keyboard-response","305","335847","0.0-305.0","39RP059MEIF91SRSL0O576S7TICBM6","A10JXOU89D5RXR","39WSF6KUV27TMEQUH506BZR9N6KEO1","","","<img src=""img/flower2.png"" style=""width:200px; border:14px solid green;"">","null","","","",""
"","","html-keyboard-response","306","340245","0.0-306.0","39RP059MEIF91SRSL0O576S7TICBM6","A10JXOU89D5RXR","39WSF6KUV27TMEQUH506BZR9N6KEO1","","","","","","","",""
"2723.699999988079","","image-keyboard-response","307","342970","0.0-307.0","39RP059MEIF91SRSL0O576S7TICBM6","A10JXOU89D5RXR","39WSF6KUV27TMEQUH506BZR9N6KEO1","","","img/flower8.png","75","2725","75","1",""
"null","","html-keyboard-response","308","343281","0.0-308.0","39RP059MEIF91SRSL0O576S7TICBM6","A10JXOU89D5RXR","39WSF6KUV27TMEQUH506BZR9N6KEO1","","","<img src=""img/flower8.png"" style=""width:200px; border:14px solid green;"">","null","","","",""
"598.4000000357628","","image-keyboard-response","309","343881","0.0-309.0","39RP059MEIF91SRSL0O576S7TICBM6","A10JXOU89D5RXR","39WSF6KUV27TMEQUH506BZR9N6KEO1","","","img/flower8.png","75","599.5","75","1",""
"null","","html-keyboard-response","310","344184","0.0-310.0","39RP059MEIF91SRSL0O576S7TICBM6","A10JXOU89D5RXR","39WSF6KUV27TMEQUH506BZR9N6KEO1","","","<img src=""img/flower8.png"" style=""width:200px; border:14px solid green;"">","null","","","",""
"1432.300000011921","","image-keyboard-response","311","345618","0.0-311.0","39RP059MEIF91SRSL0O576S7TICBM6","A10JXOU89D5RXR","39WSF6KUV27TMEQUH506BZR9N6KEO1","","","img/flower5.png","74","1433.5999999642372","74","1",""
"null","","html-keyboard-response","312","345934","0.0-312.0","39RP059MEIF91SRSL0O576S7TICBM6","A10JXOU89D5RXR","39WSF6KUV27TMEQUH506BZR9N6KEO1","","","<img src=""img/flower5.png"" style=""width:200px; border:14px solid green;"">","null","","","",""
"465.9000000357628","","image-keyboard-response","313","346401","0.0-313.0","39RP059MEIF91SRSL0O576S7TICBM6","A10JXOU89D5RXR","39WSF6KUV27TMEQUH506BZR9N6KEO1","","","img/flower5.png","74","466.7000000476837","74","1",""
"null","","html-keyboard-response","314","346717","0.0-314.0","39RP059MEIF91SRSL0O576S7TICBM6","A10JXOU89D5RXR","39WSF6KUV27TMEQUH506BZR9N6KEO1","","","<img src=""img/flower5.png"" style=""width:200px; border:14px solid green;"">","null","","","",""
"715.1999999880791","","image-keyboard-response","315","347433","0.0-315.0","39RP059MEIF91SRSL0O576S7TICBM6","A10JXOU89D5RXR","39WSF6KUV27TMEQUH506BZR9N6KEO1","","","img/flower8.png","75","716.3000000119209","75","1",""
"null","","html-keyboard-response","316","347745","0.0-316.0","39RP059MEIF91SRSL0O576S7TICBM6","A10JXOU89D5RXR","39WSF6KUV27TMEQUH506BZR9N6KEO1","","","<img src=""img/flower8.png"" style=""width:200px; border:14px solid green;"">","null","","","",""
"374.7999999523163","","image-keyboard-response","317","348121","0.0-317.0","39RP059MEIF91SRSL0O576S7TICBM6","A10JXOU89D5RXR","39WSF6KUV27TMEQUH506BZR9N6KEO1","","","img/flower8.png","75","375.89999997615814","75","1",""
"null","","html-keyboard-response","318","348430","0.0-318.0","39RP059MEIF91SRSL0O576S7TICBM6","A10JXOU89D5RXR","39WSF6KUV27TMEQUH506BZR9N6KEO1","","","<img src=""img/flower8.png"" style=""width:200px; border:14px solid green;"">","null","","","",""
"394.39999997615814","","image-keyboard-response","319","348826","0.0-319.0","39RP059MEIF91SRSL0O576S7TICBM6","A10JXOU89D5RXR","39WSF6KUV27TMEQUH506BZR9N6KEO1","","","img/flower8.png","75","395.39999997615814","75","1",""
"null","","html-keyboard-response","320","349132","0.0-320.0","39RP059MEIF91SRSL0O576S7TICBM6","A10JXOU89D5RXR","39WSF6KUV27TMEQUH506BZR9N6KEO1","","","<img src=""img/flower8.png"" style=""width:200px; border:14px solid green;"">","null","","","",""
"708.7999999523163","","image-keyboard-response","321","349842","0.0-321.0","39RP059MEIF91SRSL0O576S7TICBM6","A10JXOU89D5RXR","39WSF6KUV27TMEQUH506BZR9N6KEO1","","","img/flower5.png","74","709.8000000119209","74","0",""
"null","","html-keyboard-response","322","350145","0.0-322.0","39RP059MEIF91SRSL0O576S7TICBM6","A10JXOU89D5RXR","39WSF6KUV27TMEQUH506BZR9N6KEO1","","","<img src=""img/flower5.png"" style=""width:200px;border:14px solid red;"">","null","","","",""
"903.3999999761581","","image-keyboard-response","323","351050","0.0-323.0","39RP059MEIF91SRSL0O576S7TICBM6","A10JXOU89D5RXR","39WSF6KUV27TMEQUH506BZR9N6KEO1","","","img/flower6.png","76","904.1999999880791","76","0",""
"null","","html-keyboard-response","324","351365","0.0-324.0","39RP059MEIF91SRSL0O576S7TICBM6","A10JXOU89D5RXR","39WSF6KUV27TMEQUH506BZR9N6KEO1","","","<img src=""img/flower6.png"" style=""width:200px;border:14px solid red;"">","null","","","",""
"475.5","","image-keyboard-response","325","351841","0.0-325.0","39RP059MEIF91SRSL0O576S7TICBM6","A10JXOU89D5RXR","39WSF6KUV27TMEQUH506BZR9N6KEO1","","","img/flower6.png","74","476.10000002384186","74","1",""
"null","","html-keyboard-response","326","352147","0.0-326.0","39RP059MEIF91SRSL0O576S7TICBM6","A10JXOU89D5RXR","39WSF6KUV27TMEQUH506BZR9N6KEO1","","","<img src=""img/flower6.png"" style=""width:200px; border:14px solid green;"">","null","","","",""
"612.8000000119209","","image-keyboard-response","327","352761","0.0-327.0","39RP059MEIF91SRSL0O576S7TICBM6","A10JXOU89D5RXR","39WSF6KUV27TMEQUH506BZR9N6KEO1","","","img/flower6.png","74","613.6000000238419","74","1",""
"null","","html-keyboard-response","328","353069","0.0-328.0","39RP059MEIF91SRSL0O576S7TICBM6","A10JXOU89D5RXR","39WSF6KUV27TMEQUH506BZR9N6KEO1","","","<img src=""img/flower6.png"" style=""width:200px; border:14px solid green;"">","null","","","",""
"459.7999999523163","","image-keyboard-response","329","353530","0.0-329.0","39RP059MEIF91SRSL0O576S7TICBM6","A10JXOU89D5RXR","39WSF6KUV27TMEQUH506BZR9N6KEO1","","","img/flower6.png","74","461.10000002384186","74","1",""
"null","","html-keyboard-response","330","353833","0.0-330.0","39RP059MEIF91SRSL0O576S7TICBM6","A10JXOU89D5RXR","39WSF6KUV27TMEQUH506BZR9N6KEO1","","","<img src=""img/flower6.png"" style=""width:200px; border:14px solid green;"">","null","","","",""
"1000","","image-keyboard-response","331","354836","0.0-331.0","39RP059MEIF91SRSL0O576S7TICBM6","A10JXOU89D5RXR","39WSF6KUV27TMEQUH506BZR9N6KEO1","","","img/flower5.png","76","1000.6000000238419","76","1",""
"null","","html-keyboard-response","332","355146","0.0-332.0","39RP059MEIF91SRSL0O576S7TICBM6","A10JXOU89D5RXR","39WSF6KUV27TMEQUH506BZR9N6KEO1","","","<img src=""img/flower5.png"" style=""width:200px; border:14px solid green;"">","null","","","",""
"1392.699999988079","","image-keyboard-response","333","356540","0.0-333.0","39RP059MEIF91SRSL0O576S7TICBM6","A10JXOU89D5RXR","39WSF6KUV27TMEQUH506BZR9N6KEO1","","","img/flower6.png","74","1393.5","74","1",""
"null","","html-keyboard-response","334","356844","0.0-334.0","39RP059MEIF91SRSL0O576S7TICBM6","A10JXOU89D5RXR","39WSF6KUV27TMEQUH506BZR9N6KEO1","","","<img src=""img/flower6.png"" style=""width:200px; border:14px solid green;"">","null","","","",""
"398.19999998807907","","image-keyboard-response","335","357243","0.0-335.0","39RP059MEIF91SRSL0O576S7TICBM6","A10JXOU89D5RXR","39WSF6KUV27TMEQUH506BZR9N6KEO1","","","img/flower6.png","74","399.2999999523163","74","1",""
"null","","html-keyboard-response","336","357548","0.0-336.0","39RP059MEIF91SRSL0O576S7TICBM6","A10JXOU89D5RXR","39WSF6KUV27TMEQUH506BZR9N6KEO1","","","<img src=""img/flower6.png"" style=""width:200px; border:14px solid green;"">","null","","","",""
"974.8999999761581","","image-keyboard-response","337","358524","0.0-337.0","39RP059MEIF91SRSL0O576S7TICBM6","A10JXOU89D5RXR","39WSF6KUV27TMEQUH506BZR9N6KEO1","","","img/flower5.png","76","976.1000000238419","76","1",""
"null","","html-keyboard-response","338","358825","0.0-338.0","39RP059MEIF91SRSL0O576S7TICBM6","A10JXOU89D5RXR","39WSF6KUV27TMEQUH506BZR9N6KEO1","","","<img src=""img/flower5.png"" style=""width:200px; border:14px solid green;"">","null","","","",""
"320.89999997615814","","image-keyboard-response","339","359147","0.0-339.0","39RP059MEIF91SRSL0O576S7TICBM6","A10JXOU89D5RXR","39WSF6KUV27TMEQUH506BZR9N6KEO1","","","img/flower5.png","76","322","76","1",""
"null","","html-keyboard-response","340","359464","0.0-340.0","39RP059MEIF91SRSL0O576S7TICBM6","A10JXOU89D5RXR","39WSF6KUV27TMEQUH506BZR9N6KEO1","","","<img src=""img/flower5.png"" style=""width:200px; border:14px solid green;"">","null","","","",""
"667.5999999642372","","image-keyboard-response","341","360132","0.0-341.0","39RP059MEIF91SRSL0O576S7TICBM6","A10JXOU89D5RXR","39WSF6KUV27TMEQUH506BZR9N6KEO1","","","img/flower6.png","74","668.4000000357628","74","1",""
"null","","html-keyboard-response","342","360435","0.0-342.0","39RP059MEIF91SRSL0O576S7TICBM6","A10JXOU89D5RXR","39WSF6KUV27TMEQUH506BZR9N6KEO1","","","<img src=""img/flower6.png"" style=""width:200px; border:14px solid green;"">","null","","","",""
"767","","image-keyboard-response","343","361203","0.0-343.0","39RP059MEIF91SRSL0O576S7TICBM6","A10JXOU89D5RXR","39WSF6KUV27TMEQUH506BZR9N6KEO1","","","img/flower5.png","76","768.3000000119209","76","1",""
"null","","html-keyboard-response","344","361518","0.0-344.0","39RP059MEIF91SRSL0O576S7TICBM6","A10JXOU89D5RXR","39WSF6KUV27TMEQUH506BZR9N6KEO1","","","<img src=""img/flower5.png"" style=""width:200px; border:14px solid green;"">","null","","","",""
"380.89999997615814","","image-keyboard-response","345","361900","0.0-345.0","39RP059MEIF91SRSL0O576S7TICBM6","A10JXOU89D5RXR","39WSF6KUV27TMEQUH506BZR9N6KEO1","","","img/flower5.png","76","381.5999999642372","76","1",""
"null","","html-keyboard-response","346","362208","0.0-346.0","39RP059MEIF91SRSL0O576S7TICBM6","A10JXOU89D5RXR","39WSF6KUV27TMEQUH506BZR9N6KEO1","","","<img src=""img/flower5.png"" style=""width:200px; border:14px solid green;"">","null","","","",""
"506.30000001192093","","image-keyboard-response","347","362715","0.0-347.0","39RP059MEIF91SRSL0O576S7TICBM6","A10JXOU89D5RXR","39WSF6KUV27TMEQUH506BZR9N6KEO1","","","img/flower6.png","74","507.30000001192093","74","1",""
"null","","html-keyboard-response","348","363019","0.0-348.0","39RP059MEIF91SRSL0O576S7TICBM6","A10JXOU89D5RXR","39WSF6KUV27TMEQUH506BZR9N6KEO1","","","<img src=""img/flower6.png"" style=""width:200px; border:14px solid green;"">","null","","","",""
"494.5999999642372","","image-keyboard-response","349","363515","0.0-349.0","39RP059MEIF91SRSL0O576S7TICBM6","A10JXOU89D5RXR","39WSF6KUV27TMEQUH506BZR9N6KEO1","","","img/flower5.png","76","495.7999999523163","76","1",""
"null","","html-keyboard-response","350","363823","0.0-350.0","39RP059MEIF91SRSL0O576S7TICBM6","A10JXOU89D5RXR","39WSF6KUV27TMEQUH506BZR9N6KEO1","","","<img src=""img/flower5.png"" style=""width:200px; border:14px solid green;"">","null","","","",""
"722.8000000119209","","image-keyboard-response","351","364547","0.0-351.0","39RP059MEIF91SRSL0O576S7TICBM6","A10JXOU89D5RXR","39WSF6KUV27TMEQUH506BZR9N6KEO1","","","img/flower8.png","75","723.6999999880791","75","0",""
"null","","html-keyboard-response","352","364860","0.0-352.0","39RP059MEIF91SRSL0O576S7TICBM6","A10JXOU89D5RXR","39WSF6KUV27TMEQUH506BZR9N6KEO1","","","<img src=""img/flower8.png"" style=""width:200px;border:14px solid red;"">","null","","","",""
"686.6999999880791","","image-keyboard-response","353","365548","0.0-353.0","39RP059MEIF91SRSL0O576S7TICBM6","A10JXOU89D5RXR","39WSF6KUV27TMEQUH506BZR9N6KEO1","","","img/flower6.png","74","687.8000000119209","74","0",""
"null","","html-keyboard-response","354","365863","0.0-354.0","39RP059MEIF91SRSL0O576S7TICBM6","A10JXOU89D5RXR","39WSF6KUV27TMEQUH506BZR9N6KEO1","","","<img src=""img/flower6.png"" style=""width:200px;border:14px solid red;"">","null","","","",""
"876.3000000119209","","image-keyboard-response","355","366740","0.0-355.0","39RP059MEIF91SRSL0O576S7TICBM6","A10JXOU89D5RXR","39WSF6KUV27TMEQUH506BZR9N6KEO1","","","img/flower8.png","75","877.1000000238419","75","1",""
"null","","html-keyboard-response","356","367047","0.0-356.0","39RP059MEIF91SRSL0O576S7TICBM6","A10JXOU89D5RXR","39WSF6KUV27TMEQUH506BZR9N6KEO1","","","<img src=""img/flower8.png"" style=""width:200px; border:14px solid green;"">","null","","","",""
"402.69999998807907","","image-keyboard-response","357","367452","0.0-357.0","39RP059MEIF91SRSL0O576S7TICBM6","A10JXOU89D5RXR","39WSF6KUV27TMEQUH506BZR9N6KEO1","","","img/flower8.png","75","404.19999998807907","75","1",""
"null","","html-keyboard-response","358","367767","0.0-358.0","39RP059MEIF91SRSL0O576S7TICBM6","A10JXOU89D5RXR","39WSF6KUV27TMEQUH506BZR9N6KEO1","","","<img src=""img/flower8.png"" style=""width:200px; border:14px solid green;"">","null","","","",""
"811.6999999880791","","image-keyboard-response","359","368580","0.0-359.0","39RP059MEIF91SRSL0O576S7TICBM6","A10JXOU89D5RXR","39WSF6KUV27TMEQUH506BZR9N6KEO1","","","img/flower5.png","76","812.6000000238419","76","0",""
"null","","html-keyboard-response","360","368895","0.0-360.0","39RP059MEIF91SRSL0O576S7TICBM6","A10JXOU89D5RXR","39WSF6KUV27TMEQUH506BZR9N6KEO1","","","<img src=""img/flower5.png"" style=""width:200px;border:14px solid red;"">","null","","","",""
"820.3000000119209","","image-keyboard-response","361","369716","0.0-361.0","39RP059MEIF91SRSL0O576S7TICBM6","A10JXOU89D5RXR","39WSF6KUV27TMEQUH506BZR9N6KEO1","","","img/flower8.png","75","821.1000000238419","75","0",""
"null","","html-keyboard-response","362","370030","0.0-362.0","39RP059MEIF91SRSL0O576S7TICBM6","A10JXOU89D5RXR","39WSF6KUV27TMEQUH506BZR9N6KEO1","","","<img src=""img/flower8.png"" style=""width:200px;border:14px solid red;"">","null","","","",""
"860.5","","image-keyboard-response","363","370892","0.0-363.0","39RP059MEIF91SRSL0O576S7TICBM6","A10JXOU89D5RXR","39WSF6KUV27TMEQUH506BZR9N6KEO1","","","img/flower6.png","76","861.4000000357628","76","1",""
"null","","html-keyboard-response","364","371204","0.0-364.0","39RP059MEIF91SRSL0O576S7TICBM6","A10JXOU89D5RXR","39WSF6KUV27TMEQUH506BZR9N6KEO1","","","<img src=""img/flower6.png"" style=""width:200px; border:14px solid green;"">","null","","","",""
"493.9000000357628","","image-keyboard-response","365","371700","0.0-365.0","39RP059MEIF91SRSL0O576S7TICBM6","A10JXOU89D5RXR","39WSF6KUV27TMEQUH506BZR9N6KEO1","","","img/flower6.png","76","495","76","0",""
"null","","html-keyboard-response","366","372015","0.0-366.0","39RP059MEIF91SRSL0O576S7TICBM6","A10JXOU89D5RXR","39WSF6KUV27TMEQUH506BZR9N6KEO1","","","<img src=""img/flower6.png"" style=""width:200px;border:14px solid red;"">","null","","","",""
"1027.5","","image-keyboard-response","367","373044","0.0-367.0","39RP059MEIF91SRSL0O576S7TICBM6","A10JXOU89D5RXR","39WSF6KUV27TMEQUH506BZR9N6KEO1","","","img/flower5.png","74","1028.5","74","0",""
"null","","html-keyboard-response","368","373358","0.0-368.0","39RP059MEIF91SRSL0O576S7TICBM6","A10JXOU89D5RXR","39WSF6KUV27TMEQUH506BZR9N6KEO1","","","<img src=""img/flower5.png"" style=""width:200px;border:14px solid red;"">","null","","","",""
"868.3999999761581","","image-keyboard-response","369","374227","0.0-369.0","39RP059MEIF91SRSL0O576S7TICBM6","A10JXOU89D5RXR","39WSF6KUV27TMEQUH506BZR9N6KEO1","","","img/flower8.png","75","869.2999999523163","75","0",""
"null","","html-keyboard-response","370","374543","0.0-370.0","39RP059MEIF91SRSL0O576S7TICBM6","A10JXOU89D5RXR","39WSF6KUV27TMEQUH506BZR9N6KEO1","","","<img src=""img/flower8.png"" style=""width:200px;border:14px solid red;"">","null","","","",""
"340.30000001192093","","image-keyboard-response","371","374884","0.0-371.0","39RP059MEIF91SRSL0O576S7TICBM6","A10JXOU89D5RXR","39WSF6KUV27TMEQUH506BZR9N6KEO1","","","img/flower8.png","75","341.19999998807907","75","1",""
"null","","html-keyboard-response","372","375200","0.0-372.0","39RP059MEIF91SRSL0O576S7TICBM6","A10JXOU89D5RXR","39WSF6KUV27TMEQUH506BZR9N6KEO1","","","<img src=""img/flower8.png"" style=""width:200px; border:14px solid green;"">","null","","","",""
"866.5","","image-keyboard-response","373","376068","0.0-373.0","39RP059MEIF91SRSL0O576S7TICBM6","A10JXOU89D5RXR","39WSF6KUV27TMEQUH506BZR9N6KEO1","","","img/flower6.png","76","867.4000000357628","76","0",""
"null","","html-keyboard-response","374","376374","0.0-374.0","39RP059MEIF91SRSL0O576S7TICBM6","A10JXOU89D5RXR","39WSF6KUV27TMEQUH506BZR9N6KEO1","","","<img src=""img/flower6.png"" style=""width:200px;border:14px solid red;"">","null","","","",""
"565.1000000238419","","image-keyboard-response","375","376940","0.0-375.0","39RP059MEIF91SRSL0O576S7TICBM6","A10JXOU89D5RXR","39WSF6KUV27TMEQUH506BZR9N6KEO1","","","img/flower6.png","74","565.9000000357628","74","1",""
"null","","html-keyboard-response","376","377247","0.0-376.0","39RP059MEIF91SRSL0O576S7TICBM6","A10JXOU89D5RXR","39WSF6KUV27TMEQUH506BZR9N6KEO1","","","<img src=""img/flower6.png"" style=""width:200px; border:14px solid green;"">","null","","","",""
"651.6999999880791","","image-keyboard-response","377","377900","0.0-377.0","39RP059MEIF91SRSL0O576S7TICBM6","A10JXOU89D5RXR","39WSF6KUV27TMEQUH506BZR9N6KEO1","","","img/flower8.png","75","652.6999999880791","75","1",""
"null","","html-keyboard-response","378","378216","0.0-378.0","39RP059MEIF91SRSL0O576S7TICBM6","A10JXOU89D5RXR","39WSF6KUV27TMEQUH506BZR9N6KEO1","","","<img src=""img/flower8.png"" style=""width:200px; border:14px solid green;"">","null","","","",""
"410.9000000357628","","image-keyboard-response","379","378628","0.0-379.0","39RP059MEIF91SRSL0O576S7TICBM6","A10JXOU89D5RXR","39WSF6KUV27TMEQUH506BZR9N6KEO1","","","img/flower8.png","75","411.9000000357628","75","1",""
"null","","html-keyboard-response","380","378939","0.0-380.0","39RP059MEIF91SRSL0O576S7TICBM6","A10JXOU89D5RXR","39WSF6KUV27TMEQUH506BZR9N6KEO1","","","<img src=""img/flower8.png"" style=""width:200px; border:14px solid green;"">","null","","","",""
"383.30000001192093","","image-keyboard-response","381","379323","0.0-381.0","39RP059MEIF91SRSL0O576S7TICBM6","A10JXOU89D5RXR","39WSF6KUV27TMEQUH506BZR9N6KEO1","","","img/flower8.png","75","384.5","75","1",""
"null","","html-keyboard-response","382","379629","0.0-382.0","39RP059MEIF91SRSL0O576S7TICBM6","A10JXOU89D5RXR","39WSF6KUV27TMEQUH506BZR9N6KEO1","","","<img src=""img/flower8.png"" style=""width:200px; border:14px solid green;"">","null","","","",""
"854.0999999642372","","image-keyboard-response","383","380485","0.0-383.0","39RP059MEIF91SRSL0O576S7TICBM6","A10JXOU89D5RXR","39WSF6KUV27TMEQUH506BZR9N6KEO1","","","img/flower5.png","76","855.4000000357628","76","1",""
"null","","html-keyboard-response","384","380800","0.0-384.0","39RP059MEIF91SRSL0O576S7TICBM6","A10JXOU89D5RXR","39WSF6KUV27TMEQUH506BZR9N6KEO1","","","<img src=""img/flower5.png"" style=""width:200px; border:14px solid green;"">","null","","","",""
"337.69999998807907","","image-keyboard-response","385","381140","0.0-385.0","39RP059MEIF91SRSL0O576S7TICBM6","A10JXOU89D5RXR","39WSF6KUV27TMEQUH506BZR9N6KEO1","","","img/flower5.png","76","339.9000000357628","76","1",""
"null","","html-keyboard-response","386","381453","0.0-386.0","39RP059MEIF91SRSL0O576S7TICBM6","A10JXOU89D5RXR","39WSF6KUV27TMEQUH506BZR9N6KEO1","","","<img src=""img/flower5.png"" style=""width:200px; border:14px solid green;"">","null","","","",""
"317.5999999642372","","image-keyboard-response","387","381772","0.0-387.0","39RP059MEIF91SRSL0O576S7TICBM6","A10JXOU89D5RXR","39WSF6KUV27TMEQUH506BZR9N6KEO1","","","img/flower5.png","76","318.30000001192093","76","1",""
"null","","html-keyboard-response","388","382077","0.0-388.0","39RP059MEIF91SRSL0O576S7TICBM6","A10JXOU89D5RXR","39WSF6KUV27TMEQUH506BZR9N6KEO1","","","<img src=""img/flower5.png"" style=""width:200px; border:14px solid green;"">","null","","","",""
"325","","image-keyboard-response","389","382403","0.0-389.0","39RP059MEIF91SRSL0O576S7TICBM6","A10JXOU89D5RXR","39WSF6KUV27TMEQUH506BZR9N6KEO1","","","img/flower5.png","76","325.7999999523163","76","1",""
"null","","html-keyboard-response","390","382717","0.0-390.0","39RP059MEIF91SRSL0O576S7TICBM6","A10JXOU89D5RXR","39WSF6KUV27TMEQUH506BZR9N6KEO1","","","<img src=""img/flower5.png"" style=""width:200px; border:14px solid green;"">","null","","","",""
"733.1999999880791","","image-keyboard-response","391","383452","0.0-391.0","39RP059MEIF91SRSL0O576S7TICBM6","A10JXOU89D5RXR","39WSF6KUV27TMEQUH506BZR9N6KEO1","","","img/flower8.png","75","734.4000000357628","75","1",""
"null","","html-keyboard-response","392","383762","0.0-392.0","39RP059MEIF91SRSL0O576S7TICBM6","A10JXOU89D5RXR","39WSF6KUV27TMEQUH506BZR9N6KEO1","","","<img src=""img/flower8.png"" style=""width:200px; border:14px solid green;"">","null","","","",""
"599.7000000476837","","image-keyboard-response","393","384364","0.0-393.0","39RP059MEIF91SRSL0O576S7TICBM6","A10JXOU89D5RXR","39WSF6KUV27TMEQUH506BZR9N6KEO1","","","img/flower5.png","76","600.5","76","1",""
"null","","html-keyboard-response","394","384680","0.0-394.0","39RP059MEIF91SRSL0O576S7TICBM6","A10JXOU89D5RXR","39WSF6KUV27TMEQUH506BZR9N6KEO1","","","<img src=""img/flower5.png"" style=""width:200px; border:14px solid green;"">","null","","","",""
"347.10000002384186","","image-keyboard-response","395","385028","0.0-395.0","39RP059MEIF91SRSL0O576S7TICBM6","A10JXOU89D5RXR","39WSF6KUV27TMEQUH506BZR9N6KEO1","","","img/flower5.png","76","348","76","1",""
"null","","html-keyboard-response","396","385336","0.0-396.0","39RP059MEIF91SRSL0O576S7TICBM6","A10JXOU89D5RXR","39WSF6KUV27TMEQUH506BZR9N6KEO1","","","<img src=""img/flower5.png"" style=""width:200px; border:14px solid green;"">","null","","","",""
"586.8000000119209","","image-keyboard-response","397","385924","0.0-397.0","39RP059MEIF91SRSL0O576S7TICBM6","A10JXOU89D5RXR","39WSF6KUV27TMEQUH506BZR9N6KEO1","","","img/flower6.png","75","587.8000000119209","75","0",""
"null","","html-keyboard-response","398","386240","0.0-398.0","39RP059MEIF91SRSL0O576S7TICBM6","A10JXOU89D5RXR","39WSF6KUV27TMEQUH506BZR9N6KEO1","","","<img src=""img/flower6.png"" style=""width:200px;border:14px solid red;"">","null","","","",""
"427.0999999642372","","image-keyboard-response","399","386668","0.0-399.0","39RP059MEIF91SRSL0O576S7TICBM6","A10JXOU89D5RXR","39WSF6KUV27TMEQUH506BZR9N6KEO1","","","img/flower6.png","74","428","74","1",""
"null","","html-keyboard-response","400","386978","0.0-400.0","39RP059MEIF91SRSL0O576S7TICBM6","A10JXOU89D5RXR","39WSF6KUV27TMEQUH506BZR9N6KEO1","","","<img src=""img/flower6.png"" style=""width:200px; border:14px solid green;"">","null","","","",""
"584.6000000238419","","image-keyboard-response","401","387564","0.0-401.0","39RP059MEIF91SRSL0O576S7TICBM6","A10JXOU89D5RXR","39WSF6KUV27TMEQUH506BZR9N6KEO1","","","img/flower8.png","75","585.3999999761581","75","1",""
"null","","html-keyboard-response","402","387867","0.0-402.0","39RP059MEIF91SRSL0O576S7TICBM6","A10JXOU89D5RXR","39WSF6KUV27TMEQUH506BZR9N6KEO1","","","<img src=""img/flower8.png"" style=""width:200px; border:14px solid green;"">","null","","","",""
"599.1999999880791","","image-keyboard-response","403","388467","0.0-403.0","39RP059MEIF91SRSL0O576S7TICBM6","A10JXOU89D5RXR","39WSF6KUV27TMEQUH506BZR9N6KEO1","","","img/flower6.png","74","600.0999999642372","74","1",""
"null","","html-keyboard-response","404","388779","0.0-404.0","39RP059MEIF91SRSL0O576S7TICBM6","A10JXOU89D5RXR","39WSF6KUV27TMEQUH506BZR9N6KEO1","","","<img src=""img/flower6.png"" style=""width:200px; border:14px solid green;"">","null","","","",""
"399","","image-keyboard-response","405","389179","0.0-405.0","39RP059MEIF91SRSL0O576S7TICBM6","A10JXOU89D5RXR","39WSF6KUV27TMEQUH506BZR9N6KEO1","","","img/flower6.png","74","400.10000002384186","74","0",""
"null","","html-keyboard-response","406","389481","0.0-406.0","39RP059MEIF91SRSL0O576S7TICBM6","A10JXOU89D5RXR","39WSF6KUV27TMEQUH506BZR9N6KEO1","","","<img src=""img/flower6.png"" style=""width:200px;border:14px solid red;"">","null","","","",""
"394.19999998807907","","image-keyboard-response","407","389877","0.0-407.0","39RP059MEIF91SRSL0O576S7TICBM6","A10JXOU89D5RXR","39WSF6KUV27TMEQUH506BZR9N6KEO1","","","img/flower6.png","74","395","74","0",""
"null","","html-keyboard-response","408","390187","0.0-408.0","39RP059MEIF91SRSL0O576S7TICBM6","A10JXOU89D5RXR","39WSF6KUV27TMEQUH506BZR9N6KEO1","","","<img src=""img/flower6.png"" style=""width:200px;border:14px solid red;"">","null","","","",""
"414.89999997615814","","image-keyboard-response","409","390603","0.0-409.0","39RP059MEIF91SRSL0O576S7TICBM6","A10JXOU89D5RXR","39WSF6KUV27TMEQUH506BZR9N6KEO1","","","img/flower6.png","74","415.89999997615814","74","1",""
"null","","html-keyboard-response","410","390920","0.0-410.0","39RP059MEIF91SRSL0O576S7TICBM6","A10JXOU89D5RXR","39WSF6KUV27TMEQUH506BZR9N6KEO1","","","<img src=""img/flower6.png"" style=""width:200px; border:14px solid green;"">","null","","","",""
"690.8000000119209","","image-keyboard-response","411","391612","0.0-411.0","39RP059MEIF91SRSL0O576S7TICBM6","A10JXOU89D5RXR","39WSF6KUV27TMEQUH506BZR9N6KEO1","","","img/flower8.png","75","691.6000000238419","75","1",""
"null","","html-keyboard-response","412","391918","0.0-412.0","39RP059MEIF91SRSL0O576S7TICBM6","A10JXOU89D5RXR","39WSF6KUV27TMEQUH506BZR9N6KEO1","","","<img src=""img/flower8.png"" style=""width:200px; border:14px solid green;"">","null","","","",""
"644.0999999642372","","image-keyboard-response","413","392563","0.0-413.0","39RP059MEIF91SRSL0O576S7TICBM6","A10JXOU89D5RXR","39WSF6KUV27TMEQUH506BZR9N6KEO1","","","img/flower6.png","74","644.8999999761581","74","1",""
"null","","html-keyboard-response","414","392871","0.0-414.0","39RP059MEIF91SRSL0O576S7TICBM6","A10JXOU89D5RXR","39WSF6KUV27TMEQUH506BZR9N6KEO1","","","<img src=""img/flower6.png"" style=""width:200px; border:14px solid green;"">","null","","","",""
"386.89999997615814","","image-keyboard-response","415","393259","0.0-415.0","39RP059MEIF91SRSL0O576S7TICBM6","A10JXOU89D5RXR","39WSF6KUV27TMEQUH506BZR9N6KEO1","","","img/flower6.png","74","387.7999999523163","74","1",""
"null","","html-keyboard-response","416","393576","0.0-416.0","39RP059MEIF91SRSL0O576S7TICBM6","A10JXOU89D5RXR","39WSF6KUV27TMEQUH506BZR9N6KEO1","","","<img src=""img/flower6.png"" style=""width:200px; border:14px solid green;"">","null","","","",""
"394.30000001192093","","image-keyboard-response","417","393972","0.0-417.0","39RP059MEIF91SRSL0O576S7TICBM6","A10JXOU89D5RXR","39WSF6KUV27TMEQUH506BZR9N6KEO1","","","img/flower6.png","74","395.30000001192093","74","0",""
"null","","html-keyboard-response","418","394279","0.0-418.0","39RP059MEIF91SRSL0O576S7TICBM6","A10JXOU89D5RXR","39WSF6KUV27TMEQUH506BZR9N6KEO1","","","<img src=""img/flower6.png"" style=""width:200px;border:14px solid red;"">","null","","","",""
"580.3000000119209","","image-keyboard-response","419","394860","0.0-419.0","39RP059MEIF91SRSL0O576S7TICBM6","A10JXOU89D5RXR","39WSF6KUV27TMEQUH506BZR9N6KEO1","","","img/flower5.png","75","581.3000000119209","75","1",""
"null","","html-keyboard-response","420","395169","0.0-420.0","39RP059MEIF91SRSL0O576S7TICBM6","A10JXOU89D5RXR","39WSF6KUV27TMEQUH506BZR9N6KEO1","","","<img src=""img/flower5.png"" style=""width:200px; border:14px solid green;"">","null","","","",""
"682.2999999523163","","image-keyboard-response","421","395853","0.0-421.0","39RP059MEIF91SRSL0O576S7TICBM6","A10JXOU89D5RXR","39WSF6KUV27TMEQUH506BZR9N6KEO1","","","img/flower8.png","75","683.1999999880791","75","1",""
"null","","html-keyboard-response","422","396168","0.0-422.0","39RP059MEIF91SRSL0O576S7TICBM6","A10JXOU89D5RXR","39WSF6KUV27TMEQUH506BZR9N6KEO1","","","<img src=""img/flower8.png"" style=""width:200px; border:14px solid green;"">","null","","","",""
"419.69999998807907","","image-keyboard-response","423","396589","0.0-423.0","39RP059MEIF91SRSL0O576S7TICBM6","A10JXOU89D5RXR","39WSF6KUV27TMEQUH506BZR9N6KEO1","","","img/flower8.png","75","421","75","1",""
"null","","html-keyboard-response","424","396901","0.0-424.0","39RP059MEIF91SRSL0O576S7TICBM6","A10JXOU89D5RXR","39WSF6KUV27TMEQUH506BZR9N6KEO1","","","<img src=""img/flower8.png"" style=""width:200px; border:14px solid green;"">","null","","","",""
"797.8999999761581","","image-keyboard-response","425","397700","0.0-425.0","39RP059MEIF91SRSL0O576S7TICBM6","A10JXOU89D5RXR","39WSF6KUV27TMEQUH506BZR9N6KEO1","","","img/flower6.png","76","798.7000000476837","76","0",""
"null","","html-keyboard-response","426","398008","0.0-426.0","39RP059MEIF91SRSL0O576S7TICBM6","A10JXOU89D5RXR","39WSF6KUV27TMEQUH506BZR9N6KEO1","","","<img src=""img/flower6.png"" style=""width:200px;border:14px solid red;"">","null","","","",""
"1506.3999999761581","","image-keyboard-response","427","399516","0.0-427.0","39RP059MEIF91SRSL0O576S7TICBM6","A10JXOU89D5RXR","39WSF6KUV27TMEQUH506BZR9N6KEO1","","","img/flower5.png","74","1507.5","74","0",""
"null","","html-keyboard-response","428","399828","0.0-428.0","39RP059MEIF91SRSL0O576S7TICBM6","A10JXOU89D5RXR","39WSF6KUV27TMEQUH506BZR9N6KEO1","","","<img src=""img/flower5.png"" style=""width:200px;border:14px solid red;"">","null","","","",""
"950.5","","image-keyboard-response","429","400780","0.0-429.0","39RP059MEIF91SRSL0O576S7TICBM6","A10JXOU89D5RXR","39WSF6KUV27TMEQUH506BZR9N6KEO1","","","img/flower6.png","76","951.4000000357628","76","1",""
