"success","trial_type","trial_index","time_elapsed","internal_node_id","assignmentID","mturkID","hitID","view_history","rt","stimulus","key_press","reactionTime","a","r","s","cond","reward_cond","reward_cond_actual","reward_matrix_idx","responses"
"true","fullscreen","0","3480","0.0-0.0","3YGXWBAF713C77USTWK4WWHPTWKC4K","A11JGMLOFFPV65","3UUIU9GZC5R93N292LT21FRJ9VS5TN","","","","","","","","","","","","",""
"","instructions","1","33588","0.0-1.0","3YGXWBAF713C77USTWK4WWHPTWKC4K","A11JGMLOFFPV65","3UUIU9GZC5R93N292LT21FRJ9VS5TN","[{""page_index"":0,""viewing_time"":1916.5},{""page_index"":1,""viewing_time"":1939.9000000059605},{""page_index"":2,""viewing_time"":2279.300000011921},{""page_index"":3,""viewing_time"":985.0999999940395},{""page_index"":4,""viewing_time"":14584.5},{""page_index"":5,""viewing_time"":5839.9000000059605},{""page_index"":6,""viewing_time"":1190},{""page_index"":7,""viewing_time"":1370.5}]","30106.20000001788","","","","","","","","","","",""
"","image-keyboard-response","2","35338","0.0-2.0","3YGXWBAF713C77USTWK4WWHPTWKC4K","A11JGMLOFFPV65","3UUIU9GZC5R93N292LT21FRJ9VS5TN","","1746.8999999761581","img/flower6.png","74","1748.800000011921","1","1","1","1","1,0.333,0.333,0.333,1,0.333,0.333,0.333,1","1,0.333,0.333,0.333,1,0.333,0.333,0.333,1","1",""
"","html-keyboard-response","3","35641","0.0-3.0","3YGXWBAF713C77USTWK4WWHPTWKC4K","A11JGMLOFFPV65","3UUIU9GZC5R93N292LT21FRJ9VS5TN","","null","<img src=""img/flower6.png"" style=""width:200px; border:14px solid green;"">","null","","","","","","","","",""
"","image-keyboard-response","4","37407","0.0-4.0","3YGXWBAF713C77USTWK4WWHPTWKC4K","A11JGMLOFFPV65","3UUIU9GZC5R93N292LT21FRJ9VS5TN","","1764.300000011921","img/flower2.png","75","1765.2000000178814","2","1","2","1","1,0.333,0.333,0.333,1,0.333,0.333,0.333,1","1,0.333,0.333,0.333,1,0.333,0.333,0.333,1","1",""
"","html-keyboard-response","5","37710","0.0-5.0","3YGXWBAF713C77USTWK4WWHPTWKC4K","A11JGMLOFFPV65","3UUIU9GZC5R93N292LT21FRJ9VS5TN","","null","<img src=""img/flower2.png"" style=""width:200px; border:14px solid green;"">","null","","","","","","","","",""
"","image-keyboard-response","6","39577","0.0-6.0","3YGXWBAF713C77USTWK4WWHPTWKC4K","A11JGMLOFFPV65","3UUIU9GZC5R93N292LT21FRJ9VS5TN","","1866","img/flower5.png","74","1867.0999999940395","1","1","3","1","1,0.333,0.333,0.333,1,0.333,0.333,0.333,1","1,0.333,0.333,0.333,1,0.333,0.333,0.333,1","1",""
"","html-keyboard-response","7","39880","0.0-7.0","3YGXWBAF713C77USTWK4WWHPTWKC4K","A11JGMLOFFPV65","3UUIU9GZC5R93N292LT21FRJ9VS5TN","","null","<img src=""img/flower5.png"" style=""width:200px; border:14px solid green;"">","null","","","","","","","","",""
"","image-keyboard-response","8","41447","0.0-8.0","3YGXWBAF713C77USTWK4WWHPTWKC4K","A11JGMLOFFPV65","3UUIU9GZC5R93N292LT21FRJ9VS5TN","","1565.800000011921","img/flower6.png","75","1566.800000011921","2","0","1","1","1,0.333,0.333,0.333,1,0.333,0.333,0.333,1","1,0.333,0.333,0.333,1,0.333,0.333,0.333,1","1",""
"","html-keyboard-response","9","41749","0.0-9.0","3YGXWBAF713C77USTWK4WWHPTWKC4K","A11JGMLOFFPV65","3UUIU9GZC5R93N292LT21FRJ9VS5TN","","null","<img src=""img/flower6.png"" style=""width:200px;border:14px solid red;"">","null","","","","","","","","",""
"","image-keyboard-response","10","43507","0.0-10.0","3YGXWBAF713C77USTWK4WWHPTWKC4K","A11JGMLOFFPV65","3UUIU9GZC5R93N292LT21FRJ9VS5TN","","1756.800000011921","img/flower6.png","74","1757.9000000059605","1","1","1","1","1,0.333,0.333,0.333,1,0.333,0.333,0.333,1","1,0.333,0.333,0.333,1,0.333,0.333,0.333,1","1",""
"","html-keyboard-response","11","43810","0.0-11.0","3YGXWBAF713C77USTWK4WWHPTWKC4K","A11JGMLOFFPV65","3UUIU9GZC5R93N292LT21FRJ9VS5TN","","null","<img src=""img/flower6.png"" style=""width:200px; border:14px solid green;"">","null","","","","","","","","",""
"","image-keyboard-response","12","45812","0.0-12.0","3YGXWBAF713C77USTWK4WWHPTWKC4K","A11JGMLOFFPV65","3UUIU9GZC5R93N292LT21FRJ9VS5TN","","","img/flower2.png","","2002.2999999821186","-1","0","2","1","1,0.333,0.333,0.333,1,0.333,0.333,0.333,1","1,0.333,0.333,0.333,1,0.333,0.333,0.333,1","1",""
"","html-keyboard-response","13","46115","0.0-13.0","3YGXWBAF713C77USTWK4WWHPTWKC4K","A11JGMLOFFPV65","3UUIU9GZC5R93N292LT21FRJ9VS5TN","","null","<img src=""img/flower2.png"" style=""width:200px;border:14px solid red;"">","null","","","","","","","","",""
"","image-keyboard-response","14","47447","0.0-14.0","3YGXWBAF713C77USTWK4WWHPTWKC4K","A11JGMLOFFPV65","3UUIU9GZC5R93N292LT21FRJ9VS5TN","","1331.199999988079","img/flower2.png","75","1332.0999999940395","2","1","2","1","1,0.333,0.333,0.333,1,0.333,0.333,0.333,1","1,0.333,0.333,0.333,1,0.333,0.333,0.333,1","1",""
"","html-keyboard-response","15","47749","0.0-15.0","3YGXWBAF713C77USTWK4WWHPTWKC4K","A11JGMLOFFPV65","3UUIU9GZC5R93N292LT21FRJ9VS5TN","","null","<img src=""img/flower2.png"" style=""width:200px; border:14px solid green;"">","null","","","","","","","","",""
"","image-keyboard-response","16","49626","0.0-16.0","3YGXWBAF713C77USTWK4WWHPTWKC4K","A11JGMLOFFPV65","3UUIU9GZC5R93N292LT21FRJ9VS5TN","","1875.9000000059605","img/flower5.png","75","1877","2","0","3","1","1,0.333,0.333,0.333,1,0.333,0.333,0.333,1","1,0.333,0.333,0.333,1,0.333,0.333,0.333,1","1",""
"","html-keyboard-response","17","49929","0.0-17.0","3YGXWBAF713C77USTWK4WWHPTWKC4K","A11JGMLOFFPV65","3UUIU9GZC5R93N292LT21FRJ9VS5TN","","null","<img src=""img/flower5.png"" style=""width:200px;border:14px solid red;"">","null","","","","","","","","",""
"","image-keyboard-response","18","51931","0.0-18.0","3YGXWBAF713C77USTWK4WWHPTWKC4K","A11JGMLOFFPV65","3UUIU9GZC5R93N292LT21FRJ9VS5TN","","","img/flower5.png","","2002.300000011921","-1","0","3","1","1,0.333,0.333,0.333,1,0.333,0.333,0.333,1","1,0.333,0.333,0.333,1,0.333,0.333,0.333,1","1",""
"","html-keyboard-response","19","52234","0.0-19.0","3YGXWBAF713C77USTWK4WWHPTWKC4K","A11JGMLOFFPV65","3UUIU9GZC5R93N292LT21FRJ9VS5TN","","null","<img src=""img/flower5.png"" style=""width:200px;border:14px solid red;"">","null","","","","","","","","",""
"","image-keyboard-response","20","53006","0.0-20.0","3YGXWBAF713C77USTWK4WWHPTWKC4K","A11JGMLOFFPV65","3UUIU9GZC5R93N292LT21FRJ9VS5TN","","771.4000000059605","img/flower2.png","74","772.1999999880791","1","0","2","1","1,0.333,0.333,0.333,1,0.333,0.333,0.333,1","1,0.333,0.333,0.333,1,0.333,0.333,0.333,1","1",""
"","html-keyboard-response","21","53309","0.0-21.0","3YGXWBAF713C77USTWK4WWHPTWKC4K","A11JGMLOFFPV65","3UUIU9GZC5R93N292LT21FRJ9VS5TN","","null","<img src=""img/flower2.png"" style=""width:200px;border:14px solid red;"">","null","","","","","","","","",""
"","image-keyboard-response","22","53946","0.0-22.0","3YGXWBAF713C77USTWK4WWHPTWKC4K","A11JGMLOFFPV65","3UUIU9GZC5R93N292LT21FRJ9VS5TN","","636.7000000178814","img/flower2.png","75","637.5","2","1","2","1","1,0.333,0.333,0.333,1,0.333,0.333,0.333,1","1,0.333,0.333,0.333,1,0.333,0.333,0.333,1","1",""
"","html-keyboard-response","23","54248","0.0-23.0","3YGXWBAF713C77USTWK4WWHPTWKC4K","A11JGMLOFFPV65","3UUIU9GZC5R93N292LT21FRJ9VS5TN","","null","<img src=""img/flower2.png"" style=""width:200px; border:14px solid green;"">","null","","","","","","","","",""
"","image-keyboard-response","24","56251","0.0-24.0","3YGXWBAF713C77USTWK4WWHPTWKC4K","A11JGMLOFFPV65","3UUIU9GZC5R93N292LT21FRJ9VS5TN","","","img/flower6.png","","2002.2999999821186","-1","0","1","1","1,0.333,0.333,0.333,1,0.333,0.333,0.333,1","1,0.333,0.333,0.333,1,0.333,0.333,0.333,1","1",""
"","html-keyboard-response","25","56553","0.0-25.0","3YGXWBAF713C77USTWK4WWHPTWKC4K","A11JGMLOFFPV65","3UUIU9GZC5R93N292LT21FRJ9VS5TN","","null","<img src=""img/flower6.png"" style=""width:200px;border:14px solid red;"">","null","","","","","","","","",""
"","image-keyboard-response","26","57951","0.0-26.0","3YGXWBAF713C77USTWK4WWHPTWKC4K","A11JGMLOFFPV65","3UUIU9GZC5R93N292LT21FRJ9VS5TN","","1396.800000011921","img/flower6.png","74","1397.800000011921","1","1","1","1","1,0.333,0.333,0.333,1,0.333,0.333,0.333,1","1,0.333,0.333,0.333,1,0.333,0.333,0.333,1","1",""
"","html-keyboard-response","27","58254","0.0-27.0","3YGXWBAF713C77USTWK4WWHPTWKC4K","A11JGMLOFFPV65","3UUIU9GZC5R93N292LT21FRJ9VS5TN","","null","<img src=""img/flower6.png"" style=""width:200px; border:14px solid green;"">","null","","","","","","","","",""
"","image-keyboard-response","28","60177","0.0-28.0","3YGXWBAF713C77USTWK4WWHPTWKC4K","A11JGMLOFFPV65","3UUIU9GZC5R93N292LT21FRJ9VS5TN","","1921.0999999940395","img/flower5.png","75","1921.9000000059605","2","1","3","1","1,0.333,0.333,0.333,1,0.333,0.333,0.333,1","1,0.333,0.333,0.333,1,0.333,0.333,0.333,1","1",""
"","html-keyboard-response","29","60479","0.0-29.0","3YGXWBAF713C77USTWK4WWHPTWKC4K","A11JGMLOFFPV65","3UUIU9GZC5R93N292LT21FRJ9VS5TN","","null","<img src=""img/flower5.png"" style=""width:200px; border:14px solid green;"">","null","","","","","","","","",""
"","image-keyboard-response","30","61697","0.0-30.0","3YGXWBAF713C77USTWK4WWHPTWKC4K","A11JGMLOFFPV65","3UUIU9GZC5R93N292LT21FRJ9VS5TN","","1216.9000000059605","img/flower2.png","75","1217.7999999821186","2","1","2","1","1,0.333,0.333,0.333,1,0.333,0.333,0.333,1","1,0.333,0.333,0.333,1,0.333,0.333,0.333,1","1",""
"","html-keyboard-response","31","62000","0.0-31.0","3YGXWBAF713C77USTWK4WWHPTWKC4K","A11JGMLOFFPV65","3UUIU9GZC5R93N292LT21FRJ9VS5TN","","null","<img src=""img/flower2.png"" style=""width:200px; border:14px solid green;"">","null","","","","","","","","",""
"","image-keyboard-response","32","64002","0.0-32.0","3YGXWBAF713C77USTWK4WWHPTWKC4K","A11JGMLOFFPV65","3UUIU9GZC5R93N292LT21FRJ9VS5TN","","","img/flower6.png","","2002.2999999821186","-1","0","1","1","1,0.333,0.333,0.333,1,0.333,0.333,0.333,1","1,0.333,0.333,0.333,1,0.333,0.333,0.333,1","1",""
"","html-keyboard-response","33","64304","0.0-33.0","3YGXWBAF713C77USTWK4WWHPTWKC4K","A11JGMLOFFPV65","3UUIU9GZC5R93N292LT21FRJ9VS5TN","","null","<img src=""img/flower6.png"" style=""width:200px;border:14px solid red;"">","null","","","","","","","","",""
"","image-keyboard-response","34","65017","0.0-34.0","3YGXWBAF713C77USTWK4WWHPTWKC4K","A11JGMLOFFPV65","3UUIU9GZC5R93N292LT21FRJ9VS5TN","","711.7999999821186","img/flower2.png","74","712.8000000119209","1","1","2","1","1,0.333,0.333,0.333,1,0.333,0.333,0.333,1","1,0.333,0.333,0.333,1,0.333,0.333,0.333,1","1",""
"","html-keyboard-response","35","65320","0.0-35.0","3YGXWBAF713C77USTWK4WWHPTWKC4K","A11JGMLOFFPV65","3UUIU9GZC5R93N292LT21FRJ9VS5TN","","null","<img src=""img/flower2.png"" style=""width:200px; border:14px solid green;"">","null","","","","","","","","",""
"","image-keyboard-response","36","67322","0.0-36.0","3YGXWBAF713C77USTWK4WWHPTWKC4K","A11JGMLOFFPV65","3UUIU9GZC5R93N292LT21FRJ9VS5TN","","","img/flower6.png","","2002.2000000178814","-1","0","1","1","1,0.333,0.333,0.333,1,0.333,0.333,0.333,1","1,0.333,0.333,0.333,1,0.333,0.333,0.333,1","1",""
"","html-keyboard-response","37","67624","0.0-37.0","3YGXWBAF713C77USTWK4WWHPTWKC4K","A11JGMLOFFPV65","3UUIU9GZC5R93N292LT21FRJ9VS5TN","","null","<img src=""img/flower6.png"" style=""width:200px;border:14px solid red;"">","null","","","","","","","","",""
"","image-keyboard-response","38","69223","0.0-38.0","3YGXWBAF713C77USTWK4WWHPTWKC4K","A11JGMLOFFPV65","3UUIU9GZC5R93N292LT21FRJ9VS5TN","","1597.5999999940395","img/flower2.png","75","1598.4000000059605","2","1","2","1","1,0.333,0.333,0.333,1,0.333,0.333,0.333,1","1,0.333,0.333,0.333,1,0.333,0.333,0.333,1","1",""
"","html-keyboard-response","39","69525","0.0-39.0","3YGXWBAF713C77USTWK4WWHPTWKC4K","A11JGMLOFFPV65","3UUIU9GZC5R93N292LT21FRJ9VS5TN","","null","<img src=""img/flower2.png"" style=""width:200px; border:14px solid green;"">","null","","","","","","","","",""
"","image-keyboard-response","40","71528","0.0-40.0","3YGXWBAF713C77USTWK4WWHPTWKC4K","A11JGMLOFFPV65","3UUIU9GZC5R93N292LT21FRJ9VS5TN","","","img/flower5.png","","2002.2999999821186","-1","0","3","1","1,0.333,0.333,0.333,1,0.333,0.333,0.333,1","1,0.333,0.333,0.333,1,0.333,0.333,0.333,1","1",""
"","html-keyboard-response","41","71830","0.0-41.0","3YGXWBAF713C77USTWK4WWHPTWKC4K","A11JGMLOFFPV65","3UUIU9GZC5R93N292LT21FRJ9VS5TN","","null","<img src=""img/flower5.png"" style=""width:200px;border:14px solid red;"">","null","","","","","","","","",""
"","image-keyboard-response","42","73108","0.0-42.0","3YGXWBAF713C77USTWK4WWHPTWKC4K","A11JGMLOFFPV65","3UUIU9GZC5R93N292LT21FRJ9VS5TN","","1276.7999999821186","img/flower2.png","75","1277.800000011921","2","1","2","1","1,0.333,0.333,0.333,1,0.333,0.333,0.333,1","1,0.333,0.333,0.333,1,0.333,0.333,0.333,1","1",""
"","html-keyboard-response","43","73410","0.0-43.0","3YGXWBAF713C77USTWK4WWHPTWKC4K","A11JGMLOFFPV65","3UUIU9GZC5R93N292LT21FRJ9VS5TN","","null","<img src=""img/flower2.png"" style=""width:200px; border:14px solid green;"">","null","","","","","","","","",""
"","image-keyboard-response","44","74457","0.0-44.0","3YGXWBAF713C77USTWK4WWHPTWKC4K","A11JGMLOFFPV65","3UUIU9GZC5R93N292LT21FRJ9VS5TN","","1046.4000000059605","img/flower6.png","74","1047.2000000178814","1","1","1","1","1,0.333,0.333,0.333,1,0.333,0.333,0.333,1","1,0.333,0.333,0.333,1,0.333,0.333,0.333,1","1",""
"","html-keyboard-response","45","74760","0.0-45.0","3YGXWBAF713C77USTWK4WWHPTWKC4K","A11JGMLOFFPV65","3UUIU9GZC5R93N292LT21FRJ9VS5TN","","null","<img src=""img/flower6.png"" style=""width:200px; border:14px solid green;"">","null","","","","","","","","",""
"","image-keyboard-response","46","76762","0.0-46.0","3YGXWBAF713C77USTWK4WWHPTWKC4K","A11JGMLOFFPV65","3UUIU9GZC5R93N292LT21FRJ9VS5TN","","","img/flower5.png","","2001.699999988079","-1","0","3","1","1,0.333,0.333,0.333,1,0.333,0.333,0.333,1","1,0.333,0.333,0.333,1,0.333,0.333,0.333,1","1",""
"","html-keyboard-response","47","77063","0.0-47.0","3YGXWBAF713C77USTWK4WWHPTWKC4K","A11JGMLOFFPV65","3UUIU9GZC5R93N292LT21FRJ9VS5TN","","null","<img src=""img/flower5.png"" style=""width:200px;border:14px solid red;"">","null","","","","","","","","",""
"","image-keyboard-response","48","78492","0.0-48.0","3YGXWBAF713C77USTWK4WWHPTWKC4K","A11JGMLOFFPV65","3UUIU9GZC5R93N292LT21FRJ9VS5TN","","1427.2000000178814","img/flower2.png","75","1428.0999999940395","2","1","2","1","1,0.333,0.333,0.333,1,0.333,0.333,0.333,1","1,0.333,0.333,0.333,1,0.333,0.333,0.333,1","1",""
"","html-keyboard-response","49","78794","0.0-49.0","3YGXWBAF713C77USTWK4WWHPTWKC4K","A11JGMLOFFPV65","3UUIU9GZC5R93N292LT21FRJ9VS5TN","","null","<img src=""img/flower2.png"" style=""width:200px; border:14px solid green;"">","null","","","","","","","","",""
"","image-keyboard-response","50","79883","0.0-50.0","3YGXWBAF713C77USTWK4WWHPTWKC4K","A11JGMLOFFPV65","3UUIU9GZC5R93N292LT21FRJ9VS5TN","","1087.5999999940395","img/flower5.png","74","1088.5999999940395","1","0","3","1","1,0.333,0.333,0.333,1,0.333,0.333,0.333,1","1,0.333,0.333,0.333,1,0.333,0.333,0.333,1","1",""
"","html-keyboard-response","51","80185","0.0-51.0","3YGXWBAF713C77USTWK4WWHPTWKC4K","A11JGMLOFFPV65","3UUIU9GZC5R93N292LT21FRJ9VS5TN","","null","<img src=""img/flower5.png"" style=""width:200px;border:14px solid red;"">","null","","","","","","","","",""
"","image-keyboard-response","52","81207","0.0-52.0","3YGXWBAF713C77USTWK4WWHPTWKC4K","A11JGMLOFFPV65","3UUIU9GZC5R93N292LT21FRJ9VS5TN","","1020.7000000178814","img/flower6.png","74","1021.5999999940395","1","1","1","1","1,0.333,0.333,0.333,1,0.333,0.333,0.333,1","1,0.333,0.333,0.333,1,0.333,0.333,0.333,1","1",""
"","html-keyboard-response","53","81510","0.0-53.0","3YGXWBAF713C77USTWK4WWHPTWKC4K","A11JGMLOFFPV65","3UUIU9GZC5R93N292LT21FRJ9VS5TN","","null","<img src=""img/flower6.png"" style=""width:200px; border:14px solid green;"">","null","","","","","","","","",""
"","image-keyboard-response","54","83512","0.0-54.0","3YGXWBAF713C77USTWK4WWHPTWKC4K","A11JGMLOFFPV65","3UUIU9GZC5R93N292LT21FRJ9VS5TN","","","img/flower6.png","","2002.2000000178814","-1","0","1","1","1,0.333,0.333,0.333,1,0.333,0.333,0.333,1","1,0.333,0.333,0.333,1,0.333,0.333,0.333,1","1",""
"","html-keyboard-response","55","83814","0.0-55.0","3YGXWBAF713C77USTWK4WWHPTWKC4K","A11JGMLOFFPV65","3UUIU9GZC5R93N292LT21FRJ9VS5TN","","null","<img src=""img/flower6.png"" style=""width:200px;border:14px solid red;"">","null","","","","","","","","",""
"","image-keyboard-response","56","84157","0.0-56.0","3YGXWBAF713C77USTWK4WWHPTWKC4K","A11JGMLOFFPV65","3UUIU9GZC5R93N292LT21FRJ9VS5TN","","341.80000001192093","img/flower2.png","74","342.69999998807907","1","0","2","1","1,0.333,0.333,0.333,1,0.333,0.333,0.333,1","1,0.333,0.333,0.333,1,0.333,0.333,0.333,1","1",""
"","html-keyboard-response","57","84460","0.0-57.0","3YGXWBAF713C77USTWK4WWHPTWKC4K","A11JGMLOFFPV65","3UUIU9GZC5R93N292LT21FRJ9VS5TN","","null","<img src=""img/flower2.png"" style=""width:200px;border:14px solid red;"">","null","","","","","","","","",""
"","image-keyboard-response","58","85042","0.0-58.0","3YGXWBAF713C77USTWK4WWHPTWKC4K","A11JGMLOFFPV65","3UUIU9GZC5R93N292LT21FRJ9VS5TN","","581.2000000178814","img/flower5.png","75","582","2","1","3","1","1,0.333,0.333,0.333,1,0.333,0.333,0.333,1","1,0.333,0.333,0.333,1,0.333,0.333,0.333,1","1",""
"","html-keyboard-response","59","85344","0.0-59.0","3YGXWBAF713C77USTWK4WWHPTWKC4K","A11JGMLOFFPV65","3UUIU9GZC5R93N292LT21FRJ9VS5TN","","null","<img src=""img/flower5.png"" style=""width:200px; border:14px solid green;"">","null","","","","","","","","",""
"","image-keyboard-response","60","85807","0.0-60.0","3YGXWBAF713C77USTWK4WWHPTWKC4K","A11JGMLOFFPV65","3UUIU9GZC5R93N292LT21FRJ9VS5TN","","461.09999999403954","img/flower5.png","74","462.09999999403954","1","0","3","1","1,0.333,0.333,0.333,1,0.333,0.333,0.333,1","1,0.333,0.333,0.333,1,0.333,0.333,0.333,1","1",""
"","html-keyboard-response","61","86109","0.0-61.0","3YGXWBAF713C77USTWK4WWHPTWKC4K","A11JGMLOFFPV65","3UUIU9GZC5R93N292LT21FRJ9VS5TN","","null","<img src=""img/flower5.png"" style=""width:200px;border:14px solid red;"">","null","","","","","","","","",""
"","image-keyboard-response","62","86957","0.0-62.0","3YGXWBAF713C77USTWK4WWHPTWKC4K","A11JGMLOFFPV65","3UUIU9GZC5R93N292LT21FRJ9VS5TN","","846.2999999821186","img/flower6.png","74","847.3000000119209","1","1","1","1","1,0.333,0.333,0.333,1,0.333,0.333,0.333,1","1,0.333,0.333,0.333,1,0.333,0.333,0.333,1","1",""
"","html-keyboard-response","63","87259","0.0-63.0","3YGXWBAF713C77USTWK4WWHPTWKC4K","A11JGMLOFFPV65","3UUIU9GZC5R93N292LT21FRJ9VS5TN","","null","<img src=""img/flower6.png"" style=""width:200px; border:14px solid green;"">","null","","","","","","","","",""
"","image-keyboard-response","64","89261","0.0-64.0","3YGXWBAF713C77USTWK4WWHPTWKC4K","A11JGMLOFFPV65","3UUIU9GZC5R93N292LT21FRJ9VS5TN","","","img/flower2.png","","2001.8999999761581","-1","0","2","1","1,0.333,0.333,0.333,1,0.333,0.333,0.333,1","1,0.333,0.333,0.333,1,0.333,0.333,0.333,1","1",""
"","html-keyboard-response","65","89564","0.0-65.0","3YGXWBAF713C77USTWK4WWHPTWKC4K","A11JGMLOFFPV65","3UUIU9GZC5R93N292LT21FRJ9VS5TN","","null","<img src=""img/flower2.png"" style=""width:200px;border:14px solid red;"">","null","","","","","","","","",""
"","image-keyboard-response","66","90847","0.0-66.0","3YGXWBAF713C77USTWK4WWHPTWKC4K","A11JGMLOFFPV65","3UUIU9GZC5R93N292LT21FRJ9VS5TN","","1282.7000000178814","img/flower5.png","75","1283.5","2","0","3","1","1,0.333,0.333,0.333,1,0.333,0.333,0.333,1","1,0.333,0.333,0.333,1,0.333,0.333,0.333,1","1",""
"","html-keyboard-response","67","91150","0.0-67.0","3YGXWBAF713C77USTWK4WWHPTWKC4K","A11JGMLOFFPV65","3UUIU9GZC5R93N292LT21FRJ9VS5TN","","null","<img src=""img/flower5.png"" style=""width:200px;border:14px solid red;"">","null","","","","","","","","",""
"","image-keyboard-response","68","92327","0.0-68.0","3YGXWBAF713C77USTWK4WWHPTWKC4K","A11JGMLOFFPV65","3UUIU9GZC5R93N292LT21FRJ9VS5TN","","1176.0999999940395","img/flower2.png","75","1176.9000000059605","2","1","2","1","1,0.333,0.333,0.333,1,0.333,0.333,0.333,1","1,0.333,0.333,0.333,1,0.333,0.333,0.333,1","1",""
"","html-keyboard-response","69","92630","0.0-69.0","3YGXWBAF713C77USTWK4WWHPTWKC4K","A11JGMLOFFPV65","3UUIU9GZC5R93N292LT21FRJ9VS5TN","","null","<img src=""img/flower2.png"" style=""width:200px; border:14px solid green;"">","null","","","","","","","","",""
"","image-keyboard-response","70","93576","0.0-70.0","3YGXWBAF713C77USTWK4WWHPTWKC4K","A11JGMLOFFPV65","3UUIU9GZC5R93N292LT21FRJ9VS5TN","","945.9000000059605","img/flower5.png","74","946.7000000178814","1","0","3","1","1,0.333,0.333,0.333,1,0.333,0.333,0.333,1","1,0.333,0.333,0.333,1,0.333,0.333,0.333,1","1",""
"","html-keyboard-response","71","93878","0.0-71.0","3YGXWBAF713C77USTWK4WWHPTWKC4K","A11JGMLOFFPV65","3UUIU9GZC5R93N292LT21FRJ9VS5TN","","null","<img src=""img/flower5.png"" style=""width:200px;border:14px solid red;"">","null","","","","","","","","",""
"","image-keyboard-response","72","94997","0.0-72.0","3YGXWBAF713C77USTWK4WWHPTWKC4K","A11JGMLOFFPV65","3UUIU9GZC5R93N292LT21FRJ9VS5TN","","1117.4000000059605","img/flower6.png","74","1118.199999988079","1","1","1","1","1,0.333,0.333,0.333,1,0.333,0.333,0.333,1","1,0.333,0.333,0.333,1,0.333,0.333,0.333,1","1",""
"","html-keyboard-response","73","95299","0.0-73.0","3YGXWBAF713C77USTWK4WWHPTWKC4K","A11JGMLOFFPV65","3UUIU9GZC5R93N292LT21FRJ9VS5TN","","null","<img src=""img/flower6.png"" style=""width:200px; border:14px solid green;"">","null","","","","","","","","",""
"","image-keyboard-response","74","96727","0.0-74.0","3YGXWBAF713C77USTWK4WWHPTWKC4K","A11JGMLOFFPV65","3UUIU9GZC5R93N292LT21FRJ9VS5TN","","1427.199999988079","img/flower5.png","74","1428.2000000178814","1","0","3","1","1,0.333,0.333,0.333,1,0.333,0.333,0.333,1","1,0.333,0.333,0.333,1,0.333,0.333,0.333,1","1",""
"","html-keyboard-response","75","97029","0.0-75.0","3YGXWBAF713C77USTWK4WWHPTWKC4K","A11JGMLOFFPV65","3UUIU9GZC5R93N292LT21FRJ9VS5TN","","null","<img src=""img/flower5.png"" style=""width:200px;border:14px solid red;"">","null","","","","","","","","",""
"","image-keyboard-response","76","98196","0.0-76.0","3YGXWBAF713C77USTWK4WWHPTWKC4K","A11JGMLOFFPV65","3UUIU9GZC5R93N292LT21FRJ9VS5TN","","1165.9000000059605","img/flower6.png","75","1166.800000011921","2","1","1","1","1,0.333,0.333,0.333,1,0.333,0.333,0.333,1","1,0.333,0.333,0.333,1,0.333,0.333,0.333,1","1",""
"","html-keyboard-response","77","98499","0.0-77.0","3YGXWBAF713C77USTWK4WWHPTWKC4K","A11JGMLOFFPV65","3UUIU9GZC5R93N292LT21FRJ9VS5TN","","null","<img src=""img/flower6.png"" style=""width:200px; border:14px solid green;"">","null","","","","","","","","",""
"","image-keyboard-response","78","99697","0.0-78.0","3YGXWBAF713C77USTWK4WWHPTWKC4K","A11JGMLOFFPV65","3UUIU9GZC5R93N292LT21FRJ9VS5TN","","1197","img/flower5.png","75","1197.9000000059605","2","0","3","1","1,0.333,0.333,0.333,1,0.333,0.333,0.333,1","1,0.333,0.333,0.333,1,0.333,0.333,0.333,1","1",""
"","html-keyboard-response","79","99999","0.0-79.0","3YGXWBAF713C77USTWK4WWHPTWKC4K","A11JGMLOFFPV65","3UUIU9GZC5R93N292LT21FRJ9VS5TN","","null","<img src=""img/flower5.png"" style=""width:200px;border:14px solid red;"">","null","","","","","","","","",""
"","image-keyboard-response","80","101737","0.0-80.0","3YGXWBAF713C77USTWK4WWHPTWKC4K","A11JGMLOFFPV65","3UUIU9GZC5R93N292LT21FRJ9VS5TN","","1736.7000000178814","img/flower6.png","74","1737.5","1","1","1","1","1,0.333,0.333,0.333,1,0.333,0.333,0.333,1","1,0.333,0.333,0.333,1,0.333,0.333,0.333,1","1",""
"","html-keyboard-response","81","102040","0.0-81.0","3YGXWBAF713C77USTWK4WWHPTWKC4K","A11JGMLOFFPV65","3UUIU9GZC5R93N292LT21FRJ9VS5TN","","null","<img src=""img/flower6.png"" style=""width:200px; border:14px solid green;"">","null","","","","","","","","",""
"","image-keyboard-response","82","104041","0.0-82.0","3YGXWBAF713C77USTWK4WWHPTWKC4K","A11JGMLOFFPV65","3UUIU9GZC5R93N292LT21FRJ9VS5TN","","","img/flower2.png","","2001.800000011921","-1","0","2","1","1,0.333,0.333,0.333,1,0.333,0.333,0.333,1","1,0.333,0.333,0.333,1,0.333,0.333,0.333,1","1",""
"","html-keyboard-response","83","104343","0.0-83.0","3YGXWBAF713C77USTWK4WWHPTWKC4K","A11JGMLOFFPV65","3UUIU9GZC5R93N292LT21FRJ9VS5TN","","null","<img src=""img/flower2.png"" style=""width:200px;border:14px solid red;"">","null","","","","","","","","",""
"","image-keyboard-response","84","105381","0.0-84.0","3YGXWBAF713C77USTWK4WWHPTWKC4K","A11JGMLOFFPV65","3UUIU9GZC5R93N292LT21FRJ9VS5TN","","1036.9000000059605","img/flower6.png","74","1037.800000011921","1","1","1","1","1,0.333,0.333,0.333,1,0.333,0.333,0.333,1","1,0.333,0.333,0.333,1,0.333,0.333,0.333,1","1",""
"","html-keyboard-response","85","105683","0.0-85.0","3YGXWBAF713C77USTWK4WWHPTWKC4K","A11JGMLOFFPV65","3UUIU9GZC5R93N292LT21FRJ9VS5TN","","null","<img src=""img/flower6.png"" style=""width:200px; border:14px solid green;"">","null","","","","","","","","",""
"","image-keyboard-response","86","107446","0.0-86.0","3YGXWBAF713C77USTWK4WWHPTWKC4K","A11JGMLOFFPV65","3UUIU9GZC5R93N292LT21FRJ9VS5TN","","1762","img/flower2.png","75","1762.9000000059605","2","1","2","1","1,0.333,0.333,0.333,1,0.333,0.333,0.333,1","1,0.333,0.333,0.333,1,0.333,0.333,0.333,1","1",""
"","html-keyboard-response","87","107749","0.0-87.0","3YGXWBAF713C77USTWK4WWHPTWKC4K","A11JGMLOFFPV65","3UUIU9GZC5R93N292LT21FRJ9VS5TN","","null","<img src=""img/flower2.png"" style=""width:200px; border:14px solid green;"">","null","","","","","","","","",""
"","image-keyboard-response","88","109602","0.0-88.0","3YGXWBAF713C77USTWK4WWHPTWKC4K","A11JGMLOFFPV65","3UUIU9GZC5R93N292LT21FRJ9VS5TN","","1852.199999988079","img/flower5.png","76","1853.199999988079","3","1","3","1","1,0.333,0.333,0.333,1,0.333,0.333,0.333,1","1,0.333,0.333,0.333,1,0.333,0.333,0.333,1","1",""
"","html-keyboard-response","89","109905","0.0-89.0","3YGXWBAF713C77USTWK4WWHPTWKC4K","A11JGMLOFFPV65","3UUIU9GZC5R93N292LT21FRJ9VS5TN","","null","<img src=""img/flower5.png"" style=""width:200px; border:14px solid green;"">","null","","","","","","","","",""
"","image-keyboard-response","90","111417","0.0-90.0","3YGXWBAF713C77USTWK4WWHPTWKC4K","A11JGMLOFFPV65","3UUIU9GZC5R93N292LT21FRJ9VS5TN","","1510.7999999821186","img/flower5.png","76","1511.7000000178814","3","1","3","1","1,0.333,0.333,0.333,1,0.333,0.333,0.333,1","1,0.333,0.333,0.333,1,0.333,0.333,0.333,1","1",""
"","html-keyboard-response","91","111720","0.0-91.0","3YGXWBAF713C77USTWK4WWHPTWKC4K","A11JGMLOFFPV65","3UUIU9GZC5R93N292LT21FRJ9VS5TN","","null","<img src=""img/flower5.png"" style=""width:200px; border:14px solid green;"">","null","","","","","","","","",""
"","image-keyboard-response","92","113101","0.0-92.0","3YGXWBAF713C77USTWK4WWHPTWKC4K","A11JGMLOFFPV65","3UUIU9GZC5R93N292LT21FRJ9VS5TN","","1380.2999999821186","img/flower5.png","76","1381.5","3","1","3","1","1,0.333,0.333,0.333,1,0.333,0.333,0.333,1","1,0.333,0.333,0.333,1,0.333,0.333,0.333,1","1",""
"","html-keyboard-response","93","113404","0.0-93.0","3YGXWBAF713C77USTWK4WWHPTWKC4K","A11JGMLOFFPV65","3UUIU9GZC5R93N292LT21FRJ9VS5TN","","null","<img src=""img/flower5.png"" style=""width:200px; border:14px solid green;"">","null","","","","","","","","",""
"","image-keyboard-response","94","114196","0.0-94.0","3YGXWBAF713C77USTWK4WWHPTWKC4K","A11JGMLOFFPV65","3UUIU9GZC5R93N292LT21FRJ9VS5TN","","791.5999999940395","img/flower5.png","76","792.2999999821186","3","1","3","1","1,0.333,0.333,0.333,1,0.333,0.333,0.333,1","1,0.333,0.333,0.333,1,0.333,0.333,0.333,1","1",""
"","html-keyboard-response","95","114499","0.0-95.0","3YGXWBAF713C77USTWK4WWHPTWKC4K","A11JGMLOFFPV65","3UUIU9GZC5R93N292LT21FRJ9VS5TN","","null","<img src=""img/flower5.png"" style=""width:200px; border:14px solid green;"">","null","","","","","","","","",""
"","image-keyboard-response","96","115816","0.0-96.0","3YGXWBAF713C77USTWK4WWHPTWKC4K","A11JGMLOFFPV65","3UUIU9GZC5R93N292LT21FRJ9VS5TN","","1316.5999999940395","img/flower2.png","75","1317.2000000178814","2","1","2","1","1,0.333,0.333,0.333,1,0.333,0.333,0.333,1","1,0.333,0.333,0.333,1,0.333,0.333,0.333,1","1",""
"","html-keyboard-response","97","116118","0.0-97.0","3YGXWBAF713C77USTWK4WWHPTWKC4K","A11JGMLOFFPV65","3UUIU9GZC5R93N292LT21FRJ9VS5TN","","null","<img src=""img/flower2.png"" style=""width:200px; border:14px solid green;"">","null","","","","","","","","",""
"","image-keyboard-response","98","117856","0.0-98.0","3YGXWBAF713C77USTWK4WWHPTWKC4K","A11JGMLOFFPV65","3UUIU9GZC5R93N292LT21FRJ9VS5TN","","1737.0999999940395","img/flower6.png","74","1737.800000011921","1","1","1","1","1,0.333,0.333,0.333,1,0.333,0.333,0.333,1","1,0.333,0.333,0.333,1,0.333,0.333,0.333,1","1",""
"","html-keyboard-response","99","118158","0.0-99.0","3YGXWBAF713C77USTWK4WWHPTWKC4K","A11JGMLOFFPV65","3UUIU9GZC5R93N292LT21FRJ9VS5TN","","null","<img src=""img/flower6.png"" style=""width:200px; border:14px solid green;"">","null","","","","","","","","",""
"","image-keyboard-response","100","119676","0.0-100.0","3YGXWBAF713C77USTWK4WWHPTWKC4K","A11JGMLOFFPV65","3UUIU9GZC5R93N292LT21FRJ9VS5TN","","1517.0999999940395","img/flower2.png","75","1518","2","1","2","1","1,0.333,0.333,0.333,1,0.333,0.333,0.333,1","1,0.333,0.333,0.333,1,0.333,0.333,0.333,1","1",""
"","html-keyboard-response","101","119979","0.0-101.0","3YGXWBAF713C77USTWK4WWHPTWKC4K","A11JGMLOFFPV65","3UUIU9GZC5R93N292LT21FRJ9VS5TN","","null","<img src=""img/flower2.png"" style=""width:200px; border:14px solid green;"">","null","","","","","","","","",""
"","image-keyboard-response","102","120708","0.0-102.0","3YGXWBAF713C77USTWK4WWHPTWKC4K","A11JGMLOFFPV65","3UUIU9GZC5R93N292LT21FRJ9VS5TN","","726.0999999940395","img/flower5.png","76","727.0999999940395","3","1","3","1","1,0.333,0.333,0.333,1,0.333,0.333,0.333,1","1,0.333,0.333,0.333,1,0.333,0.333,0.333,1","1",""
"","html-keyboard-response","103","121010","0.0-103.0","3YGXWBAF713C77USTWK4WWHPTWKC4K","A11JGMLOFFPV65","3UUIU9GZC5R93N292LT21FRJ9VS5TN","","null","<img src=""img/flower5.png"" style=""width:200px; border:14px solid green;"">","null","","","","","","","","",""
"","image-keyboard-response","104","122363","0.0-104.0","3YGXWBAF713C77USTWK4WWHPTWKC4K","A11JGMLOFFPV65","3UUIU9GZC5R93N292LT21FRJ9VS5TN","","1352","img/flower6.png","74","1352.9000000059605","1","1","1","1","1,0.333,0.333,0.333,1,0.333,0.333,0.333,1","1,0.333,0.333,0.333,1,0.333,0.333,0.333,1","1",""
"","html-keyboard-response","105","122666","0.0-105.0","3YGXWBAF713C77USTWK4WWHPTWKC4K","A11JGMLOFFPV65","3UUIU9GZC5R93N292LT21FRJ9VS5TN","","null","<img src=""img/flower6.png"" style=""width:200px; border:14px solid green;"">","null","","","","","","","","",""
"","image-keyboard-response","106","124508","0.0-106.0","3YGXWBAF713C77USTWK4WWHPTWKC4K","A11JGMLOFFPV65","3UUIU9GZC5R93N292LT21FRJ9VS5TN","","1841.300000011921","img/flower2.png","75","1842.300000011921","2","1","2","1","1,0.333,0.333,0.333,1,0.333,0.333,0.333,1","1,0.333,0.333,0.333,1,0.333,0.333,0.333,1","1",""
"","html-keyboard-response","107","124811","0.0-107.0","3YGXWBAF713C77USTWK4WWHPTWKC4K","A11JGMLOFFPV65","3UUIU9GZC5R93N292LT21FRJ9VS5TN","","null","<img src=""img/flower2.png"" style=""width:200px; border:14px solid green;"">","null","","","","","","","","",""
"","image-keyboard-response","108","126203","0.0-108.0","3YGXWBAF713C77USTWK4WWHPTWKC4K","A11JGMLOFFPV65","3UUIU9GZC5R93N292LT21FRJ9VS5TN","","1391","img/flower6.png","74","1392","1","1","1","1","1,0.333,0.333,0.333,1,0.333,0.333,0.333,1","1,0.333,0.333,0.333,1,0.333,0.333,0.333,1","1",""
"","html-keyboard-response","109","126505","0.0-109.0","3YGXWBAF713C77USTWK4WWHPTWKC4K","A11JGMLOFFPV65","3UUIU9GZC5R93N292LT21FRJ9VS5TN","","null","<img src=""img/flower6.png"" style=""width:200px; border:14px solid green;"">","null","","","","","","","","",""
"","image-keyboard-response","110","127727","0.0-110.0","3YGXWBAF713C77USTWK4WWHPTWKC4K","A11JGMLOFFPV65","3UUIU9GZC5R93N292LT21FRJ9VS5TN","","1221.0999999940395","img/flower2.png","75","1222","2","1","2","1","1,0.333,0.333,0.333,1,0.333,0.333,0.333,1","1,0.333,0.333,0.333,1,0.333,0.333,0.333,1","1",""
"","html-keyboard-response","111","128030","0.0-111.0","3YGXWBAF713C77USTWK4WWHPTWKC4K","A11JGMLOFFPV65","3UUIU9GZC5R93N292LT21FRJ9VS5TN","","null","<img src=""img/flower2.png"" style=""width:200px; border:14px solid green;"">","null","","","","","","","","",""
"","image-keyboard-response","112","129637","0.0-112.0","3YGXWBAF713C77USTWK4WWHPTWKC4K","A11JGMLOFFPV65","3UUIU9GZC5R93N292LT21FRJ9VS5TN","","1606.199999988079","img/flower6.png","74","1607.0999999940395","1","1","1","1","1,0.333,0.333,0.333,1,0.333,0.333,0.333,1","1,0.333,0.333,0.333,1,0.333,0.333,0.333,1","1",""
"","html-keyboard-response","113","129939","0.0-113.0","3YGXWBAF713C77USTWK4WWHPTWKC4K","A11JGMLOFFPV65","3UUIU9GZC5R93N292LT21FRJ9VS5TN","","null","<img src=""img/flower6.png"" style=""width:200px; border:14px solid green;"">","null","","","","","","","","",""
"","image-keyboard-response","114","131538","0.0-114.0","3YGXWBAF713C77USTWK4WWHPTWKC4K","A11JGMLOFFPV65","3UUIU9GZC5R93N292LT21FRJ9VS5TN","","1598.4000000059605","img/flower5.png","76","1599.2000000178814","3","1","3","1","1,0.333,0.333,0.333,1,0.333,0.333,0.333,1","1,0.333,0.333,0.333,1,0.333,0.333,0.333,1","1",""
"","html-keyboard-response","115","131841","0.0-115.0","3YGXWBAF713C77USTWK4WWHPTWKC4K","A11JGMLOFFPV65","3UUIU9GZC5R93N292LT21FRJ9VS5TN","","null","<img src=""img/flower5.png"" style=""width:200px; border:14px solid green;"">","null","","","","","","","","",""
"","image-keyboard-response","116","133522","0.0-116.0","3YGXWBAF713C77USTWK4WWHPTWKC4K","A11JGMLOFFPV65","3UUIU9GZC5R93N292LT21FRJ9VS5TN","","1679","img/flower6.png","74","1680","1","1","1","1","1,0.333,0.333,0.333,1,0.333,0.333,0.333,1","1,0.333,0.333,0.333,1,0.333,0.333,0.333,1","1",""
"","html-keyboard-response","117","133825","0.0-117.0","3YGXWBAF713C77USTWK4WWHPTWKC4K","A11JGMLOFFPV65","3UUIU9GZC5R93N292LT21FRJ9VS5TN","","null","<img src=""img/flower6.png"" style=""width:200px; border:14px solid green;"">","null","","","","","","","","",""
"","image-keyboard-response","118","135277","0.0-118.0","3YGXWBAF713C77USTWK4WWHPTWKC4K","A11JGMLOFFPV65","3UUIU9GZC5R93N292LT21FRJ9VS5TN","","1451.4000000059605","img/flower6.png","74","1452.199999988079","1","1","1","1","1,0.333,0.333,0.333,1,0.333,0.333,0.333,1","1,0.333,0.333,0.333,1,0.333,0.333,0.333,1","1",""
"","html-keyboard-response","119","135579","0.0-119.0","3YGXWBAF713C77USTWK4WWHPTWKC4K","A11JGMLOFFPV65","3UUIU9GZC5R93N292LT21FRJ9VS5TN","","null","<img src=""img/flower6.png"" style=""width:200px; border:14px solid green;"">","null","","","","","","","","",""
"","image-keyboard-response","120","136908","0.0-120.0","3YGXWBAF713C77USTWK4WWHPTWKC4K","A11JGMLOFFPV65","3UUIU9GZC5R93N292LT21FRJ9VS5TN","","1327.199999988079","img/flower2.png","75","1328.199999988079","2","1","2","1","1,0.333,0.333,0.333,1,0.333,0.333,0.333,1","1,0.333,0.333,0.333,1,0.333,0.333,0.333,1","1",""
"","html-keyboard-response","121","137210","0.0-121.0","3YGXWBAF713C77USTWK4WWHPTWKC4K","A11JGMLOFFPV65","3UUIU9GZC5R93N292LT21FRJ9VS5TN","","null","<img src=""img/flower2.png"" style=""width:200px; border:14px solid green;"">","null","","","","","","","","",""
"","image-keyboard-response","122","138607","0.0-122.0","3YGXWBAF713C77USTWK4WWHPTWKC4K","A11JGMLOFFPV65","3UUIU9GZC5R93N292LT21FRJ9VS5TN","","1396","img/flower5.png","76","1396.7999999821186","3","1","3","1","1,0.333,0.333,0.333,1,0.333,0.333,0.333,1","1,0.333,0.333,0.333,1,0.333,0.333,0.333,1","1",""
"","html-keyboard-response","123","138909","0.0-123.0","3YGXWBAF713C77USTWK4WWHPTWKC4K","A11JGMLOFFPV65","3UUIU9GZC5R93N292LT21FRJ9VS5TN","","null","<img src=""img/flower5.png"" style=""width:200px; border:14px solid green;"">","null","","","","","","","","",""
"","image-keyboard-response","124","140612","0.0-124.0","3YGXWBAF713C77USTWK4WWHPTWKC4K","A11JGMLOFFPV65","3UUIU9GZC5R93N292LT21FRJ9VS5TN","","1701.8999999761581","img/flower2.png","75","1702.7000000178814","2","1","2","1","1,0.333,0.333,0.333,1,0.333,0.333,0.333,1","1,0.333,0.333,0.333,1,0.333,0.333,0.333,1","1",""
"","html-keyboard-response","125","140915","0.0-125.0","3YGXWBAF713C77USTWK4WWHPTWKC4K","A11JGMLOFFPV65","3UUIU9GZC5R93N292LT21FRJ9VS5TN","","null","<img src=""img/flower2.png"" style=""width:200px; border:14px solid green;"">","null","","","","","","","","",""
"","image-keyboard-response","126","142072","0.0-126.0","3YGXWBAF713C77USTWK4WWHPTWKC4K","A11JGMLOFFPV65","3UUIU9GZC5R93N292LT21FRJ9VS5TN","","1156.300000011921","img/flower6.png","74","1157.2999999821186","1","1","1","1","1,0.333,0.333,0.333,1,0.333,0.333,0.333,1","1,0.333,0.333,0.333,1,0.333,0.333,0.333,1","1",""
"","html-keyboard-response","127","142374","0.0-127.0","3YGXWBAF713C77USTWK4WWHPTWKC4K","A11JGMLOFFPV65","3UUIU9GZC5R93N292LT21FRJ9VS5TN","","null","<img src=""img/flower6.png"" style=""width:200px; border:14px solid green;"">","null","","","","","","","","",""
"","image-keyboard-response","128","143607","0.0-128.0","3YGXWBAF713C77USTWK4WWHPTWKC4K","A11JGMLOFFPV65","3UUIU9GZC5R93N292LT21FRJ9VS5TN","","1231.9000000059605","img/flower2.png","75","1232.6000000238419","2","1","2","1","1,0.333,0.333,0.333,1,0.333,0.333,0.333,1","1,0.333,0.333,0.333,1,0.333,0.333,0.333,1","1",""
"","html-keyboard-response","129","143910","0.0-129.0","3YGXWBAF713C77USTWK4WWHPTWKC4K","A11JGMLOFFPV65","3UUIU9GZC5R93N292LT21FRJ9VS5TN","","null","<img src=""img/flower2.png"" style=""width:200px; border:14px solid green;"">","null","","","","","","","","",""
"","image-keyboard-response","130","145312","0.0-130.0","3YGXWBAF713C77USTWK4WWHPTWKC4K","A11JGMLOFFPV65","3UUIU9GZC5R93N292LT21FRJ9VS5TN","","1401.6000000238419","img/flower5.png","76","1402.300000011921","3","1","3","1","1,0.333,0.333,0.333,1,0.333,0.333,0.333,1","1,0.333,0.333,0.333,1,0.333,0.333,0.333,1","1",""
"","html-keyboard-response","131","145615","0.0-131.0","3YGXWBAF713C77USTWK4WWHPTWKC4K","A11JGMLOFFPV65","3UUIU9GZC5R93N292LT21FRJ9VS5TN","","null","<img src=""img/flower5.png"" style=""width:200px; border:14px solid green;"">","null","","","","","","","","",""
"","image-keyboard-response","132","147487","0.0-132.0","3YGXWBAF713C77USTWK4WWHPTWKC4K","A11JGMLOFFPV65","3UUIU9GZC5R93N292LT21FRJ9VS5TN","","1871","img/flower5.png","76","1872","3","1","3","1","1,0.333,0.333,0.333,1,0.333,0.333,0.333,1","1,0.333,0.333,0.333,1,0.333,0.333,0.333,1","1",""
"","html-keyboard-response","133","147789","0.0-133.0","3YGXWBAF713C77USTWK4WWHPTWKC4K","A11JGMLOFFPV65","3UUIU9GZC5R93N292LT21FRJ9VS5TN","","null","<img src=""img/flower5.png"" style=""width:200px; border:14px solid green;"">","null","","","","","","","","",""
"","image-keyboard-response","134","149679","0.0-134.0","3YGXWBAF713C77USTWK4WWHPTWKC4K","A11JGMLOFFPV65","3UUIU9GZC5R93N292LT21FRJ9VS5TN","","1888.199999988079","img/flower5.png","76","1889.199999988079","3","1","3","1","1,0.333,0.333,0.333,1,0.333,0.333,0.333,1","1,0.333,0.333,0.333,1,0.333,0.333,0.333,1","1",""
"","html-keyboard-response","135","149982","0.0-135.0","3YGXWBAF713C77USTWK4WWHPTWKC4K","A11JGMLOFFPV65","3UUIU9GZC5R93N292LT21FRJ9VS5TN","","null","<img src=""img/flower5.png"" style=""width:200px; border:14px solid green;"">","null","","","","","","","","",""
"","image-keyboard-response","136","151477","0.0-136.0","3YGXWBAF713C77USTWK4WWHPTWKC4K","A11JGMLOFFPV65","3UUIU9GZC5R93N292LT21FRJ9VS5TN","","1494.300000011921","img/flower6.png","74","1495.1000000238419","1","1","1","1","1,0.333,0.333,0.333,1,0.333,0.333,0.333,1","1,0.333,0.333,0.333,1,0.333,0.333,0.333,1","1",""
"","html-keyboard-response","137","151780","0.0-137.0","3YGXWBAF713C77USTWK4WWHPTWKC4K","A11JGMLOFFPV65","3UUIU9GZC5R93N292LT21FRJ9VS5TN","","null","<img src=""img/flower6.png"" style=""width:200px; border:14px solid green;"">","null","","","","","","","","",""
"","image-keyboard-response","138","153047","0.0-138.0","3YGXWBAF713C77USTWK4WWHPTWKC4K","A11JGMLOFFPV65","3UUIU9GZC5R93N292LT21FRJ9VS5TN","","1265.7000000178814","img/flower6.png","74","1266.5999999940395","1","1","1","1","1,0.333,0.333,0.333,1,0.333,0.333,0.333,1","1,0.333,0.333,0.333,1,0.333,0.333,0.333,1","1",""
"","html-keyboard-response","139","153350","0.0-139.0","3YGXWBAF713C77USTWK4WWHPTWKC4K","A11JGMLOFFPV65","3UUIU9GZC5R93N292LT21FRJ9VS5TN","","null","<img src=""img/flower6.png"" style=""width:200px; border:14px solid green;"">","null","","","","","","","","",""
"","image-keyboard-response","140","154377","0.0-140.0","3YGXWBAF713C77USTWK4WWHPTWKC4K","A11JGMLOFFPV65","3UUIU9GZC5R93N292LT21FRJ9VS5TN","","1026.199999988079","img/flower2.png","75","1027.1000000238419","2","1","2","1","1,0.333,0.333,0.333,1,0.333,0.333,0.333,1","1,0.333,0.333,0.333,1,0.333,0.333,0.333,1","1",""
"","html-keyboard-response","141","154679","0.0-141.0","3YGXWBAF713C77USTWK4WWHPTWKC4K","A11JGMLOFFPV65","3UUIU9GZC5R93N292LT21FRJ9VS5TN","","null","<img src=""img/flower2.png"" style=""width:200px; border:14px solid green;"">","null","","","","","","","","",""
"","image-keyboard-response","142","155897","0.0-142.0","3YGXWBAF713C77USTWK4WWHPTWKC4K","A11JGMLOFFPV65","3UUIU9GZC5R93N292LT21FRJ9VS5TN","","1216.5","img/flower2.png","75","1217.5999999940395","2","1","2","1","1,0.333,0.333,0.333,1,0.333,0.333,0.333,1","1,0.333,0.333,0.333,1,0.333,0.333,0.333,1","1",""
"","html-keyboard-response","143","156200","0.0-143.0","3YGXWBAF713C77USTWK4WWHPTWKC4K","A11JGMLOFFPV65","3UUIU9GZC5R93N292LT21FRJ9VS5TN","","null","<img src=""img/flower2.png"" style=""width:200px; border:14px solid green;"">","null","","","","","","","","",""
"","image-keyboard-response","144","157667","0.0-144.0","3YGXWBAF713C77USTWK4WWHPTWKC4K","A11JGMLOFFPV65","3UUIU9GZC5R93N292LT21FRJ9VS5TN","","1466.0999999940395","img/flower6.png","74","1467.0999999940395","1","1","1","1","1,0.333,0.333,0.333,1,0.333,0.333,0.333,1","1,0.333,0.333,0.333,1,0.333,0.333,0.333,1","1",""
"","html-keyboard-response","145","157969","0.0-145.0","3YGXWBAF713C77USTWK4WWHPTWKC4K","A11JGMLOFFPV65","3UUIU9GZC5R93N292LT21FRJ9VS5TN","","null","<img src=""img/flower6.png"" style=""width:200px; border:14px solid green;"">","null","","","","","","","","",""
"","image-keyboard-response","146","159542","0.0-146.0","3YGXWBAF713C77USTWK4WWHPTWKC4K","A11JGMLOFFPV65","3UUIU9GZC5R93N292LT21FRJ9VS5TN","","1571.2999999821186","img/flower2.png","75","1572.2000000178814","2","1","2","1","1,0.333,0.333,0.333,1,0.333,0.333,0.333,1","1,0.333,0.333,0.333,1,0.333,0.333,0.333,1","1",""
"","html-keyboard-response","147","159844","0.0-147.0","3YGXWBAF713C77USTWK4WWHPTWKC4K","A11JGMLOFFPV65","3UUIU9GZC5R93N292LT21FRJ9VS5TN","","null","<img src=""img/flower2.png"" style=""width:200px; border:14px solid green;"">","null","","","","","","","","",""
"","image-keyboard-response","148","161462","0.0-148.0","3YGXWBAF713C77USTWK4WWHPTWKC4K","A11JGMLOFFPV65","3UUIU9GZC5R93N292LT21FRJ9VS5TN","","1617","img/flower5.png","76","1617.800000011921","3","1","3","1","1,0.333,0.333,0.333,1,0.333,0.333,0.333,1","1,0.333,0.333,0.333,1,0.333,0.333,0.333,1","1",""
"","html-keyboard-response","149","161764","0.0-149.0","3YGXWBAF713C77USTWK4WWHPTWKC4K","A11JGMLOFFPV65","3UUIU9GZC5R93N292LT21FRJ9VS5TN","","null","<img src=""img/flower5.png"" style=""width:200px; border:14px solid green;"">","null","","","","","","","","",""
"","image-keyboard-response","150","163547","0.0-150.0","3YGXWBAF713C77USTWK4WWHPTWKC4K","A11JGMLOFFPV65","3UUIU9GZC5R93N292LT21FRJ9VS5TN","","1781.7000000178814","img/flower5.png","76","1782.5999999940395","3","1","3","1","1,0.333,0.333,0.333,1,0.333,0.333,0.333,1","1,0.333,0.333,0.333,1,0.333,0.333,0.333,1","1",""
"","html-keyboard-response","151","163849","0.0-151.0","3YGXWBAF713C77USTWK4WWHPTWKC4K","A11JGMLOFFPV65","3UUIU9GZC5R93N292LT21FRJ9VS5TN","","null","<img src=""img/flower5.png"" style=""width:200px; border:14px solid green;"">","null","","","","","","","","",""
"","image-keyboard-response","152","165047","0.0-152.0","3YGXWBAF713C77USTWK4WWHPTWKC4K","A11JGMLOFFPV65","3UUIU9GZC5R93N292LT21FRJ9VS5TN","","1196.5","img/flower5.png","76","1197.699999988079","3","1","3","1","1,0.333,0.333,0.333,1,0.333,0.333,0.333,1","1,0.333,0.333,0.333,1,0.333,0.333,0.333,1","1",""
"","html-keyboard-response","153","165350","0.0-153.0","3YGXWBAF713C77USTWK4WWHPTWKC4K","A11JGMLOFFPV65","3UUIU9GZC5R93N292LT21FRJ9VS5TN","","null","<img src=""img/flower5.png"" style=""width:200px; border:14px solid green;"">","null","","","","","","","","",""
"","image-keyboard-response","154","166547","0.0-154.0","3YGXWBAF713C77USTWK4WWHPTWKC4K","A11JGMLOFFPV65","3UUIU9GZC5R93N292LT21FRJ9VS5TN","","1196.199999988079","img/flower2.png","75","1197.0999999940395","2","1","2","1","1,0.333,0.333,0.333,1,0.333,0.333,0.333,1","1,0.333,0.333,0.333,1,0.333,0.333,0.333,1","1",""
"","html-keyboard-response","155","166849","0.0-155.0","3YGXWBAF713C77USTWK4WWHPTWKC4K","A11JGMLOFFPV65","3UUIU9GZC5R93N292LT21FRJ9VS5TN","","null","<img src=""img/flower2.png"" style=""width:200px; border:14px solid green;"">","null","","","","","","","","",""
"","image-keyboard-response","156","168851","0.0-156.0","3YGXWBAF713C77USTWK4WWHPTWKC4K","A11JGMLOFFPV65","3UUIU9GZC5R93N292LT21FRJ9VS5TN","","","img/flower5.png","","2001.8999999761581","-1","0","3","1","1,0.333,0.333,0.333,1,0.333,0.333,0.333,1","1,0.333,0.333,0.333,1,0.333,0.333,0.333,1","1",""
"","html-keyboard-response","157","169154","0.0-157.0","3YGXWBAF713C77USTWK4WWHPTWKC4K","A11JGMLOFFPV65","3UUIU9GZC5R93N292LT21FRJ9VS5TN","","null","<img src=""img/flower5.png"" style=""width:200px;border:14px solid red;"">","null","","","","","","","","",""
"","image-keyboard-response","158","170307","0.0-158.0","3YGXWBAF713C77USTWK4WWHPTWKC4K","A11JGMLOFFPV65","3UUIU9GZC5R93N292LT21FRJ9VS5TN","","1152.1000000238419","img/flower2.png","75","1153.199999988079","2","1","2","1","1,0.333,0.333,0.333,1,0.333,0.333,0.333,1","1,0.333,0.333,0.333,1,0.333,0.333,0.333,1","1",""
"","html-keyboard-response","159","170610","0.0-159.0","3YGXWBAF713C77USTWK4WWHPTWKC4K","A11JGMLOFFPV65","3UUIU9GZC5R93N292LT21FRJ9VS5TN","","null","<img src=""img/flower2.png"" style=""width:200px; border:14px solid green;"">","null","","","","","","","","",""
"","image-keyboard-response","160","171646","0.0-160.0","3YGXWBAF713C77USTWK4WWHPTWKC4K","A11JGMLOFFPV65","3UUIU9GZC5R93N292LT21FRJ9VS5TN","","1035.5999999940395","img/flower2.png","75","1036.6000000238419","2","1","2","1","1,0.333,0.333,0.333,1,0.333,0.333,0.333,1","1,0.333,0.333,0.333,1,0.333,0.333,0.333,1","1",""
"","html-keyboard-response","161","171949","0.0-161.0","3YGXWBAF713C77USTWK4WWHPTWKC4K","A11JGMLOFFPV65","3UUIU9GZC5R93N292LT21FRJ9VS5TN","","null","<img src=""img/flower2.png"" style=""width:200px; border:14px solid green;"">","null","","","","","","","","",""
"","image-keyboard-response","162","173122","0.0-162.0","3YGXWBAF713C77USTWK4WWHPTWKC4K","A11JGMLOFFPV65","3UUIU9GZC5R93N292LT21FRJ9VS5TN","","1172.2999999821186","img/flower6.png","74","1173.300000011921","1","1","1","1","1,0.333,0.333,0.333,1,0.333,0.333,0.333,1","1,0.333,0.333,0.333,1,0.333,0.333,0.333,1","1",""
"","html-keyboard-response","163","173424","0.0-163.0","3YGXWBAF713C77USTWK4WWHPTWKC4K","A11JGMLOFFPV65","3UUIU9GZC5R93N292LT21FRJ9VS5TN","","null","<img src=""img/flower6.png"" style=""width:200px; border:14px solid green;"">","null","","","","","","","","",""
"","image-keyboard-response","164","174447","0.0-164.0","3YGXWBAF713C77USTWK4WWHPTWKC4K","A11JGMLOFFPV65","3UUIU9GZC5R93N292LT21FRJ9VS5TN","","1021.3999999761581","img/flower5.png","75","1022.3000000119209","2","0","3","1","1,0.333,0.333,0.333,1,0.333,0.333,0.333,1","1,0.333,0.333,0.333,1,0.333,0.333,0.333,1","1",""
"","html-keyboard-response","165","174749","0.0-165.0","3YGXWBAF713C77USTWK4WWHPTWKC4K","A11JGMLOFFPV65","3UUIU9GZC5R93N292LT21FRJ9VS5TN","","null","<img src=""img/flower5.png"" style=""width:200px;border:14px solid red;"">","null","","","","","","","","",""
"","image-keyboard-response","166","175997","0.0-166.0","3YGXWBAF713C77USTWK4WWHPTWKC4K","A11JGMLOFFPV65","3UUIU9GZC5R93N292LT21FRJ9VS5TN","","1247.199999988079","img/flower6.png","74","1247.7999999821186","1","1","1","1","1,0.333,0.333,0.333,1,0.333,0.333,0.333,1","1,0.333,0.333,0.333,1,0.333,0.333,0.333,1","1",""
"","html-keyboard-response","167","176299","0.0-167.0","3YGXWBAF713C77USTWK4WWHPTWKC4K","A11JGMLOFFPV65","3UUIU9GZC5R93N292LT21FRJ9VS5TN","","null","<img src=""img/flower6.png"" style=""width:200px; border:14px solid green;"">","null","","","","","","","","",""
"","image-keyboard-response","168","177556","0.0-168.0","3YGXWBAF713C77USTWK4WWHPTWKC4K","A11JGMLOFFPV65","3UUIU9GZC5R93N292LT21FRJ9VS5TN","","1256.0999999940395","img/flower5.png","76","1256.699999988079","3","1","3","1","1,0.333,0.333,0.333,1,0.333,0.333,0.333,1","1,0.333,0.333,0.333,1,0.333,0.333,0.333,1","1",""
"","html-keyboard-response","169","177859","0.0-169.0","3YGXWBAF713C77USTWK4WWHPTWKC4K","A11JGMLOFFPV65","3UUIU9GZC5R93N292LT21FRJ9VS5TN","","null","<img src=""img/flower5.png"" style=""width:200px; border:14px solid green;"">","null","","","","","","","","",""
"","image-keyboard-response","170","179221","0.0-170.0","3YGXWBAF713C77USTWK4WWHPTWKC4K","A11JGMLOFFPV65","3UUIU9GZC5R93N292LT21FRJ9VS5TN","","1361","img/flower2.png","75","1361.9000000059605","2","1","2","1","1,0.333,0.333,0.333,1,0.333,0.333,0.333,1","1,0.333,0.333,0.333,1,0.333,0.333,0.333,1","1",""
"","html-keyboard-response","171","179523","0.0-171.0","3YGXWBAF713C77USTWK4WWHPTWKC4K","A11JGMLOFFPV65","3UUIU9GZC5R93N292LT21FRJ9VS5TN","","null","<img src=""img/flower2.png"" style=""width:200px; border:14px solid green;"">","null","","","","","","","","",""
"","image-keyboard-response","172","180657","0.0-172.0","3YGXWBAF713C77USTWK4WWHPTWKC4K","A11JGMLOFFPV65","3UUIU9GZC5R93N292LT21FRJ9VS5TN","","1133.0999999940395","img/flower6.png","74","1134","1","1","1","1","1,0.333,0.333,0.333,1,0.333,0.333,0.333,1","1,0.333,0.333,0.333,1,0.333,0.333,0.333,1","1",""
"","html-keyboard-response","173","180962","0.0-173.0","3YGXWBAF713C77USTWK4WWHPTWKC4K","A11JGMLOFFPV65","3UUIU9GZC5R93N292LT21FRJ9VS5TN","","null","<img src=""img/flower6.png"" style=""width:200px; border:14px solid green;"">","null","","","","","","","","",""
"","image-keyboard-response","174","182964","0.0-174.0","3YGXWBAF713C77USTWK4WWHPTWKC4K","A11JGMLOFFPV65","3UUIU9GZC5R93N292LT21FRJ9VS5TN","","","img/flower6.png","","2002.2999999821186","-1","0","1","1","1,0.333,0.333,0.333,1,0.333,0.333,0.333,1","1,0.333,0.333,0.333,1,0.333,0.333,0.333,1","1",""
"","html-keyboard-response","175","183267","0.0-175.0","3YGXWBAF713C77USTWK4WWHPTWKC4K","A11JGMLOFFPV65","3UUIU9GZC5R93N292LT21FRJ9VS5TN","","null","<img src=""img/flower6.png"" style=""width:200px;border:14px solid red;"">","null","","","","","","","","",""
"","image-keyboard-response","176","183598","0.0-176.0","3YGXWBAF713C77USTWK4WWHPTWKC4K","A11JGMLOFFPV65","3UUIU9GZC5R93N292LT21FRJ9VS5TN","","330.09999999403954","img/flower2.png","74","331","1","0","2","1","1,0.333,0.333,0.333,1,0.333,0.333,0.333,1","1,0.333,0.333,0.333,1,0.333,0.333,0.333,1","1",""
"","html-keyboard-response","177","183901","0.0-177.0","3YGXWBAF713C77USTWK4WWHPTWKC4K","A11JGMLOFFPV65","3UUIU9GZC5R93N292LT21FRJ9VS5TN","","null","<img src=""img/flower2.png"" style=""width:200px;border:14px solid red;"">","null","","","","","","","","",""
"","image-keyboard-response","178","184438","0.0-178.0","3YGXWBAF713C77USTWK4WWHPTWKC4K","A11JGMLOFFPV65","3UUIU9GZC5R93N292LT21FRJ9VS5TN","","536.4000000059605","img/flower6.png","75","537.5","2","1","1","1","1,0.333,0.333,0.333,1,0.333,0.333,0.333,1","1,0.333,0.333,0.333,1,0.333,0.333,0.333,1","1",""
"","html-keyboard-response","179","184742","0.0-179.0","3YGXWBAF713C77USTWK4WWHPTWKC4K","A11JGMLOFFPV65","3UUIU9GZC5R93N292LT21FRJ9VS5TN","","null","<img src=""img/flower6.png"" style=""width:200px; border:14px solid green;"">","null","","","","","","","","",""
"","image-keyboard-response","180","185743","0.0-180.0","3YGXWBAF713C77USTWK4WWHPTWKC4K","A11JGMLOFFPV65","3UUIU9GZC5R93N292LT21FRJ9VS5TN","","1000.5","img/flower5.png","76","1001.4000000059605","3","1","3","1","1,0.333,0.333,0.333,1,0.333,0.333,0.333,1","1,0.333,0.333,0.333,1,0.333,0.333,0.333,1","1",""
"","html-keyboard-response","181","186047","0.0-181.0","3YGXWBAF713C77USTWK4WWHPTWKC4K","A11JGMLOFFPV65","3UUIU9GZC5R93N292LT21FRJ9VS5TN","","null","<img src=""img/flower5.png"" style=""width:200px; border:14px solid green;"">","null","","","","","","","","",""
"","html-keyboard-response","182","190988","0.0-182.0","3YGXWBAF713C77USTWK4WWHPTWKC4K","A11JGMLOFFPV65","3UUIU9GZC5R93N292LT21FRJ9VS5TN","","","","","","","","","","","","",""
"","image-keyboard-response","183","192938","0.0-183.0","3YGXWBAF713C77USTWK4WWHPTWKC4K","A11JGMLOFFPV65","3UUIU9GZC5R93N292LT21FRJ9VS5TN","","1948.4000000059605","img/flower4.png","76","1949.800000011921","3","0","2","2","1,0,0,1,1,0,1,0,1","1,0,0,1,1,0,1,0,1","1",""
"","html-keyboard-response","184","193241","0.0-184.0","3YGXWBAF713C77USTWK4WWHPTWKC4K","A11JGMLOFFPV65","3UUIU9GZC5R93N292LT21FRJ9VS5TN","","null","<img src=""img/flower4.png"" style=""width:200px;border:14px solid red;"">","null","","","","","","","","",""
"","image-keyboard-response","185","193908","0.0-185.0","3YGXWBAF713C77USTWK4WWHPTWKC4K","A11JGMLOFFPV65","3UUIU9GZC5R93N292LT21FRJ9VS5TN","","666.1000000238419","img/flower1.png","74","667.2000000178814","1","1","1","2","1,0,0,1,1,0,1,0,1","1,0,0,1,1,0,1,0,1","1",""
"","html-keyboard-response","186","194212","0.0-186.0","3YGXWBAF713C77USTWK4WWHPTWKC4K","A11JGMLOFFPV65","3UUIU9GZC5R93N292LT21FRJ9VS5TN","","null","<img src=""img/flower1.png"" style=""width:200px; border:14px solid green;"">","null","","","","","","","","",""
"","image-keyboard-response","187","195449","0.0-187.0","3YGXWBAF713C77USTWK4WWHPTWKC4K","A11JGMLOFFPV65","3UUIU9GZC5R93N292LT21FRJ9VS5TN","","1236.6000000238419","img/flower1.png","74","1237.4000000059605","1","1","1","2","1,0,0,1,1,0,1,0,1","1,0,0,1,1,0,1,0,1","1",""
"","html-keyboard-response","188","195752","0.0-188.0","3YGXWBAF713C77USTWK4WWHPTWKC4K","A11JGMLOFFPV65","3UUIU9GZC5R93N292LT21FRJ9VS5TN","","null","<img src=""img/flower1.png"" style=""width:200px; border:14px solid green;"">","null","","","","","","","","",""
"","image-keyboard-response","189","196578","0.0-189.0","3YGXWBAF713C77USTWK4WWHPTWKC4K","A11JGMLOFFPV65","3UUIU9GZC5R93N292LT21FRJ9VS5TN","","824.6999999880791","img/flower1.png","74","825.8000000119209","1","1","1","2","1,0,0,1,1,0,1,0,1","1,0,0,1,1,0,1,0,1","1",""
"","html-keyboard-response","190","196881","0.0-190.0","3YGXWBAF713C77USTWK4WWHPTWKC4K","A11JGMLOFFPV65","3UUIU9GZC5R93N292LT21FRJ9VS5TN","","null","<img src=""img/flower1.png"" style=""width:200px; border:14px solid green;"">","null","","","","","","","","",""
"","image-keyboard-response","191","198508","0.0-191.0","3YGXWBAF713C77USTWK4WWHPTWKC4K","A11JGMLOFFPV65","3UUIU9GZC5R93N292LT21FRJ9VS5TN","","1626.0999999940395","img/flower4.png","75","1627","2","1","2","2","1,0,0,1,1,0,1,0,1","1,0,0,1,1,0,1,0,1","1",""
"","html-keyboard-response","192","198810","0.0-192.0","3YGXWBAF713C77USTWK4WWHPTWKC4K","A11JGMLOFFPV65","3UUIU9GZC5R93N292LT21FRJ9VS5TN","","null","<img src=""img/flower4.png"" style=""width:200px; border:14px solid green;"">","null","","","","","","","","",""
"","image-keyboard-response","193","200177","0.0-193.0","3YGXWBAF713C77USTWK4WWHPTWKC4K","A11JGMLOFFPV65","3UUIU9GZC5R93N292LT21FRJ9VS5TN","","1366.5","img/flower3.png","76","1367.2000000178814","3","1","3","2","1,0,0,1,1,0,1,0,1","1,0,0,1,1,0,1,0,1","1",""
"","html-keyboard-response","194","200479","0.0-194.0","3YGXWBAF713C77USTWK4WWHPTWKC4K","A11JGMLOFFPV65","3UUIU9GZC5R93N292LT21FRJ9VS5TN","","null","<img src=""img/flower3.png"" style=""width:200px; border:14px solid green;"">","null","","","","","","","","",""
"","image-keyboard-response","195","201768","0.0-195.0","3YGXWBAF713C77USTWK4WWHPTWKC4K","A11JGMLOFFPV65","3UUIU9GZC5R93N292LT21FRJ9VS5TN","","1287.3999999761581","img/flower1.png","74","1288.4000000059605","1","1","1","2","1,0,0,1,1,0,1,0,1","1,0,0,1,1,0,1,0,1","1",""
"","html-keyboard-response","196","202071","0.0-196.0","3YGXWBAF713C77USTWK4WWHPTWKC4K","A11JGMLOFFPV65","3UUIU9GZC5R93N292LT21FRJ9VS5TN","","null","<img src=""img/flower1.png"" style=""width:200px; border:14px solid green;"">","null","","","","","","","","",""
"","image-keyboard-response","197","203054","0.0-197.0","3YGXWBAF713C77USTWK4WWHPTWKC4K","A11JGMLOFFPV65","3UUIU9GZC5R93N292LT21FRJ9VS5TN","","981.5","img/flower1.png","74","982.5","1","1","1","2","1,0,0,1,1,0,1,0,1","1,0,0,1,1,0,1,0,1","1",""
"","html-keyboard-response","198","203357","0.0-198.0","3YGXWBAF713C77USTWK4WWHPTWKC4K","A11JGMLOFFPV65","3UUIU9GZC5R93N292LT21FRJ9VS5TN","","null","<img src=""img/flower1.png"" style=""width:200px; border:14px solid green;"">","null","","","","","","","","",""
"","image-keyboard-response","199","204257","0.0-199.0","3YGXWBAF713C77USTWK4WWHPTWKC4K","A11JGMLOFFPV65","3UUIU9GZC5R93N292LT21FRJ9VS5TN","","899.6999999880791","img/flower4.png","75","900.6999999880791","2","1","2","2","1,0,0,1,1,0,1,0,1","1,0,0,1,1,0,1,0,1","1",""
"","html-keyboard-response","200","204560","0.0-200.0","3YGXWBAF713C77USTWK4WWHPTWKC4K","A11JGMLOFFPV65","3UUIU9GZC5R93N292LT21FRJ9VS5TN","","null","<img src=""img/flower4.png"" style=""width:200px; border:14px solid green;"">","null","","","","","","","","",""
"","image-keyboard-response","201","205458","0.0-201.0","3YGXWBAF713C77USTWK4WWHPTWKC4K","A11JGMLOFFPV65","3UUIU9GZC5R93N292LT21FRJ9VS5TN","","896.0999999940395","img/flower4.png","75","897.2000000178814","2","1","2","2","1,0,0,1,1,0,1,0,1","1,0,0,1,1,0,1,0,1","1",""
"","html-keyboard-response","202","205761","0.0-202.0","3YGXWBAF713C77USTWK4WWHPTWKC4K","A11JGMLOFFPV65","3UUIU9GZC5R93N292LT21FRJ9VS5TN","","null","<img src=""img/flower4.png"" style=""width:200px; border:14px solid green;"">","null","","","","","","","","",""
"","image-keyboard-response","203","206689","0.0-203.0","3YGXWBAF713C77USTWK4WWHPTWKC4K","A11JGMLOFFPV65","3UUIU9GZC5R93N292LT21FRJ9VS5TN","","926.2999999821186","img/flower3.png","76","927.4000000059605","3","1","3","2","1,0,0,1,1,0,1,0,1","1,0,0,1,1,0,1,0,1","1",""
"","html-keyboard-response","204","206991","0.0-204.0","3YGXWBAF713C77USTWK4WWHPTWKC4K","A11JGMLOFFPV65","3UUIU9GZC5R93N292LT21FRJ9VS5TN","","null","<img src=""img/flower3.png"" style=""width:200px; border:14px solid green;"">","null","","","","","","","","",""
"","image-keyboard-response","205","208137","0.0-205.0","3YGXWBAF713C77USTWK4WWHPTWKC4K","A11JGMLOFFPV65","3UUIU9GZC5R93N292LT21FRJ9VS5TN","","1145.1000000238419","img/flower3.png","76","1146.0999999940395","3","1","3","2","1,0,0,1,1,0,1,0,1","1,0,0,1,1,0,1,0,1","1",""
"","html-keyboard-response","206","208440","0.0-206.0","3YGXWBAF713C77USTWK4WWHPTWKC4K","A11JGMLOFFPV65","3UUIU9GZC5R93N292LT21FRJ9VS5TN","","null","<img src=""img/flower3.png"" style=""width:200px; border:14px solid green;"">","null","","","","","","","","",""
"","image-keyboard-response","207","209637","0.0-207.0","3YGXWBAF713C77USTWK4WWHPTWKC4K","A11JGMLOFFPV65","3UUIU9GZC5R93N292LT21FRJ9VS5TN","","1195.9000000059605","img/flower4.png","75","1197.1000000238419","2","1","2","2","1,0,0,1,1,0,1,0,1","1,0,0,1,1,0,1,0,1","1",""
"","html-keyboard-response","208","209939","0.0-208.0","3YGXWBAF713C77USTWK4WWHPTWKC4K","A11JGMLOFFPV65","3UUIU9GZC5R93N292LT21FRJ9VS5TN","","null","<img src=""img/flower4.png"" style=""width:200px; border:14px solid green;"">","null","","","","","","","","",""
"","image-keyboard-response","209","211093","0.0-209.0","3YGXWBAF713C77USTWK4WWHPTWKC4K","A11JGMLOFFPV65","3UUIU9GZC5R93N292LT21FRJ9VS5TN","","1152.2999999821186","img/flower3.png","76","1153.300000011921","3","1","3","2","1,0,0,1,1,0,1,0,1","1,0,0,1,1,0,1,0,1","1",""
"","html-keyboard-response","210","211396","0.0-210.0","3YGXWBAF713C77USTWK4WWHPTWKC4K","A11JGMLOFFPV65","3UUIU9GZC5R93N292LT21FRJ9VS5TN","","null","<img src=""img/flower3.png"" style=""width:200px; border:14px solid green;"">","null","","","","","","","","",""
"","image-keyboard-response","211","213398","0.0-211.0","3YGXWBAF713C77USTWK4WWHPTWKC4K","A11JGMLOFFPV65","3UUIU9GZC5R93N292LT21FRJ9VS5TN","","","img/flower4.png","","2002.300000011921","-1","0","2","2","1,0,0,1,1,0,1,0,1","1,0,0,1,1,0,1,0,1","1",""
"","html-keyboard-response","212","213701","0.0-212.0","3YGXWBAF713C77USTWK4WWHPTWKC4K","A11JGMLOFFPV65","3UUIU9GZC5R93N292LT21FRJ9VS5TN","","null","<img src=""img/flower4.png"" style=""width:200px;border:14px solid red;"">","null","","","","","","","","",""
"","image-keyboard-response","213","214597","0.0-213.0","3YGXWBAF713C77USTWK4WWHPTWKC4K","A11JGMLOFFPV65","3UUIU9GZC5R93N292LT21FRJ9VS5TN","","895","img/flower4.png","75","896","2","1","2","2","1,0,0,1,1,0,1,0,1","1,0,0,1,1,0,1,0,1","1",""
"","html-keyboard-response","214","214900","0.0-214.0","3YGXWBAF713C77USTWK4WWHPTWKC4K","A11JGMLOFFPV65","3UUIU9GZC5R93N292LT21FRJ9VS5TN","","null","<img src=""img/flower4.png"" style=""width:200px; border:14px solid green;"">","null","","","","","","","","",""
"","image-keyboard-response","215","215887","0.0-215.0","3YGXWBAF713C77USTWK4WWHPTWKC4K","A11JGMLOFFPV65","3UUIU9GZC5R93N292LT21FRJ9VS5TN","","986","img/flower1.png","74","986.9000000059605","1","1","1","2","1,0,0,1,1,0,1,0,1","1,0,0,1,1,0,1,0,1","1",""
"","html-keyboard-response","216","216189","0.0-216.0","3YGXWBAF713C77USTWK4WWHPTWKC4K","A11JGMLOFFPV65","3UUIU9GZC5R93N292LT21FRJ9VS5TN","","null","<img src=""img/flower1.png"" style=""width:200px; border:14px solid green;"">","null","","","","","","","","",""
"","image-keyboard-response","217","216977","0.0-217.0","3YGXWBAF713C77USTWK4WWHPTWKC4K","A11JGMLOFFPV65","3UUIU9GZC5R93N292LT21FRJ9VS5TN","","786.7000000178814","img/flower1.png","74","787.5","1","1","1","2","1,0,0,1,1,0,1,0,1","1,0,0,1,1,0,1,0,1","1",""
"","html-keyboard-response","218","217279","0.0-218.0","3YGXWBAF713C77USTWK4WWHPTWKC4K","A11JGMLOFFPV65","3UUIU9GZC5R93N292LT21FRJ9VS5TN","","null","<img src=""img/flower1.png"" style=""width:200px; border:14px solid green;"">","null","","","","","","","","",""
"","image-keyboard-response","219","218357","0.0-219.0","3YGXWBAF713C77USTWK4WWHPTWKC4K","A11JGMLOFFPV65","3UUIU9GZC5R93N292LT21FRJ9VS5TN","","1076.9000000059605","img/flower1.png","74","1078","1","1","1","2","1,0,0,1,1,0,1,0,1","1,0,0,1,1,0,1,0,1","1",""
"","html-keyboard-response","220","218660","0.0-220.0","3YGXWBAF713C77USTWK4WWHPTWKC4K","A11JGMLOFFPV65","3UUIU9GZC5R93N292LT21FRJ9VS5TN","","null","<img src=""img/flower1.png"" style=""width:200px; border:14px solid green;"">","null","","","","","","","","",""
"","image-keyboard-response","221","219787","0.0-221.0","3YGXWBAF713C77USTWK4WWHPTWKC4K","A11JGMLOFFPV65","3UUIU9GZC5R93N292LT21FRJ9VS5TN","","1126.4000000059605","img/flower3.png","76","1127.300000011921","3","1","3","2","1,0,0,1,1,0,1,0,1","1,0,0,1,1,0,1,0,1","1",""
"","html-keyboard-response","222","220090","0.0-222.0","3YGXWBAF713C77USTWK4WWHPTWKC4K","A11JGMLOFFPV65","3UUIU9GZC5R93N292LT21FRJ9VS5TN","","null","<img src=""img/flower3.png"" style=""width:200px; border:14px solid green;"">","null","","","","","","","","",""
"","image-keyboard-response","223","221062","0.0-223.0","3YGXWBAF713C77USTWK4WWHPTWKC4K","A11JGMLOFFPV65","3UUIU9GZC5R93N292LT21FRJ9VS5TN","","970.7999999821186","img/flower3.png","76","971.6999999880791","3","1","3","2","1,0,0,1,1,0,1,0,1","1,0,0,1,1,0,1,0,1","1",""
"","html-keyboard-response","224","221365","0.0-224.0","3YGXWBAF713C77USTWK4WWHPTWKC4K","A11JGMLOFFPV65","3UUIU9GZC5R93N292LT21FRJ9VS5TN","","null","<img src=""img/flower3.png"" style=""width:200px; border:14px solid green;"">","null","","","","","","","","",""
"","image-keyboard-response","225","222017","0.0-225.0","3YGXWBAF713C77USTWK4WWHPTWKC4K","A11JGMLOFFPV65","3UUIU9GZC5R93N292LT21FRJ9VS5TN","","650.8000000119209","img/flower4.png","76","651.9000000059605","3","0","2","2","1,0,0,1,1,0,1,0,1","1,0,0,1,1,0,1,0,1","1",""
"","html-keyboard-response","226","222319","0.0-226.0","3YGXWBAF713C77USTWK4WWHPTWKC4K","A11JGMLOFFPV65","3UUIU9GZC5R93N292LT21FRJ9VS5TN","","null","<img src=""img/flower4.png"" style=""width:200px;border:14px solid red;"">","null","","","","","","","","",""
"","image-keyboard-response","227","223377","0.0-227.0","3YGXWBAF713C77USTWK4WWHPTWKC4K","A11JGMLOFFPV65","3UUIU9GZC5R93N292LT21FRJ9VS5TN","","1056.7000000178814","img/flower3.png","76","1057.7000000178814","3","1","3","2","1,0,0,1,1,0,1,0,1","1,0,0,1,1,0,1,0,1","1",""
"","html-keyboard-response","228","223680","0.0-228.0","3YGXWBAF713C77USTWK4WWHPTWKC4K","A11JGMLOFFPV65","3UUIU9GZC5R93N292LT21FRJ9VS5TN","","null","<img src=""img/flower3.png"" style=""width:200px; border:14px solid green;"">","null","","","","","","","","",""
"","image-keyboard-response","229","224598","0.0-229.0","3YGXWBAF713C77USTWK4WWHPTWKC4K","A11JGMLOFFPV65","3UUIU9GZC5R93N292LT21FRJ9VS5TN","","916.5999999940395","img/flower3.png","76","917.6000000238419","3","1","3","2","1,0,0,1,1,0,1,0,1","1,0,0,1,1,0,1,0,1","1",""
"","html-keyboard-response","230","224902","0.0-230.0","3YGXWBAF713C77USTWK4WWHPTWKC4K","A11JGMLOFFPV65","3UUIU9GZC5R93N292LT21FRJ9VS5TN","","null","<img src=""img/flower3.png"" style=""width:200px; border:14px solid green;"">","null","","","","","","","","",""
"","image-keyboard-response","231","226247","0.0-231.0","3YGXWBAF713C77USTWK4WWHPTWKC4K","A11JGMLOFFPV65","3UUIU9GZC5R93N292LT21FRJ9VS5TN","","1344.300000011921","img/flower4.png","75","1345.0999999940395","2","1","2","2","1,0,0,1,1,0,1,0,1","1,0,0,1,1,0,1,0,1","1",""
"","html-keyboard-response","232","226549","0.0-232.0","3YGXWBAF713C77USTWK4WWHPTWKC4K","A11JGMLOFFPV65","3UUIU9GZC5R93N292LT21FRJ9VS5TN","","null","<img src=""img/flower4.png"" style=""width:200px; border:14px solid green;"">","null","","","","","","","","",""
"","image-keyboard-response","233","228337","0.0-233.0","3YGXWBAF713C77USTWK4WWHPTWKC4K","A11JGMLOFFPV65","3UUIU9GZC5R93N292LT21FRJ9VS5TN","","1787.0999999940395","img/flower3.png","76","1788.199999988079","3","1","3","2","1,0,0,1,1,0,1,0,1","1,0,0,1,1,0,1,0,1","1",""
"","html-keyboard-response","234","228641","0.0-234.0","3YGXWBAF713C77USTWK4WWHPTWKC4K","A11JGMLOFFPV65","3UUIU9GZC5R93N292LT21FRJ9VS5TN","","null","<img src=""img/flower3.png"" style=""width:200px; border:14px solid green;"">","null","","","","","","","","",""
"","image-keyboard-response","235","229877","0.0-235.0","3YGXWBAF713C77USTWK4WWHPTWKC4K","A11JGMLOFFPV65","3UUIU9GZC5R93N292LT21FRJ9VS5TN","","1235.2999999821186","img/flower1.png","74","1236.199999988079","1","1","1","2","1,0,0,1,1,0,1,0,1","1,0,0,1,1,0,1,0,1","1",""
"","html-keyboard-response","236","230180","0.0-236.0","3YGXWBAF713C77USTWK4WWHPTWKC4K","A11JGMLOFFPV65","3UUIU9GZC5R93N292LT21FRJ9VS5TN","","null","<img src=""img/flower1.png"" style=""width:200px; border:14px solid green;"">","null","","","","","","","","",""
"","image-keyboard-response","237","231817","0.0-237.0","3YGXWBAF713C77USTWK4WWHPTWKC4K","A11JGMLOFFPV65","3UUIU9GZC5R93N292LT21FRJ9VS5TN","","1635.800000011921","img/flower1.png","74","1636.9000000059605","1","1","1","2","1,0,0,1,1,0,1,0,1","1,0,0,1,1,0,1,0,1","1",""
"","html-keyboard-response","238","232119","0.0-238.0","3YGXWBAF713C77USTWK4WWHPTWKC4K","A11JGMLOFFPV65","3UUIU9GZC5R93N292LT21FRJ9VS5TN","","null","<img src=""img/flower1.png"" style=""width:200px; border:14px solid green;"">","null","","","","","","","","",""
"","image-keyboard-response","239","233683","0.0-239.0","3YGXWBAF713C77USTWK4WWHPTWKC4K","A11JGMLOFFPV65","3UUIU9GZC5R93N292LT21FRJ9VS5TN","","1562","img/flower1.png","74","1563.300000011921","1","1","1","2","1,0,0,1,1,0,1,0,1","1,0,0,1,1,0,1,0,1","1",""
"","html-keyboard-response","240","233986","0.0-240.0","3YGXWBAF713C77USTWK4WWHPTWKC4K","A11JGMLOFFPV65","3UUIU9GZC5R93N292LT21FRJ9VS5TN","","null","<img src=""img/flower1.png"" style=""width:200px; border:14px solid green;"">","null","","","","","","","","",""
"","image-keyboard-response","241","235838","0.0-241.0","3YGXWBAF713C77USTWK4WWHPTWKC4K","A11JGMLOFFPV65","3UUIU9GZC5R93N292LT21FRJ9VS5TN","","1851","img/flower1.png","74","1852.199999988079","1","1","1","2","1,0,0,1,1,0,1,0,1","1,0,0,1,1,0,1,0,1","1",""
"","html-keyboard-response","242","236141","0.0-242.0","3YGXWBAF713C77USTWK4WWHPTWKC4K","A11JGMLOFFPV65","3UUIU9GZC5R93N292LT21FRJ9VS5TN","","null","<img src=""img/flower1.png"" style=""width:200px; border:14px solid green;"">","null","","","","","","","","",""
"","image-keyboard-response","243","237702","0.0-243.0","3YGXWBAF713C77USTWK4WWHPTWKC4K","A11JGMLOFFPV65","3UUIU9GZC5R93N292LT21FRJ9VS5TN","","1559.7000000178814","img/flower4.png","75","1561","2","1","2","2","1,0,0,1,1,0,1,0,1","1,0,0,1,1,0,1,0,1","1",""
"","html-keyboard-response","244","238004","0.0-244.0","3YGXWBAF713C77USTWK4WWHPTWKC4K","A11JGMLOFFPV65","3UUIU9GZC5R93N292LT21FRJ9VS5TN","","null","<img src=""img/flower4.png"" style=""width:200px; border:14px solid green;"">","null","","","","","","","","",""
"","image-keyboard-response","245","240007","0.0-245.0","3YGXWBAF713C77USTWK4WWHPTWKC4K","A11JGMLOFFPV65","3UUIU9GZC5R93N292LT21FRJ9VS5TN","","","img/flower4.png","","2002.300000011921","-1","0","2","2","1,0,0,1,1,0,1,0,1","1,0,0,1,1,0,1,0,1","1",""
"","html-keyboard-response","246","240309","0.0-246.0","3YGXWBAF713C77USTWK4WWHPTWKC4K","A11JGMLOFFPV65","3UUIU9GZC5R93N292LT21FRJ9VS5TN","","null","<img src=""img/flower4.png"" style=""width:200px;border:14px solid red;"">","null","","","","","","","","",""
"","image-keyboard-response","247","242312","0.0-247.0","3YGXWBAF713C77USTWK4WWHPTWKC4K","A11JGMLOFFPV65","3UUIU9GZC5R93N292LT21FRJ9VS5TN","","","img/flower1.png","","2002.2999999821186","-1","0","1","2","1,0,0,1,1,0,1,0,1","1,0,0,1,1,0,1,0,1","1",""
"","html-keyboard-response","248","242615","0.0-248.0","3YGXWBAF713C77USTWK4WWHPTWKC4K","A11JGMLOFFPV65","3UUIU9GZC5R93N292LT21FRJ9VS5TN","","null","<img src=""img/flower1.png"" style=""width:200px;border:14px solid red;"">","null","","","","","","","","",""
"","image-keyboard-response","249","244618","0.0-249.0","3YGXWBAF713C77USTWK4WWHPTWKC4K","A11JGMLOFFPV65","3UUIU9GZC5R93N292LT21FRJ9VS5TN","","","img/flower4.png","","2002","-1","0","2","2","1,0,0,1,1,0,1,0,1","1,0,0,1,1,0,1,0,1","1",""
"","html-keyboard-response","250","244921","0.0-250.0","3YGXWBAF713C77USTWK4WWHPTWKC4K","A11JGMLOFFPV65","3UUIU9GZC5R93N292LT21FRJ9VS5TN","","null","<img src=""img/flower4.png"" style=""width:200px;border:14px solid red;"">","null","","","","","","","","",""
"","image-keyboard-response","251","246923","0.0-251.0","3YGXWBAF713C77USTWK4WWHPTWKC4K","A11JGMLOFFPV65","3UUIU9GZC5R93N292LT21FRJ9VS5TN","","","img/flower4.png","","2002.199999988079","-1","0","2","2","1,0,0,1,1,0,1,0,1","1,0,0,1,1,0,1,0,1","1",""
"","html-keyboard-response","252","247226","0.0-252.0","3YGXWBAF713C77USTWK4WWHPTWKC4K","A11JGMLOFFPV65","3UUIU9GZC5R93N292LT21FRJ9VS5TN","","null","<img src=""img/flower4.png"" style=""width:200px;border:14px solid red;"">","null","","","","","","","","",""
"","image-keyboard-response","253","248598","0.0-253.0","3YGXWBAF713C77USTWK4WWHPTWKC4K","A11JGMLOFFPV65","3UUIU9GZC5R93N292LT21FRJ9VS5TN","","1371.199999988079","img/flower4.png","74","1372.300000011921","1","1","2","2","1,0,0,1,1,0,1,0,1","1,0,0,1,1,0,1,0,1","1",""
"","html-keyboard-response","254","248901","0.0-254.0","3YGXWBAF713C77USTWK4WWHPTWKC4K","A11JGMLOFFPV65","3UUIU9GZC5R93N292LT21FRJ9VS5TN","","null","<img src=""img/flower4.png"" style=""width:200px; border:14px solid green;"">","null","","","","","","","","",""
"","image-keyboard-response","255","249953","0.0-255.0","3YGXWBAF713C77USTWK4WWHPTWKC4K","A11JGMLOFFPV65","3UUIU9GZC5R93N292LT21FRJ9VS5TN","","1050.199999988079","img/flower3.png","76","1051.2000000178814","3","1","3","2","1,0,0,1,1,0,1,0,1","1,0,0,1,1,0,1,0,1","1",""
"","html-keyboard-response","256","250255","0.0-256.0","3YGXWBAF713C77USTWK4WWHPTWKC4K","A11JGMLOFFPV65","3UUIU9GZC5R93N292LT21FRJ9VS5TN","","null","<img src=""img/flower3.png"" style=""width:200px; border:14px solid green;"">","null","","","","","","","","",""
"","image-keyboard-response","257","252028","0.0-257.0","3YGXWBAF713C77USTWK4WWHPTWKC4K","A11JGMLOFFPV65","3UUIU9GZC5R93N292LT21FRJ9VS5TN","","1772","img/flower4.png","75","1772.9000000059605","2","1","2","2","1,0,0,1,1,0,1,0,1","1,0,0,1,1,0,1,0,1","1",""
"","html-keyboard-response","258","252330","0.0-258.0","3YGXWBAF713C77USTWK4WWHPTWKC4K","A11JGMLOFFPV65","3UUIU9GZC5R93N292LT21FRJ9VS5TN","","null","<img src=""img/flower4.png"" style=""width:200px; border:14px solid green;"">","null","","","","","","","","",""
"","image-keyboard-response","259","253939","0.0-259.0","3YGXWBAF713C77USTWK4WWHPTWKC4K","A11JGMLOFFPV65","3UUIU9GZC5R93N292LT21FRJ9VS5TN","","1607.199999988079","img/flower1.png","74","1608.199999988079","1","1","1","2","1,0,0,1,1,0,1,0,1","1,0,0,1,1,0,1,0,1","1",""
"","html-keyboard-response","260","254242","0.0-260.0","3YGXWBAF713C77USTWK4WWHPTWKC4K","A11JGMLOFFPV65","3UUIU9GZC5R93N292LT21FRJ9VS5TN","","null","<img src=""img/flower1.png"" style=""width:200px; border:14px solid green;"">","null","","","","","","","","",""
"","image-keyboard-response","261","255958","0.0-261.0","3YGXWBAF713C77USTWK4WWHPTWKC4K","A11JGMLOFFPV65","3UUIU9GZC5R93N292LT21FRJ9VS5TN","","1714.9000000059605","img/flower4.png","75","1715.7999999821186","2","1","2","2","1,0,0,1,1,0,1,0,1","1,0,0,1,1,0,1,0,1","1",""
"","html-keyboard-response","262","256260","0.0-262.0","3YGXWBAF713C77USTWK4WWHPTWKC4K","A11JGMLOFFPV65","3UUIU9GZC5R93N292LT21FRJ9VS5TN","","null","<img src=""img/flower4.png"" style=""width:200px; border:14px solid green;"">","null","","","","","","","","",""
"","image-keyboard-response","263","257838","0.0-263.0","3YGXWBAF713C77USTWK4WWHPTWKC4K","A11JGMLOFFPV65","3UUIU9GZC5R93N292LT21FRJ9VS5TN","","1576.5999999940395","img/flower3.png","76","1577.5","3","1","3","2","1,0,0,1,1,0,1,0,1","1,0,0,1,1,0,1,0,1","1",""
"","html-keyboard-response","264","258140","0.0-264.0","3YGXWBAF713C77USTWK4WWHPTWKC4K","A11JGMLOFFPV65","3UUIU9GZC5R93N292LT21FRJ9VS5TN","","null","<img src=""img/flower3.png"" style=""width:200px; border:14px solid green;"">","null","","","","","","","","",""
"","image-keyboard-response","265","260048","0.0-265.0","3YGXWBAF713C77USTWK4WWHPTWKC4K","A11JGMLOFFPV65","3UUIU9GZC5R93N292LT21FRJ9VS5TN","","1906.300000011921","img/flower1.png","74","1907.2000000178814","1","1","1","2","1,0,0,1,1,0,1,0,1","1,0,0,1,1,0,1,0,1","1",""
"","html-keyboard-response","266","260350","0.0-266.0","3YGXWBAF713C77USTWK4WWHPTWKC4K","A11JGMLOFFPV65","3UUIU9GZC5R93N292LT21FRJ9VS5TN","","null","<img src=""img/flower1.png"" style=""width:200px; border:14px solid green;"">","null","","","","","","","","",""
"","image-keyboard-response","267","261867","0.0-267.0","3YGXWBAF713C77USTWK4WWHPTWKC4K","A11JGMLOFFPV65","3UUIU9GZC5R93N292LT21FRJ9VS5TN","","1516.800000011921","img/flower4.png","75","1517.699999988079","2","1","2","2","1,0,0,1,1,0,1,0,1","1,0,0,1,1,0,1,0,1","1",""
"","html-keyboard-response","268","262170","0.0-268.0","3YGXWBAF713C77USTWK4WWHPTWKC4K","A11JGMLOFFPV65","3UUIU9GZC5R93N292LT21FRJ9VS5TN","","null","<img src=""img/flower4.png"" style=""width:200px; border:14px solid green;"">","null","","","","","","","","",""
"","image-keyboard-response","269","263868","0.0-269.0","3YGXWBAF713C77USTWK4WWHPTWKC4K","A11JGMLOFFPV65","3UUIU9GZC5R93N292LT21FRJ9VS5TN","","1696.7999999821186","img/flower4.png","75","1698","2","1","2","2","1,0,0,1,1,0,1,0,1","1,0,0,1,1,0,1,0,1","1",""
"","html-keyboard-response","270","264170","0.0-270.0","3YGXWBAF713C77USTWK4WWHPTWKC4K","A11JGMLOFFPV65","3UUIU9GZC5R93N292LT21FRJ9VS5TN","","null","<img src=""img/flower4.png"" style=""width:200px; border:14px solid green;"">","null","","","","","","","","",""
"","image-keyboard-response","271","265927","0.0-271.0","3YGXWBAF713C77USTWK4WWHPTWKC4K","A11JGMLOFFPV65","3UUIU9GZC5R93N292LT21FRJ9VS5TN","","1755.8999999761581","img/flower3.png","76","1756.800000011921","3","1","3","2","1,0,0,1,1,0,1,0,1","1,0,0,1,1,0,1,0,1","1",""
"","html-keyboard-response","272","266230","0.0-272.0","3YGXWBAF713C77USTWK4WWHPTWKC4K","A11JGMLOFFPV65","3UUIU9GZC5R93N292LT21FRJ9VS5TN","","null","<img src=""img/flower3.png"" style=""width:200px; border:14px solid green;"">","null","","","","","","","","",""
"","image-keyboard-response","273","268232","0.0-273.0","3YGXWBAF713C77USTWK4WWHPTWKC4K","A11JGMLOFFPV65","3UUIU9GZC5R93N292LT21FRJ9VS5TN","","","img/flower1.png","","2002.300000011921","-1","0","1","2","1,0,0,1,1,0,1,0,1","1,0,0,1,1,0,1,0,1","1",""
"","html-keyboard-response","274","268535","0.0-274.0","3YGXWBAF713C77USTWK4WWHPTWKC4K","A11JGMLOFFPV65","3UUIU9GZC5R93N292LT21FRJ9VS5TN","","null","<img src=""img/flower1.png"" style=""width:200px;border:14px solid red;"">","null","","","","","","","","",""
"","image-keyboard-response","275","269907","0.0-275.0","3YGXWBAF713C77USTWK4WWHPTWKC4K","A11JGMLOFFPV65","3UUIU9GZC5R93N292LT21FRJ9VS5TN","","1371.199999988079","img/flower4.png","76","1372.2999999821186","3","0","2","2","1,0,0,1,1,0,1,0,1","1,0,0,1,1,0,1,0,1","1",""
"","html-keyboard-response","276","270210","0.0-276.0","3YGXWBAF713C77USTWK4WWHPTWKC4K","A11JGMLOFFPV65","3UUIU9GZC5R93N292LT21FRJ9VS5TN","","null","<img src=""img/flower4.png"" style=""width:200px;border:14px solid red;"">","null","","","","","","","","",""
"","image-keyboard-response","277","270918","0.0-277.0","3YGXWBAF713C77USTWK4WWHPTWKC4K","A11JGMLOFFPV65","3UUIU9GZC5R93N292LT21FRJ9VS5TN","","706.1999999880791","img/flower1.png","75","707.3000000119209","2","0","1","2","1,0,0,1,1,0,1,0,1","1,0,0,1,1,0,1,0,1","1",""
"","html-keyboard-response","278","271220","0.0-278.0","3YGXWBAF713C77USTWK4WWHPTWKC4K","A11JGMLOFFPV65","3UUIU9GZC5R93N292LT21FRJ9VS5TN","","null","<img src=""img/flower1.png"" style=""width:200px;border:14px solid red;"">","null","","","","","","","","",""
"","image-keyboard-response","279","272613","0.0-279.0","3YGXWBAF713C77USTWK4WWHPTWKC4K","A11JGMLOFFPV65","3UUIU9GZC5R93N292LT21FRJ9VS5TN","","1391.800000011921","img/flower1.png","74","1392.800000011921","1","1","1","2","1,0,0,1,1,0,1,0,1","1,0,0,1,1,0,1,0,1","1",""
"","html-keyboard-response","280","272916","0.0-280.0","3YGXWBAF713C77USTWK4WWHPTWKC4K","A11JGMLOFFPV65","3UUIU9GZC5R93N292LT21FRJ9VS5TN","","null","<img src=""img/flower1.png"" style=""width:200px; border:14px solid green;"">","null","","","","","","","","",""
"","image-keyboard-response","281","273868","0.0-281.0","3YGXWBAF713C77USTWK4WWHPTWKC4K","A11JGMLOFFPV65","3UUIU9GZC5R93N292LT21FRJ9VS5TN","","949.8000000119209","img/flower3.png","76","950.7999999821186","3","1","3","2","1,0,0,1,1,0,1,0,1","1,0,0,1,1,0,1,0,1","1",""
"","html-keyboard-response","282","274170","0.0-282.0","3YGXWBAF713C77USTWK4WWHPTWKC4K","A11JGMLOFFPV65","3UUIU9GZC5R93N292LT21FRJ9VS5TN","","null","<img src=""img/flower3.png"" style=""width:200px; border:14px solid green;"">","null","","","","","","","","",""
"","image-keyboard-response","283","276173","0.0-283.0","3YGXWBAF713C77USTWK4WWHPTWKC4K","A11JGMLOFFPV65","3UUIU9GZC5R93N292LT21FRJ9VS5TN","","","img/flower3.png","","2002.4000000059605","-1","0","3","2","1,0,0,1,1,0,1,0,1","1,0,0,1,1,0,1,0,1","1",""
"","html-keyboard-response","284","276474","0.0-284.0","3YGXWBAF713C77USTWK4WWHPTWKC4K","A11JGMLOFFPV65","3UUIU9GZC5R93N292LT21FRJ9VS5TN","","null","<img src=""img/flower3.png"" style=""width:200px;border:14px solid red;"">","null","","","","","","","","",""
"","image-keyboard-response","285","277308","0.0-285.0","3YGXWBAF713C77USTWK4WWHPTWKC4K","A11JGMLOFFPV65","3UUIU9GZC5R93N292LT21FRJ9VS5TN","","832.3000000119209","img/flower4.png","76","833.3000000119209","3","0","2","2","1,0,0,1,1,0,1,0,1","1,0,0,1,1,0,1,0,1","1",""
"","html-keyboard-response","286","277611","0.0-286.0","3YGXWBAF713C77USTWK4WWHPTWKC4K","A11JGMLOFFPV65","3UUIU9GZC5R93N292LT21FRJ9VS5TN","","null","<img src=""img/flower4.png"" style=""width:200px;border:14px solid red;"">","null","","","","","","","","",""
"","image-keyboard-response","287","279558","0.0-287.0","3YGXWBAF713C77USTWK4WWHPTWKC4K","A11JGMLOFFPV65","3UUIU9GZC5R93N292LT21FRJ9VS5TN","","1946","img/flower3.png","76","1947.0999999940395","3","1","3","2","1,0,0,1,1,0,1,0,1","1,0,0,1,1,0,1,0,1","1",""
"","html-keyboard-response","288","279861","0.0-288.0","3YGXWBAF713C77USTWK4WWHPTWKC4K","A11JGMLOFFPV65","3UUIU9GZC5R93N292LT21FRJ9VS5TN","","null","<img src=""img/flower3.png"" style=""width:200px; border:14px solid green;"">","null","","","","","","","","",""
"","image-keyboard-response","289","281758","0.0-289.0","3YGXWBAF713C77USTWK4WWHPTWKC4K","A11JGMLOFFPV65","3UUIU9GZC5R93N292LT21FRJ9VS5TN","","1895.3999999761581","img/flower4.png","75","1896.5","2","1","2","2","1,0,0,1,1,0,1,0,1","1,0,0,1,1,0,1,0,1","1",""
"","html-keyboard-response","290","282061","0.0-290.0","3YGXWBAF713C77USTWK4WWHPTWKC4K","A11JGMLOFFPV65","3UUIU9GZC5R93N292LT21FRJ9VS5TN","","null","<img src=""img/flower4.png"" style=""width:200px; border:14px solid green;"">","null","","","","","","","","",""
"","image-keyboard-response","291","283639","0.0-291.0","3YGXWBAF713C77USTWK4WWHPTWKC4K","A11JGMLOFFPV65","3UUIU9GZC5R93N292LT21FRJ9VS5TN","","1576.7999999821186","img/flower3.png","76","1578.2999999821186","3","1","3","2","1,0,0,1,1,0,1,0,1","1,0,0,1,1,0,1,0,1","1",""
"","html-keyboard-response","292","283942","0.0-292.0","3YGXWBAF713C77USTWK4WWHPTWKC4K","A11JGMLOFFPV65","3UUIU9GZC5R93N292LT21FRJ9VS5TN","","null","<img src=""img/flower3.png"" style=""width:200px; border:14px solid green;"">","null","","","","","","","","",""
"","image-keyboard-response","293","285377","0.0-293.0","3YGXWBAF713C77USTWK4WWHPTWKC4K","A11JGMLOFFPV65","3UUIU9GZC5R93N292LT21FRJ9VS5TN","","1433.699999988079","img/flower3.png","76","1434.5999999940395","3","1","3","2","1,0,0,1,1,0,1,0,1","1,0,0,1,1,0,1,0,1","1",""
"","html-keyboard-response","294","285680","0.0-294.0","3YGXWBAF713C77USTWK4WWHPTWKC4K","A11JGMLOFFPV65","3UUIU9GZC5R93N292LT21FRJ9VS5TN","","null","<img src=""img/flower3.png"" style=""width:200px; border:14px solid green;"">","null","","","","","","","","",""
"","image-keyboard-response","295","286758","0.0-295.0","3YGXWBAF713C77USTWK4WWHPTWKC4K","A11JGMLOFFPV65","3UUIU9GZC5R93N292LT21FRJ9VS5TN","","1076.7000000178814","img/flower3.png","76","1078","3","1","3","2","1,0,0,1,1,0,1,0,1","1,0,0,1,1,0,1,0,1","1",""
"","html-keyboard-response","296","287060","0.0-296.0","3YGXWBAF713C77USTWK4WWHPTWKC4K","A11JGMLOFFPV65","3UUIU9GZC5R93N292LT21FRJ9VS5TN","","null","<img src=""img/flower3.png"" style=""width:200px; border:14px solid green;"">","null","","","","","","","","",""
"","image-keyboard-response","297","288982","0.0-297.0","3YGXWBAF713C77USTWK4WWHPTWKC4K","A11JGMLOFFPV65","3UUIU9GZC5R93N292LT21FRJ9VS5TN","","1921.3999999761581","img/flower3.png","76","1922.300000011921","3","1","3","2","1,0,0,1,1,0,1,0,1","1,0,0,1,1,0,1,0,1","1",""
"","html-keyboard-response","298","289284","0.0-298.0","3YGXWBAF713C77USTWK4WWHPTWKC4K","A11JGMLOFFPV65","3UUIU9GZC5R93N292LT21FRJ9VS5TN","","null","<img src=""img/flower3.png"" style=""width:200px; border:14px solid green;"">","null","","","","","","","","",""
"","image-keyboard-response","299","290637","0.0-299.0","3YGXWBAF713C77USTWK4WWHPTWKC4K","A11JGMLOFFPV65","3UUIU9GZC5R93N292LT21FRJ9VS5TN","","1352.0999999940395","img/flower1.png","74","1352.9000000059605","1","1","1","2","1,0,0,1,1,0,1,0,1","1,0,0,1,1,0,1,0,1","1",""
"","html-keyboard-response","300","290940","0.0-300.0","3YGXWBAF713C77USTWK4WWHPTWKC4K","A11JGMLOFFPV65","3UUIU9GZC5R93N292LT21FRJ9VS5TN","","null","<img src=""img/flower1.png"" style=""width:200px; border:14px solid green;"">","null","","","","","","","","",""
"","image-keyboard-response","301","291837","0.0-301.0","3YGXWBAF713C77USTWK4WWHPTWKC4K","A11JGMLOFFPV65","3UUIU9GZC5R93N292LT21FRJ9VS5TN","","896.3000000119209","img/flower1.png","74","897.0999999940395","1","1","1","2","1,0,0,1,1,0,1,0,1","1,0,0,1,1,0,1,0,1","1",""
"","html-keyboard-response","302","292139","0.0-302.0","3YGXWBAF713C77USTWK4WWHPTWKC4K","A11JGMLOFFPV65","3UUIU9GZC5R93N292LT21FRJ9VS5TN","","null","<img src=""img/flower1.png"" style=""width:200px; border:14px solid green;"">","null","","","","","","","","",""
"","image-keyboard-response","303","292927","0.0-303.0","3YGXWBAF713C77USTWK4WWHPTWKC4K","A11JGMLOFFPV65","3UUIU9GZC5R93N292LT21FRJ9VS5TN","","786.8000000119209","img/flower1.png","74","787.5999999940395","1","1","1","2","1,0,0,1,1,0,1,0,1","1,0,0,1,1,0,1,0,1","1",""
"","html-keyboard-response","304","293230","0.0-304.0","3YGXWBAF713C77USTWK4WWHPTWKC4K","A11JGMLOFFPV65","3UUIU9GZC5R93N292LT21FRJ9VS5TN","","null","<img src=""img/flower1.png"" style=""width:200px; border:14px solid green;"">","null","","","","","","","","",""
"","image-keyboard-response","305","294057","0.0-305.0","3YGXWBAF713C77USTWK4WWHPTWKC4K","A11JGMLOFFPV65","3UUIU9GZC5R93N292LT21FRJ9VS5TN","","826.3000000119209","img/flower4.png","75","827.1999999880791","2","1","2","2","1,0,0,1,1,0,1,0,1","1,0,0,1,1,0,1,0,1","1",""
"","html-keyboard-response","306","294360","0.0-306.0","3YGXWBAF713C77USTWK4WWHPTWKC4K","A11JGMLOFFPV65","3UUIU9GZC5R93N292LT21FRJ9VS5TN","","null","<img src=""img/flower4.png"" style=""width:200px; border:14px solid green;"">","null","","","","","","","","",""
"","image-keyboard-response","307","295096","0.0-307.0","3YGXWBAF713C77USTWK4WWHPTWKC4K","A11JGMLOFFPV65","3UUIU9GZC5R93N292LT21FRJ9VS5TN","","735.5999999940395","img/flower4.png","75","736.4000000059605","2","1","2","2","1,0,0,1,1,0,1,0,1","1,0,0,1,1,0,1,0,1","1",""
"","html-keyboard-response","308","295398","0.0-308.0","3YGXWBAF713C77USTWK4WWHPTWKC4K","A11JGMLOFFPV65","3UUIU9GZC5R93N292LT21FRJ9VS5TN","","null","<img src=""img/flower4.png"" style=""width:200px; border:14px solid green;"">","null","","","","","","","","",""
"","image-keyboard-response","309","296316","0.0-309.0","3YGXWBAF713C77USTWK4WWHPTWKC4K","A11JGMLOFFPV65","3UUIU9GZC5R93N292LT21FRJ9VS5TN","","917.3000000119209","img/flower3.png","76","918","3","1","3","2","1,0,0,1,1,0,1,0,1","1,0,0,1,1,0,1,0,1","1",""
"","html-keyboard-response","310","296619","0.0-310.0","3YGXWBAF713C77USTWK4WWHPTWKC4K","A11JGMLOFFPV65","3UUIU9GZC5R93N292LT21FRJ9VS5TN","","null","<img src=""img/flower3.png"" style=""width:200px; border:14px solid green;"">","null","","","","","","","","",""
"","image-keyboard-response","311","297397","0.0-311.0","3YGXWBAF713C77USTWK4WWHPTWKC4K","A11JGMLOFFPV65","3UUIU9GZC5R93N292LT21FRJ9VS5TN","","777.5","img/flower3.png","76","778.4000000059605","3","1","3","2","1,0,0,1,1,0,1,0,1","1,0,0,1,1,0,1,0,1","1",""
"","html-keyboard-response","312","297700","0.0-312.0","3YGXWBAF713C77USTWK4WWHPTWKC4K","A11JGMLOFFPV65","3UUIU9GZC5R93N292LT21FRJ9VS5TN","","null","<img src=""img/flower3.png"" style=""width:200px; border:14px solid green;"">","null","","","","","","","","",""
"","image-keyboard-response","313","298387","0.0-313.0","3YGXWBAF713C77USTWK4WWHPTWKC4K","A11JGMLOFFPV65","3UUIU9GZC5R93N292LT21FRJ9VS5TN","","685.8000000119209","img/flower3.png","76","686.8000000119209","3","1","3","2","1,0,0,1,1,0,1,0,1","1,0,0,1,1,0,1,0,1","1",""
"","html-keyboard-response","314","298689","0.0-314.0","3YGXWBAF713C77USTWK4WWHPTWKC4K","A11JGMLOFFPV65","3UUIU9GZC5R93N292LT21FRJ9VS5TN","","null","<img src=""img/flower3.png"" style=""width:200px; border:14px solid green;"">","null","","","","","","","","",""
"","image-keyboard-response","315","299417","0.0-315.0","3YGXWBAF713C77USTWK4WWHPTWKC4K","A11JGMLOFFPV65","3UUIU9GZC5R93N292LT21FRJ9VS5TN","","726.4000000059605","img/flower3.png","76","727.3999999761581","3","1","3","2","1,0,0,1,1,0,1,0,1","1,0,0,1,1,0,1,0,1","1",""
"","html-keyboard-response","316","299719","0.0-316.0","3YGXWBAF713C77USTWK4WWHPTWKC4K","A11JGMLOFFPV65","3UUIU9GZC5R93N292LT21FRJ9VS5TN","","null","<img src=""img/flower3.png"" style=""width:200px; border:14px solid green;"">","null","","","","","","","","",""
"","image-keyboard-response","317","300718","0.0-317.0","3YGXWBAF713C77USTWK4WWHPTWKC4K","A11JGMLOFFPV65","3UUIU9GZC5R93N292LT21FRJ9VS5TN","","997.3000000119209","img/flower1.png","74","998.2999999821186","1","1","1","2","1,0,0,1,1,0,1,0,1","1,0,0,1,1,0,1,0,1","1",""
"","html-keyboard-response","318","301021","0.0-318.0","3YGXWBAF713C77USTWK4WWHPTWKC4K","A11JGMLOFFPV65","3UUIU9GZC5R93N292LT21FRJ9VS5TN","","null","<img src=""img/flower1.png"" style=""width:200px; border:14px solid green;"">","null","","","","","","","","",""
"","image-keyboard-response","319","302047","0.0-319.0","3YGXWBAF713C77USTWK4WWHPTWKC4K","A11JGMLOFFPV65","3UUIU9GZC5R93N292LT21FRJ9VS5TN","","1025.2999999821186","img/flower1.png","74","1026.0999999940395","1","1","1","2","1,0,0,1,1,0,1,0,1","1,0,0,1,1,0,1,0,1","1",""
"","html-keyboard-response","320","302351","0.0-320.0","3YGXWBAF713C77USTWK4WWHPTWKC4K","A11JGMLOFFPV65","3UUIU9GZC5R93N292LT21FRJ9VS5TN","","null","<img src=""img/flower1.png"" style=""width:200px; border:14px solid green;"">","null","","","","","","","","",""
"","image-keyboard-response","321","303228","0.0-321.0","3YGXWBAF713C77USTWK4WWHPTWKC4K","A11JGMLOFFPV65","3UUIU9GZC5R93N292LT21FRJ9VS5TN","","876.9000000059605","img/flower1.png","74","877.6999999880791","1","1","1","2","1,0,0,1,1,0,1,0,1","1,0,0,1,1,0,1,0,1","1",""
"","html-keyboard-response","322","303531","0.0-322.0","3YGXWBAF713C77USTWK4WWHPTWKC4K","A11JGMLOFFPV65","3UUIU9GZC5R93N292LT21FRJ9VS5TN","","null","<img src=""img/flower1.png"" style=""width:200px; border:14px solid green;"">","null","","","","","","","","",""
"","image-keyboard-response","323","304508","0.0-323.0","3YGXWBAF713C77USTWK4WWHPTWKC4K","A11JGMLOFFPV65","3UUIU9GZC5R93N292LT21FRJ9VS5TN","","976","img/flower3.png","76","977","3","1","3","2","1,0,0,1,1,0,1,0,1","1,0,0,1,1,0,1,0,1","1",""
"","html-keyboard-response","324","304811","0.0-324.0","3YGXWBAF713C77USTWK4WWHPTWKC4K","A11JGMLOFFPV65","3UUIU9GZC5R93N292LT21FRJ9VS5TN","","null","<img src=""img/flower3.png"" style=""width:200px; border:14px solid green;"">","null","","","","","","","","",""
"","image-keyboard-response","325","305618","0.0-325.0","3YGXWBAF713C77USTWK4WWHPTWKC4K","A11JGMLOFFPV65","3UUIU9GZC5R93N292LT21FRJ9VS5TN","","806.5","img/flower3.png","76","807.3000000119209","3","1","3","2","1,0,0,1,1,0,1,0,1","1,0,0,1,1,0,1,0,1","1",""
"","html-keyboard-response","326","305920","0.0-326.0","3YGXWBAF713C77USTWK4WWHPTWKC4K","A11JGMLOFFPV65","3UUIU9GZC5R93N292LT21FRJ9VS5TN","","null","<img src=""img/flower3.png"" style=""width:200px; border:14px solid green;"">","null","","","","","","","","",""
"","image-keyboard-response","327","306628","0.0-327.0","3YGXWBAF713C77USTWK4WWHPTWKC4K","A11JGMLOFFPV65","3UUIU9GZC5R93N292LT21FRJ9VS5TN","","706.0999999940395","img/flower4.png","76","707.0999999940395","3","0","2","2","1,0,0,1,1,0,1,0,1","1,0,0,1,1,0,1,0,1","1",""
"","html-keyboard-response","328","306930","0.0-328.0","3YGXWBAF713C77USTWK4WWHPTWKC4K","A11JGMLOFFPV65","3UUIU9GZC5R93N292LT21FRJ9VS5TN","","null","<img src=""img/flower4.png"" style=""width:200px;border:14px solid red;"">","null","","","","","","","","",""
"","image-keyboard-response","329","308193","0.0-329.0","3YGXWBAF713C77USTWK4WWHPTWKC4K","A11JGMLOFFPV65","3UUIU9GZC5R93N292LT21FRJ9VS5TN","","1261.5999999940395","img/flower1.png","74","1262.5","1","1","1","2","1,0,0,1,1,0,1,0,1","1,0,0,1,1,0,1,0,1","1",""
"","html-keyboard-response","330","308496","0.0-330.0","3YGXWBAF713C77USTWK4WWHPTWKC4K","A11JGMLOFFPV65","3UUIU9GZC5R93N292LT21FRJ9VS5TN","","null","<img src=""img/flower1.png"" style=""width:200px; border:14px solid green;"">","null","","","","","","","","",""
"","image-keyboard-response","331","309608","0.0-331.0","3YGXWBAF713C77USTWK4WWHPTWKC4K","A11JGMLOFFPV65","3UUIU9GZC5R93N292LT21FRJ9VS5TN","","1111.0999999940395","img/flower3.png","76","1112.0999999940395","3","1","3","2","1,0,0,1,1,0,1,0,1","1,0,0,1,1,0,1,0,1","1",""
"","html-keyboard-response","332","309909","0.0-332.0","3YGXWBAF713C77USTWK4WWHPTWKC4K","A11JGMLOFFPV65","3UUIU9GZC5R93N292LT21FRJ9VS5TN","","null","<img src=""img/flower3.png"" style=""width:200px; border:14px solid green;"">","null","","","","","","","","",""
"","image-keyboard-response","333","311608","0.0-333.0","3YGXWBAF713C77USTWK4WWHPTWKC4K","A11JGMLOFFPV65","3UUIU9GZC5R93N292LT21FRJ9VS5TN","","1697.5999999940395","img/flower1.png","74","1698.6000000238419","1","1","1","2","1,0,0,1,1,0,1,0,1","1,0,0,1,1,0,1,0,1","1",""
"","html-keyboard-response","334","311911","0.0-334.0","3YGXWBAF713C77USTWK4WWHPTWKC4K","A11JGMLOFFPV65","3UUIU9GZC5R93N292LT21FRJ9VS5TN","","null","<img src=""img/flower1.png"" style=""width:200px; border:14px solid green;"">","null","","","","","","","","",""
"","image-keyboard-response","335","313563","0.0-335.0","3YGXWBAF713C77USTWK4WWHPTWKC4K","A11JGMLOFFPV65","3UUIU9GZC5R93N292LT21FRJ9VS5TN","","1651.9000000059605","img/flower3.png","76","1652.699999988079","3","1","3","2","1,0,0,1,1,0,1,0,1","1,0,0,1,1,0,1,0,1","1",""
"","html-keyboard-response","336","313866","0.0-336.0","3YGXWBAF713C77USTWK4WWHPTWKC4K","A11JGMLOFFPV65","3UUIU9GZC5R93N292LT21FRJ9VS5TN","","null","<img src=""img/flower3.png"" style=""width:200px; border:14px solid green;"">","null","","","","","","","","",""
"","image-keyboard-response","337","315665","0.0-337.0","3YGXWBAF713C77USTWK4WWHPTWKC4K","A11JGMLOFFPV65","3UUIU9GZC5R93N292LT21FRJ9VS5TN","","1797.699999988079","img/flower4.png","75","1798.5999999940395","2","1","2","2","1,0,0,1,1,0,1,0,1","1,0,0,1,1,0,1,0,1","1",""
"","html-keyboard-response","338","315967","0.0-338.0","3YGXWBAF713C77USTWK4WWHPTWKC4K","A11JGMLOFFPV65","3UUIU9GZC5R93N292LT21FRJ9VS5TN","","null","<img src=""img/flower4.png"" style=""width:200px; border:14px solid green;"">","null","","","","","","","","",""
"","image-keyboard-response","339","317488","0.0-339.0","3YGXWBAF713C77USTWK4WWHPTWKC4K","A11JGMLOFFPV65","3UUIU9GZC5R93N292LT21FRJ9VS5TN","","1519.5","img/flower4.png","75","1520.4000000059605","2","1","2","2","1,0,0,1,1,0,1,0,1","1,0,0,1,1,0,1,0,1","1",""
"","html-keyboard-response","340","317790","0.0-340.0","3YGXWBAF713C77USTWK4WWHPTWKC4K","A11JGMLOFFPV65","3UUIU9GZC5R93N292LT21FRJ9VS5TN","","null","<img src=""img/flower4.png"" style=""width:200px; border:14px solid green;"">","null","","","","","","","","",""
"","image-keyboard-response","341","318828","0.0-341.0","3YGXWBAF713C77USTWK4WWHPTWKC4K","A11JGMLOFFPV65","3UUIU9GZC5R93N292LT21FRJ9VS5TN","","1037.2999999821186","img/flower1.png","74","1038.5999999940395","1","1","1","2","1,0,0,1,1,0,1,0,1","1,0,0,1,1,0,1,0,1","1",""
"","html-keyboard-response","342","319131","0.0-342.0","3YGXWBAF713C77USTWK4WWHPTWKC4K","A11JGMLOFFPV65","3UUIU9GZC5R93N292LT21FRJ9VS5TN","","null","<img src=""img/flower1.png"" style=""width:200px; border:14px solid green;"">","null","","","","","","","","",""
"","image-keyboard-response","343","321008","0.0-343.0","3YGXWBAF713C77USTWK4WWHPTWKC4K","A11JGMLOFFPV65","3UUIU9GZC5R93N292LT21FRJ9VS5TN","","1876","img/flower3.png","76","1877","3","1","3","2","1,0,0,1,1,0,1,0,1","1,0,0,1,1,0,1,0,1","1",""
"","html-keyboard-response","344","321310","0.0-344.0","3YGXWBAF713C77USTWK4WWHPTWKC4K","A11JGMLOFFPV65","3UUIU9GZC5R93N292LT21FRJ9VS5TN","","null","<img src=""img/flower3.png"" style=""width:200px; border:14px solid green;"">","null","","","","","","","","",""
"","image-keyboard-response","345","322937","0.0-345.0","3YGXWBAF713C77USTWK4WWHPTWKC4K","A11JGMLOFFPV65","3UUIU9GZC5R93N292LT21FRJ9VS5TN","","1625.9000000059605","img/flower3.png","76","1626.7999999821186","3","1","3","2","1,0,0,1,1,0,1,0,1","1,0,0,1,1,0,1,0,1","1",""
"","html-keyboard-response","346","323240","0.0-346.0","3YGXWBAF713C77USTWK4WWHPTWKC4K","A11JGMLOFFPV65","3UUIU9GZC5R93N292LT21FRJ9VS5TN","","null","<img src=""img/flower3.png"" style=""width:200px; border:14px solid green;"">","null","","","","","","","","",""
"","image-keyboard-response","347","324258","0.0-347.0","3YGXWBAF713C77USTWK4WWHPTWKC4K","A11JGMLOFFPV65","3UUIU9GZC5R93N292LT21FRJ9VS5TN","","1017.5","img/flower1.png","74","1018.4000000059605","1","1","1","2","1,0,0,1,1,0,1,0,1","1,0,0,1,1,0,1,0,1","1",""
"","html-keyboard-response","348","324562","0.0-348.0","3YGXWBAF713C77USTWK4WWHPTWKC4K","A11JGMLOFFPV65","3UUIU9GZC5R93N292LT21FRJ9VS5TN","","null","<img src=""img/flower1.png"" style=""width:200px; border:14px solid green;"">","null","","","","","","","","",""
"","image-keyboard-response","349","325447","0.0-349.0","3YGXWBAF713C77USTWK4WWHPTWKC4K","A11JGMLOFFPV65","3UUIU9GZC5R93N292LT21FRJ9VS5TN","","884.5999999940395","img/flower4.png","75","885.5999999940395","2","1","2","2","1,0,0,1,1,0,1,0,1","1,0,0,1,1,0,1,0,1","1",""
"","html-keyboard-response","350","325750","0.0-350.0","3YGXWBAF713C77USTWK4WWHPTWKC4K","A11JGMLOFFPV65","3UUIU9GZC5R93N292LT21FRJ9VS5TN","","null","<img src=""img/flower4.png"" style=""width:200px; border:14px solid green;"">","null","","","","","","","","",""
"","image-keyboard-response","351","326598","0.0-351.0","3YGXWBAF713C77USTWK4WWHPTWKC4K","A11JGMLOFFPV65","3UUIU9GZC5R93N292LT21FRJ9VS5TN","","846.6999999880791","img/flower4.png","75","847.5","2","1","2","2","1,0,0,1,1,0,1,0,1","1,0,0,1,1,0,1,0,1","1",""
"","html-keyboard-response","352","326901","0.0-352.0","3YGXWBAF713C77USTWK4WWHPTWKC4K","A11JGMLOFFPV65","3UUIU9GZC5R93N292LT21FRJ9VS5TN","","null","<img src=""img/flower4.png"" style=""width:200px; border:14px solid green;"">","null","","","","","","","","",""
"","image-keyboard-response","353","328487","0.0-353.0","3YGXWBAF713C77USTWK4WWHPTWKC4K","A11JGMLOFFPV65","3UUIU9GZC5R93N292LT21FRJ9VS5TN","","1585.199999988079","img/flower4.png","75","1586.2000000178814","2","1","2","2","1,0,0,1,1,0,1,0,1","1,0,0,1,1,0,1,0,1","1",""
"","html-keyboard-response","354","328789","0.0-354.0","3YGXWBAF713C77USTWK4WWHPTWKC4K","A11JGMLOFFPV65","3UUIU9GZC5R93N292LT21FRJ9VS5TN","","null","<img src=""img/flower4.png"" style=""width:200px; border:14px solid green;"">","null","","","","","","","","",""
"","image-keyboard-response","355","329704","0.0-355.0","3YGXWBAF713C77USTWK4WWHPTWKC4K","A11JGMLOFFPV65","3UUIU9GZC5R93N292LT21FRJ9VS5TN","","913.5","img/flower3.png","76","914.4000000059605","3","1","3","2","1,0,0,1,1,0,1,0,1","1,0,0,1,1,0,1,0,1","1",""
"","html-keyboard-response","356","330006","0.0-356.0","3YGXWBAF713C77USTWK4WWHPTWKC4K","A11JGMLOFFPV65","3UUIU9GZC5R93N292LT21FRJ9VS5TN","","null","<img src=""img/flower3.png"" style=""width:200px; border:14px solid green;"">","null","","","","","","","","",""
"","image-keyboard-response","357","331179","0.0-357.0","3YGXWBAF713C77USTWK4WWHPTWKC4K","A11JGMLOFFPV65","3UUIU9GZC5R93N292LT21FRJ9VS5TN","","1171.7999999821186","img/flower4.png","75","1172.7000000178814","2","1","2","2","1,0,0,1,1,0,1,0,1","1,0,0,1,1,0,1,0,1","1",""
"","html-keyboard-response","358","331481","0.0-358.0","3YGXWBAF713C77USTWK4WWHPTWKC4K","A11JGMLOFFPV65","3UUIU9GZC5R93N292LT21FRJ9VS5TN","","null","<img src=""img/flower4.png"" style=""width:200px; border:14px solid green;"">","null","","","","","","","","",""
"","image-keyboard-response","359","332578","0.0-359.0","3YGXWBAF713C77USTWK4WWHPTWKC4K","A11JGMLOFFPV65","3UUIU9GZC5R93N292LT21FRJ9VS5TN","","1095.5","img/flower1.png","74","1096.4000000059605","1","1","1","2","1,0,0,1,1,0,1,0,1","1,0,0,1,1,0,1,0,1","1",""
"","html-keyboard-response","360","332880","0.0-360.0","3YGXWBAF713C77USTWK4WWHPTWKC4K","A11JGMLOFFPV65","3UUIU9GZC5R93N292LT21FRJ9VS5TN","","null","<img src=""img/flower1.png"" style=""width:200px; border:14px solid green;"">","null","","","","","","","","",""
"","image-keyboard-response","361","334488","0.0-361.0","3YGXWBAF713C77USTWK4WWHPTWKC4K","A11JGMLOFFPV65","3UUIU9GZC5R93N292LT21FRJ9VS5TN","","1606.9000000059605","img/flower1.png","74","1607.6000000238419","1","1","1","2","1,0,0,1,1,0,1,0,1","1,0,0,1,1,0,1,0,1","1",""
"","html-keyboard-response","362","334790","0.0-362.0","3YGXWBAF713C77USTWK4WWHPTWKC4K","A11JGMLOFFPV65","3UUIU9GZC5R93N292LT21FRJ9VS5TN","","null","<img src=""img/flower1.png"" style=""width:200px; border:14px solid green;"">","null","","","","","","","","",""
"","instructions","363","337981","0.0-363.0","3YGXWBAF713C77USTWK4WWHPTWKC4K","A11JGMLOFFPV65","3UUIU9GZC5R93N292LT21FRJ9VS5TN","[{""page_index"":0,""viewing_time"":3189.5999999940395}]","3189.9000000059605","","","","","","","","","","",""
"","survey-text","364","344004","0.0-364.0","3YGXWBAF713C77USTWK4WWHPTWKC4K","A11JGMLOFFPV65","3UUIU9GZC5R93N292LT21FRJ9VS5TN","","6018.9000000059605","","","","","","","","","","","{""Q0"":""A11JGMLOFFPV65""}"
