"rt","url","trial_type","trial_index","time_elapsed","internal_node_id","assignmentID","mturkID","hitID","success","view_history","stimulus","key_press","reactionTime","a","r","s","cond","reward_cond","reward_cond_actual","reward_matrix_idx","responses"
"5699","consent.html","external-html","0","5896","0.0-0.0","3FDJT1UU75UCMOAGZEKCP70BX2OK5B","A11JZFATJVBFN0","32XN26MTXZ5MP383W6LZYTLBY7P0LI","","","","","","","","","","","","",""
"","","fullscreen","1","8977","0.0-1.0","3FDJT1UU75UCMOAGZEKCP70BX2OK5B","A11JZFATJVBFN0","32XN26MTXZ5MP383W6LZYTLBY7P0LI","true","","","","","","","","","","","",""
"32523","","instructions","2","41511","0.0-2.0","3FDJT1UU75UCMOAGZEKCP70BX2OK5B","A11JZFATJVBFN0","32XN26MTXZ5MP383W6LZYTLBY7P0LI","","[{""page_index"":0,""viewing_time"":4981},{""page_index"":1,""viewing_time"":1847},{""page_index"":2,""viewing_time"":14545},{""page_index"":3,""viewing_time"":3889},{""page_index"":4,""viewing_time"":2855},{""page_index"":5,""viewing_time"":2710},{""page_index"":6,""viewing_time"":1691}]","","","","","","","","","","",""
"5510","","instructions","3","47023","0.0-3.0","3FDJT1UU75UCMOAGZEKCP70BX2OK5B","A11JZFATJVBFN0","32XN26MTXZ5MP383W6LZYTLBY7P0LI","","[{""page_index"":0,""viewing_time"":5509}]","","","","","","","","","","",""
"1557","","image-keyboard-response","4","48586","0.0-4.0","3FDJT1UU75UCMOAGZEKCP70BX2OK5B","A11JZFATJVBFN0","32XN26MTXZ5MP383W6LZYTLBY7P0LI","","","img/flower5.png","74","1560","1","1","2","","","","",""
"null","","html-keyboard-response","5","48904","0.0-5.0","3FDJT1UU75UCMOAGZEKCP70BX2OK5B","A11JZFATJVBFN0","32XN26MTXZ5MP383W6LZYTLBY7P0LI","","","<img src=""img/flower5.png"" style=""width:200px; border:14px solid green;"">","null","","","","","","","","",""
"1517","","image-keyboard-response","6","50427","0.0-6.0","3FDJT1UU75UCMOAGZEKCP70BX2OK5B","A11JZFATJVBFN0","32XN26MTXZ5MP383W6LZYTLBY7P0LI","","","img/flower6.png","75","1523","2","0","3","","","","",""
"null","","html-keyboard-response","7","50785","0.0-7.0","3FDJT1UU75UCMOAGZEKCP70BX2OK5B","A11JZFATJVBFN0","32XN26MTXZ5MP383W6LZYTLBY7P0LI","","","<img src=""img/flower6.png"" style=""width:200px;border:14px solid red;"">","null","","","","","","","","",""
"882","","image-keyboard-response","8","51683","0.0-8.0","3FDJT1UU75UCMOAGZEKCP70BX2OK5B","A11JZFATJVBFN0","32XN26MTXZ5MP383W6LZYTLBY7P0LI","","","img/flower5.png","74","897","1","0","2","","","","",""
"null","","html-keyboard-response","9","51994","0.0-9.0","3FDJT1UU75UCMOAGZEKCP70BX2OK5B","A11JZFATJVBFN0","32XN26MTXZ5MP383W6LZYTLBY7P0LI","","","<img src=""img/flower5.png"" style=""width:200px;border:14px solid red;"">","null","","","","","","","","",""
"1116","","image-keyboard-response","10","53125","0.0-10.0","3FDJT1UU75UCMOAGZEKCP70BX2OK5B","A11JZFATJVBFN0","32XN26MTXZ5MP383W6LZYTLBY7P0LI","","","img/flower4.png","74","1129","1","1","1","","","","",""
"null","","html-keyboard-response","11","53444","0.0-11.0","3FDJT1UU75UCMOAGZEKCP70BX2OK5B","A11JZFATJVBFN0","32XN26MTXZ5MP383W6LZYTLBY7P0LI","","","<img src=""img/flower4.png"" style=""width:200px; border:14px solid green;"">","null","","","","","","","","",""
"1425","","image-keyboard-response","12","54872","0.0-12.0","3FDJT1UU75UCMOAGZEKCP70BX2OK5B","A11JZFATJVBFN0","32XN26MTXZ5MP383W6LZYTLBY7P0LI","","","img/flower6.png","75","1428","2","0","3","","","","",""
"null","","html-keyboard-response","13","55185","0.0-13.0","3FDJT1UU75UCMOAGZEKCP70BX2OK5B","A11JZFATJVBFN0","32XN26MTXZ5MP383W6LZYTLBY7P0LI","","","<img src=""img/flower6.png"" style=""width:200px;border:14px solid red;"">","null","","","","","","","","",""
"2735","","image-keyboard-response","14","57926","0.0-14.0","3FDJT1UU75UCMOAGZEKCP70BX2OK5B","A11JZFATJVBFN0","32XN26MTXZ5MP383W6LZYTLBY7P0LI","","","img/flower5.png","75","2739","2","1","2","","","","",""
"null","","html-keyboard-response","15","58243","0.0-15.0","3FDJT1UU75UCMOAGZEKCP70BX2OK5B","A11JZFATJVBFN0","32XN26MTXZ5MP383W6LZYTLBY7P0LI","","","<img src=""img/flower5.png"" style=""width:200px; border:14px solid green;"">","null","","","","","","","","",""
"1099","","image-keyboard-response","16","59356","0.0-16.0","3FDJT1UU75UCMOAGZEKCP70BX2OK5B","A11JZFATJVBFN0","32XN26MTXZ5MP383W6LZYTLBY7P0LI","","","img/flower6.png","74","1112","1","0","3","","","","",""
"null","","html-keyboard-response","17","59668","0.0-17.0","3FDJT1UU75UCMOAGZEKCP70BX2OK5B","A11JZFATJVBFN0","32XN26MTXZ5MP383W6LZYTLBY7P0LI","","","<img src=""img/flower6.png"" style=""width:200px;border:14px solid red;"">","null","","","","","","","","",""
"1750","","image-keyboard-response","18","61427","0.0-18.0","3FDJT1UU75UCMOAGZEKCP70BX2OK5B","A11JZFATJVBFN0","32XN26MTXZ5MP383W6LZYTLBY7P0LI","","","img/flower4.png","74","1759","1","1","1","","","","",""
"null","","html-keyboard-response","19","61738","0.0-19.0","3FDJT1UU75UCMOAGZEKCP70BX2OK5B","A11JZFATJVBFN0","32XN26MTXZ5MP383W6LZYTLBY7P0LI","","","<img src=""img/flower4.png"" style=""width:200px; border:14px solid green;"">","null","","","","","","","","",""
"1067","","image-keyboard-response","20","62824","0.0-20.0","3FDJT1UU75UCMOAGZEKCP70BX2OK5B","A11JZFATJVBFN0","32XN26MTXZ5MP383W6LZYTLBY7P0LI","","","img/flower4.png","74","1085","1","0","1","","","","",""
"null","","html-keyboard-response","21","63145","0.0-21.0","3FDJT1UU75UCMOAGZEKCP70BX2OK5B","A11JZFATJVBFN0","32XN26MTXZ5MP383W6LZYTLBY7P0LI","","","<img src=""img/flower4.png"" style=""width:200px;border:14px solid red;"">","null","","","","","","","","",""
"1777","","image-keyboard-response","22","64929","0.0-22.0","3FDJT1UU75UCMOAGZEKCP70BX2OK5B","A11JZFATJVBFN0","32XN26MTXZ5MP383W6LZYTLBY7P0LI","","","img/flower5.png","76","1780","3","0","2","","","","",""
"null","","html-keyboard-response","23","65240","0.0-23.0","3FDJT1UU75UCMOAGZEKCP70BX2OK5B","A11JZFATJVBFN0","32XN26MTXZ5MP383W6LZYTLBY7P0LI","","","<img src=""img/flower5.png"" style=""width:200px;border:14px solid red;"">","null","","","","","","","","",""
"1012","","image-keyboard-response","24","66262","0.0-24.0","3FDJT1UU75UCMOAGZEKCP70BX2OK5B","A11JZFATJVBFN0","32XN26MTXZ5MP383W6LZYTLBY7P0LI","","","img/flower5.png","75","1021","2","0","2","","","","",""
"null","","html-keyboard-response","25","66594","0.0-25.0","3FDJT1UU75UCMOAGZEKCP70BX2OK5B","A11JZFATJVBFN0","32XN26MTXZ5MP383W6LZYTLBY7P0LI","","","<img src=""img/flower5.png"" style=""width:200px;border:14px solid red;"">","null","","","","","","","","",""
"793","","image-keyboard-response","26","67435","0.0-26.0","3FDJT1UU75UCMOAGZEKCP70BX2OK5B","A11JZFATJVBFN0","32XN26MTXZ5MP383W6LZYTLBY7P0LI","","","img/flower6.png","74","816","1","0","3","","","","",""
"null","","html-keyboard-response","27","67747","0.0-27.0","3FDJT1UU75UCMOAGZEKCP70BX2OK5B","A11JZFATJVBFN0","32XN26MTXZ5MP383W6LZYTLBY7P0LI","","","<img src=""img/flower6.png"" style=""width:200px;border:14px solid red;"">","null","","","","","","","","",""
"642","","image-keyboard-response","28","68396","0.0-28.0","3FDJT1UU75UCMOAGZEKCP70BX2OK5B","A11JZFATJVBFN0","32XN26MTXZ5MP383W6LZYTLBY7P0LI","","","img/flower4.png","75","644","2","0","1","","","","",""
"null","","html-keyboard-response","29","68708","0.0-29.0","3FDJT1UU75UCMOAGZEKCP70BX2OK5B","A11JZFATJVBFN0","32XN26MTXZ5MP383W6LZYTLBY7P0LI","","","<img src=""img/flower4.png"" style=""width:200px;border:14px solid red;"">","null","","","","","","","","",""
"79","","image-keyboard-response","30","68790","0.0-30.0","3FDJT1UU75UCMOAGZEKCP70BX2OK5B","A11JZFATJVBFN0","32XN26MTXZ5MP383W6LZYTLBY7P0LI","","","img/flower6.png","75","82","2","0","3","","","","",""
"null","","html-keyboard-response","31","69101","0.0-31.0","3FDJT1UU75UCMOAGZEKCP70BX2OK5B","A11JZFATJVBFN0","32XN26MTXZ5MP383W6LZYTLBY7P0LI","","","<img src=""img/flower6.png"" style=""width:200px;border:14px solid red;"">","null","","","","","","","","",""
"1","","image-keyboard-response","32","69106","0.0-32.0","3FDJT1UU75UCMOAGZEKCP70BX2OK5B","A11JZFATJVBFN0","32XN26MTXZ5MP383W6LZYTLBY7P0LI","","","img/flower4.png","76","4","3","0","1","","","","",""
"null","","html-keyboard-response","33","69424","0.0-33.0","3FDJT1UU75UCMOAGZEKCP70BX2OK5B","A11JZFATJVBFN0","32XN26MTXZ5MP383W6LZYTLBY7P0LI","","","<img src=""img/flower4.png"" style=""width:200px;border:14px solid red;"">","null","","","","","","","","",""
"172","","image-keyboard-response","34","69613","0.0-34.0","3FDJT1UU75UCMOAGZEKCP70BX2OK5B","A11JZFATJVBFN0","32XN26MTXZ5MP383W6LZYTLBY7P0LI","","","img/flower5.png","74","188","1","0","2","","","","",""
"null","","html-keyboard-response","35","69915","0.0-35.0","3FDJT1UU75UCMOAGZEKCP70BX2OK5B","A11JZFATJVBFN0","32XN26MTXZ5MP383W6LZYTLBY7P0LI","","","<img src=""img/flower5.png"" style=""width:200px;border:14px solid red;"">","null","","","","","","","","",""
"132","","image-keyboard-response","36","70065","0.0-36.0","3FDJT1UU75UCMOAGZEKCP70BX2OK5B","A11JZFATJVBFN0","32XN26MTXZ5MP383W6LZYTLBY7P0LI","","","img/flower6.png","75","148","2","1","3","","","","",""
"null","","html-keyboard-response","37","70372","0.0-37.0","3FDJT1UU75UCMOAGZEKCP70BX2OK5B","A11JZFATJVBFN0","32XN26MTXZ5MP383W6LZYTLBY7P0LI","","","<img src=""img/flower6.png"" style=""width:200px; border:14px solid green;"">","null","","","","","","","","",""
"98","","image-keyboard-response","38","70485","0.0-38.0","3FDJT1UU75UCMOAGZEKCP70BX2OK5B","A11JZFATJVBFN0","32XN26MTXZ5MP383W6LZYTLBY7P0LI","","","img/flower4.png","74","112","1","1","1","","","","",""
"null","","html-keyboard-response","39","70865","0.0-39.0","3FDJT1UU75UCMOAGZEKCP70BX2OK5B","A11JZFATJVBFN0","32XN26MTXZ5MP383W6LZYTLBY7P0LI","","","<img src=""img/flower4.png"" style=""width:200px; border:14px solid green;"">","null","","","","","","","","",""
"3","","image-keyboard-response","40","70872","0.0-40.0","3FDJT1UU75UCMOAGZEKCP70BX2OK5B","A11JZFATJVBFN0","32XN26MTXZ5MP383W6LZYTLBY7P0LI","","","img/flower4.png","74","5","1","1","1","","","","",""
"null","","html-keyboard-response","41","71180","0.0-41.0","3FDJT1UU75UCMOAGZEKCP70BX2OK5B","A11JZFATJVBFN0","32XN26MTXZ5MP383W6LZYTLBY7P0LI","","","<img src=""img/flower4.png"" style=""width:200px; border:14px solid green;"">","null","","","","","","","","",""
"0","","image-keyboard-response","42","71183","0.0-42.0","3FDJT1UU75UCMOAGZEKCP70BX2OK5B","A11JZFATJVBFN0","32XN26MTXZ5MP383W6LZYTLBY7P0LI","","","img/flower5.png","76","2","3","0","2","","","","",""
"null","","html-keyboard-response","43","71491","0.0-43.0","3FDJT1UU75UCMOAGZEKCP70BX2OK5B","A11JZFATJVBFN0","32XN26MTXZ5MP383W6LZYTLBY7P0LI","","","<img src=""img/flower5.png"" style=""width:200px;border:14px solid red;"">","null","","","","","","","","",""
"187","","image-keyboard-response","44","71692","0.0-44.0","3FDJT1UU75UCMOAGZEKCP70BX2OK5B","A11JZFATJVBFN0","32XN26MTXZ5MP383W6LZYTLBY7P0LI","","","img/flower4.png","74","200","1","1","1","","","","",""
"null","","html-keyboard-response","45","72005","0.0-45.0","3FDJT1UU75UCMOAGZEKCP70BX2OK5B","A11JZFATJVBFN0","32XN26MTXZ5MP383W6LZYTLBY7P0LI","","","<img src=""img/flower4.png"" style=""width:200px; border:14px solid green;"">","null","","","","","","","","",""
"91","","image-keyboard-response","46","72111","0.0-46.0","3FDJT1UU75UCMOAGZEKCP70BX2OK5B","A11JZFATJVBFN0","32XN26MTXZ5MP383W6LZYTLBY7P0LI","","","img/flower6.png","74","106","1","0","3","","","","",""
"null","","html-keyboard-response","47","72427","0.0-47.0","3FDJT1UU75UCMOAGZEKCP70BX2OK5B","A11JZFATJVBFN0","32XN26MTXZ5MP383W6LZYTLBY7P0LI","","","<img src=""img/flower6.png"" style=""width:200px;border:14px solid red;"">","null","","","","","","","","",""
"17","","image-keyboard-response","48","72448","0.0-48.0","3FDJT1UU75UCMOAGZEKCP70BX2OK5B","A11JZFATJVBFN0","32XN26MTXZ5MP383W6LZYTLBY7P0LI","","","img/flower6.png","74","20","1","0","3","","","","",""
"null","","html-keyboard-response","49","72757","0.0-49.0","3FDJT1UU75UCMOAGZEKCP70BX2OK5B","A11JZFATJVBFN0","32XN26MTXZ5MP383W6LZYTLBY7P0LI","","","<img src=""img/flower6.png"" style=""width:200px;border:14px solid red;"">","null","","","","","","","","",""
"79","","image-keyboard-response","50","72838","0.0-50.0","3FDJT1UU75UCMOAGZEKCP70BX2OK5B","A11JZFATJVBFN0","32XN26MTXZ5MP383W6LZYTLBY7P0LI","","","img/flower6.png","74","81","1","0","3","","","","",""
"null","","html-keyboard-response","51","73145","0.0-51.0","3FDJT1UU75UCMOAGZEKCP70BX2OK5B","A11JZFATJVBFN0","32XN26MTXZ5MP383W6LZYTLBY7P0LI","","","<img src=""img/flower6.png"" style=""width:200px;border:14px solid red;"">","null","","","","","","","","",""
"78","","image-keyboard-response","52","73226","0.0-52.0","3FDJT1UU75UCMOAGZEKCP70BX2OK5B","A11JZFATJVBFN0","32XN26MTXZ5MP383W6LZYTLBY7P0LI","","","img/flower5.png","74","79","1","0","2","","","","",""
"null","","html-keyboard-response","53","73540","0.0-53.0","3FDJT1UU75UCMOAGZEKCP70BX2OK5B","A11JZFATJVBFN0","32XN26MTXZ5MP383W6LZYTLBY7P0LI","","","<img src=""img/flower5.png"" style=""width:200px;border:14px solid red;"">","null","","","","","","","","",""
"67","","image-keyboard-response","54","73613","0.0-54.0","3FDJT1UU75UCMOAGZEKCP70BX2OK5B","A11JZFATJVBFN0","32XN26MTXZ5MP383W6LZYTLBY7P0LI","","","img/flower4.png","74","71","1","0","1","","","","",""
"null","","html-keyboard-response","55","73937","0.0-55.0","3FDJT1UU75UCMOAGZEKCP70BX2OK5B","A11JZFATJVBFN0","32XN26MTXZ5MP383W6LZYTLBY7P0LI","","","<img src=""img/flower4.png"" style=""width:200px;border:14px solid red;"">","null","","","","","","","","",""
"63","","image-keyboard-response","56","74002","0.0-56.0","3FDJT1UU75UCMOAGZEKCP70BX2OK5B","A11JZFATJVBFN0","32XN26MTXZ5MP383W6LZYTLBY7P0LI","","","img/flower5.png","75","65","2","1","2","","","","",""
"null","","html-keyboard-response","57","74322","0.0-57.0","3FDJT1UU75UCMOAGZEKCP70BX2OK5B","A11JZFATJVBFN0","32XN26MTXZ5MP383W6LZYTLBY7P0LI","","","<img src=""img/flower5.png"" style=""width:200px; border:14px solid green;"">","null","","","","","","","","",""
"137","","image-keyboard-response","58","74470","0.0-58.0","3FDJT1UU75UCMOAGZEKCP70BX2OK5B","A11JZFATJVBFN0","32XN26MTXZ5MP383W6LZYTLBY7P0LI","","","img/flower4.png","74","148","1","1","1","","","","",""
"null","","html-keyboard-response","59","74786","0.0-59.0","3FDJT1UU75UCMOAGZEKCP70BX2OK5B","A11JZFATJVBFN0","32XN26MTXZ5MP383W6LZYTLBY7P0LI","","","<img src=""img/flower4.png"" style=""width:200px; border:14px solid green;"">","null","","","","","","","","",""
"713","","image-keyboard-response","60","75508","0.0-60.0","3FDJT1UU75UCMOAGZEKCP70BX2OK5B","A11JZFATJVBFN0","32XN26MTXZ5MP383W6LZYTLBY7P0LI","","","img/flower6.png","74","722","1","1","3","","","","",""
"null","","html-keyboard-response","61","75818","0.0-61.0","3FDJT1UU75UCMOAGZEKCP70BX2OK5B","A11JZFATJVBFN0","32XN26MTXZ5MP383W6LZYTLBY7P0LI","","","<img src=""img/flower6.png"" style=""width:200px; border:14px solid green;"">","null","","","","","","","","",""
"236","","image-keyboard-response","62","76065","0.0-62.0","3FDJT1UU75UCMOAGZEKCP70BX2OK5B","A11JZFATJVBFN0","32XN26MTXZ5MP383W6LZYTLBY7P0LI","","","img/flower5.png","75","247","2","0","2","","","","",""
"null","","html-keyboard-response","63","76393","0.0-63.0","3FDJT1UU75UCMOAGZEKCP70BX2OK5B","A11JZFATJVBFN0","32XN26MTXZ5MP383W6LZYTLBY7P0LI","","","<img src=""img/flower5.png"" style=""width:200px;border:14px solid red;"">","null","","","","","","","","",""
"20378","","instructions","64","96777","0.0-64.0","3FDJT1UU75UCMOAGZEKCP70BX2OK5B","A11JZFATJVBFN0","32XN26MTXZ5MP383W6LZYTLBY7P0LI","","[{""page_index"":0,""viewing_time"":3029},{""page_index"":1,""viewing_time"":17344}]","","","","","","","","","","",""
"2695","","image-keyboard-response","65","99536","0.0-65.0","3FDJT1UU75UCMOAGZEKCP70BX2OK5B","A11JZFATJVBFN0","32XN26MTXZ5MP383W6LZYTLBY7P0LI","","","img/flower6.png","75","2722","2","0","3","","","","",""
"null","","html-keyboard-response","66","99852","0.0-66.0","3FDJT1UU75UCMOAGZEKCP70BX2OK5B","A11JZFATJVBFN0","32XN26MTXZ5MP383W6LZYTLBY7P0LI","","","<img src=""img/flower6.png"" style=""width:200px;border:14px solid red;"">","null","","","","","","","","",""
"1245","","image-keyboard-response","67","101107","0.0-67.0","3FDJT1UU75UCMOAGZEKCP70BX2OK5B","A11JZFATJVBFN0","32XN26MTXZ5MP383W6LZYTLBY7P0LI","","","img/flower6.png","76","1255","3","1","3","","","","",""
"null","","html-keyboard-response","68","101428","0.0-68.0","3FDJT1UU75UCMOAGZEKCP70BX2OK5B","A11JZFATJVBFN0","32XN26MTXZ5MP383W6LZYTLBY7P0LI","","","<img src=""img/flower6.png"" style=""width:200px; border:14px solid green;"">","null","","","","","","","","",""
"1587","","image-keyboard-response","69","103026","0.0-69.0","3FDJT1UU75UCMOAGZEKCP70BX2OK5B","A11JZFATJVBFN0","32XN26MTXZ5MP383W6LZYTLBY7P0LI","","","img/flower6.png","75","1597","2","0","3","","","","",""
"null","","html-keyboard-response","70","103377","0.0-70.0","3FDJT1UU75UCMOAGZEKCP70BX2OK5B","A11JZFATJVBFN0","32XN26MTXZ5MP383W6LZYTLBY7P0LI","","","<img src=""img/flower6.png"" style=""width:200px;border:14px solid red;"">","null","","","","","","","","",""
"1285","","image-keyboard-response","71","104666","0.0-71.0","3FDJT1UU75UCMOAGZEKCP70BX2OK5B","A11JZFATJVBFN0","32XN26MTXZ5MP383W6LZYTLBY7P0LI","","","img/flower6.png","76","1287","3","1","3","","","","",""
"null","","html-keyboard-response","72","104980","0.0-72.0","3FDJT1UU75UCMOAGZEKCP70BX2OK5B","A11JZFATJVBFN0","32XN26MTXZ5MP383W6LZYTLBY7P0LI","","","<img src=""img/flower6.png"" style=""width:200px; border:14px solid green;"">","null","","","","","","","","",""
"1691","","image-keyboard-response","73","106674","0.0-73.0","3FDJT1UU75UCMOAGZEKCP70BX2OK5B","A11JZFATJVBFN0","32XN26MTXZ5MP383W6LZYTLBY7P0LI","","","img/flower5.png","76","1694","3","1","2","","","","",""
"null","","html-keyboard-response","74","107009","0.0-74.0","3FDJT1UU75UCMOAGZEKCP70BX2OK5B","A11JZFATJVBFN0","32XN26MTXZ5MP383W6LZYTLBY7P0LI","","","<img src=""img/flower5.png"" style=""width:200px; border:14px solid green;"">","null","","","","","","","","",""
"1192","","image-keyboard-response","75","108249","0.0-75.0","3FDJT1UU75UCMOAGZEKCP70BX2OK5B","A11JZFATJVBFN0","32XN26MTXZ5MP383W6LZYTLBY7P0LI","","","img/flower6.png","74","1231","1","1","3","","","","",""
"null","","html-keyboard-response","76","108602","0.0-76.0","3FDJT1UU75UCMOAGZEKCP70BX2OK5B","A11JZFATJVBFN0","32XN26MTXZ5MP383W6LZYTLBY7P0LI","","","<img src=""img/flower6.png"" style=""width:200px; border:14px solid green;"">","null","","","","","","","","",""
"976","","image-keyboard-response","77","109585","0.0-77.0","3FDJT1UU75UCMOAGZEKCP70BX2OK5B","A11JZFATJVBFN0","32XN26MTXZ5MP383W6LZYTLBY7P0LI","","","img/flower5.png","75","982","2","1","2","","","","",""
"null","","html-keyboard-response","78","109907","0.0-78.0","3FDJT1UU75UCMOAGZEKCP70BX2OK5B","A11JZFATJVBFN0","32XN26MTXZ5MP383W6LZYTLBY7P0LI","","","<img src=""img/flower5.png"" style=""width:200px; border:14px solid green;"">","null","","","","","","","","",""
"1125","","image-keyboard-response","79","111034","0.0-79.0","3FDJT1UU75UCMOAGZEKCP70BX2OK5B","A11JZFATJVBFN0","32XN26MTXZ5MP383W6LZYTLBY7P0LI","","","img/flower6.png","76","1127","3","1","3","","","","",""
"null","","html-keyboard-response","80","111339","0.0-80.0","3FDJT1UU75UCMOAGZEKCP70BX2OK5B","A11JZFATJVBFN0","32XN26MTXZ5MP383W6LZYTLBY7P0LI","","","<img src=""img/flower6.png"" style=""width:200px; border:14px solid green;"">","null","","","","","","","","",""
"799","","image-keyboard-response","81","112144","0.0-81.0","3FDJT1UU75UCMOAGZEKCP70BX2OK5B","A11JZFATJVBFN0","32XN26MTXZ5MP383W6LZYTLBY7P0LI","","","img/flower5.png","74","804","1","0","2","","","","",""
"null","","html-keyboard-response","82","112457","0.0-82.0","3FDJT1UU75UCMOAGZEKCP70BX2OK5B","A11JZFATJVBFN0","32XN26MTXZ5MP383W6LZYTLBY7P0LI","","","<img src=""img/flower5.png"" style=""width:200px;border:14px solid red;"">","null","","","","","","","","",""
"1131","","image-keyboard-response","83","113595","0.0-83.0","3FDJT1UU75UCMOAGZEKCP70BX2OK5B","A11JZFATJVBFN0","32XN26MTXZ5MP383W6LZYTLBY7P0LI","","","img/flower4.png","75","1134","2","0","1","","","","",""
"null","","html-keyboard-response","84","113912","0.0-84.0","3FDJT1UU75UCMOAGZEKCP70BX2OK5B","A11JZFATJVBFN0","32XN26MTXZ5MP383W6LZYTLBY7P0LI","","","<img src=""img/flower4.png"" style=""width:200px;border:14px solid red;"">","null","","","","","","","","",""
"1002","","image-keyboard-response","85","114915","0.0-85.0","3FDJT1UU75UCMOAGZEKCP70BX2OK5B","A11JZFATJVBFN0","32XN26MTXZ5MP383W6LZYTLBY7P0LI","","","img/flower4.png","74","1014","1","1","1","","","","",""
"null","","html-keyboard-response","86","115244","0.0-86.0","3FDJT1UU75UCMOAGZEKCP70BX2OK5B","A11JZFATJVBFN0","32XN26MTXZ5MP383W6LZYTLBY7P0LI","","","<img src=""img/flower4.png"" style=""width:200px; border:14px solid green;"">","null","","","","","","","","",""
"1184","","image-keyboard-response","87","116433","0.0-87.0","3FDJT1UU75UCMOAGZEKCP70BX2OK5B","A11JZFATJVBFN0","32XN26MTXZ5MP383W6LZYTLBY7P0LI","","","img/flower5.png","75","1188","2","1","2","","","","",""
"null","","html-keyboard-response","88","116751","0.0-88.0","3FDJT1UU75UCMOAGZEKCP70BX2OK5B","A11JZFATJVBFN0","32XN26MTXZ5MP383W6LZYTLBY7P0LI","","","<img src=""img/flower5.png"" style=""width:200px; border:14px solid green;"">","null","","","","","","","","",""
"1748","","image-keyboard-response","89","118507","0.0-89.0","3FDJT1UU75UCMOAGZEKCP70BX2OK5B","A11JZFATJVBFN0","32XN26MTXZ5MP383W6LZYTLBY7P0LI","","","img/flower4.png","74","1756","1","1","1","","","","",""
"null","","html-keyboard-response","90","118817","0.0-90.0","3FDJT1UU75UCMOAGZEKCP70BX2OK5B","A11JZFATJVBFN0","32XN26MTXZ5MP383W6LZYTLBY7P0LI","","","<img src=""img/flower4.png"" style=""width:200px; border:14px solid green;"">","null","","","","","","","","",""
"1073","","image-keyboard-response","91","119904","0.0-91.0","3FDJT1UU75UCMOAGZEKCP70BX2OK5B","A11JZFATJVBFN0","32XN26MTXZ5MP383W6LZYTLBY7P0LI","","","img/flower6.png","76","1086","3","1","3","","","","",""
"null","","html-keyboard-response","92","120213","0.0-92.0","3FDJT1UU75UCMOAGZEKCP70BX2OK5B","A11JZFATJVBFN0","32XN26MTXZ5MP383W6LZYTLBY7P0LI","","","<img src=""img/flower6.png"" style=""width:200px; border:14px solid green;"">","null","","","","","","","","",""
"1118","","image-keyboard-response","93","121341","0.0-93.0","3FDJT1UU75UCMOAGZEKCP70BX2OK5B","A11JZFATJVBFN0","32XN26MTXZ5MP383W6LZYTLBY7P0LI","","","img/flower5.png","75","1128","2","0","2","","","","",""
"null","","html-keyboard-response","94","121654","0.0-94.0","3FDJT1UU75UCMOAGZEKCP70BX2OK5B","A11JZFATJVBFN0","32XN26MTXZ5MP383W6LZYTLBY7P0LI","","","<img src=""img/flower5.png"" style=""width:200px;border:14px solid red;"">","null","","","","","","","","",""
"1162","","image-keyboard-response","95","122819","0.0-95.0","3FDJT1UU75UCMOAGZEKCP70BX2OK5B","A11JZFATJVBFN0","32XN26MTXZ5MP383W6LZYTLBY7P0LI","","","img/flower5.png","76","1165","3","0","2","","","","",""
"null","","html-keyboard-response","96","123141","0.0-96.0","3FDJT1UU75UCMOAGZEKCP70BX2OK5B","A11JZFATJVBFN0","32XN26MTXZ5MP383W6LZYTLBY7P0LI","","","<img src=""img/flower5.png"" style=""width:200px;border:14px solid red;"">","null","","","","","","","","",""
"909","","image-keyboard-response","97","124062","0.0-97.0","3FDJT1UU75UCMOAGZEKCP70BX2OK5B","A11JZFATJVBFN0","32XN26MTXZ5MP383W6LZYTLBY7P0LI","","","img/flower4.png","74","922","1","1","1","","","","",""
"null","","html-keyboard-response","98","124380","0.0-98.0","3FDJT1UU75UCMOAGZEKCP70BX2OK5B","A11JZFATJVBFN0","32XN26MTXZ5MP383W6LZYTLBY7P0LI","","","<img src=""img/flower4.png"" style=""width:200px; border:14px solid green;"">","null","","","","","","","","",""
"935","","image-keyboard-response","99","125321","0.0-99.0","3FDJT1UU75UCMOAGZEKCP70BX2OK5B","A11JZFATJVBFN0","32XN26MTXZ5MP383W6LZYTLBY7P0LI","","","img/flower4.png","74","938","1","1","1","","","","",""
"null","","html-keyboard-response","100","125630","0.0-100.0","3FDJT1UU75UCMOAGZEKCP70BX2OK5B","A11JZFATJVBFN0","32XN26MTXZ5MP383W6LZYTLBY7P0LI","","","<img src=""img/flower4.png"" style=""width:200px; border:14px solid green;"">","null","","","","","","","","",""
"1084","","image-keyboard-response","101","126723","0.0-101.0","3FDJT1UU75UCMOAGZEKCP70BX2OK5B","A11JZFATJVBFN0","32XN26MTXZ5MP383W6LZYTLBY7P0LI","","","img/flower5.png","75","1093","2","1","2","","","","",""
"null","","html-keyboard-response","102","127064","0.0-102.0","3FDJT1UU75UCMOAGZEKCP70BX2OK5B","A11JZFATJVBFN0","32XN26MTXZ5MP383W6LZYTLBY7P0LI","","","<img src=""img/flower5.png"" style=""width:200px; border:14px solid green;"">","null","","","","","","","","",""
"902","","image-keyboard-response","103","127981","0.0-103.0","3FDJT1UU75UCMOAGZEKCP70BX2OK5B","A11JZFATJVBFN0","32XN26MTXZ5MP383W6LZYTLBY7P0LI","","","img/flower5.png","75","914","2","1","2","","","","",""
"null","","html-keyboard-response","104","128290","0.0-104.0","3FDJT1UU75UCMOAGZEKCP70BX2OK5B","A11JZFATJVBFN0","32XN26MTXZ5MP383W6LZYTLBY7P0LI","","","<img src=""img/flower5.png"" style=""width:200px; border:14px solid green;"">","null","","","","","","","","",""
"1865","","image-keyboard-response","105","130172","0.0-105.0","3FDJT1UU75UCMOAGZEKCP70BX2OK5B","A11JZFATJVBFN0","32XN26MTXZ5MP383W6LZYTLBY7P0LI","","","img/flower6.png","76","1882","3","1","3","","","","",""
"null","","html-keyboard-response","106","130491","0.0-106.0","3FDJT1UU75UCMOAGZEKCP70BX2OK5B","A11JZFATJVBFN0","32XN26MTXZ5MP383W6LZYTLBY7P0LI","","","<img src=""img/flower6.png"" style=""width:200px; border:14px solid green;"">","null","","","","","","","","",""
"1603","","image-keyboard-response","107","132110","0.0-107.0","3FDJT1UU75UCMOAGZEKCP70BX2OK5B","A11JZFATJVBFN0","32XN26MTXZ5MP383W6LZYTLBY7P0LI","","","img/flower4.png","75","1620","2","1","1","","","","",""
"null","","html-keyboard-response","108","132429","0.0-108.0","3FDJT1UU75UCMOAGZEKCP70BX2OK5B","A11JZFATJVBFN0","32XN26MTXZ5MP383W6LZYTLBY7P0LI","","","<img src=""img/flower4.png"" style=""width:200px; border:14px solid green;"">","null","","","","","","","","",""
"1194","","image-keyboard-response","109","133636","0.0-109.0","3FDJT1UU75UCMOAGZEKCP70BX2OK5B","A11JZFATJVBFN0","32XN26MTXZ5MP383W6LZYTLBY7P0LI","","","img/flower4.png","75","1207","2","1","1","","","","",""
"null","","html-keyboard-response","110","133943","0.0-110.0","3FDJT1UU75UCMOAGZEKCP70BX2OK5B","A11JZFATJVBFN0","32XN26MTXZ5MP383W6LZYTLBY7P0LI","","","<img src=""img/flower4.png"" style=""width:200px; border:14px solid green;"">","null","","","","","","","","",""
"866","","image-keyboard-response","111","134825","0.0-111.0","3FDJT1UU75UCMOAGZEKCP70BX2OK5B","A11JZFATJVBFN0","32XN26MTXZ5MP383W6LZYTLBY7P0LI","","","img/flower6.png","75","874","2","0","3","","","","",""
"null","","html-keyboard-response","112","135134","0.0-112.0","3FDJT1UU75UCMOAGZEKCP70BX2OK5B","A11JZFATJVBFN0","32XN26MTXZ5MP383W6LZYTLBY7P0LI","","","<img src=""img/flower6.png"" style=""width:200px;border:14px solid red;"">","null","","","","","","","","",""
"953","","image-keyboard-response","113","136108","0.0-113.0","3FDJT1UU75UCMOAGZEKCP70BX2OK5B","A11JZFATJVBFN0","32XN26MTXZ5MP383W6LZYTLBY7P0LI","","","img/flower5.png","76","961","3","1","2","","","","",""
"null","","html-keyboard-response","114","136428","0.0-114.0","3FDJT1UU75UCMOAGZEKCP70BX2OK5B","A11JZFATJVBFN0","32XN26MTXZ5MP383W6LZYTLBY7P0LI","","","<img src=""img/flower5.png"" style=""width:200px; border:14px solid green;"">","null","","","","","","","","",""
"1974","","image-keyboard-response","115","138419","0.0-115.0","3FDJT1UU75UCMOAGZEKCP70BX2OK5B","A11JZFATJVBFN0","32XN26MTXZ5MP383W6LZYTLBY7P0LI","","","img/flower4.png","74","1988","1","1","1","","","","",""
"null","","html-keyboard-response","116","138774","0.0-116.0","3FDJT1UU75UCMOAGZEKCP70BX2OK5B","A11JZFATJVBFN0","32XN26MTXZ5MP383W6LZYTLBY7P0LI","","","<img src=""img/flower4.png"" style=""width:200px; border:14px solid green;"">","null","","","","","","","","",""
"1319","","image-keyboard-response","117","140105","0.0-117.0","3FDJT1UU75UCMOAGZEKCP70BX2OK5B","A11JZFATJVBFN0","32XN26MTXZ5MP383W6LZYTLBY7P0LI","","","img/flower5.png","75","1330","2","1","2","","","","",""
"null","","html-keyboard-response","118","140426","0.0-118.0","3FDJT1UU75UCMOAGZEKCP70BX2OK5B","A11JZFATJVBFN0","32XN26MTXZ5MP383W6LZYTLBY7P0LI","","","<img src=""img/flower5.png"" style=""width:200px; border:14px solid green;"">","null","","","","","","","","",""
"1073","","image-keyboard-response","119","141503","0.0-119.0","3FDJT1UU75UCMOAGZEKCP70BX2OK5B","A11JZFATJVBFN0","32XN26MTXZ5MP383W6LZYTLBY7P0LI","","","img/flower6.png","76","1076","3","1","3","","","","",""
"null","","html-keyboard-response","120","141825","0.0-120.0","3FDJT1UU75UCMOAGZEKCP70BX2OK5B","A11JZFATJVBFN0","32XN26MTXZ5MP383W6LZYTLBY7P0LI","","","<img src=""img/flower6.png"" style=""width:200px; border:14px solid green;"">","null","","","","","","","","",""
"1123","","image-keyboard-response","121","142958","0.0-121.0","3FDJT1UU75UCMOAGZEKCP70BX2OK5B","A11JZFATJVBFN0","32XN26MTXZ5MP383W6LZYTLBY7P0LI","","","img/flower4.png","75","1133","2","1","1","","","","",""
"null","","html-keyboard-response","122","143287","0.0-122.0","3FDJT1UU75UCMOAGZEKCP70BX2OK5B","A11JZFATJVBFN0","32XN26MTXZ5MP383W6LZYTLBY7P0LI","","","<img src=""img/flower4.png"" style=""width:200px; border:14px solid green;"">","null","","","","","","","","",""
"1060","","image-keyboard-response","123","144360","0.0-123.0","3FDJT1UU75UCMOAGZEKCP70BX2OK5B","A11JZFATJVBFN0","32XN26MTXZ5MP383W6LZYTLBY7P0LI","","","img/flower4.png","75","1072","2","1","1","","","","",""
"null","","html-keyboard-response","124","144679","0.0-124.0","3FDJT1UU75UCMOAGZEKCP70BX2OK5B","A11JZFATJVBFN0","32XN26MTXZ5MP383W6LZYTLBY7P0LI","","","<img src=""img/flower4.png"" style=""width:200px; border:14px solid green;"">","null","","","","","","","","",""
"3183","","instructions","125","147865","0.0-125.0","3FDJT1UU75UCMOAGZEKCP70BX2OK5B","A11JZFATJVBFN0","32XN26MTXZ5MP383W6LZYTLBY7P0LI","","[{""page_index"":0,""viewing_time"":3182}]","","","","","","","","","","",""
"1794","","image-keyboard-response","126","149663","0.0-126.0","3FDJT1UU75UCMOAGZEKCP70BX2OK5B","A11JZFATJVBFN0","32XN26MTXZ5MP383W6LZYTLBY7P0LI","","","img/flower4.png","75","1796","2","0","3","1","1,0.333,0.333,0.333,1,0.333,0.333,0.333,1","1,0.333,0.333,0.333,1,0.333,0.333,0.333,1","1",""
"null","","html-keyboard-response","127","149978","0.0-127.0","3FDJT1UU75UCMOAGZEKCP70BX2OK5B","A11JZFATJVBFN0","32XN26MTXZ5MP383W6LZYTLBY7P0LI","","","<img src=""img/flower4.png"" style=""width:200px;border:14px solid red;"">","null","","","","","","","","",""
"1331","","image-keyboard-response","128","151314","0.0-128.0","3FDJT1UU75UCMOAGZEKCP70BX2OK5B","A11JZFATJVBFN0","32XN26MTXZ5MP383W6LZYTLBY7P0LI","","","img/flower6.png","76","1335","3","1","2","1","1,0.333,0.333,0.333,1,0.333,0.333,0.333,1","1,0.333,0.333,0.333,1,0.333,0.333,0.333,1","1",""
"null","","html-keyboard-response","129","151630","0.0-129.0","3FDJT1UU75UCMOAGZEKCP70BX2OK5B","A11JZFATJVBFN0","32XN26MTXZ5MP383W6LZYTLBY7P0LI","","","<img src=""img/flower6.png"" style=""width:200px; border:14px solid green;"">","null","","","","","","","","",""
"1159","","image-keyboard-response","130","152796","0.0-130.0","3FDJT1UU75UCMOAGZEKCP70BX2OK5B","A11JZFATJVBFN0","32XN26MTXZ5MP383W6LZYTLBY7P0LI","","","img/flower4.png","75","1165","2","0","3","1","1,0.333,0.333,0.333,1,0.333,0.333,0.333,1","1,0.333,0.333,0.333,1,0.333,0.333,0.333,1","1",""
"null","","html-keyboard-response","131","153099","0.0-131.0","3FDJT1UU75UCMOAGZEKCP70BX2OK5B","A11JZFATJVBFN0","32XN26MTXZ5MP383W6LZYTLBY7P0LI","","","<img src=""img/flower4.png"" style=""width:200px;border:14px solid red;"">","null","","","","","","","","",""
"777","","image-keyboard-response","132","153886","0.0-132.0","3FDJT1UU75UCMOAGZEKCP70BX2OK5B","A11JZFATJVBFN0","32XN26MTXZ5MP383W6LZYTLBY7P0LI","","","img/flower4.png","75","786","2","1","3","1","1,0.333,0.333,0.333,1,0.333,0.333,0.333,1","1,0.333,0.333,0.333,1,0.333,0.333,0.333,1","1",""
"null","","html-keyboard-response","133","154192","0.0-133.0","3FDJT1UU75UCMOAGZEKCP70BX2OK5B","A11JZFATJVBFN0","32XN26MTXZ5MP383W6LZYTLBY7P0LI","","","<img src=""img/flower4.png"" style=""width:200px; border:14px solid green;"">","null","","","","","","","","",""
"3946","","image-keyboard-response","134","158147","0.0-134.0","3FDJT1UU75UCMOAGZEKCP70BX2OK5B","A11JZFATJVBFN0","32XN26MTXZ5MP383W6LZYTLBY7P0LI","","","img/flower6.png","76","3954","3","0","2","1","1,0.333,0.333,0.333,1,0.333,0.333,0.333,1","1,0.333,0.333,0.333,1,0.333,0.333,0.333,1","1",""
"null","","html-keyboard-response","135","158481","0.0-135.0","3FDJT1UU75UCMOAGZEKCP70BX2OK5B","A11JZFATJVBFN0","32XN26MTXZ5MP383W6LZYTLBY7P0LI","","","<img src=""img/flower6.png"" style=""width:200px;border:14px solid red;"">","null","","","","","","","","",""
"770","","image-keyboard-response","136","159264","0.0-136.0","3FDJT1UU75UCMOAGZEKCP70BX2OK5B","A11JZFATJVBFN0","32XN26MTXZ5MP383W6LZYTLBY7P0LI","","","img/flower5.png","75","783","2","0","1","1","1,0.333,0.333,0.333,1,0.333,0.333,0.333,1","1,0.333,0.333,0.333,1,0.333,0.333,0.333,1","1",""
"null","","html-keyboard-response","137","159567","0.0-137.0","3FDJT1UU75UCMOAGZEKCP70BX2OK5B","A11JZFATJVBFN0","32XN26MTXZ5MP383W6LZYTLBY7P0LI","","","<img src=""img/flower5.png"" style=""width:200px;border:14px solid red;"">","null","","","","","","","","",""
"1260","","image-keyboard-response","138","160842","0.0-138.0","3FDJT1UU75UCMOAGZEKCP70BX2OK5B","A11JZFATJVBFN0","32XN26MTXZ5MP383W6LZYTLBY7P0LI","","","img/flower6.png","74","1272","1","1","2","1","1,0.333,0.333,0.333,1,0.333,0.333,0.333,1","1,0.333,0.333,0.333,1,0.333,0.333,0.333,1","1",""
"null","","html-keyboard-response","139","161160","0.0-139.0","3FDJT1UU75UCMOAGZEKCP70BX2OK5B","A11JZFATJVBFN0","32XN26MTXZ5MP383W6LZYTLBY7P0LI","","","<img src=""img/flower6.png"" style=""width:200px; border:14px solid green;"">","null","","","","","","","","",""
"919","","image-keyboard-response","140","162085","0.0-140.0","3FDJT1UU75UCMOAGZEKCP70BX2OK5B","A11JZFATJVBFN0","32XN26MTXZ5MP383W6LZYTLBY7P0LI","","","img/flower4.png","74","923","1","1","3","1","1,0.333,0.333,0.333,1,0.333,0.333,0.333,1","1,0.333,0.333,0.333,1,0.333,0.333,0.333,1","1",""
"null","","html-keyboard-response","141","162401","0.0-141.0","3FDJT1UU75UCMOAGZEKCP70BX2OK5B","A11JZFATJVBFN0","32XN26MTXZ5MP383W6LZYTLBY7P0LI","","","<img src=""img/flower4.png"" style=""width:200px; border:14px solid green;"">","null","","","","","","","","",""
"907","","image-keyboard-response","142","163313","0.0-142.0","3FDJT1UU75UCMOAGZEKCP70BX2OK5B","A11JZFATJVBFN0","32XN26MTXZ5MP383W6LZYTLBY7P0LI","","","img/flower4.png","74","912","1","1","3","1","1,0.333,0.333,0.333,1,0.333,0.333,0.333,1","1,0.333,0.333,0.333,1,0.333,0.333,0.333,1","1",""
"null","","html-keyboard-response","143","163621","0.0-143.0","3FDJT1UU75UCMOAGZEKCP70BX2OK5B","A11JZFATJVBFN0","32XN26MTXZ5MP383W6LZYTLBY7P0LI","","","<img src=""img/flower4.png"" style=""width:200px; border:14px solid green;"">","null","","","","","","","","",""
"972","","image-keyboard-response","144","164612","0.0-144.0","3FDJT1UU75UCMOAGZEKCP70BX2OK5B","A11JZFATJVBFN0","32XN26MTXZ5MP383W6LZYTLBY7P0LI","","","img/flower5.png","76","991","3","1","1","1","1,0.333,0.333,0.333,1,0.333,0.333,0.333,1","1,0.333,0.333,0.333,1,0.333,0.333,0.333,1","1",""
"null","","html-keyboard-response","145","164933","0.0-145.0","3FDJT1UU75UCMOAGZEKCP70BX2OK5B","A11JZFATJVBFN0","32XN26MTXZ5MP383W6LZYTLBY7P0LI","","","<img src=""img/flower5.png"" style=""width:200px; border:14px solid green;"">","null","","","","","","","","",""
"1251","","image-keyboard-response","146","166188","0.0-146.0","3FDJT1UU75UCMOAGZEKCP70BX2OK5B","A11JZFATJVBFN0","32XN26MTXZ5MP383W6LZYTLBY7P0LI","","","img/flower5.png","76","1254","3","0","1","1","1,0.333,0.333,0.333,1,0.333,0.333,0.333,1","1,0.333,0.333,0.333,1,0.333,0.333,0.333,1","1",""
"null","","html-keyboard-response","147","166598","0.0-147.0","3FDJT1UU75UCMOAGZEKCP70BX2OK5B","A11JZFATJVBFN0","32XN26MTXZ5MP383W6LZYTLBY7P0LI","","","<img src=""img/flower5.png"" style=""width:200px;border:14px solid red;"">","null","","","","","","","","",""
"518","","image-keyboard-response","148","167128","0.0-148.0","3FDJT1UU75UCMOAGZEKCP70BX2OK5B","A11JZFATJVBFN0","32XN26MTXZ5MP383W6LZYTLBY7P0LI","","","img/flower6.png","75","528","2","1","2","1","1,0.333,0.333,0.333,1,0.333,0.333,0.333,1","1,0.333,0.333,0.333,1,0.333,0.333,0.333,1","1",""
"null","","html-keyboard-response","149","167444","0.0-149.0","3FDJT1UU75UCMOAGZEKCP70BX2OK5B","A11JZFATJVBFN0","32XN26MTXZ5MP383W6LZYTLBY7P0LI","","","<img src=""img/flower6.png"" style=""width:200px; border:14px solid green;"">","null","","","","","","","","",""
"6","","image-keyboard-response","150","167453","0.0-150.0","3FDJT1UU75UCMOAGZEKCP70BX2OK5B","A11JZFATJVBFN0","32XN26MTXZ5MP383W6LZYTLBY7P0LI","","","img/flower4.png","75","8","2","0","3","1","1,0.333,0.333,0.333,1,0.333,0.333,0.333,1","1,0.333,0.333,0.333,1,0.333,0.333,0.333,1","1",""
"null","","html-keyboard-response","151","167758","0.0-151.0","3FDJT1UU75UCMOAGZEKCP70BX2OK5B","A11JZFATJVBFN0","32XN26MTXZ5MP383W6LZYTLBY7P0LI","","","<img src=""img/flower4.png"" style=""width:200px;border:14px solid red;"">","null","","","","","","","","",""
"135","","image-keyboard-response","152","167910","0.0-152.0","3FDJT1UU75UCMOAGZEKCP70BX2OK5B","A11JZFATJVBFN0","32XN26MTXZ5MP383W6LZYTLBY7P0LI","","","img/flower5.png","74","152","1","1","1","1","1,0.333,0.333,0.333,1,0.333,0.333,0.333,1","1,0.333,0.333,0.333,1,0.333,0.333,0.333,1","1",""
"null","","html-keyboard-response","153","168224","0.0-153.0","3FDJT1UU75UCMOAGZEKCP70BX2OK5B","A11JZFATJVBFN0","32XN26MTXZ5MP383W6LZYTLBY7P0LI","","","<img src=""img/flower5.png"" style=""width:200px; border:14px solid green;"">","null","","","","","","","","",""
"83","","image-keyboard-response","154","168308","0.0-154.0","3FDJT1UU75UCMOAGZEKCP70BX2OK5B","A11JZFATJVBFN0","32XN26MTXZ5MP383W6LZYTLBY7P0LI","","","img/flower4.png","76","85","3","1","3","1","1,0.333,0.333,0.333,1,0.333,0.333,0.333,1","1,0.333,0.333,0.333,1,0.333,0.333,0.333,1","1",""
"null","","html-keyboard-response","155","168636","0.0-155.0","3FDJT1UU75UCMOAGZEKCP70BX2OK5B","A11JZFATJVBFN0","32XN26MTXZ5MP383W6LZYTLBY7P0LI","","","<img src=""img/flower4.png"" style=""width:200px; border:14px solid green;"">","null","","","","","","","","",""
"101","","image-keyboard-response","156","168749","0.0-156.0","3FDJT1UU75UCMOAGZEKCP70BX2OK5B","A11JZFATJVBFN0","32XN26MTXZ5MP383W6LZYTLBY7P0LI","","","img/flower6.png","76","113","3","0","2","1","1,0.333,0.333,0.333,1,0.333,0.333,0.333,1","1,0.333,0.333,0.333,1,0.333,0.333,0.333,1","1",""
"null","","html-keyboard-response","157","169052","0.0-157.0","3FDJT1UU75UCMOAGZEKCP70BX2OK5B","A11JZFATJVBFN0","32XN26MTXZ5MP383W6LZYTLBY7P0LI","","","<img src=""img/flower6.png"" style=""width:200px;border:14px solid red;"">","null","","","","","","","","",""
"32","","image-keyboard-response","158","169087","0.0-158.0","3FDJT1UU75UCMOAGZEKCP70BX2OK5B","A11JZFATJVBFN0","32XN26MTXZ5MP383W6LZYTLBY7P0LI","","","img/flower6.png","76","34","3","1","2","1","1,0.333,0.333,0.333,1,0.333,0.333,0.333,1","1,0.333,0.333,0.333,1,0.333,0.333,0.333,1","1",""
"null","","html-keyboard-response","159","169408","0.0-159.0","3FDJT1UU75UCMOAGZEKCP70BX2OK5B","A11JZFATJVBFN0","32XN26MTXZ5MP383W6LZYTLBY7P0LI","","","<img src=""img/flower6.png"" style=""width:200px; border:14px solid green;"">","null","","","","","","","","",""
"141","","image-keyboard-response","160","169554","0.0-160.0","3FDJT1UU75UCMOAGZEKCP70BX2OK5B","A11JZFATJVBFN0","32XN26MTXZ5MP383W6LZYTLBY7P0LI","","","img/flower6.png","74","146","1","1","2","1","1,0.333,0.333,0.333,1,0.333,0.333,0.333,1","1,0.333,0.333,0.333,1,0.333,0.333,0.333,1","1",""
"null","","html-keyboard-response","161","169866","0.0-161.0","3FDJT1UU75UCMOAGZEKCP70BX2OK5B","A11JZFATJVBFN0","32XN26MTXZ5MP383W6LZYTLBY7P0LI","","","<img src=""img/flower6.png"" style=""width:200px; border:14px solid green;"">","null","","","","","","","","",""
"90","","image-keyboard-response","162","169968","0.0-162.0","3FDJT1UU75UCMOAGZEKCP70BX2OK5B","A11JZFATJVBFN0","32XN26MTXZ5MP383W6LZYTLBY7P0LI","","","img/flower6.png","76","95","3","0","2","1","1,0.333,0.333,0.333,1,0.333,0.333,0.333,1","1,0.333,0.333,0.333,1,0.333,0.333,0.333,1","1",""
"null","","html-keyboard-response","163","170278","0.0-163.0","3FDJT1UU75UCMOAGZEKCP70BX2OK5B","A11JZFATJVBFN0","32XN26MTXZ5MP383W6LZYTLBY7P0LI","","","<img src=""img/flower6.png"" style=""width:200px;border:14px solid red;"">","null","","","","","","","","",""
"129","","image-keyboard-response","164","170412","0.0-164.0","3FDJT1UU75UCMOAGZEKCP70BX2OK5B","A11JZFATJVBFN0","32XN26MTXZ5MP383W6LZYTLBY7P0LI","","","img/flower5.png","76","133","3","0","1","1","1,0.333,0.333,0.333,1,0.333,0.333,0.333,1","1,0.333,0.333,0.333,1,0.333,0.333,0.333,1","1",""
"null","","html-keyboard-response","165","170745","0.0-165.0","3FDJT1UU75UCMOAGZEKCP70BX2OK5B","A11JZFATJVBFN0","32XN26MTXZ5MP383W6LZYTLBY7P0LI","","","<img src=""img/flower5.png"" style=""width:200px;border:14px solid red;"">","null","","","","","","","","",""
"163","","image-keyboard-response","166","170920","0.0-166.0","3FDJT1UU75UCMOAGZEKCP70BX2OK5B","A11JZFATJVBFN0","32XN26MTXZ5MP383W6LZYTLBY7P0LI","","","img/flower4.png","76","174","3","1","3","1","1,0.333,0.333,0.333,1,0.333,0.333,0.333,1","1,0.333,0.333,0.333,1,0.333,0.333,0.333,1","1",""
"null","","html-keyboard-response","167","171225","0.0-167.0","3FDJT1UU75UCMOAGZEKCP70BX2OK5B","A11JZFATJVBFN0","32XN26MTXZ5MP383W6LZYTLBY7P0LI","","","<img src=""img/flower4.png"" style=""width:200px; border:14px solid green;"">","null","","","","","","","","",""
"105","","image-keyboard-response","168","171346","0.0-168.0","3FDJT1UU75UCMOAGZEKCP70BX2OK5B","A11JZFATJVBFN0","32XN26MTXZ5MP383W6LZYTLBY7P0LI","","","img/flower4.png","75","119","2","0","3","1","1,0.333,0.333,0.333,1,0.333,0.333,0.333,1","1,0.333,0.333,0.333,1,0.333,0.333,0.333,1","1",""
"null","","html-keyboard-response","169","171666","0.0-169.0","3FDJT1UU75UCMOAGZEKCP70BX2OK5B","A11JZFATJVBFN0","32XN26MTXZ5MP383W6LZYTLBY7P0LI","","","<img src=""img/flower4.png"" style=""width:200px;border:14px solid red;"">","null","","","","","","","","",""
"52","","image-keyboard-response","170","171721","0.0-170.0","3FDJT1UU75UCMOAGZEKCP70BX2OK5B","A11JZFATJVBFN0","32XN26MTXZ5MP383W6LZYTLBY7P0LI","","","img/flower6.png","76","53","3","0","2","1","1,0.333,0.333,0.333,1,0.333,0.333,0.333,1","1,0.333,0.333,0.333,1,0.333,0.333,0.333,1","1",""
"null","","html-keyboard-response","171","172035","0.0-171.0","3FDJT1UU75UCMOAGZEKCP70BX2OK5B","A11JZFATJVBFN0","32XN26MTXZ5MP383W6LZYTLBY7P0LI","","","<img src=""img/flower6.png"" style=""width:200px;border:14px solid red;"">","null","","","","","","","","",""
"49","","image-keyboard-response","172","172089","0.0-172.0","3FDJT1UU75UCMOAGZEKCP70BX2OK5B","A11JZFATJVBFN0","32XN26MTXZ5MP383W6LZYTLBY7P0LI","","","img/flower4.png","75","52","2","0","3","1","1,0.333,0.333,0.333,1,0.333,0.333,0.333,1","1,0.333,0.333,0.333,1,0.333,0.333,0.333,1","1",""
"null","","html-keyboard-response","173","172400","0.0-173.0","3FDJT1UU75UCMOAGZEKCP70BX2OK5B","A11JZFATJVBFN0","32XN26MTXZ5MP383W6LZYTLBY7P0LI","","","<img src=""img/flower4.png"" style=""width:200px;border:14px solid red;"">","null","","","","","","","","",""
"20","","image-keyboard-response","174","172422","0.0-174.0","3FDJT1UU75UCMOAGZEKCP70BX2OK5B","A11JZFATJVBFN0","32XN26MTXZ5MP383W6LZYTLBY7P0LI","","","img/flower6.png","76","21","3","0","2","1","1,0.333,0.333,0.333,1,0.333,0.333,0.333,1","1,0.333,0.333,0.333,1,0.333,0.333,0.333,1","1",""
"null","","html-keyboard-response","175","172736","0.0-175.0","3FDJT1UU75UCMOAGZEKCP70BX2OK5B","A11JZFATJVBFN0","32XN26MTXZ5MP383W6LZYTLBY7P0LI","","","<img src=""img/flower6.png"" style=""width:200px;border:14px solid red;"">","null","","","","","","","","",""
"81","","image-keyboard-response","176","172823","0.0-176.0","3FDJT1UU75UCMOAGZEKCP70BX2OK5B","A11JZFATJVBFN0","32XN26MTXZ5MP383W6LZYTLBY7P0LI","","","img/flower6.png","76","85","3","0","2","1","1,0.333,0.333,0.333,1,0.333,0.333,0.333,1","1,0.333,0.333,0.333,1,0.333,0.333,0.333,1","1",""
"null","","html-keyboard-response","177","173136","0.0-177.0","3FDJT1UU75UCMOAGZEKCP70BX2OK5B","A11JZFATJVBFN0","32XN26MTXZ5MP383W6LZYTLBY7P0LI","","","<img src=""img/flower6.png"" style=""width:200px;border:14px solid red;"">","null","","","","","","","","",""
"137","","image-keyboard-response","178","173274","0.0-178.0","3FDJT1UU75UCMOAGZEKCP70BX2OK5B","A11JZFATJVBFN0","32XN26MTXZ5MP383W6LZYTLBY7P0LI","","","img/flower6.png","76","139","3","0","2","1","1,0.333,0.333,0.333,1,0.333,0.333,0.333,1","1,0.333,0.333,0.333,1,0.333,0.333,0.333,1","1",""
"null","","html-keyboard-response","179","173583","0.0-179.0","3FDJT1UU75UCMOAGZEKCP70BX2OK5B","A11JZFATJVBFN0","32XN26MTXZ5MP383W6LZYTLBY7P0LI","","","<img src=""img/flower6.png"" style=""width:200px;border:14px solid red;"">","null","","","","","","","","",""
"185","","image-keyboard-response","180","173771","0.0-180.0","3FDJT1UU75UCMOAGZEKCP70BX2OK5B","A11JZFATJVBFN0","32XN26MTXZ5MP383W6LZYTLBY7P0LI","","","img/flower6.png","74","188","1","1","2","1","1,0.333,0.333,0.333,1,0.333,0.333,0.333,1","1,0.333,0.333,0.333,1,0.333,0.333,0.333,1","1",""
"null","","html-keyboard-response","181","174089","0.0-181.0","3FDJT1UU75UCMOAGZEKCP70BX2OK5B","A11JZFATJVBFN0","32XN26MTXZ5MP383W6LZYTLBY7P0LI","","","<img src=""img/flower6.png"" style=""width:200px; border:14px solid green;"">","null","","","","","","","","",""
"27","","image-keyboard-response","182","174119","0.0-182.0","3FDJT1UU75UCMOAGZEKCP70BX2OK5B","A11JZFATJVBFN0","32XN26MTXZ5MP383W6LZYTLBY7P0LI","","","img/flower5.png","75","28","2","0","1","1","1,0.333,0.333,0.333,1,0.333,0.333,0.333,1","1,0.333,0.333,0.333,1,0.333,0.333,0.333,1","1",""
"null","","html-keyboard-response","183","174439","0.0-183.0","3FDJT1UU75UCMOAGZEKCP70BX2OK5B","A11JZFATJVBFN0","32XN26MTXZ5MP383W6LZYTLBY7P0LI","","","<img src=""img/flower5.png"" style=""width:200px;border:14px solid red;"">","null","","","","","","","","",""
"224","","image-keyboard-response","184","174669","0.0-184.0","3FDJT1UU75UCMOAGZEKCP70BX2OK5B","A11JZFATJVBFN0","32XN26MTXZ5MP383W6LZYTLBY7P0LI","","","img/flower5.png","75","230","2","0","1","1","1,0.333,0.333,0.333,1,0.333,0.333,0.333,1","1,0.333,0.333,0.333,1,0.333,0.333,0.333,1","1",""
"null","","html-keyboard-response","185","174993","0.0-185.0","3FDJT1UU75UCMOAGZEKCP70BX2OK5B","A11JZFATJVBFN0","32XN26MTXZ5MP383W6LZYTLBY7P0LI","","","<img src=""img/flower5.png"" style=""width:200px;border:14px solid red;"">","null","","","","","","","","",""
"150","","image-keyboard-response","186","175153","0.0-186.0","3FDJT1UU75UCMOAGZEKCP70BX2OK5B","A11JZFATJVBFN0","32XN26MTXZ5MP383W6LZYTLBY7P0LI","","","img/flower4.png","75","159","2","1","3","1","1,0.333,0.333,0.333,1,0.333,0.333,0.333,1","1,0.333,0.333,0.333,1,0.333,0.333,0.333,1","1",""
"null","","html-keyboard-response","187","175456","0.0-187.0","3FDJT1UU75UCMOAGZEKCP70BX2OK5B","A11JZFATJVBFN0","32XN26MTXZ5MP383W6LZYTLBY7P0LI","","","<img src=""img/flower4.png"" style=""width:200px; border:14px solid green;"">","null","","","","","","","","",""
"99","","image-keyboard-response","188","175558","0.0-188.0","3FDJT1UU75UCMOAGZEKCP70BX2OK5B","A11JZFATJVBFN0","32XN26MTXZ5MP383W6LZYTLBY7P0LI","","","img/flower6.png","76","101","3","1","2","1","1,0.333,0.333,0.333,1,0.333,0.333,0.333,1","1,0.333,0.333,0.333,1,0.333,0.333,0.333,1","1",""
"null","","html-keyboard-response","189","175867","0.0-189.0","3FDJT1UU75UCMOAGZEKCP70BX2OK5B","A11JZFATJVBFN0","32XN26MTXZ5MP383W6LZYTLBY7P0LI","","","<img src=""img/flower6.png"" style=""width:200px; border:14px solid green;"">","null","","","","","","","","",""
"119","","image-keyboard-response","190","175989","0.0-190.0","3FDJT1UU75UCMOAGZEKCP70BX2OK5B","A11JZFATJVBFN0","32XN26MTXZ5MP383W6LZYTLBY7P0LI","","","img/flower6.png","75","122","2","1","2","1","1,0.333,0.333,0.333,1,0.333,0.333,0.333,1","1,0.333,0.333,0.333,1,0.333,0.333,0.333,1","1",""
"null","","html-keyboard-response","191","176302","0.0-191.0","3FDJT1UU75UCMOAGZEKCP70BX2OK5B","A11JZFATJVBFN0","32XN26MTXZ5MP383W6LZYTLBY7P0LI","","","<img src=""img/flower6.png"" style=""width:200px; border:14px solid green;"">","null","","","","","","","","",""
"48","","image-keyboard-response","192","176351","0.0-192.0","3FDJT1UU75UCMOAGZEKCP70BX2OK5B","A11JZFATJVBFN0","32XN26MTXZ5MP383W6LZYTLBY7P0LI","","","img/flower4.png","76","49","3","1","3","1","1,0.333,0.333,0.333,1,0.333,0.333,0.333,1","1,0.333,0.333,0.333,1,0.333,0.333,0.333,1","1",""
"null","","html-keyboard-response","193","176690","0.0-193.0","3FDJT1UU75UCMOAGZEKCP70BX2OK5B","A11JZFATJVBFN0","32XN26MTXZ5MP383W6LZYTLBY7P0LI","","","<img src=""img/flower4.png"" style=""width:200px; border:14px solid green;"">","null","","","","","","","","",""
"83","","image-keyboard-response","194","176791","0.0-194.0","3FDJT1UU75UCMOAGZEKCP70BX2OK5B","A11JZFATJVBFN0","32XN26MTXZ5MP383W6LZYTLBY7P0LI","","","img/flower4.png","75","93","2","0","3","1","1,0.333,0.333,0.333,1,0.333,0.333,0.333,1","1,0.333,0.333,0.333,1,0.333,0.333,0.333,1","1",""
"null","","html-keyboard-response","195","177096","0.0-195.0","3FDJT1UU75UCMOAGZEKCP70BX2OK5B","A11JZFATJVBFN0","32XN26MTXZ5MP383W6LZYTLBY7P0LI","","","<img src=""img/flower4.png"" style=""width:200px;border:14px solid red;"">","null","","","","","","","","",""
"147","","image-keyboard-response","196","177246","0.0-196.0","3FDJT1UU75UCMOAGZEKCP70BX2OK5B","A11JZFATJVBFN0","32XN26MTXZ5MP383W6LZYTLBY7P0LI","","","img/flower5.png","75","149","2","0","1","1","1,0.333,0.333,0.333,1,0.333,0.333,0.333,1","1,0.333,0.333,0.333,1,0.333,0.333,0.333,1","1",""
"null","","html-keyboard-response","197","177559","0.0-197.0","3FDJT1UU75UCMOAGZEKCP70BX2OK5B","A11JZFATJVBFN0","32XN26MTXZ5MP383W6LZYTLBY7P0LI","","","<img src=""img/flower5.png"" style=""width:200px;border:14px solid red;"">","null","","","","","","","","",""
"8","","image-keyboard-response","198","177570","0.0-198.0","3FDJT1UU75UCMOAGZEKCP70BX2OK5B","A11JZFATJVBFN0","32XN26MTXZ5MP383W6LZYTLBY7P0LI","","","img/flower6.png","75","10","2","1","2","1","1,0.333,0.333,0.333,1,0.333,0.333,0.333,1","1,0.333,0.333,0.333,1,0.333,0.333,0.333,1","1",""
"null","","html-keyboard-response","199","177879","0.0-199.0","3FDJT1UU75UCMOAGZEKCP70BX2OK5B","A11JZFATJVBFN0","32XN26MTXZ5MP383W6LZYTLBY7P0LI","","","<img src=""img/flower6.png"" style=""width:200px; border:14px solid green;"">","null","","","","","","","","",""
"153","","image-keyboard-response","200","178048","0.0-200.0","3FDJT1UU75UCMOAGZEKCP70BX2OK5B","A11JZFATJVBFN0","32XN26MTXZ5MP383W6LZYTLBY7P0LI","","","img/flower4.png","75","167","2","1","3","1","1,0.333,0.333,0.333,1,0.333,0.333,0.333,1","1,0.333,0.333,0.333,1,0.333,0.333,0.333,1","1",""
"null","","html-keyboard-response","201","178370","0.0-201.0","3FDJT1UU75UCMOAGZEKCP70BX2OK5B","A11JZFATJVBFN0","32XN26MTXZ5MP383W6LZYTLBY7P0LI","","","<img src=""img/flower4.png"" style=""width:200px; border:14px solid green;"">","null","","","","","","","","",""
"196","","image-keyboard-response","202","178572","0.0-202.0","3FDJT1UU75UCMOAGZEKCP70BX2OK5B","A11JZFATJVBFN0","32XN26MTXZ5MP383W6LZYTLBY7P0LI","","","img/flower6.png","75","202","2","1","2","1","1,0.333,0.333,0.333,1,0.333,0.333,0.333,1","1,0.333,0.333,0.333,1,0.333,0.333,0.333,1","1",""
"null","","html-keyboard-response","203","178908","0.0-203.0","3FDJT1UU75UCMOAGZEKCP70BX2OK5B","A11JZFATJVBFN0","32XN26MTXZ5MP383W6LZYTLBY7P0LI","","","<img src=""img/flower6.png"" style=""width:200px; border:14px solid green;"">","null","","","","","","","","",""
"6","","image-keyboard-response","204","178922","0.0-204.0","3FDJT1UU75UCMOAGZEKCP70BX2OK5B","A11JZFATJVBFN0","32XN26MTXZ5MP383W6LZYTLBY7P0LI","","","img/flower4.png","74","8","1","1","3","1","1,0.333,0.333,0.333,1,0.333,0.333,0.333,1","1,0.333,0.333,0.333,1,0.333,0.333,0.333,1","1",""
"null","","html-keyboard-response","205","179238","0.0-205.0","3FDJT1UU75UCMOAGZEKCP70BX2OK5B","A11JZFATJVBFN0","32XN26MTXZ5MP383W6LZYTLBY7P0LI","","","<img src=""img/flower4.png"" style=""width:200px; border:14px solid green;"">","null","","","","","","","","",""
"83","","image-keyboard-response","206","179324","0.0-206.0","3FDJT1UU75UCMOAGZEKCP70BX2OK5B","A11JZFATJVBFN0","32XN26MTXZ5MP383W6LZYTLBY7P0LI","","","img/flower5.png","74","85","1","1","1","1","1,0.333,0.333,0.333,1,0.333,0.333,0.333,1","1,0.333,0.333,0.333,1,0.333,0.333,0.333,1","1",""
"null","","html-keyboard-response","207","179639","0.0-207.0","3FDJT1UU75UCMOAGZEKCP70BX2OK5B","A11JZFATJVBFN0","32XN26MTXZ5MP383W6LZYTLBY7P0LI","","","<img src=""img/flower5.png"" style=""width:200px; border:14px solid green;"">","null","","","","","","","","",""
"84","","image-keyboard-response","208","179729","0.0-208.0","3FDJT1UU75UCMOAGZEKCP70BX2OK5B","A11JZFATJVBFN0","32XN26MTXZ5MP383W6LZYTLBY7P0LI","","","img/flower4.png","74","89","1","0","3","1","1,0.333,0.333,0.333,1,0.333,0.333,0.333,1","1,0.333,0.333,0.333,1,0.333,0.333,0.333,1","1",""
"null","","html-keyboard-response","209","180042","0.0-209.0","3FDJT1UU75UCMOAGZEKCP70BX2OK5B","A11JZFATJVBFN0","32XN26MTXZ5MP383W6LZYTLBY7P0LI","","","<img src=""img/flower4.png"" style=""width:200px;border:14px solid red;"">","null","","","","","","","","",""
"145","","image-keyboard-response","210","180193","0.0-210.0","3FDJT1UU75UCMOAGZEKCP70BX2OK5B","A11JZFATJVBFN0","32XN26MTXZ5MP383W6LZYTLBY7P0LI","","","img/flower4.png","74","148","1","0","3","1","1,0.333,0.333,0.333,1,0.333,0.333,0.333,1","1,0.333,0.333,0.333,1,0.333,0.333,0.333,1","1",""
"null","","html-keyboard-response","211","180538","0.0-211.0","3FDJT1UU75UCMOAGZEKCP70BX2OK5B","A11JZFATJVBFN0","32XN26MTXZ5MP383W6LZYTLBY7P0LI","","","<img src=""img/flower4.png"" style=""width:200px;border:14px solid red;"">","null","","","","","","","","",""
"70","","image-keyboard-response","212","180611","0.0-212.0","3FDJT1UU75UCMOAGZEKCP70BX2OK5B","A11JZFATJVBFN0","32XN26MTXZ5MP383W6LZYTLBY7P0LI","","","img/flower6.png","76","72","3","0","2","1","1,0.333,0.333,0.333,1,0.333,0.333,0.333,1","1,0.333,0.333,0.333,1,0.333,0.333,0.333,1","1",""
"null","","html-keyboard-response","213","180929","0.0-213.0","3FDJT1UU75UCMOAGZEKCP70BX2OK5B","A11JZFATJVBFN0","32XN26MTXZ5MP383W6LZYTLBY7P0LI","","","<img src=""img/flower6.png"" style=""width:200px;border:14px solid red;"">","null","","","","","","","","",""
"104","","image-keyboard-response","214","181039","0.0-214.0","3FDJT1UU75UCMOAGZEKCP70BX2OK5B","A11JZFATJVBFN0","32XN26MTXZ5MP383W6LZYTLBY7P0LI","","","img/flower4.png","75","109","2","0","3","1","1,0.333,0.333,0.333,1,0.333,0.333,0.333,1","1,0.333,0.333,0.333,1,0.333,0.333,0.333,1","1",""
"null","","html-keyboard-response","215","181355","0.0-215.0","3FDJT1UU75UCMOAGZEKCP70BX2OK5B","A11JZFATJVBFN0","32XN26MTXZ5MP383W6LZYTLBY7P0LI","","","<img src=""img/flower4.png"" style=""width:200px;border:14px solid red;"">","null","","","","","","","","",""
"14","","image-keyboard-response","216","181371","0.0-216.0","3FDJT1UU75UCMOAGZEKCP70BX2OK5B","A11JZFATJVBFN0","32XN26MTXZ5MP383W6LZYTLBY7P0LI","","","img/flower6.png","76","16","3","0","2","1","1,0.333,0.333,0.333,1,0.333,0.333,0.333,1","1,0.333,0.333,0.333,1,0.333,0.333,0.333,1","1",""
"null","","html-keyboard-response","217","181683","0.0-217.0","3FDJT1UU75UCMOAGZEKCP70BX2OK5B","A11JZFATJVBFN0","32XN26MTXZ5MP383W6LZYTLBY7P0LI","","","<img src=""img/flower6.png"" style=""width:200px;border:14px solid red;"">","null","","","","","","","","",""
"25","","image-keyboard-response","218","181710","0.0-218.0","3FDJT1UU75UCMOAGZEKCP70BX2OK5B","A11JZFATJVBFN0","32XN26MTXZ5MP383W6LZYTLBY7P0LI","","","img/flower5.png","75","26","2","0","1","1","1,0.333,0.333,0.333,1,0.333,0.333,0.333,1","1,0.333,0.333,0.333,1,0.333,0.333,0.333,1","1",""
"null","","html-keyboard-response","219","182020","0.0-219.0","3FDJT1UU75UCMOAGZEKCP70BX2OK5B","A11JZFATJVBFN0","32XN26MTXZ5MP383W6LZYTLBY7P0LI","","","<img src=""img/flower5.png"" style=""width:200px;border:14px solid red;"">","null","","","","","","","","",""
"84","","image-keyboard-response","220","182110","0.0-220.0","3FDJT1UU75UCMOAGZEKCP70BX2OK5B","A11JZFATJVBFN0","32XN26MTXZ5MP383W6LZYTLBY7P0LI","","","img/flower4.png","75","87","2","0","3","1","1,0.333,0.333,0.333,1,0.333,0.333,0.333,1","1,0.333,0.333,0.333,1,0.333,0.333,0.333,1","1",""
"null","","html-keyboard-response","221","182414","0.0-221.0","3FDJT1UU75UCMOAGZEKCP70BX2OK5B","A11JZFATJVBFN0","32XN26MTXZ5MP383W6LZYTLBY7P0LI","","","<img src=""img/flower4.png"" style=""width:200px;border:14px solid red;"">","null","","","","","","","","",""
"71","","image-keyboard-response","222","182487","0.0-222.0","3FDJT1UU75UCMOAGZEKCP70BX2OK5B","A11JZFATJVBFN0","32XN26MTXZ5MP383W6LZYTLBY7P0LI","","","img/flower5.png","75","72","2","0","1","1","1,0.333,0.333,0.333,1,0.333,0.333,0.333,1","1,0.333,0.333,0.333,1,0.333,0.333,0.333,1","1",""
"null","","html-keyboard-response","223","182860","0.0-223.0","3FDJT1UU75UCMOAGZEKCP70BX2OK5B","A11JZFATJVBFN0","32XN26MTXZ5MP383W6LZYTLBY7P0LI","","","<img src=""img/flower5.png"" style=""width:200px;border:14px solid red;"">","null","","","","","","","","",""
"7","","image-keyboard-response","224","182869","0.0-224.0","3FDJT1UU75UCMOAGZEKCP70BX2OK5B","A11JZFATJVBFN0","32XN26MTXZ5MP383W6LZYTLBY7P0LI","","","img/flower5.png","75","8","2","0","1","1","1,0.333,0.333,0.333,1,0.333,0.333,0.333,1","1,0.333,0.333,0.333,1,0.333,0.333,0.333,1","1",""
"null","","html-keyboard-response","225","183182","0.0-225.0","3FDJT1UU75UCMOAGZEKCP70BX2OK5B","A11JZFATJVBFN0","32XN26MTXZ5MP383W6LZYTLBY7P0LI","","","<img src=""img/flower5.png"" style=""width:200px;border:14px solid red;"">","null","","","","","","","","",""
"7816","","image-keyboard-response","226","191017","0.0-226.0","3FDJT1UU75UCMOAGZEKCP70BX2OK5B","A11JZFATJVBFN0","32XN26MTXZ5MP383W6LZYTLBY7P0LI","","","img/flower5.png","76","7835","3","0","1","1","1,0.333,0.333,0.333,1,0.333,0.333,0.333,1","1,0.333,0.333,0.333,1,0.333,0.333,0.333,1","1",""
"null","","html-keyboard-response","227","191351","0.0-227.0","3FDJT1UU75UCMOAGZEKCP70BX2OK5B","A11JZFATJVBFN0","32XN26MTXZ5MP383W6LZYTLBY7P0LI","","","<img src=""img/flower5.png"" style=""width:200px;border:14px solid red;"">","null","","","","","","","","",""
"134","","image-keyboard-response","228","191505","0.0-228.0","3FDJT1UU75UCMOAGZEKCP70BX2OK5B","A11JZFATJVBFN0","32XN26MTXZ5MP383W6LZYTLBY7P0LI","","","img/flower5.png","75","154","2","0","1","1","1,0.333,0.333,0.333,1,0.333,0.333,0.333,1","1,0.333,0.333,0.333,1,0.333,0.333,0.333,1","1",""
"null","","html-keyboard-response","229","191826","0.0-229.0","3FDJT1UU75UCMOAGZEKCP70BX2OK5B","A11JZFATJVBFN0","32XN26MTXZ5MP383W6LZYTLBY7P0LI","","","<img src=""img/flower5.png"" style=""width:200px;border:14px solid red;"">","null","","","","","","","","",""
"84","","image-keyboard-response","230","191912","0.0-230.0","3FDJT1UU75UCMOAGZEKCP70BX2OK5B","A11JZFATJVBFN0","32XN26MTXZ5MP383W6LZYTLBY7P0LI","","","img/flower5.png","75","86","2","0","1","1","1,0.333,0.333,0.333,1,0.333,0.333,0.333,1","1,0.333,0.333,0.333,1,0.333,0.333,0.333,1","1",""
"null","","html-keyboard-response","231","192232","0.0-231.0","3FDJT1UU75UCMOAGZEKCP70BX2OK5B","A11JZFATJVBFN0","32XN26MTXZ5MP383W6LZYTLBY7P0LI","","","<img src=""img/flower5.png"" style=""width:200px;border:14px solid red;"">","null","","","","","","","","",""
"53","","image-keyboard-response","232","192288","0.0-232.0","3FDJT1UU75UCMOAGZEKCP70BX2OK5B","A11JZFATJVBFN0","32XN26MTXZ5MP383W6LZYTLBY7P0LI","","","img/flower4.png","75","55","2","0","3","1","1,0.333,0.333,0.333,1,0.333,0.333,0.333,1","1,0.333,0.333,0.333,1,0.333,0.333,0.333,1","1",""
"null","","html-keyboard-response","233","192694","0.0-233.0","3FDJT1UU75UCMOAGZEKCP70BX2OK5B","A11JZFATJVBFN0","32XN26MTXZ5MP383W6LZYTLBY7P0LI","","","<img src=""img/flower4.png"" style=""width:200px;border:14px solid red;"">","null","","","","","","","","",""
"187","","image-keyboard-response","234","192883","0.0-234.0","3FDJT1UU75UCMOAGZEKCP70BX2OK5B","A11JZFATJVBFN0","32XN26MTXZ5MP383W6LZYTLBY7P0LI","","","img/flower5.png","74","188","1","1","1","1","1,0.333,0.333,0.333,1,0.333,0.333,0.333,1","1,0.333,0.333,0.333,1,0.333,0.333,0.333,1","1",""
"null","","html-keyboard-response","235","193206","0.0-235.0","3FDJT1UU75UCMOAGZEKCP70BX2OK5B","A11JZFATJVBFN0","32XN26MTXZ5MP383W6LZYTLBY7P0LI","","","<img src=""img/flower5.png"" style=""width:200px; border:14px solid green;"">","null","","","","","","","","",""
"302","","image-keyboard-response","236","193512","0.0-236.0","3FDJT1UU75UCMOAGZEKCP70BX2OK5B","A11JZFATJVBFN0","32XN26MTXZ5MP383W6LZYTLBY7P0LI","","","img/flower5.png","74","305","1","1","1","1","1,0.333,0.333,0.333,1,0.333,0.333,0.333,1","1,0.333,0.333,0.333,1,0.333,0.333,0.333,1","1",""
"null","","html-keyboard-response","237","193832","0.0-237.0","3FDJT1UU75UCMOAGZEKCP70BX2OK5B","A11JZFATJVBFN0","32XN26MTXZ5MP383W6LZYTLBY7P0LI","","","<img src=""img/flower5.png"" style=""width:200px; border:14px solid green;"">","null","","","","","","","","",""
"6","","image-keyboard-response","238","193841","0.0-238.0","3FDJT1UU75UCMOAGZEKCP70BX2OK5B","A11JZFATJVBFN0","32XN26MTXZ5MP383W6LZYTLBY7P0LI","","","img/flower4.png","75","8","2","1","3","1","1,0.333,0.333,0.333,1,0.333,0.333,0.333,1","1,0.333,0.333,0.333,1,0.333,0.333,0.333,1","1",""
"null","","html-keyboard-response","239","194151","0.0-239.0","3FDJT1UU75UCMOAGZEKCP70BX2OK5B","A11JZFATJVBFN0","32XN26MTXZ5MP383W6LZYTLBY7P0LI","","","<img src=""img/flower4.png"" style=""width:200px; border:14px solid green;"">","null","","","","","","","","",""
"6","","image-keyboard-response","240","194159","0.0-240.0","3FDJT1UU75UCMOAGZEKCP70BX2OK5B","A11JZFATJVBFN0","32XN26MTXZ5MP383W6LZYTLBY7P0LI","","","img/flower6.png","75","7","2","1","2","1","1,0.333,0.333,0.333,1,0.333,0.333,0.333,1","1,0.333,0.333,0.333,1,0.333,0.333,0.333,1","1",""
"null","","html-keyboard-response","241","194476","0.0-241.0","3FDJT1UU75UCMOAGZEKCP70BX2OK5B","A11JZFATJVBFN0","32XN26MTXZ5MP383W6LZYTLBY7P0LI","","","<img src=""img/flower6.png"" style=""width:200px; border:14px solid green;"">","null","","","","","","","","",""
"16","","image-keyboard-response","242","194493","0.0-242.0","3FDJT1UU75UCMOAGZEKCP70BX2OK5B","A11JZFATJVBFN0","32XN26MTXZ5MP383W6LZYTLBY7P0LI","","","img/flower4.png","75","17","2","0","3","1","1,0.333,0.333,0.333,1,0.333,0.333,0.333,1","1,0.333,0.333,0.333,1,0.333,0.333,0.333,1","1",""
"null","","html-keyboard-response","243","194804","0.0-243.0","3FDJT1UU75UCMOAGZEKCP70BX2OK5B","A11JZFATJVBFN0","32XN26MTXZ5MP383W6LZYTLBY7P0LI","","","<img src=""img/flower4.png"" style=""width:200px;border:14px solid red;"">","null","","","","","","","","",""
"187","","image-keyboard-response","244","195005","0.0-244.0","3FDJT1UU75UCMOAGZEKCP70BX2OK5B","A11JZFATJVBFN0","32XN26MTXZ5MP383W6LZYTLBY7P0LI","","","img/flower5.png","75","200","2","1","1","1","1,0.333,0.333,0.333,1,0.333,0.333,0.333,1","1,0.333,0.333,0.333,1,0.333,0.333,0.333,1","1",""
"null","","html-keyboard-response","245","195323","0.0-245.0","3FDJT1UU75UCMOAGZEKCP70BX2OK5B","A11JZFATJVBFN0","32XN26MTXZ5MP383W6LZYTLBY7P0LI","","","<img src=""img/flower5.png"" style=""width:200px; border:14px solid green;"">","null","","","","","","","","",""
"287","","image-keyboard-response","246","195624","0.0-246.0","3FDJT1UU75UCMOAGZEKCP70BX2OK5B","A11JZFATJVBFN0","32XN26MTXZ5MP383W6LZYTLBY7P0LI","","","img/flower6.png","75","299","2","1","2","1","1,0.333,0.333,0.333,1,0.333,0.333,0.333,1","1,0.333,0.333,0.333,1,0.333,0.333,0.333,1","1",""
"null","","html-keyboard-response","247","195935","0.0-247.0","3FDJT1UU75UCMOAGZEKCP70BX2OK5B","A11JZFATJVBFN0","32XN26MTXZ5MP383W6LZYTLBY7P0LI","","","<img src=""img/flower6.png"" style=""width:200px; border:14px solid green;"">","null","","","","","","","","",""
"146","","image-keyboard-response","248","196088","0.0-248.0","3FDJT1UU75UCMOAGZEKCP70BX2OK5B","A11JZFATJVBFN0","32XN26MTXZ5MP383W6LZYTLBY7P0LI","","","img/flower5.png","74","152","1","1","1","1","1,0.333,0.333,0.333,1,0.333,0.333,0.333,1","1,0.333,0.333,0.333,1,0.333,0.333,0.333,1","1",""
"null","","html-keyboard-response","249","196400","0.0-249.0","3FDJT1UU75UCMOAGZEKCP70BX2OK5B","A11JZFATJVBFN0","32XN26MTXZ5MP383W6LZYTLBY7P0LI","","","<img src=""img/flower5.png"" style=""width:200px; border:14px solid green;"">","null","","","","","","","","",""
"24","","image-keyboard-response","250","196426","0.0-250.0","3FDJT1UU75UCMOAGZEKCP70BX2OK5B","A11JZFATJVBFN0","32XN26MTXZ5MP383W6LZYTLBY7P0LI","","","img/flower6.png","75","25","2","1","2","1","1,0.333,0.333,0.333,1,0.333,0.333,0.333,1","1,0.333,0.333,0.333,1,0.333,0.333,0.333,1","1",""
"null","","html-keyboard-response","251","196741","0.0-251.0","3FDJT1UU75UCMOAGZEKCP70BX2OK5B","A11JZFATJVBFN0","32XN26MTXZ5MP383W6LZYTLBY7P0LI","","","<img src=""img/flower6.png"" style=""width:200px; border:14px solid green;"">","null","","","","","","","","",""
"170","","image-keyboard-response","252","196926","0.0-252.0","3FDJT1UU75UCMOAGZEKCP70BX2OK5B","A11JZFATJVBFN0","32XN26MTXZ5MP383W6LZYTLBY7P0LI","","","img/flower5.png","75","184","2","0","1","1","1,0.333,0.333,0.333,1,0.333,0.333,0.333,1","1,0.333,0.333,0.333,1,0.333,0.333,0.333,1","1",""
"null","","html-keyboard-response","253","197237","0.0-253.0","3FDJT1UU75UCMOAGZEKCP70BX2OK5B","A11JZFATJVBFN0","32XN26MTXZ5MP383W6LZYTLBY7P0LI","","","<img src=""img/flower5.png"" style=""width:200px;border:14px solid red;"">","null","","","","","","","","",""
"281","","image-keyboard-response","254","197521","0.0-254.0","3FDJT1UU75UCMOAGZEKCP70BX2OK5B","A11JZFATJVBFN0","32XN26MTXZ5MP383W6LZYTLBY7P0LI","","","img/flower5.png","75","284","2","1","1","1","1,0.333,0.333,0.333,1,0.333,0.333,0.333,1","1,0.333,0.333,0.333,1,0.333,0.333,0.333,1","1",""
"null","","html-keyboard-response","255","197829","0.0-255.0","3FDJT1UU75UCMOAGZEKCP70BX2OK5B","A11JZFATJVBFN0","32XN26MTXZ5MP383W6LZYTLBY7P0LI","","","<img src=""img/flower5.png"" style=""width:200px; border:14px solid green;"">","null","","","","","","","","",""
"237","","image-keyboard-response","256","198080","0.0-256.0","3FDJT1UU75UCMOAGZEKCP70BX2OK5B","A11JZFATJVBFN0","32XN26MTXZ5MP383W6LZYTLBY7P0LI","","","img/flower6.png","74","250","1","0","2","1","1,0.333,0.333,0.333,1,0.333,0.333,0.333,1","1,0.333,0.333,0.333,1,0.333,0.333,0.333,1","1",""
"null","","html-keyboard-response","257","198387","0.0-257.0","3FDJT1UU75UCMOAGZEKCP70BX2OK5B","A11JZFATJVBFN0","32XN26MTXZ5MP383W6LZYTLBY7P0LI","","","<img src=""img/flower6.png"" style=""width:200px;border:14px solid red;"">","null","","","","","","","","",""
"112","","image-keyboard-response","258","198512","0.0-258.0","3FDJT1UU75UCMOAGZEKCP70BX2OK5B","A11JZFATJVBFN0","32XN26MTXZ5MP383W6LZYTLBY7P0LI","","","img/flower4.png","74","125","1","1","3","1","1,0.333,0.333,0.333,1,0.333,0.333,0.333,1","1,0.333,0.333,0.333,1,0.333,0.333,0.333,1","1",""
"null","","html-keyboard-response","259","198875","0.0-259.0","3FDJT1UU75UCMOAGZEKCP70BX2OK5B","A11JZFATJVBFN0","32XN26MTXZ5MP383W6LZYTLBY7P0LI","","","<img src=""img/flower4.png"" style=""width:200px; border:14px solid green;"">","null","","","","","","","","",""
"116","","image-keyboard-response","260","199003","0.0-260.0","3FDJT1UU75UCMOAGZEKCP70BX2OK5B","A11JZFATJVBFN0","32XN26MTXZ5MP383W6LZYTLBY7P0LI","","","img/flower6.png","74","127","1","1","2","1","1,0.333,0.333,0.333,1,0.333,0.333,0.333,1","1,0.333,0.333,0.333,1,0.333,0.333,0.333,1","1",""
"null","","html-keyboard-response","261","199316","0.0-261.0","3FDJT1UU75UCMOAGZEKCP70BX2OK5B","A11JZFATJVBFN0","32XN26MTXZ5MP383W6LZYTLBY7P0LI","","","<img src=""img/flower6.png"" style=""width:200px; border:14px solid green;"">","null","","","","","","","","",""
"91","","image-keyboard-response","262","199424","0.0-262.0","3FDJT1UU75UCMOAGZEKCP70BX2OK5B","A11JZFATJVBFN0","32XN26MTXZ5MP383W6LZYTLBY7P0LI","","","img/flower6.png","74","107","1","0","2","1","1,0.333,0.333,0.333,1,0.333,0.333,0.333,1","1,0.333,0.333,0.333,1,0.333,0.333,0.333,1","1",""
"null","","html-keyboard-response","263","199726","0.0-263.0","3FDJT1UU75UCMOAGZEKCP70BX2OK5B","A11JZFATJVBFN0","32XN26MTXZ5MP383W6LZYTLBY7P0LI","","","<img src=""img/flower6.png"" style=""width:200px;border:14px solid red;"">","null","","","","","","","","",""
"154","","image-keyboard-response","264","199887","0.0-264.0","3FDJT1UU75UCMOAGZEKCP70BX2OK5B","A11JZFATJVBFN0","32XN26MTXZ5MP383W6LZYTLBY7P0LI","","","img/flower6.png","75","160","2","1","2","1","1,0.333,0.333,0.333,1,0.333,0.333,0.333,1","1,0.333,0.333,0.333,1,0.333,0.333,0.333,1","1",""
"null","","html-keyboard-response","265","200193","0.0-265.0","3FDJT1UU75UCMOAGZEKCP70BX2OK5B","A11JZFATJVBFN0","32XN26MTXZ5MP383W6LZYTLBY7P0LI","","","<img src=""img/flower6.png"" style=""width:200px; border:14px solid green;"">","null","","","","","","","","",""
"337","","image-keyboard-response","266","200542","0.0-266.0","3FDJT1UU75UCMOAGZEKCP70BX2OK5B","A11JZFATJVBFN0","32XN26MTXZ5MP383W6LZYTLBY7P0LI","","","img/flower4.png","75","346","2","1","3","1","1,0.333,0.333,0.333,1,0.333,0.333,0.333,1","1,0.333,0.333,0.333,1,0.333,0.333,0.333,1","1",""
"null","","html-keyboard-response","267","200882","0.0-267.0","3FDJT1UU75UCMOAGZEKCP70BX2OK5B","A11JZFATJVBFN0","32XN26MTXZ5MP383W6LZYTLBY7P0LI","","","<img src=""img/flower4.png"" style=""width:200px; border:14px solid green;"">","null","","","","","","","","",""
"165","","image-keyboard-response","268","201062","0.0-268.0","3FDJT1UU75UCMOAGZEKCP70BX2OK5B","A11JZFATJVBFN0","32XN26MTXZ5MP383W6LZYTLBY7P0LI","","","img/flower4.png","74","177","1","0","3","1","1,0.333,0.333,0.333,1,0.333,0.333,0.333,1","1,0.333,0.333,0.333,1,0.333,0.333,0.333,1","1",""
"null","","html-keyboard-response","269","201389","0.0-269.0","3FDJT1UU75UCMOAGZEKCP70BX2OK5B","A11JZFATJVBFN0","32XN26MTXZ5MP383W6LZYTLBY7P0LI","","","<img src=""img/flower4.png"" style=""width:200px;border:14px solid red;"">","null","","","","","","","","",""
"38","","image-keyboard-response","270","201430","0.0-270.0","3FDJT1UU75UCMOAGZEKCP70BX2OK5B","A11JZFATJVBFN0","32XN26MTXZ5MP383W6LZYTLBY7P0LI","","","img/flower5.png","75","40","2","0","1","1","1,0.333,0.333,0.333,1,0.333,0.333,0.333,1","1,0.333,0.333,0.333,1,0.333,0.333,0.333,1","1",""
"null","","html-keyboard-response","271","201747","0.0-271.0","3FDJT1UU75UCMOAGZEKCP70BX2OK5B","A11JZFATJVBFN0","32XN26MTXZ5MP383W6LZYTLBY7P0LI","","","<img src=""img/flower5.png"" style=""width:200px;border:14px solid red;"">","null","","","","","","","","",""
"193","","image-keyboard-response","272","201945","0.0-272.0","3FDJT1UU75UCMOAGZEKCP70BX2OK5B","A11JZFATJVBFN0","32XN26MTXZ5MP383W6LZYTLBY7P0LI","","","img/flower4.png","75","197","2","0","3","1","1,0.333,0.333,0.333,1,0.333,0.333,0.333,1","1,0.333,0.333,0.333,1,0.333,0.333,0.333,1","1",""
"null","","html-keyboard-response","273","202264","0.0-273.0","3FDJT1UU75UCMOAGZEKCP70BX2OK5B","A11JZFATJVBFN0","32XN26MTXZ5MP383W6LZYTLBY7P0LI","","","<img src=""img/flower4.png"" style=""width:200px;border:14px solid red;"">","null","","","","","","","","",""
"40","","image-keyboard-response","274","202306","0.0-274.0","3FDJT1UU75UCMOAGZEKCP70BX2OK5B","A11JZFATJVBFN0","32XN26MTXZ5MP383W6LZYTLBY7P0LI","","","img/flower5.png","75","41","2","0","1","1","1,0.333,0.333,0.333,1,0.333,0.333,0.333,1","1,0.333,0.333,0.333,1,0.333,0.333,0.333,1","1",""
"null","","html-keyboard-response","275","202638","0.0-275.0","3FDJT1UU75UCMOAGZEKCP70BX2OK5B","A11JZFATJVBFN0","32XN26MTXZ5MP383W6LZYTLBY7P0LI","","","<img src=""img/flower5.png"" style=""width:200px;border:14px solid red;"">","null","","","","","","","","",""
"46","","image-keyboard-response","276","202685","0.0-276.0","3FDJT1UU75UCMOAGZEKCP70BX2OK5B","A11JZFATJVBFN0","32XN26MTXZ5MP383W6LZYTLBY7P0LI","","","img/flower5.png","76","47","3","0","1","1","1,0.333,0.333,0.333,1,0.333,0.333,0.333,1","1,0.333,0.333,0.333,1,0.333,0.333,0.333,1","1",""
"null","","html-keyboard-response","277","202998","0.0-277.0","3FDJT1UU75UCMOAGZEKCP70BX2OK5B","A11JZFATJVBFN0","32XN26MTXZ5MP383W6LZYTLBY7P0LI","","","<img src=""img/flower5.png"" style=""width:200px;border:14px solid red;"">","null","","","","","","","","",""
"208","","image-keyboard-response","278","203222","0.0-278.0","3FDJT1UU75UCMOAGZEKCP70BX2OK5B","A11JZFATJVBFN0","32XN26MTXZ5MP383W6LZYTLBY7P0LI","","","img/flower6.png","75","224","2","1","2","1","1,0.333,0.333,0.333,1,0.333,0.333,0.333,1","1,0.333,0.333,0.333,1,0.333,0.333,0.333,1","1",""
"null","","html-keyboard-response","279","203554","0.0-279.0","3FDJT1UU75UCMOAGZEKCP70BX2OK5B","A11JZFATJVBFN0","32XN26MTXZ5MP383W6LZYTLBY7P0LI","","","<img src=""img/flower6.png"" style=""width:200px; border:14px solid green;"">","null","","","","","","","","",""
"153","","image-keyboard-response","280","203724","0.0-280.0","3FDJT1UU75UCMOAGZEKCP70BX2OK5B","A11JZFATJVBFN0","32XN26MTXZ5MP383W6LZYTLBY7P0LI","","","img/flower6.png","75","169","2","1","2","1","1,0.333,0.333,0.333,1,0.333,0.333,0.333,1","1,0.333,0.333,0.333,1,0.333,0.333,0.333,1","1",""
"null","","html-keyboard-response","281","204027","0.0-281.0","3FDJT1UU75UCMOAGZEKCP70BX2OK5B","A11JZFATJVBFN0","32XN26MTXZ5MP383W6LZYTLBY7P0LI","","","<img src=""img/flower6.png"" style=""width:200px; border:14px solid green;"">","null","","","","","","","","",""
"225","","image-keyboard-response","282","204264","0.0-282.0","3FDJT1UU75UCMOAGZEKCP70BX2OK5B","A11JZFATJVBFN0","32XN26MTXZ5MP383W6LZYTLBY7P0LI","","","img/flower6.png","76","236","3","1","2","1","1,0.333,0.333,0.333,1,0.333,0.333,0.333,1","1,0.333,0.333,0.333,1,0.333,0.333,0.333,1","1",""
"null","","html-keyboard-response","283","204626","0.0-283.0","3FDJT1UU75UCMOAGZEKCP70BX2OK5B","A11JZFATJVBFN0","32XN26MTXZ5MP383W6LZYTLBY7P0LI","","","<img src=""img/flower6.png"" style=""width:200px; border:14px solid green;"">","null","","","","","","","","",""
"79","","image-keyboard-response","284","204719","0.0-284.0","3FDJT1UU75UCMOAGZEKCP70BX2OK5B","A11JZFATJVBFN0","32XN26MTXZ5MP383W6LZYTLBY7P0LI","","","img/flower5.png","75","90","2","0","1","1","1,0.333,0.333,0.333,1,0.333,0.333,0.333,1","1,0.333,0.333,0.333,1,0.333,0.333,0.333,1","1",""
"null","","html-keyboard-response","285","205028","0.0-285.0","3FDJT1UU75UCMOAGZEKCP70BX2OK5B","A11JZFATJVBFN0","32XN26MTXZ5MP383W6LZYTLBY7P0LI","","","<img src=""img/flower5.png"" style=""width:200px;border:14px solid red;"">","null","","","","","","","","",""
"95","","image-keyboard-response","286","205126","0.0-286.0","3FDJT1UU75UCMOAGZEKCP70BX2OK5B","A11JZFATJVBFN0","32XN26MTXZ5MP383W6LZYTLBY7P0LI","","","img/flower5.png","75","97","2","0","1","1","1,0.333,0.333,0.333,1,0.333,0.333,0.333,1","1,0.333,0.333,0.333,1,0.333,0.333,0.333,1","1",""
"null","","html-keyboard-response","287","205455","0.0-287.0","3FDJT1UU75UCMOAGZEKCP70BX2OK5B","A11JZFATJVBFN0","32XN26MTXZ5MP383W6LZYTLBY7P0LI","","","<img src=""img/flower5.png"" style=""width:200px;border:14px solid red;"">","null","","","","","","","","",""
"86","","image-keyboard-response","288","205545","0.0-288.0","3FDJT1UU75UCMOAGZEKCP70BX2OK5B","A11JZFATJVBFN0","32XN26MTXZ5MP383W6LZYTLBY7P0LI","","","img/flower5.png","74","89","1","1","1","1","1,0.333,0.333,0.333,1,0.333,0.333,0.333,1","1,0.333,0.333,0.333,1,0.333,0.333,0.333,1","1",""
"null","","html-keyboard-response","289","205855","0.0-289.0","3FDJT1UU75UCMOAGZEKCP70BX2OK5B","A11JZFATJVBFN0","32XN26MTXZ5MP383W6LZYTLBY7P0LI","","","<img src=""img/flower5.png"" style=""width:200px; border:14px solid green;"">","null","","","","","","","","",""
"19","","image-keyboard-response","290","205875","0.0-290.0","3FDJT1UU75UCMOAGZEKCP70BX2OK5B","A11JZFATJVBFN0","32XN26MTXZ5MP383W6LZYTLBY7P0LI","","","img/flower4.png","75","19","2","1","3","1","1,0.333,0.333,0.333,1,0.333,0.333,0.333,1","1,0.333,0.333,0.333,1,0.333,0.333,0.333,1","1",""
"null","","html-keyboard-response","291","206177","0.0-291.0","3FDJT1UU75UCMOAGZEKCP70BX2OK5B","A11JZFATJVBFN0","32XN26MTXZ5MP383W6LZYTLBY7P0LI","","","<img src=""img/flower4.png"" style=""width:200px; border:14px solid green;"">","null","","","","","","","","",""
"46","","image-keyboard-response","292","206226","0.0-292.0","3FDJT1UU75UCMOAGZEKCP70BX2OK5B","A11JZFATJVBFN0","32XN26MTXZ5MP383W6LZYTLBY7P0LI","","","img/flower5.png","74","49","1","1","1","1","1,0.333,0.333,0.333,1,0.333,0.333,0.333,1","1,0.333,0.333,0.333,1,0.333,0.333,0.333,1","1",""
"null","","html-keyboard-response","293","206561","0.0-293.0","3FDJT1UU75UCMOAGZEKCP70BX2OK5B","A11JZFATJVBFN0","32XN26MTXZ5MP383W6LZYTLBY7P0LI","","","<img src=""img/flower5.png"" style=""width:200px; border:14px solid green;"">","null","","","","","","","","",""
"138","","image-keyboard-response","294","206891","0.0-294.0","3FDJT1UU75UCMOAGZEKCP70BX2OK5B","A11JZFATJVBFN0","32XN26MTXZ5MP383W6LZYTLBY7P0LI","","","img/flower6.png","74","330","1","0","2","1","1,0.333,0.333,0.333,1,0.333,0.333,0.333,1","1,0.333,0.333,0.333,1,0.333,0.333,0.333,1","1",""
"null","","html-keyboard-response","295","207207","0.0-295.0","3FDJT1UU75UCMOAGZEKCP70BX2OK5B","A11JZFATJVBFN0","32XN26MTXZ5MP383W6LZYTLBY7P0LI","","","<img src=""img/flower6.png"" style=""width:200px;border:14px solid red;"">","null","","","","","","","","",""
"150","","image-keyboard-response","296","207364","0.0-296.0","3FDJT1UU75UCMOAGZEKCP70BX2OK5B","A11JZFATJVBFN0","32XN26MTXZ5MP383W6LZYTLBY7P0LI","","","img/flower4.png","74","152","1","1","3","1","1,0.333,0.333,0.333,1,0.333,0.333,0.333,1","1,0.333,0.333,0.333,1,0.333,0.333,0.333,1","1",""
"null","","html-keyboard-response","297","207683","0.0-297.0","3FDJT1UU75UCMOAGZEKCP70BX2OK5B","A11JZFATJVBFN0","32XN26MTXZ5MP383W6LZYTLBY7P0LI","","","<img src=""img/flower4.png"" style=""width:200px; border:14px solid green;"">","null","","","","","","","","",""
"276","","image-keyboard-response","298","207965","0.0-298.0","3FDJT1UU75UCMOAGZEKCP70BX2OK5B","A11JZFATJVBFN0","32XN26MTXZ5MP383W6LZYTLBY7P0LI","","","img/flower4.png","74","281","1","1","3","1","1,0.333,0.333,0.333,1,0.333,0.333,0.333,1","1,0.333,0.333,0.333,1,0.333,0.333,0.333,1","1",""
"null","","html-keyboard-response","299","208271","0.0-299.0","3FDJT1UU75UCMOAGZEKCP70BX2OK5B","A11JZFATJVBFN0","32XN26MTXZ5MP383W6LZYTLBY7P0LI","","","<img src=""img/flower4.png"" style=""width:200px; border:14px solid green;"">","null","","","","","","","","",""
"231","","image-keyboard-response","300","208517","0.0-300.0","3FDJT1UU75UCMOAGZEKCP70BX2OK5B","A11JZFATJVBFN0","32XN26MTXZ5MP383W6LZYTLBY7P0LI","","","img/flower5.png","74","245","1","1","1","1","1,0.333,0.333,0.333,1,0.333,0.333,0.333,1","1,0.333,0.333,0.333,1,0.333,0.333,0.333,1","1",""
"null","","html-keyboard-response","301","208835","0.0-301.0","3FDJT1UU75UCMOAGZEKCP70BX2OK5B","A11JZFATJVBFN0","32XN26MTXZ5MP383W6LZYTLBY7P0LI","","","<img src=""img/flower5.png"" style=""width:200px; border:14px solid green;"">","null","","","","","","","","",""
"73","","image-keyboard-response","302","208921","0.0-302.0","3FDJT1UU75UCMOAGZEKCP70BX2OK5B","A11JZFATJVBFN0","32XN26MTXZ5MP383W6LZYTLBY7P0LI","","","img/flower4.png","75","75","2","0","3","1","1,0.333,0.333,0.333,1,0.333,0.333,0.333,1","1,0.333,0.333,0.333,1,0.333,0.333,0.333,1","1",""
"null","","html-keyboard-response","303","209229","0.0-303.0","3FDJT1UU75UCMOAGZEKCP70BX2OK5B","A11JZFATJVBFN0","32XN26MTXZ5MP383W6LZYTLBY7P0LI","","","<img src=""img/flower4.png"" style=""width:200px;border:14px solid red;"">","null","","","","","","","","",""
"130","","image-keyboard-response","304","209363","0.0-304.0","3FDJT1UU75UCMOAGZEKCP70BX2OK5B","A11JZFATJVBFN0","32XN26MTXZ5MP383W6LZYTLBY7P0LI","","","img/flower5.png","75","133","2","1","1","1","1,0.333,0.333,0.333,1,0.333,0.333,0.333,1","1,0.333,0.333,0.333,1,0.333,0.333,0.333,1","1",""
"null","","html-keyboard-response","305","209676","0.0-305.0","3FDJT1UU75UCMOAGZEKCP70BX2OK5B","A11JZFATJVBFN0","32XN26MTXZ5MP383W6LZYTLBY7P0LI","","","<img src=""img/flower5.png"" style=""width:200px; border:14px solid green;"">","null","","","","","","","","",""
"","","html-keyboard-response","306","213506","0.0-306.0","3FDJT1UU75UCMOAGZEKCP70BX2OK5B","A11JZFATJVBFN0","32XN26MTXZ5MP383W6LZYTLBY7P0LI","","","","","","","","","","","","",""
"4250","","image-keyboard-response","307","217766","0.0-307.0","3FDJT1UU75UCMOAGZEKCP70BX2OK5B","A11JZFATJVBFN0","32XN26MTXZ5MP383W6LZYTLBY7P0LI","","","img/flower3.png","76","4258","3","0","2","2","1,0,0,1,1,0,1,0,1","1,0,0,1,1,0,1,0,1","1",""
"null","","html-keyboard-response","308","218084","0.0-308.0","3FDJT1UU75UCMOAGZEKCP70BX2OK5B","A11JZFATJVBFN0","32XN26MTXZ5MP383W6LZYTLBY7P0LI","","","<img src=""img/flower3.png"" style=""width:200px;border:14px solid red;"">","null","","","","","","","","",""
"75","","image-keyboard-response","309","218161","0.0-309.0","3FDJT1UU75UCMOAGZEKCP70BX2OK5B","A11JZFATJVBFN0","32XN26MTXZ5MP383W6LZYTLBY7P0LI","","","img/flower2.png","75","77","2","0","1","2","1,0,0,1,1,0,1,0,1","1,0,0,1,1,0,1,0,1","1",""
"null","","html-keyboard-response","310","218482","0.0-310.0","3FDJT1UU75UCMOAGZEKCP70BX2OK5B","A11JZFATJVBFN0","32XN26MTXZ5MP383W6LZYTLBY7P0LI","","","<img src=""img/flower2.png"" style=""width:200px;border:14px solid red;"">","null","","","","","","","","",""
"76","","image-keyboard-response","311","218562","0.0-311.0","3FDJT1UU75UCMOAGZEKCP70BX2OK5B","A11JZFATJVBFN0","32XN26MTXZ5MP383W6LZYTLBY7P0LI","","","img/flower1.png","76","79","3","1","3","2","1,0,0,1,1,0,1,0,1","1,0,0,1,1,0,1,0,1","1",""
"null","","html-keyboard-response","312","218867","0.0-312.0","3FDJT1UU75UCMOAGZEKCP70BX2OK5B","A11JZFATJVBFN0","32XN26MTXZ5MP383W6LZYTLBY7P0LI","","","<img src=""img/flower1.png"" style=""width:200px; border:14px solid green;"">","null","","","","","","","","",""
"325","","image-keyboard-response","313","219200","0.0-313.0","3FDJT1UU75UCMOAGZEKCP70BX2OK5B","A11JZFATJVBFN0","32XN26MTXZ5MP383W6LZYTLBY7P0LI","","","img/flower3.png","74","333","1","1","2","2","1,0,0,1,1,0,1,0,1","1,0,0,1,1,0,1,0,1","1",""
"null","","html-keyboard-response","314","219517","0.0-314.0","3FDJT1UU75UCMOAGZEKCP70BX2OK5B","A11JZFATJVBFN0","32XN26MTXZ5MP383W6LZYTLBY7P0LI","","","<img src=""img/flower3.png"" style=""width:200px; border:14px solid green;"">","null","","","","","","","","",""
"202","","image-keyboard-response","315","219737","0.0-315.0","3FDJT1UU75UCMOAGZEKCP70BX2OK5B","A11JZFATJVBFN0","32XN26MTXZ5MP383W6LZYTLBY7P0LI","","","img/flower1.png","75","218","2","0","3","2","1,0,0,1,1,0,1,0,1","1,0,0,1,1,0,1,0,1","1",""
"null","","html-keyboard-response","316","220062","0.0-316.0","3FDJT1UU75UCMOAGZEKCP70BX2OK5B","A11JZFATJVBFN0","32XN26MTXZ5MP383W6LZYTLBY7P0LI","","","<img src=""img/flower1.png"" style=""width:200px;border:14px solid red;"">","null","","","","","","","","",""
"127","","image-keyboard-response","317","220202","0.0-317.0","3FDJT1UU75UCMOAGZEKCP70BX2OK5B","A11JZFATJVBFN0","32XN26MTXZ5MP383W6LZYTLBY7P0LI","","","img/flower3.png","75","139","2","1","2","2","1,0,0,1,1,0,1,0,1","1,0,0,1,1,0,1,0,1","1",""
"null","","html-keyboard-response","318","220601","0.0-318.0","3FDJT1UU75UCMOAGZEKCP70BX2OK5B","A11JZFATJVBFN0","32XN26MTXZ5MP383W6LZYTLBY7P0LI","","","<img src=""img/flower3.png"" style=""width:200px; border:14px solid green;"">","null","","","","","","","","",""
"85","","image-keyboard-response","319","220689","0.0-319.0","3FDJT1UU75UCMOAGZEKCP70BX2OK5B","A11JZFATJVBFN0","32XN26MTXZ5MP383W6LZYTLBY7P0LI","","","img/flower3.png","75","87","2","1","2","2","1,0,0,1,1,0,1,0,1","1,0,0,1,1,0,1,0,1","1",""
"null","","html-keyboard-response","320","221020","0.0-320.0","3FDJT1UU75UCMOAGZEKCP70BX2OK5B","A11JZFATJVBFN0","32XN26MTXZ5MP383W6LZYTLBY7P0LI","","","<img src=""img/flower3.png"" style=""width:200px; border:14px solid green;"">","null","","","","","","","","",""
"99","","image-keyboard-response","321","221121","0.0-321.0","3FDJT1UU75UCMOAGZEKCP70BX2OK5B","A11JZFATJVBFN0","32XN26MTXZ5MP383W6LZYTLBY7P0LI","","","img/flower1.png","74","101","1","1","3","2","1,0,0,1,1,0,1,0,1","1,0,0,1,1,0,1,0,1","1",""
"null","","html-keyboard-response","322","221424","0.0-322.0","3FDJT1UU75UCMOAGZEKCP70BX2OK5B","A11JZFATJVBFN0","32XN26MTXZ5MP383W6LZYTLBY7P0LI","","","<img src=""img/flower1.png"" style=""width:200px; border:14px solid green;"">","null","","","","","","","","",""
"99","","image-keyboard-response","323","221539","0.0-323.0","3FDJT1UU75UCMOAGZEKCP70BX2OK5B","A11JZFATJVBFN0","32XN26MTXZ5MP383W6LZYTLBY7P0LI","","","img/flower2.png","75","112","2","0","1","2","1,0,0,1,1,0,1,0,1","1,0,0,1,1,0,1,0,1","1",""
"null","","html-keyboard-response","324","221853","0.0-324.0","3FDJT1UU75UCMOAGZEKCP70BX2OK5B","A11JZFATJVBFN0","32XN26MTXZ5MP383W6LZYTLBY7P0LI","","","<img src=""img/flower2.png"" style=""width:200px;border:14px solid red;"">","null","","","","","","","","",""
"102","","image-keyboard-response","325","221971","0.0-325.0","3FDJT1UU75UCMOAGZEKCP70BX2OK5B","A11JZFATJVBFN0","32XN26MTXZ5MP383W6LZYTLBY7P0LI","","","img/flower3.png","74","117","1","1","2","2","1,0,0,1,1,0,1,0,1","1,0,0,1,1,0,1,0,1","1",""
"null","","html-keyboard-response","326","222297","0.0-326.0","3FDJT1UU75UCMOAGZEKCP70BX2OK5B","A11JZFATJVBFN0","32XN26MTXZ5MP383W6LZYTLBY7P0LI","","","<img src=""img/flower3.png"" style=""width:200px; border:14px solid green;"">","null","","","","","","","","",""
"83","","image-keyboard-response","327","222383","0.0-327.0","3FDJT1UU75UCMOAGZEKCP70BX2OK5B","A11JZFATJVBFN0","32XN26MTXZ5MP383W6LZYTLBY7P0LI","","","img/flower2.png","75","85","2","0","1","2","1,0,0,1,1,0,1,0,1","1,0,0,1,1,0,1,0,1","1",""
"null","","html-keyboard-response","328","222709","0.0-328.0","3FDJT1UU75UCMOAGZEKCP70BX2OK5B","A11JZFATJVBFN0","32XN26MTXZ5MP383W6LZYTLBY7P0LI","","","<img src=""img/flower2.png"" style=""width:200px;border:14px solid red;"">","null","","","","","","","","",""
"126","","image-keyboard-response","329","222846","0.0-329.0","3FDJT1UU75UCMOAGZEKCP70BX2OK5B","A11JZFATJVBFN0","32XN26MTXZ5MP383W6LZYTLBY7P0LI","","","img/flower2.png","74","136","1","1","1","2","1,0,0,1,1,0,1,0,1","1,0,0,1,1,0,1,0,1","1",""
"null","","html-keyboard-response","330","223160","0.0-330.0","3FDJT1UU75UCMOAGZEKCP70BX2OK5B","A11JZFATJVBFN0","32XN26MTXZ5MP383W6LZYTLBY7P0LI","","","<img src=""img/flower2.png"" style=""width:200px; border:14px solid green;"">","null","","","","","","","","",""
"71","","image-keyboard-response","331","223237","0.0-331.0","3FDJT1UU75UCMOAGZEKCP70BX2OK5B","A11JZFATJVBFN0","32XN26MTXZ5MP383W6LZYTLBY7P0LI","","","img/flower3.png","74","73","1","1","2","2","1,0,0,1,1,0,1,0,1","1,0,0,1,1,0,1,0,1","1",""
"null","","html-keyboard-response","332","223543","0.0-332.0","3FDJT1UU75UCMOAGZEKCP70BX2OK5B","A11JZFATJVBFN0","32XN26MTXZ5MP383W6LZYTLBY7P0LI","","","<img src=""img/flower3.png"" style=""width:200px; border:14px solid green;"">","null","","","","","","","","",""
"113","","image-keyboard-response","333","223664","0.0-333.0","3FDJT1UU75UCMOAGZEKCP70BX2OK5B","A11JZFATJVBFN0","32XN26MTXZ5MP383W6LZYTLBY7P0LI","","","img/flower1.png","74","120","1","1","3","2","1,0,0,1,1,0,1,0,1","1,0,0,1,1,0,1,0,1","1",""
"null","","html-keyboard-response","334","223974","0.0-334.0","3FDJT1UU75UCMOAGZEKCP70BX2OK5B","A11JZFATJVBFN0","32XN26MTXZ5MP383W6LZYTLBY7P0LI","","","<img src=""img/flower1.png"" style=""width:200px; border:14px solid green;"">","null","","","","","","","","",""
"124","","image-keyboard-response","335","224109","0.0-335.0","3FDJT1UU75UCMOAGZEKCP70BX2OK5B","A11JZFATJVBFN0","32XN26MTXZ5MP383W6LZYTLBY7P0LI","","","img/flower1.png","74","133","1","1","3","2","1,0,0,1,1,0,1,0,1","1,0,0,1,1,0,1,0,1","1",""
"null","","html-keyboard-response","336","224422","0.0-336.0","3FDJT1UU75UCMOAGZEKCP70BX2OK5B","A11JZFATJVBFN0","32XN26MTXZ5MP383W6LZYTLBY7P0LI","","","<img src=""img/flower1.png"" style=""width:200px; border:14px solid green;"">","null","","","","","","","","",""
"11","","image-keyboard-response","337","224436","0.0-337.0","3FDJT1UU75UCMOAGZEKCP70BX2OK5B","A11JZFATJVBFN0","32XN26MTXZ5MP383W6LZYTLBY7P0LI","","","img/flower3.png","74","13","1","1","2","2","1,0,0,1,1,0,1,0,1","1,0,0,1,1,0,1,0,1","1",""
"null","","html-keyboard-response","338","224741","0.0-338.0","3FDJT1UU75UCMOAGZEKCP70BX2OK5B","A11JZFATJVBFN0","32XN26MTXZ5MP383W6LZYTLBY7P0LI","","","<img src=""img/flower3.png"" style=""width:200px; border:14px solid green;"">","null","","","","","","","","",""
"100","","image-keyboard-response","339","224843","0.0-339.0","3FDJT1UU75UCMOAGZEKCP70BX2OK5B","A11JZFATJVBFN0","32XN26MTXZ5MP383W6LZYTLBY7P0LI","","","img/flower1.png","74","102","1","1","3","2","1,0,0,1,1,0,1,0,1","1,0,0,1,1,0,1,0,1","1",""
"null","","html-keyboard-response","340","225161","0.0-340.0","3FDJT1UU75UCMOAGZEKCP70BX2OK5B","A11JZFATJVBFN0","32XN26MTXZ5MP383W6LZYTLBY7P0LI","","","<img src=""img/flower1.png"" style=""width:200px; border:14px solid green;"">","null","","","","","","","","",""
"101","","image-keyboard-response","341","225264","0.0-341.0","3FDJT1UU75UCMOAGZEKCP70BX2OK5B","A11JZFATJVBFN0","32XN26MTXZ5MP383W6LZYTLBY7P0LI","","","img/flower3.png","74","103","1","1","2","2","1,0,0,1,1,0,1,0,1","1,0,0,1,1,0,1,0,1","1",""
"null","","html-keyboard-response","342","225568","0.0-342.0","3FDJT1UU75UCMOAGZEKCP70BX2OK5B","A11JZFATJVBFN0","32XN26MTXZ5MP383W6LZYTLBY7P0LI","","","<img src=""img/flower3.png"" style=""width:200px; border:14px solid green;"">","null","","","","","","","","",""
"172","","image-keyboard-response","343","225743","0.0-343.0","3FDJT1UU75UCMOAGZEKCP70BX2OK5B","A11JZFATJVBFN0","32XN26MTXZ5MP383W6LZYTLBY7P0LI","","","img/flower2.png","75","174","2","0","1","2","1,0,0,1,1,0,1,0,1","1,0,0,1,1,0,1,0,1","1",""
"null","","html-keyboard-response","344","226051","0.0-344.0","3FDJT1UU75UCMOAGZEKCP70BX2OK5B","A11JZFATJVBFN0","32XN26MTXZ5MP383W6LZYTLBY7P0LI","","","<img src=""img/flower2.png"" style=""width:200px;border:14px solid red;"">","null","","","","","","","","",""
"128","","image-keyboard-response","345","226181","0.0-345.0","3FDJT1UU75UCMOAGZEKCP70BX2OK5B","A11JZFATJVBFN0","32XN26MTXZ5MP383W6LZYTLBY7P0LI","","","img/flower1.png","75","130","2","0","3","2","1,0,0,1,1,0,1,0,1","1,0,0,1,1,0,1,0,1","1",""
"null","","html-keyboard-response","346","226495","0.0-346.0","3FDJT1UU75UCMOAGZEKCP70BX2OK5B","A11JZFATJVBFN0","32XN26MTXZ5MP383W6LZYTLBY7P0LI","","","<img src=""img/flower1.png"" style=""width:200px;border:14px solid red;"">","null","","","","","","","","",""
"146","","image-keyboard-response","347","226653","0.0-347.0","3FDJT1UU75UCMOAGZEKCP70BX2OK5B","A11JZFATJVBFN0","32XN26MTXZ5MP383W6LZYTLBY7P0LI","","","img/flower1.png","74","155","1","1","3","2","1,0,0,1,1,0,1,0,1","1,0,0,1,1,0,1,0,1","1",""
"null","","html-keyboard-response","348","226958","0.0-348.0","3FDJT1UU75UCMOAGZEKCP70BX2OK5B","A11JZFATJVBFN0","32XN26MTXZ5MP383W6LZYTLBY7P0LI","","","<img src=""img/flower1.png"" style=""width:200px; border:14px solid green;"">","null","","","","","","","","",""
"138","","image-keyboard-response","349","227105","0.0-349.0","3FDJT1UU75UCMOAGZEKCP70BX2OK5B","A11JZFATJVBFN0","32XN26MTXZ5MP383W6LZYTLBY7P0LI","","","img/flower3.png","74","147","1","1","2","2","1,0,0,1,1,0,1,0,1","1,0,0,1,1,0,1,0,1","1",""
"null","","html-keyboard-response","350","227592","0.0-350.0","3FDJT1UU75UCMOAGZEKCP70BX2OK5B","A11JZFATJVBFN0","32XN26MTXZ5MP383W6LZYTLBY7P0LI","","","<img src=""img/flower3.png"" style=""width:200px; border:14px solid green;"">","null","","","","","","","","",""
"43","","image-keyboard-response","351","227639","0.0-351.0","3FDJT1UU75UCMOAGZEKCP70BX2OK5B","A11JZFATJVBFN0","32XN26MTXZ5MP383W6LZYTLBY7P0LI","","","img/flower1.png","74","46","1","1","3","2","1,0,0,1,1,0,1,0,1","1,0,0,1,1,0,1,0,1","1",""
"null","","html-keyboard-response","352","227947","0.0-352.0","3FDJT1UU75UCMOAGZEKCP70BX2OK5B","A11JZFATJVBFN0","32XN26MTXZ5MP383W6LZYTLBY7P0LI","","","<img src=""img/flower1.png"" style=""width:200px; border:14px solid green;"">","null","","","","","","","","",""
"18","","image-keyboard-response","353","227967","0.0-353.0","3FDJT1UU75UCMOAGZEKCP70BX2OK5B","A11JZFATJVBFN0","32XN26MTXZ5MP383W6LZYTLBY7P0LI","","","img/flower2.png","75","20","2","0","1","2","1,0,0,1,1,0,1,0,1","1,0,0,1,1,0,1,0,1","1",""
"null","","html-keyboard-response","354","228271","0.0-354.0","3FDJT1UU75UCMOAGZEKCP70BX2OK5B","A11JZFATJVBFN0","32XN26MTXZ5MP383W6LZYTLBY7P0LI","","","<img src=""img/flower2.png"" style=""width:200px;border:14px solid red;"">","null","","","","","","","","",""
"154","","image-keyboard-response","355","228435","0.0-355.0","3FDJT1UU75UCMOAGZEKCP70BX2OK5B","A11JZFATJVBFN0","32XN26MTXZ5MP383W6LZYTLBY7P0LI","","","img/flower2.png","74","164","1","1","1","2","1,0,0,1,1,0,1,0,1","1,0,0,1,1,0,1,0,1","1",""
"null","","html-keyboard-response","356","228739","0.0-356.0","3FDJT1UU75UCMOAGZEKCP70BX2OK5B","A11JZFATJVBFN0","32XN26MTXZ5MP383W6LZYTLBY7P0LI","","","<img src=""img/flower2.png"" style=""width:200px; border:14px solid green;"">","null","","","","","","","","",""
"104","","image-keyboard-response","357","228846","0.0-357.0","3FDJT1UU75UCMOAGZEKCP70BX2OK5B","A11JZFATJVBFN0","32XN26MTXZ5MP383W6LZYTLBY7P0LI","","","img/flower2.png","75","106","2","0","1","2","1,0,0,1,1,0,1,0,1","1,0,0,1,1,0,1,0,1","1",""
"null","","html-keyboard-response","358","229163","0.0-358.0","3FDJT1UU75UCMOAGZEKCP70BX2OK5B","A11JZFATJVBFN0","32XN26MTXZ5MP383W6LZYTLBY7P0LI","","","<img src=""img/flower2.png"" style=""width:200px;border:14px solid red;"">","null","","","","","","","","",""
"169","","image-keyboard-response","359","229334","0.0-359.0","3FDJT1UU75UCMOAGZEKCP70BX2OK5B","A11JZFATJVBFN0","32XN26MTXZ5MP383W6LZYTLBY7P0LI","","","img/flower2.png","74","170","1","1","1","2","1,0,0,1,1,0,1,0,1","1,0,0,1,1,0,1,0,1","1",""
"null","","html-keyboard-response","360","229659","0.0-360.0","3FDJT1UU75UCMOAGZEKCP70BX2OK5B","A11JZFATJVBFN0","32XN26MTXZ5MP383W6LZYTLBY7P0LI","","","<img src=""img/flower2.png"" style=""width:200px; border:14px solid green;"">","null","","","","","","","","",""
"153","","image-keyboard-response","361","229827","0.0-361.0","3FDJT1UU75UCMOAGZEKCP70BX2OK5B","A11JZFATJVBFN0","32XN26MTXZ5MP383W6LZYTLBY7P0LI","","","img/flower2.png","75","165","2","0","1","2","1,0,0,1,1,0,1,0,1","1,0,0,1,1,0,1,0,1","1",""
"null","","html-keyboard-response","362","230154","0.0-362.0","3FDJT1UU75UCMOAGZEKCP70BX2OK5B","A11JZFATJVBFN0","32XN26MTXZ5MP383W6LZYTLBY7P0LI","","","<img src=""img/flower2.png"" style=""width:200px;border:14px solid red;"">","null","","","","","","","","",""
"141","","image-keyboard-response","363","230301","0.0-363.0","3FDJT1UU75UCMOAGZEKCP70BX2OK5B","A11JZFATJVBFN0","32XN26MTXZ5MP383W6LZYTLBY7P0LI","","","img/flower1.png","74","144","1","1","3","2","1,0,0,1,1,0,1,0,1","1,0,0,1,1,0,1,0,1","1",""
"null","","html-keyboard-response","364","230621","0.0-364.0","3FDJT1UU75UCMOAGZEKCP70BX2OK5B","A11JZFATJVBFN0","32XN26MTXZ5MP383W6LZYTLBY7P0LI","","","<img src=""img/flower1.png"" style=""width:200px; border:14px solid green;"">","null","","","","","","","","",""
"154","","image-keyboard-response","365","230793","0.0-365.0","3FDJT1UU75UCMOAGZEKCP70BX2OK5B","A11JZFATJVBFN0","32XN26MTXZ5MP383W6LZYTLBY7P0LI","","","img/flower3.png","74","171","1","1","2","2","1,0,0,1,1,0,1,0,1","1,0,0,1,1,0,1,0,1","1",""
"null","","html-keyboard-response","366","231098","0.0-366.0","3FDJT1UU75UCMOAGZEKCP70BX2OK5B","A11JZFATJVBFN0","32XN26MTXZ5MP383W6LZYTLBY7P0LI","","","<img src=""img/flower3.png"" style=""width:200px; border:14px solid green;"">","null","","","","","","","","",""
"172","","image-keyboard-response","367","231292","0.0-367.0","3FDJT1UU75UCMOAGZEKCP70BX2OK5B","A11JZFATJVBFN0","32XN26MTXZ5MP383W6LZYTLBY7P0LI","","","img/flower1.png","74","183","1","1","3","2","1,0,0,1,1,0,1,0,1","1,0,0,1,1,0,1,0,1","1",""
"null","","html-keyboard-response","368","231600","0.0-368.0","3FDJT1UU75UCMOAGZEKCP70BX2OK5B","A11JZFATJVBFN0","32XN26MTXZ5MP383W6LZYTLBY7P0LI","","","<img src=""img/flower1.png"" style=""width:200px; border:14px solid green;"">","null","","","","","","","","",""
"49","","image-keyboard-response","369","231652","0.0-369.0","3FDJT1UU75UCMOAGZEKCP70BX2OK5B","A11JZFATJVBFN0","32XN26MTXZ5MP383W6LZYTLBY7P0LI","","","img/flower1.png","75","51","2","0","3","2","1,0,0,1,1,0,1,0,1","1,0,0,1,1,0,1,0,1","1",""
"null","","html-keyboard-response","370","231958","0.0-370.0","3FDJT1UU75UCMOAGZEKCP70BX2OK5B","A11JZFATJVBFN0","32XN26MTXZ5MP383W6LZYTLBY7P0LI","","","<img src=""img/flower1.png"" style=""width:200px;border:14px solid red;"">","null","","","","","","","","",""
"93","","image-keyboard-response","371","232053","0.0-371.0","3FDJT1UU75UCMOAGZEKCP70BX2OK5B","A11JZFATJVBFN0","32XN26MTXZ5MP383W6LZYTLBY7P0LI","","","img/flower3.png","75","95","2","1","2","2","1,0,0,1,1,0,1,0,1","1,0,0,1,1,0,1,0,1","1",""
"null","","html-keyboard-response","372","232356","0.0-372.0","3FDJT1UU75UCMOAGZEKCP70BX2OK5B","A11JZFATJVBFN0","32XN26MTXZ5MP383W6LZYTLBY7P0LI","","","<img src=""img/flower3.png"" style=""width:200px; border:14px solid green;"">","null","","","","","","","","",""
"22","","image-keyboard-response","373","232379","0.0-373.0","3FDJT1UU75UCMOAGZEKCP70BX2OK5B","A11JZFATJVBFN0","32XN26MTXZ5MP383W6LZYTLBY7P0LI","","","img/flower2.png","75","23","2","0","1","2","1,0,0,1,1,0,1,0,1","1,0,0,1,1,0,1,0,1","1",""
"null","","html-keyboard-response","374","232710","0.0-374.0","3FDJT1UU75UCMOAGZEKCP70BX2OK5B","A11JZFATJVBFN0","32XN26MTXZ5MP383W6LZYTLBY7P0LI","","","<img src=""img/flower2.png"" style=""width:200px;border:14px solid red;"">","null","","","","","","","","",""
"101","","image-keyboard-response","375","232814","0.0-375.0","3FDJT1UU75UCMOAGZEKCP70BX2OK5B","A11JZFATJVBFN0","32XN26MTXZ5MP383W6LZYTLBY7P0LI","","","img/flower3.png","74","102","1","1","2","2","1,0,0,1,1,0,1,0,1","1,0,0,1,1,0,1,0,1","1",""
"null","","html-keyboard-response","376","233121","0.0-376.0","3FDJT1UU75UCMOAGZEKCP70BX2OK5B","A11JZFATJVBFN0","32XN26MTXZ5MP383W6LZYTLBY7P0LI","","","<img src=""img/flower3.png"" style=""width:200px; border:14px solid green;"">","null","","","","","","","","",""
"185","","image-keyboard-response","377","233312","0.0-377.0","3FDJT1UU75UCMOAGZEKCP70BX2OK5B","A11JZFATJVBFN0","32XN26MTXZ5MP383W6LZYTLBY7P0LI","","","img/flower2.png","74","187","1","1","1","2","1,0,0,1,1,0,1,0,1","1,0,0,1,1,0,1,0,1","1",""
"null","","html-keyboard-response","378","233695","0.0-378.0","3FDJT1UU75UCMOAGZEKCP70BX2OK5B","A11JZFATJVBFN0","32XN26MTXZ5MP383W6LZYTLBY7P0LI","","","<img src=""img/flower2.png"" style=""width:200px; border:14px solid green;"">","null","","","","","","","","",""
"87","","image-keyboard-response","379","233785","0.0-379.0","3FDJT1UU75UCMOAGZEKCP70BX2OK5B","A11JZFATJVBFN0","32XN26MTXZ5MP383W6LZYTLBY7P0LI","","","img/flower3.png","75","89","2","1","2","2","1,0,0,1,1,0,1,0,1","1,0,0,1,1,0,1,0,1","1",""
"null","","html-keyboard-response","380","234101","0.0-380.0","3FDJT1UU75UCMOAGZEKCP70BX2OK5B","A11JZFATJVBFN0","32XN26MTXZ5MP383W6LZYTLBY7P0LI","","","<img src=""img/flower3.png"" style=""width:200px; border:14px solid green;"">","null","","","","","","","","",""
"15","","image-keyboard-response","381","234118","0.0-381.0","3FDJT1UU75UCMOAGZEKCP70BX2OK5B","A11JZFATJVBFN0","32XN26MTXZ5MP383W6LZYTLBY7P0LI","","","img/flower2.png","74","16","1","1","1","2","1,0,0,1,1,0,1,0,1","1,0,0,1,1,0,1,0,1","1",""
"null","","html-keyboard-response","382","234427","0.0-382.0","3FDJT1UU75UCMOAGZEKCP70BX2OK5B","A11JZFATJVBFN0","32XN26MTXZ5MP383W6LZYTLBY7P0LI","","","<img src=""img/flower2.png"" style=""width:200px; border:14px solid green;"">","null","","","","","","","","",""
"125","","image-keyboard-response","383","234565","0.0-383.0","3FDJT1UU75UCMOAGZEKCP70BX2OK5B","A11JZFATJVBFN0","32XN26MTXZ5MP383W6LZYTLBY7P0LI","","","img/flower1.png","74","138","1","1","3","2","1,0,0,1,1,0,1,0,1","1,0,0,1,1,0,1,0,1","1",""
"null","","html-keyboard-response","384","234879","0.0-384.0","3FDJT1UU75UCMOAGZEKCP70BX2OK5B","A11JZFATJVBFN0","32XN26MTXZ5MP383W6LZYTLBY7P0LI","","","<img src=""img/flower1.png"" style=""width:200px; border:14px solid green;"">","null","","","","","","","","",""
"107","","image-keyboard-response","385","234999","0.0-385.0","3FDJT1UU75UCMOAGZEKCP70BX2OK5B","A11JZFATJVBFN0","32XN26MTXZ5MP383W6LZYTLBY7P0LI","","","img/flower1.png","74","117","1","1","3","2","1,0,0,1,1,0,1,0,1","1,0,0,1,1,0,1,0,1","1",""
