"success","trial_type","trial_index","time_elapsed","internal_node_id","assignmentID","mturkID","hitID","view_history","rt","stimulus","key_press","reactionTime","a","r","s","cond","reward_cond","reward_cond_actual","reward_matrix_idx","responses"
"true","fullscreen","0","10275","0.0-0.0","3PJUZCGDJ72BSAARTF0QBIWMPW189S","A12EQIULBHM4HJ","3ECKRY5B1QIH1N6NFX1ECCW5ZDKIZQ","","","","","","","","","","","","",""
"","instructions","1","24247","0.0-1.0","3PJUZCGDJ72BSAARTF0QBIWMPW189S","A12EQIULBHM4HJ","3ECKRY5B1QIH1N6NFX1ECCW5ZDKIZQ","[{""page_index"":0,""viewing_time"":1124},{""page_index"":1,""viewing_time"":2367},{""page_index"":2,""viewing_time"":1663},{""page_index"":3,""viewing_time"":1461},{""page_index"":4,""viewing_time"":1726},{""page_index"":5,""viewing_time"":2077},{""page_index"":6,""viewing_time"":2239},{""page_index"":7,""viewing_time"":1314}]","13971","","","","","","","","","","",""
"","image-keyboard-response","2","25761","0.0-2.0","3PJUZCGDJ72BSAARTF0QBIWMPW189S","A12EQIULBHM4HJ","3ECKRY5B1QIH1N6NFX1ECCW5ZDKIZQ","","1511","img/flower4.png","76","1512","3","0","1","2","1,0,0,1,1,0,1,0,1","0,1,0,0,1,1,1,1,0","3",""
"","html-keyboard-response","3","26074","0.0-3.0","3PJUZCGDJ72BSAARTF0QBIWMPW189S","A12EQIULBHM4HJ","3ECKRY5B1QIH1N6NFX1ECCW5ZDKIZQ","","null","<img src=""img/flower4.png"" style=""width:200px;border:14px solid red;"">","null","","","","","","","","",""
"","image-keyboard-response","4","26441","0.0-4.0","3PJUZCGDJ72BSAARTF0QBIWMPW189S","A12EQIULBHM4HJ","3ECKRY5B1QIH1N6NFX1ECCW5ZDKIZQ","","366","img/flower3.png","75","367","2","1","3","2","1,0,0,1,1,0,1,0,1","0,1,0,0,1,1,1,1,0","3",""
"","html-keyboard-response","5","26753","0.0-5.0","3PJUZCGDJ72BSAARTF0QBIWMPW189S","A12EQIULBHM4HJ","3ECKRY5B1QIH1N6NFX1ECCW5ZDKIZQ","","null","<img src=""img/flower3.png"" style=""width:200px; border:14px solid green;"">","null","","","","","","","","",""
"","image-keyboard-response","6","27046","0.0-6.0","3PJUZCGDJ72BSAARTF0QBIWMPW189S","A12EQIULBHM4HJ","3ECKRY5B1QIH1N6NFX1ECCW5ZDKIZQ","","292","img/flower4.png","75","293","2","1","1","2","1,0,0,1,1,0,1,0,1","0,1,0,0,1,1,1,1,0","3",""
"","html-keyboard-response","7","27360","0.0-7.0","3PJUZCGDJ72BSAARTF0QBIWMPW189S","A12EQIULBHM4HJ","3ECKRY5B1QIH1N6NFX1ECCW5ZDKIZQ","","null","<img src=""img/flower4.png"" style=""width:200px; border:14px solid green;"">","null","","","","","","","","",""
"","image-keyboard-response","8","27592","0.0-8.0","3PJUZCGDJ72BSAARTF0QBIWMPW189S","A12EQIULBHM4HJ","3ECKRY5B1QIH1N6NFX1ECCW5ZDKIZQ","","231","img/flower5.png","75","231","2","1","2","2","1,0,0,1,1,0,1,0,1","0,1,0,0,1,1,1,1,0","3",""
"","html-keyboard-response","9","27903","0.0-9.0","3PJUZCGDJ72BSAARTF0QBIWMPW189S","A12EQIULBHM4HJ","3ECKRY5B1QIH1N6NFX1ECCW5ZDKIZQ","","null","<img src=""img/flower5.png"" style=""width:200px; border:14px solid green;"">","null","","","","","","","","",""
"","image-keyboard-response","10","28131","0.0-10.0","3PJUZCGDJ72BSAARTF0QBIWMPW189S","A12EQIULBHM4HJ","3ECKRY5B1QIH1N6NFX1ECCW5ZDKIZQ","","228","img/flower3.png","75","228","2","1","3","2","1,0,0,1,1,0,1,0,1","0,1,0,0,1,1,1,1,0","3",""
"","html-keyboard-response","11","28434","0.0-11.0","3PJUZCGDJ72BSAARTF0QBIWMPW189S","A12EQIULBHM4HJ","3ECKRY5B1QIH1N6NFX1ECCW5ZDKIZQ","","null","<img src=""img/flower3.png"" style=""width:200px; border:14px solid green;"">","null","","","","","","","","",""
"","image-keyboard-response","12","28665","0.0-12.0","3PJUZCGDJ72BSAARTF0QBIWMPW189S","A12EQIULBHM4HJ","3ECKRY5B1QIH1N6NFX1ECCW5ZDKIZQ","","231","img/flower4.png","75","231","2","1","1","2","1,0,0,1,1,0,1,0,1","0,1,0,0,1,1,1,1,0","3",""
"","html-keyboard-response","13","28977","0.0-13.0","3PJUZCGDJ72BSAARTF0QBIWMPW189S","A12EQIULBHM4HJ","3ECKRY5B1QIH1N6NFX1ECCW5ZDKIZQ","","null","<img src=""img/flower4.png"" style=""width:200px; border:14px solid green;"">","null","","","","","","","","",""
"","image-keyboard-response","14","29204","0.0-14.0","3PJUZCGDJ72BSAARTF0QBIWMPW189S","A12EQIULBHM4HJ","3ECKRY5B1QIH1N6NFX1ECCW5ZDKIZQ","","226","img/flower3.png","75","227","2","1","3","2","1,0,0,1,1,0,1,0,1","0,1,0,0,1,1,1,1,0","3",""
"","html-keyboard-response","15","29515","0.0-15.0","3PJUZCGDJ72BSAARTF0QBIWMPW189S","A12EQIULBHM4HJ","3ECKRY5B1QIH1N6NFX1ECCW5ZDKIZQ","","null","<img src=""img/flower3.png"" style=""width:200px; border:14px solid green;"">","null","","","","","","","","",""
"","image-keyboard-response","16","30026","0.0-16.0","3PJUZCGDJ72BSAARTF0QBIWMPW189S","A12EQIULBHM4HJ","3ECKRY5B1QIH1N6NFX1ECCW5ZDKIZQ","","511","img/flower5.png","75","511","2","1","2","2","1,0,0,1,1,0,1,0,1","0,1,0,0,1,1,1,1,0","3",""
"","html-keyboard-response","17","30339","0.0-17.0","3PJUZCGDJ72BSAARTF0QBIWMPW189S","A12EQIULBHM4HJ","3ECKRY5B1QIH1N6NFX1ECCW5ZDKIZQ","","null","<img src=""img/flower5.png"" style=""width:200px; border:14px solid green;"">","null","","","","","","","","",""
"","image-keyboard-response","18","30499","0.0-18.0","3PJUZCGDJ72BSAARTF0QBIWMPW189S","A12EQIULBHM4HJ","3ECKRY5B1QIH1N6NFX1ECCW5ZDKIZQ","","161","img/flower3.png","75","162","2","1","3","2","1,0,0,1,1,0,1,0,1","0,1,0,0,1,1,1,1,0","3",""
"","html-keyboard-response","19","30804","0.0-19.0","3PJUZCGDJ72BSAARTF0QBIWMPW189S","A12EQIULBHM4HJ","3ECKRY5B1QIH1N6NFX1ECCW5ZDKIZQ","","null","<img src=""img/flower3.png"" style=""width:200px; border:14px solid green;"">","null","","","","","","","","",""
"","image-keyboard-response","20","30970","0.0-20.0","3PJUZCGDJ72BSAARTF0QBIWMPW189S","A12EQIULBHM4HJ","3ECKRY5B1QIH1N6NFX1ECCW5ZDKIZQ","","165","img/flower3.png","75","166","2","1","3","2","1,0,0,1,1,0,1,0,1","0,1,0,0,1,1,1,1,0","3",""
"","html-keyboard-response","21","31271","0.0-21.0","3PJUZCGDJ72BSAARTF0QBIWMPW189S","A12EQIULBHM4HJ","3ECKRY5B1QIH1N6NFX1ECCW5ZDKIZQ","","null","<img src=""img/flower3.png"" style=""width:200px; border:14px solid green;"">","null","","","","","","","","",""
"","image-keyboard-response","22","31431","0.0-22.0","3PJUZCGDJ72BSAARTF0QBIWMPW189S","A12EQIULBHM4HJ","3ECKRY5B1QIH1N6NFX1ECCW5ZDKIZQ","","160","img/flower3.png","75","161","2","1","3","2","1,0,0,1,1,0,1,0,1","0,1,0,0,1,1,1,1,0","3",""
"","html-keyboard-response","23","31741","0.0-23.0","3PJUZCGDJ72BSAARTF0QBIWMPW189S","A12EQIULBHM4HJ","3ECKRY5B1QIH1N6NFX1ECCW5ZDKIZQ","","null","<img src=""img/flower3.png"" style=""width:200px; border:14px solid green;"">","null","","","","","","","","",""
"","image-keyboard-response","24","31933","0.0-24.0","3PJUZCGDJ72BSAARTF0QBIWMPW189S","A12EQIULBHM4HJ","3ECKRY5B1QIH1N6NFX1ECCW5ZDKIZQ","","192","img/flower4.png","75","192","2","1","1","2","1,0,0,1,1,0,1,0,1","0,1,0,0,1,1,1,1,0","3",""
"","html-keyboard-response","25","32245","0.0-25.0","3PJUZCGDJ72BSAARTF0QBIWMPW189S","A12EQIULBHM4HJ","3ECKRY5B1QIH1N6NFX1ECCW5ZDKIZQ","","null","<img src=""img/flower4.png"" style=""width:200px; border:14px solid green;"">","null","","","","","","","","",""
"","image-keyboard-response","26","32364","0.0-26.0","3PJUZCGDJ72BSAARTF0QBIWMPW189S","A12EQIULBHM4HJ","3ECKRY5B1QIH1N6NFX1ECCW5ZDKIZQ","","118","img/flower4.png","75","118","2","1","1","2","1,0,0,1,1,0,1,0,1","0,1,0,0,1,1,1,1,0","3",""
"","html-keyboard-response","27","32680","0.0-27.0","3PJUZCGDJ72BSAARTF0QBIWMPW189S","A12EQIULBHM4HJ","3ECKRY5B1QIH1N6NFX1ECCW5ZDKIZQ","","null","<img src=""img/flower4.png"" style=""width:200px; border:14px solid green;"">","null","","","","","","","","",""
"","image-keyboard-response","28","32933","0.0-28.0","3PJUZCGDJ72BSAARTF0QBIWMPW189S","A12EQIULBHM4HJ","3ECKRY5B1QIH1N6NFX1ECCW5ZDKIZQ","","253","img/flower3.png","75","253","2","1","3","2","1,0,0,1,1,0,1,0,1","0,1,0,0,1,1,1,1,0","3",""
"","html-keyboard-response","29","33241","0.0-29.0","3PJUZCGDJ72BSAARTF0QBIWMPW189S","A12EQIULBHM4HJ","3ECKRY5B1QIH1N6NFX1ECCW5ZDKIZQ","","null","<img src=""img/flower3.png"" style=""width:200px; border:14px solid green;"">","null","","","","","","","","",""
"","image-keyboard-response","30","33381","0.0-30.0","3PJUZCGDJ72BSAARTF0QBIWMPW189S","A12EQIULBHM4HJ","3ECKRY5B1QIH1N6NFX1ECCW5ZDKIZQ","","141","img/flower4.png","75","141","2","1","1","2","1,0,0,1,1,0,1,0,1","0,1,0,0,1,1,1,1,0","3",""
"","html-keyboard-response","31","33704","0.0-31.0","3PJUZCGDJ72BSAARTF0QBIWMPW189S","A12EQIULBHM4HJ","3ECKRY5B1QIH1N6NFX1ECCW5ZDKIZQ","","null","<img src=""img/flower4.png"" style=""width:200px; border:14px solid green;"">","null","","","","","","","","",""
"","image-keyboard-response","32","33842","0.0-32.0","3PJUZCGDJ72BSAARTF0QBIWMPW189S","A12EQIULBHM4HJ","3ECKRY5B1QIH1N6NFX1ECCW5ZDKIZQ","","137","img/flower3.png","75","137","2","1","3","2","1,0,0,1,1,0,1,0,1","0,1,0,0,1,1,1,1,0","3",""
"","html-keyboard-response","33","34150","0.0-33.0","3PJUZCGDJ72BSAARTF0QBIWMPW189S","A12EQIULBHM4HJ","3ECKRY5B1QIH1N6NFX1ECCW5ZDKIZQ","","null","<img src=""img/flower3.png"" style=""width:200px; border:14px solid green;"">","null","","","","","","","","",""
"","image-keyboard-response","34","34405","0.0-34.0","3PJUZCGDJ72BSAARTF0QBIWMPW189S","A12EQIULBHM4HJ","3ECKRY5B1QIH1N6NFX1ECCW5ZDKIZQ","","255","img/flower3.png","75","256","2","1","3","2","1,0,0,1,1,0,1,0,1","0,1,0,0,1,1,1,1,0","3",""
"","html-keyboard-response","35","34707","0.0-35.0","3PJUZCGDJ72BSAARTF0QBIWMPW189S","A12EQIULBHM4HJ","3ECKRY5B1QIH1N6NFX1ECCW5ZDKIZQ","","null","<img src=""img/flower3.png"" style=""width:200px; border:14px solid green;"">","null","","","","","","","","",""
"","image-keyboard-response","36","35125","0.0-36.0","3PJUZCGDJ72BSAARTF0QBIWMPW189S","A12EQIULBHM4HJ","3ECKRY5B1QIH1N6NFX1ECCW5ZDKIZQ","","417","img/flower4.png","75","418","2","1","1","2","1,0,0,1,1,0,1,0,1","0,1,0,0,1,1,1,1,0","3",""
"","html-keyboard-response","37","35432","0.0-37.0","3PJUZCGDJ72BSAARTF0QBIWMPW189S","A12EQIULBHM4HJ","3ECKRY5B1QIH1N6NFX1ECCW5ZDKIZQ","","null","<img src=""img/flower4.png"" style=""width:200px; border:14px solid green;"">","null","","","","","","","","",""
"","image-keyboard-response","38","35651","0.0-38.0","3PJUZCGDJ72BSAARTF0QBIWMPW189S","A12EQIULBHM4HJ","3ECKRY5B1QIH1N6NFX1ECCW5ZDKIZQ","","218","img/flower3.png","75","219","2","1","3","2","1,0,0,1,1,0,1,0,1","0,1,0,0,1,1,1,1,0","3",""
"","html-keyboard-response","39","35961","0.0-39.0","3PJUZCGDJ72BSAARTF0QBIWMPW189S","A12EQIULBHM4HJ","3ECKRY5B1QIH1N6NFX1ECCW5ZDKIZQ","","null","<img src=""img/flower3.png"" style=""width:200px; border:14px solid green;"">","null","","","","","","","","",""
"","image-keyboard-response","40","36146","0.0-40.0","3PJUZCGDJ72BSAARTF0QBIWMPW189S","A12EQIULBHM4HJ","3ECKRY5B1QIH1N6NFX1ECCW5ZDKIZQ","","184","img/flower5.png","75","185","2","1","2","2","1,0,0,1,1,0,1,0,1","0,1,0,0,1,1,1,1,0","3",""
"","html-keyboard-response","41","36457","0.0-41.0","3PJUZCGDJ72BSAARTF0QBIWMPW189S","A12EQIULBHM4HJ","3ECKRY5B1QIH1N6NFX1ECCW5ZDKIZQ","","null","<img src=""img/flower5.png"" style=""width:200px; border:14px solid green;"">","null","","","","","","","","",""
"","image-keyboard-response","42","36604","0.0-42.0","3PJUZCGDJ72BSAARTF0QBIWMPW189S","A12EQIULBHM4HJ","3ECKRY5B1QIH1N6NFX1ECCW5ZDKIZQ","","145","img/flower4.png","75","146","2","1","1","2","1,0,0,1,1,0,1,0,1","0,1,0,0,1,1,1,1,0","3",""
"","html-keyboard-response","43","36906","0.0-43.0","3PJUZCGDJ72BSAARTF0QBIWMPW189S","A12EQIULBHM4HJ","3ECKRY5B1QIH1N6NFX1ECCW5ZDKIZQ","","null","<img src=""img/flower4.png"" style=""width:200px; border:14px solid green;"">","null","","","","","","","","",""
"","image-keyboard-response","44","37083","0.0-44.0","3PJUZCGDJ72BSAARTF0QBIWMPW189S","A12EQIULBHM4HJ","3ECKRY5B1QIH1N6NFX1ECCW5ZDKIZQ","","177","img/flower3.png","75","177","2","1","3","2","1,0,0,1,1,0,1,0,1","0,1,0,0,1,1,1,1,0","3",""
"","html-keyboard-response","45","37385","0.0-45.0","3PJUZCGDJ72BSAARTF0QBIWMPW189S","A12EQIULBHM4HJ","3ECKRY5B1QIH1N6NFX1ECCW5ZDKIZQ","","null","<img src=""img/flower3.png"" style=""width:200px; border:14px solid green;"">","null","","","","","","","","",""
"","image-keyboard-response","46","37561","0.0-46.0","3PJUZCGDJ72BSAARTF0QBIWMPW189S","A12EQIULBHM4HJ","3ECKRY5B1QIH1N6NFX1ECCW5ZDKIZQ","","174","img/flower5.png","75","175","2","1","2","2","1,0,0,1,1,0,1,0,1","0,1,0,0,1,1,1,1,0","3",""
"","html-keyboard-response","47","37867","0.0-47.0","3PJUZCGDJ72BSAARTF0QBIWMPW189S","A12EQIULBHM4HJ","3ECKRY5B1QIH1N6NFX1ECCW5ZDKIZQ","","null","<img src=""img/flower5.png"" style=""width:200px; border:14px solid green;"">","null","","","","","","","","",""
"","image-keyboard-response","48","38040","0.0-48.0","3PJUZCGDJ72BSAARTF0QBIWMPW189S","A12EQIULBHM4HJ","3ECKRY5B1QIH1N6NFX1ECCW5ZDKIZQ","","174","img/flower3.png","75","174","2","1","3","2","1,0,0,1,1,0,1,0,1","0,1,0,0,1,1,1,1,0","3",""
"","html-keyboard-response","49","38347","0.0-49.0","3PJUZCGDJ72BSAARTF0QBIWMPW189S","A12EQIULBHM4HJ","3ECKRY5B1QIH1N6NFX1ECCW5ZDKIZQ","","null","<img src=""img/flower3.png"" style=""width:200px; border:14px solid green;"">","null","","","","","","","","",""
"","image-keyboard-response","50","38493","0.0-50.0","3PJUZCGDJ72BSAARTF0QBIWMPW189S","A12EQIULBHM4HJ","3ECKRY5B1QIH1N6NFX1ECCW5ZDKIZQ","","145","img/flower5.png","75","145","2","1","2","2","1,0,0,1,1,0,1,0,1","0,1,0,0,1,1,1,1,0","3",""
"","html-keyboard-response","51","38795","0.0-51.0","3PJUZCGDJ72BSAARTF0QBIWMPW189S","A12EQIULBHM4HJ","3ECKRY5B1QIH1N6NFX1ECCW5ZDKIZQ","","null","<img src=""img/flower5.png"" style=""width:200px; border:14px solid green;"">","null","","","","","","","","",""
"","image-keyboard-response","52","38951","0.0-52.0","3PJUZCGDJ72BSAARTF0QBIWMPW189S","A12EQIULBHM4HJ","3ECKRY5B1QIH1N6NFX1ECCW5ZDKIZQ","","155","img/flower4.png","75","155","2","1","1","2","1,0,0,1,1,0,1,0,1","0,1,0,0,1,1,1,1,0","3",""
"","html-keyboard-response","53","39264","0.0-53.0","3PJUZCGDJ72BSAARTF0QBIWMPW189S","A12EQIULBHM4HJ","3ECKRY5B1QIH1N6NFX1ECCW5ZDKIZQ","","null","<img src=""img/flower4.png"" style=""width:200px; border:14px solid green;"">","null","","","","","","","","",""
"","image-keyboard-response","54","39409","0.0-54.0","3PJUZCGDJ72BSAARTF0QBIWMPW189S","A12EQIULBHM4HJ","3ECKRY5B1QIH1N6NFX1ECCW5ZDKIZQ","","146","img/flower5.png","75","146","2","1","2","2","1,0,0,1,1,0,1,0,1","0,1,0,0,1,1,1,1,0","3",""
"","html-keyboard-response","55","39712","0.0-55.0","3PJUZCGDJ72BSAARTF0QBIWMPW189S","A12EQIULBHM4HJ","3ECKRY5B1QIH1N6NFX1ECCW5ZDKIZQ","","null","<img src=""img/flower5.png"" style=""width:200px; border:14px solid green;"">","null","","","","","","","","",""
"","image-keyboard-response","56","39862","0.0-56.0","3PJUZCGDJ72BSAARTF0QBIWMPW189S","A12EQIULBHM4HJ","3ECKRY5B1QIH1N6NFX1ECCW5ZDKIZQ","","150","img/flower5.png","75","150","2","1","2","2","1,0,0,1,1,0,1,0,1","0,1,0,0,1,1,1,1,0","3",""
"","html-keyboard-response","57","40176","0.0-57.0","3PJUZCGDJ72BSAARTF0QBIWMPW189S","A12EQIULBHM4HJ","3ECKRY5B1QIH1N6NFX1ECCW5ZDKIZQ","","null","<img src=""img/flower5.png"" style=""width:200px; border:14px solid green;"">","null","","","","","","","","",""
"","image-keyboard-response","58","40322","0.0-58.0","3PJUZCGDJ72BSAARTF0QBIWMPW189S","A12EQIULBHM4HJ","3ECKRY5B1QIH1N6NFX1ECCW5ZDKIZQ","","145","img/flower4.png","75","145","2","1","1","2","1,0,0,1,1,0,1,0,1","0,1,0,0,1,1,1,1,0","3",""
"","html-keyboard-response","59","40625","0.0-59.0","3PJUZCGDJ72BSAARTF0QBIWMPW189S","A12EQIULBHM4HJ","3ECKRY5B1QIH1N6NFX1ECCW5ZDKIZQ","","null","<img src=""img/flower4.png"" style=""width:200px; border:14px solid green;"">","null","","","","","","","","",""
"","image-keyboard-response","60","40781","0.0-60.0","3PJUZCGDJ72BSAARTF0QBIWMPW189S","A12EQIULBHM4HJ","3ECKRY5B1QIH1N6NFX1ECCW5ZDKIZQ","","156","img/flower3.png","75","157","2","1","3","2","1,0,0,1,1,0,1,0,1","0,1,0,0,1,1,1,1,0","3",""
"","html-keyboard-response","61","41088","0.0-61.0","3PJUZCGDJ72BSAARTF0QBIWMPW189S","A12EQIULBHM4HJ","3ECKRY5B1QIH1N6NFX1ECCW5ZDKIZQ","","null","<img src=""img/flower3.png"" style=""width:200px; border:14px solid green;"">","null","","","","","","","","",""
"","image-keyboard-response","62","41177","0.0-62.0","3PJUZCGDJ72BSAARTF0QBIWMPW189S","A12EQIULBHM4HJ","3ECKRY5B1QIH1N6NFX1ECCW5ZDKIZQ","","89","img/flower4.png","75","89","2","1","1","2","1,0,0,1,1,0,1,0,1","0,1,0,0,1,1,1,1,0","3",""
"","html-keyboard-response","63","41491","0.0-63.0","3PJUZCGDJ72BSAARTF0QBIWMPW189S","A12EQIULBHM4HJ","3ECKRY5B1QIH1N6NFX1ECCW5ZDKIZQ","","null","<img src=""img/flower4.png"" style=""width:200px; border:14px solid green;"">","null","","","","","","","","",""
"","image-keyboard-response","64","41638","0.0-64.0","3PJUZCGDJ72BSAARTF0QBIWMPW189S","A12EQIULBHM4HJ","3ECKRY5B1QIH1N6NFX1ECCW5ZDKIZQ","","147","img/flower4.png","75","147","2","1","1","2","1,0,0,1,1,0,1,0,1","0,1,0,0,1,1,1,1,0","3",""
"","html-keyboard-response","65","41939","0.0-65.0","3PJUZCGDJ72BSAARTF0QBIWMPW189S","A12EQIULBHM4HJ","3ECKRY5B1QIH1N6NFX1ECCW5ZDKIZQ","","null","<img src=""img/flower4.png"" style=""width:200px; border:14px solid green;"">","null","","","","","","","","",""
"","image-keyboard-response","66","42087","0.0-66.0","3PJUZCGDJ72BSAARTF0QBIWMPW189S","A12EQIULBHM4HJ","3ECKRY5B1QIH1N6NFX1ECCW5ZDKIZQ","","148","img/flower5.png","75","148","2","1","2","2","1,0,0,1,1,0,1,0,1","0,1,0,0,1,1,1,1,0","3",""
"","html-keyboard-response","67","42402","0.0-67.0","3PJUZCGDJ72BSAARTF0QBIWMPW189S","A12EQIULBHM4HJ","3ECKRY5B1QIH1N6NFX1ECCW5ZDKIZQ","","null","<img src=""img/flower5.png"" style=""width:200px; border:14px solid green;"">","null","","","","","","","","",""
"","image-keyboard-response","68","42526","0.0-68.0","3PJUZCGDJ72BSAARTF0QBIWMPW189S","A12EQIULBHM4HJ","3ECKRY5B1QIH1N6NFX1ECCW5ZDKIZQ","","123","img/flower3.png","75","123","2","1","3","2","1,0,0,1,1,0,1,0,1","0,1,0,0,1,1,1,1,0","3",""
"","html-keyboard-response","69","42836","0.0-69.0","3PJUZCGDJ72BSAARTF0QBIWMPW189S","A12EQIULBHM4HJ","3ECKRY5B1QIH1N6NFX1ECCW5ZDKIZQ","","null","<img src=""img/flower3.png"" style=""width:200px; border:14px solid green;"">","null","","","","","","","","",""
"","image-keyboard-response","70","42966","0.0-70.0","3PJUZCGDJ72BSAARTF0QBIWMPW189S","A12EQIULBHM4HJ","3ECKRY5B1QIH1N6NFX1ECCW5ZDKIZQ","","129","img/flower4.png","75","130","2","1","1","2","1,0,0,1,1,0,1,0,1","0,1,0,0,1,1,1,1,0","3",""
"","html-keyboard-response","71","43274","0.0-71.0","3PJUZCGDJ72BSAARTF0QBIWMPW189S","A12EQIULBHM4HJ","3ECKRY5B1QIH1N6NFX1ECCW5ZDKIZQ","","null","<img src=""img/flower4.png"" style=""width:200px; border:14px solid green;"">","null","","","","","","","","",""
"","image-keyboard-response","72","43415","0.0-72.0","3PJUZCGDJ72BSAARTF0QBIWMPW189S","A12EQIULBHM4HJ","3ECKRY5B1QIH1N6NFX1ECCW5ZDKIZQ","","140","img/flower5.png","75","141","2","1","2","2","1,0,0,1,1,0,1,0,1","0,1,0,0,1,1,1,1,0","3",""
"","html-keyboard-response","73","43724","0.0-73.0","3PJUZCGDJ72BSAARTF0QBIWMPW189S","A12EQIULBHM4HJ","3ECKRY5B1QIH1N6NFX1ECCW5ZDKIZQ","","null","<img src=""img/flower5.png"" style=""width:200px; border:14px solid green;"">","null","","","","","","","","",""
"","image-keyboard-response","74","43852","0.0-74.0","3PJUZCGDJ72BSAARTF0QBIWMPW189S","A12EQIULBHM4HJ","3ECKRY5B1QIH1N6NFX1ECCW5ZDKIZQ","","128","img/flower5.png","75","128","2","1","2","2","1,0,0,1,1,0,1,0,1","0,1,0,0,1,1,1,1,0","3",""
"","html-keyboard-response","75","44158","0.0-75.0","3PJUZCGDJ72BSAARTF0QBIWMPW189S","A12EQIULBHM4HJ","3ECKRY5B1QIH1N6NFX1ECCW5ZDKIZQ","","null","<img src=""img/flower5.png"" style=""width:200px; border:14px solid green;"">","null","","","","","","","","",""
"","image-keyboard-response","76","44313","0.0-76.0","3PJUZCGDJ72BSAARTF0QBIWMPW189S","A12EQIULBHM4HJ","3ECKRY5B1QIH1N6NFX1ECCW5ZDKIZQ","","154","img/flower5.png","75","154","2","1","2","2","1,0,0,1,1,0,1,0,1","0,1,0,0,1,1,1,1,0","3",""
"","html-keyboard-response","77","44622","0.0-77.0","3PJUZCGDJ72BSAARTF0QBIWMPW189S","A12EQIULBHM4HJ","3ECKRY5B1QIH1N6NFX1ECCW5ZDKIZQ","","null","<img src=""img/flower5.png"" style=""width:200px; border:14px solid green;"">","null","","","","","","","","",""
"","image-keyboard-response","78","44742","0.0-78.0","3PJUZCGDJ72BSAARTF0QBIWMPW189S","A12EQIULBHM4HJ","3ECKRY5B1QIH1N6NFX1ECCW5ZDKIZQ","","120","img/flower3.png","75","120","2","1","3","2","1,0,0,1,1,0,1,0,1","0,1,0,0,1,1,1,1,0","3",""
"","html-keyboard-response","79","45045","0.0-79.0","3PJUZCGDJ72BSAARTF0QBIWMPW189S","A12EQIULBHM4HJ","3ECKRY5B1QIH1N6NFX1ECCW5ZDKIZQ","","null","<img src=""img/flower3.png"" style=""width:200px; border:14px solid green;"">","null","","","","","","","","",""
"","image-keyboard-response","80","45157","0.0-80.0","3PJUZCGDJ72BSAARTF0QBIWMPW189S","A12EQIULBHM4HJ","3ECKRY5B1QIH1N6NFX1ECCW5ZDKIZQ","","112","img/flower5.png","75","112","2","1","2","2","1,0,0,1,1,0,1,0,1","0,1,0,0,1,1,1,1,0","3",""
"","html-keyboard-response","81","45461","0.0-81.0","3PJUZCGDJ72BSAARTF0QBIWMPW189S","A12EQIULBHM4HJ","3ECKRY5B1QIH1N6NFX1ECCW5ZDKIZQ","","null","<img src=""img/flower5.png"" style=""width:200px; border:14px solid green;"">","null","","","","","","","","",""
"","image-keyboard-response","82","45596","0.0-82.0","3PJUZCGDJ72BSAARTF0QBIWMPW189S","A12EQIULBHM4HJ","3ECKRY5B1QIH1N6NFX1ECCW5ZDKIZQ","","134","img/flower5.png","75","135","2","1","2","2","1,0,0,1,1,0,1,0,1","0,1,0,0,1,1,1,1,0","3",""
"","html-keyboard-response","83","45913","0.0-83.0","3PJUZCGDJ72BSAARTF0QBIWMPW189S","A12EQIULBHM4HJ","3ECKRY5B1QIH1N6NFX1ECCW5ZDKIZQ","","null","<img src=""img/flower5.png"" style=""width:200px; border:14px solid green;"">","null","","","","","","","","",""
"","image-keyboard-response","84","46096","0.0-84.0","3PJUZCGDJ72BSAARTF0QBIWMPW189S","A12EQIULBHM4HJ","3ECKRY5B1QIH1N6NFX1ECCW5ZDKIZQ","","182","img/flower5.png","75","183","2","1","2","2","1,0,0,1,1,0,1,0,1","0,1,0,0,1,1,1,1,0","3",""
"","html-keyboard-response","85","46410","0.0-85.0","3PJUZCGDJ72BSAARTF0QBIWMPW189S","A12EQIULBHM4HJ","3ECKRY5B1QIH1N6NFX1ECCW5ZDKIZQ","","null","<img src=""img/flower5.png"" style=""width:200px; border:14px solid green;"">","null","","","","","","","","",""
"","image-keyboard-response","86","46529","0.0-86.0","3PJUZCGDJ72BSAARTF0QBIWMPW189S","A12EQIULBHM4HJ","3ECKRY5B1QIH1N6NFX1ECCW5ZDKIZQ","","119","img/flower4.png","75","120","2","1","1","2","1,0,0,1,1,0,1,0,1","0,1,0,0,1,1,1,1,0","3",""
"","html-keyboard-response","87","46847","0.0-87.0","3PJUZCGDJ72BSAARTF0QBIWMPW189S","A12EQIULBHM4HJ","3ECKRY5B1QIH1N6NFX1ECCW5ZDKIZQ","","null","<img src=""img/flower4.png"" style=""width:200px; border:14px solid green;"">","null","","","","","","","","",""
"","image-keyboard-response","88","46989","0.0-88.0","3PJUZCGDJ72BSAARTF0QBIWMPW189S","A12EQIULBHM4HJ","3ECKRY5B1QIH1N6NFX1ECCW5ZDKIZQ","","142","img/flower4.png","75","142","2","1","1","2","1,0,0,1,1,0,1,0,1","0,1,0,0,1,1,1,1,0","3",""
"","html-keyboard-response","89","47297","0.0-89.0","3PJUZCGDJ72BSAARTF0QBIWMPW189S","A12EQIULBHM4HJ","3ECKRY5B1QIH1N6NFX1ECCW5ZDKIZQ","","null","<img src=""img/flower4.png"" style=""width:200px; border:14px solid green;"">","null","","","","","","","","",""
"","image-keyboard-response","90","47405","0.0-90.0","3PJUZCGDJ72BSAARTF0QBIWMPW189S","A12EQIULBHM4HJ","3ECKRY5B1QIH1N6NFX1ECCW5ZDKIZQ","","107","img/flower3.png","75","107","2","1","3","2","1,0,0,1,1,0,1,0,1","0,1,0,0,1,1,1,1,0","3",""
"","html-keyboard-response","91","47717","0.0-91.0","3PJUZCGDJ72BSAARTF0QBIWMPW189S","A12EQIULBHM4HJ","3ECKRY5B1QIH1N6NFX1ECCW5ZDKIZQ","","null","<img src=""img/flower3.png"" style=""width:200px; border:14px solid green;"">","null","","","","","","","","",""
"","image-keyboard-response","92","47843","0.0-92.0","3PJUZCGDJ72BSAARTF0QBIWMPW189S","A12EQIULBHM4HJ","3ECKRY5B1QIH1N6NFX1ECCW5ZDKIZQ","","125","img/flower3.png","75","126","2","1","3","2","1,0,0,1,1,0,1,0,1","0,1,0,0,1,1,1,1,0","3",""
"","html-keyboard-response","93","48150","0.0-93.0","3PJUZCGDJ72BSAARTF0QBIWMPW189S","A12EQIULBHM4HJ","3ECKRY5B1QIH1N6NFX1ECCW5ZDKIZQ","","null","<img src=""img/flower3.png"" style=""width:200px; border:14px solid green;"">","null","","","","","","","","",""
"","image-keyboard-response","94","48283","0.0-94.0","3PJUZCGDJ72BSAARTF0QBIWMPW189S","A12EQIULBHM4HJ","3ECKRY5B1QIH1N6NFX1ECCW5ZDKIZQ","","131","img/flower4.png","75","132","2","1","1","2","1,0,0,1,1,0,1,0,1","0,1,0,0,1,1,1,1,0","3",""
"","html-keyboard-response","95","48585","0.0-95.0","3PJUZCGDJ72BSAARTF0QBIWMPW189S","A12EQIULBHM4HJ","3ECKRY5B1QIH1N6NFX1ECCW5ZDKIZQ","","null","<img src=""img/flower4.png"" style=""width:200px; border:14px solid green;"">","null","","","","","","","","",""
"","image-keyboard-response","96","48697","0.0-96.0","3PJUZCGDJ72BSAARTF0QBIWMPW189S","A12EQIULBHM4HJ","3ECKRY5B1QIH1N6NFX1ECCW5ZDKIZQ","","111","img/flower5.png","75","111","2","1","2","2","1,0,0,1,1,0,1,0,1","0,1,0,0,1,1,1,1,0","3",""
"","html-keyboard-response","97","49003","0.0-97.0","3PJUZCGDJ72BSAARTF0QBIWMPW189S","A12EQIULBHM4HJ","3ECKRY5B1QIH1N6NFX1ECCW5ZDKIZQ","","null","<img src=""img/flower5.png"" style=""width:200px; border:14px solid green;"">","null","","","","","","","","",""
"","image-keyboard-response","98","49128","0.0-98.0","3PJUZCGDJ72BSAARTF0QBIWMPW189S","A12EQIULBHM4HJ","3ECKRY5B1QIH1N6NFX1ECCW5ZDKIZQ","","123","img/flower4.png","75","124","2","1","1","2","1,0,0,1,1,0,1,0,1","0,1,0,0,1,1,1,1,0","3",""
"","html-keyboard-response","99","49440","0.0-99.0","3PJUZCGDJ72BSAARTF0QBIWMPW189S","A12EQIULBHM4HJ","3ECKRY5B1QIH1N6NFX1ECCW5ZDKIZQ","","null","<img src=""img/flower4.png"" style=""width:200px; border:14px solid green;"">","null","","","","","","","","",""
"","image-keyboard-response","100","49543","0.0-100.0","3PJUZCGDJ72BSAARTF0QBIWMPW189S","A12EQIULBHM4HJ","3ECKRY5B1QIH1N6NFX1ECCW5ZDKIZQ","","102","img/flower4.png","75","102","2","1","1","2","1,0,0,1,1,0,1,0,1","0,1,0,0,1,1,1,1,0","3",""
"","html-keyboard-response","101","49847","0.0-101.0","3PJUZCGDJ72BSAARTF0QBIWMPW189S","A12EQIULBHM4HJ","3ECKRY5B1QIH1N6NFX1ECCW5ZDKIZQ","","null","<img src=""img/flower4.png"" style=""width:200px; border:14px solid green;"">","null","","","","","","","","",""
"","image-keyboard-response","102","50001","0.0-102.0","3PJUZCGDJ72BSAARTF0QBIWMPW189S","A12EQIULBHM4HJ","3ECKRY5B1QIH1N6NFX1ECCW5ZDKIZQ","","153","img/flower4.png","75","153","2","1","1","2","1,0,0,1,1,0,1,0,1","0,1,0,0,1,1,1,1,0","3",""
"","html-keyboard-response","103","50313","0.0-103.0","3PJUZCGDJ72BSAARTF0QBIWMPW189S","A12EQIULBHM4HJ","3ECKRY5B1QIH1N6NFX1ECCW5ZDKIZQ","","null","<img src=""img/flower4.png"" style=""width:200px; border:14px solid green;"">","null","","","","","","","","",""
"","image-keyboard-response","104","50371","0.0-104.0","3PJUZCGDJ72BSAARTF0QBIWMPW189S","A12EQIULBHM4HJ","3ECKRY5B1QIH1N6NFX1ECCW5ZDKIZQ","","57","img/flower3.png","75","57","2","1","3","2","1,0,0,1,1,0,1,0,1","0,1,0,0,1,1,1,1,0","3",""
"","html-keyboard-response","105","50685","0.0-105.0","3PJUZCGDJ72BSAARTF0QBIWMPW189S","A12EQIULBHM4HJ","3ECKRY5B1QIH1N6NFX1ECCW5ZDKIZQ","","null","<img src=""img/flower3.png"" style=""width:200px; border:14px solid green;"">","null","","","","","","","","",""
"","image-keyboard-response","106","50783","0.0-106.0","3PJUZCGDJ72BSAARTF0QBIWMPW189S","A12EQIULBHM4HJ","3ECKRY5B1QIH1N6NFX1ECCW5ZDKIZQ","","97","img/flower3.png","75","97","2","1","3","2","1,0,0,1,1,0,1,0,1","0,1,0,0,1,1,1,1,0","3",""
"","html-keyboard-response","107","51093","0.0-107.0","3PJUZCGDJ72BSAARTF0QBIWMPW189S","A12EQIULBHM4HJ","3ECKRY5B1QIH1N6NFX1ECCW5ZDKIZQ","","null","<img src=""img/flower3.png"" style=""width:200px; border:14px solid green;"">","null","","","","","","","","",""
"","image-keyboard-response","108","51242","0.0-108.0","3PJUZCGDJ72BSAARTF0QBIWMPW189S","A12EQIULBHM4HJ","3ECKRY5B1QIH1N6NFX1ECCW5ZDKIZQ","","149","img/flower5.png","75","149","2","1","2","2","1,0,0,1,1,0,1,0,1","0,1,0,0,1,1,1,1,0","3",""
"","html-keyboard-response","109","51543","0.0-109.0","3PJUZCGDJ72BSAARTF0QBIWMPW189S","A12EQIULBHM4HJ","3ECKRY5B1QIH1N6NFX1ECCW5ZDKIZQ","","null","<img src=""img/flower5.png"" style=""width:200px; border:14px solid green;"">","null","","","","","","","","",""
"","image-keyboard-response","110","51637","0.0-110.0","3PJUZCGDJ72BSAARTF0QBIWMPW189S","A12EQIULBHM4HJ","3ECKRY5B1QIH1N6NFX1ECCW5ZDKIZQ","","94","img/flower4.png","75","94","2","1","1","2","1,0,0,1,1,0,1,0,1","0,1,0,0,1,1,1,1,0","3",""
"","html-keyboard-response","111","51947","0.0-111.0","3PJUZCGDJ72BSAARTF0QBIWMPW189S","A12EQIULBHM4HJ","3ECKRY5B1QIH1N6NFX1ECCW5ZDKIZQ","","null","<img src=""img/flower4.png"" style=""width:200px; border:14px solid green;"">","null","","","","","","","","",""
"","image-keyboard-response","112","52054","0.0-112.0","3PJUZCGDJ72BSAARTF0QBIWMPW189S","A12EQIULBHM4HJ","3ECKRY5B1QIH1N6NFX1ECCW5ZDKIZQ","","106","img/flower3.png","75","106","2","1","3","2","1,0,0,1,1,0,1,0,1","0,1,0,0,1,1,1,1,0","3",""
"","html-keyboard-response","113","52364","0.0-113.0","3PJUZCGDJ72BSAARTF0QBIWMPW189S","A12EQIULBHM4HJ","3ECKRY5B1QIH1N6NFX1ECCW5ZDKIZQ","","null","<img src=""img/flower3.png"" style=""width:200px; border:14px solid green;"">","null","","","","","","","","",""
"","image-keyboard-response","114","52449","0.0-114.0","3PJUZCGDJ72BSAARTF0QBIWMPW189S","A12EQIULBHM4HJ","3ECKRY5B1QIH1N6NFX1ECCW5ZDKIZQ","","84","img/flower3.png","75","84","2","1","3","2","1,0,0,1,1,0,1,0,1","0,1,0,0,1,1,1,1,0","3",""
"","html-keyboard-response","115","52750","0.0-115.0","3PJUZCGDJ72BSAARTF0QBIWMPW189S","A12EQIULBHM4HJ","3ECKRY5B1QIH1N6NFX1ECCW5ZDKIZQ","","null","<img src=""img/flower3.png"" style=""width:200px; border:14px solid green;"">","null","","","","","","","","",""
"","image-keyboard-response","116","52887","0.0-116.0","3PJUZCGDJ72BSAARTF0QBIWMPW189S","A12EQIULBHM4HJ","3ECKRY5B1QIH1N6NFX1ECCW5ZDKIZQ","","137","img/flower5.png","75","137","2","1","2","2","1,0,0,1,1,0,1,0,1","0,1,0,0,1,1,1,1,0","3",""
"","html-keyboard-response","117","53187","0.0-117.0","3PJUZCGDJ72BSAARTF0QBIWMPW189S","A12EQIULBHM4HJ","3ECKRY5B1QIH1N6NFX1ECCW5ZDKIZQ","","null","<img src=""img/flower5.png"" style=""width:200px; border:14px solid green;"">","null","","","","","","","","",""
"","image-keyboard-response","118","53304","0.0-118.0","3PJUZCGDJ72BSAARTF0QBIWMPW189S","A12EQIULBHM4HJ","3ECKRY5B1QIH1N6NFX1ECCW5ZDKIZQ","","116","img/flower4.png","75","116","2","1","1","2","1,0,0,1,1,0,1,0,1","0,1,0,0,1,1,1,1,0","3",""
"","html-keyboard-response","119","53604","0.0-119.0","3PJUZCGDJ72BSAARTF0QBIWMPW189S","A12EQIULBHM4HJ","3ECKRY5B1QIH1N6NFX1ECCW5ZDKIZQ","","null","<img src=""img/flower4.png"" style=""width:200px; border:14px solid green;"">","null","","","","","","","","",""
"","image-keyboard-response","120","53700","0.0-120.0","3PJUZCGDJ72BSAARTF0QBIWMPW189S","A12EQIULBHM4HJ","3ECKRY5B1QIH1N6NFX1ECCW5ZDKIZQ","","94","img/flower3.png","75","94","2","1","3","2","1,0,0,1,1,0,1,0,1","0,1,0,0,1,1,1,1,0","3",""
"","html-keyboard-response","121","54013","0.0-121.0","3PJUZCGDJ72BSAARTF0QBIWMPW189S","A12EQIULBHM4HJ","3ECKRY5B1QIH1N6NFX1ECCW5ZDKIZQ","","null","<img src=""img/flower3.png"" style=""width:200px; border:14px solid green;"">","null","","","","","","","","",""
"","image-keyboard-response","122","54136","0.0-122.0","3PJUZCGDJ72BSAARTF0QBIWMPW189S","A12EQIULBHM4HJ","3ECKRY5B1QIH1N6NFX1ECCW5ZDKIZQ","","124","img/flower4.png","75","124","2","1","1","2","1,0,0,1,1,0,1,0,1","0,1,0,0,1,1,1,1,0","3",""
"","html-keyboard-response","123","54449","0.0-123.0","3PJUZCGDJ72BSAARTF0QBIWMPW189S","A12EQIULBHM4HJ","3ECKRY5B1QIH1N6NFX1ECCW5ZDKIZQ","","null","<img src=""img/flower4.png"" style=""width:200px; border:14px solid green;"">","null","","","","","","","","",""
"","image-keyboard-response","124","54553","0.0-124.0","3PJUZCGDJ72BSAARTF0QBIWMPW189S","A12EQIULBHM4HJ","3ECKRY5B1QIH1N6NFX1ECCW5ZDKIZQ","","102","img/flower3.png","75","103","2","1","3","2","1,0,0,1,1,0,1,0,1","0,1,0,0,1,1,1,1,0","3",""
"","html-keyboard-response","125","54853","0.0-125.0","3PJUZCGDJ72BSAARTF0QBIWMPW189S","A12EQIULBHM4HJ","3ECKRY5B1QIH1N6NFX1ECCW5ZDKIZQ","","null","<img src=""img/flower3.png"" style=""width:200px; border:14px solid green;"">","null","","","","","","","","",""
"","image-keyboard-response","126","54970","0.0-126.0","3PJUZCGDJ72BSAARTF0QBIWMPW189S","A12EQIULBHM4HJ","3ECKRY5B1QIH1N6NFX1ECCW5ZDKIZQ","","116","img/flower5.png","75","116","2","1","2","2","1,0,0,1,1,0,1,0,1","0,1,0,0,1,1,1,1,0","3",""
"","html-keyboard-response","127","55271","0.0-127.0","3PJUZCGDJ72BSAARTF0QBIWMPW189S","A12EQIULBHM4HJ","3ECKRY5B1QIH1N6NFX1ECCW5ZDKIZQ","","null","<img src=""img/flower5.png"" style=""width:200px; border:14px solid green;"">","null","","","","","","","","",""
"","image-keyboard-response","128","55409","0.0-128.0","3PJUZCGDJ72BSAARTF0QBIWMPW189S","A12EQIULBHM4HJ","3ECKRY5B1QIH1N6NFX1ECCW5ZDKIZQ","","137","img/flower4.png","75","138","2","1","1","2","1,0,0,1,1,0,1,0,1","0,1,0,0,1,1,1,1,0","3",""
"","html-keyboard-response","129","55724","0.0-129.0","3PJUZCGDJ72BSAARTF0QBIWMPW189S","A12EQIULBHM4HJ","3ECKRY5B1QIH1N6NFX1ECCW5ZDKIZQ","","null","<img src=""img/flower4.png"" style=""width:200px; border:14px solid green;"">","null","","","","","","","","",""
"","image-keyboard-response","130","55826","0.0-130.0","3PJUZCGDJ72BSAARTF0QBIWMPW189S","A12EQIULBHM4HJ","3ECKRY5B1QIH1N6NFX1ECCW5ZDKIZQ","","101","img/flower3.png","75","101","2","1","3","2","1,0,0,1,1,0,1,0,1","0,1,0,0,1,1,1,1,0","3",""
"","html-keyboard-response","131","56126","0.0-131.0","3PJUZCGDJ72BSAARTF0QBIWMPW189S","A12EQIULBHM4HJ","3ECKRY5B1QIH1N6NFX1ECCW5ZDKIZQ","","null","<img src=""img/flower3.png"" style=""width:200px; border:14px solid green;"">","null","","","","","","","","",""
"","image-keyboard-response","132","56241","0.0-132.0","3PJUZCGDJ72BSAARTF0QBIWMPW189S","A12EQIULBHM4HJ","3ECKRY5B1QIH1N6NFX1ECCW5ZDKIZQ","","115","img/flower5.png","75","115","2","1","2","2","1,0,0,1,1,0,1,0,1","0,1,0,0,1,1,1,1,0","3",""
"","html-keyboard-response","133","56545","0.0-133.0","3PJUZCGDJ72BSAARTF0QBIWMPW189S","A12EQIULBHM4HJ","3ECKRY5B1QIH1N6NFX1ECCW5ZDKIZQ","","null","<img src=""img/flower5.png"" style=""width:200px; border:14px solid green;"">","null","","","","","","","","",""
"","image-keyboard-response","134","56659","0.0-134.0","3PJUZCGDJ72BSAARTF0QBIWMPW189S","A12EQIULBHM4HJ","3ECKRY5B1QIH1N6NFX1ECCW5ZDKIZQ","","114","img/flower3.png","75","114","2","1","3","2","1,0,0,1,1,0,1,0,1","0,1,0,0,1,1,1,1,0","3",""
"","html-keyboard-response","135","56963","0.0-135.0","3PJUZCGDJ72BSAARTF0QBIWMPW189S","A12EQIULBHM4HJ","3ECKRY5B1QIH1N6NFX1ECCW5ZDKIZQ","","null","<img src=""img/flower3.png"" style=""width:200px; border:14px solid green;"">","null","","","","","","","","",""
"","image-keyboard-response","136","57076","0.0-136.0","3PJUZCGDJ72BSAARTF0QBIWMPW189S","A12EQIULBHM4HJ","3ECKRY5B1QIH1N6NFX1ECCW5ZDKIZQ","","112","img/flower5.png","75","112","2","1","2","2","1,0,0,1,1,0,1,0,1","0,1,0,0,1,1,1,1,0","3",""
"","html-keyboard-response","137","57379","0.0-137.0","3PJUZCGDJ72BSAARTF0QBIWMPW189S","A12EQIULBHM4HJ","3ECKRY5B1QIH1N6NFX1ECCW5ZDKIZQ","","null","<img src=""img/flower5.png"" style=""width:200px; border:14px solid green;"">","null","","","","","","","","",""
"","image-keyboard-response","138","57471","0.0-138.0","3PJUZCGDJ72BSAARTF0QBIWMPW189S","A12EQIULBHM4HJ","3ECKRY5B1QIH1N6NFX1ECCW5ZDKIZQ","","89","img/flower4.png","75","90","2","1","1","2","1,0,0,1,1,0,1,0,1","0,1,0,0,1,1,1,1,0","3",""
"","html-keyboard-response","139","57782","0.0-139.0","3PJUZCGDJ72BSAARTF0QBIWMPW189S","A12EQIULBHM4HJ","3ECKRY5B1QIH1N6NFX1ECCW5ZDKIZQ","","null","<img src=""img/flower4.png"" style=""width:200px; border:14px solid green;"">","null","","","","","","","","",""
"","image-keyboard-response","140","57887","0.0-140.0","3PJUZCGDJ72BSAARTF0QBIWMPW189S","A12EQIULBHM4HJ","3ECKRY5B1QIH1N6NFX1ECCW5ZDKIZQ","","104","img/flower4.png","75","105","2","1","1","2","1,0,0,1,1,0,1,0,1","0,1,0,0,1,1,1,1,0","3",""
"","html-keyboard-response","141","58198","0.0-141.0","3PJUZCGDJ72BSAARTF0QBIWMPW189S","A12EQIULBHM4HJ","3ECKRY5B1QIH1N6NFX1ECCW5ZDKIZQ","","null","<img src=""img/flower4.png"" style=""width:200px; border:14px solid green;"">","null","","","","","","","","",""
"","image-keyboard-response","142","58324","0.0-142.0","3PJUZCGDJ72BSAARTF0QBIWMPW189S","A12EQIULBHM4HJ","3ECKRY5B1QIH1N6NFX1ECCW5ZDKIZQ","","126","img/flower3.png","75","127","2","1","3","2","1,0,0,1,1,0,1,0,1","0,1,0,0,1,1,1,1,0","3",""
"","html-keyboard-response","143","58631","0.0-143.0","3PJUZCGDJ72BSAARTF0QBIWMPW189S","A12EQIULBHM4HJ","3ECKRY5B1QIH1N6NFX1ECCW5ZDKIZQ","","null","<img src=""img/flower3.png"" style=""width:200px; border:14px solid green;"">","null","","","","","","","","",""
"","image-keyboard-response","144","58742","0.0-144.0","3PJUZCGDJ72BSAARTF0QBIWMPW189S","A12EQIULBHM4HJ","3ECKRY5B1QIH1N6NFX1ECCW5ZDKIZQ","","111","img/flower4.png","75","111","2","1","1","2","1,0,0,1,1,0,1,0,1","0,1,0,0,1,1,1,1,0","3",""
"","html-keyboard-response","145","59053","0.0-145.0","3PJUZCGDJ72BSAARTF0QBIWMPW189S","A12EQIULBHM4HJ","3ECKRY5B1QIH1N6NFX1ECCW5ZDKIZQ","","null","<img src=""img/flower4.png"" style=""width:200px; border:14px solid green;"">","null","","","","","","","","",""
"","image-keyboard-response","146","59157","0.0-146.0","3PJUZCGDJ72BSAARTF0QBIWMPW189S","A12EQIULBHM4HJ","3ECKRY5B1QIH1N6NFX1ECCW5ZDKIZQ","","104","img/flower4.png","75","104","2","1","1","2","1,0,0,1,1,0,1,0,1","0,1,0,0,1,1,1,1,0","3",""
"","html-keyboard-response","147","59472","0.0-147.0","3PJUZCGDJ72BSAARTF0QBIWMPW189S","A12EQIULBHM4HJ","3ECKRY5B1QIH1N6NFX1ECCW5ZDKIZQ","","null","<img src=""img/flower4.png"" style=""width:200px; border:14px solid green;"">","null","","","","","","","","",""
"","image-keyboard-response","148","59575","0.0-148.0","3PJUZCGDJ72BSAARTF0QBIWMPW189S","A12EQIULBHM4HJ","3ECKRY5B1QIH1N6NFX1ECCW5ZDKIZQ","","103","img/flower5.png","75","104","2","1","2","2","1,0,0,1,1,0,1,0,1","0,1,0,0,1,1,1,1,0","3",""
"","html-keyboard-response","149","59878","0.0-149.0","3PJUZCGDJ72BSAARTF0QBIWMPW189S","A12EQIULBHM4HJ","3ECKRY5B1QIH1N6NFX1ECCW5ZDKIZQ","","null","<img src=""img/flower5.png"" style=""width:200px; border:14px solid green;"">","null","","","","","","","","",""
"","image-keyboard-response","150","59992","0.0-150.0","3PJUZCGDJ72BSAARTF0QBIWMPW189S","A12EQIULBHM4HJ","3ECKRY5B1QIH1N6NFX1ECCW5ZDKIZQ","","115","img/flower5.png","75","115","2","1","2","2","1,0,0,1,1,0,1,0,1","0,1,0,0,1,1,1,1,0","3",""
"","html-keyboard-response","151","60295","0.0-151.0","3PJUZCGDJ72BSAARTF0QBIWMPW189S","A12EQIULBHM4HJ","3ECKRY5B1QIH1N6NFX1ECCW5ZDKIZQ","","null","<img src=""img/flower5.png"" style=""width:200px; border:14px solid green;"">","null","","","","","","","","",""
"","image-keyboard-response","152","60386","0.0-152.0","3PJUZCGDJ72BSAARTF0QBIWMPW189S","A12EQIULBHM4HJ","3ECKRY5B1QIH1N6NFX1ECCW5ZDKIZQ","","91","img/flower4.png","75","91","2","1","1","2","1,0,0,1,1,0,1,0,1","0,1,0,0,1,1,1,1,0","3",""
"","html-keyboard-response","153","60696","0.0-153.0","3PJUZCGDJ72BSAARTF0QBIWMPW189S","A12EQIULBHM4HJ","3ECKRY5B1QIH1N6NFX1ECCW5ZDKIZQ","","null","<img src=""img/flower4.png"" style=""width:200px; border:14px solid green;"">","null","","","","","","","","",""
"","image-keyboard-response","154","60847","0.0-154.0","3PJUZCGDJ72BSAARTF0QBIWMPW189S","A12EQIULBHM4HJ","3ECKRY5B1QIH1N6NFX1ECCW5ZDKIZQ","","151","img/flower4.png","75","152","2","1","1","2","1,0,0,1,1,0,1,0,1","0,1,0,0,1,1,1,1,0","3",""
"","html-keyboard-response","155","61162","0.0-155.0","3PJUZCGDJ72BSAARTF0QBIWMPW189S","A12EQIULBHM4HJ","3ECKRY5B1QIH1N6NFX1ECCW5ZDKIZQ","","null","<img src=""img/flower4.png"" style=""width:200px; border:14px solid green;"">","null","","","","","","","","",""
"","image-keyboard-response","156","61263","0.0-156.0","3PJUZCGDJ72BSAARTF0QBIWMPW189S","A12EQIULBHM4HJ","3ECKRY5B1QIH1N6NFX1ECCW5ZDKIZQ","","100","img/flower5.png","75","101","2","1","2","2","1,0,0,1,1,0,1,0,1","0,1,0,0,1,1,1,1,0","3",""
"","html-keyboard-response","157","61564","0.0-157.0","3PJUZCGDJ72BSAARTF0QBIWMPW189S","A12EQIULBHM4HJ","3ECKRY5B1QIH1N6NFX1ECCW5ZDKIZQ","","null","<img src=""img/flower5.png"" style=""width:200px; border:14px solid green;"">","null","","","","","","","","",""
"","image-keyboard-response","158","61695","0.0-158.0","3PJUZCGDJ72BSAARTF0QBIWMPW189S","A12EQIULBHM4HJ","3ECKRY5B1QIH1N6NFX1ECCW5ZDKIZQ","","130","img/flower5.png","75","130","2","1","2","2","1,0,0,1,1,0,1,0,1","0,1,0,0,1,1,1,1,0","3",""
"","html-keyboard-response","159","61998","0.0-159.0","3PJUZCGDJ72BSAARTF0QBIWMPW189S","A12EQIULBHM4HJ","3ECKRY5B1QIH1N6NFX1ECCW5ZDKIZQ","","null","<img src=""img/flower5.png"" style=""width:200px; border:14px solid green;"">","null","","","","","","","","",""
"","image-keyboard-response","160","62087","0.0-160.0","3PJUZCGDJ72BSAARTF0QBIWMPW189S","A12EQIULBHM4HJ","3ECKRY5B1QIH1N6NFX1ECCW5ZDKIZQ","","88","img/flower3.png","75","88","2","1","3","2","1,0,0,1,1,0,1,0,1","0,1,0,0,1,1,1,1,0","3",""
"","html-keyboard-response","161","62400","0.0-161.0","3PJUZCGDJ72BSAARTF0QBIWMPW189S","A12EQIULBHM4HJ","3ECKRY5B1QIH1N6NFX1ECCW5ZDKIZQ","","null","<img src=""img/flower3.png"" style=""width:200px; border:14px solid green;"">","null","","","","","","","","",""
"","image-keyboard-response","162","62524","0.0-162.0","3PJUZCGDJ72BSAARTF0QBIWMPW189S","A12EQIULBHM4HJ","3ECKRY5B1QIH1N6NFX1ECCW5ZDKIZQ","","124","img/flower4.png","75","124","2","1","1","2","1,0,0,1,1,0,1,0,1","0,1,0,0,1,1,1,1,0","3",""
"","html-keyboard-response","163","62836","0.0-163.0","3PJUZCGDJ72BSAARTF0QBIWMPW189S","A12EQIULBHM4HJ","3ECKRY5B1QIH1N6NFX1ECCW5ZDKIZQ","","null","<img src=""img/flower4.png"" style=""width:200px; border:14px solid green;"">","null","","","","","","","","",""
"","image-keyboard-response","164","62898","0.0-164.0","3PJUZCGDJ72BSAARTF0QBIWMPW189S","A12EQIULBHM4HJ","3ECKRY5B1QIH1N6NFX1ECCW5ZDKIZQ","","61","img/flower3.png","75","61","2","1","3","2","1,0,0,1,1,0,1,0,1","0,1,0,0,1,1,1,1,0","3",""
"","html-keyboard-response","165","63210","0.0-165.0","3PJUZCGDJ72BSAARTF0QBIWMPW189S","A12EQIULBHM4HJ","3ECKRY5B1QIH1N6NFX1ECCW5ZDKIZQ","","null","<img src=""img/flower3.png"" style=""width:200px; border:14px solid green;"">","null","","","","","","","","",""
"","image-keyboard-response","166","63356","0.0-166.0","3PJUZCGDJ72BSAARTF0QBIWMPW189S","A12EQIULBHM4HJ","3ECKRY5B1QIH1N6NFX1ECCW5ZDKIZQ","","145","img/flower3.png","75","145","2","1","3","2","1,0,0,1,1,0,1,0,1","0,1,0,0,1,1,1,1,0","3",""
"","html-keyboard-response","167","63659","0.0-167.0","3PJUZCGDJ72BSAARTF0QBIWMPW189S","A12EQIULBHM4HJ","3ECKRY5B1QIH1N6NFX1ECCW5ZDKIZQ","","null","<img src=""img/flower3.png"" style=""width:200px; border:14px solid green;"">","null","","","","","","","","",""
"","image-keyboard-response","168","63879","0.0-168.0","3PJUZCGDJ72BSAARTF0QBIWMPW189S","A12EQIULBHM4HJ","3ECKRY5B1QIH1N6NFX1ECCW5ZDKIZQ","","219","img/flower5.png","75","219","2","1","2","2","1,0,0,1,1,0,1,0,1","0,1,0,0,1,1,1,1,0","3",""
"","html-keyboard-response","169","64190","0.0-169.0","3PJUZCGDJ72BSAARTF0QBIWMPW189S","A12EQIULBHM4HJ","3ECKRY5B1QIH1N6NFX1ECCW5ZDKIZQ","","null","<img src=""img/flower5.png"" style=""width:200px; border:14px solid green;"">","null","","","","","","","","",""
"","image-keyboard-response","170","64417","0.0-170.0","3PJUZCGDJ72BSAARTF0QBIWMPW189S","A12EQIULBHM4HJ","3ECKRY5B1QIH1N6NFX1ECCW5ZDKIZQ","","226","img/flower3.png","75","227","2","1","3","2","1,0,0,1,1,0,1,0,1","0,1,0,0,1,1,1,1,0","3",""
"","html-keyboard-response","171","64718","0.0-171.0","3PJUZCGDJ72BSAARTF0QBIWMPW189S","A12EQIULBHM4HJ","3ECKRY5B1QIH1N6NFX1ECCW5ZDKIZQ","","null","<img src=""img/flower3.png"" style=""width:200px; border:14px solid green;"">","null","","","","","","","","",""
"","image-keyboard-response","172","64980","0.0-172.0","3PJUZCGDJ72BSAARTF0QBIWMPW189S","A12EQIULBHM4HJ","3ECKRY5B1QIH1N6NFX1ECCW5ZDKIZQ","","261","img/flower5.png","75","261","2","1","2","2","1,0,0,1,1,0,1,0,1","0,1,0,0,1,1,1,1,0","3",""
"","html-keyboard-response","173","65280","0.0-173.0","3PJUZCGDJ72BSAARTF0QBIWMPW189S","A12EQIULBHM4HJ","3ECKRY5B1QIH1N6NFX1ECCW5ZDKIZQ","","null","<img src=""img/flower5.png"" style=""width:200px; border:14px solid green;"">","null","","","","","","","","",""
"","image-keyboard-response","174","65538","0.0-174.0","3PJUZCGDJ72BSAARTF0QBIWMPW189S","A12EQIULBHM4HJ","3ECKRY5B1QIH1N6NFX1ECCW5ZDKIZQ","","257","img/flower5.png","75","257","2","1","2","2","1,0,0,1,1,0,1,0,1","0,1,0,0,1,1,1,1,0","3",""
"","html-keyboard-response","175","65851","0.0-175.0","3PJUZCGDJ72BSAARTF0QBIWMPW189S","A12EQIULBHM4HJ","3ECKRY5B1QIH1N6NFX1ECCW5ZDKIZQ","","null","<img src=""img/flower5.png"" style=""width:200px; border:14px solid green;"">","null","","","","","","","","",""
"","image-keyboard-response","176","66077","0.0-176.0","3PJUZCGDJ72BSAARTF0QBIWMPW189S","A12EQIULBHM4HJ","3ECKRY5B1QIH1N6NFX1ECCW5ZDKIZQ","","225","img/flower5.png","75","226","2","1","2","2","1,0,0,1,1,0,1,0,1","0,1,0,0,1,1,1,1,0","3",""
"","html-keyboard-response","177","66378","0.0-177.0","3PJUZCGDJ72BSAARTF0QBIWMPW189S","A12EQIULBHM4HJ","3ECKRY5B1QIH1N6NFX1ECCW5ZDKIZQ","","null","<img src=""img/flower5.png"" style=""width:200px; border:14px solid green;"">","null","","","","","","","","",""
"","image-keyboard-response","178","66578","0.0-178.0","3PJUZCGDJ72BSAARTF0QBIWMPW189S","A12EQIULBHM4HJ","3ECKRY5B1QIH1N6NFX1ECCW5ZDKIZQ","","200","img/flower5.png","75","201","2","1","2","2","1,0,0,1,1,0,1,0,1","0,1,0,0,1,1,1,1,0","3",""
"","html-keyboard-response","179","66888","0.0-179.0","3PJUZCGDJ72BSAARTF0QBIWMPW189S","A12EQIULBHM4HJ","3ECKRY5B1QIH1N6NFX1ECCW5ZDKIZQ","","null","<img src=""img/flower5.png"" style=""width:200px; border:14px solid green;"">","null","","","","","","","","",""
"","image-keyboard-response","180","67075","0.0-180.0","3PJUZCGDJ72BSAARTF0QBIWMPW189S","A12EQIULBHM4HJ","3ECKRY5B1QIH1N6NFX1ECCW5ZDKIZQ","","186","img/flower5.png","75","186","2","1","2","2","1,0,0,1,1,0,1,0,1","0,1,0,0,1,1,1,1,0","3",""
"","html-keyboard-response","181","67384","0.0-181.0","3PJUZCGDJ72BSAARTF0QBIWMPW189S","A12EQIULBHM4HJ","3ECKRY5B1QIH1N6NFX1ECCW5ZDKIZQ","","null","<img src=""img/flower5.png"" style=""width:200px; border:14px solid green;"">","null","","","","","","","","",""
"","image-keyboard-response","182","67616","0.0-182.0","3PJUZCGDJ72BSAARTF0QBIWMPW189S","A12EQIULBHM4HJ","3ECKRY5B1QIH1N6NFX1ECCW5ZDKIZQ","","232","img/flower2.png","75","233","2","0","1","1","1,0.333,0.333,0.333,1,0.333,0.333,0.333,1","1,0.333,0.333,0.333,1,0.333,0.333,0.333,1","1",""
"","html-keyboard-response","183","67930","0.0-183.0","3PJUZCGDJ72BSAARTF0QBIWMPW189S","A12EQIULBHM4HJ","3ECKRY5B1QIH1N6NFX1ECCW5ZDKIZQ","","null","<img src=""img/flower2.png"" style=""width:200px;border:14px solid red;"">","null","","","","","","","","",""
"","image-keyboard-response","184","68533","0.0-184.0","3PJUZCGDJ72BSAARTF0QBIWMPW189S","A12EQIULBHM4HJ","3ECKRY5B1QIH1N6NFX1ECCW5ZDKIZQ","","602","img/flower2.png","75","603","2","0","1","1","1,0.333,0.333,0.333,1,0.333,0.333,0.333,1","1,0.333,0.333,0.333,1,0.333,0.333,0.333,1","1",""
"","html-keyboard-response","185","68845","0.0-185.0","3PJUZCGDJ72BSAARTF0QBIWMPW189S","A12EQIULBHM4HJ","3ECKRY5B1QIH1N6NFX1ECCW5ZDKIZQ","","null","<img src=""img/flower2.png"" style=""width:200px;border:14px solid red;"">","null","","","","","","","","",""
"","image-keyboard-response","186","69068","0.0-186.0","3PJUZCGDJ72BSAARTF0QBIWMPW189S","A12EQIULBHM4HJ","3ECKRY5B1QIH1N6NFX1ECCW5ZDKIZQ","","223","img/flower1.png","76","223","3","1","3","1","1,0.333,0.333,0.333,1,0.333,0.333,0.333,1","1,0.333,0.333,0.333,1,0.333,0.333,0.333,1","1",""
"","html-keyboard-response","187","69373","0.0-187.0","3PJUZCGDJ72BSAARTF0QBIWMPW189S","A12EQIULBHM4HJ","3ECKRY5B1QIH1N6NFX1ECCW5ZDKIZQ","","null","<img src=""img/flower1.png"" style=""width:200px; border:14px solid green;"">","null","","","","","","","","",""
"","image-keyboard-response","188","69592","0.0-188.0","3PJUZCGDJ72BSAARTF0QBIWMPW189S","A12EQIULBHM4HJ","3ECKRY5B1QIH1N6NFX1ECCW5ZDKIZQ","","219","img/flower2.png","76","219","3","1","1","1","1,0.333,0.333,0.333,1,0.333,0.333,0.333,1","1,0.333,0.333,0.333,1,0.333,0.333,0.333,1","1",""
"","html-keyboard-response","189","69898","0.0-189.0","3PJUZCGDJ72BSAARTF0QBIWMPW189S","A12EQIULBHM4HJ","3ECKRY5B1QIH1N6NFX1ECCW5ZDKIZQ","","null","<img src=""img/flower2.png"" style=""width:200px; border:14px solid green;"">","null","","","","","","","","",""
"","image-keyboard-response","190","70068","0.0-190.0","3PJUZCGDJ72BSAARTF0QBIWMPW189S","A12EQIULBHM4HJ","3ECKRY5B1QIH1N6NFX1ECCW5ZDKIZQ","","170","img/flower6.png","76","170","3","0","2","1","1,0.333,0.333,0.333,1,0.333,0.333,0.333,1","1,0.333,0.333,0.333,1,0.333,0.333,0.333,1","1",""
"","html-keyboard-response","191","70380","0.0-191.0","3PJUZCGDJ72BSAARTF0QBIWMPW189S","A12EQIULBHM4HJ","3ECKRY5B1QIH1N6NFX1ECCW5ZDKIZQ","","null","<img src=""img/flower6.png"" style=""width:200px;border:14px solid red;"">","null","","","","","","","","",""
"","image-keyboard-response","192","70612","0.0-192.0","3PJUZCGDJ72BSAARTF0QBIWMPW189S","A12EQIULBHM4HJ","3ECKRY5B1QIH1N6NFX1ECCW5ZDKIZQ","","231","img/flower2.png","76","231","3","1","1","1","1,0.333,0.333,0.333,1,0.333,0.333,0.333,1","1,0.333,0.333,0.333,1,0.333,0.333,0.333,1","1",""
"","html-keyboard-response","193","70925","0.0-193.0","3PJUZCGDJ72BSAARTF0QBIWMPW189S","A12EQIULBHM4HJ","3ECKRY5B1QIH1N6NFX1ECCW5ZDKIZQ","","null","<img src=""img/flower2.png"" style=""width:200px; border:14px solid green;"">","null","","","","","","","","",""
"","image-keyboard-response","194","71066","0.0-194.0","3PJUZCGDJ72BSAARTF0QBIWMPW189S","A12EQIULBHM4HJ","3ECKRY5B1QIH1N6NFX1ECCW5ZDKIZQ","","141","img/flower6.png","75","141","2","1","2","1","1,0.333,0.333,0.333,1,0.333,0.333,0.333,1","1,0.333,0.333,0.333,1,0.333,0.333,0.333,1","1",""
"","html-keyboard-response","195","71375","0.0-195.0","3PJUZCGDJ72BSAARTF0QBIWMPW189S","A12EQIULBHM4HJ","3ECKRY5B1QIH1N6NFX1ECCW5ZDKIZQ","","null","<img src=""img/flower6.png"" style=""width:200px; border:14px solid green;"">","null","","","","","","","","",""
"","image-keyboard-response","196","71551","0.0-196.0","3PJUZCGDJ72BSAARTF0QBIWMPW189S","A12EQIULBHM4HJ","3ECKRY5B1QIH1N6NFX1ECCW5ZDKIZQ","","174","img/flower1.png","76","176","3","1","3","1","1,0.333,0.333,0.333,1,0.333,0.333,0.333,1","1,0.333,0.333,0.333,1,0.333,0.333,0.333,1","1",""
"","html-keyboard-response","197","71852","0.0-197.0","3PJUZCGDJ72BSAARTF0QBIWMPW189S","A12EQIULBHM4HJ","3ECKRY5B1QIH1N6NFX1ECCW5ZDKIZQ","","null","<img src=""img/flower1.png"" style=""width:200px; border:14px solid green;"">","null","","","","","","","","",""
"","image-keyboard-response","198","72020","0.0-198.0","3PJUZCGDJ72BSAARTF0QBIWMPW189S","A12EQIULBHM4HJ","3ECKRY5B1QIH1N6NFX1ECCW5ZDKIZQ","","167","img/flower6.png","76","167","3","1","2","1","1,0.333,0.333,0.333,1,0.333,0.333,0.333,1","1,0.333,0.333,0.333,1,0.333,0.333,0.333,1","1",""
"","html-keyboard-response","199","72329","0.0-199.0","3PJUZCGDJ72BSAARTF0QBIWMPW189S","A12EQIULBHM4HJ","3ECKRY5B1QIH1N6NFX1ECCW5ZDKIZQ","","null","<img src=""img/flower6.png"" style=""width:200px; border:14px solid green;"">","null","","","","","","","","",""
"","image-keyboard-response","200","72522","0.0-200.0","3PJUZCGDJ72BSAARTF0QBIWMPW189S","A12EQIULBHM4HJ","3ECKRY5B1QIH1N6NFX1ECCW5ZDKIZQ","","192","img/flower1.png","75","194","2","0","3","1","1,0.333,0.333,0.333,1,0.333,0.333,0.333,1","1,0.333,0.333,0.333,1,0.333,0.333,0.333,1","1",""
"","html-keyboard-response","201","72824","0.0-201.0","3PJUZCGDJ72BSAARTF0QBIWMPW189S","A12EQIULBHM4HJ","3ECKRY5B1QIH1N6NFX1ECCW5ZDKIZQ","","null","<img src=""img/flower1.png"" style=""width:200px;border:14px solid red;"">","null","","","","","","","","",""
"","image-keyboard-response","202","72997","0.0-202.0","3PJUZCGDJ72BSAARTF0QBIWMPW189S","A12EQIULBHM4HJ","3ECKRY5B1QIH1N6NFX1ECCW5ZDKIZQ","","172","img/flower6.png","76","172","3","0","2","1","1,0.333,0.333,0.333,1,0.333,0.333,0.333,1","1,0.333,0.333,0.333,1,0.333,0.333,0.333,1","1",""
"","html-keyboard-response","203","73301","0.0-203.0","3PJUZCGDJ72BSAARTF0QBIWMPW189S","A12EQIULBHM4HJ","3ECKRY5B1QIH1N6NFX1ECCW5ZDKIZQ","","null","<img src=""img/flower6.png"" style=""width:200px;border:14px solid red;"">","null","","","","","","","","",""
"","image-keyboard-response","204","73497","0.0-204.0","3PJUZCGDJ72BSAARTF0QBIWMPW189S","A12EQIULBHM4HJ","3ECKRY5B1QIH1N6NFX1ECCW5ZDKIZQ","","196","img/flower6.png","76","196","3","0","2","1","1,0.333,0.333,0.333,1,0.333,0.333,0.333,1","1,0.333,0.333,0.333,1,0.333,0.333,0.333,1","1",""
"","html-keyboard-response","205","73843","0.0-205.0","3PJUZCGDJ72BSAARTF0QBIWMPW189S","A12EQIULBHM4HJ","3ECKRY5B1QIH1N6NFX1ECCW5ZDKIZQ","","null","<img src=""img/flower6.png"" style=""width:200px;border:14px solid red;"">","null","","","","","","","","",""
"","image-keyboard-response","206","73916","0.0-206.0","3PJUZCGDJ72BSAARTF0QBIWMPW189S","A12EQIULBHM4HJ","3ECKRY5B1QIH1N6NFX1ECCW5ZDKIZQ","","72","img/flower2.png","75","72","2","1","1","1","1,0.333,0.333,0.333,1,0.333,0.333,0.333,1","1,0.333,0.333,0.333,1,0.333,0.333,0.333,1","1",""
"","html-keyboard-response","207","74229","0.0-207.0","3PJUZCGDJ72BSAARTF0QBIWMPW189S","A12EQIULBHM4HJ","3ECKRY5B1QIH1N6NFX1ECCW5ZDKIZQ","","null","<img src=""img/flower2.png"" style=""width:200px; border:14px solid green;"">","null","","","","","","","","",""
"","image-keyboard-response","208","74376","0.0-208.0","3PJUZCGDJ72BSAARTF0QBIWMPW189S","A12EQIULBHM4HJ","3ECKRY5B1QIH1N6NFX1ECCW5ZDKIZQ","","146","img/flower2.png","75","147","2","0","1","1","1,0.333,0.333,0.333,1,0.333,0.333,0.333,1","1,0.333,0.333,0.333,1,0.333,0.333,0.333,1","1",""
"","html-keyboard-response","209","74679","0.0-209.0","3PJUZCGDJ72BSAARTF0QBIWMPW189S","A12EQIULBHM4HJ","3ECKRY5B1QIH1N6NFX1ECCW5ZDKIZQ","","null","<img src=""img/flower2.png"" style=""width:200px;border:14px solid red;"">","null","","","","","","","","",""
"","image-keyboard-response","210","74881","0.0-210.0","3PJUZCGDJ72BSAARTF0QBIWMPW189S","A12EQIULBHM4HJ","3ECKRY5B1QIH1N6NFX1ECCW5ZDKIZQ","","203","img/flower6.png","76","203","3","0","2","1","1,0.333,0.333,0.333,1,0.333,0.333,0.333,1","1,0.333,0.333,0.333,1,0.333,0.333,0.333,1","1",""
"","html-keyboard-response","211","75191","0.0-211.0","3PJUZCGDJ72BSAARTF0QBIWMPW189S","A12EQIULBHM4HJ","3ECKRY5B1QIH1N6NFX1ECCW5ZDKIZQ","","null","<img src=""img/flower6.png"" style=""width:200px;border:14px solid red;"">","null","","","","","","","","",""
"","image-keyboard-response","212","75549","0.0-212.0","3PJUZCGDJ72BSAARTF0QBIWMPW189S","A12EQIULBHM4HJ","3ECKRY5B1QIH1N6NFX1ECCW5ZDKIZQ","","356","img/flower6.png","76","357","3","0","2","1","1,0.333,0.333,0.333,1,0.333,0.333,0.333,1","1,0.333,0.333,0.333,1,0.333,0.333,0.333,1","1",""
"","html-keyboard-response","213","75860","0.0-213.0","3PJUZCGDJ72BSAARTF0QBIWMPW189S","A12EQIULBHM4HJ","3ECKRY5B1QIH1N6NFX1ECCW5ZDKIZQ","","null","<img src=""img/flower6.png"" style=""width:200px;border:14px solid red;"">","null","","","","","","","","",""
"","image-keyboard-response","214","75871","0.0-214.0","3PJUZCGDJ72BSAARTF0QBIWMPW189S","A12EQIULBHM4HJ","3ECKRY5B1QIH1N6NFX1ECCW5ZDKIZQ","","11","img/flower2.png","75","13","2","0","1","1","1,0.333,0.333,0.333,1,0.333,0.333,0.333,1","1,0.333,0.333,0.333,1,0.333,0.333,0.333,1","1",""
"","html-keyboard-response","215","76187","0.0-215.0","3PJUZCGDJ72BSAARTF0QBIWMPW189S","A12EQIULBHM4HJ","3ECKRY5B1QIH1N6NFX1ECCW5ZDKIZQ","","null","<img src=""img/flower2.png"" style=""width:200px;border:14px solid red;"">","null","","","","","","","","",""
"","image-keyboard-response","216","76436","0.0-216.0","3PJUZCGDJ72BSAARTF0QBIWMPW189S","A12EQIULBHM4HJ","3ECKRY5B1QIH1N6NFX1ECCW5ZDKIZQ","","250","img/flower2.png","75","250","2","0","1","1","1,0.333,0.333,0.333,1,0.333,0.333,0.333,1","1,0.333,0.333,0.333,1,0.333,0.333,0.333,1","1",""
"","html-keyboard-response","217","76743","0.0-217.0","3PJUZCGDJ72BSAARTF0QBIWMPW189S","A12EQIULBHM4HJ","3ECKRY5B1QIH1N6NFX1ECCW5ZDKIZQ","","null","<img src=""img/flower2.png"" style=""width:200px;border:14px solid red;"">","null","","","","","","","","",""
"","image-keyboard-response","218","76844","0.0-218.0","3PJUZCGDJ72BSAARTF0QBIWMPW189S","A12EQIULBHM4HJ","3ECKRY5B1QIH1N6NFX1ECCW5ZDKIZQ","","100","img/flower2.png","75","100","2","0","1","1","1,0.333,0.333,0.333,1,0.333,0.333,0.333,1","1,0.333,0.333,0.333,1,0.333,0.333,0.333,1","1",""
"","html-keyboard-response","219","77149","0.0-219.0","3PJUZCGDJ72BSAARTF0QBIWMPW189S","A12EQIULBHM4HJ","3ECKRY5B1QIH1N6NFX1ECCW5ZDKIZQ","","null","<img src=""img/flower2.png"" style=""width:200px;border:14px solid red;"">","null","","","","","","","","",""
"","image-keyboard-response","220","77428","0.0-220.0","3PJUZCGDJ72BSAARTF0QBIWMPW189S","A12EQIULBHM4HJ","3ECKRY5B1QIH1N6NFX1ECCW5ZDKIZQ","","280","img/flower1.png","75","280","2","1","3","1","1,0.333,0.333,0.333,1,0.333,0.333,0.333,1","1,0.333,0.333,0.333,1,0.333,0.333,0.333,1","1",""
"","html-keyboard-response","221","77736","0.0-221.0","3PJUZCGDJ72BSAARTF0QBIWMPW189S","A12EQIULBHM4HJ","3ECKRY5B1QIH1N6NFX1ECCW5ZDKIZQ","","null","<img src=""img/flower1.png"" style=""width:200px; border:14px solid green;"">","null","","","","","","","","",""
"","image-keyboard-response","222","77947","0.0-222.0","3PJUZCGDJ72BSAARTF0QBIWMPW189S","A12EQIULBHM4HJ","3ECKRY5B1QIH1N6NFX1ECCW5ZDKIZQ","","210","img/flower2.png","75","212","2","0","1","1","1,0.333,0.333,0.333,1,0.333,0.333,0.333,1","1,0.333,0.333,0.333,1,0.333,0.333,0.333,1","1",""
"","html-keyboard-response","223","78249","0.0-223.0","3PJUZCGDJ72BSAARTF0QBIWMPW189S","A12EQIULBHM4HJ","3ECKRY5B1QIH1N6NFX1ECCW5ZDKIZQ","","null","<img src=""img/flower2.png"" style=""width:200px;border:14px solid red;"">","null","","","","","","","","",""
"","image-keyboard-response","224","78466","0.0-224.0","3PJUZCGDJ72BSAARTF0QBIWMPW189S","A12EQIULBHM4HJ","3ECKRY5B1QIH1N6NFX1ECCW5ZDKIZQ","","215","img/flower1.png","74","216","1","1","3","1","1,0.333,0.333,0.333,1,0.333,0.333,0.333,1","1,0.333,0.333,0.333,1,0.333,0.333,0.333,1","1",""
"","html-keyboard-response","225","78775","0.0-225.0","3PJUZCGDJ72BSAARTF0QBIWMPW189S","A12EQIULBHM4HJ","3ECKRY5B1QIH1N6NFX1ECCW5ZDKIZQ","","null","<img src=""img/flower1.png"" style=""width:200px; border:14px solid green;"">","null","","","","","","","","",""
"","image-keyboard-response","226","79283","0.0-226.0","3PJUZCGDJ72BSAARTF0QBIWMPW189S","A12EQIULBHM4HJ","3ECKRY5B1QIH1N6NFX1ECCW5ZDKIZQ","","507","img/flower2.png","74","507","1","1","1","1","1,0.333,0.333,0.333,1,0.333,0.333,0.333,1","1,0.333,0.333,0.333,1,0.333,0.333,0.333,1","1",""
"","html-keyboard-response","227","79597","0.0-227.0","3PJUZCGDJ72BSAARTF0QBIWMPW189S","A12EQIULBHM4HJ","3ECKRY5B1QIH1N6NFX1ECCW5ZDKIZQ","","null","<img src=""img/flower2.png"" style=""width:200px; border:14px solid green;"">","null","","","","","","","","",""
"","image-keyboard-response","228","79869","0.0-228.0","3PJUZCGDJ72BSAARTF0QBIWMPW189S","A12EQIULBHM4HJ","3ECKRY5B1QIH1N6NFX1ECCW5ZDKIZQ","","270","img/flower6.png","74","271","1","1","2","1","1,0.333,0.333,0.333,1,0.333,0.333,0.333,1","1,0.333,0.333,0.333,1,0.333,0.333,0.333,1","1",""
"","html-keyboard-response","229","80169","0.0-229.0","3PJUZCGDJ72BSAARTF0QBIWMPW189S","A12EQIULBHM4HJ","3ECKRY5B1QIH1N6NFX1ECCW5ZDKIZQ","","null","<img src=""img/flower6.png"" style=""width:200px; border:14px solid green;"">","null","","","","","","","","",""
"","image-keyboard-response","230","80450","0.0-230.0","3PJUZCGDJ72BSAARTF0QBIWMPW189S","A12EQIULBHM4HJ","3ECKRY5B1QIH1N6NFX1ECCW5ZDKIZQ","","281","img/flower1.png","74","282","1","1","3","1","1,0.333,0.333,0.333,1,0.333,0.333,0.333,1","1,0.333,0.333,0.333,1,0.333,0.333,0.333,1","1",""
"","html-keyboard-response","231","80758","0.0-231.0","3PJUZCGDJ72BSAARTF0QBIWMPW189S","A12EQIULBHM4HJ","3ECKRY5B1QIH1N6NFX1ECCW5ZDKIZQ","","null","<img src=""img/flower1.png"" style=""width:200px; border:14px solid green;"">","null","","","","","","","","",""
"","image-keyboard-response","232","80982","0.0-232.0","3PJUZCGDJ72BSAARTF0QBIWMPW189S","A12EQIULBHM4HJ","3ECKRY5B1QIH1N6NFX1ECCW5ZDKIZQ","","224","img/flower1.png","74","224","1","0","3","1","1,0.333,0.333,0.333,1,0.333,0.333,0.333,1","1,0.333,0.333,0.333,1,0.333,0.333,0.333,1","1",""
"","html-keyboard-response","233","81285","0.0-233.0","3PJUZCGDJ72BSAARTF0QBIWMPW189S","A12EQIULBHM4HJ","3ECKRY5B1QIH1N6NFX1ECCW5ZDKIZQ","","null","<img src=""img/flower1.png"" style=""width:200px;border:14px solid red;"">","null","","","","","","","","",""
"","image-keyboard-response","234","81520","0.0-234.0","3PJUZCGDJ72BSAARTF0QBIWMPW189S","A12EQIULBHM4HJ","3ECKRY5B1QIH1N6NFX1ECCW5ZDKIZQ","","234","img/flower2.png","75","235","2","0","1","1","1,0.333,0.333,0.333,1,0.333,0.333,0.333,1","1,0.333,0.333,0.333,1,0.333,0.333,0.333,1","1",""
"","html-keyboard-response","235","81826","0.0-235.0","3PJUZCGDJ72BSAARTF0QBIWMPW189S","A12EQIULBHM4HJ","3ECKRY5B1QIH1N6NFX1ECCW5ZDKIZQ","","null","<img src=""img/flower2.png"" style=""width:200px;border:14px solid red;"">","null","","","","","","","","",""
"","image-keyboard-response","236","82041","0.0-236.0","3PJUZCGDJ72BSAARTF0QBIWMPW189S","A12EQIULBHM4HJ","3ECKRY5B1QIH1N6NFX1ECCW5ZDKIZQ","","214","img/flower1.png","76","214","3","1","3","1","1,0.333,0.333,0.333,1,0.333,0.333,0.333,1","1,0.333,0.333,0.333,1,0.333,0.333,0.333,1","1",""
"","html-keyboard-response","237","82352","0.0-237.0","3PJUZCGDJ72BSAARTF0QBIWMPW189S","A12EQIULBHM4HJ","3ECKRY5B1QIH1N6NFX1ECCW5ZDKIZQ","","null","<img src=""img/flower1.png"" style=""width:200px; border:14px solid green;"">","null","","","","","","","","",""
"","image-keyboard-response","238","82547","0.0-238.0","3PJUZCGDJ72BSAARTF0QBIWMPW189S","A12EQIULBHM4HJ","3ECKRY5B1QIH1N6NFX1ECCW5ZDKIZQ","","194","img/flower6.png","74","196","1","1","2","1","1,0.333,0.333,0.333,1,0.333,0.333,0.333,1","1,0.333,0.333,0.333,1,0.333,0.333,0.333,1","1",""
"","html-keyboard-response","239","82848","0.0-239.0","3PJUZCGDJ72BSAARTF0QBIWMPW189S","A12EQIULBHM4HJ","3ECKRY5B1QIH1N6NFX1ECCW5ZDKIZQ","","null","<img src=""img/flower6.png"" style=""width:200px; border:14px solid green;"">","null","","","","","","","","",""
"","image-keyboard-response","240","83101","0.0-240.0","3PJUZCGDJ72BSAARTF0QBIWMPW189S","A12EQIULBHM4HJ","3ECKRY5B1QIH1N6NFX1ECCW5ZDKIZQ","","253","img/flower6.png","76","253","3","1","2","1","1,0.333,0.333,0.333,1,0.333,0.333,0.333,1","1,0.333,0.333,0.333,1,0.333,0.333,0.333,1","1",""
"","html-keyboard-response","241","83410","0.0-241.0","3PJUZCGDJ72BSAARTF0QBIWMPW189S","A12EQIULBHM4HJ","3ECKRY5B1QIH1N6NFX1ECCW5ZDKIZQ","","null","<img src=""img/flower6.png"" style=""width:200px; border:14px solid green;"">","null","","","","","","","","",""
"","image-keyboard-response","242","83646","0.0-242.0","3PJUZCGDJ72BSAARTF0QBIWMPW189S","A12EQIULBHM4HJ","3ECKRY5B1QIH1N6NFX1ECCW5ZDKIZQ","","235","img/flower1.png","74","236","1","0","3","1","1,0.333,0.333,0.333,1,0.333,0.333,0.333,1","1,0.333,0.333,0.333,1,0.333,0.333,0.333,1","1",""
"","html-keyboard-response","243","83949","0.0-243.0","3PJUZCGDJ72BSAARTF0QBIWMPW189S","A12EQIULBHM4HJ","3ECKRY5B1QIH1N6NFX1ECCW5ZDKIZQ","","null","<img src=""img/flower1.png"" style=""width:200px;border:14px solid red;"">","null","","","","","","","","",""
"","image-keyboard-response","244","84583","0.0-244.0","3PJUZCGDJ72BSAARTF0QBIWMPW189S","A12EQIULBHM4HJ","3ECKRY5B1QIH1N6NFX1ECCW5ZDKIZQ","","633","img/flower1.png","74","634","1","0","3","1","1,0.333,0.333,0.333,1,0.333,0.333,0.333,1","1,0.333,0.333,0.333,1,0.333,0.333,0.333,1","1",""
"","html-keyboard-response","245","84893","0.0-245.0","3PJUZCGDJ72BSAARTF0QBIWMPW189S","A12EQIULBHM4HJ","3ECKRY5B1QIH1N6NFX1ECCW5ZDKIZQ","","null","<img src=""img/flower1.png"" style=""width:200px;border:14px solid red;"">","null","","","","","","","","",""
"","image-keyboard-response","246","84969","0.0-246.0","3PJUZCGDJ72BSAARTF0QBIWMPW189S","A12EQIULBHM4HJ","3ECKRY5B1QIH1N6NFX1ECCW5ZDKIZQ","","76","img/flower2.png","75","76","2","0","1","1","1,0.333,0.333,0.333,1,0.333,0.333,0.333,1","1,0.333,0.333,0.333,1,0.333,0.333,0.333,1","1",""
"","html-keyboard-response","247","85280","0.0-247.0","3PJUZCGDJ72BSAARTF0QBIWMPW189S","A12EQIULBHM4HJ","3ECKRY5B1QIH1N6NFX1ECCW5ZDKIZQ","","null","<img src=""img/flower2.png"" style=""width:200px;border:14px solid red;"">","null","","","","","","","","",""
"","image-keyboard-response","248","85573","0.0-248.0","3PJUZCGDJ72BSAARTF0QBIWMPW189S","A12EQIULBHM4HJ","3ECKRY5B1QIH1N6NFX1ECCW5ZDKIZQ","","293","img/flower2.png","74","293","1","1","1","1","1,0.333,0.333,0.333,1,0.333,0.333,0.333,1","1,0.333,0.333,0.333,1,0.333,0.333,0.333,1","1",""
"","html-keyboard-response","249","85887","0.0-249.0","3PJUZCGDJ72BSAARTF0QBIWMPW189S","A12EQIULBHM4HJ","3ECKRY5B1QIH1N6NFX1ECCW5ZDKIZQ","","null","<img src=""img/flower2.png"" style=""width:200px; border:14px solid green;"">","null","","","","","","","","",""
"","image-keyboard-response","250","86392","0.0-250.0","3PJUZCGDJ72BSAARTF0QBIWMPW189S","A12EQIULBHM4HJ","3ECKRY5B1QIH1N6NFX1ECCW5ZDKIZQ","","504","img/flower1.png","74","505","1","1","3","1","1,0.333,0.333,0.333,1,0.333,0.333,0.333,1","1,0.333,0.333,0.333,1,0.333,0.333,0.333,1","1",""
"","html-keyboard-response","251","86693","0.0-251.0","3PJUZCGDJ72BSAARTF0QBIWMPW189S","A12EQIULBHM4HJ","3ECKRY5B1QIH1N6NFX1ECCW5ZDKIZQ","","null","<img src=""img/flower1.png"" style=""width:200px; border:14px solid green;"">","null","","","","","","","","",""
"","image-keyboard-response","252","86967","0.0-252.0","3PJUZCGDJ72BSAARTF0QBIWMPW189S","A12EQIULBHM4HJ","3ECKRY5B1QIH1N6NFX1ECCW5ZDKIZQ","","272","img/flower6.png","74","274","1","0","2","1","1,0.333,0.333,0.333,1,0.333,0.333,0.333,1","1,0.333,0.333,0.333,1,0.333,0.333,0.333,1","1",""
"","html-keyboard-response","253","87269","0.0-253.0","3PJUZCGDJ72BSAARTF0QBIWMPW189S","A12EQIULBHM4HJ","3ECKRY5B1QIH1N6NFX1ECCW5ZDKIZQ","","null","<img src=""img/flower6.png"" style=""width:200px;border:14px solid red;"">","null","","","","","","","","",""
"","image-keyboard-response","254","87862","0.0-254.0","3PJUZCGDJ72BSAARTF0QBIWMPW189S","A12EQIULBHM4HJ","3ECKRY5B1QIH1N6NFX1ECCW5ZDKIZQ","","592","img/flower6.png","74","592","1","0","2","1","1,0.333,0.333,0.333,1,0.333,0.333,0.333,1","1,0.333,0.333,0.333,1,0.333,0.333,0.333,1","1",""
"","html-keyboard-response","255","88166","0.0-255.0","3PJUZCGDJ72BSAARTF0QBIWMPW189S","A12EQIULBHM4HJ","3ECKRY5B1QIH1N6NFX1ECCW5ZDKIZQ","","null","<img src=""img/flower6.png"" style=""width:200px;border:14px solid red;"">","null","","","","","","","","",""
"","image-keyboard-response","256","88564","0.0-256.0","3PJUZCGDJ72BSAARTF0QBIWMPW189S","A12EQIULBHM4HJ","3ECKRY5B1QIH1N6NFX1ECCW5ZDKIZQ","","398","img/flower2.png","74","399","1","1","1","1","1,0.333,0.333,0.333,1,0.333,0.333,0.333,1","1,0.333,0.333,0.333,1,0.333,0.333,0.333,1","1",""
"","html-keyboard-response","257","88879","0.0-257.0","3PJUZCGDJ72BSAARTF0QBIWMPW189S","A12EQIULBHM4HJ","3ECKRY5B1QIH1N6NFX1ECCW5ZDKIZQ","","null","<img src=""img/flower2.png"" style=""width:200px; border:14px solid green;"">","null","","","","","","","","",""
"","image-keyboard-response","258","89088","0.0-258.0","3PJUZCGDJ72BSAARTF0QBIWMPW189S","A12EQIULBHM4HJ","3ECKRY5B1QIH1N6NFX1ECCW5ZDKIZQ","","208","img/flower2.png","74","209","1","1","1","1","1,0.333,0.333,0.333,1,0.333,0.333,0.333,1","1,0.333,0.333,0.333,1,0.333,0.333,0.333,1","1",""
"","html-keyboard-response","259","89389","0.0-259.0","3PJUZCGDJ72BSAARTF0QBIWMPW189S","A12EQIULBHM4HJ","3ECKRY5B1QIH1N6NFX1ECCW5ZDKIZQ","","null","<img src=""img/flower2.png"" style=""width:200px; border:14px solid green;"">","null","","","","","","","","",""
"","image-keyboard-response","260","89541","0.0-260.0","3PJUZCGDJ72BSAARTF0QBIWMPW189S","A12EQIULBHM4HJ","3ECKRY5B1QIH1N6NFX1ECCW5ZDKIZQ","","151","img/flower1.png","74","151","1","1","3","1","1,0.333,0.333,0.333,1,0.333,0.333,0.333,1","1,0.333,0.333,0.333,1,0.333,0.333,0.333,1","1",""
"","html-keyboard-response","261","89854","0.0-261.0","3PJUZCGDJ72BSAARTF0QBIWMPW189S","A12EQIULBHM4HJ","3ECKRY5B1QIH1N6NFX1ECCW5ZDKIZQ","","null","<img src=""img/flower1.png"" style=""width:200px; border:14px solid green;"">","null","","","","","","","","",""
"","image-keyboard-response","262","90001","0.0-262.0","3PJUZCGDJ72BSAARTF0QBIWMPW189S","A12EQIULBHM4HJ","3ECKRY5B1QIH1N6NFX1ECCW5ZDKIZQ","","145","img/flower1.png","74","145","1","0","3","1","1,0.333,0.333,0.333,1,0.333,0.333,0.333,1","1,0.333,0.333,0.333,1,0.333,0.333,0.333,1","1",""
"","html-keyboard-response","263","90301","0.0-263.0","3PJUZCGDJ72BSAARTF0QBIWMPW189S","A12EQIULBHM4HJ","3ECKRY5B1QIH1N6NFX1ECCW5ZDKIZQ","","null","<img src=""img/flower1.png"" style=""width:200px;border:14px solid red;"">","null","","","","","","","","",""
"","image-keyboard-response","264","90648","0.0-264.0","3PJUZCGDJ72BSAARTF0QBIWMPW189S","A12EQIULBHM4HJ","3ECKRY5B1QIH1N6NFX1ECCW5ZDKIZQ","","347","img/flower1.png","74","347","1","1","3","1","1,0.333,0.333,0.333,1,0.333,0.333,0.333,1","1,0.333,0.333,0.333,1,0.333,0.333,0.333,1","1",""
"","html-keyboard-response","265","90951","0.0-265.0","3PJUZCGDJ72BSAARTF0QBIWMPW189S","A12EQIULBHM4HJ","3ECKRY5B1QIH1N6NFX1ECCW5ZDKIZQ","","null","<img src=""img/flower1.png"" style=""width:200px; border:14px solid green;"">","null","","","","","","","","",""
"","image-keyboard-response","266","91107","0.0-266.0","3PJUZCGDJ72BSAARTF0QBIWMPW189S","A12EQIULBHM4HJ","3ECKRY5B1QIH1N6NFX1ECCW5ZDKIZQ","","154","img/flower1.png","74","156","1","0","3","1","1,0.333,0.333,0.333,1,0.333,0.333,0.333,1","1,0.333,0.333,0.333,1,0.333,0.333,0.333,1","1",""
"","html-keyboard-response","267","91418","0.0-267.0","3PJUZCGDJ72BSAARTF0QBIWMPW189S","A12EQIULBHM4HJ","3ECKRY5B1QIH1N6NFX1ECCW5ZDKIZQ","","null","<img src=""img/flower1.png"" style=""width:200px;border:14px solid red;"">","null","","","","","","","","",""
"","image-keyboard-response","268","91753","0.0-268.0","3PJUZCGDJ72BSAARTF0QBIWMPW189S","A12EQIULBHM4HJ","3ECKRY5B1QIH1N6NFX1ECCW5ZDKIZQ","","335","img/flower1.png","74","336","1","1","3","1","1,0.333,0.333,0.333,1,0.333,0.333,0.333,1","1,0.333,0.333,0.333,1,0.333,0.333,0.333,1","1",""
"","html-keyboard-response","269","92069","0.0-269.0","3PJUZCGDJ72BSAARTF0QBIWMPW189S","A12EQIULBHM4HJ","3ECKRY5B1QIH1N6NFX1ECCW5ZDKIZQ","","null","<img src=""img/flower1.png"" style=""width:200px; border:14px solid green;"">","null","","","","","","","","",""
"","image-keyboard-response","270","92313","0.0-270.0","3PJUZCGDJ72BSAARTF0QBIWMPW189S","A12EQIULBHM4HJ","3ECKRY5B1QIH1N6NFX1ECCW5ZDKIZQ","","244","img/flower2.png","74","244","1","1","1","1","1,0.333,0.333,0.333,1,0.333,0.333,0.333,1","1,0.333,0.333,0.333,1,0.333,0.333,0.333,1","1",""
"","html-keyboard-response","271","92627","0.0-271.0","3PJUZCGDJ72BSAARTF0QBIWMPW189S","A12EQIULBHM4HJ","3ECKRY5B1QIH1N6NFX1ECCW5ZDKIZQ","","null","<img src=""img/flower2.png"" style=""width:200px; border:14px solid green;"">","null","","","","","","","","",""
"","image-keyboard-response","272","92806","0.0-272.0","3PJUZCGDJ72BSAARTF0QBIWMPW189S","A12EQIULBHM4HJ","3ECKRY5B1QIH1N6NFX1ECCW5ZDKIZQ","","178","img/flower1.png","74","180","1","0","3","1","1,0.333,0.333,0.333,1,0.333,0.333,0.333,1","1,0.333,0.333,0.333,1,0.333,0.333,0.333,1","1",""
"","html-keyboard-response","273","93109","0.0-273.0","3PJUZCGDJ72BSAARTF0QBIWMPW189S","A12EQIULBHM4HJ","3ECKRY5B1QIH1N6NFX1ECCW5ZDKIZQ","","null","<img src=""img/flower1.png"" style=""width:200px;border:14px solid red;"">","null","","","","","","","","",""
"","image-keyboard-response","274","93366","0.0-274.0","3PJUZCGDJ72BSAARTF0QBIWMPW189S","A12EQIULBHM4HJ","3ECKRY5B1QIH1N6NFX1ECCW5ZDKIZQ","","256","img/flower1.png","74","257","1","0","3","1","1,0.333,0.333,0.333,1,0.333,0.333,0.333,1","1,0.333,0.333,0.333,1,0.333,0.333,0.333,1","1",""
"","html-keyboard-response","275","93669","0.0-275.0","3PJUZCGDJ72BSAARTF0QBIWMPW189S","A12EQIULBHM4HJ","3ECKRY5B1QIH1N6NFX1ECCW5ZDKIZQ","","null","<img src=""img/flower1.png"" style=""width:200px;border:14px solid red;"">","null","","","","","","","","",""
"","image-keyboard-response","276","94217","0.0-276.0","3PJUZCGDJ72BSAARTF0QBIWMPW189S","A12EQIULBHM4HJ","3ECKRY5B1QIH1N6NFX1ECCW5ZDKIZQ","","547","img/flower2.png","74","547","1","1","1","1","1,0.333,0.333,0.333,1,0.333,0.333,0.333,1","1,0.333,0.333,0.333,1,0.333,0.333,0.333,1","1",""
"","html-keyboard-response","277","94522","0.0-277.0","3PJUZCGDJ72BSAARTF0QBIWMPW189S","A12EQIULBHM4HJ","3ECKRY5B1QIH1N6NFX1ECCW5ZDKIZQ","","null","<img src=""img/flower2.png"" style=""width:200px; border:14px solid green;"">","null","","","","","","","","",""
"","image-keyboard-response","278","94947","0.0-278.0","3PJUZCGDJ72BSAARTF0QBIWMPW189S","A12EQIULBHM4HJ","3ECKRY5B1QIH1N6NFX1ECCW5ZDKIZQ","","425","img/flower6.png","76","425","3","0","2","1","1,0.333,0.333,0.333,1,0.333,0.333,0.333,1","1,0.333,0.333,0.333,1,0.333,0.333,0.333,1","1",""
"","html-keyboard-response","279","95251","0.0-279.0","3PJUZCGDJ72BSAARTF0QBIWMPW189S","A12EQIULBHM4HJ","3ECKRY5B1QIH1N6NFX1ECCW5ZDKIZQ","","null","<img src=""img/flower6.png"" style=""width:200px;border:14px solid red;"">","null","","","","","","","","",""
"","image-keyboard-response","280","95647","0.0-280.0","3PJUZCGDJ72BSAARTF0QBIWMPW189S","A12EQIULBHM4HJ","3ECKRY5B1QIH1N6NFX1ECCW5ZDKIZQ","","395","img/flower6.png","75","396","2","1","2","1","1,0.333,0.333,0.333,1,0.333,0.333,0.333,1","1,0.333,0.333,0.333,1,0.333,0.333,0.333,1","1",""
"","html-keyboard-response","281","95948","0.0-281.0","3PJUZCGDJ72BSAARTF0QBIWMPW189S","A12EQIULBHM4HJ","3ECKRY5B1QIH1N6NFX1ECCW5ZDKIZQ","","null","<img src=""img/flower6.png"" style=""width:200px; border:14px solid green;"">","null","","","","","","","","",""
"","image-keyboard-response","282","96383","0.0-282.0","3PJUZCGDJ72BSAARTF0QBIWMPW189S","A12EQIULBHM4HJ","3ECKRY5B1QIH1N6NFX1ECCW5ZDKIZQ","","434","img/flower2.png","74","434","1","1","1","1","1,0.333,0.333,0.333,1,0.333,0.333,0.333,1","1,0.333,0.333,0.333,1,0.333,0.333,0.333,1","1",""
"","html-keyboard-response","283","96690","0.0-283.0","3PJUZCGDJ72BSAARTF0QBIWMPW189S","A12EQIULBHM4HJ","3ECKRY5B1QIH1N6NFX1ECCW5ZDKIZQ","","null","<img src=""img/flower2.png"" style=""width:200px; border:14px solid green;"">","null","","","","","","","","",""
"","image-keyboard-response","284","97147","0.0-284.0","3PJUZCGDJ72BSAARTF0QBIWMPW189S","A12EQIULBHM4HJ","3ECKRY5B1QIH1N6NFX1ECCW5ZDKIZQ","","458","img/flower6.png","75","458","2","1","2","1","1,0.333,0.333,0.333,1,0.333,0.333,0.333,1","1,0.333,0.333,0.333,1,0.333,0.333,0.333,1","1",""
"","html-keyboard-response","285","97461","0.0-285.0","3PJUZCGDJ72BSAARTF0QBIWMPW189S","A12EQIULBHM4HJ","3ECKRY5B1QIH1N6NFX1ECCW5ZDKIZQ","","null","<img src=""img/flower6.png"" style=""width:200px; border:14px solid green;"">","null","","","","","","","","",""
"","image-keyboard-response","286","97794","0.0-286.0","3PJUZCGDJ72BSAARTF0QBIWMPW189S","A12EQIULBHM4HJ","3ECKRY5B1QIH1N6NFX1ECCW5ZDKIZQ","","333","img/flower2.png","74","333","1","1","1","1","1,0.333,0.333,0.333,1,0.333,0.333,0.333,1","1,0.333,0.333,0.333,1,0.333,0.333,0.333,1","1",""
"","html-keyboard-response","287","98096","0.0-287.0","3PJUZCGDJ72BSAARTF0QBIWMPW189S","A12EQIULBHM4HJ","3ECKRY5B1QIH1N6NFX1ECCW5ZDKIZQ","","null","<img src=""img/flower2.png"" style=""width:200px; border:14px solid green;"">","null","","","","","","","","",""
"","image-keyboard-response","288","98411","0.0-288.0","3PJUZCGDJ72BSAARTF0QBIWMPW189S","A12EQIULBHM4HJ","3ECKRY5B1QIH1N6NFX1ECCW5ZDKIZQ","","313","img/flower6.png","75","314","2","1","2","1","1,0.333,0.333,0.333,1,0.333,0.333,0.333,1","1,0.333,0.333,0.333,1,0.333,0.333,0.333,1","1",""
"","html-keyboard-response","289","98722","0.0-289.0","3PJUZCGDJ72BSAARTF0QBIWMPW189S","A12EQIULBHM4HJ","3ECKRY5B1QIH1N6NFX1ECCW5ZDKIZQ","","null","<img src=""img/flower6.png"" style=""width:200px; border:14px solid green;"">","null","","","","","","","","",""
"","image-keyboard-response","290","98995","0.0-290.0","3PJUZCGDJ72BSAARTF0QBIWMPW189S","A12EQIULBHM4HJ","3ECKRY5B1QIH1N6NFX1ECCW5ZDKIZQ","","272","img/flower1.png","74","273","1","1","3","1","1,0.333,0.333,0.333,1,0.333,0.333,0.333,1","1,0.333,0.333,0.333,1,0.333,0.333,0.333,1","1",""
"","html-keyboard-response","291","99311","0.0-291.0","3PJUZCGDJ72BSAARTF0QBIWMPW189S","A12EQIULBHM4HJ","3ECKRY5B1QIH1N6NFX1ECCW5ZDKIZQ","","null","<img src=""img/flower1.png"" style=""width:200px; border:14px solid green;"">","null","","","","","","","","",""
"","image-keyboard-response","292","99597","0.0-292.0","3PJUZCGDJ72BSAARTF0QBIWMPW189S","A12EQIULBHM4HJ","3ECKRY5B1QIH1N6NFX1ECCW5ZDKIZQ","","286","img/flower6.png","75","287","2","1","2","1","1,0.333,0.333,0.333,1,0.333,0.333,0.333,1","1,0.333,0.333,0.333,1,0.333,0.333,0.333,1","1",""
"","html-keyboard-response","293","99903","0.0-293.0","3PJUZCGDJ72BSAARTF0QBIWMPW189S","A12EQIULBHM4HJ","3ECKRY5B1QIH1N6NFX1ECCW5ZDKIZQ","","null","<img src=""img/flower6.png"" style=""width:200px; border:14px solid green;"">","null","","","","","","","","",""
"","image-keyboard-response","294","100162","0.0-294.0","3PJUZCGDJ72BSAARTF0QBIWMPW189S","A12EQIULBHM4HJ","3ECKRY5B1QIH1N6NFX1ECCW5ZDKIZQ","","258","img/flower6.png","74","259","1","0","2","1","1,0.333,0.333,0.333,1,0.333,0.333,0.333,1","1,0.333,0.333,0.333,1,0.333,0.333,0.333,1","1",""
"","html-keyboard-response","295","100477","0.0-295.0","3PJUZCGDJ72BSAARTF0QBIWMPW189S","A12EQIULBHM4HJ","3ECKRY5B1QIH1N6NFX1ECCW5ZDKIZQ","","null","<img src=""img/flower6.png"" style=""width:200px;border:14px solid red;"">","null","","","","","","","","",""
"","image-keyboard-response","296","100697","0.0-296.0","3PJUZCGDJ72BSAARTF0QBIWMPW189S","A12EQIULBHM4HJ","3ECKRY5B1QIH1N6NFX1ECCW5ZDKIZQ","","220","img/flower2.png","75","220","2","1","1","1","1,0.333,0.333,0.333,1,0.333,0.333,0.333,1","1,0.333,0.333,0.333,1,0.333,0.333,0.333,1","1",""
"","html-keyboard-response","297","101007","0.0-297.0","3PJUZCGDJ72BSAARTF0QBIWMPW189S","A12EQIULBHM4HJ","3ECKRY5B1QIH1N6NFX1ECCW5ZDKIZQ","","null","<img src=""img/flower2.png"" style=""width:200px; border:14px solid green;"">","null","","","","","","","","",""
"","image-keyboard-response","298","101299","0.0-298.0","3PJUZCGDJ72BSAARTF0QBIWMPW189S","A12EQIULBHM4HJ","3ECKRY5B1QIH1N6NFX1ECCW5ZDKIZQ","","291","img/flower2.png","75","292","2","0","1","1","1,0.333,0.333,0.333,1,0.333,0.333,0.333,1","1,0.333,0.333,0.333,1,0.333,0.333,0.333,1","1",""
"","html-keyboard-response","299","101614","0.0-299.0","3PJUZCGDJ72BSAARTF0QBIWMPW189S","A12EQIULBHM4HJ","3ECKRY5B1QIH1N6NFX1ECCW5ZDKIZQ","","null","<img src=""img/flower2.png"" style=""width:200px;border:14px solid red;"">","null","","","","","","","","",""
"","image-keyboard-response","300","101863","0.0-300.0","3PJUZCGDJ72BSAARTF0QBIWMPW189S","A12EQIULBHM4HJ","3ECKRY5B1QIH1N6NFX1ECCW5ZDKIZQ","","249","img/flower1.png","76","250","3","1","3","1","1,0.333,0.333,0.333,1,0.333,0.333,0.333,1","1,0.333,0.333,0.333,1,0.333,0.333,0.333,1","1",""
"","html-keyboard-response","301","102170","0.0-301.0","3PJUZCGDJ72BSAARTF0QBIWMPW189S","A12EQIULBHM4HJ","3ECKRY5B1QIH1N6NFX1ECCW5ZDKIZQ","","null","<img src=""img/flower1.png"" style=""width:200px; border:14px solid green;"">","null","","","","","","","","",""
"","image-keyboard-response","302","102548","0.0-302.0","3PJUZCGDJ72BSAARTF0QBIWMPW189S","A12EQIULBHM4HJ","3ECKRY5B1QIH1N6NFX1ECCW5ZDKIZQ","","379","img/flower1.png","75","379","2","1","3","1","1,0.333,0.333,0.333,1,0.333,0.333,0.333,1","1,0.333,0.333,0.333,1,0.333,0.333,0.333,1","1",""
"","html-keyboard-response","303","102850","0.0-303.0","3PJUZCGDJ72BSAARTF0QBIWMPW189S","A12EQIULBHM4HJ","3ECKRY5B1QIH1N6NFX1ECCW5ZDKIZQ","","null","<img src=""img/flower1.png"" style=""width:200px; border:14px solid green;"">","null","","","","","","","","",""
"","image-keyboard-response","304","103321","0.0-304.0","3PJUZCGDJ72BSAARTF0QBIWMPW189S","A12EQIULBHM4HJ","3ECKRY5B1QIH1N6NFX1ECCW5ZDKIZQ","","471","img/flower2.png","76","472","3","0","1","1","1,0.333,0.333,0.333,1,0.333,0.333,0.333,1","1,0.333,0.333,0.333,1,0.333,0.333,0.333,1","1",""
"","html-keyboard-response","305","103624","0.0-305.0","3PJUZCGDJ72BSAARTF0QBIWMPW189S","A12EQIULBHM4HJ","3ECKRY5B1QIH1N6NFX1ECCW5ZDKIZQ","","null","<img src=""img/flower2.png"" style=""width:200px;border:14px solid red;"">","null","","","","","","","","",""
"","image-keyboard-response","306","103836","0.0-306.0","3PJUZCGDJ72BSAARTF0QBIWMPW189S","A12EQIULBHM4HJ","3ECKRY5B1QIH1N6NFX1ECCW5ZDKIZQ","","210","img/flower2.png","75","210","2","0","1","1","1,0.333,0.333,0.333,1,0.333,0.333,0.333,1","1,0.333,0.333,0.333,1,0.333,0.333,0.333,1","1",""
"","html-keyboard-response","307","104139","0.0-307.0","3PJUZCGDJ72BSAARTF0QBIWMPW189S","A12EQIULBHM4HJ","3ECKRY5B1QIH1N6NFX1ECCW5ZDKIZQ","","null","<img src=""img/flower2.png"" style=""width:200px;border:14px solid red;"">","null","","","","","","","","",""
"","image-keyboard-response","308","104231","0.0-308.0","3PJUZCGDJ72BSAARTF0QBIWMPW189S","A12EQIULBHM4HJ","3ECKRY5B1QIH1N6NFX1ECCW5ZDKIZQ","","91","img/flower2.png","74","91","1","1","1","1","1,0.333,0.333,0.333,1,0.333,0.333,0.333,1","1,0.333,0.333,0.333,1,0.333,0.333,0.333,1","1",""
"","html-keyboard-response","309","104543","0.0-309.0","3PJUZCGDJ72BSAARTF0QBIWMPW189S","A12EQIULBHM4HJ","3ECKRY5B1QIH1N6NFX1ECCW5ZDKIZQ","","null","<img src=""img/flower2.png"" style=""width:200px; border:14px solid green;"">","null","","","","","","","","",""
"","image-keyboard-response","310","104833","0.0-310.0","3PJUZCGDJ72BSAARTF0QBIWMPW189S","A12EQIULBHM4HJ","3ECKRY5B1QIH1N6NFX1ECCW5ZDKIZQ","","290","img/flower2.png","74","291","1","1","1","1","1,0.333,0.333,0.333,1,0.333,0.333,0.333,1","1,0.333,0.333,0.333,1,0.333,0.333,0.333,1","1",""
"","html-keyboard-response","311","105148","0.0-311.0","3PJUZCGDJ72BSAARTF0QBIWMPW189S","A12EQIULBHM4HJ","3ECKRY5B1QIH1N6NFX1ECCW5ZDKIZQ","","null","<img src=""img/flower2.png"" style=""width:200px; border:14px solid green;"">","null","","","","","","","","",""
"","image-keyboard-response","312","105600","0.0-312.0","3PJUZCGDJ72BSAARTF0QBIWMPW189S","A12EQIULBHM4HJ","3ECKRY5B1QIH1N6NFX1ECCW5ZDKIZQ","","452","img/flower1.png","75","453","2","0","3","1","1,0.333,0.333,0.333,1,0.333,0.333,0.333,1","1,0.333,0.333,0.333,1,0.333,0.333,0.333,1","1",""
"","html-keyboard-response","313","105908","0.0-313.0","3PJUZCGDJ72BSAARTF0QBIWMPW189S","A12EQIULBHM4HJ","3ECKRY5B1QIH1N6NFX1ECCW5ZDKIZQ","","null","<img src=""img/flower1.png"" style=""width:200px;border:14px solid red;"">","null","","","","","","","","",""
"","image-keyboard-response","314","106391","0.0-314.0","3PJUZCGDJ72BSAARTF0QBIWMPW189S","A12EQIULBHM4HJ","3ECKRY5B1QIH1N6NFX1ECCW5ZDKIZQ","","483","img/flower1.png","76","484","3","1","3","1","1,0.333,0.333,0.333,1,0.333,0.333,0.333,1","1,0.333,0.333,0.333,1,0.333,0.333,0.333,1","1",""
"","html-keyboard-response","315","106702","0.0-315.0","3PJUZCGDJ72BSAARTF0QBIWMPW189S","A12EQIULBHM4HJ","3ECKRY5B1QIH1N6NFX1ECCW5ZDKIZQ","","null","<img src=""img/flower1.png"" style=""width:200px; border:14px solid green;"">","null","","","","","","","","",""
"","image-keyboard-response","316","107347","0.0-316.0","3PJUZCGDJ72BSAARTF0QBIWMPW189S","A12EQIULBHM4HJ","3ECKRY5B1QIH1N6NFX1ECCW5ZDKIZQ","","644","img/flower2.png","74","645","1","1","1","1","1,0.333,0.333,0.333,1,0.333,0.333,0.333,1","1,0.333,0.333,0.333,1,0.333,0.333,0.333,1","1",""
"","html-keyboard-response","317","107650","0.0-317.0","3PJUZCGDJ72BSAARTF0QBIWMPW189S","A12EQIULBHM4HJ","3ECKRY5B1QIH1N6NFX1ECCW5ZDKIZQ","","null","<img src=""img/flower2.png"" style=""width:200px; border:14px solid green;"">","null","","","","","","","","",""
"","image-keyboard-response","318","108108","0.0-318.0","3PJUZCGDJ72BSAARTF0QBIWMPW189S","A12EQIULBHM4HJ","3ECKRY5B1QIH1N6NFX1ECCW5ZDKIZQ","","458","img/flower1.png","76","458","3","1","3","1","1,0.333,0.333,0.333,1,0.333,0.333,0.333,1","1,0.333,0.333,0.333,1,0.333,0.333,0.333,1","1",""
"","html-keyboard-response","319","108423","0.0-319.0","3PJUZCGDJ72BSAARTF0QBIWMPW189S","A12EQIULBHM4HJ","3ECKRY5B1QIH1N6NFX1ECCW5ZDKIZQ","","null","<img src=""img/flower1.png"" style=""width:200px; border:14px solid green;"">","null","","","","","","","","",""
"","image-keyboard-response","320","108918","0.0-320.0","3PJUZCGDJ72BSAARTF0QBIWMPW189S","A12EQIULBHM4HJ","3ECKRY5B1QIH1N6NFX1ECCW5ZDKIZQ","","494","img/flower1.png","76","495","3","1","3","1","1,0.333,0.333,0.333,1,0.333,0.333,0.333,1","1,0.333,0.333,0.333,1,0.333,0.333,0.333,1","1",""
"","html-keyboard-response","321","109226","0.0-321.0","3PJUZCGDJ72BSAARTF0QBIWMPW189S","A12EQIULBHM4HJ","3ECKRY5B1QIH1N6NFX1ECCW5ZDKIZQ","","null","<img src=""img/flower1.png"" style=""width:200px; border:14px solid green;"">","null","","","","","","","","",""
"","image-keyboard-response","322","109750","0.0-322.0","3PJUZCGDJ72BSAARTF0QBIWMPW189S","A12EQIULBHM4HJ","3ECKRY5B1QIH1N6NFX1ECCW5ZDKIZQ","","523","img/flower2.png","74","523","1","1","1","1","1,0.333,0.333,0.333,1,0.333,0.333,0.333,1","1,0.333,0.333,0.333,1,0.333,0.333,0.333,1","1",""
"","html-keyboard-response","323","110053","0.0-323.0","3PJUZCGDJ72BSAARTF0QBIWMPW189S","A12EQIULBHM4HJ","3ECKRY5B1QIH1N6NFX1ECCW5ZDKIZQ","","null","<img src=""img/flower2.png"" style=""width:200px; border:14px solid green;"">","null","","","","","","","","",""
"","image-keyboard-response","324","110480","0.0-324.0","3PJUZCGDJ72BSAARTF0QBIWMPW189S","A12EQIULBHM4HJ","3ECKRY5B1QIH1N6NFX1ECCW5ZDKIZQ","","427","img/flower6.png","76","428","3","0","2","1","1,0.333,0.333,0.333,1,0.333,0.333,0.333,1","1,0.333,0.333,0.333,1,0.333,0.333,0.333,1","1",""
"","html-keyboard-response","325","110793","0.0-325.0","3PJUZCGDJ72BSAARTF0QBIWMPW189S","A12EQIULBHM4HJ","3ECKRY5B1QIH1N6NFX1ECCW5ZDKIZQ","","null","<img src=""img/flower6.png"" style=""width:200px;border:14px solid red;"">","null","","","","","","","","",""
"","image-keyboard-response","326","110952","0.0-326.0","3PJUZCGDJ72BSAARTF0QBIWMPW189S","A12EQIULBHM4HJ","3ECKRY5B1QIH1N6NFX1ECCW5ZDKIZQ","","158","img/flower6.png","75","159","2","1","2","1","1,0.333,0.333,0.333,1,0.333,0.333,0.333,1","1,0.333,0.333,0.333,1,0.333,0.333,0.333,1","1",""
"","html-keyboard-response","327","111259","0.0-327.0","3PJUZCGDJ72BSAARTF0QBIWMPW189S","A12EQIULBHM4HJ","3ECKRY5B1QIH1N6NFX1ECCW5ZDKIZQ","","null","<img src=""img/flower6.png"" style=""width:200px; border:14px solid green;"">","null","","","","","","","","",""
"","image-keyboard-response","328","111686","0.0-328.0","3PJUZCGDJ72BSAARTF0QBIWMPW189S","A12EQIULBHM4HJ","3ECKRY5B1QIH1N6NFX1ECCW5ZDKIZQ","","427","img/flower6.png","75","427","2","1","2","1","1,0.333,0.333,0.333,1,0.333,0.333,0.333,1","1,0.333,0.333,0.333,1,0.333,0.333,0.333,1","1",""
"","html-keyboard-response","329","111991","0.0-329.0","3PJUZCGDJ72BSAARTF0QBIWMPW189S","A12EQIULBHM4HJ","3ECKRY5B1QIH1N6NFX1ECCW5ZDKIZQ","","null","<img src=""img/flower6.png"" style=""width:200px; border:14px solid green;"">","null","","","","","","","","",""
"","image-keyboard-response","330","112327","0.0-330.0","3PJUZCGDJ72BSAARTF0QBIWMPW189S","A12EQIULBHM4HJ","3ECKRY5B1QIH1N6NFX1ECCW5ZDKIZQ","","335","img/flower6.png","75","336","2","1","2","1","1,0.333,0.333,0.333,1,0.333,0.333,0.333,1","1,0.333,0.333,0.333,1,0.333,0.333,0.333,1","1",""
"","html-keyboard-response","331","112642","0.0-331.0","3PJUZCGDJ72BSAARTF0QBIWMPW189S","A12EQIULBHM4HJ","3ECKRY5B1QIH1N6NFX1ECCW5ZDKIZQ","","null","<img src=""img/flower6.png"" style=""width:200px; border:14px solid green;"">","null","","","","","","","","",""
"","image-keyboard-response","332","113181","0.0-332.0","3PJUZCGDJ72BSAARTF0QBIWMPW189S","A12EQIULBHM4HJ","3ECKRY5B1QIH1N6NFX1ECCW5ZDKIZQ","","538","img/flower2.png","74","539","1","1","1","1","1,0.333,0.333,0.333,1,0.333,0.333,0.333,1","1,0.333,0.333,0.333,1,0.333,0.333,0.333,1","1",""
"","html-keyboard-response","333","113492","0.0-333.0","3PJUZCGDJ72BSAARTF0QBIWMPW189S","A12EQIULBHM4HJ","3ECKRY5B1QIH1N6NFX1ECCW5ZDKIZQ","","null","<img src=""img/flower2.png"" style=""width:200px; border:14px solid green;"">","null","","","","","","","","",""
"","image-keyboard-response","334","114077","0.0-334.0","3PJUZCGDJ72BSAARTF0QBIWMPW189S","A12EQIULBHM4HJ","3ECKRY5B1QIH1N6NFX1ECCW5ZDKIZQ","","584","img/flower6.png","75","584","2","1","2","1","1,0.333,0.333,0.333,1,0.333,0.333,0.333,1","1,0.333,0.333,0.333,1,0.333,0.333,0.333,1","1",""
"","html-keyboard-response","335","114378","0.0-335.0","3PJUZCGDJ72BSAARTF0QBIWMPW189S","A12EQIULBHM4HJ","3ECKRY5B1QIH1N6NFX1ECCW5ZDKIZQ","","null","<img src=""img/flower6.png"" style=""width:200px; border:14px solid green;"">","null","","","","","","","","",""
"","image-keyboard-response","336","114907","0.0-336.0","3PJUZCGDJ72BSAARTF0QBIWMPW189S","A12EQIULBHM4HJ","3ECKRY5B1QIH1N6NFX1ECCW5ZDKIZQ","","529","img/flower1.png","76","529","3","1","3","1","1,0.333,0.333,0.333,1,0.333,0.333,0.333,1","1,0.333,0.333,0.333,1,0.333,0.333,0.333,1","1",""
"","html-keyboard-response","337","115218","0.0-337.0","3PJUZCGDJ72BSAARTF0QBIWMPW189S","A12EQIULBHM4HJ","3ECKRY5B1QIH1N6NFX1ECCW5ZDKIZQ","","null","<img src=""img/flower1.png"" style=""width:200px; border:14px solid green;"">","null","","","","","","","","",""
"","image-keyboard-response","338","115674","0.0-338.0","3PJUZCGDJ72BSAARTF0QBIWMPW189S","A12EQIULBHM4HJ","3ECKRY5B1QIH1N6NFX1ECCW5ZDKIZQ","","457","img/flower6.png","75","459","2","1","2","1","1,0.333,0.333,0.333,1,0.333,0.333,0.333,1","1,0.333,0.333,0.333,1,0.333,0.333,0.333,1","1",""
"","html-keyboard-response","339","115980","0.0-339.0","3PJUZCGDJ72BSAARTF0QBIWMPW189S","A12EQIULBHM4HJ","3ECKRY5B1QIH1N6NFX1ECCW5ZDKIZQ","","null","<img src=""img/flower6.png"" style=""width:200px; border:14px solid green;"">","null","","","","","","","","",""
"","image-keyboard-response","340","116358","0.0-340.0","3PJUZCGDJ72BSAARTF0QBIWMPW189S","A12EQIULBHM4HJ","3ECKRY5B1QIH1N6NFX1ECCW5ZDKIZQ","","378","img/flower6.png","75","379","2","1","2","1","1,0.333,0.333,0.333,1,0.333,0.333,0.333,1","1,0.333,0.333,0.333,1,0.333,0.333,0.333,1","1",""
"","html-keyboard-response","341","116666","0.0-341.0","3PJUZCGDJ72BSAARTF0QBIWMPW189S","A12EQIULBHM4HJ","3ECKRY5B1QIH1N6NFX1ECCW5ZDKIZQ","","null","<img src=""img/flower6.png"" style=""width:200px; border:14px solid green;"">","null","","","","","","","","",""
"","image-keyboard-response","342","117153","0.0-342.0","3PJUZCGDJ72BSAARTF0QBIWMPW189S","A12EQIULBHM4HJ","3ECKRY5B1QIH1N6NFX1ECCW5ZDKIZQ","","487","img/flower2.png","74","487","1","1","1","1","1,0.333,0.333,0.333,1,0.333,0.333,0.333,1","1,0.333,0.333,0.333,1,0.333,0.333,0.333,1","1",""
"","html-keyboard-response","343","117460","0.0-343.0","3PJUZCGDJ72BSAARTF0QBIWMPW189S","A12EQIULBHM4HJ","3ECKRY5B1QIH1N6NFX1ECCW5ZDKIZQ","","null","<img src=""img/flower2.png"" style=""width:200px; border:14px solid green;"">","null","","","","","","","","",""
"","image-keyboard-response","344","117922","0.0-344.0","3PJUZCGDJ72BSAARTF0QBIWMPW189S","A12EQIULBHM4HJ","3ECKRY5B1QIH1N6NFX1ECCW5ZDKIZQ","","461","img/flower6.png","75","462","2","1","2","1","1,0.333,0.333,0.333,1,0.333,0.333,0.333,1","1,0.333,0.333,0.333,1,0.333,0.333,0.333,1","1",""
"","html-keyboard-response","345","118236","0.0-345.0","3PJUZCGDJ72BSAARTF0QBIWMPW189S","A12EQIULBHM4HJ","3ECKRY5B1QIH1N6NFX1ECCW5ZDKIZQ","","null","<img src=""img/flower6.png"" style=""width:200px; border:14px solid green;"">","null","","","","","","","","",""
"","image-keyboard-response","346","118691","0.0-346.0","3PJUZCGDJ72BSAARTF0QBIWMPW189S","A12EQIULBHM4HJ","3ECKRY5B1QIH1N6NFX1ECCW5ZDKIZQ","","455","img/flower6.png","75","455","2","1","2","1","1,0.333,0.333,0.333,1,0.333,0.333,0.333,1","1,0.333,0.333,0.333,1,0.333,0.333,0.333,1","1",""
"","html-keyboard-response","347","119026","0.0-347.0","3PJUZCGDJ72BSAARTF0QBIWMPW189S","A12EQIULBHM4HJ","3ECKRY5B1QIH1N6NFX1ECCW5ZDKIZQ","","null","<img src=""img/flower6.png"" style=""width:200px; border:14px solid green;"">","null","","","","","","","","",""
"","image-keyboard-response","348","119504","0.0-348.0","3PJUZCGDJ72BSAARTF0QBIWMPW189S","A12EQIULBHM4HJ","3ECKRY5B1QIH1N6NFX1ECCW5ZDKIZQ","","477","img/flower1.png","76","478","3","1","3","1","1,0.333,0.333,0.333,1,0.333,0.333,0.333,1","1,0.333,0.333,0.333,1,0.333,0.333,0.333,1","1",""
"","html-keyboard-response","349","119817","0.0-349.0","3PJUZCGDJ72BSAARTF0QBIWMPW189S","A12EQIULBHM4HJ","3ECKRY5B1QIH1N6NFX1ECCW5ZDKIZQ","","null","<img src=""img/flower1.png"" style=""width:200px; border:14px solid green;"">","null","","","","","","","","",""
"","image-keyboard-response","350","120272","0.0-350.0","3PJUZCGDJ72BSAARTF0QBIWMPW189S","A12EQIULBHM4HJ","3ECKRY5B1QIH1N6NFX1ECCW5ZDKIZQ","","454","img/flower6.png","75","455","2","1","2","1","1,0.333,0.333,0.333,1,0.333,0.333,0.333,1","1,0.333,0.333,0.333,1,0.333,0.333,0.333,1","1",""
"","html-keyboard-response","351","120573","0.0-351.0","3PJUZCGDJ72BSAARTF0QBIWMPW189S","A12EQIULBHM4HJ","3ECKRY5B1QIH1N6NFX1ECCW5ZDKIZQ","","null","<img src=""img/flower6.png"" style=""width:200px; border:14px solid green;"">","null","","","","","","","","",""
"","image-keyboard-response","352","120951","0.0-352.0","3PJUZCGDJ72BSAARTF0QBIWMPW189S","A12EQIULBHM4HJ","3ECKRY5B1QIH1N6NFX1ECCW5ZDKIZQ","","377","img/flower1.png","74","379","1","0","3","1","1,0.333,0.333,0.333,1,0.333,0.333,0.333,1","1,0.333,0.333,0.333,1,0.333,0.333,0.333,1","1",""
"","html-keyboard-response","353","121255","0.0-353.0","3PJUZCGDJ72BSAARTF0QBIWMPW189S","A12EQIULBHM4HJ","3ECKRY5B1QIH1N6NFX1ECCW5ZDKIZQ","","null","<img src=""img/flower1.png"" style=""width:200px;border:14px solid red;"">","null","","","","","","","","",""
"","image-keyboard-response","354","121432","0.0-354.0","3PJUZCGDJ72BSAARTF0QBIWMPW189S","A12EQIULBHM4HJ","3ECKRY5B1QIH1N6NFX1ECCW5ZDKIZQ","","178","img/flower1.png","76","178","3","1","3","1","1,0.333,0.333,0.333,1,0.333,0.333,0.333,1","1,0.333,0.333,0.333,1,0.333,0.333,0.333,1","1",""
"","html-keyboard-response","355","121735","0.0-355.0","3PJUZCGDJ72BSAARTF0QBIWMPW189S","A12EQIULBHM4HJ","3ECKRY5B1QIH1N6NFX1ECCW5ZDKIZQ","","null","<img src=""img/flower1.png"" style=""width:200px; border:14px solid green;"">","null","","","","","","","","",""
"","image-keyboard-response","356","122289","0.0-356.0","3PJUZCGDJ72BSAARTF0QBIWMPW189S","A12EQIULBHM4HJ","3ECKRY5B1QIH1N6NFX1ECCW5ZDKIZQ","","553","img/flower6.png","75","554","2","1","2","1","1,0.333,0.333,0.333,1,0.333,0.333,0.333,1","1,0.333,0.333,0.333,1,0.333,0.333,0.333,1","1",""
"","html-keyboard-response","357","122602","0.0-357.0","3PJUZCGDJ72BSAARTF0QBIWMPW189S","A12EQIULBHM4HJ","3ECKRY5B1QIH1N6NFX1ECCW5ZDKIZQ","","null","<img src=""img/flower6.png"" style=""width:200px; border:14px solid green;"">","null","","","","","","","","",""
"","image-keyboard-response","358","123159","0.0-358.0","3PJUZCGDJ72BSAARTF0QBIWMPW189S","A12EQIULBHM4HJ","3ECKRY5B1QIH1N6NFX1ECCW5ZDKIZQ","","555","img/flower1.png","76","557","3","1","3","1","1,0.333,0.333,0.333,1,0.333,0.333,0.333,1","1,0.333,0.333,0.333,1,0.333,0.333,0.333,1","1",""
"","html-keyboard-response","359","123459","0.0-359.0","3PJUZCGDJ72BSAARTF0QBIWMPW189S","A12EQIULBHM4HJ","3ECKRY5B1QIH1N6NFX1ECCW5ZDKIZQ","","null","<img src=""img/flower1.png"" style=""width:200px; border:14px solid green;"">","null","","","","","","","","",""
"","image-keyboard-response","360","124012","0.0-360.0","3PJUZCGDJ72BSAARTF0QBIWMPW189S","A12EQIULBHM4HJ","3ECKRY5B1QIH1N6NFX1ECCW5ZDKIZQ","","553","img/flower6.png","76","553","3","1","2","1","1,0.333,0.333,0.333,1,0.333,0.333,0.333,1","1,0.333,0.333,0.333,1,0.333,0.333,0.333,1","1",""
"","html-keyboard-response","361","124327","0.0-361.0","3PJUZCGDJ72BSAARTF0QBIWMPW189S","A12EQIULBHM4HJ","3ECKRY5B1QIH1N6NFX1ECCW5ZDKIZQ","","null","<img src=""img/flower6.png"" style=""width:200px; border:14px solid green;"">","null","","","","","","","","",""
"","html-keyboard-response","362","132215","0.0-362.0","3PJUZCGDJ72BSAARTF0QBIWMPW189S","A12EQIULBHM4HJ","3ECKRY5B1QIH1N6NFX1ECCW5ZDKIZQ","","","","","","","","","","","","",""
"","instructions","363","133283","0.0-363.0","3PJUZCGDJ72BSAARTF0QBIWMPW189S","A12EQIULBHM4HJ","3ECKRY5B1QIH1N6NFX1ECCW5ZDKIZQ","[{""page_index"":0,""viewing_time"":1067}]","1067","","","","","","","","","","",""
"","survey-text","364","136044","0.0-364.0","3PJUZCGDJ72BSAARTF0QBIWMPW189S","A12EQIULBHM4HJ","3ECKRY5B1QIH1N6NFX1ECCW5ZDKIZQ","","2759","","","","","","","","","","","{""Q0"":""A12EQIULBHM4HJ""}"
