"success","trial_type","trial_index","time_elapsed","internal_node_id","assignmentID","mturkID","hitID","view_history","rt","stimulus","key_press","reactionTime","a","r","s","cond","reward_cond","reward_cond_actual","reward_matrix_idx","responses"
"true","fullscreen","0","12343","0.0-0.0","3IJXV6UZ1Y5ALGIQWIC3FSQUYF1RIX","A132GRVDGXPJGY","3WRBLBQ2GRU63BU2LFOJL1G32T90GO","","","","","","","","","","","","",""
"","instructions","1","58200","0.0-1.0","3IJXV6UZ1Y5ALGIQWIC3FSQUYF1RIX","A132GRVDGXPJGY","3WRBLBQ2GRU63BU2LFOJL1G32T90GO","[{""page_index"":0,""viewing_time"":11969.60000000894},{""page_index"":1,""viewing_time"":3702.0999999940395},{""page_index"":2,""viewing_time"":2871.4000000059605},{""page_index"":3,""viewing_time"":3014.5999999940395},{""page_index"":4,""viewing_time"":8173.70000000298},{""page_index"":5,""viewing_time"":2029.7999999970198},{""page_index"":6,""viewing_time"":2874.5},{""page_index"":7,""viewing_time"":11217.70000000298}]","45853.70000000298","","","","","","","","","","",""
"","image-keyboard-response","2","58902","0.0-2.0","3IJXV6UZ1Y5ALGIQWIC3FSQUYF1RIX","A132GRVDGXPJGY","3WRBLBQ2GRU63BU2LFOJL1G32T90GO","","698.7000000029802","img/flower2.png","74","701.1000000089407","1","1","2","1","1,0.333,0.333,0.333,1,0.333,0.333,0.333,1","1,0.333,0.333,0.333,1,0.333,0.333,0.333,1","1",""
"","html-keyboard-response","3","59217","0.0-3.0","3IJXV6UZ1Y5ALGIQWIC3FSQUYF1RIX","A132GRVDGXPJGY","3WRBLBQ2GRU63BU2LFOJL1G32T90GO","","null","<img src=""img/flower2.png"" style=""width:200px; border:14px solid green;"">","null","","","","","","","","",""
"","image-keyboard-response","4","60047","0.0-4.0","3IJXV6UZ1Y5ALGIQWIC3FSQUYF1RIX","A132GRVDGXPJGY","3WRBLBQ2GRU63BU2LFOJL1G32T90GO","","827.1999999880791","img/flower1.png","75","829.2999999970198","2","1","3","1","1,0.333,0.333,0.333,1,0.333,0.333,0.333,1","1,0.333,0.333,0.333,1,0.333,0.333,0.333,1","1",""
"","html-keyboard-response","5","60349","0.0-5.0","3IJXV6UZ1Y5ALGIQWIC3FSQUYF1RIX","A132GRVDGXPJGY","3WRBLBQ2GRU63BU2LFOJL1G32T90GO","","null","<img src=""img/flower1.png"" style=""width:200px; border:14px solid green;"">","null","","","","","","","","",""
"","image-keyboard-response","6","60985","0.0-6.0","3IJXV6UZ1Y5ALGIQWIC3FSQUYF1RIX","A132GRVDGXPJGY","3WRBLBQ2GRU63BU2LFOJL1G32T90GO","","632.9000000059605","img/flower2.png","74","634.9000000059605","1","0","2","1","1,0.333,0.333,0.333,1,0.333,0.333,0.333,1","1,0.333,0.333,0.333,1,0.333,0.333,0.333,1","1",""
"","html-keyboard-response","7","61288","0.0-7.0","3IJXV6UZ1Y5ALGIQWIC3FSQUYF1RIX","A132GRVDGXPJGY","3WRBLBQ2GRU63BU2LFOJL1G32T90GO","","null","<img src=""img/flower2.png"" style=""width:200px;border:14px solid red;"">","null","","","","","","","","",""
"","image-keyboard-response","8","62480","0.0-8.0","3IJXV6UZ1Y5ALGIQWIC3FSQUYF1RIX","A132GRVDGXPJGY","3WRBLBQ2GRU63BU2LFOJL1G32T90GO","","1189","img/flower4.png","76","1190.9000000059605","3","1","1","1","1,0.333,0.333,0.333,1,0.333,0.333,0.333,1","1,0.333,0.333,0.333,1,0.333,0.333,0.333,1","1",""
"","html-keyboard-response","9","62784","0.0-9.0","3IJXV6UZ1Y5ALGIQWIC3FSQUYF1RIX","A132GRVDGXPJGY","3WRBLBQ2GRU63BU2LFOJL1G32T90GO","","null","<img src=""img/flower4.png"" style=""width:200px; border:14px solid green;"">","null","","","","","","","","",""
"","image-keyboard-response","10","63786","0.0-10.0","3IJXV6UZ1Y5ALGIQWIC3FSQUYF1RIX","A132GRVDGXPJGY","3WRBLBQ2GRU63BU2LFOJL1G32T90GO","","999.7999999970198","img/flower4.png","76","1002","3","0","1","1","1,0.333,0.333,0.333,1,0.333,0.333,0.333,1","1,0.333,0.333,0.333,1,0.333,0.333,0.333,1","1",""
"","html-keyboard-response","11","64090","0.0-11.0","3IJXV6UZ1Y5ALGIQWIC3FSQUYF1RIX","A132GRVDGXPJGY","3WRBLBQ2GRU63BU2LFOJL1G32T90GO","","null","<img src=""img/flower4.png"" style=""width:200px;border:14px solid red;"">","null","","","","","","","","",""
"","image-keyboard-response","12","64718","0.0-12.0","3IJXV6UZ1Y5ALGIQWIC3FSQUYF1RIX","A132GRVDGXPJGY","3WRBLBQ2GRU63BU2LFOJL1G32T90GO","","626.1000000089407","img/flower4.png","76","627.7999999970198","3","1","1","1","1,0.333,0.333,0.333,1,0.333,0.333,0.333,1","1,0.333,0.333,0.333,1,0.333,0.333,0.333,1","1",""
"","html-keyboard-response","13","65021","0.0-13.0","3IJXV6UZ1Y5ALGIQWIC3FSQUYF1RIX","A132GRVDGXPJGY","3WRBLBQ2GRU63BU2LFOJL1G32T90GO","","null","<img src=""img/flower4.png"" style=""width:200px; border:14px solid green;"">","null","","","","","","","","",""
"","image-keyboard-response","14","65902","0.0-14.0","3IJXV6UZ1Y5ALGIQWIC3FSQUYF1RIX","A132GRVDGXPJGY","3WRBLBQ2GRU63BU2LFOJL1G32T90GO","","878","img/flower1.png","75","879.9000000059605","2","1","3","1","1,0.333,0.333,0.333,1,0.333,0.333,0.333,1","1,0.333,0.333,0.333,1,0.333,0.333,0.333,1","1",""
"","html-keyboard-response","15","66203","0.0-15.0","3IJXV6UZ1Y5ALGIQWIC3FSQUYF1RIX","A132GRVDGXPJGY","3WRBLBQ2GRU63BU2LFOJL1G32T90GO","","null","<img src=""img/flower1.png"" style=""width:200px; border:14px solid green;"">","null","","","","","","","","",""
"","image-keyboard-response","16","67042","0.0-16.0","3IJXV6UZ1Y5ALGIQWIC3FSQUYF1RIX","A132GRVDGXPJGY","3WRBLBQ2GRU63BU2LFOJL1G32T90GO","","837.3000000119209","img/flower4.png","76","838.6000000089407","3","0","1","1","1,0.333,0.333,0.333,1,0.333,0.333,0.333,1","1,0.333,0.333,0.333,1,0.333,0.333,0.333,1","1",""
"","html-keyboard-response","17","67344","0.0-17.0","3IJXV6UZ1Y5ALGIQWIC3FSQUYF1RIX","A132GRVDGXPJGY","3WRBLBQ2GRU63BU2LFOJL1G32T90GO","","null","<img src=""img/flower4.png"" style=""width:200px;border:14px solid red;"">","null","","","","","","","","",""
"","image-keyboard-response","18","68229","0.0-18.0","3IJXV6UZ1Y5ALGIQWIC3FSQUYF1RIX","A132GRVDGXPJGY","3WRBLBQ2GRU63BU2LFOJL1G32T90GO","","882.7000000029802","img/flower2.png","74","884.5999999940395","1","0","2","1","1,0.333,0.333,0.333,1,0.333,0.333,0.333,1","1,0.333,0.333,0.333,1,0.333,0.333,0.333,1","1",""
"","html-keyboard-response","19","68532","0.0-19.0","3IJXV6UZ1Y5ALGIQWIC3FSQUYF1RIX","A132GRVDGXPJGY","3WRBLBQ2GRU63BU2LFOJL1G32T90GO","","null","<img src=""img/flower2.png"" style=""width:200px;border:14px solid red;"">","null","","","","","","","","",""
"","image-keyboard-response","20","69141","0.0-20.0","3IJXV6UZ1Y5ALGIQWIC3FSQUYF1RIX","A132GRVDGXPJGY","3WRBLBQ2GRU63BU2LFOJL1G32T90GO","","606.5999999940395","img/flower2.png","75","608.5999999940395","2","1","2","1","1,0.333,0.333,0.333,1,0.333,0.333,0.333,1","1,0.333,0.333,0.333,1,0.333,0.333,0.333,1","1",""
"","html-keyboard-response","21","69446","0.0-21.0","3IJXV6UZ1Y5ALGIQWIC3FSQUYF1RIX","A132GRVDGXPJGY","3WRBLBQ2GRU63BU2LFOJL1G32T90GO","","null","<img src=""img/flower2.png"" style=""width:200px; border:14px solid green;"">","null","","","","","","","","",""
"","image-keyboard-response","22","70379","0.0-22.0","3IJXV6UZ1Y5ALGIQWIC3FSQUYF1RIX","A132GRVDGXPJGY","3WRBLBQ2GRU63BU2LFOJL1G32T90GO","","930.6999999880791","img/flower2.png","75","932.7999999970198","2","1","2","1","1,0.333,0.333,0.333,1,0.333,0.333,0.333,1","1,0.333,0.333,0.333,1,0.333,0.333,0.333,1","1",""
"","html-keyboard-response","23","70682","0.0-23.0","3IJXV6UZ1Y5ALGIQWIC3FSQUYF1RIX","A132GRVDGXPJGY","3WRBLBQ2GRU63BU2LFOJL1G32T90GO","","null","<img src=""img/flower2.png"" style=""width:200px; border:14px solid green;"">","null","","","","","","","","",""
"","image-keyboard-response","24","71032","0.0-24.0","3IJXV6UZ1Y5ALGIQWIC3FSQUYF1RIX","A132GRVDGXPJGY","3WRBLBQ2GRU63BU2LFOJL1G32T90GO","","347","img/flower2.png","75","348.79999999701977","2","1","2","1","1,0.333,0.333,0.333,1,0.333,0.333,0.333,1","1,0.333,0.333,0.333,1,0.333,0.333,0.333,1","1",""
"","html-keyboard-response","25","71336","0.0-25.0","3IJXV6UZ1Y5ALGIQWIC3FSQUYF1RIX","A132GRVDGXPJGY","3WRBLBQ2GRU63BU2LFOJL1G32T90GO","","null","<img src=""img/flower2.png"" style=""width:200px; border:14px solid green;"">","null","","","","","","","","",""
"","image-keyboard-response","26","71621","0.0-26.0","3IJXV6UZ1Y5ALGIQWIC3FSQUYF1RIX","A132GRVDGXPJGY","3WRBLBQ2GRU63BU2LFOJL1G32T90GO","","282.40000000596046","img/flower2.png","75","284.40000000596046","2","1","2","1","1,0.333,0.333,0.333,1,0.333,0.333,0.333,1","1,0.333,0.333,0.333,1,0.333,0.333,0.333,1","1",""
"","html-keyboard-response","27","71925","0.0-27.0","3IJXV6UZ1Y5ALGIQWIC3FSQUYF1RIX","A132GRVDGXPJGY","3WRBLBQ2GRU63BU2LFOJL1G32T90GO","","null","<img src=""img/flower2.png"" style=""width:200px; border:14px solid green;"">","null","","","","","","","","",""
"","image-keyboard-response","28","72266","0.0-28.0","3IJXV6UZ1Y5ALGIQWIC3FSQUYF1RIX","A132GRVDGXPJGY","3WRBLBQ2GRU63BU2LFOJL1G32T90GO","","339.20000000298023","img/flower2.png","75","341.1000000089407","2","1","2","1","1,0.333,0.333,0.333,1,0.333,0.333,0.333,1","1,0.333,0.333,0.333,1,0.333,0.333,0.333,1","1",""
"","html-keyboard-response","29","72569","0.0-29.0","3IJXV6UZ1Y5ALGIQWIC3FSQUYF1RIX","A132GRVDGXPJGY","3WRBLBQ2GRU63BU2LFOJL1G32T90GO","","null","<img src=""img/flower2.png"" style=""width:200px; border:14px solid green;"">","null","","","","","","","","",""
"","image-keyboard-response","30","74170","0.0-30.0","3IJXV6UZ1Y5ALGIQWIC3FSQUYF1RIX","A132GRVDGXPJGY","3WRBLBQ2GRU63BU2LFOJL1G32T90GO","","1598.7999999970198","img/flower1.png","75","1600.699999988079","2","0","3","1","1,0.333,0.333,0.333,1,0.333,0.333,0.333,1","1,0.333,0.333,0.333,1,0.333,0.333,0.333,1","1",""
"","html-keyboard-response","31","74473","0.0-31.0","3IJXV6UZ1Y5ALGIQWIC3FSQUYF1RIX","A132GRVDGXPJGY","3WRBLBQ2GRU63BU2LFOJL1G32T90GO","","null","<img src=""img/flower1.png"" style=""width:200px;border:14px solid red;"">","null","","","","","","","","",""
"","image-keyboard-response","32","75347","0.0-32.0","3IJXV6UZ1Y5ALGIQWIC3FSQUYF1RIX","A132GRVDGXPJGY","3WRBLBQ2GRU63BU2LFOJL1G32T90GO","","870.8000000119209","img/flower4.png","76","872.7000000029802","3","1","1","1","1,0.333,0.333,0.333,1,0.333,0.333,0.333,1","1,0.333,0.333,0.333,1,0.333,0.333,0.333,1","1",""
"","html-keyboard-response","33","75649","0.0-33.0","3IJXV6UZ1Y5ALGIQWIC3FSQUYF1RIX","A132GRVDGXPJGY","3WRBLBQ2GRU63BU2LFOJL1G32T90GO","","null","<img src=""img/flower4.png"" style=""width:200px; border:14px solid green;"">","null","","","","","","","","",""
"","image-keyboard-response","34","76562","0.0-34.0","3IJXV6UZ1Y5ALGIQWIC3FSQUYF1RIX","A132GRVDGXPJGY","3WRBLBQ2GRU63BU2LFOJL1G32T90GO","","910.4000000059605","img/flower2.png","75","911.8000000119209","2","1","2","1","1,0.333,0.333,0.333,1,0.333,0.333,0.333,1","1,0.333,0.333,0.333,1,0.333,0.333,0.333,1","1",""
"","html-keyboard-response","35","76863","0.0-35.0","3IJXV6UZ1Y5ALGIQWIC3FSQUYF1RIX","A132GRVDGXPJGY","3WRBLBQ2GRU63BU2LFOJL1G32T90GO","","null","<img src=""img/flower2.png"" style=""width:200px; border:14px solid green;"">","null","","","","","","","","",""
"","image-keyboard-response","36","77451","0.0-36.0","3IJXV6UZ1Y5ALGIQWIC3FSQUYF1RIX","A132GRVDGXPJGY","3WRBLBQ2GRU63BU2LFOJL1G32T90GO","","585.5999999940395","img/flower2.png","75","587.0999999940395","2","1","2","1","1,0.333,0.333,0.333,1,0.333,0.333,0.333,1","1,0.333,0.333,0.333,1,0.333,0.333,0.333,1","1",""
"","html-keyboard-response","37","77752","0.0-37.0","3IJXV6UZ1Y5ALGIQWIC3FSQUYF1RIX","A132GRVDGXPJGY","3WRBLBQ2GRU63BU2LFOJL1G32T90GO","","null","<img src=""img/flower2.png"" style=""width:200px; border:14px solid green;"">","null","","","","","","","","",""
"","image-keyboard-response","38","78496","0.0-38.0","3IJXV6UZ1Y5ALGIQWIC3FSQUYF1RIX","A132GRVDGXPJGY","3WRBLBQ2GRU63BU2LFOJL1G32T90GO","","742.9000000059605","img/flower4.png","76","743.2999999970198","3","1","1","1","1,0.333,0.333,0.333,1,0.333,0.333,0.333,1","1,0.333,0.333,0.333,1,0.333,0.333,0.333,1","1",""
"","html-keyboard-response","39","78797","0.0-39.0","3IJXV6UZ1Y5ALGIQWIC3FSQUYF1RIX","A132GRVDGXPJGY","3WRBLBQ2GRU63BU2LFOJL1G32T90GO","","null","<img src=""img/flower4.png"" style=""width:200px; border:14px solid green;"">","null","","","","","","","","",""
"","image-keyboard-response","40","79393","0.0-40.0","3IJXV6UZ1Y5ALGIQWIC3FSQUYF1RIX","A132GRVDGXPJGY","3WRBLBQ2GRU63BU2LFOJL1G32T90GO","","594","img/flower4.png","76","595.4000000059605","3","1","1","1","1,0.333,0.333,0.333,1,0.333,0.333,0.333,1","1,0.333,0.333,0.333,1,0.333,0.333,0.333,1","1",""
"","html-keyboard-response","41","79696","0.0-41.0","3IJXV6UZ1Y5ALGIQWIC3FSQUYF1RIX","A132GRVDGXPJGY","3WRBLBQ2GRU63BU2LFOJL1G32T90GO","","null","<img src=""img/flower4.png"" style=""width:200px; border:14px solid green;"">","null","","","","","","","","",""
"","image-keyboard-response","42","80085","0.0-42.0","3IJXV6UZ1Y5ALGIQWIC3FSQUYF1RIX","A132GRVDGXPJGY","3WRBLBQ2GRU63BU2LFOJL1G32T90GO","","386.3999999910593","img/flower4.png","76","388.40000000596046","3","0","1","1","1,0.333,0.333,0.333,1,0.333,0.333,0.333,1","1,0.333,0.333,0.333,1,0.333,0.333,0.333,1","1",""
"","html-keyboard-response","43","80388","0.0-43.0","3IJXV6UZ1Y5ALGIQWIC3FSQUYF1RIX","A132GRVDGXPJGY","3WRBLBQ2GRU63BU2LFOJL1G32T90GO","","null","<img src=""img/flower4.png"" style=""width:200px;border:14px solid red;"">","null","","","","","","","","",""
"","image-keyboard-response","44","81435","0.0-44.0","3IJXV6UZ1Y5ALGIQWIC3FSQUYF1RIX","A132GRVDGXPJGY","3WRBLBQ2GRU63BU2LFOJL1G32T90GO","","1044.3999999910593","img/flower1.png","74","1046.199999988079","1","0","3","1","1,0.333,0.333,0.333,1,0.333,0.333,0.333,1","1,0.333,0.333,0.333,1,0.333,0.333,0.333,1","1",""
"","html-keyboard-response","45","81738","0.0-45.0","3IJXV6UZ1Y5ALGIQWIC3FSQUYF1RIX","A132GRVDGXPJGY","3WRBLBQ2GRU63BU2LFOJL1G32T90GO","","null","<img src=""img/flower1.png"" style=""width:200px;border:14px solid red;"">","null","","","","","","","","",""
"","image-keyboard-response","46","82923","0.0-46.0","3IJXV6UZ1Y5ALGIQWIC3FSQUYF1RIX","A132GRVDGXPJGY","3WRBLBQ2GRU63BU2LFOJL1G32T90GO","","1182.5","img/flower4.png","76","1184.4000000059605","3","1","1","1","1,0.333,0.333,0.333,1,0.333,0.333,0.333,1","1,0.333,0.333,0.333,1,0.333,0.333,0.333,1","1",""
"","html-keyboard-response","47","83226","0.0-47.0","3IJXV6UZ1Y5ALGIQWIC3FSQUYF1RIX","A132GRVDGXPJGY","3WRBLBQ2GRU63BU2LFOJL1G32T90GO","","null","<img src=""img/flower4.png"" style=""width:200px; border:14px solid green;"">","null","","","","","","","","",""
"","image-keyboard-response","48","84002","0.0-48.0","3IJXV6UZ1Y5ALGIQWIC3FSQUYF1RIX","A132GRVDGXPJGY","3WRBLBQ2GRU63BU2LFOJL1G32T90GO","","774.1000000089407","img/flower2.png","75","775.9000000059605","2","1","2","1","1,0.333,0.333,0.333,1,0.333,0.333,0.333,1","1,0.333,0.333,0.333,1,0.333,0.333,0.333,1","1",""
"","html-keyboard-response","49","84305","0.0-49.0","3IJXV6UZ1Y5ALGIQWIC3FSQUYF1RIX","A132GRVDGXPJGY","3WRBLBQ2GRU63BU2LFOJL1G32T90GO","","null","<img src=""img/flower2.png"" style=""width:200px; border:14px solid green;"">","null","","","","","","","","",""
"","image-keyboard-response","50","85076","0.0-50.0","3IJXV6UZ1Y5ALGIQWIC3FSQUYF1RIX","A132GRVDGXPJGY","3WRBLBQ2GRU63BU2LFOJL1G32T90GO","","768.1999999880791","img/flower1.png","75","770","2","0","3","1","1,0.333,0.333,0.333,1,0.333,0.333,0.333,1","1,0.333,0.333,0.333,1,0.333,0.333,0.333,1","1",""
"","html-keyboard-response","51","85378","0.0-51.0","3IJXV6UZ1Y5ALGIQWIC3FSQUYF1RIX","A132GRVDGXPJGY","3WRBLBQ2GRU63BU2LFOJL1G32T90GO","","null","<img src=""img/flower1.png"" style=""width:200px;border:14px solid red;"">","null","","","","","","","","",""
"","image-keyboard-response","52","85674","0.0-52.0","3IJXV6UZ1Y5ALGIQWIC3FSQUYF1RIX","A132GRVDGXPJGY","3WRBLBQ2GRU63BU2LFOJL1G32T90GO","","293","img/flower1.png","76","294.90000000596046","3","1","3","1","1,0.333,0.333,0.333,1,0.333,0.333,0.333,1","1,0.333,0.333,0.333,1,0.333,0.333,0.333,1","1",""
"","html-keyboard-response","53","85977","0.0-53.0","3IJXV6UZ1Y5ALGIQWIC3FSQUYF1RIX","A132GRVDGXPJGY","3WRBLBQ2GRU63BU2LFOJL1G32T90GO","","null","<img src=""img/flower1.png"" style=""width:200px; border:14px solid green;"">","null","","","","","","","","",""
"","image-keyboard-response","54","87053","0.0-54.0","3IJXV6UZ1Y5ALGIQWIC3FSQUYF1RIX","A132GRVDGXPJGY","3WRBLBQ2GRU63BU2LFOJL1G32T90GO","","1073.5999999940395","img/flower4.png","76","1075","3","0","1","1","1,0.333,0.333,0.333,1,0.333,0.333,0.333,1","1,0.333,0.333,0.333,1,0.333,0.333,0.333,1","1",""
"","html-keyboard-response","55","87355","0.0-55.0","3IJXV6UZ1Y5ALGIQWIC3FSQUYF1RIX","A132GRVDGXPJGY","3WRBLBQ2GRU63BU2LFOJL1G32T90GO","","null","<img src=""img/flower4.png"" style=""width:200px;border:14px solid red;"">","null","","","","","","","","",""
"","image-keyboard-response","56","88375","0.0-56.0","3IJXV6UZ1Y5ALGIQWIC3FSQUYF1RIX","A132GRVDGXPJGY","3WRBLBQ2GRU63BU2LFOJL1G32T90GO","","1018","img/flower1.png","76","1019.6999999880791","3","1","3","1","1,0.333,0.333,0.333,1,0.333,0.333,0.333,1","1,0.333,0.333,0.333,1,0.333,0.333,0.333,1","1",""
"","html-keyboard-response","57","88678","0.0-57.0","3IJXV6UZ1Y5ALGIQWIC3FSQUYF1RIX","A132GRVDGXPJGY","3WRBLBQ2GRU63BU2LFOJL1G32T90GO","","null","<img src=""img/flower1.png"" style=""width:200px; border:14px solid green;"">","null","","","","","","","","",""
"","image-keyboard-response","58","89505","0.0-58.0","3IJXV6UZ1Y5ALGIQWIC3FSQUYF1RIX","A132GRVDGXPJGY","3WRBLBQ2GRU63BU2LFOJL1G32T90GO","","824.5","img/flower4.png","74","826.4000000059605","1","1","1","1","1,0.333,0.333,0.333,1,0.333,0.333,0.333,1","1,0.333,0.333,0.333,1,0.333,0.333,0.333,1","1",""
"","html-keyboard-response","59","89822","0.0-59.0","3IJXV6UZ1Y5ALGIQWIC3FSQUYF1RIX","A132GRVDGXPJGY","3WRBLBQ2GRU63BU2LFOJL1G32T90GO","","null","<img src=""img/flower4.png"" style=""width:200px; border:14px solid green;"">","null","","","","","","","","",""
"","image-keyboard-response","60","90439","0.0-60.0","3IJXV6UZ1Y5ALGIQWIC3FSQUYF1RIX","A132GRVDGXPJGY","3WRBLBQ2GRU63BU2LFOJL1G32T90GO","","615.7000000029802","img/flower4.png","74","617.4000000059605","1","1","1","1","1,0.333,0.333,0.333,1,0.333,0.333,0.333,1","1,0.333,0.333,0.333,1,0.333,0.333,0.333,1","1",""
"","html-keyboard-response","61","90742","0.0-61.0","3IJXV6UZ1Y5ALGIQWIC3FSQUYF1RIX","A132GRVDGXPJGY","3WRBLBQ2GRU63BU2LFOJL1G32T90GO","","null","<img src=""img/flower4.png"" style=""width:200px; border:14px solid green;"">","null","","","","","","","","",""
"","image-keyboard-response","62","91555","0.0-62.0","3IJXV6UZ1Y5ALGIQWIC3FSQUYF1RIX","A132GRVDGXPJGY","3WRBLBQ2GRU63BU2LFOJL1G32T90GO","","810.2999999970198","img/flower2.png","75","811.9000000059605","2","1","2","1","1,0.333,0.333,0.333,1,0.333,0.333,0.333,1","1,0.333,0.333,0.333,1,0.333,0.333,0.333,1","1",""
"","html-keyboard-response","63","91856","0.0-63.0","3IJXV6UZ1Y5ALGIQWIC3FSQUYF1RIX","A132GRVDGXPJGY","3WRBLBQ2GRU63BU2LFOJL1G32T90GO","","null","<img src=""img/flower2.png"" style=""width:200px; border:14px solid green;"">","null","","","","","","","","",""
"","image-keyboard-response","64","92344","0.0-64.0","3IJXV6UZ1Y5ALGIQWIC3FSQUYF1RIX","A132GRVDGXPJGY","3WRBLBQ2GRU63BU2LFOJL1G32T90GO","","487.20000000298023","img/flower2.png","75","487.90000000596046","2","1","2","1","1,0.333,0.333,0.333,1,0.333,0.333,0.333,1","1,0.333,0.333,0.333,1,0.333,0.333,0.333,1","1",""
"","html-keyboard-response","65","92647","0.0-65.0","3IJXV6UZ1Y5ALGIQWIC3FSQUYF1RIX","A132GRVDGXPJGY","3WRBLBQ2GRU63BU2LFOJL1G32T90GO","","null","<img src=""img/flower2.png"" style=""width:200px; border:14px solid green;"">","null","","","","","","","","",""
"","image-keyboard-response","66","93127","0.0-66.0","3IJXV6UZ1Y5ALGIQWIC3FSQUYF1RIX","A132GRVDGXPJGY","3WRBLBQ2GRU63BU2LFOJL1G32T90GO","","477.5","img/flower1.png","76","479.5","3","1","3","1","1,0.333,0.333,0.333,1,0.333,0.333,0.333,1","1,0.333,0.333,0.333,1,0.333,0.333,0.333,1","1",""
"","html-keyboard-response","67","93430","0.0-67.0","3IJXV6UZ1Y5ALGIQWIC3FSQUYF1RIX","A132GRVDGXPJGY","3WRBLBQ2GRU63BU2LFOJL1G32T90GO","","null","<img src=""img/flower1.png"" style=""width:200px; border:14px solid green;"">","null","","","","","","","","",""
"","image-keyboard-response","68","94216","0.0-68.0","3IJXV6UZ1Y5ALGIQWIC3FSQUYF1RIX","A132GRVDGXPJGY","3WRBLBQ2GRU63BU2LFOJL1G32T90GO","","783.4000000059605","img/flower2.png","75","784.9000000059605","2","1","2","1","1,0.333,0.333,0.333,1,0.333,0.333,0.333,1","1,0.333,0.333,0.333,1,0.333,0.333,0.333,1","1",""
"","html-keyboard-response","69","94518","0.0-69.0","3IJXV6UZ1Y5ALGIQWIC3FSQUYF1RIX","A132GRVDGXPJGY","3WRBLBQ2GRU63BU2LFOJL1G32T90GO","","null","<img src=""img/flower2.png"" style=""width:200px; border:14px solid green;"">","null","","","","","","","","",""
"","image-keyboard-response","70","95187","0.0-70.0","3IJXV6UZ1Y5ALGIQWIC3FSQUYF1RIX","A132GRVDGXPJGY","3WRBLBQ2GRU63BU2LFOJL1G32T90GO","","666.7999999970198","img/flower4.png","74","668.7999999970198","1","1","1","1","1,0.333,0.333,0.333,1,0.333,0.333,0.333,1","1,0.333,0.333,0.333,1,0.333,0.333,0.333,1","1",""
"","html-keyboard-response","71","95490","0.0-71.0","3IJXV6UZ1Y5ALGIQWIC3FSQUYF1RIX","A132GRVDGXPJGY","3WRBLBQ2GRU63BU2LFOJL1G32T90GO","","null","<img src=""img/flower4.png"" style=""width:200px; border:14px solid green;"">","null","","","","","","","","",""
"","image-keyboard-response","72","96309","0.0-72.0","3IJXV6UZ1Y5ALGIQWIC3FSQUYF1RIX","A132GRVDGXPJGY","3WRBLBQ2GRU63BU2LFOJL1G32T90GO","","816.1999999880791","img/flower1.png","76","818","3","1","3","1","1,0.333,0.333,0.333,1,0.333,0.333,0.333,1","1,0.333,0.333,0.333,1,0.333,0.333,0.333,1","1",""
"","html-keyboard-response","73","96624","0.0-73.0","3IJXV6UZ1Y5ALGIQWIC3FSQUYF1RIX","A132GRVDGXPJGY","3WRBLBQ2GRU63BU2LFOJL1G32T90GO","","null","<img src=""img/flower1.png"" style=""width:200px; border:14px solid green;"">","null","","","","","","","","",""
"","image-keyboard-response","74","97441","0.0-74.0","3IJXV6UZ1Y5ALGIQWIC3FSQUYF1RIX","A132GRVDGXPJGY","3WRBLBQ2GRU63BU2LFOJL1G32T90GO","","814.2000000029802","img/flower1.png","76","815.7000000029802","3","1","3","1","1,0.333,0.333,0.333,1,0.333,0.333,0.333,1","1,0.333,0.333,0.333,1,0.333,0.333,0.333,1","1",""
"","html-keyboard-response","75","97742","0.0-75.0","3IJXV6UZ1Y5ALGIQWIC3FSQUYF1RIX","A132GRVDGXPJGY","3WRBLBQ2GRU63BU2LFOJL1G32T90GO","","null","<img src=""img/flower1.png"" style=""width:200px; border:14px solid green;"">","null","","","","","","","","",""
"","image-keyboard-response","76","98199","0.0-76.0","3IJXV6UZ1Y5ALGIQWIC3FSQUYF1RIX","A132GRVDGXPJGY","3WRBLBQ2GRU63BU2LFOJL1G32T90GO","","454.29999999701977","img/flower1.png","76","456.29999999701977","3","1","3","1","1,0.333,0.333,0.333,1,0.333,0.333,0.333,1","1,0.333,0.333,0.333,1,0.333,0.333,0.333,1","1",""
"","html-keyboard-response","77","98502","0.0-77.0","3IJXV6UZ1Y5ALGIQWIC3FSQUYF1RIX","A132GRVDGXPJGY","3WRBLBQ2GRU63BU2LFOJL1G32T90GO","","null","<img src=""img/flower1.png"" style=""width:200px; border:14px solid green;"">","null","","","","","","","","",""
"","image-keyboard-response","78","99310","0.0-78.0","3IJXV6UZ1Y5ALGIQWIC3FSQUYF1RIX","A132GRVDGXPJGY","3WRBLBQ2GRU63BU2LFOJL1G32T90GO","","806.0999999940395","img/flower4.png","74","808.1000000089407","1","1","1","1","1,0.333,0.333,0.333,1,0.333,0.333,0.333,1","1,0.333,0.333,0.333,1,0.333,0.333,0.333,1","1",""
"","html-keyboard-response","79","99614","0.0-79.0","3IJXV6UZ1Y5ALGIQWIC3FSQUYF1RIX","A132GRVDGXPJGY","3WRBLBQ2GRU63BU2LFOJL1G32T90GO","","null","<img src=""img/flower4.png"" style=""width:200px; border:14px solid green;"">","null","","","","","","","","",""
"","image-keyboard-response","80","100000","0.0-80.0","3IJXV6UZ1Y5ALGIQWIC3FSQUYF1RIX","A132GRVDGXPJGY","3WRBLBQ2GRU63BU2LFOJL1G32T90GO","","383.79999999701977","img/flower4.png","74","385.70000000298023","1","1","1","1","1,0.333,0.333,0.333,1,0.333,0.333,0.333,1","1,0.333,0.333,0.333,1,0.333,0.333,0.333,1","1",""
"","html-keyboard-response","81","100303","0.0-81.0","3IJXV6UZ1Y5ALGIQWIC3FSQUYF1RIX","A132GRVDGXPJGY","3WRBLBQ2GRU63BU2LFOJL1G32T90GO","","null","<img src=""img/flower4.png"" style=""width:200px; border:14px solid green;"">","null","","","","","","","","",""
"","image-keyboard-response","82","101045","0.0-82.0","3IJXV6UZ1Y5ALGIQWIC3FSQUYF1RIX","A132GRVDGXPJGY","3WRBLBQ2GRU63BU2LFOJL1G32T90GO","","739.2999999970198","img/flower2.png","75","740.9000000059605","2","1","2","1","1,0.333,0.333,0.333,1,0.333,0.333,0.333,1","1,0.333,0.333,0.333,1,0.333,0.333,0.333,1","1",""
"","html-keyboard-response","83","101347","0.0-83.0","3IJXV6UZ1Y5ALGIQWIC3FSQUYF1RIX","A132GRVDGXPJGY","3WRBLBQ2GRU63BU2LFOJL1G32T90GO","","null","<img src=""img/flower2.png"" style=""width:200px; border:14px solid green;"">","null","","","","","","","","",""
"","image-keyboard-response","84","102196","0.0-84.0","3IJXV6UZ1Y5ALGIQWIC3FSQUYF1RIX","A132GRVDGXPJGY","3WRBLBQ2GRU63BU2LFOJL1G32T90GO","","846.5","img/flower1.png","76","848.5","3","1","3","1","1,0.333,0.333,0.333,1,0.333,0.333,0.333,1","1,0.333,0.333,0.333,1,0.333,0.333,0.333,1","1",""
"","html-keyboard-response","85","102512","0.0-85.0","3IJXV6UZ1Y5ALGIQWIC3FSQUYF1RIX","A132GRVDGXPJGY","3WRBLBQ2GRU63BU2LFOJL1G32T90GO","","null","<img src=""img/flower1.png"" style=""width:200px; border:14px solid green;"">","null","","","","","","","","",""
"","image-keyboard-response","86","103015","0.0-86.0","3IJXV6UZ1Y5ALGIQWIC3FSQUYF1RIX","A132GRVDGXPJGY","3WRBLBQ2GRU63BU2LFOJL1G32T90GO","","501.1000000089407","img/flower1.png","76","502.70000000298023","3","1","3","1","1,0.333,0.333,0.333,1,0.333,0.333,0.333,1","1,0.333,0.333,0.333,1,0.333,0.333,0.333,1","1",""
"","html-keyboard-response","87","103319","0.0-87.0","3IJXV6UZ1Y5ALGIQWIC3FSQUYF1RIX","A132GRVDGXPJGY","3WRBLBQ2GRU63BU2LFOJL1G32T90GO","","null","<img src=""img/flower1.png"" style=""width:200px; border:14px solid green;"">","null","","","","","","","","",""
"","image-keyboard-response","88","103741","0.0-88.0","3IJXV6UZ1Y5ALGIQWIC3FSQUYF1RIX","A132GRVDGXPJGY","3WRBLBQ2GRU63BU2LFOJL1G32T90GO","","421.6000000089407","img/flower1.png","76","422.90000000596046","3","1","3","1","1,0.333,0.333,0.333,1,0.333,0.333,0.333,1","1,0.333,0.333,0.333,1,0.333,0.333,0.333,1","1",""
"","html-keyboard-response","89","104044","0.0-89.0","3IJXV6UZ1Y5ALGIQWIC3FSQUYF1RIX","A132GRVDGXPJGY","3WRBLBQ2GRU63BU2LFOJL1G32T90GO","","null","<img src=""img/flower1.png"" style=""width:200px; border:14px solid green;"">","null","","","","","","","","",""
"","image-keyboard-response","90","104695","0.0-90.0","3IJXV6UZ1Y5ALGIQWIC3FSQUYF1RIX","A132GRVDGXPJGY","3WRBLBQ2GRU63BU2LFOJL1G32T90GO","","649.0999999940395","img/flower4.png","75","650.7999999970198","2","0","1","1","1,0.333,0.333,0.333,1,0.333,0.333,0.333,1","1,0.333,0.333,0.333,1,0.333,0.333,0.333,1","1",""
"","html-keyboard-response","91","104999","0.0-91.0","3IJXV6UZ1Y5ALGIQWIC3FSQUYF1RIX","A132GRVDGXPJGY","3WRBLBQ2GRU63BU2LFOJL1G32T90GO","","null","<img src=""img/flower4.png"" style=""width:200px;border:14px solid red;"">","null","","","","","","","","",""
"","image-keyboard-response","92","105167","0.0-92.0","3IJXV6UZ1Y5ALGIQWIC3FSQUYF1RIX","A132GRVDGXPJGY","3WRBLBQ2GRU63BU2LFOJL1G32T90GO","","166.40000000596046","img/flower2.png","74","168.29999999701977","1","0","2","1","1,0.333,0.333,0.333,1,0.333,0.333,0.333,1","1,0.333,0.333,0.333,1,0.333,0.333,0.333,1","1",""
"","html-keyboard-response","93","105470","0.0-93.0","3IJXV6UZ1Y5ALGIQWIC3FSQUYF1RIX","A132GRVDGXPJGY","3WRBLBQ2GRU63BU2LFOJL1G32T90GO","","null","<img src=""img/flower2.png"" style=""width:200px;border:14px solid red;"">","null","","","","","","","","",""
"","image-keyboard-response","94","106774","0.0-94.0","3IJXV6UZ1Y5ALGIQWIC3FSQUYF1RIX","A132GRVDGXPJGY","3WRBLBQ2GRU63BU2LFOJL1G32T90GO","","1301.9000000059605","img/flower4.png","74","1303.7000000029802","1","1","1","1","1,0.333,0.333,0.333,1,0.333,0.333,0.333,1","1,0.333,0.333,0.333,1,0.333,0.333,0.333,1","1",""
"","html-keyboard-response","95","107077","0.0-95.0","3IJXV6UZ1Y5ALGIQWIC3FSQUYF1RIX","A132GRVDGXPJGY","3WRBLBQ2GRU63BU2LFOJL1G32T90GO","","null","<img src=""img/flower4.png"" style=""width:200px; border:14px solid green;"">","null","","","","","","","","",""
"","image-keyboard-response","96","107959","0.0-96.0","3IJXV6UZ1Y5ALGIQWIC3FSQUYF1RIX","A132GRVDGXPJGY","3WRBLBQ2GRU63BU2LFOJL1G32T90GO","","879.3000000119209","img/flower1.png","76","880.8999999910593","3","1","3","1","1,0.333,0.333,0.333,1,0.333,0.333,0.333,1","1,0.333,0.333,0.333,1,0.333,0.333,0.333,1","1",""
"","html-keyboard-response","97","108260","0.0-97.0","3IJXV6UZ1Y5ALGIQWIC3FSQUYF1RIX","A132GRVDGXPJGY","3WRBLBQ2GRU63BU2LFOJL1G32T90GO","","null","<img src=""img/flower1.png"" style=""width:200px; border:14px solid green;"">","null","","","","","","","","",""
"","image-keyboard-response","98","108961","0.0-98.0","3IJXV6UZ1Y5ALGIQWIC3FSQUYF1RIX","A132GRVDGXPJGY","3WRBLBQ2GRU63BU2LFOJL1G32T90GO","","698","img/flower4.png","74","700","1","1","1","1","1,0.333,0.333,0.333,1,0.333,0.333,0.333,1","1,0.333,0.333,0.333,1,0.333,0.333,0.333,1","1",""
"","html-keyboard-response","99","109263","0.0-99.0","3IJXV6UZ1Y5ALGIQWIC3FSQUYF1RIX","A132GRVDGXPJGY","3WRBLBQ2GRU63BU2LFOJL1G32T90GO","","null","<img src=""img/flower4.png"" style=""width:200px; border:14px solid green;"">","null","","","","","","","","",""
"","image-keyboard-response","100","110019","0.0-100.0","3IJXV6UZ1Y5ALGIQWIC3FSQUYF1RIX","A132GRVDGXPJGY","3WRBLBQ2GRU63BU2LFOJL1G32T90GO","","752.8999999910593","img/flower1.png","76","754.8000000119209","3","1","3","1","1,0.333,0.333,0.333,1,0.333,0.333,0.333,1","1,0.333,0.333,0.333,1,0.333,0.333,0.333,1","1",""
"","html-keyboard-response","101","110322","0.0-101.0","3IJXV6UZ1Y5ALGIQWIC3FSQUYF1RIX","A132GRVDGXPJGY","3WRBLBQ2GRU63BU2LFOJL1G32T90GO","","null","<img src=""img/flower1.png"" style=""width:200px; border:14px solid green;"">","null","","","","","","","","",""
"","image-keyboard-response","102","110857","0.0-102.0","3IJXV6UZ1Y5ALGIQWIC3FSQUYF1RIX","A132GRVDGXPJGY","3WRBLBQ2GRU63BU2LFOJL1G32T90GO","","532.1000000089407","img/flower1.png","76","533.9000000059605","3","1","3","1","1,0.333,0.333,0.333,1,0.333,0.333,0.333,1","1,0.333,0.333,0.333,1,0.333,0.333,0.333,1","1",""
"","html-keyboard-response","103","111160","0.0-103.0","3IJXV6UZ1Y5ALGIQWIC3FSQUYF1RIX","A132GRVDGXPJGY","3WRBLBQ2GRU63BU2LFOJL1G32T90GO","","null","<img src=""img/flower1.png"" style=""width:200px; border:14px solid green;"">","null","","","","","","","","",""
"","image-keyboard-response","104","111898","0.0-104.0","3IJXV6UZ1Y5ALGIQWIC3FSQUYF1RIX","A132GRVDGXPJGY","3WRBLBQ2GRU63BU2LFOJL1G32T90GO","","735.4000000059605","img/flower2.png","75","737.5","2","1","2","1","1,0.333,0.333,0.333,1,0.333,0.333,0.333,1","1,0.333,0.333,0.333,1,0.333,0.333,0.333,1","1",""
"","html-keyboard-response","105","112202","0.0-105.0","3IJXV6UZ1Y5ALGIQWIC3FSQUYF1RIX","A132GRVDGXPJGY","3WRBLBQ2GRU63BU2LFOJL1G32T90GO","","null","<img src=""img/flower2.png"" style=""width:200px; border:14px solid green;"">","null","","","","","","","","",""
"","image-keyboard-response","106","112921","0.0-106.0","3IJXV6UZ1Y5ALGIQWIC3FSQUYF1RIX","A132GRVDGXPJGY","3WRBLBQ2GRU63BU2LFOJL1G32T90GO","","716.4000000059605","img/flower1.png","76","718.5999999940395","3","1","3","1","1,0.333,0.333,0.333,1,0.333,0.333,0.333,1","1,0.333,0.333,0.333,1,0.333,0.333,0.333,1","1",""
"","html-keyboard-response","107","113223","0.0-107.0","3IJXV6UZ1Y5ALGIQWIC3FSQUYF1RIX","A132GRVDGXPJGY","3WRBLBQ2GRU63BU2LFOJL1G32T90GO","","null","<img src=""img/flower1.png"" style=""width:200px; border:14px solid green;"">","null","","","","","","","","",""
"","image-keyboard-response","108","113814","0.0-108.0","3IJXV6UZ1Y5ALGIQWIC3FSQUYF1RIX","A132GRVDGXPJGY","3WRBLBQ2GRU63BU2LFOJL1G32T90GO","","585.2000000029802","img/flower1.png","76","586.5999999940395","3","1","3","1","1,0.333,0.333,0.333,1,0.333,0.333,0.333,1","1,0.333,0.333,0.333,1,0.333,0.333,0.333,1","1",""
"","html-keyboard-response","109","114115","0.0-109.0","3IJXV6UZ1Y5ALGIQWIC3FSQUYF1RIX","A132GRVDGXPJGY","3WRBLBQ2GRU63BU2LFOJL1G32T90GO","","null","<img src=""img/flower1.png"" style=""width:200px; border:14px solid green;"">","null","","","","","","","","",""
"","image-keyboard-response","110","115029","0.0-110.0","3IJXV6UZ1Y5ALGIQWIC3FSQUYF1RIX","A132GRVDGXPJGY","3WRBLBQ2GRU63BU2LFOJL1G32T90GO","","910.9000000059605","img/flower2.png","75","912.7000000029802","2","1","2","1","1,0.333,0.333,0.333,1,0.333,0.333,0.333,1","1,0.333,0.333,0.333,1,0.333,0.333,0.333,1","1",""
"","html-keyboard-response","111","115332","0.0-111.0","3IJXV6UZ1Y5ALGIQWIC3FSQUYF1RIX","A132GRVDGXPJGY","3WRBLBQ2GRU63BU2LFOJL1G32T90GO","","null","<img src=""img/flower2.png"" style=""width:200px; border:14px solid green;"">","null","","","","","","","","",""
"","image-keyboard-response","112","116332","0.0-112.0","3IJXV6UZ1Y5ALGIQWIC3FSQUYF1RIX","A132GRVDGXPJGY","3WRBLBQ2GRU63BU2LFOJL1G32T90GO","","997.0999999940395","img/flower4.png","74","999.2000000029802","1","1","1","1","1,0.333,0.333,0.333,1,0.333,0.333,0.333,1","1,0.333,0.333,0.333,1,0.333,0.333,0.333,1","1",""
"","html-keyboard-response","113","116636","0.0-113.0","3IJXV6UZ1Y5ALGIQWIC3FSQUYF1RIX","A132GRVDGXPJGY","3WRBLBQ2GRU63BU2LFOJL1G32T90GO","","null","<img src=""img/flower4.png"" style=""width:200px; border:14px solid green;"">","null","","","","","","","","",""
"","image-keyboard-response","114","117100","0.0-114.0","3IJXV6UZ1Y5ALGIQWIC3FSQUYF1RIX","A132GRVDGXPJGY","3WRBLBQ2GRU63BU2LFOJL1G32T90GO","","461.79999999701977","img/flower4.png","74","463.30000001192093","1","1","1","1","1,0.333,0.333,0.333,1,0.333,0.333,0.333,1","1,0.333,0.333,0.333,1,0.333,0.333,0.333,1","1",""
"","html-keyboard-response","115","117401","0.0-115.0","3IJXV6UZ1Y5ALGIQWIC3FSQUYF1RIX","A132GRVDGXPJGY","3WRBLBQ2GRU63BU2LFOJL1G32T90GO","","null","<img src=""img/flower4.png"" style=""width:200px; border:14px solid green;"">","null","","","","","","","","",""
"","image-keyboard-response","116","118231","0.0-116.0","3IJXV6UZ1Y5ALGIQWIC3FSQUYF1RIX","A132GRVDGXPJGY","3WRBLBQ2GRU63BU2LFOJL1G32T90GO","","828.2000000029802","img/flower1.png","76","829.7999999970198","3","1","3","1","1,0.333,0.333,0.333,1,0.333,0.333,0.333,1","1,0.333,0.333,0.333,1,0.333,0.333,0.333,1","1",""
"","html-keyboard-response","117","118533","0.0-117.0","3IJXV6UZ1Y5ALGIQWIC3FSQUYF1RIX","A132GRVDGXPJGY","3WRBLBQ2GRU63BU2LFOJL1G32T90GO","","null","<img src=""img/flower1.png"" style=""width:200px; border:14px solid green;"">","null","","","","","","","","",""
"","image-keyboard-response","118","119146","0.0-118.0","3IJXV6UZ1Y5ALGIQWIC3FSQUYF1RIX","A132GRVDGXPJGY","3WRBLBQ2GRU63BU2LFOJL1G32T90GO","","611.5","img/flower1.png","76","613.4000000059605","3","1","3","1","1,0.333,0.333,0.333,1,0.333,0.333,0.333,1","1,0.333,0.333,0.333,1,0.333,0.333,0.333,1","1",""
"","html-keyboard-response","119","119450","0.0-119.0","3IJXV6UZ1Y5ALGIQWIC3FSQUYF1RIX","A132GRVDGXPJGY","3WRBLBQ2GRU63BU2LFOJL1G32T90GO","","null","<img src=""img/flower1.png"" style=""width:200px; border:14px solid green;"">","null","","","","","","","","",""
"","image-keyboard-response","120","120227","0.0-120.0","3IJXV6UZ1Y5ALGIQWIC3FSQUYF1RIX","A132GRVDGXPJGY","3WRBLBQ2GRU63BU2LFOJL1G32T90GO","","773.3999999910593","img/flower2.png","75","775.1000000089407","2","1","2","1","1,0.333,0.333,0.333,1,0.333,0.333,0.333,1","1,0.333,0.333,0.333,1,0.333,0.333,0.333,1","1",""
"","html-keyboard-response","121","120531","0.0-121.0","3IJXV6UZ1Y5ALGIQWIC3FSQUYF1RIX","A132GRVDGXPJGY","3WRBLBQ2GRU63BU2LFOJL1G32T90GO","","null","<img src=""img/flower2.png"" style=""width:200px; border:14px solid green;"">","null","","","","","","","","",""
"","image-keyboard-response","122","121262","0.0-122.0","3IJXV6UZ1Y5ALGIQWIC3FSQUYF1RIX","A132GRVDGXPJGY","3WRBLBQ2GRU63BU2LFOJL1G32T90GO","","728.5","img/flower1.png","76","730.2999999970198","3","1","3","1","1,0.333,0.333,0.333,1,0.333,0.333,0.333,1","1,0.333,0.333,0.333,1,0.333,0.333,0.333,1","1",""
"","html-keyboard-response","123","121566","0.0-123.0","3IJXV6UZ1Y5ALGIQWIC3FSQUYF1RIX","A132GRVDGXPJGY","3WRBLBQ2GRU63BU2LFOJL1G32T90GO","","null","<img src=""img/flower1.png"" style=""width:200px; border:14px solid green;"">","null","","","","","","","","",""
"","image-keyboard-response","124","122335","0.0-124.0","3IJXV6UZ1Y5ALGIQWIC3FSQUYF1RIX","A132GRVDGXPJGY","3WRBLBQ2GRU63BU2LFOJL1G32T90GO","","768.2000000029802","img/flower4.png","74","768.7000000029802","1","1","1","1","1,0.333,0.333,0.333,1,0.333,0.333,0.333,1","1,0.333,0.333,0.333,1,0.333,0.333,0.333,1","1",""
"","html-keyboard-response","125","122636","0.0-125.0","3IJXV6UZ1Y5ALGIQWIC3FSQUYF1RIX","A132GRVDGXPJGY","3WRBLBQ2GRU63BU2LFOJL1G32T90GO","","null","<img src=""img/flower4.png"" style=""width:200px; border:14px solid green;"">","null","","","","","","","","",""
"","image-keyboard-response","126","123095","0.0-126.0","3IJXV6UZ1Y5ALGIQWIC3FSQUYF1RIX","A132GRVDGXPJGY","3WRBLBQ2GRU63BU2LFOJL1G32T90GO","","456.09999999403954","img/flower4.png","74","457.79999999701977","1","1","1","1","1,0.333,0.333,0.333,1,0.333,0.333,0.333,1","1,0.333,0.333,0.333,1,0.333,0.333,0.333,1","1",""
"","html-keyboard-response","127","123407","0.0-127.0","3IJXV6UZ1Y5ALGIQWIC3FSQUYF1RIX","A132GRVDGXPJGY","3WRBLBQ2GRU63BU2LFOJL1G32T90GO","","null","<img src=""img/flower4.png"" style=""width:200px; border:14px solid green;"">","null","","","","","","","","",""
"","image-keyboard-response","128","123845","0.0-128.0","3IJXV6UZ1Y5ALGIQWIC3FSQUYF1RIX","A132GRVDGXPJGY","3WRBLBQ2GRU63BU2LFOJL1G32T90GO","","437.5","img/flower4.png","74","438.20000000298023","1","1","1","1","1,0.333,0.333,0.333,1,0.333,0.333,0.333,1","1,0.333,0.333,0.333,1,0.333,0.333,0.333,1","1",""
"","html-keyboard-response","129","124148","0.0-129.0","3IJXV6UZ1Y5ALGIQWIC3FSQUYF1RIX","A132GRVDGXPJGY","3WRBLBQ2GRU63BU2LFOJL1G32T90GO","","null","<img src=""img/flower4.png"" style=""width:200px; border:14px solid green;"">","null","","","","","","","","",""
"","image-keyboard-response","130","125438","0.0-130.0","3IJXV6UZ1Y5ALGIQWIC3FSQUYF1RIX","A132GRVDGXPJGY","3WRBLBQ2GRU63BU2LFOJL1G32T90GO","","1287.5999999940395","img/flower2.png","76","1289.5","3","0","2","1","1,0.333,0.333,0.333,1,0.333,0.333,0.333,1","1,0.333,0.333,0.333,1,0.333,0.333,0.333,1","1",""
"","html-keyboard-response","131","125748","0.0-131.0","3IJXV6UZ1Y5ALGIQWIC3FSQUYF1RIX","A132GRVDGXPJGY","3WRBLBQ2GRU63BU2LFOJL1G32T90GO","","null","<img src=""img/flower2.png"" style=""width:200px;border:14px solid red;"">","null","","","","","","","","",""
"","image-keyboard-response","132","126607","0.0-132.0","3IJXV6UZ1Y5ALGIQWIC3FSQUYF1RIX","A132GRVDGXPJGY","3WRBLBQ2GRU63BU2LFOJL1G32T90GO","","856.7000000029802","img/flower4.png","74","858.2999999970198","1","1","1","1","1,0.333,0.333,0.333,1,0.333,0.333,0.333,1","1,0.333,0.333,0.333,1,0.333,0.333,0.333,1","1",""
"","html-keyboard-response","133","126909","0.0-133.0","3IJXV6UZ1Y5ALGIQWIC3FSQUYF1RIX","A132GRVDGXPJGY","3WRBLBQ2GRU63BU2LFOJL1G32T90GO","","null","<img src=""img/flower4.png"" style=""width:200px; border:14px solid green;"">","null","","","","","","","","",""
"","image-keyboard-response","134","127624","0.0-134.0","3IJXV6UZ1Y5ALGIQWIC3FSQUYF1RIX","A132GRVDGXPJGY","3WRBLBQ2GRU63BU2LFOJL1G32T90GO","","713.7000000029802","img/flower1.png","76","714.5","3","1","3","1","1,0.333,0.333,0.333,1,0.333,0.333,0.333,1","1,0.333,0.333,0.333,1,0.333,0.333,0.333,1","1",""
"","html-keyboard-response","135","127927","0.0-135.0","3IJXV6UZ1Y5ALGIQWIC3FSQUYF1RIX","A132GRVDGXPJGY","3WRBLBQ2GRU63BU2LFOJL1G32T90GO","","null","<img src=""img/flower1.png"" style=""width:200px; border:14px solid green;"">","null","","","","","","","","",""
"","image-keyboard-response","136","128413","0.0-136.0","3IJXV6UZ1Y5ALGIQWIC3FSQUYF1RIX","A132GRVDGXPJGY","3WRBLBQ2GRU63BU2LFOJL1G32T90GO","","484.5","img/flower1.png","76","486.1000000089407","3","1","3","1","1,0.333,0.333,0.333,1,0.333,0.333,0.333,1","1,0.333,0.333,0.333,1,0.333,0.333,0.333,1","1",""
"","html-keyboard-response","137","128715","0.0-137.0","3IJXV6UZ1Y5ALGIQWIC3FSQUYF1RIX","A132GRVDGXPJGY","3WRBLBQ2GRU63BU2LFOJL1G32T90GO","","null","<img src=""img/flower1.png"" style=""width:200px; border:14px solid green;"">","null","","","","","","","","",""
"","image-keyboard-response","138","129440","0.0-138.0","3IJXV6UZ1Y5ALGIQWIC3FSQUYF1RIX","A132GRVDGXPJGY","3WRBLBQ2GRU63BU2LFOJL1G32T90GO","","722.8999999910593","img/flower2.png","74","724.6999999880791","1","1","2","1","1,0.333,0.333,0.333,1,0.333,0.333,0.333,1","1,0.333,0.333,0.333,1,0.333,0.333,0.333,1","1",""
"","html-keyboard-response","139","129744","0.0-139.0","3IJXV6UZ1Y5ALGIQWIC3FSQUYF1RIX","A132GRVDGXPJGY","3WRBLBQ2GRU63BU2LFOJL1G32T90GO","","null","<img src=""img/flower2.png"" style=""width:200px; border:14px solid green;"">","null","","","","","","","","",""
"","image-keyboard-response","140","131531","0.0-140.0","3IJXV6UZ1Y5ALGIQWIC3FSQUYF1RIX","A132GRVDGXPJGY","3WRBLBQ2GRU63BU2LFOJL1G32T90GO","","1785","img/flower1.png","76","1786.800000011921","3","1","3","1","1,0.333,0.333,0.333,1,0.333,0.333,0.333,1","1,0.333,0.333,0.333,1,0.333,0.333,0.333,1","1",""
"","html-keyboard-response","141","131834","0.0-141.0","3IJXV6UZ1Y5ALGIQWIC3FSQUYF1RIX","A132GRVDGXPJGY","3WRBLBQ2GRU63BU2LFOJL1G32T90GO","","null","<img src=""img/flower1.png"" style=""width:200px; border:14px solid green;"">","null","","","","","","","","",""
"","image-keyboard-response","142","132563","0.0-142.0","3IJXV6UZ1Y5ALGIQWIC3FSQUYF1RIX","A132GRVDGXPJGY","3WRBLBQ2GRU63BU2LFOJL1G32T90GO","","726","img/flower2.png","75","727.7999999970198","2","1","2","1","1,0.333,0.333,0.333,1,0.333,0.333,0.333,1","1,0.333,0.333,0.333,1,0.333,0.333,0.333,1","1",""
"","html-keyboard-response","143","132866","0.0-143.0","3IJXV6UZ1Y5ALGIQWIC3FSQUYF1RIX","A132GRVDGXPJGY","3WRBLBQ2GRU63BU2LFOJL1G32T90GO","","null","<img src=""img/flower2.png"" style=""width:200px; border:14px solid green;"">","null","","","","","","","","",""
"","image-keyboard-response","144","133591","0.0-144.0","3IJXV6UZ1Y5ALGIQWIC3FSQUYF1RIX","A132GRVDGXPJGY","3WRBLBQ2GRU63BU2LFOJL1G32T90GO","","722.2000000029802","img/flower4.png","74","724.1000000089407","1","1","1","1","1,0.333,0.333,0.333,1,0.333,0.333,0.333,1","1,0.333,0.333,0.333,1,0.333,0.333,0.333,1","1",""
"","html-keyboard-response","145","133894","0.0-145.0","3IJXV6UZ1Y5ALGIQWIC3FSQUYF1RIX","A132GRVDGXPJGY","3WRBLBQ2GRU63BU2LFOJL1G32T90GO","","null","<img src=""img/flower4.png"" style=""width:200px; border:14px solid green;"">","null","","","","","","","","",""
"","image-keyboard-response","146","134607","0.0-146.0","3IJXV6UZ1Y5ALGIQWIC3FSQUYF1RIX","A132GRVDGXPJGY","3WRBLBQ2GRU63BU2LFOJL1G32T90GO","","710.1999999880791","img/flower2.png","75","712","2","1","2","1","1,0.333,0.333,0.333,1,0.333,0.333,0.333,1","1,0.333,0.333,0.333,1,0.333,0.333,0.333,1","1",""
"","html-keyboard-response","147","134910","0.0-147.0","3IJXV6UZ1Y5ALGIQWIC3FSQUYF1RIX","A132GRVDGXPJGY","3WRBLBQ2GRU63BU2LFOJL1G32T90GO","","null","<img src=""img/flower2.png"" style=""width:200px; border:14px solid green;"">","null","","","","","","","","",""
"","image-keyboard-response","148","135617","0.0-148.0","3IJXV6UZ1Y5ALGIQWIC3FSQUYF1RIX","A132GRVDGXPJGY","3WRBLBQ2GRU63BU2LFOJL1G32T90GO","","704.7999999970198","img/flower1.png","76","706.6000000089407","3","1","3","1","1,0.333,0.333,0.333,1,0.333,0.333,0.333,1","1,0.333,0.333,0.333,1,0.333,0.333,0.333,1","1",""
"","html-keyboard-response","149","135920","0.0-149.0","3IJXV6UZ1Y5ALGIQWIC3FSQUYF1RIX","A132GRVDGXPJGY","3WRBLBQ2GRU63BU2LFOJL1G32T90GO","","null","<img src=""img/flower1.png"" style=""width:200px; border:14px solid green;"">","null","","","","","","","","",""
"","image-keyboard-response","150","136520","0.0-150.0","3IJXV6UZ1Y5ALGIQWIC3FSQUYF1RIX","A132GRVDGXPJGY","3WRBLBQ2GRU63BU2LFOJL1G32T90GO","","598.4000000059605","img/flower1.png","76","600.2000000029802","3","1","3","1","1,0.333,0.333,0.333,1,0.333,0.333,0.333,1","1,0.333,0.333,0.333,1,0.333,0.333,0.333,1","1",""
"","html-keyboard-response","151","136830","0.0-151.0","3IJXV6UZ1Y5ALGIQWIC3FSQUYF1RIX","A132GRVDGXPJGY","3WRBLBQ2GRU63BU2LFOJL1G32T90GO","","null","<img src=""img/flower1.png"" style=""width:200px; border:14px solid green;"">","null","","","","","","","","",""
"","image-keyboard-response","152","137615","0.0-152.0","3IJXV6UZ1Y5ALGIQWIC3FSQUYF1RIX","A132GRVDGXPJGY","3WRBLBQ2GRU63BU2LFOJL1G32T90GO","","783","img/flower4.png","74","784.7000000029802","1","1","1","1","1,0.333,0.333,0.333,1,0.333,0.333,0.333,1","1,0.333,0.333,0.333,1,0.333,0.333,0.333,1","1",""
"","html-keyboard-response","153","137918","0.0-153.0","3IJXV6UZ1Y5ALGIQWIC3FSQUYF1RIX","A132GRVDGXPJGY","3WRBLBQ2GRU63BU2LFOJL1G32T90GO","","null","<img src=""img/flower4.png"" style=""width:200px; border:14px solid green;"">","null","","","","","","","","",""
"","image-keyboard-response","154","138612","0.0-154.0","3IJXV6UZ1Y5ALGIQWIC3FSQUYF1RIX","A132GRVDGXPJGY","3WRBLBQ2GRU63BU2LFOJL1G32T90GO","","691.7000000029802","img/flower1.png","76","693.1999999880791","3","1","3","1","1,0.333,0.333,0.333,1,0.333,0.333,0.333,1","1,0.333,0.333,0.333,1,0.333,0.333,0.333,1","1",""
"","html-keyboard-response","155","138914","0.0-155.0","3IJXV6UZ1Y5ALGIQWIC3FSQUYF1RIX","A132GRVDGXPJGY","3WRBLBQ2GRU63BU2LFOJL1G32T90GO","","null","<img src=""img/flower1.png"" style=""width:200px; border:14px solid green;"">","null","","","","","","","","",""
"","image-keyboard-response","156","139643","0.0-156.0","3IJXV6UZ1Y5ALGIQWIC3FSQUYF1RIX","A132GRVDGXPJGY","3WRBLBQ2GRU63BU2LFOJL1G32T90GO","","726.6999999880791","img/flower2.png","75","728.5","2","1","2","1","1,0.333,0.333,0.333,1,0.333,0.333,0.333,1","1,0.333,0.333,0.333,1,0.333,0.333,0.333,1","1",""
"","html-keyboard-response","157","139945","0.0-157.0","3IJXV6UZ1Y5ALGIQWIC3FSQUYF1RIX","A132GRVDGXPJGY","3WRBLBQ2GRU63BU2LFOJL1G32T90GO","","null","<img src=""img/flower2.png"" style=""width:200px; border:14px solid green;"">","null","","","","","","","","",""
"","image-keyboard-response","158","141061","0.0-158.0","3IJXV6UZ1Y5ALGIQWIC3FSQUYF1RIX","A132GRVDGXPJGY","3WRBLBQ2GRU63BU2LFOJL1G32T90GO","","1113.0999999940395","img/flower4.png","74","1114.8999999910593","1","1","1","1","1,0.333,0.333,0.333,1,0.333,0.333,0.333,1","1,0.333,0.333,0.333,1,0.333,0.333,0.333,1","1",""
"","html-keyboard-response","159","141364","0.0-159.0","3IJXV6UZ1Y5ALGIQWIC3FSQUYF1RIX","A132GRVDGXPJGY","3WRBLBQ2GRU63BU2LFOJL1G32T90GO","","null","<img src=""img/flower4.png"" style=""width:200px; border:14px solid green;"">","null","","","","","","","","",""
"","image-keyboard-response","160","141911","0.0-160.0","3IJXV6UZ1Y5ALGIQWIC3FSQUYF1RIX","A132GRVDGXPJGY","3WRBLBQ2GRU63BU2LFOJL1G32T90GO","","545.1999999880791","img/flower4.png","74","547","1","1","1","1","1,0.333,0.333,0.333,1,0.333,0.333,0.333,1","1,0.333,0.333,0.333,1,0.333,0.333,0.333,1","1",""
"","html-keyboard-response","161","142214","0.0-161.0","3IJXV6UZ1Y5ALGIQWIC3FSQUYF1RIX","A132GRVDGXPJGY","3WRBLBQ2GRU63BU2LFOJL1G32T90GO","","null","<img src=""img/flower4.png"" style=""width:200px; border:14px solid green;"">","null","","","","","","","","",""
"","image-keyboard-response","162","142869","0.0-162.0","3IJXV6UZ1Y5ALGIQWIC3FSQUYF1RIX","A132GRVDGXPJGY","3WRBLBQ2GRU63BU2LFOJL1G32T90GO","","652.9000000059605","img/flower1.png","76","654.6000000089407","3","1","3","1","1,0.333,0.333,0.333,1,0.333,0.333,0.333,1","1,0.333,0.333,0.333,1,0.333,0.333,0.333,1","1",""
"","html-keyboard-response","163","143172","0.0-163.0","3IJXV6UZ1Y5ALGIQWIC3FSQUYF1RIX","A132GRVDGXPJGY","3WRBLBQ2GRU63BU2LFOJL1G32T90GO","","null","<img src=""img/flower1.png"" style=""width:200px; border:14px solid green;"">","null","","","","","","","","",""
"","image-keyboard-response","164","143861","0.0-164.0","3IJXV6UZ1Y5ALGIQWIC3FSQUYF1RIX","A132GRVDGXPJGY","3WRBLBQ2GRU63BU2LFOJL1G32T90GO","","686.4000000059605","img/flower2.png","75","688.3999999910593","2","1","2","1","1,0.333,0.333,0.333,1,0.333,0.333,0.333,1","1,0.333,0.333,0.333,1,0.333,0.333,0.333,1","1",""
"","html-keyboard-response","165","144164","0.0-165.0","3IJXV6UZ1Y5ALGIQWIC3FSQUYF1RIX","A132GRVDGXPJGY","3WRBLBQ2GRU63BU2LFOJL1G32T90GO","","null","<img src=""img/flower2.png"" style=""width:200px; border:14px solid green;"">","null","","","","","","","","",""
"","image-keyboard-response","166","144829","0.0-166.0","3IJXV6UZ1Y5ALGIQWIC3FSQUYF1RIX","A132GRVDGXPJGY","3WRBLBQ2GRU63BU2LFOJL1G32T90GO","","662.7000000029802","img/flower1.png","76","664.5999999940395","3","1","3","1","1,0.333,0.333,0.333,1,0.333,0.333,0.333,1","1,0.333,0.333,0.333,1,0.333,0.333,0.333,1","1",""
"","html-keyboard-response","167","145132","0.0-167.0","3IJXV6UZ1Y5ALGIQWIC3FSQUYF1RIX","A132GRVDGXPJGY","3WRBLBQ2GRU63BU2LFOJL1G32T90GO","","null","<img src=""img/flower1.png"" style=""width:200px; border:14px solid green;"">","null","","","","","","","","",""
"","image-keyboard-response","168","146102","0.0-168.0","3IJXV6UZ1Y5ALGIQWIC3FSQUYF1RIX","A132GRVDGXPJGY","3WRBLBQ2GRU63BU2LFOJL1G32T90GO","","968.3000000119209","img/flower2.png","75","970.2000000029802","2","1","2","1","1,0.333,0.333,0.333,1,0.333,0.333,0.333,1","1,0.333,0.333,0.333,1,0.333,0.333,0.333,1","1",""
"","html-keyboard-response","169","146407","0.0-169.0","3IJXV6UZ1Y5ALGIQWIC3FSQUYF1RIX","A132GRVDGXPJGY","3WRBLBQ2GRU63BU2LFOJL1G32T90GO","","null","<img src=""img/flower2.png"" style=""width:200px; border:14px solid green;"">","null","","","","","","","","",""
"","image-keyboard-response","170","146888","0.0-170.0","3IJXV6UZ1Y5ALGIQWIC3FSQUYF1RIX","A132GRVDGXPJGY","3WRBLBQ2GRU63BU2LFOJL1G32T90GO","","479.1000000089407","img/flower2.png","75","480.70000000298023","2","1","2","1","1,0.333,0.333,0.333,1,0.333,0.333,0.333,1","1,0.333,0.333,0.333,1,0.333,0.333,0.333,1","1",""
"","html-keyboard-response","171","147201","0.0-171.0","3IJXV6UZ1Y5ALGIQWIC3FSQUYF1RIX","A132GRVDGXPJGY","3WRBLBQ2GRU63BU2LFOJL1G32T90GO","","null","<img src=""img/flower2.png"" style=""width:200px; border:14px solid green;"">","null","","","","","","","","",""
"","image-keyboard-response","172","147881","0.0-172.0","3IJXV6UZ1Y5ALGIQWIC3FSQUYF1RIX","A132GRVDGXPJGY","3WRBLBQ2GRU63BU2LFOJL1G32T90GO","","678.0999999940395","img/flower2.png","75","680","2","1","2","1","1,0.333,0.333,0.333,1,0.333,0.333,0.333,1","1,0.333,0.333,0.333,1,0.333,0.333,0.333,1","1",""
"","html-keyboard-response","173","148185","0.0-173.0","3IJXV6UZ1Y5ALGIQWIC3FSQUYF1RIX","A132GRVDGXPJGY","3WRBLBQ2GRU63BU2LFOJL1G32T90GO","","null","<img src=""img/flower2.png"" style=""width:200px; border:14px solid green;"">","null","","","","","","","","",""
"","image-keyboard-response","174","148480","0.0-174.0","3IJXV6UZ1Y5ALGIQWIC3FSQUYF1RIX","A132GRVDGXPJGY","3WRBLBQ2GRU63BU2LFOJL1G32T90GO","","293.09999999403954","img/flower2.png","75","294.8999999910593","2","1","2","1","1,0.333,0.333,0.333,1,0.333,0.333,0.333,1","1,0.333,0.333,0.333,1,0.333,0.333,0.333,1","1",""
"","html-keyboard-response","175","148783","0.0-175.0","3IJXV6UZ1Y5ALGIQWIC3FSQUYF1RIX","A132GRVDGXPJGY","3WRBLBQ2GRU63BU2LFOJL1G32T90GO","","null","<img src=""img/flower2.png"" style=""width:200px; border:14px solid green;"">","null","","","","","","","","",""
"","image-keyboard-response","176","149126","0.0-176.0","3IJXV6UZ1Y5ALGIQWIC3FSQUYF1RIX","A132GRVDGXPJGY","3WRBLBQ2GRU63BU2LFOJL1G32T90GO","","340.70000000298023","img/flower2.png","75","342.5","2","1","2","1","1,0.333,0.333,0.333,1,0.333,0.333,0.333,1","1,0.333,0.333,0.333,1,0.333,0.333,0.333,1","1",""
"","html-keyboard-response","177","149428","0.0-177.0","3IJXV6UZ1Y5ALGIQWIC3FSQUYF1RIX","A132GRVDGXPJGY","3WRBLBQ2GRU63BU2LFOJL1G32T90GO","","null","<img src=""img/flower2.png"" style=""width:200px; border:14px solid green;"">","null","","","","","","","","",""
"","image-keyboard-response","178","150058","0.0-178.0","3IJXV6UZ1Y5ALGIQWIC3FSQUYF1RIX","A132GRVDGXPJGY","3WRBLBQ2GRU63BU2LFOJL1G32T90GO","","627.4000000059605","img/flower4.png","74","629.1999999880791","1","1","1","1","1,0.333,0.333,0.333,1,0.333,0.333,0.333,1","1,0.333,0.333,0.333,1,0.333,0.333,0.333,1","1",""
"","html-keyboard-response","179","150361","0.0-179.0","3IJXV6UZ1Y5ALGIQWIC3FSQUYF1RIX","A132GRVDGXPJGY","3WRBLBQ2GRU63BU2LFOJL1G32T90GO","","null","<img src=""img/flower4.png"" style=""width:200px; border:14px solid green;"">","null","","","","","","","","",""
"","image-keyboard-response","180","150709","0.0-180.0","3IJXV6UZ1Y5ALGIQWIC3FSQUYF1RIX","A132GRVDGXPJGY","3WRBLBQ2GRU63BU2LFOJL1G32T90GO","","345.69999998807907","img/flower4.png","74","347.70000000298023","1","1","1","1","1,0.333,0.333,0.333,1,0.333,0.333,0.333,1","1,0.333,0.333,0.333,1,0.333,0.333,0.333,1","1",""
"","html-keyboard-response","181","151012","0.0-181.0","3IJXV6UZ1Y5ALGIQWIC3FSQUYF1RIX","A132GRVDGXPJGY","3WRBLBQ2GRU63BU2LFOJL1G32T90GO","","null","<img src=""img/flower4.png"" style=""width:200px; border:14px solid green;"">","null","","","","","","","","",""
"","html-keyboard-response","182","156224","0.0-182.0","3IJXV6UZ1Y5ALGIQWIC3FSQUYF1RIX","A132GRVDGXPJGY","3WRBLBQ2GRU63BU2LFOJL1G32T90GO","","","","","","","","","","","","",""
"","image-keyboard-response","183","157165","0.0-183.0","3IJXV6UZ1Y5ALGIQWIC3FSQUYF1RIX","A132GRVDGXPJGY","3WRBLBQ2GRU63BU2LFOJL1G32T90GO","","939.9000000059605","img/flower5.png","76","941.0999999940395","3","1","3","2","1,0,0,1,1,0,1,0,1","0,0,1,1,0,1,0,1,1","2",""
"","html-keyboard-response","184","157467","0.0-184.0","3IJXV6UZ1Y5ALGIQWIC3FSQUYF1RIX","A132GRVDGXPJGY","3WRBLBQ2GRU63BU2LFOJL1G32T90GO","","null","<img src=""img/flower5.png"" style=""width:200px; border:14px solid green;"">","null","","","","","","","","",""
"","image-keyboard-response","185","158369","0.0-185.0","3IJXV6UZ1Y5ALGIQWIC3FSQUYF1RIX","A132GRVDGXPJGY","3WRBLBQ2GRU63BU2LFOJL1G32T90GO","","899.8999999910593","img/flower3.png","75","901.3999999910593","2","0","1","2","1,0,0,1,1,0,1,0,1","0,0,1,1,0,1,0,1,1","2",""
"","html-keyboard-response","186","158672","0.0-186.0","3IJXV6UZ1Y5ALGIQWIC3FSQUYF1RIX","A132GRVDGXPJGY","3WRBLBQ2GRU63BU2LFOJL1G32T90GO","","null","<img src=""img/flower3.png"" style=""width:200px;border:14px solid red;"">","null","","","","","","","","",""
"","image-keyboard-response","187","159382","0.0-187.0","3IJXV6UZ1Y5ALGIQWIC3FSQUYF1RIX","A132GRVDGXPJGY","3WRBLBQ2GRU63BU2LFOJL1G32T90GO","","709.4000000059605","img/flower5.png","76","709.7999999970198","3","1","3","2","1,0,0,1,1,0,1,0,1","0,0,1,1,0,1,0,1,1","2",""
"","html-keyboard-response","188","159683","0.0-188.0","3IJXV6UZ1Y5ALGIQWIC3FSQUYF1RIX","A132GRVDGXPJGY","3WRBLBQ2GRU63BU2LFOJL1G32T90GO","","null","<img src=""img/flower5.png"" style=""width:200px; border:14px solid green;"">","null","","","","","","","","",""
"","image-keyboard-response","189","160304","0.0-189.0","3IJXV6UZ1Y5ALGIQWIC3FSQUYF1RIX","A132GRVDGXPJGY","3WRBLBQ2GRU63BU2LFOJL1G32T90GO","","619.5999999940395","img/flower5.png","76","620.5999999940395","3","1","3","2","1,0,0,1,1,0,1,0,1","0,0,1,1,0,1,0,1,1","2",""
"","html-keyboard-response","190","160607","0.0-190.0","3IJXV6UZ1Y5ALGIQWIC3FSQUYF1RIX","A132GRVDGXPJGY","3WRBLBQ2GRU63BU2LFOJL1G32T90GO","","null","<img src=""img/flower5.png"" style=""width:200px; border:14px solid green;"">","null","","","","","","","","",""
"","image-keyboard-response","191","161355","0.0-191.0","3IJXV6UZ1Y5ALGIQWIC3FSQUYF1RIX","A132GRVDGXPJGY","3WRBLBQ2GRU63BU2LFOJL1G32T90GO","","745.4000000059605","img/flower6.png","74","747.4000000059605","1","1","2","2","1,0,0,1,1,0,1,0,1","0,0,1,1,0,1,0,1,1","2",""
"","html-keyboard-response","192","161658","0.0-192.0","3IJXV6UZ1Y5ALGIQWIC3FSQUYF1RIX","A132GRVDGXPJGY","3WRBLBQ2GRU63BU2LFOJL1G32T90GO","","null","<img src=""img/flower6.png"" style=""width:200px; border:14px solid green;"">","null","","","","","","","","",""
"","image-keyboard-response","193","163334","0.0-193.0","3IJXV6UZ1Y5ALGIQWIC3FSQUYF1RIX","A132GRVDGXPJGY","3WRBLBQ2GRU63BU2LFOJL1G32T90GO","","1672.5","img/flower3.png","75","1674.7999999970198","2","0","1","2","1,0,0,1,1,0,1,0,1","0,0,1,1,0,1,0,1,1","2",""
"","html-keyboard-response","194","163637","0.0-194.0","3IJXV6UZ1Y5ALGIQWIC3FSQUYF1RIX","A132GRVDGXPJGY","3WRBLBQ2GRU63BU2LFOJL1G32T90GO","","null","<img src=""img/flower3.png"" style=""width:200px;border:14px solid red;"">","null","","","","","","","","",""
"","image-keyboard-response","195","164518","0.0-195.0","3IJXV6UZ1Y5ALGIQWIC3FSQUYF1RIX","A132GRVDGXPJGY","3WRBLBQ2GRU63BU2LFOJL1G32T90GO","","879.1000000089407","img/flower6.png","76","881.2000000029802","3","1","2","2","1,0,0,1,1,0,1,0,1","0,0,1,1,0,1,0,1,1","2",""
"","html-keyboard-response","196","164821","0.0-196.0","3IJXV6UZ1Y5ALGIQWIC3FSQUYF1RIX","A132GRVDGXPJGY","3WRBLBQ2GRU63BU2LFOJL1G32T90GO","","null","<img src=""img/flower6.png"" style=""width:200px; border:14px solid green;"">","null","","","","","","","","",""
"","image-keyboard-response","197","166585","0.0-197.0","3IJXV6UZ1Y5ALGIQWIC3FSQUYF1RIX","A132GRVDGXPJGY","3WRBLBQ2GRU63BU2LFOJL1G32T90GO","","1760.4000000059605","img/flower3.png","76","1762.7000000029802","3","1","1","2","1,0,0,1,1,0,1,0,1","0,0,1,1,0,1,0,1,1","2",""
"","html-keyboard-response","198","166888","0.0-198.0","3IJXV6UZ1Y5ALGIQWIC3FSQUYF1RIX","A132GRVDGXPJGY","3WRBLBQ2GRU63BU2LFOJL1G32T90GO","","null","<img src=""img/flower3.png"" style=""width:200px; border:14px solid green;"">","null","","","","","","","","",""
"","image-keyboard-response","199","167784","0.0-199.0","3IJXV6UZ1Y5ALGIQWIC3FSQUYF1RIX","A132GRVDGXPJGY","3WRBLBQ2GRU63BU2LFOJL1G32T90GO","","894.6000000089407","img/flower5.png","76","895.8999999910593","3","1","3","2","1,0,0,1,1,0,1,0,1","0,0,1,1,0,1,0,1,1","2",""
"","html-keyboard-response","200","168087","0.0-200.0","3IJXV6UZ1Y5ALGIQWIC3FSQUYF1RIX","A132GRVDGXPJGY","3WRBLBQ2GRU63BU2LFOJL1G32T90GO","","null","<img src=""img/flower5.png"" style=""width:200px; border:14px solid green;"">","null","","","","","","","","",""
"","image-keyboard-response","201","169084","0.0-201.0","3IJXV6UZ1Y5ALGIQWIC3FSQUYF1RIX","A132GRVDGXPJGY","3WRBLBQ2GRU63BU2LFOJL1G32T90GO","","994.1000000089407","img/flower3.png","76","996","3","1","1","2","1,0,0,1,1,0,1,0,1","0,0,1,1,0,1,0,1,1","2",""
"","html-keyboard-response","202","169387","0.0-202.0","3IJXV6UZ1Y5ALGIQWIC3FSQUYF1RIX","A132GRVDGXPJGY","3WRBLBQ2GRU63BU2LFOJL1G32T90GO","","null","<img src=""img/flower3.png"" style=""width:200px; border:14px solid green;"">","null","","","","","","","","",""
"","image-keyboard-response","203","169981","0.0-203.0","3IJXV6UZ1Y5ALGIQWIC3FSQUYF1RIX","A132GRVDGXPJGY","3WRBLBQ2GRU63BU2LFOJL1G32T90GO","","591.5999999940395","img/flower3.png","76","593","3","1","1","2","1,0,0,1,1,0,1,0,1","0,0,1,1,0,1,0,1,1","2",""
"","html-keyboard-response","204","170282","0.0-204.0","3IJXV6UZ1Y5ALGIQWIC3FSQUYF1RIX","A132GRVDGXPJGY","3WRBLBQ2GRU63BU2LFOJL1G32T90GO","","null","<img src=""img/flower3.png"" style=""width:200px; border:14px solid green;"">","null","","","","","","","","",""
"","image-keyboard-response","205","171502","0.0-205.0","3IJXV6UZ1Y5ALGIQWIC3FSQUYF1RIX","A132GRVDGXPJGY","3WRBLBQ2GRU63BU2LFOJL1G32T90GO","","1219.0999999940395","img/flower5.png","76","1220","3","1","3","2","1,0,0,1,1,0,1,0,1","0,0,1,1,0,1,0,1,1","2",""
"","html-keyboard-response","206","171806","0.0-206.0","3IJXV6UZ1Y5ALGIQWIC3FSQUYF1RIX","A132GRVDGXPJGY","3WRBLBQ2GRU63BU2LFOJL1G32T90GO","","null","<img src=""img/flower5.png"" style=""width:200px; border:14px solid green;"">","null","","","","","","","","",""
"","image-keyboard-response","207","172183","0.0-207.0","3IJXV6UZ1Y5ALGIQWIC3FSQUYF1RIX","A132GRVDGXPJGY","3WRBLBQ2GRU63BU2LFOJL1G32T90GO","","375.20000000298023","img/flower5.png","76","377.20000000298023","3","1","3","2","1,0,0,1,1,0,1,0,1","0,0,1,1,0,1,0,1,1","2",""
"","html-keyboard-response","208","172487","0.0-208.0","3IJXV6UZ1Y5ALGIQWIC3FSQUYF1RIX","A132GRVDGXPJGY","3WRBLBQ2GRU63BU2LFOJL1G32T90GO","","null","<img src=""img/flower5.png"" style=""width:200px; border:14px solid green;"">","null","","","","","","","","",""
"","image-keyboard-response","209","173176","0.0-209.0","3IJXV6UZ1Y5ALGIQWIC3FSQUYF1RIX","A132GRVDGXPJGY","3WRBLBQ2GRU63BU2LFOJL1G32T90GO","","688.2999999970198","img/flower3.png","76","689","3","1","1","2","1,0,0,1,1,0,1,0,1","0,0,1,1,0,1,0,1,1","2",""
"","html-keyboard-response","210","173479","0.0-210.0","3IJXV6UZ1Y5ALGIQWIC3FSQUYF1RIX","A132GRVDGXPJGY","3WRBLBQ2GRU63BU2LFOJL1G32T90GO","","null","<img src=""img/flower3.png"" style=""width:200px; border:14px solid green;"">","null","","","","","","","","",""
"","image-keyboard-response","211","174079","0.0-211.0","3IJXV6UZ1Y5ALGIQWIC3FSQUYF1RIX","A132GRVDGXPJGY","3WRBLBQ2GRU63BU2LFOJL1G32T90GO","","597.5","img/flower5.png","76","599.2999999970198","3","1","3","2","1,0,0,1,1,0,1,0,1","0,0,1,1,0,1,0,1,1","2",""
"","html-keyboard-response","212","174382","0.0-212.0","3IJXV6UZ1Y5ALGIQWIC3FSQUYF1RIX","A132GRVDGXPJGY","3WRBLBQ2GRU63BU2LFOJL1G32T90GO","","null","<img src=""img/flower5.png"" style=""width:200px; border:14px solid green;"">","null","","","","","","","","",""
"","image-keyboard-response","213","174907","0.0-213.0","3IJXV6UZ1Y5ALGIQWIC3FSQUYF1RIX","A132GRVDGXPJGY","3WRBLBQ2GRU63BU2LFOJL1G32T90GO","","521.8999999910593","img/flower3.png","76","524","3","1","1","2","1,0,0,1,1,0,1,0,1","0,0,1,1,0,1,0,1,1","2",""
"","html-keyboard-response","214","175215","0.0-214.0","3IJXV6UZ1Y5ALGIQWIC3FSQUYF1RIX","A132GRVDGXPJGY","3WRBLBQ2GRU63BU2LFOJL1G32T90GO","","null","<img src=""img/flower3.png"" style=""width:200px; border:14px solid green;"">","null","","","","","","","","",""
"","image-keyboard-response","215","176116","0.0-215.0","3IJXV6UZ1Y5ALGIQWIC3FSQUYF1RIX","A132GRVDGXPJGY","3WRBLBQ2GRU63BU2LFOJL1G32T90GO","","898.5","img/flower6.png","74","900.4000000059605","1","1","2","2","1,0,0,1,1,0,1,0,1","0,0,1,1,0,1,0,1,1","2",""
"","html-keyboard-response","216","176419","0.0-216.0","3IJXV6UZ1Y5ALGIQWIC3FSQUYF1RIX","A132GRVDGXPJGY","3WRBLBQ2GRU63BU2LFOJL1G32T90GO","","null","<img src=""img/flower6.png"" style=""width:200px; border:14px solid green;"">","null","","","","","","","","",""
"","image-keyboard-response","217","177327","0.0-217.0","3IJXV6UZ1Y5ALGIQWIC3FSQUYF1RIX","A132GRVDGXPJGY","3WRBLBQ2GRU63BU2LFOJL1G32T90GO","","906.6999999880791","img/flower5.png","76","908","3","1","3","2","1,0,0,1,1,0,1,0,1","0,0,1,1,0,1,0,1,1","2",""
"","html-keyboard-response","218","177629","0.0-218.0","3IJXV6UZ1Y5ALGIQWIC3FSQUYF1RIX","A132GRVDGXPJGY","3WRBLBQ2GRU63BU2LFOJL1G32T90GO","","null","<img src=""img/flower5.png"" style=""width:200px; border:14px solid green;"">","null","","","","","","","","",""
"","image-keyboard-response","219","178803","0.0-219.0","3IJXV6UZ1Y5ALGIQWIC3FSQUYF1RIX","A132GRVDGXPJGY","3WRBLBQ2GRU63BU2LFOJL1G32T90GO","","1171.6000000089407","img/flower6.png","74","1173.4000000059605","1","1","2","2","1,0,0,1,1,0,1,0,1","0,0,1,1,0,1,0,1,1","2",""
"","html-keyboard-response","220","179106","0.0-220.0","3IJXV6UZ1Y5ALGIQWIC3FSQUYF1RIX","A132GRVDGXPJGY","3WRBLBQ2GRU63BU2LFOJL1G32T90GO","","null","<img src=""img/flower6.png"" style=""width:200px; border:14px solid green;"">","null","","","","","","","","",""
"","image-keyboard-response","221","179740","0.0-221.0","3IJXV6UZ1Y5ALGIQWIC3FSQUYF1RIX","A132GRVDGXPJGY","3WRBLBQ2GRU63BU2LFOJL1G32T90GO","","631.2000000029802","img/flower3.png","76","633.2000000029802","3","1","1","2","1,0,0,1,1,0,1,0,1","0,0,1,1,0,1,0,1,1","2",""
"","html-keyboard-response","222","180043","0.0-222.0","3IJXV6UZ1Y5ALGIQWIC3FSQUYF1RIX","A132GRVDGXPJGY","3WRBLBQ2GRU63BU2LFOJL1G32T90GO","","null","<img src=""img/flower3.png"" style=""width:200px; border:14px solid green;"">","null","","","","","","","","",""
"","image-keyboard-response","223","180542","0.0-223.0","3IJXV6UZ1Y5ALGIQWIC3FSQUYF1RIX","A132GRVDGXPJGY","3WRBLBQ2GRU63BU2LFOJL1G32T90GO","","496.80000001192093","img/flower3.png","76","498.70000000298023","3","1","1","2","1,0,0,1,1,0,1,0,1","0,0,1,1,0,1,0,1,1","2",""
"","html-keyboard-response","224","180846","0.0-224.0","3IJXV6UZ1Y5ALGIQWIC3FSQUYF1RIX","A132GRVDGXPJGY","3WRBLBQ2GRU63BU2LFOJL1G32T90GO","","null","<img src=""img/flower3.png"" style=""width:200px; border:14px solid green;"">","null","","","","","","","","",""
"","image-keyboard-response","225","181649","0.0-225.0","3IJXV6UZ1Y5ALGIQWIC3FSQUYF1RIX","A132GRVDGXPJGY","3WRBLBQ2GRU63BU2LFOJL1G32T90GO","","800.0999999940395","img/flower6.png","74","802.1999999880791","1","1","2","2","1,0,0,1,1,0,1,0,1","0,0,1,1,0,1,0,1,1","2",""
"","html-keyboard-response","226","181952","0.0-226.0","3IJXV6UZ1Y5ALGIQWIC3FSQUYF1RIX","A132GRVDGXPJGY","3WRBLBQ2GRU63BU2LFOJL1G32T90GO","","null","<img src=""img/flower6.png"" style=""width:200px; border:14px solid green;"">","null","","","","","","","","",""
"","image-keyboard-response","227","182451","0.0-227.0","3IJXV6UZ1Y5ALGIQWIC3FSQUYF1RIX","A132GRVDGXPJGY","3WRBLBQ2GRU63BU2LFOJL1G32T90GO","","496.8999999910593","img/flower6.png","74","499.09999999403954","1","1","2","2","1,0,0,1,1,0,1,0,1","0,0,1,1,0,1,0,1,1","2",""
"","html-keyboard-response","228","182754","0.0-228.0","3IJXV6UZ1Y5ALGIQWIC3FSQUYF1RIX","A132GRVDGXPJGY","3WRBLBQ2GRU63BU2LFOJL1G32T90GO","","null","<img src=""img/flower6.png"" style=""width:200px; border:14px solid green;"">","null","","","","","","","","",""
"","image-keyboard-response","229","183107","0.0-229.0","3IJXV6UZ1Y5ALGIQWIC3FSQUYF1RIX","A132GRVDGXPJGY","3WRBLBQ2GRU63BU2LFOJL1G32T90GO","","350.59999999403954","img/flower6.png","74","352.69999998807907","1","1","2","2","1,0,0,1,1,0,1,0,1","0,0,1,1,0,1,0,1,1","2",""
"","html-keyboard-response","230","183411","0.0-230.0","3IJXV6UZ1Y5ALGIQWIC3FSQUYF1RIX","A132GRVDGXPJGY","3WRBLBQ2GRU63BU2LFOJL1G32T90GO","","null","<img src=""img/flower6.png"" style=""width:200px; border:14px solid green;"">","null","","","","","","","","",""
"","image-keyboard-response","231","184052","0.0-231.0","3IJXV6UZ1Y5ALGIQWIC3FSQUYF1RIX","A132GRVDGXPJGY","3WRBLBQ2GRU63BU2LFOJL1G32T90GO","","640.1999999880791","img/flower3.png","76","641.2000000029802","3","1","1","2","1,0,0,1,1,0,1,0,1","0,0,1,1,0,1,0,1,1","2",""
"","html-keyboard-response","232","184356","0.0-232.0","3IJXV6UZ1Y5ALGIQWIC3FSQUYF1RIX","A132GRVDGXPJGY","3WRBLBQ2GRU63BU2LFOJL1G32T90GO","","null","<img src=""img/flower3.png"" style=""width:200px; border:14px solid green;"">","null","","","","","","","","",""
"","image-keyboard-response","233","184730","0.0-233.0","3IJXV6UZ1Y5ALGIQWIC3FSQUYF1RIX","A132GRVDGXPJGY","3WRBLBQ2GRU63BU2LFOJL1G32T90GO","","372.09999999403954","img/flower3.png","76","374.09999999403954","3","1","1","2","1,0,0,1,1,0,1,0,1","0,0,1,1,0,1,0,1,1","2",""
"","html-keyboard-response","234","185033","0.0-234.0","3IJXV6UZ1Y5ALGIQWIC3FSQUYF1RIX","A132GRVDGXPJGY","3WRBLBQ2GRU63BU2LFOJL1G32T90GO","","null","<img src=""img/flower3.png"" style=""width:200px; border:14px solid green;"">","null","","","","","","","","",""
"","image-keyboard-response","235","185737","0.0-235.0","3IJXV6UZ1Y5ALGIQWIC3FSQUYF1RIX","A132GRVDGXPJGY","3WRBLBQ2GRU63BU2LFOJL1G32T90GO","","702.2999999970198","img/flower5.png","76","703.2999999970198","3","1","3","2","1,0,0,1,1,0,1,0,1","0,0,1,1,0,1,0,1,1","2",""
"","html-keyboard-response","236","186040","0.0-236.0","3IJXV6UZ1Y5ALGIQWIC3FSQUYF1RIX","A132GRVDGXPJGY","3WRBLBQ2GRU63BU2LFOJL1G32T90GO","","null","<img src=""img/flower5.png"" style=""width:200px; border:14px solid green;"">","null","","","","","","","","",""
"","image-keyboard-response","237","186600","0.0-237.0","3IJXV6UZ1Y5ALGIQWIC3FSQUYF1RIX","A132GRVDGXPJGY","3WRBLBQ2GRU63BU2LFOJL1G32T90GO","","557.7999999970198","img/flower3.png","76","559.5999999940395","3","1","1","2","1,0,0,1,1,0,1,0,1","0,0,1,1,0,1,0,1,1","2",""
"","html-keyboard-response","238","186904","0.0-238.0","3IJXV6UZ1Y5ALGIQWIC3FSQUYF1RIX","A132GRVDGXPJGY","3WRBLBQ2GRU63BU2LFOJL1G32T90GO","","null","<img src=""img/flower3.png"" style=""width:200px; border:14px solid green;"">","null","","","","","","","","",""
"","image-keyboard-response","239","187795","0.0-239.0","3IJXV6UZ1Y5ALGIQWIC3FSQUYF1RIX","A132GRVDGXPJGY","3WRBLBQ2GRU63BU2LFOJL1G32T90GO","","889.0999999940395","img/flower6.png","74","891","1","1","2","2","1,0,0,1,1,0,1,0,1","0,0,1,1,0,1,0,1,1","2",""
"","html-keyboard-response","240","188099","0.0-240.0","3IJXV6UZ1Y5ALGIQWIC3FSQUYF1RIX","A132GRVDGXPJGY","3WRBLBQ2GRU63BU2LFOJL1G32T90GO","","null","<img src=""img/flower6.png"" style=""width:200px; border:14px solid green;"">","null","","","","","","","","",""
"","image-keyboard-response","241","188845","0.0-241.0","3IJXV6UZ1Y5ALGIQWIC3FSQUYF1RIX","A132GRVDGXPJGY","3WRBLBQ2GRU63BU2LFOJL1G32T90GO","","744.0999999940395","img/flower5.png","76","746","3","1","3","2","1,0,0,1,1,0,1,0,1","0,0,1,1,0,1,0,1,1","2",""
"","html-keyboard-response","242","189148","0.0-242.0","3IJXV6UZ1Y5ALGIQWIC3FSQUYF1RIX","A132GRVDGXPJGY","3WRBLBQ2GRU63BU2LFOJL1G32T90GO","","null","<img src=""img/flower5.png"" style=""width:200px; border:14px solid green;"">","null","","","","","","","","",""
"","image-keyboard-response","243","189730","0.0-243.0","3IJXV6UZ1Y5ALGIQWIC3FSQUYF1RIX","A132GRVDGXPJGY","3WRBLBQ2GRU63BU2LFOJL1G32T90GO","","579.7000000029802","img/flower6.png","76","581.7000000029802","3","1","2","2","1,0,0,1,1,0,1,0,1","0,0,1,1,0,1,0,1,1","2",""
"","html-keyboard-response","244","190033","0.0-244.0","3IJXV6UZ1Y5ALGIQWIC3FSQUYF1RIX","A132GRVDGXPJGY","3WRBLBQ2GRU63BU2LFOJL1G32T90GO","","null","<img src=""img/flower6.png"" style=""width:200px; border:14px solid green;"">","null","","","","","","","","",""
"","image-keyboard-response","245","191171","0.0-245.0","3IJXV6UZ1Y5ALGIQWIC3FSQUYF1RIX","A132GRVDGXPJGY","3WRBLBQ2GRU63BU2LFOJL1G32T90GO","","1135.9000000059605","img/flower3.png","76","1137.4000000059605","3","1","1","2","1,0,0,1,1,0,1,0,1","0,0,1,1,0,1,0,1,1","2",""
"","html-keyboard-response","246","191473","0.0-246.0","3IJXV6UZ1Y5ALGIQWIC3FSQUYF1RIX","A132GRVDGXPJGY","3WRBLBQ2GRU63BU2LFOJL1G32T90GO","","null","<img src=""img/flower3.png"" style=""width:200px; border:14px solid green;"">","null","","","","","","","","",""
"","image-keyboard-response","247","192551","0.0-247.0","3IJXV6UZ1Y5ALGIQWIC3FSQUYF1RIX","A132GRVDGXPJGY","3WRBLBQ2GRU63BU2LFOJL1G32T90GO","","1075.5","img/flower6.png","76","1077.4000000059605","3","1","2","2","1,0,0,1,1,0,1,0,1","0,0,1,1,0,1,0,1,1","2",""
"","html-keyboard-response","248","192854","0.0-248.0","3IJXV6UZ1Y5ALGIQWIC3FSQUYF1RIX","A132GRVDGXPJGY","3WRBLBQ2GRU63BU2LFOJL1G32T90GO","","null","<img src=""img/flower6.png"" style=""width:200px; border:14px solid green;"">","null","","","","","","","","",""
"","image-keyboard-response","249","193806","0.0-249.0","3IJXV6UZ1Y5ALGIQWIC3FSQUYF1RIX","A132GRVDGXPJGY","3WRBLBQ2GRU63BU2LFOJL1G32T90GO","","949.5","img/flower3.png","76","951","3","1","1","2","1,0,0,1,1,0,1,0,1","0,0,1,1,0,1,0,1,1","2",""
"","html-keyboard-response","250","194107","0.0-250.0","3IJXV6UZ1Y5ALGIQWIC3FSQUYF1RIX","A132GRVDGXPJGY","3WRBLBQ2GRU63BU2LFOJL1G32T90GO","","null","<img src=""img/flower3.png"" style=""width:200px; border:14px solid green;"">","null","","","","","","","","",""
"","image-keyboard-response","251","194683","0.0-251.0","3IJXV6UZ1Y5ALGIQWIC3FSQUYF1RIX","A132GRVDGXPJGY","3WRBLBQ2GRU63BU2LFOJL1G32T90GO","","575.3000000119209","img/flower5.png","76","576.4000000059605","3","1","3","2","1,0,0,1,1,0,1,0,1","0,0,1,1,0,1,0,1,1","2",""
"","html-keyboard-response","252","194985","0.0-252.0","3IJXV6UZ1Y5ALGIQWIC3FSQUYF1RIX","A132GRVDGXPJGY","3WRBLBQ2GRU63BU2LFOJL1G32T90GO","","null","<img src=""img/flower5.png"" style=""width:200px; border:14px solid green;"">","null","","","","","","","","",""
"","image-keyboard-response","253","195514","0.0-253.0","3IJXV6UZ1Y5ALGIQWIC3FSQUYF1RIX","A132GRVDGXPJGY","3WRBLBQ2GRU63BU2LFOJL1G32T90GO","","527.4000000059605","img/flower6.png","76","529.2999999970198","3","1","2","2","1,0,0,1,1,0,1,0,1","0,0,1,1,0,1,0,1,1","2",""
"","html-keyboard-response","254","195820","0.0-254.0","3IJXV6UZ1Y5ALGIQWIC3FSQUYF1RIX","A132GRVDGXPJGY","3WRBLBQ2GRU63BU2LFOJL1G32T90GO","","null","<img src=""img/flower6.png"" style=""width:200px; border:14px solid green;"">","null","","","","","","","","",""
"","image-keyboard-response","255","196154","0.0-255.0","3IJXV6UZ1Y5ALGIQWIC3FSQUYF1RIX","A132GRVDGXPJGY","3WRBLBQ2GRU63BU2LFOJL1G32T90GO","","330.5","img/flower6.png","76","332.6000000089407","3","1","2","2","1,0,0,1,1,0,1,0,1","0,0,1,1,0,1,0,1,1","2",""
"","html-keyboard-response","256","196457","0.0-256.0","3IJXV6UZ1Y5ALGIQWIC3FSQUYF1RIX","A132GRVDGXPJGY","3WRBLBQ2GRU63BU2LFOJL1G32T90GO","","null","<img src=""img/flower6.png"" style=""width:200px; border:14px solid green;"">","null","","","","","","","","",""
"","image-keyboard-response","257","196909","0.0-257.0","3IJXV6UZ1Y5ALGIQWIC3FSQUYF1RIX","A132GRVDGXPJGY","3WRBLBQ2GRU63BU2LFOJL1G32T90GO","","449.29999999701977","img/flower5.png","76","451.29999999701977","3","1","3","2","1,0,0,1,1,0,1,0,1","0,0,1,1,0,1,0,1,1","2",""
"","html-keyboard-response","258","197212","0.0-258.0","3IJXV6UZ1Y5ALGIQWIC3FSQUYF1RIX","A132GRVDGXPJGY","3WRBLBQ2GRU63BU2LFOJL1G32T90GO","","null","<img src=""img/flower5.png"" style=""width:200px; border:14px solid green;"">","null","","","","","","","","",""
"","image-keyboard-response","259","197483","0.0-259.0","3IJXV6UZ1Y5ALGIQWIC3FSQUYF1RIX","A132GRVDGXPJGY","3WRBLBQ2GRU63BU2LFOJL1G32T90GO","","270.90000000596046","img/flower6.png","76","271.5","3","1","2","2","1,0,0,1,1,0,1,0,1","0,0,1,1,0,1,0,1,1","2",""
"","html-keyboard-response","260","197785","0.0-260.0","3IJXV6UZ1Y5ALGIQWIC3FSQUYF1RIX","A132GRVDGXPJGY","3WRBLBQ2GRU63BU2LFOJL1G32T90GO","","null","<img src=""img/flower6.png"" style=""width:200px; border:14px solid green;"">","null","","","","","","","","",""
"","image-keyboard-response","261","198046","0.0-261.0","3IJXV6UZ1Y5ALGIQWIC3FSQUYF1RIX","A132GRVDGXPJGY","3WRBLBQ2GRU63BU2LFOJL1G32T90GO","","258.70000000298023","img/flower3.png","76","260.79999999701977","3","1","1","2","1,0,0,1,1,0,1,0,1","0,0,1,1,0,1,0,1,1","2",""
"","html-keyboard-response","262","198350","0.0-262.0","3IJXV6UZ1Y5ALGIQWIC3FSQUYF1RIX","A132GRVDGXPJGY","3WRBLBQ2GRU63BU2LFOJL1G32T90GO","","null","<img src=""img/flower3.png"" style=""width:200px; border:14px solid green;"">","null","","","","","","","","",""
"","image-keyboard-response","263","198644","0.0-263.0","3IJXV6UZ1Y5ALGIQWIC3FSQUYF1RIX","A132GRVDGXPJGY","3WRBLBQ2GRU63BU2LFOJL1G32T90GO","","292","img/flower6.png","76","294.1000000089407","3","1","2","2","1,0,0,1,1,0,1,0,1","0,0,1,1,0,1,0,1,1","2",""
"","html-keyboard-response","264","198948","0.0-264.0","3IJXV6UZ1Y5ALGIQWIC3FSQUYF1RIX","A132GRVDGXPJGY","3WRBLBQ2GRU63BU2LFOJL1G32T90GO","","null","<img src=""img/flower6.png"" style=""width:200px; border:14px solid green;"">","null","","","","","","","","",""
"","image-keyboard-response","265","199196","0.0-265.0","3IJXV6UZ1Y5ALGIQWIC3FSQUYF1RIX","A132GRVDGXPJGY","3WRBLBQ2GRU63BU2LFOJL1G32T90GO","","246.1000000089407","img/flower3.png","76","248.09999999403954","3","1","1","2","1,0,0,1,1,0,1,0,1","0,0,1,1,0,1,0,1,1","2",""
"","html-keyboard-response","266","199500","0.0-266.0","3IJXV6UZ1Y5ALGIQWIC3FSQUYF1RIX","A132GRVDGXPJGY","3WRBLBQ2GRU63BU2LFOJL1G32T90GO","","null","<img src=""img/flower3.png"" style=""width:200px; border:14px solid green;"">","null","","","","","","","","",""
"","image-keyboard-response","267","199789","0.0-267.0","3IJXV6UZ1Y5ALGIQWIC3FSQUYF1RIX","A132GRVDGXPJGY","3WRBLBQ2GRU63BU2LFOJL1G32T90GO","","287","img/flower6.png","76","288.5","3","1","2","2","1,0,0,1,1,0,1,0,1","0,0,1,1,0,1,0,1,1","2",""
"","html-keyboard-response","268","200091","0.0-268.0","3IJXV6UZ1Y5ALGIQWIC3FSQUYF1RIX","A132GRVDGXPJGY","3WRBLBQ2GRU63BU2LFOJL1G32T90GO","","null","<img src=""img/flower6.png"" style=""width:200px; border:14px solid green;"">","null","","","","","","","","",""
"","image-keyboard-response","269","200308","0.0-269.0","3IJXV6UZ1Y5ALGIQWIC3FSQUYF1RIX","A132GRVDGXPJGY","3WRBLBQ2GRU63BU2LFOJL1G32T90GO","","214.90000000596046","img/flower6.png","76","216.8999999910593","3","1","2","2","1,0,0,1,1,0,1,0,1","0,0,1,1,0,1,0,1,1","2",""
"","html-keyboard-response","270","200612","0.0-270.0","3IJXV6UZ1Y5ALGIQWIC3FSQUYF1RIX","A132GRVDGXPJGY","3WRBLBQ2GRU63BU2LFOJL1G32T90GO","","null","<img src=""img/flower6.png"" style=""width:200px; border:14px solid green;"">","null","","","","","","","","",""
"","image-keyboard-response","271","200911","0.0-271.0","3IJXV6UZ1Y5ALGIQWIC3FSQUYF1RIX","A132GRVDGXPJGY","3WRBLBQ2GRU63BU2LFOJL1G32T90GO","","296.1000000089407","img/flower6.png","76","298.1000000089407","3","1","2","2","1,0,0,1,1,0,1,0,1","0,0,1,1,0,1,0,1,1","2",""
"","html-keyboard-response","272","201214","0.0-272.0","3IJXV6UZ1Y5ALGIQWIC3FSQUYF1RIX","A132GRVDGXPJGY","3WRBLBQ2GRU63BU2LFOJL1G32T90GO","","null","<img src=""img/flower6.png"" style=""width:200px; border:14px solid green;"">","null","","","","","","","","",""
"","image-keyboard-response","273","201514","0.0-273.0","3IJXV6UZ1Y5ALGIQWIC3FSQUYF1RIX","A132GRVDGXPJGY","3WRBLBQ2GRU63BU2LFOJL1G32T90GO","","297.90000000596046","img/flower6.png","76","299.5","3","1","2","2","1,0,0,1,1,0,1,0,1","0,0,1,1,0,1,0,1,1","2",""
"","html-keyboard-response","274","201816","0.0-274.0","3IJXV6UZ1Y5ALGIQWIC3FSQUYF1RIX","A132GRVDGXPJGY","3WRBLBQ2GRU63BU2LFOJL1G32T90GO","","null","<img src=""img/flower6.png"" style=""width:200px; border:14px solid green;"">","null","","","","","","","","",""
"","image-keyboard-response","275","202064","0.0-275.0","3IJXV6UZ1Y5ALGIQWIC3FSQUYF1RIX","A132GRVDGXPJGY","3WRBLBQ2GRU63BU2LFOJL1G32T90GO","","245.29999999701977","img/flower5.png","76","247.3999999910593","3","1","3","2","1,0,0,1,1,0,1,0,1","0,0,1,1,0,1,0,1,1","2",""
"","html-keyboard-response","276","202368","0.0-276.0","3IJXV6UZ1Y5ALGIQWIC3FSQUYF1RIX","A132GRVDGXPJGY","3WRBLBQ2GRU63BU2LFOJL1G32T90GO","","null","<img src=""img/flower5.png"" style=""width:200px; border:14px solid green;"">","null","","","","","","","","",""
"","image-keyboard-response","277","202609","0.0-277.0","3IJXV6UZ1Y5ALGIQWIC3FSQUYF1RIX","A132GRVDGXPJGY","3WRBLBQ2GRU63BU2LFOJL1G32T90GO","","239.29999999701977","img/flower5.png","76","240.69999998807907","3","1","3","2","1,0,0,1,1,0,1,0,1","0,0,1,1,0,1,0,1,1","2",""
"","html-keyboard-response","278","202911","0.0-278.0","3IJXV6UZ1Y5ALGIQWIC3FSQUYF1RIX","A132GRVDGXPJGY","3WRBLBQ2GRU63BU2LFOJL1G32T90GO","","null","<img src=""img/flower5.png"" style=""width:200px; border:14px solid green;"">","null","","","","","","","","",""
"","image-keyboard-response","279","203169","0.0-279.0","3IJXV6UZ1Y5ALGIQWIC3FSQUYF1RIX","A132GRVDGXPJGY","3WRBLBQ2GRU63BU2LFOJL1G32T90GO","","255.1000000089407","img/flower5.png","76","257.09999999403954","3","1","3","2","1,0,0,1,1,0,1,0,1","0,0,1,1,0,1,0,1,1","2",""
"","html-keyboard-response","280","203472","0.0-280.0","3IJXV6UZ1Y5ALGIQWIC3FSQUYF1RIX","A132GRVDGXPJGY","3WRBLBQ2GRU63BU2LFOJL1G32T90GO","","null","<img src=""img/flower5.png"" style=""width:200px; border:14px solid green;"">","null","","","","","","","","",""
"","image-keyboard-response","281","203714","0.0-281.0","3IJXV6UZ1Y5ALGIQWIC3FSQUYF1RIX","A132GRVDGXPJGY","3WRBLBQ2GRU63BU2LFOJL1G32T90GO","","239.1000000089407","img/flower6.png","76","241.20000000298023","3","1","2","2","1,0,0,1,1,0,1,0,1","0,0,1,1,0,1,0,1,1","2",""
"","html-keyboard-response","282","204017","0.0-282.0","3IJXV6UZ1Y5ALGIQWIC3FSQUYF1RIX","A132GRVDGXPJGY","3WRBLBQ2GRU63BU2LFOJL1G32T90GO","","null","<img src=""img/flower6.png"" style=""width:200px; border:14px solid green;"">","null","","","","","","","","",""
"","image-keyboard-response","283","204285","0.0-283.0","3IJXV6UZ1Y5ALGIQWIC3FSQUYF1RIX","A132GRVDGXPJGY","3WRBLBQ2GRU63BU2LFOJL1G32T90GO","","265.29999999701977","img/flower5.png","76","267.30000001192093","3","1","3","2","1,0,0,1,1,0,1,0,1","0,0,1,1,0,1,0,1,1","2",""
"","html-keyboard-response","284","204589","0.0-284.0","3IJXV6UZ1Y5ALGIQWIC3FSQUYF1RIX","A132GRVDGXPJGY","3WRBLBQ2GRU63BU2LFOJL1G32T90GO","","null","<img src=""img/flower5.png"" style=""width:200px; border:14px solid green;"">","null","","","","","","","","",""
"","image-keyboard-response","285","204883","0.0-285.0","3IJXV6UZ1Y5ALGIQWIC3FSQUYF1RIX","A132GRVDGXPJGY","3WRBLBQ2GRU63BU2LFOJL1G32T90GO","","291.29999999701977","img/flower3.png","76","293.30000001192093","3","1","1","2","1,0,0,1,1,0,1,0,1","0,0,1,1,0,1,0,1,1","2",""
"","html-keyboard-response","286","205186","0.0-286.0","3IJXV6UZ1Y5ALGIQWIC3FSQUYF1RIX","A132GRVDGXPJGY","3WRBLBQ2GRU63BU2LFOJL1G32T90GO","","null","<img src=""img/flower3.png"" style=""width:200px; border:14px solid green;"">","null","","","","","","","","",""
"","image-keyboard-response","287","205420","0.0-287.0","3IJXV6UZ1Y5ALGIQWIC3FSQUYF1RIX","A132GRVDGXPJGY","3WRBLBQ2GRU63BU2LFOJL1G32T90GO","","233.09999999403954","img/flower6.png","76","233.6000000089407","3","1","2","2","1,0,0,1,1,0,1,0,1","0,0,1,1,0,1,0,1,1","2",""
"","html-keyboard-response","288","205721","0.0-288.0","3IJXV6UZ1Y5ALGIQWIC3FSQUYF1RIX","A132GRVDGXPJGY","3WRBLBQ2GRU63BU2LFOJL1G32T90GO","","null","<img src=""img/flower6.png"" style=""width:200px; border:14px solid green;"">","null","","","","","","","","",""
"","image-keyboard-response","289","205967","0.0-289.0","3IJXV6UZ1Y5ALGIQWIC3FSQUYF1RIX","A132GRVDGXPJGY","3WRBLBQ2GRU63BU2LFOJL1G32T90GO","","244","img/flower3.png","76","246.1000000089407","3","1","1","2","1,0,0,1,1,0,1,0,1","0,0,1,1,0,1,0,1,1","2",""
"","html-keyboard-response","290","206271","0.0-290.0","3IJXV6UZ1Y5ALGIQWIC3FSQUYF1RIX","A132GRVDGXPJGY","3WRBLBQ2GRU63BU2LFOJL1G32T90GO","","null","<img src=""img/flower3.png"" style=""width:200px; border:14px solid green;"">","null","","","","","","","","",""
"","image-keyboard-response","291","206502","0.0-291.0","3IJXV6UZ1Y5ALGIQWIC3FSQUYF1RIX","A132GRVDGXPJGY","3WRBLBQ2GRU63BU2LFOJL1G32T90GO","","228.70000000298023","img/flower5.png","76","230.69999998807907","3","1","3","2","1,0,0,1,1,0,1,0,1","0,0,1,1,0,1,0,1,1","2",""
"","html-keyboard-response","292","206805","0.0-292.0","3IJXV6UZ1Y5ALGIQWIC3FSQUYF1RIX","A132GRVDGXPJGY","3WRBLBQ2GRU63BU2LFOJL1G32T90GO","","null","<img src=""img/flower5.png"" style=""width:200px; border:14px solid green;"">","null","","","","","","","","",""
"","image-keyboard-response","293","207080","0.0-293.0","3IJXV6UZ1Y5ALGIQWIC3FSQUYF1RIX","A132GRVDGXPJGY","3WRBLBQ2GRU63BU2LFOJL1G32T90GO","","272.6000000089407","img/flower6.png","76","274.70000000298023","3","1","2","2","1,0,0,1,1,0,1,0,1","0,0,1,1,0,1,0,1,1","2",""
"","html-keyboard-response","294","207383","0.0-294.0","3IJXV6UZ1Y5ALGIQWIC3FSQUYF1RIX","A132GRVDGXPJGY","3WRBLBQ2GRU63BU2LFOJL1G32T90GO","","null","<img src=""img/flower6.png"" style=""width:200px; border:14px solid green;"">","null","","","","","","","","",""
"","image-keyboard-response","295","207604","0.0-295.0","3IJXV6UZ1Y5ALGIQWIC3FSQUYF1RIX","A132GRVDGXPJGY","3WRBLBQ2GRU63BU2LFOJL1G32T90GO","","214.40000000596046","img/flower5.png","76","219.70000000298023","3","1","3","2","1,0,0,1,1,0,1,0,1","0,0,1,1,0,1,0,1,1","2",""
"","html-keyboard-response","296","207907","0.0-296.0","3IJXV6UZ1Y5ALGIQWIC3FSQUYF1RIX","A132GRVDGXPJGY","3WRBLBQ2GRU63BU2LFOJL1G32T90GO","","null","<img src=""img/flower5.png"" style=""width:200px; border:14px solid green;"">","null","","","","","","","","",""
"","image-keyboard-response","297","208119","0.0-297.0","3IJXV6UZ1Y5ALGIQWIC3FSQUYF1RIX","A132GRVDGXPJGY","3WRBLBQ2GRU63BU2LFOJL1G32T90GO","","209.40000000596046","img/flower5.png","76","211.40000000596046","3","1","3","2","1,0,0,1,1,0,1,0,1","0,0,1,1,0,1,0,1,1","2",""
"","html-keyboard-response","298","208422","0.0-298.0","3IJXV6UZ1Y5ALGIQWIC3FSQUYF1RIX","A132GRVDGXPJGY","3WRBLBQ2GRU63BU2LFOJL1G32T90GO","","null","<img src=""img/flower5.png"" style=""width:200px; border:14px solid green;"">","null","","","","","","","","",""
"","image-keyboard-response","299","208681","0.0-299.0","3IJXV6UZ1Y5ALGIQWIC3FSQUYF1RIX","A132GRVDGXPJGY","3WRBLBQ2GRU63BU2LFOJL1G32T90GO","","256.5","img/flower5.png","76","258.29999999701977","3","1","3","2","1,0,0,1,1,0,1,0,1","0,0,1,1,0,1,0,1,1","2",""
"","html-keyboard-response","300","208984","0.0-300.0","3IJXV6UZ1Y5ALGIQWIC3FSQUYF1RIX","A132GRVDGXPJGY","3WRBLBQ2GRU63BU2LFOJL1G32T90GO","","null","<img src=""img/flower5.png"" style=""width:200px; border:14px solid green;"">","null","","","","","","","","",""
"","image-keyboard-response","301","209163","0.0-301.0","3IJXV6UZ1Y5ALGIQWIC3FSQUYF1RIX","A132GRVDGXPJGY","3WRBLBQ2GRU63BU2LFOJL1G32T90GO","","175.79999999701977","img/flower5.png","76","177.8999999910593","3","1","3","2","1,0,0,1,1,0,1,0,1","0,0,1,1,0,1,0,1,1","2",""
"","html-keyboard-response","302","209466","0.0-302.0","3IJXV6UZ1Y5ALGIQWIC3FSQUYF1RIX","A132GRVDGXPJGY","3WRBLBQ2GRU63BU2LFOJL1G32T90GO","","null","<img src=""img/flower5.png"" style=""width:200px; border:14px solid green;"">","null","","","","","","","","",""
"","image-keyboard-response","303","209759","0.0-303.0","3IJXV6UZ1Y5ALGIQWIC3FSQUYF1RIX","A132GRVDGXPJGY","3WRBLBQ2GRU63BU2LFOJL1G32T90GO","","291.69999998807907","img/flower6.png","76","292.80000001192093","3","1","2","2","1,0,0,1,1,0,1,0,1","0,0,1,1,0,1,0,1,1","2",""
"","html-keyboard-response","304","210061","0.0-304.0","3IJXV6UZ1Y5ALGIQWIC3FSQUYF1RIX","A132GRVDGXPJGY","3WRBLBQ2GRU63BU2LFOJL1G32T90GO","","null","<img src=""img/flower6.png"" style=""width:200px; border:14px solid green;"">","null","","","","","","","","",""
"","image-keyboard-response","305","210294","0.0-305.0","3IJXV6UZ1Y5ALGIQWIC3FSQUYF1RIX","A132GRVDGXPJGY","3WRBLBQ2GRU63BU2LFOJL1G32T90GO","","230","img/flower5.png","76","231.5","3","1","3","2","1,0,0,1,1,0,1,0,1","0,0,1,1,0,1,0,1,1","2",""
"","html-keyboard-response","306","210596","0.0-306.0","3IJXV6UZ1Y5ALGIQWIC3FSQUYF1RIX","A132GRVDGXPJGY","3WRBLBQ2GRU63BU2LFOJL1G32T90GO","","null","<img src=""img/flower5.png"" style=""width:200px; border:14px solid green;"">","null","","","","","","","","",""
"","image-keyboard-response","307","210796","0.0-307.0","3IJXV6UZ1Y5ALGIQWIC3FSQUYF1RIX","A132GRVDGXPJGY","3WRBLBQ2GRU63BU2LFOJL1G32T90GO","","199.5","img/flower5.png","76","200","3","1","3","2","1,0,0,1,1,0,1,0,1","0,0,1,1,0,1,0,1,1","2",""
"","html-keyboard-response","308","211098","0.0-308.0","3IJXV6UZ1Y5ALGIQWIC3FSQUYF1RIX","A132GRVDGXPJGY","3WRBLBQ2GRU63BU2LFOJL1G32T90GO","","null","<img src=""img/flower5.png"" style=""width:200px; border:14px solid green;"">","null","","","","","","","","",""
"","image-keyboard-response","309","211323","0.0-309.0","3IJXV6UZ1Y5ALGIQWIC3FSQUYF1RIX","A132GRVDGXPJGY","3WRBLBQ2GRU63BU2LFOJL1G32T90GO","","222.29999999701977","img/flower3.png","76","224.20000000298023","3","1","1","2","1,0,0,1,1,0,1,0,1","0,0,1,1,0,1,0,1,1","2",""
"","html-keyboard-response","310","211626","0.0-310.0","3IJXV6UZ1Y5ALGIQWIC3FSQUYF1RIX","A132GRVDGXPJGY","3WRBLBQ2GRU63BU2LFOJL1G32T90GO","","null","<img src=""img/flower3.png"" style=""width:200px; border:14px solid green;"">","null","","","","","","","","",""
"","image-keyboard-response","311","211842","0.0-311.0","3IJXV6UZ1Y5ALGIQWIC3FSQUYF1RIX","A132GRVDGXPJGY","3WRBLBQ2GRU63BU2LFOJL1G32T90GO","","215.29999999701977","img/flower5.png","76","215.90000000596046","3","1","3","2","1,0,0,1,1,0,1,0,1","0,0,1,1,0,1,0,1,1","2",""
"","html-keyboard-response","312","212146","0.0-312.0","3IJXV6UZ1Y5ALGIQWIC3FSQUYF1RIX","A132GRVDGXPJGY","3WRBLBQ2GRU63BU2LFOJL1G32T90GO","","null","<img src=""img/flower5.png"" style=""width:200px; border:14px solid green;"">","null","","","","","","","","",""
"","image-keyboard-response","313","212366","0.0-313.0","3IJXV6UZ1Y5ALGIQWIC3FSQUYF1RIX","A132GRVDGXPJGY","3WRBLBQ2GRU63BU2LFOJL1G32T90GO","","218.29999999701977","img/flower3.png","76","219.3999999910593","3","1","1","2","1,0,0,1,1,0,1,0,1","0,0,1,1,0,1,0,1,1","2",""
"","html-keyboard-response","314","212669","0.0-314.0","3IJXV6UZ1Y5ALGIQWIC3FSQUYF1RIX","A132GRVDGXPJGY","3WRBLBQ2GRU63BU2LFOJL1G32T90GO","","null","<img src=""img/flower3.png"" style=""width:200px; border:14px solid green;"">","null","","","","","","","","",""
"","image-keyboard-response","315","212826","0.0-315.0","3IJXV6UZ1Y5ALGIQWIC3FSQUYF1RIX","A132GRVDGXPJGY","3WRBLBQ2GRU63BU2LFOJL1G32T90GO","","156.30000001192093","img/flower3.png","76","157.3999999910593","3","1","1","2","1,0,0,1,1,0,1,0,1","0,0,1,1,0,1,0,1,1","2",""
"","html-keyboard-response","316","213129","0.0-316.0","3IJXV6UZ1Y5ALGIQWIC3FSQUYF1RIX","A132GRVDGXPJGY","3WRBLBQ2GRU63BU2LFOJL1G32T90GO","","null","<img src=""img/flower3.png"" style=""width:200px; border:14px solid green;"">","null","","","","","","","","",""
"","image-keyboard-response","317","213333","0.0-317.0","3IJXV6UZ1Y5ALGIQWIC3FSQUYF1RIX","A132GRVDGXPJGY","3WRBLBQ2GRU63BU2LFOJL1G32T90GO","","201.6000000089407","img/flower6.png","76","203.69999998807907","3","1","2","2","1,0,0,1,1,0,1,0,1","0,0,1,1,0,1,0,1,1","2",""
"","html-keyboard-response","318","213637","0.0-318.0","3IJXV6UZ1Y5ALGIQWIC3FSQUYF1RIX","A132GRVDGXPJGY","3WRBLBQ2GRU63BU2LFOJL1G32T90GO","","null","<img src=""img/flower6.png"" style=""width:200px; border:14px solid green;"">","null","","","","","","","","",""
"","image-keyboard-response","319","213874","0.0-319.0","3IJXV6UZ1Y5ALGIQWIC3FSQUYF1RIX","A132GRVDGXPJGY","3WRBLBQ2GRU63BU2LFOJL1G32T90GO","","234.90000000596046","img/flower6.png","76","237.09999999403954","3","1","2","2","1,0,0,1,1,0,1,0,1","0,0,1,1,0,1,0,1,1","2",""
"","html-keyboard-response","320","214177","0.0-320.0","3IJXV6UZ1Y5ALGIQWIC3FSQUYF1RIX","A132GRVDGXPJGY","3WRBLBQ2GRU63BU2LFOJL1G32T90GO","","null","<img src=""img/flower6.png"" style=""width:200px; border:14px solid green;"">","null","","","","","","","","",""
"","image-keyboard-response","321","214396","0.0-321.0","3IJXV6UZ1Y5ALGIQWIC3FSQUYF1RIX","A132GRVDGXPJGY","3WRBLBQ2GRU63BU2LFOJL1G32T90GO","","217.90000000596046","img/flower6.png","76","218.90000000596046","3","1","2","2","1,0,0,1,1,0,1,0,1","0,0,1,1,0,1,0,1,1","2",""
"","html-keyboard-response","322","214699","0.0-322.0","3IJXV6UZ1Y5ALGIQWIC3FSQUYF1RIX","A132GRVDGXPJGY","3WRBLBQ2GRU63BU2LFOJL1G32T90GO","","null","<img src=""img/flower6.png"" style=""width:200px; border:14px solid green;"">","null","","","","","","","","",""
"","image-keyboard-response","323","214999","0.0-323.0","3IJXV6UZ1Y5ALGIQWIC3FSQUYF1RIX","A132GRVDGXPJGY","3WRBLBQ2GRU63BU2LFOJL1G32T90GO","","298.20000000298023","img/flower3.png","76","300.09999999403954","3","1","1","2","1,0,0,1,1,0,1,0,1","0,0,1,1,0,1,0,1,1","2",""
"","html-keyboard-response","324","215303","0.0-324.0","3IJXV6UZ1Y5ALGIQWIC3FSQUYF1RIX","A132GRVDGXPJGY","3WRBLBQ2GRU63BU2LFOJL1G32T90GO","","null","<img src=""img/flower3.png"" style=""width:200px; border:14px solid green;"">","null","","","","","","","","",""
"","image-keyboard-response","325","215495","0.0-325.0","3IJXV6UZ1Y5ALGIQWIC3FSQUYF1RIX","A132GRVDGXPJGY","3WRBLBQ2GRU63BU2LFOJL1G32T90GO","","189.70000000298023","img/flower5.png","76","191.8999999910593","3","1","3","2","1,0,0,1,1,0,1,0,1","0,0,1,1,0,1,0,1,1","2",""
"","html-keyboard-response","326","215799","0.0-326.0","3IJXV6UZ1Y5ALGIQWIC3FSQUYF1RIX","A132GRVDGXPJGY","3WRBLBQ2GRU63BU2LFOJL1G32T90GO","","null","<img src=""img/flower5.png"" style=""width:200px; border:14px solid green;"">","null","","","","","","","","",""
"","image-keyboard-response","327","216026","0.0-327.0","3IJXV6UZ1Y5ALGIQWIC3FSQUYF1RIX","A132GRVDGXPJGY","3WRBLBQ2GRU63BU2LFOJL1G32T90GO","","225","img/flower5.png","76","226.6000000089407","3","1","3","2","1,0,0,1,1,0,1,0,1","0,0,1,1,0,1,0,1,1","2",""
"","html-keyboard-response","328","216329","0.0-328.0","3IJXV6UZ1Y5ALGIQWIC3FSQUYF1RIX","A132GRVDGXPJGY","3WRBLBQ2GRU63BU2LFOJL1G32T90GO","","null","<img src=""img/flower5.png"" style=""width:200px; border:14px solid green;"">","null","","","","","","","","",""
"","image-keyboard-response","329","216548","0.0-329.0","3IJXV6UZ1Y5ALGIQWIC3FSQUYF1RIX","A132GRVDGXPJGY","3WRBLBQ2GRU63BU2LFOJL1G32T90GO","","217.1000000089407","img/flower6.png","76","219.20000000298023","3","1","2","2","1,0,0,1,1,0,1,0,1","0,0,1,1,0,1,0,1,1","2",""
"","html-keyboard-response","330","216851","0.0-330.0","3IJXV6UZ1Y5ALGIQWIC3FSQUYF1RIX","A132GRVDGXPJGY","3WRBLBQ2GRU63BU2LFOJL1G32T90GO","","null","<img src=""img/flower6.png"" style=""width:200px; border:14px solid green;"">","null","","","","","","","","",""
"","image-keyboard-response","331","216996","0.0-331.0","3IJXV6UZ1Y5ALGIQWIC3FSQUYF1RIX","A132GRVDGXPJGY","3WRBLBQ2GRU63BU2LFOJL1G32T90GO","","142.20000000298023","img/flower3.png","76","144.20000000298023","3","1","1","2","1,0,0,1,1,0,1,0,1","0,0,1,1,0,1,0,1,1","2",""
"","html-keyboard-response","332","217299","0.0-332.0","3IJXV6UZ1Y5ALGIQWIC3FSQUYF1RIX","A132GRVDGXPJGY","3WRBLBQ2GRU63BU2LFOJL1G32T90GO","","null","<img src=""img/flower3.png"" style=""width:200px; border:14px solid green;"">","null","","","","","","","","",""
"","image-keyboard-response","333","217599","0.0-333.0","3IJXV6UZ1Y5ALGIQWIC3FSQUYF1RIX","A132GRVDGXPJGY","3WRBLBQ2GRU63BU2LFOJL1G32T90GO","","298","img/flower5.png","76","299.8999999910593","3","1","3","2","1,0,0,1,1,0,1,0,1","0,0,1,1,0,1,0,1,1","2",""
"","html-keyboard-response","334","217903","0.0-334.0","3IJXV6UZ1Y5ALGIQWIC3FSQUYF1RIX","A132GRVDGXPJGY","3WRBLBQ2GRU63BU2LFOJL1G32T90GO","","null","<img src=""img/flower5.png"" style=""width:200px; border:14px solid green;"">","null","","","","","","","","",""
"","image-keyboard-response","335","218153","0.0-335.0","3IJXV6UZ1Y5ALGIQWIC3FSQUYF1RIX","A132GRVDGXPJGY","3WRBLBQ2GRU63BU2LFOJL1G32T90GO","","247.70000000298023","img/flower3.png","76","249.79999999701977","3","1","1","2","1,0,0,1,1,0,1,0,1","0,0,1,1,0,1,0,1,1","2",""
"","html-keyboard-response","336","218456","0.0-336.0","3IJXV6UZ1Y5ALGIQWIC3FSQUYF1RIX","A132GRVDGXPJGY","3WRBLBQ2GRU63BU2LFOJL1G32T90GO","","null","<img src=""img/flower3.png"" style=""width:200px; border:14px solid green;"">","null","","","","","","","","",""
"","image-keyboard-response","337","218729","0.0-337.0","3IJXV6UZ1Y5ALGIQWIC3FSQUYF1RIX","A132GRVDGXPJGY","3WRBLBQ2GRU63BU2LFOJL1G32T90GO","","270.09999999403954","img/flower5.png","76","272","3","1","3","2","1,0,0,1,1,0,1,0,1","0,0,1,1,0,1,0,1,1","2",""
"","html-keyboard-response","338","219039","0.0-338.0","3IJXV6UZ1Y5ALGIQWIC3FSQUYF1RIX","A132GRVDGXPJGY","3WRBLBQ2GRU63BU2LFOJL1G32T90GO","","null","<img src=""img/flower5.png"" style=""width:200px; border:14px solid green;"">","null","","","","","","","","",""
"","image-keyboard-response","339","219341","0.0-339.0","3IJXV6UZ1Y5ALGIQWIC3FSQUYF1RIX","A132GRVDGXPJGY","3WRBLBQ2GRU63BU2LFOJL1G32T90GO","","299.19999998807907","img/flower6.png","76","301.09999999403954","3","1","2","2","1,0,0,1,1,0,1,0,1","0,0,1,1,0,1,0,1,1","2",""
"","html-keyboard-response","340","219644","0.0-340.0","3IJXV6UZ1Y5ALGIQWIC3FSQUYF1RIX","A132GRVDGXPJGY","3WRBLBQ2GRU63BU2LFOJL1G32T90GO","","null","<img src=""img/flower6.png"" style=""width:200px; border:14px solid green;"">","null","","","","","","","","",""
"","image-keyboard-response","341","219968","0.0-341.0","3IJXV6UZ1Y5ALGIQWIC3FSQUYF1RIX","A132GRVDGXPJGY","3WRBLBQ2GRU63BU2LFOJL1G32T90GO","","322","img/flower6.png","76","324.29999999701977","3","1","2","2","1,0,0,1,1,0,1,0,1","0,0,1,1,0,1,0,1,1","2",""
"","html-keyboard-response","342","220272","0.0-342.0","3IJXV6UZ1Y5ALGIQWIC3FSQUYF1RIX","A132GRVDGXPJGY","3WRBLBQ2GRU63BU2LFOJL1G32T90GO","","null","<img src=""img/flower6.png"" style=""width:200px; border:14px solid green;"">","null","","","","","","","","",""
"","image-keyboard-response","343","220680","0.0-343.0","3IJXV6UZ1Y5ALGIQWIC3FSQUYF1RIX","A132GRVDGXPJGY","3WRBLBQ2GRU63BU2LFOJL1G32T90GO","","406.69999998807907","img/flower3.png","76","407.70000000298023","3","1","1","2","1,0,0,1,1,0,1,0,1","0,0,1,1,0,1,0,1,1","2",""
"","html-keyboard-response","344","220982","0.0-344.0","3IJXV6UZ1Y5ALGIQWIC3FSQUYF1RIX","A132GRVDGXPJGY","3WRBLBQ2GRU63BU2LFOJL1G32T90GO","","null","<img src=""img/flower3.png"" style=""width:200px; border:14px solid green;"">","null","","","","","","","","",""
"","image-keyboard-response","345","221197","0.0-345.0","3IJXV6UZ1Y5ALGIQWIC3FSQUYF1RIX","A132GRVDGXPJGY","3WRBLBQ2GRU63BU2LFOJL1G32T90GO","","212.1000000089407","img/flower3.png","76","214.09999999403954","3","1","1","2","1,0,0,1,1,0,1,0,1","0,0,1,1,0,1,0,1,1","2",""
"","html-keyboard-response","346","221500","0.0-346.0","3IJXV6UZ1Y5ALGIQWIC3FSQUYF1RIX","A132GRVDGXPJGY","3WRBLBQ2GRU63BU2LFOJL1G32T90GO","","null","<img src=""img/flower3.png"" style=""width:200px; border:14px solid green;"">","null","","","","","","","","",""
"","image-keyboard-response","347","221700","0.0-347.0","3IJXV6UZ1Y5ALGIQWIC3FSQUYF1RIX","A132GRVDGXPJGY","3WRBLBQ2GRU63BU2LFOJL1G32T90GO","","199.30000001192093","img/flower3.png","76","200.5","3","1","1","2","1,0,0,1,1,0,1,0,1","0,0,1,1,0,1,0,1,1","2",""
"","html-keyboard-response","348","222004","0.0-348.0","3IJXV6UZ1Y5ALGIQWIC3FSQUYF1RIX","A132GRVDGXPJGY","3WRBLBQ2GRU63BU2LFOJL1G32T90GO","","null","<img src=""img/flower3.png"" style=""width:200px; border:14px solid green;"">","null","","","","","","","","",""
"","image-keyboard-response","349","222173","0.0-349.0","3IJXV6UZ1Y5ALGIQWIC3FSQUYF1RIX","A132GRVDGXPJGY","3WRBLBQ2GRU63BU2LFOJL1G32T90GO","","167.3999999910593","img/flower6.png","76","168.79999999701977","3","1","2","2","1,0,0,1,1,0,1,0,1","0,0,1,1,0,1,0,1,1","2",""
"","html-keyboard-response","350","222475","0.0-350.0","3IJXV6UZ1Y5ALGIQWIC3FSQUYF1RIX","A132GRVDGXPJGY","3WRBLBQ2GRU63BU2LFOJL1G32T90GO","","null","<img src=""img/flower6.png"" style=""width:200px; border:14px solid green;"">","null","","","","","","","","",""
"","image-keyboard-response","351","222704","0.0-351.0","3IJXV6UZ1Y5ALGIQWIC3FSQUYF1RIX","A132GRVDGXPJGY","3WRBLBQ2GRU63BU2LFOJL1G32T90GO","","224.5","img/flower5.png","76","227.8999999910593","3","1","3","2","1,0,0,1,1,0,1,0,1","0,0,1,1,0,1,0,1,1","2",""
"","html-keyboard-response","352","223006","0.0-352.0","3IJXV6UZ1Y5ALGIQWIC3FSQUYF1RIX","A132GRVDGXPJGY","3WRBLBQ2GRU63BU2LFOJL1G32T90GO","","null","<img src=""img/flower5.png"" style=""width:200px; border:14px solid green;"">","null","","","","","","","","",""
"","image-keyboard-response","353","223216","0.0-353.0","3IJXV6UZ1Y5ALGIQWIC3FSQUYF1RIX","A132GRVDGXPJGY","3WRBLBQ2GRU63BU2LFOJL1G32T90GO","","206.79999999701977","img/flower6.png","76","208.79999999701977","3","1","2","2","1,0,0,1,1,0,1,0,1","0,0,1,1,0,1,0,1,1","2",""
"","html-keyboard-response","354","223519","0.0-354.0","3IJXV6UZ1Y5ALGIQWIC3FSQUYF1RIX","A132GRVDGXPJGY","3WRBLBQ2GRU63BU2LFOJL1G32T90GO","","null","<img src=""img/flower6.png"" style=""width:200px; border:14px solid green;"">","null","","","","","","","","",""
"","image-keyboard-response","355","223765","0.0-355.0","3IJXV6UZ1Y5ALGIQWIC3FSQUYF1RIX","A132GRVDGXPJGY","3WRBLBQ2GRU63BU2LFOJL1G32T90GO","","244","img/flower5.png","76","245.5","3","1","3","2","1,0,0,1,1,0,1,0,1","0,0,1,1,0,1,0,1,1","2",""
"","html-keyboard-response","356","224067","0.0-356.0","3IJXV6UZ1Y5ALGIQWIC3FSQUYF1RIX","A132GRVDGXPJGY","3WRBLBQ2GRU63BU2LFOJL1G32T90GO","","null","<img src=""img/flower5.png"" style=""width:200px; border:14px solid green;"">","null","","","","","","","","",""
"","image-keyboard-response","357","224363","0.0-357.0","3IJXV6UZ1Y5ALGIQWIC3FSQUYF1RIX","A132GRVDGXPJGY","3WRBLBQ2GRU63BU2LFOJL1G32T90GO","","293.70000000298023","img/flower3.png","76","295.90000000596046","3","1","1","2","1,0,0,1,1,0,1,0,1","0,0,1,1,0,1,0,1,1","2",""
"","html-keyboard-response","358","224676","0.0-358.0","3IJXV6UZ1Y5ALGIQWIC3FSQUYF1RIX","A132GRVDGXPJGY","3WRBLBQ2GRU63BU2LFOJL1G32T90GO","","null","<img src=""img/flower3.png"" style=""width:200px; border:14px solid green;"">","null","","","","","","","","",""
"","image-keyboard-response","359","225052","0.0-359.0","3IJXV6UZ1Y5ALGIQWIC3FSQUYF1RIX","A132GRVDGXPJGY","3WRBLBQ2GRU63BU2LFOJL1G32T90GO","","375.40000000596046","img/flower3.png","76","376.6000000089407","3","1","1","2","1,0,0,1,1,0,1,0,1","0,0,1,1,0,1,0,1,1","2",""
"","html-keyboard-response","360","225356","0.0-360.0","3IJXV6UZ1Y5ALGIQWIC3FSQUYF1RIX","A132GRVDGXPJGY","3WRBLBQ2GRU63BU2LFOJL1G32T90GO","","null","<img src=""img/flower3.png"" style=""width:200px; border:14px solid green;"">","null","","","","","","","","",""
"","image-keyboard-response","361","225710","0.0-361.0","3IJXV6UZ1Y5ALGIQWIC3FSQUYF1RIX","A132GRVDGXPJGY","3WRBLBQ2GRU63BU2LFOJL1G32T90GO","","351.5","img/flower3.png","76","353.40000000596046","3","1","1","2","1,0,0,1,1,0,1,0,1","0,0,1,1,0,1,0,1,1","2",""
"","html-keyboard-response","362","226013","0.0-362.0","3IJXV6UZ1Y5ALGIQWIC3FSQUYF1RIX","A132GRVDGXPJGY","3WRBLBQ2GRU63BU2LFOJL1G32T90GO","","null","<img src=""img/flower3.png"" style=""width:200px; border:14px solid green;"">","null","","","","","","","","",""
