"success","trial_type","trial_index","time_elapsed","internal_node_id","assignmentID","mturkID","hitID","view_history","rt","stimulus","key_press","reactionTime","a","r","s","cond","reward_cond","reward_cond_actual","reward_matrix_idx","responses"
"true","fullscreen","0","50326","0.0-0.0","3Z2R0DQ0JI0H1RZJL97BT5KUUSKE2Y","A13FUEPWBCLBUY","3PEG1BH7AEDCPKTV9M6N3A4F0EHKBR","","","","","","","","","","","","",""
"","instructions","1","59038","0.0-1.0","3Z2R0DQ0JI0H1RZJL97BT5KUUSKE2Y","A13FUEPWBCLBUY","3PEG1BH7AEDCPKTV9M6N3A4F0EHKBR","[{""page_index"":0,""viewing_time"":1987.300000011921},{""page_index"":1,""viewing_time"":673.6999999880791},{""page_index"":2,""viewing_time"":484},{""page_index"":3,""viewing_time"":411.80000001192093},{""page_index"":4,""viewing_time"":1609.300000011921},{""page_index"":5,""viewing_time"":1212.199999988079},{""page_index"":6,""viewing_time"":1266.8999999761581},{""page_index"":7,""viewing_time"":1065.800000011921}]","8711.199999988079","","","","","","","","","","",""
"","image-keyboard-response","2","59856","0.0-2.0","3Z2R0DQ0JI0H1RZJL97BT5KUUSKE2Y","A13FUEPWBCLBUY","3PEG1BH7AEDCPKTV9M6N3A4F0EHKBR","","817.8000000119209","img/flower4.png","74","818.6000000238419","1","1","2","2","1,0,0,1,1,0,1,0,1","1,0,0,1,1,0,1,0,1","1",""
"","html-keyboard-response","3","60158","0.0-3.0","3Z2R0DQ0JI0H1RZJL97BT5KUUSKE2Y","A13FUEPWBCLBUY","3PEG1BH7AEDCPKTV9M6N3A4F0EHKBR","","null","<img src=""img/flower4.png"" style=""width:200px; border:14px solid green;"">","null","","","","","","","","",""
"","image-keyboard-response","4","60804","0.0-4.0","3Z2R0DQ0JI0H1RZJL97BT5KUUSKE2Y","A13FUEPWBCLBUY","3PEG1BH7AEDCPKTV9M6N3A4F0EHKBR","","645.1999999880791","img/flower5.png","75","645.6000000238419","2","0","1","2","1,0,0,1,1,0,1,0,1","1,0,0,1,1,0,1,0,1","1",""
"","html-keyboard-response","5","61106","0.0-5.0","3Z2R0DQ0JI0H1RZJL97BT5KUUSKE2Y","A13FUEPWBCLBUY","3PEG1BH7AEDCPKTV9M6N3A4F0EHKBR","","null","<img src=""img/flower5.png"" style=""width:200px;border:14px solid red;"">","null","","","","","","","","",""
"","image-keyboard-response","6","61784","0.0-6.0","3Z2R0DQ0JI0H1RZJL97BT5KUUSKE2Y","A13FUEPWBCLBUY","3PEG1BH7AEDCPKTV9M6N3A4F0EHKBR","","678.1999999880791","img/flower4.png","74","678.6999999880791","1","1","2","2","1,0,0,1,1,0,1,0,1","1,0,0,1,1,0,1,0,1","1",""
"","html-keyboard-response","7","62090","0.0-7.0","3Z2R0DQ0JI0H1RZJL97BT5KUUSKE2Y","A13FUEPWBCLBUY","3PEG1BH7AEDCPKTV9M6N3A4F0EHKBR","","null","<img src=""img/flower4.png"" style=""width:200px; border:14px solid green;"">","null","","","","","","","","",""
"","image-keyboard-response","8","62808","0.0-8.0","3Z2R0DQ0JI0H1RZJL97BT5KUUSKE2Y","A13FUEPWBCLBUY","3PEG1BH7AEDCPKTV9M6N3A4F0EHKBR","","716.8000000119209","img/flower6.png","76","717.2999999523163","3","1","3","2","1,0,0,1,1,0,1,0,1","1,0,0,1,1,0,1,0,1","1",""
"","html-keyboard-response","9","63109","0.0-9.0","3Z2R0DQ0JI0H1RZJL97BT5KUUSKE2Y","A13FUEPWBCLBUY","3PEG1BH7AEDCPKTV9M6N3A4F0EHKBR","","null","<img src=""img/flower6.png"" style=""width:200px; border:14px solid green;"">","null","","","","","","","","",""
"","image-keyboard-response","10","63755","0.0-10.0","3Z2R0DQ0JI0H1RZJL97BT5KUUSKE2Y","A13FUEPWBCLBUY","3PEG1BH7AEDCPKTV9M6N3A4F0EHKBR","","645","img/flower5.png","74","645.5999999642372","1","1","1","2","1,0,0,1,1,0,1,0,1","1,0,0,1,1,0,1,0,1","1",""
"","html-keyboard-response","11","64056","0.0-11.0","3Z2R0DQ0JI0H1RZJL97BT5KUUSKE2Y","A13FUEPWBCLBUY","3PEG1BH7AEDCPKTV9M6N3A4F0EHKBR","","null","<img src=""img/flower5.png"" style=""width:200px; border:14px solid green;"">","null","","","","","","","","",""
"","image-keyboard-response","12","64659","0.0-12.0","3Z2R0DQ0JI0H1RZJL97BT5KUUSKE2Y","A13FUEPWBCLBUY","3PEG1BH7AEDCPKTV9M6N3A4F0EHKBR","","602.0999999642372","img/flower6.png","76","602.8000000119209","3","1","3","2","1,0,0,1,1,0,1,0,1","1,0,0,1,1,0,1,0,1","1",""
"","html-keyboard-response","13","64961","0.0-13.0","3Z2R0DQ0JI0H1RZJL97BT5KUUSKE2Y","A13FUEPWBCLBUY","3PEG1BH7AEDCPKTV9M6N3A4F0EHKBR","","null","<img src=""img/flower6.png"" style=""width:200px; border:14px solid green;"">","null","","","","","","","","",""
"","image-keyboard-response","14","65572","0.0-14.0","3Z2R0DQ0JI0H1RZJL97BT5KUUSKE2Y","A13FUEPWBCLBUY","3PEG1BH7AEDCPKTV9M6N3A4F0EHKBR","","610.0999999642372","img/flower5.png","74","610.6000000238419","1","1","1","2","1,0,0,1,1,0,1,0,1","1,0,0,1,1,0,1,0,1","1",""
"","html-keyboard-response","15","65873","0.0-15.0","3Z2R0DQ0JI0H1RZJL97BT5KUUSKE2Y","A13FUEPWBCLBUY","3PEG1BH7AEDCPKTV9M6N3A4F0EHKBR","","null","<img src=""img/flower5.png"" style=""width:200px; border:14px solid green;"">","null","","","","","","","","",""
"","image-keyboard-response","16","66737","0.0-16.0","3Z2R0DQ0JI0H1RZJL97BT5KUUSKE2Y","A13FUEPWBCLBUY","3PEG1BH7AEDCPKTV9M6N3A4F0EHKBR","","863.3000000119209","img/flower4.png","75","863.8000000119209","2","1","2","2","1,0,0,1,1,0,1,0,1","1,0,0,1,1,0,1,0,1","1",""
"","html-keyboard-response","17","67039","0.0-17.0","3Z2R0DQ0JI0H1RZJL97BT5KUUSKE2Y","A13FUEPWBCLBUY","3PEG1BH7AEDCPKTV9M6N3A4F0EHKBR","","null","<img src=""img/flower4.png"" style=""width:200px; border:14px solid green;"">","null","","","","","","","","",""
"","image-keyboard-response","18","67669","0.0-18.0","3Z2R0DQ0JI0H1RZJL97BT5KUUSKE2Y","A13FUEPWBCLBUY","3PEG1BH7AEDCPKTV9M6N3A4F0EHKBR","","628.7999999523163","img/flower6.png","76","629.3000000119209","3","1","3","2","1,0,0,1,1,0,1,0,1","1,0,0,1,1,0,1,0,1","1",""
"","html-keyboard-response","19","67971","0.0-19.0","3Z2R0DQ0JI0H1RZJL97BT5KUUSKE2Y","A13FUEPWBCLBUY","3PEG1BH7AEDCPKTV9M6N3A4F0EHKBR","","null","<img src=""img/flower6.png"" style=""width:200px; border:14px solid green;"">","null","","","","","","","","",""
"","image-keyboard-response","20","68433","0.0-20.0","3Z2R0DQ0JI0H1RZJL97BT5KUUSKE2Y","A13FUEPWBCLBUY","3PEG1BH7AEDCPKTV9M6N3A4F0EHKBR","","460.89999997615814","img/flower6.png","76","461.5999999642372","3","1","3","2","1,0,0,1,1,0,1,0,1","1,0,0,1,1,0,1,0,1","1",""
"","html-keyboard-response","21","68733","0.0-21.0","3Z2R0DQ0JI0H1RZJL97BT5KUUSKE2Y","A13FUEPWBCLBUY","3PEG1BH7AEDCPKTV9M6N3A4F0EHKBR","","null","<img src=""img/flower6.png"" style=""width:200px; border:14px solid green;"">","null","","","","","","","","",""
"","image-keyboard-response","22","69064","0.0-22.0","3Z2R0DQ0JI0H1RZJL97BT5KUUSKE2Y","A13FUEPWBCLBUY","3PEG1BH7AEDCPKTV9M6N3A4F0EHKBR","","329.69999998807907","img/flower6.png","76","330.30000001192093","3","1","3","2","1,0,0,1,1,0,1,0,1","1,0,0,1,1,0,1,0,1","1",""
"","html-keyboard-response","23","69379","0.0-23.0","3Z2R0DQ0JI0H1RZJL97BT5KUUSKE2Y","A13FUEPWBCLBUY","3PEG1BH7AEDCPKTV9M6N3A4F0EHKBR","","null","<img src=""img/flower6.png"" style=""width:200px; border:14px solid green;"">","null","","","","","","","","",""
"","image-keyboard-response","24","69725","0.0-24.0","3Z2R0DQ0JI0H1RZJL97BT5KUUSKE2Y","A13FUEPWBCLBUY","3PEG1BH7AEDCPKTV9M6N3A4F0EHKBR","","345.30000001192093","img/flower6.png","76","345.69999998807907","3","1","3","2","1,0,0,1,1,0,1,0,1","1,0,0,1,1,0,1,0,1","1",""
"","html-keyboard-response","25","70027","0.0-25.0","3Z2R0DQ0JI0H1RZJL97BT5KUUSKE2Y","A13FUEPWBCLBUY","3PEG1BH7AEDCPKTV9M6N3A4F0EHKBR","","null","<img src=""img/flower6.png"" style=""width:200px; border:14px solid green;"">","null","","","","","","","","",""
"","image-keyboard-response","26","70545","0.0-26.0","3Z2R0DQ0JI0H1RZJL97BT5KUUSKE2Y","A13FUEPWBCLBUY","3PEG1BH7AEDCPKTV9M6N3A4F0EHKBR","","517.1999999880791","img/flower4.png","74","517.6999999880791","1","1","2","2","1,0,0,1,1,0,1,0,1","1,0,0,1,1,0,1,0,1","1",""
"","html-keyboard-response","27","70846","0.0-27.0","3Z2R0DQ0JI0H1RZJL97BT5KUUSKE2Y","A13FUEPWBCLBUY","3PEG1BH7AEDCPKTV9M6N3A4F0EHKBR","","null","<img src=""img/flower4.png"" style=""width:200px; border:14px solid green;"">","null","","","","","","","","",""
"","image-keyboard-response","28","71439","0.0-28.0","3Z2R0DQ0JI0H1RZJL97BT5KUUSKE2Y","A13FUEPWBCLBUY","3PEG1BH7AEDCPKTV9M6N3A4F0EHKBR","","592.1999999880791","img/flower6.png","76","592.8000000119209","3","1","3","2","1,0,0,1,1,0,1,0,1","1,0,0,1,1,0,1,0,1","1",""
"","html-keyboard-response","29","71740","0.0-29.0","3Z2R0DQ0JI0H1RZJL97BT5KUUSKE2Y","A13FUEPWBCLBUY","3PEG1BH7AEDCPKTV9M6N3A4F0EHKBR","","null","<img src=""img/flower6.png"" style=""width:200px; border:14px solid green;"">","null","","","","","","","","",""
"","image-keyboard-response","30","72457","0.0-30.0","3Z2R0DQ0JI0H1RZJL97BT5KUUSKE2Y","A13FUEPWBCLBUY","3PEG1BH7AEDCPKTV9M6N3A4F0EHKBR","","716.1000000238419","img/flower4.png","74","716.6999999880791","1","1","2","2","1,0,0,1,1,0,1,0,1","1,0,0,1,1,0,1,0,1","1",""
"","html-keyboard-response","31","72758","0.0-31.0","3Z2R0DQ0JI0H1RZJL97BT5KUUSKE2Y","A13FUEPWBCLBUY","3PEG1BH7AEDCPKTV9M6N3A4F0EHKBR","","null","<img src=""img/flower4.png"" style=""width:200px; border:14px solid green;"">","null","","","","","","","","",""
"","image-keyboard-response","32","73254","0.0-32.0","3Z2R0DQ0JI0H1RZJL97BT5KUUSKE2Y","A13FUEPWBCLBUY","3PEG1BH7AEDCPKTV9M6N3A4F0EHKBR","","495.0999999642372","img/flower6.png","76","495.60000002384186","3","1","3","2","1,0,0,1,1,0,1,0,1","1,0,0,1,1,0,1,0,1","1",""
"","html-keyboard-response","33","73555","0.0-33.0","3Z2R0DQ0JI0H1RZJL97BT5KUUSKE2Y","A13FUEPWBCLBUY","3PEG1BH7AEDCPKTV9M6N3A4F0EHKBR","","null","<img src=""img/flower6.png"" style=""width:200px; border:14px solid green;"">","null","","","","","","","","",""
"","image-keyboard-response","34","74025","0.0-34.0","3Z2R0DQ0JI0H1RZJL97BT5KUUSKE2Y","A13FUEPWBCLBUY","3PEG1BH7AEDCPKTV9M6N3A4F0EHKBR","","469.4000000357628","img/flower4.png","74","469.89999997615814","1","1","2","2","1,0,0,1,1,0,1,0,1","1,0,0,1,1,0,1,0,1","1",""
"","html-keyboard-response","35","74327","0.0-35.0","3Z2R0DQ0JI0H1RZJL97BT5KUUSKE2Y","A13FUEPWBCLBUY","3PEG1BH7AEDCPKTV9M6N3A4F0EHKBR","","null","<img src=""img/flower4.png"" style=""width:200px; border:14px solid green;"">","null","","","","","","","","",""
"","image-keyboard-response","36","74821","0.0-36.0","3Z2R0DQ0JI0H1RZJL97BT5KUUSKE2Y","A13FUEPWBCLBUY","3PEG1BH7AEDCPKTV9M6N3A4F0EHKBR","","493.30000001192093","img/flower6.png","76","493.80000001192093","3","1","3","2","1,0,0,1,1,0,1,0,1","1,0,0,1,1,0,1,0,1","1",""
"","html-keyboard-response","37","75122","0.0-37.0","3Z2R0DQ0JI0H1RZJL97BT5KUUSKE2Y","A13FUEPWBCLBUY","3PEG1BH7AEDCPKTV9M6N3A4F0EHKBR","","null","<img src=""img/flower6.png"" style=""width:200px; border:14px solid green;"">","null","","","","","","","","",""
"","image-keyboard-response","38","75582","0.0-38.0","3Z2R0DQ0JI0H1RZJL97BT5KUUSKE2Y","A13FUEPWBCLBUY","3PEG1BH7AEDCPKTV9M6N3A4F0EHKBR","","459.5","img/flower5.png","75","459.9000000357628","2","0","1","2","1,0,0,1,1,0,1,0,1","1,0,0,1,1,0,1,0,1","1",""
"","html-keyboard-response","39","75884","0.0-39.0","3Z2R0DQ0JI0H1RZJL97BT5KUUSKE2Y","A13FUEPWBCLBUY","3PEG1BH7AEDCPKTV9M6N3A4F0EHKBR","","null","<img src=""img/flower5.png"" style=""width:200px;border:14px solid red;"">","null","","","","","","","","",""
"","image-keyboard-response","40","76488","0.0-40.0","3Z2R0DQ0JI0H1RZJL97BT5KUUSKE2Y","A13FUEPWBCLBUY","3PEG1BH7AEDCPKTV9M6N3A4F0EHKBR","","603.5","img/flower4.png","74","603.9000000357628","1","1","2","2","1,0,0,1,1,0,1,0,1","1,0,0,1,1,0,1,0,1","1",""
"","html-keyboard-response","41","76789","0.0-41.0","3Z2R0DQ0JI0H1RZJL97BT5KUUSKE2Y","A13FUEPWBCLBUY","3PEG1BH7AEDCPKTV9M6N3A4F0EHKBR","","null","<img src=""img/flower4.png"" style=""width:200px; border:14px solid green;"">","null","","","","","","","","",""
"","image-keyboard-response","42","77455","0.0-42.0","3Z2R0DQ0JI0H1RZJL97BT5KUUSKE2Y","A13FUEPWBCLBUY","3PEG1BH7AEDCPKTV9M6N3A4F0EHKBR","","665.5","img/flower6.png","76","666.0999999642372","3","1","3","2","1,0,0,1,1,0,1,0,1","1,0,0,1,1,0,1,0,1","1",""
"","html-keyboard-response","43","77757","0.0-43.0","3Z2R0DQ0JI0H1RZJL97BT5KUUSKE2Y","A13FUEPWBCLBUY","3PEG1BH7AEDCPKTV9M6N3A4F0EHKBR","","null","<img src=""img/flower6.png"" style=""width:200px; border:14px solid green;"">","null","","","","","","","","",""
"","image-keyboard-response","44","78334","0.0-44.0","3Z2R0DQ0JI0H1RZJL97BT5KUUSKE2Y","A13FUEPWBCLBUY","3PEG1BH7AEDCPKTV9M6N3A4F0EHKBR","","576.5","img/flower6.png","76","577.1000000238419","3","1","3","2","1,0,0,1,1,0,1,0,1","1,0,0,1,1,0,1,0,1","1",""
"","html-keyboard-response","45","78637","0.0-45.0","3Z2R0DQ0JI0H1RZJL97BT5KUUSKE2Y","A13FUEPWBCLBUY","3PEG1BH7AEDCPKTV9M6N3A4F0EHKBR","","null","<img src=""img/flower6.png"" style=""width:200px; border:14px solid green;"">","null","","","","","","","","",""
"","image-keyboard-response","46","79327","0.0-46.0","3Z2R0DQ0JI0H1RZJL97BT5KUUSKE2Y","A13FUEPWBCLBUY","3PEG1BH7AEDCPKTV9M6N3A4F0EHKBR","","688.4000000357628","img/flower5.png","74","689.1000000238419","1","1","1","2","1,0,0,1,1,0,1,0,1","1,0,0,1,1,0,1,0,1","1",""
"","html-keyboard-response","47","79629","0.0-47.0","3Z2R0DQ0JI0H1RZJL97BT5KUUSKE2Y","A13FUEPWBCLBUY","3PEG1BH7AEDCPKTV9M6N3A4F0EHKBR","","null","<img src=""img/flower5.png"" style=""width:200px; border:14px solid green;"">","null","","","","","","","","",""
"","image-keyboard-response","48","80062","0.0-48.0","3Z2R0DQ0JI0H1RZJL97BT5KUUSKE2Y","A13FUEPWBCLBUY","3PEG1BH7AEDCPKTV9M6N3A4F0EHKBR","","431.9000000357628","img/flower5.png","74","432.39999997615814","1","1","1","2","1,0,0,1,1,0,1,0,1","1,0,0,1,1,0,1,0,1","1",""
"","html-keyboard-response","49","80363","0.0-49.0","3Z2R0DQ0JI0H1RZJL97BT5KUUSKE2Y","A13FUEPWBCLBUY","3PEG1BH7AEDCPKTV9M6N3A4F0EHKBR","","null","<img src=""img/flower5.png"" style=""width:200px; border:14px solid green;"">","null","","","","","","","","",""
"","image-keyboard-response","50","80858","0.0-50.0","3Z2R0DQ0JI0H1RZJL97BT5KUUSKE2Y","A13FUEPWBCLBUY","3PEG1BH7AEDCPKTV9M6N3A4F0EHKBR","","494.5","img/flower4.png","75","494.80000001192093","2","1","2","2","1,0,0,1,1,0,1,0,1","1,0,0,1,1,0,1,0,1","1",""
"","html-keyboard-response","51","81159","0.0-51.0","3Z2R0DQ0JI0H1RZJL97BT5KUUSKE2Y","A13FUEPWBCLBUY","3PEG1BH7AEDCPKTV9M6N3A4F0EHKBR","","null","<img src=""img/flower4.png"" style=""width:200px; border:14px solid green;"">","null","","","","","","","","",""
"","image-keyboard-response","52","81886","0.0-52.0","3Z2R0DQ0JI0H1RZJL97BT5KUUSKE2Y","A13FUEPWBCLBUY","3PEG1BH7AEDCPKTV9M6N3A4F0EHKBR","","726.6999999880791","img/flower6.png","76","727.1000000238419","3","1","3","2","1,0,0,1,1,0,1,0,1","1,0,0,1,1,0,1,0,1","1",""
"","html-keyboard-response","53","82188","0.0-53.0","3Z2R0DQ0JI0H1RZJL97BT5KUUSKE2Y","A13FUEPWBCLBUY","3PEG1BH7AEDCPKTV9M6N3A4F0EHKBR","","null","<img src=""img/flower6.png"" style=""width:200px; border:14px solid green;"">","null","","","","","","","","",""
"","image-keyboard-response","54","82938","0.0-54.0","3Z2R0DQ0JI0H1RZJL97BT5KUUSKE2Y","A13FUEPWBCLBUY","3PEG1BH7AEDCPKTV9M6N3A4F0EHKBR","","749.1999999880791","img/flower5.png","75","749.8000000119209","2","0","1","2","1,0,0,1,1,0,1,0,1","1,0,0,1,1,0,1,0,1","1",""
"","html-keyboard-response","55","83239","0.0-55.0","3Z2R0DQ0JI0H1RZJL97BT5KUUSKE2Y","A13FUEPWBCLBUY","3PEG1BH7AEDCPKTV9M6N3A4F0EHKBR","","null","<img src=""img/flower5.png"" style=""width:200px;border:14px solid red;"">","null","","","","","","","","",""
"","image-keyboard-response","56","83629","0.0-56.0","3Z2R0DQ0JI0H1RZJL97BT5KUUSKE2Y","A13FUEPWBCLBUY","3PEG1BH7AEDCPKTV9M6N3A4F0EHKBR","","389.30000001192093","img/flower4.png","74","389.80000001192093","1","1","2","2","1,0,0,1,1,0,1,0,1","1,0,0,1,1,0,1,0,1","1",""
"","html-keyboard-response","57","83934","0.0-57.0","3Z2R0DQ0JI0H1RZJL97BT5KUUSKE2Y","A13FUEPWBCLBUY","3PEG1BH7AEDCPKTV9M6N3A4F0EHKBR","","null","<img src=""img/flower4.png"" style=""width:200px; border:14px solid green;"">","null","","","","","","","","",""
"","image-keyboard-response","58","84679","0.0-58.0","3Z2R0DQ0JI0H1RZJL97BT5KUUSKE2Y","A13FUEPWBCLBUY","3PEG1BH7AEDCPKTV9M6N3A4F0EHKBR","","745.1999999880791","img/flower5.png","74","745.8000000119209","1","1","1","2","1,0,0,1,1,0,1,0,1","1,0,0,1,1,0,1,0,1","1",""
"","html-keyboard-response","59","84981","0.0-59.0","3Z2R0DQ0JI0H1RZJL97BT5KUUSKE2Y","A13FUEPWBCLBUY","3PEG1BH7AEDCPKTV9M6N3A4F0EHKBR","","null","<img src=""img/flower5.png"" style=""width:200px; border:14px solid green;"">","null","","","","","","","","",""
"","image-keyboard-response","60","85565","0.0-60.0","3Z2R0DQ0JI0H1RZJL97BT5KUUSKE2Y","A13FUEPWBCLBUY","3PEG1BH7AEDCPKTV9M6N3A4F0EHKBR","","584.1999999880791","img/flower6.png","76","584.6999999880791","3","1","3","2","1,0,0,1,1,0,1,0,1","1,0,0,1,1,0,1,0,1","1",""
"","html-keyboard-response","61","85867","0.0-61.0","3Z2R0DQ0JI0H1RZJL97BT5KUUSKE2Y","A13FUEPWBCLBUY","3PEG1BH7AEDCPKTV9M6N3A4F0EHKBR","","null","<img src=""img/flower6.png"" style=""width:200px; border:14px solid green;"">","null","","","","","","","","",""
"","image-keyboard-response","62","86552","0.0-62.0","3Z2R0DQ0JI0H1RZJL97BT5KUUSKE2Y","A13FUEPWBCLBUY","3PEG1BH7AEDCPKTV9M6N3A4F0EHKBR","","683.8999999761581","img/flower4.png","74","684.4000000357628","1","1","2","2","1,0,0,1,1,0,1,0,1","1,0,0,1,1,0,1,0,1","1",""
"","html-keyboard-response","63","86853","0.0-63.0","3Z2R0DQ0JI0H1RZJL97BT5KUUSKE2Y","A13FUEPWBCLBUY","3PEG1BH7AEDCPKTV9M6N3A4F0EHKBR","","null","<img src=""img/flower4.png"" style=""width:200px; border:14px solid green;"">","null","","","","","","","","",""
"","image-keyboard-response","64","87242","0.0-64.0","3Z2R0DQ0JI0H1RZJL97BT5KUUSKE2Y","A13FUEPWBCLBUY","3PEG1BH7AEDCPKTV9M6N3A4F0EHKBR","","388.0999999642372","img/flower5.png","74","388.60000002384186","1","1","1","2","1,0,0,1,1,0,1,0,1","1,0,0,1,1,0,1,0,1","1",""
"","html-keyboard-response","65","87543","0.0-65.0","3Z2R0DQ0JI0H1RZJL97BT5KUUSKE2Y","A13FUEPWBCLBUY","3PEG1BH7AEDCPKTV9M6N3A4F0EHKBR","","null","<img src=""img/flower5.png"" style=""width:200px; border:14px solid green;"">","null","","","","","","","","",""
"","image-keyboard-response","66","88039","0.0-66.0","3Z2R0DQ0JI0H1RZJL97BT5KUUSKE2Y","A13FUEPWBCLBUY","3PEG1BH7AEDCPKTV9M6N3A4F0EHKBR","","494.7999999523163","img/flower4.png","76","495.30000001192093","3","0","2","2","1,0,0,1,1,0,1,0,1","1,0,0,1,1,0,1,0,1","1",""
"","html-keyboard-response","67","88341","0.0-67.0","3Z2R0DQ0JI0H1RZJL97BT5KUUSKE2Y","A13FUEPWBCLBUY","3PEG1BH7AEDCPKTV9M6N3A4F0EHKBR","","null","<img src=""img/flower4.png"" style=""width:200px;border:14px solid red;"">","null","","","","","","","","",""
"","image-keyboard-response","68","89315","0.0-68.0","3Z2R0DQ0JI0H1RZJL97BT5KUUSKE2Y","A13FUEPWBCLBUY","3PEG1BH7AEDCPKTV9M6N3A4F0EHKBR","","973.6999999880791","img/flower5.png","74","974.1999999880791","1","1","1","2","1,0,0,1,1,0,1,0,1","1,0,0,1,1,0,1,0,1","1",""
"","html-keyboard-response","69","89622","0.0-69.0","3Z2R0DQ0JI0H1RZJL97BT5KUUSKE2Y","A13FUEPWBCLBUY","3PEG1BH7AEDCPKTV9M6N3A4F0EHKBR","","null","<img src=""img/flower5.png"" style=""width:200px; border:14px solid green;"">","null","","","","","","","","",""
"","image-keyboard-response","70","90085","0.0-70.0","3Z2R0DQ0JI0H1RZJL97BT5KUUSKE2Y","A13FUEPWBCLBUY","3PEG1BH7AEDCPKTV9M6N3A4F0EHKBR","","462.30000001192093","img/flower5.png","74","462.80000001192093","1","1","1","2","1,0,0,1,1,0,1,0,1","1,0,0,1,1,0,1,0,1","1",""
"","html-keyboard-response","71","90386","0.0-71.0","3Z2R0DQ0JI0H1RZJL97BT5KUUSKE2Y","A13FUEPWBCLBUY","3PEG1BH7AEDCPKTV9M6N3A4F0EHKBR","","null","<img src=""img/flower5.png"" style=""width:200px; border:14px solid green;"">","null","","","","","","","","",""
"","image-keyboard-response","72","90715","0.0-72.0","3Z2R0DQ0JI0H1RZJL97BT5KUUSKE2Y","A13FUEPWBCLBUY","3PEG1BH7AEDCPKTV9M6N3A4F0EHKBR","","327.7999999523163","img/flower5.png","74","328.39999997615814","1","1","1","2","1,0,0,1,1,0,1,0,1","1,0,0,1,1,0,1,0,1","1",""
"","html-keyboard-response","73","91017","0.0-73.0","3Z2R0DQ0JI0H1RZJL97BT5KUUSKE2Y","A13FUEPWBCLBUY","3PEG1BH7AEDCPKTV9M6N3A4F0EHKBR","","null","<img src=""img/flower5.png"" style=""width:200px; border:14px solid green;"">","null","","","","","","","","",""
"","image-keyboard-response","74","91540","0.0-74.0","3Z2R0DQ0JI0H1RZJL97BT5KUUSKE2Y","A13FUEPWBCLBUY","3PEG1BH7AEDCPKTV9M6N3A4F0EHKBR","","522.1000000238419","img/flower4.png","74","522.5","1","1","2","2","1,0,0,1,1,0,1,0,1","1,0,0,1,1,0,1,0,1","1",""
"","html-keyboard-response","75","91849","0.0-75.0","3Z2R0DQ0JI0H1RZJL97BT5KUUSKE2Y","A13FUEPWBCLBUY","3PEG1BH7AEDCPKTV9M6N3A4F0EHKBR","","null","<img src=""img/flower4.png"" style=""width:200px; border:14px solid green;"">","null","","","","","","","","",""
"","image-keyboard-response","76","92409","0.0-76.0","3Z2R0DQ0JI0H1RZJL97BT5KUUSKE2Y","A13FUEPWBCLBUY","3PEG1BH7AEDCPKTV9M6N3A4F0EHKBR","","559.5","img/flower6.png","76","559.8000000119209","3","1","3","2","1,0,0,1,1,0,1,0,1","1,0,0,1,1,0,1,0,1","1",""
"","html-keyboard-response","77","92710","0.0-77.0","3Z2R0DQ0JI0H1RZJL97BT5KUUSKE2Y","A13FUEPWBCLBUY","3PEG1BH7AEDCPKTV9M6N3A4F0EHKBR","","null","<img src=""img/flower6.png"" style=""width:200px; border:14px solid green;"">","null","","","","","","","","",""
"","image-keyboard-response","78","93201","0.0-78.0","3Z2R0DQ0JI0H1RZJL97BT5KUUSKE2Y","A13FUEPWBCLBUY","3PEG1BH7AEDCPKTV9M6N3A4F0EHKBR","","491.0999999642372","img/flower4.png","74","491.5","1","1","2","2","1,0,0,1,1,0,1,0,1","1,0,0,1,1,0,1,0,1","1",""
"","html-keyboard-response","79","93503","0.0-79.0","3Z2R0DQ0JI0H1RZJL97BT5KUUSKE2Y","A13FUEPWBCLBUY","3PEG1BH7AEDCPKTV9M6N3A4F0EHKBR","","null","<img src=""img/flower4.png"" style=""width:200px; border:14px solid green;"">","null","","","","","","","","",""
"","image-keyboard-response","80","93948","0.0-80.0","3Z2R0DQ0JI0H1RZJL97BT5KUUSKE2Y","A13FUEPWBCLBUY","3PEG1BH7AEDCPKTV9M6N3A4F0EHKBR","","444.39999997615814","img/flower5.png","74","444.69999998807907","1","1","1","2","1,0,0,1,1,0,1,0,1","1,0,0,1,1,0,1,0,1","1",""
"","html-keyboard-response","81","94249","0.0-81.0","3Z2R0DQ0JI0H1RZJL97BT5KUUSKE2Y","A13FUEPWBCLBUY","3PEG1BH7AEDCPKTV9M6N3A4F0EHKBR","","null","<img src=""img/flower5.png"" style=""width:200px; border:14px solid green;"">","null","","","","","","","","",""
"","image-keyboard-response","82","94571","0.0-82.0","3Z2R0DQ0JI0H1RZJL97BT5KUUSKE2Y","A13FUEPWBCLBUY","3PEG1BH7AEDCPKTV9M6N3A4F0EHKBR","","320.69999998807907","img/flower5.png","74","321.2999999523163","1","1","1","2","1,0,0,1,1,0,1,0,1","1,0,0,1,1,0,1,0,1","1",""
"","html-keyboard-response","83","94873","0.0-83.0","3Z2R0DQ0JI0H1RZJL97BT5KUUSKE2Y","A13FUEPWBCLBUY","3PEG1BH7AEDCPKTV9M6N3A4F0EHKBR","","null","<img src=""img/flower5.png"" style=""width:200px; border:14px solid green;"">","null","","","","","","","","",""
"","image-keyboard-response","84","95175","0.0-84.0","3Z2R0DQ0JI0H1RZJL97BT5KUUSKE2Y","A13FUEPWBCLBUY","3PEG1BH7AEDCPKTV9M6N3A4F0EHKBR","","301.80000001192093","img/flower5.png","74","302.39999997615814","1","1","1","2","1,0,0,1,1,0,1,0,1","1,0,0,1,1,0,1,0,1","1",""
"","html-keyboard-response","85","95476","0.0-85.0","3Z2R0DQ0JI0H1RZJL97BT5KUUSKE2Y","A13FUEPWBCLBUY","3PEG1BH7AEDCPKTV9M6N3A4F0EHKBR","","null","<img src=""img/flower5.png"" style=""width:200px; border:14px solid green;"">","null","","","","","","","","",""
"","image-keyboard-response","86","95908","0.0-86.0","3Z2R0DQ0JI0H1RZJL97BT5KUUSKE2Y","A13FUEPWBCLBUY","3PEG1BH7AEDCPKTV9M6N3A4F0EHKBR","","430.69999998807907","img/flower6.png","76","431.19999998807907","3","1","3","2","1,0,0,1,1,0,1,0,1","1,0,0,1,1,0,1,0,1","1",""
"","html-keyboard-response","87","96210","0.0-87.0","3Z2R0DQ0JI0H1RZJL97BT5KUUSKE2Y","A13FUEPWBCLBUY","3PEG1BH7AEDCPKTV9M6N3A4F0EHKBR","","null","<img src=""img/flower6.png"" style=""width:200px; border:14px solid green;"">","null","","","","","","","","",""
"","image-keyboard-response","88","96812","0.0-88.0","3Z2R0DQ0JI0H1RZJL97BT5KUUSKE2Y","A13FUEPWBCLBUY","3PEG1BH7AEDCPKTV9M6N3A4F0EHKBR","","601.3000000119209","img/flower4.png","74","601.8999999761581","1","1","2","2","1,0,0,1,1,0,1,0,1","1,0,0,1,1,0,1,0,1","1",""
"","html-keyboard-response","89","97120","0.0-89.0","3Z2R0DQ0JI0H1RZJL97BT5KUUSKE2Y","A13FUEPWBCLBUY","3PEG1BH7AEDCPKTV9M6N3A4F0EHKBR","","null","<img src=""img/flower4.png"" style=""width:200px; border:14px solid green;"">","null","","","","","","","","",""
"","image-keyboard-response","90","97525","0.0-90.0","3Z2R0DQ0JI0H1RZJL97BT5KUUSKE2Y","A13FUEPWBCLBUY","3PEG1BH7AEDCPKTV9M6N3A4F0EHKBR","","404.89999997615814","img/flower6.png","74","405.39999997615814","1","1","3","2","1,0,0,1,1,0,1,0,1","1,0,0,1,1,0,1,0,1","1",""
"","html-keyboard-response","91","97827","0.0-91.0","3Z2R0DQ0JI0H1RZJL97BT5KUUSKE2Y","A13FUEPWBCLBUY","3PEG1BH7AEDCPKTV9M6N3A4F0EHKBR","","null","<img src=""img/flower6.png"" style=""width:200px; border:14px solid green;"">","null","","","","","","","","",""
"","image-keyboard-response","92","98836","0.0-92.0","3Z2R0DQ0JI0H1RZJL97BT5KUUSKE2Y","A13FUEPWBCLBUY","3PEG1BH7AEDCPKTV9M6N3A4F0EHKBR","","1007.8999999761581","img/flower5.png","74","1008.5","1","1","1","2","1,0,0,1,1,0,1,0,1","1,0,0,1,1,0,1,0,1","1",""
"","html-keyboard-response","93","99137","0.0-93.0","3Z2R0DQ0JI0H1RZJL97BT5KUUSKE2Y","A13FUEPWBCLBUY","3PEG1BH7AEDCPKTV9M6N3A4F0EHKBR","","null","<img src=""img/flower5.png"" style=""width:200px; border:14px solid green;"">","null","","","","","","","","",""
"","image-keyboard-response","94","99663","0.0-94.0","3Z2R0DQ0JI0H1RZJL97BT5KUUSKE2Y","A13FUEPWBCLBUY","3PEG1BH7AEDCPKTV9M6N3A4F0EHKBR","","525.8000000119209","img/flower4.png","74","526.2999999523163","1","1","2","2","1,0,0,1,1,0,1,0,1","1,0,0,1,1,0,1,0,1","1",""
"","html-keyboard-response","95","99964","0.0-95.0","3Z2R0DQ0JI0H1RZJL97BT5KUUSKE2Y","A13FUEPWBCLBUY","3PEG1BH7AEDCPKTV9M6N3A4F0EHKBR","","null","<img src=""img/flower4.png"" style=""width:200px; border:14px solid green;"">","null","","","","","","","","",""
"","image-keyboard-response","96","100486","0.0-96.0","3Z2R0DQ0JI0H1RZJL97BT5KUUSKE2Y","A13FUEPWBCLBUY","3PEG1BH7AEDCPKTV9M6N3A4F0EHKBR","","520.5","img/flower5.png","74","521.1999999880791","1","1","1","2","1,0,0,1,1,0,1,0,1","1,0,0,1,1,0,1,0,1","1",""
"","html-keyboard-response","97","100788","0.0-97.0","3Z2R0DQ0JI0H1RZJL97BT5KUUSKE2Y","A13FUEPWBCLBUY","3PEG1BH7AEDCPKTV9M6N3A4F0EHKBR","","null","<img src=""img/flower5.png"" style=""width:200px; border:14px solid green;"">","null","","","","","","","","",""
"","image-keyboard-response","98","101201","0.0-98.0","3Z2R0DQ0JI0H1RZJL97BT5KUUSKE2Y","A13FUEPWBCLBUY","3PEG1BH7AEDCPKTV9M6N3A4F0EHKBR","","411.80000001192093","img/flower6.png","76","412.39999997615814","3","1","3","2","1,0,0,1,1,0,1,0,1","1,0,0,1,1,0,1,0,1","1",""
"","html-keyboard-response","99","101502","0.0-99.0","3Z2R0DQ0JI0H1RZJL97BT5KUUSKE2Y","A13FUEPWBCLBUY","3PEG1BH7AEDCPKTV9M6N3A4F0EHKBR","","null","<img src=""img/flower6.png"" style=""width:200px; border:14px solid green;"">","null","","","","","","","","",""
"","image-keyboard-response","100","101952","0.0-100.0","3Z2R0DQ0JI0H1RZJL97BT5KUUSKE2Y","A13FUEPWBCLBUY","3PEG1BH7AEDCPKTV9M6N3A4F0EHKBR","","448.80000001192093","img/flower6.png","76","449.39999997615814","3","1","3","2","1,0,0,1,1,0,1,0,1","1,0,0,1,1,0,1,0,1","1",""
"","html-keyboard-response","101","102253","0.0-101.0","3Z2R0DQ0JI0H1RZJL97BT5KUUSKE2Y","A13FUEPWBCLBUY","3PEG1BH7AEDCPKTV9M6N3A4F0EHKBR","","null","<img src=""img/flower6.png"" style=""width:200px; border:14px solid green;"">","null","","","","","","","","",""
"","image-keyboard-response","102","102578","0.0-102.0","3Z2R0DQ0JI0H1RZJL97BT5KUUSKE2Y","A13FUEPWBCLBUY","3PEG1BH7AEDCPKTV9M6N3A4F0EHKBR","","324","img/flower6.png","76","324.5","3","1","3","2","1,0,0,1,1,0,1,0,1","1,0,0,1,1,0,1,0,1","1",""
"","html-keyboard-response","103","102880","0.0-103.0","3Z2R0DQ0JI0H1RZJL97BT5KUUSKE2Y","A13FUEPWBCLBUY","3PEG1BH7AEDCPKTV9M6N3A4F0EHKBR","","null","<img src=""img/flower6.png"" style=""width:200px; border:14px solid green;"">","null","","","","","","","","",""
"","image-keyboard-response","104","103370","0.0-104.0","3Z2R0DQ0JI0H1RZJL97BT5KUUSKE2Y","A13FUEPWBCLBUY","3PEG1BH7AEDCPKTV9M6N3A4F0EHKBR","","488.5","img/flower5.png","74","488.9000000357628","1","1","1","2","1,0,0,1,1,0,1,0,1","1,0,0,1,1,0,1,0,1","1",""
"","html-keyboard-response","105","103671","0.0-105.0","3Z2R0DQ0JI0H1RZJL97BT5KUUSKE2Y","A13FUEPWBCLBUY","3PEG1BH7AEDCPKTV9M6N3A4F0EHKBR","","null","<img src=""img/flower5.png"" style=""width:200px; border:14px solid green;"">","null","","","","","","","","",""
"","image-keyboard-response","106","104091","0.0-106.0","3Z2R0DQ0JI0H1RZJL97BT5KUUSKE2Y","A13FUEPWBCLBUY","3PEG1BH7AEDCPKTV9M6N3A4F0EHKBR","","418.9000000357628","img/flower6.png","74","419.5","1","1","3","2","1,0,0,1,1,0,1,0,1","1,0,0,1,1,0,1,0,1","1",""
"","html-keyboard-response","107","104393","0.0-107.0","3Z2R0DQ0JI0H1RZJL97BT5KUUSKE2Y","A13FUEPWBCLBUY","3PEG1BH7AEDCPKTV9M6N3A4F0EHKBR","","null","<img src=""img/flower6.png"" style=""width:200px; border:14px solid green;"">","null","","","","","","","","",""
"","image-keyboard-response","108","105101","0.0-108.0","3Z2R0DQ0JI0H1RZJL97BT5KUUSKE2Y","A13FUEPWBCLBUY","3PEG1BH7AEDCPKTV9M6N3A4F0EHKBR","","707.1999999880791","img/flower6.png","74","707.8000000119209","1","1","3","2","1,0,0,1,1,0,1,0,1","1,0,0,1,1,0,1,0,1","1",""
"","html-keyboard-response","109","105402","0.0-109.0","3Z2R0DQ0JI0H1RZJL97BT5KUUSKE2Y","A13FUEPWBCLBUY","3PEG1BH7AEDCPKTV9M6N3A4F0EHKBR","","null","<img src=""img/flower6.png"" style=""width:200px; border:14px solid green;"">","null","","","","","","","","",""
"","image-keyboard-response","110","106162","0.0-110.0","3Z2R0DQ0JI0H1RZJL97BT5KUUSKE2Y","A13FUEPWBCLBUY","3PEG1BH7AEDCPKTV9M6N3A4F0EHKBR","","758.5","img/flower5.png","76","759.1000000238419","3","0","1","2","1,0,0,1,1,0,1,0,1","1,0,0,1,1,0,1,0,1","1",""
"","html-keyboard-response","111","106464","0.0-111.0","3Z2R0DQ0JI0H1RZJL97BT5KUUSKE2Y","A13FUEPWBCLBUY","3PEG1BH7AEDCPKTV9M6N3A4F0EHKBR","","null","<img src=""img/flower5.png"" style=""width:200px;border:14px solid red;"">","null","","","","","","","","",""
"","image-keyboard-response","112","106991","0.0-112.0","3Z2R0DQ0JI0H1RZJL97BT5KUUSKE2Y","A13FUEPWBCLBUY","3PEG1BH7AEDCPKTV9M6N3A4F0EHKBR","","526.3000000119209","img/flower5.png","74","526.8000000119209","1","1","1","2","1,0,0,1,1,0,1,0,1","1,0,0,1,1,0,1,0,1","1",""
"","html-keyboard-response","113","107292","0.0-113.0","3Z2R0DQ0JI0H1RZJL97BT5KUUSKE2Y","A13FUEPWBCLBUY","3PEG1BH7AEDCPKTV9M6N3A4F0EHKBR","","null","<img src=""img/flower5.png"" style=""width:200px; border:14px solid green;"">","null","","","","","","","","",""
"","image-keyboard-response","114","107911","0.0-114.0","3Z2R0DQ0JI0H1RZJL97BT5KUUSKE2Y","A13FUEPWBCLBUY","3PEG1BH7AEDCPKTV9M6N3A4F0EHKBR","","617.6999999880791","img/flower4.png","74","618.3999999761581","1","1","2","2","1,0,0,1,1,0,1,0,1","1,0,0,1,1,0,1,0,1","1",""
"","html-keyboard-response","115","108213","0.0-115.0","3Z2R0DQ0JI0H1RZJL97BT5KUUSKE2Y","A13FUEPWBCLBUY","3PEG1BH7AEDCPKTV9M6N3A4F0EHKBR","","null","<img src=""img/flower4.png"" style=""width:200px; border:14px solid green;"">","null","","","","","","","","",""
"","image-keyboard-response","116","108805","0.0-116.0","3Z2R0DQ0JI0H1RZJL97BT5KUUSKE2Y","A13FUEPWBCLBUY","3PEG1BH7AEDCPKTV9M6N3A4F0EHKBR","","591.0999999642372","img/flower5.png","74","591.5","1","1","1","2","1,0,0,1,1,0,1,0,1","1,0,0,1,1,0,1,0,1","1",""
"","html-keyboard-response","117","109106","0.0-117.0","3Z2R0DQ0JI0H1RZJL97BT5KUUSKE2Y","A13FUEPWBCLBUY","3PEG1BH7AEDCPKTV9M6N3A4F0EHKBR","","null","<img src=""img/flower5.png"" style=""width:200px; border:14px solid green;"">","null","","","","","","","","",""
"","image-keyboard-response","118","109469","0.0-118.0","3Z2R0DQ0JI0H1RZJL97BT5KUUSKE2Y","A13FUEPWBCLBUY","3PEG1BH7AEDCPKTV9M6N3A4F0EHKBR","","361.69999998807907","img/flower6.png","74","362.2999999523163","1","1","3","2","1,0,0,1,1,0,1,0,1","1,0,0,1,1,0,1,0,1","1",""
"","html-keyboard-response","119","109770","0.0-119.0","3Z2R0DQ0JI0H1RZJL97BT5KUUSKE2Y","A13FUEPWBCLBUY","3PEG1BH7AEDCPKTV9M6N3A4F0EHKBR","","null","<img src=""img/flower6.png"" style=""width:200px; border:14px solid green;"">","null","","","","","","","","",""
"","image-keyboard-response","120","110008","0.0-120.0","3Z2R0DQ0JI0H1RZJL97BT5KUUSKE2Y","A13FUEPWBCLBUY","3PEG1BH7AEDCPKTV9M6N3A4F0EHKBR","","237.69999998807907","img/flower4.png","74","238.0999999642372","1","1","2","2","1,0,0,1,1,0,1,0,1","1,0,0,1,1,0,1,0,1","1",""
"","html-keyboard-response","121","110316","0.0-121.0","3Z2R0DQ0JI0H1RZJL97BT5KUUSKE2Y","A13FUEPWBCLBUY","3PEG1BH7AEDCPKTV9M6N3A4F0EHKBR","","null","<img src=""img/flower4.png"" style=""width:200px; border:14px solid green;"">","null","","","","","","","","",""
"","image-keyboard-response","122","110539","0.0-122.0","3Z2R0DQ0JI0H1RZJL97BT5KUUSKE2Y","A13FUEPWBCLBUY","3PEG1BH7AEDCPKTV9M6N3A4F0EHKBR","","222.60000002384186","img/flower5.png","74","222.89999997615814","1","1","1","2","1,0,0,1,1,0,1,0,1","1,0,0,1,1,0,1,0,1","1",""
"","html-keyboard-response","123","110841","0.0-123.0","3Z2R0DQ0JI0H1RZJL97BT5KUUSKE2Y","A13FUEPWBCLBUY","3PEG1BH7AEDCPKTV9M6N3A4F0EHKBR","","null","<img src=""img/flower5.png"" style=""width:200px; border:14px solid green;"">","null","","","","","","","","",""
"","image-keyboard-response","124","111088","0.0-124.0","3Z2R0DQ0JI0H1RZJL97BT5KUUSKE2Y","A13FUEPWBCLBUY","3PEG1BH7AEDCPKTV9M6N3A4F0EHKBR","","246.9000000357628","img/flower6.png","74","247.39999997615814","1","1","3","2","1,0,0,1,1,0,1,0,1","1,0,0,1,1,0,1,0,1","1",""
"","html-keyboard-response","125","111390","0.0-125.0","3Z2R0DQ0JI0H1RZJL97BT5KUUSKE2Y","A13FUEPWBCLBUY","3PEG1BH7AEDCPKTV9M6N3A4F0EHKBR","","null","<img src=""img/flower6.png"" style=""width:200px; border:14px solid green;"">","null","","","","","","","","",""
"","image-keyboard-response","126","111615","0.0-126.0","3Z2R0DQ0JI0H1RZJL97BT5KUUSKE2Y","A13FUEPWBCLBUY","3PEG1BH7AEDCPKTV9M6N3A4F0EHKBR","","224.29999995231628","img/flower4.png","74","224.69999998807907","1","1","2","2","1,0,0,1,1,0,1,0,1","1,0,0,1,1,0,1,0,1","1",""
"","html-keyboard-response","127","111916","0.0-127.0","3Z2R0DQ0JI0H1RZJL97BT5KUUSKE2Y","A13FUEPWBCLBUY","3PEG1BH7AEDCPKTV9M6N3A4F0EHKBR","","null","<img src=""img/flower4.png"" style=""width:200px; border:14px solid green;"">","null","","","","","","","","",""
"","image-keyboard-response","128","112160","0.0-128.0","3Z2R0DQ0JI0H1RZJL97BT5KUUSKE2Y","A13FUEPWBCLBUY","3PEG1BH7AEDCPKTV9M6N3A4F0EHKBR","","243.5999999642372","img/flower4.png","74","244.10000002384186","1","1","2","2","1,0,0,1,1,0,1,0,1","1,0,0,1,1,0,1,0,1","1",""
"","html-keyboard-response","129","112461","0.0-129.0","3Z2R0DQ0JI0H1RZJL97BT5KUUSKE2Y","A13FUEPWBCLBUY","3PEG1BH7AEDCPKTV9M6N3A4F0EHKBR","","null","<img src=""img/flower4.png"" style=""width:200px; border:14px solid green;"">","null","","","","","","","","",""
"","image-keyboard-response","130","112719","0.0-130.0","3Z2R0DQ0JI0H1RZJL97BT5KUUSKE2Y","A13FUEPWBCLBUY","3PEG1BH7AEDCPKTV9M6N3A4F0EHKBR","","257.89999997615814","img/flower5.png","74","258.30000001192093","1","1","1","2","1,0,0,1,1,0,1,0,1","1,0,0,1,1,0,1,0,1","1",""
"","html-keyboard-response","131","113021","0.0-131.0","3Z2R0DQ0JI0H1RZJL97BT5KUUSKE2Y","A13FUEPWBCLBUY","3PEG1BH7AEDCPKTV9M6N3A4F0EHKBR","","null","<img src=""img/flower5.png"" style=""width:200px; border:14px solid green;"">","null","","","","","","","","",""
"","image-keyboard-response","132","113229","0.0-132.0","3Z2R0DQ0JI0H1RZJL97BT5KUUSKE2Y","A13FUEPWBCLBUY","3PEG1BH7AEDCPKTV9M6N3A4F0EHKBR","","207","img/flower4.png","74","207.60000002384186","1","1","2","2","1,0,0,1,1,0,1,0,1","1,0,0,1,1,0,1,0,1","1",""
"","html-keyboard-response","133","113530","0.0-133.0","3Z2R0DQ0JI0H1RZJL97BT5KUUSKE2Y","A13FUEPWBCLBUY","3PEG1BH7AEDCPKTV9M6N3A4F0EHKBR","","null","<img src=""img/flower4.png"" style=""width:200px; border:14px solid green;"">","null","","","","","","","","",""
"","image-keyboard-response","134","113655","0.0-134.0","3Z2R0DQ0JI0H1RZJL97BT5KUUSKE2Y","A13FUEPWBCLBUY","3PEG1BH7AEDCPKTV9M6N3A4F0EHKBR","","123.79999995231628","img/flower5.png","74","124.19999998807907","1","1","1","2","1,0,0,1,1,0,1,0,1","1,0,0,1,1,0,1,0,1","1",""
"","html-keyboard-response","135","113967","0.0-135.0","3Z2R0DQ0JI0H1RZJL97BT5KUUSKE2Y","A13FUEPWBCLBUY","3PEG1BH7AEDCPKTV9M6N3A4F0EHKBR","","null","<img src=""img/flower5.png"" style=""width:200px; border:14px solid green;"">","null","","","","","","","","",""
"","image-keyboard-response","136","114115","0.0-136.0","3Z2R0DQ0JI0H1RZJL97BT5KUUSKE2Y","A13FUEPWBCLBUY","3PEG1BH7AEDCPKTV9M6N3A4F0EHKBR","","147","img/flower6.png","74","147.5","1","1","3","2","1,0,0,1,1,0,1,0,1","1,0,0,1,1,0,1,0,1","1",""
"","html-keyboard-response","137","114417","0.0-137.0","3Z2R0DQ0JI0H1RZJL97BT5KUUSKE2Y","A13FUEPWBCLBUY","3PEG1BH7AEDCPKTV9M6N3A4F0EHKBR","","null","<img src=""img/flower6.png"" style=""width:200px; border:14px solid green;"">","null","","","","","","","","",""
"","image-keyboard-response","138","114597","0.0-138.0","3Z2R0DQ0JI0H1RZJL97BT5KUUSKE2Y","A13FUEPWBCLBUY","3PEG1BH7AEDCPKTV9M6N3A4F0EHKBR","","179.0999999642372","img/flower5.png","74","179.60000002384186","1","1","1","2","1,0,0,1,1,0,1,0,1","1,0,0,1,1,0,1,0,1","1",""
"","html-keyboard-response","139","114899","0.0-139.0","3Z2R0DQ0JI0H1RZJL97BT5KUUSKE2Y","A13FUEPWBCLBUY","3PEG1BH7AEDCPKTV9M6N3A4F0EHKBR","","null","<img src=""img/flower5.png"" style=""width:200px; border:14px solid green;"">","null","","","","","","","","",""
"","image-keyboard-response","140","115105","0.0-140.0","3Z2R0DQ0JI0H1RZJL97BT5KUUSKE2Y","A13FUEPWBCLBUY","3PEG1BH7AEDCPKTV9M6N3A4F0EHKBR","","205.19999998807907","img/flower4.png","74","205.80000001192093","1","1","2","2","1,0,0,1,1,0,1,0,1","1,0,0,1,1,0,1,0,1","1",""
"","html-keyboard-response","141","115406","0.0-141.0","3Z2R0DQ0JI0H1RZJL97BT5KUUSKE2Y","A13FUEPWBCLBUY","3PEG1BH7AEDCPKTV9M6N3A4F0EHKBR","","null","<img src=""img/flower4.png"" style=""width:200px; border:14px solid green;"">","null","","","","","","","","",""
"","image-keyboard-response","142","115600","0.0-142.0","3Z2R0DQ0JI0H1RZJL97BT5KUUSKE2Y","A13FUEPWBCLBUY","3PEG1BH7AEDCPKTV9M6N3A4F0EHKBR","","193.10000002384186","img/flower4.png","74","193.60000002384186","1","1","2","2","1,0,0,1,1,0,1,0,1","1,0,0,1,1,0,1,0,1","1",""
"","html-keyboard-response","143","115902","0.0-143.0","3Z2R0DQ0JI0H1RZJL97BT5KUUSKE2Y","A13FUEPWBCLBUY","3PEG1BH7AEDCPKTV9M6N3A4F0EHKBR","","null","<img src=""img/flower4.png"" style=""width:200px; border:14px solid green;"">","null","","","","","","","","",""
"","image-keyboard-response","144","116099","0.0-144.0","3Z2R0DQ0JI0H1RZJL97BT5KUUSKE2Y","A13FUEPWBCLBUY","3PEG1BH7AEDCPKTV9M6N3A4F0EHKBR","","196.30000001192093","img/flower5.png","74","196.70000004768372","1","1","1","2","1,0,0,1,1,0,1,0,1","1,0,0,1,1,0,1,0,1","1",""
"","html-keyboard-response","145","116400","0.0-145.0","3Z2R0DQ0JI0H1RZJL97BT5KUUSKE2Y","A13FUEPWBCLBUY","3PEG1BH7AEDCPKTV9M6N3A4F0EHKBR","","null","<img src=""img/flower5.png"" style=""width:200px; border:14px solid green;"">","null","","","","","","","","",""
"","image-keyboard-response","146","116618","0.0-146.0","3Z2R0DQ0JI0H1RZJL97BT5KUUSKE2Y","A13FUEPWBCLBUY","3PEG1BH7AEDCPKTV9M6N3A4F0EHKBR","","217","img/flower6.png","74","217.5999999642372","1","1","3","2","1,0,0,1,1,0,1,0,1","1,0,0,1,1,0,1,0,1","1",""
"","html-keyboard-response","147","116920","0.0-147.0","3Z2R0DQ0JI0H1RZJL97BT5KUUSKE2Y","A13FUEPWBCLBUY","3PEG1BH7AEDCPKTV9M6N3A4F0EHKBR","","null","<img src=""img/flower6.png"" style=""width:200px; border:14px solid green;"">","null","","","","","","","","",""
"","image-keyboard-response","148","117031","0.0-148.0","3Z2R0DQ0JI0H1RZJL97BT5KUUSKE2Y","A13FUEPWBCLBUY","3PEG1BH7AEDCPKTV9M6N3A4F0EHKBR","","111.30000001192093","img/flower4.png","74","111.69999998807907","1","1","2","2","1,0,0,1,1,0,1,0,1","1,0,0,1,1,0,1,0,1","1",""
"","html-keyboard-response","149","117333","0.0-149.0","3Z2R0DQ0JI0H1RZJL97BT5KUUSKE2Y","A13FUEPWBCLBUY","3PEG1BH7AEDCPKTV9M6N3A4F0EHKBR","","null","<img src=""img/flower4.png"" style=""width:200px; border:14px solid green;"">","null","","","","","","","","",""
"","image-keyboard-response","150","117511","0.0-150.0","3Z2R0DQ0JI0H1RZJL97BT5KUUSKE2Y","A13FUEPWBCLBUY","3PEG1BH7AEDCPKTV9M6N3A4F0EHKBR","","177.5","img/flower4.png","74","178.29999995231628","1","1","2","2","1,0,0,1,1,0,1,0,1","1,0,0,1,1,0,1,0,1","1",""
"","html-keyboard-response","151","117813","0.0-151.0","3Z2R0DQ0JI0H1RZJL97BT5KUUSKE2Y","A13FUEPWBCLBUY","3PEG1BH7AEDCPKTV9M6N3A4F0EHKBR","","null","<img src=""img/flower4.png"" style=""width:200px; border:14px solid green;"">","null","","","","","","","","",""
"","image-keyboard-response","152","117962","0.0-152.0","3Z2R0DQ0JI0H1RZJL97BT5KUUSKE2Y","A13FUEPWBCLBUY","3PEG1BH7AEDCPKTV9M6N3A4F0EHKBR","","149.10000002384186","img/flower4.png","74","149.69999998807907","1","1","2","2","1,0,0,1,1,0,1,0,1","1,0,0,1,1,0,1,0,1","1",""
"","html-keyboard-response","153","118264","0.0-153.0","3Z2R0DQ0JI0H1RZJL97BT5KUUSKE2Y","A13FUEPWBCLBUY","3PEG1BH7AEDCPKTV9M6N3A4F0EHKBR","","null","<img src=""img/flower4.png"" style=""width:200px; border:14px solid green;"">","null","","","","","","","","",""
"","image-keyboard-response","154","118412","0.0-154.0","3Z2R0DQ0JI0H1RZJL97BT5KUUSKE2Y","A13FUEPWBCLBUY","3PEG1BH7AEDCPKTV9M6N3A4F0EHKBR","","147.9000000357628","img/flower6.png","74","148.30000001192093","1","1","3","2","1,0,0,1,1,0,1,0,1","1,0,0,1,1,0,1,0,1","1",""
"","html-keyboard-response","155","118714","0.0-155.0","3Z2R0DQ0JI0H1RZJL97BT5KUUSKE2Y","A13FUEPWBCLBUY","3PEG1BH7AEDCPKTV9M6N3A4F0EHKBR","","null","<img src=""img/flower6.png"" style=""width:200px; border:14px solid green;"">","null","","","","","","","","",""
"","image-keyboard-response","156","118861","0.0-156.0","3Z2R0DQ0JI0H1RZJL97BT5KUUSKE2Y","A13FUEPWBCLBUY","3PEG1BH7AEDCPKTV9M6N3A4F0EHKBR","","146.89999997615814","img/flower4.png","74","147.39999997615814","1","1","2","2","1,0,0,1,1,0,1,0,1","1,0,0,1,1,0,1,0,1","1",""
"","html-keyboard-response","157","119179","0.0-157.0","3Z2R0DQ0JI0H1RZJL97BT5KUUSKE2Y","A13FUEPWBCLBUY","3PEG1BH7AEDCPKTV9M6N3A4F0EHKBR","","null","<img src=""img/flower4.png"" style=""width:200px; border:14px solid green;"">","null","","","","","","","","",""
"","image-keyboard-response","158","119310","0.0-158.0","3Z2R0DQ0JI0H1RZJL97BT5KUUSKE2Y","A13FUEPWBCLBUY","3PEG1BH7AEDCPKTV9M6N3A4F0EHKBR","","131.29999995231628","img/flower5.png","74","131.69999998807907","1","1","1","2","1,0,0,1,1,0,1,0,1","1,0,0,1,1,0,1,0,1","1",""
"","html-keyboard-response","159","119611","0.0-159.0","3Z2R0DQ0JI0H1RZJL97BT5KUUSKE2Y","A13FUEPWBCLBUY","3PEG1BH7AEDCPKTV9M6N3A4F0EHKBR","","null","<img src=""img/flower5.png"" style=""width:200px; border:14px solid green;"">","null","","","","","","","","",""
"","image-keyboard-response","160","119789","0.0-160.0","3Z2R0DQ0JI0H1RZJL97BT5KUUSKE2Y","A13FUEPWBCLBUY","3PEG1BH7AEDCPKTV9M6N3A4F0EHKBR","","176.5999999642372","img/flower5.png","74","176.89999997615814","1","1","1","2","1,0,0,1,1,0,1,0,1","1,0,0,1,1,0,1,0,1","1",""
"","html-keyboard-response","161","120091","0.0-161.0","3Z2R0DQ0JI0H1RZJL97BT5KUUSKE2Y","A13FUEPWBCLBUY","3PEG1BH7AEDCPKTV9M6N3A4F0EHKBR","","null","<img src=""img/flower5.png"" style=""width:200px; border:14px solid green;"">","null","","","","","","","","",""
"","image-keyboard-response","162","120210","0.0-162.0","3Z2R0DQ0JI0H1RZJL97BT5KUUSKE2Y","A13FUEPWBCLBUY","3PEG1BH7AEDCPKTV9M6N3A4F0EHKBR","","118.89999997615814","img/flower4.png","74","119.60000002384186","1","1","2","2","1,0,0,1,1,0,1,0,1","1,0,0,1,1,0,1,0,1","1",""
"","html-keyboard-response","163","120512","0.0-163.0","3Z2R0DQ0JI0H1RZJL97BT5KUUSKE2Y","A13FUEPWBCLBUY","3PEG1BH7AEDCPKTV9M6N3A4F0EHKBR","","null","<img src=""img/flower4.png"" style=""width:200px; border:14px solid green;"">","null","","","","","","","","",""
"","image-keyboard-response","164","120611","0.0-164.0","3Z2R0DQ0JI0H1RZJL97BT5KUUSKE2Y","A13FUEPWBCLBUY","3PEG1BH7AEDCPKTV9M6N3A4F0EHKBR","","99","img/flower4.png","74","99.59999996423721","1","1","2","2","1,0,0,1,1,0,1,0,1","1,0,0,1,1,0,1,0,1","1",""
"","html-keyboard-response","165","120914","0.0-165.0","3Z2R0DQ0JI0H1RZJL97BT5KUUSKE2Y","A13FUEPWBCLBUY","3PEG1BH7AEDCPKTV9M6N3A4F0EHKBR","","null","<img src=""img/flower4.png"" style=""width:200px; border:14px solid green;"">","null","","","","","","","","",""
"","image-keyboard-response","166","121022","0.0-166.0","3Z2R0DQ0JI0H1RZJL97BT5KUUSKE2Y","A13FUEPWBCLBUY","3PEG1BH7AEDCPKTV9M6N3A4F0EHKBR","","108.10000002384186","img/flower4.png","74","108.59999996423721","1","1","2","2","1,0,0,1,1,0,1,0,1","1,0,0,1,1,0,1,0,1","1",""
"","html-keyboard-response","167","121323","0.0-167.0","3Z2R0DQ0JI0H1RZJL97BT5KUUSKE2Y","A13FUEPWBCLBUY","3PEG1BH7AEDCPKTV9M6N3A4F0EHKBR","","null","<img src=""img/flower4.png"" style=""width:200px; border:14px solid green;"">","null","","","","","","","","",""
"","image-keyboard-response","168","121414","0.0-168.0","3Z2R0DQ0JI0H1RZJL97BT5KUUSKE2Y","A13FUEPWBCLBUY","3PEG1BH7AEDCPKTV9M6N3A4F0EHKBR","","90.19999998807907","img/flower6.png","74","90.80000001192093","1","1","3","2","1,0,0,1,1,0,1,0,1","1,0,0,1,1,0,1,0,1","1",""
"","html-keyboard-response","169","121716","0.0-169.0","3Z2R0DQ0JI0H1RZJL97BT5KUUSKE2Y","A13FUEPWBCLBUY","3PEG1BH7AEDCPKTV9M6N3A4F0EHKBR","","null","<img src=""img/flower6.png"" style=""width:200px; border:14px solid green;"">","null","","","","","","","","",""
"","image-keyboard-response","170","121821","0.0-170.0","3Z2R0DQ0JI0H1RZJL97BT5KUUSKE2Y","A13FUEPWBCLBUY","3PEG1BH7AEDCPKTV9M6N3A4F0EHKBR","","105.09999996423721","img/flower5.png","74","105.5","1","1","1","2","1,0,0,1,1,0,1,0,1","1,0,0,1,1,0,1,0,1","1",""
"","html-keyboard-response","171","122122","0.0-171.0","3Z2R0DQ0JI0H1RZJL97BT5KUUSKE2Y","A13FUEPWBCLBUY","3PEG1BH7AEDCPKTV9M6N3A4F0EHKBR","","null","<img src=""img/flower5.png"" style=""width:200px; border:14px solid green;"">","null","","","","","","","","",""
"","image-keyboard-response","172","122193","0.0-172.0","3Z2R0DQ0JI0H1RZJL97BT5KUUSKE2Y","A13FUEPWBCLBUY","3PEG1BH7AEDCPKTV9M6N3A4F0EHKBR","","70","img/flower5.png","74","70.5","1","1","1","2","1,0,0,1,1,0,1,0,1","1,0,0,1,1,0,1,0,1","1",""
"","html-keyboard-response","173","122495","0.0-173.0","3Z2R0DQ0JI0H1RZJL97BT5KUUSKE2Y","A13FUEPWBCLBUY","3PEG1BH7AEDCPKTV9M6N3A4F0EHKBR","","null","<img src=""img/flower5.png"" style=""width:200px; border:14px solid green;"">","null","","","","","","","","",""
"","image-keyboard-response","174","122558","0.0-174.0","3Z2R0DQ0JI0H1RZJL97BT5KUUSKE2Y","A13FUEPWBCLBUY","3PEG1BH7AEDCPKTV9M6N3A4F0EHKBR","","62.09999996423721","img/flower4.png","74","62.69999998807907","1","1","2","2","1,0,0,1,1,0,1,0,1","1,0,0,1,1,0,1,0,1","1",""
"","html-keyboard-response","175","122860","0.0-175.0","3Z2R0DQ0JI0H1RZJL97BT5KUUSKE2Y","A13FUEPWBCLBUY","3PEG1BH7AEDCPKTV9M6N3A4F0EHKBR","","null","<img src=""img/flower4.png"" style=""width:200px; border:14px solid green;"">","null","","","","","","","","",""
"","image-keyboard-response","176","122915","0.0-176.0","3Z2R0DQ0JI0H1RZJL97BT5KUUSKE2Y","A13FUEPWBCLBUY","3PEG1BH7AEDCPKTV9M6N3A4F0EHKBR","","54.10000002384186","img/flower6.png","74","54.69999998807907","1","1","3","2","1,0,0,1,1,0,1,0,1","1,0,0,1,1,0,1,0,1","1",""
"","html-keyboard-response","177","123216","0.0-177.0","3Z2R0DQ0JI0H1RZJL97BT5KUUSKE2Y","A13FUEPWBCLBUY","3PEG1BH7AEDCPKTV9M6N3A4F0EHKBR","","null","<img src=""img/flower6.png"" style=""width:200px; border:14px solid green;"">","null","","","","","","","","",""
"","image-keyboard-response","178","123247","0.0-178.0","3Z2R0DQ0JI0H1RZJL97BT5KUUSKE2Y","A13FUEPWBCLBUY","3PEG1BH7AEDCPKTV9M6N3A4F0EHKBR","","30.30000001192093","img/flower6.png","74","30.69999998807907","1","1","3","2","1,0,0,1,1,0,1,0,1","1,0,0,1,1,0,1,0,1","1",""
"","html-keyboard-response","179","123548","0.0-179.0","3Z2R0DQ0JI0H1RZJL97BT5KUUSKE2Y","A13FUEPWBCLBUY","3PEG1BH7AEDCPKTV9M6N3A4F0EHKBR","","null","<img src=""img/flower6.png"" style=""width:200px; border:14px solid green;"">","null","","","","","","","","",""
"","image-keyboard-response","180","123570","0.0-180.0","3Z2R0DQ0JI0H1RZJL97BT5KUUSKE2Y","A13FUEPWBCLBUY","3PEG1BH7AEDCPKTV9M6N3A4F0EHKBR","","21.80000001192093","img/flower6.png","74","22.19999998807907","1","1","3","2","1,0,0,1,1,0,1,0,1","1,0,0,1,1,0,1,0,1","1",""
"","html-keyboard-response","181","123872","0.0-181.0","3Z2R0DQ0JI0H1RZJL97BT5KUUSKE2Y","A13FUEPWBCLBUY","3PEG1BH7AEDCPKTV9M6N3A4F0EHKBR","","null","<img src=""img/flower6.png"" style=""width:200px; border:14px solid green;"">","null","","","","","","","","",""
"","image-keyboard-response","182","123897","0.0-182.0","3Z2R0DQ0JI0H1RZJL97BT5KUUSKE2Y","A13FUEPWBCLBUY","3PEG1BH7AEDCPKTV9M6N3A4F0EHKBR","","25","img/flower3.png","74","25.299999952316284","1","1","1","1","1,0.333,0.333,0.333,1,0.333,0.333,0.333,1","1,0.333,0.333,0.333,1,0.333,0.333,0.333,1","1",""
"","html-keyboard-response","183","124198","0.0-183.0","3Z2R0DQ0JI0H1RZJL97BT5KUUSKE2Y","A13FUEPWBCLBUY","3PEG1BH7AEDCPKTV9M6N3A4F0EHKBR","","null","<img src=""img/flower3.png"" style=""width:200px; border:14px solid green;"">","null","","","","","","","","",""
"","image-keyboard-response","184","124276","0.0-184.0","3Z2R0DQ0JI0H1RZJL97BT5KUUSKE2Y","A13FUEPWBCLBUY","3PEG1BH7AEDCPKTV9M6N3A4F0EHKBR","","76.89999997615814","img/flower3.png","74","77.39999997615814","1","1","1","1","1,0.333,0.333,0.333,1,0.333,0.333,0.333,1","1,0.333,0.333,0.333,1,0.333,0.333,0.333,1","1",""
"","html-keyboard-response","185","124577","0.0-185.0","3Z2R0DQ0JI0H1RZJL97BT5KUUSKE2Y","A13FUEPWBCLBUY","3PEG1BH7AEDCPKTV9M6N3A4F0EHKBR","","null","<img src=""img/flower3.png"" style=""width:200px; border:14px solid green;"">","null","","","","","","","","",""
"","image-keyboard-response","186","124618","0.0-186.0","3Z2R0DQ0JI0H1RZJL97BT5KUUSKE2Y","A13FUEPWBCLBUY","3PEG1BH7AEDCPKTV9M6N3A4F0EHKBR","","40.5","img/flower1.png","74","40.80000001192093","1","1","3","1","1,0.333,0.333,0.333,1,0.333,0.333,0.333,1","1,0.333,0.333,0.333,1,0.333,0.333,0.333,1","1",""
"","html-keyboard-response","187","124920","0.0-187.0","3Z2R0DQ0JI0H1RZJL97BT5KUUSKE2Y","A13FUEPWBCLBUY","3PEG1BH7AEDCPKTV9M6N3A4F0EHKBR","","null","<img src=""img/flower1.png"" style=""width:200px; border:14px solid green;"">","null","","","","","","","","",""
"","image-keyboard-response","188","124965","0.0-188.0","3Z2R0DQ0JI0H1RZJL97BT5KUUSKE2Y","A13FUEPWBCLBUY","3PEG1BH7AEDCPKTV9M6N3A4F0EHKBR","","45.10000002384186","img/flower3.png","74","45.5","1","1","1","1","1,0.333,0.333,0.333,1,0.333,0.333,0.333,1","1,0.333,0.333,0.333,1,0.333,0.333,0.333,1","1",""
"","html-keyboard-response","189","125271","0.0-189.0","3Z2R0DQ0JI0H1RZJL97BT5KUUSKE2Y","A13FUEPWBCLBUY","3PEG1BH7AEDCPKTV9M6N3A4F0EHKBR","","null","<img src=""img/flower3.png"" style=""width:200px; border:14px solid green;"">","null","","","","","","","","",""
"","image-keyboard-response","190","125345","0.0-190.0","3Z2R0DQ0JI0H1RZJL97BT5KUUSKE2Y","A13FUEPWBCLBUY","3PEG1BH7AEDCPKTV9M6N3A4F0EHKBR","","73.40000003576279","img/flower2.png","74","73.69999998807907","1","0","2","1","1,0.333,0.333,0.333,1,0.333,0.333,0.333,1","1,0.333,0.333,0.333,1,0.333,0.333,0.333,1","1",""
"","html-keyboard-response","191","125661","0.0-191.0","3Z2R0DQ0JI0H1RZJL97BT5KUUSKE2Y","A13FUEPWBCLBUY","3PEG1BH7AEDCPKTV9M6N3A4F0EHKBR","","null","<img src=""img/flower2.png"" style=""width:200px;border:14px solid red;"">","null","","","","","","","","",""
"","image-keyboard-response","192","125719","0.0-192.0","3Z2R0DQ0JI0H1RZJL97BT5KUUSKE2Y","A13FUEPWBCLBUY","3PEG1BH7AEDCPKTV9M6N3A4F0EHKBR","","57.69999998807907","img/flower3.png","74","58.5","1","1","1","1","1,0.333,0.333,0.333,1,0.333,0.333,0.333,1","1,0.333,0.333,0.333,1,0.333,0.333,0.333,1","1",""
"","html-keyboard-response","193","126021","0.0-193.0","3Z2R0DQ0JI0H1RZJL97BT5KUUSKE2Y","A13FUEPWBCLBUY","3PEG1BH7AEDCPKTV9M6N3A4F0EHKBR","","null","<img src=""img/flower3.png"" style=""width:200px; border:14px solid green;"">","null","","","","","","","","",""
"","image-keyboard-response","194","126057","0.0-194.0","3Z2R0DQ0JI0H1RZJL97BT5KUUSKE2Y","A13FUEPWBCLBUY","3PEG1BH7AEDCPKTV9M6N3A4F0EHKBR","","35.80000001192093","img/flower3.png","74","36.30000001192093","1","1","1","1","1,0.333,0.333,0.333,1,0.333,0.333,0.333,1","1,0.333,0.333,0.333,1,0.333,0.333,0.333,1","1",""
"","html-keyboard-response","195","126358","0.0-195.0","3Z2R0DQ0JI0H1RZJL97BT5KUUSKE2Y","A13FUEPWBCLBUY","3PEG1BH7AEDCPKTV9M6N3A4F0EHKBR","","null","<img src=""img/flower3.png"" style=""width:200px; border:14px solid green;"">","null","","","","","","","","",""
"","image-keyboard-response","196","126373","0.0-196.0","3Z2R0DQ0JI0H1RZJL97BT5KUUSKE2Y","A13FUEPWBCLBUY","3PEG1BH7AEDCPKTV9M6N3A4F0EHKBR","","14.5","img/flower1.png","74","15","1","0","3","1","1,0.333,0.333,0.333,1,0.333,0.333,0.333,1","1,0.333,0.333,0.333,1,0.333,0.333,0.333,1","1",""
"","html-keyboard-response","197","126675","0.0-197.0","3Z2R0DQ0JI0H1RZJL97BT5KUUSKE2Y","A13FUEPWBCLBUY","3PEG1BH7AEDCPKTV9M6N3A4F0EHKBR","","null","<img src=""img/flower1.png"" style=""width:200px;border:14px solid red;"">","null","","","","","","","","",""
"","image-keyboard-response","198","126698","0.0-198.0","3Z2R0DQ0JI0H1RZJL97BT5KUUSKE2Y","A13FUEPWBCLBUY","3PEG1BH7AEDCPKTV9M6N3A4F0EHKBR","","23.100000023841858","img/flower3.png","74","23.69999998807907","1","1","1","1","1,0.333,0.333,0.333,1,0.333,0.333,0.333,1","1,0.333,0.333,0.333,1,0.333,0.333,0.333,1","1",""
"","html-keyboard-response","199","127000","0.0-199.0","3Z2R0DQ0JI0H1RZJL97BT5KUUSKE2Y","A13FUEPWBCLBUY","3PEG1BH7AEDCPKTV9M6N3A4F0EHKBR","","null","<img src=""img/flower3.png"" style=""width:200px; border:14px solid green;"">","null","","","","","","","","",""
"","image-keyboard-response","200","127150","0.0-200.0","3Z2R0DQ0JI0H1RZJL97BT5KUUSKE2Y","A13FUEPWBCLBUY","3PEG1BH7AEDCPKTV9M6N3A4F0EHKBR","","150","img/flower1.png","74","150.60000002384186","1","1","3","1","1,0.333,0.333,0.333,1,0.333,0.333,0.333,1","1,0.333,0.333,0.333,1,0.333,0.333,0.333,1","1",""
"","html-keyboard-response","201","127452","0.0-201.0","3Z2R0DQ0JI0H1RZJL97BT5KUUSKE2Y","A13FUEPWBCLBUY","3PEG1BH7AEDCPKTV9M6N3A4F0EHKBR","","null","<img src=""img/flower1.png"" style=""width:200px; border:14px solid green;"">","null","","","","","","","","",""
"","image-keyboard-response","202","127568","0.0-202.0","3Z2R0DQ0JI0H1RZJL97BT5KUUSKE2Y","A13FUEPWBCLBUY","3PEG1BH7AEDCPKTV9M6N3A4F0EHKBR","","116.19999998807907","img/flower3.png","74","116.60000002384186","1","1","1","1","1,0.333,0.333,0.333,1,0.333,0.333,0.333,1","1,0.333,0.333,0.333,1,0.333,0.333,0.333,1","1",""
"","html-keyboard-response","203","127881","0.0-203.0","3Z2R0DQ0JI0H1RZJL97BT5KUUSKE2Y","A13FUEPWBCLBUY","3PEG1BH7AEDCPKTV9M6N3A4F0EHKBR","","null","<img src=""img/flower3.png"" style=""width:200px; border:14px solid green;"">","null","","","","","","","","",""
"","image-keyboard-response","204","127962","0.0-204.0","3Z2R0DQ0JI0H1RZJL97BT5KUUSKE2Y","A13FUEPWBCLBUY","3PEG1BH7AEDCPKTV9M6N3A4F0EHKBR","","80.60000002384186","img/flower3.png","74","81.19999998807907","1","1","1","1","1,0.333,0.333,0.333,1,0.333,0.333,0.333,1","1,0.333,0.333,0.333,1,0.333,0.333,0.333,1","1",""
"","html-keyboard-response","205","128264","0.0-205.0","3Z2R0DQ0JI0H1RZJL97BT5KUUSKE2Y","A13FUEPWBCLBUY","3PEG1BH7AEDCPKTV9M6N3A4F0EHKBR","","null","<img src=""img/flower3.png"" style=""width:200px; border:14px solid green;"">","null","","","","","","","","",""
"","image-keyboard-response","206","128313","0.0-206.0","3Z2R0DQ0JI0H1RZJL97BT5KUUSKE2Y","A13FUEPWBCLBUY","3PEG1BH7AEDCPKTV9M6N3A4F0EHKBR","","49","img/flower1.png","74","49.39999997615814","1","0","3","1","1,0.333,0.333,0.333,1,0.333,0.333,0.333,1","1,0.333,0.333,0.333,1,0.333,0.333,0.333,1","1",""
"","html-keyboard-response","207","128614","0.0-207.0","3Z2R0DQ0JI0H1RZJL97BT5KUUSKE2Y","A13FUEPWBCLBUY","3PEG1BH7AEDCPKTV9M6N3A4F0EHKBR","","null","<img src=""img/flower1.png"" style=""width:200px;border:14px solid red;"">","null","","","","","","","","",""
"","image-keyboard-response","208","129059","0.0-208.0","3Z2R0DQ0JI0H1RZJL97BT5KUUSKE2Y","A13FUEPWBCLBUY","3PEG1BH7AEDCPKTV9M6N3A4F0EHKBR","","444.0999999642372","img/flower2.png","74","444.80000001192093","1","0","2","1","1,0.333,0.333,0.333,1,0.333,0.333,0.333,1","1,0.333,0.333,0.333,1,0.333,0.333,0.333,1","1",""
"","html-keyboard-response","209","129361","0.0-209.0","3Z2R0DQ0JI0H1RZJL97BT5KUUSKE2Y","A13FUEPWBCLBUY","3PEG1BH7AEDCPKTV9M6N3A4F0EHKBR","","null","<img src=""img/flower2.png"" style=""width:200px;border:14px solid red;"">","null","","","","","","","","",""
"","image-keyboard-response","210","130613","0.0-210.0","3Z2R0DQ0JI0H1RZJL97BT5KUUSKE2Y","A13FUEPWBCLBUY","3PEG1BH7AEDCPKTV9M6N3A4F0EHKBR","","1251.1000000238419","img/flower2.png","74","1251.699999988079","1","0","2","1","1,0.333,0.333,0.333,1,0.333,0.333,0.333,1","1,0.333,0.333,0.333,1,0.333,0.333,0.333,1","1",""
"","html-keyboard-response","211","130915","0.0-211.0","3Z2R0DQ0JI0H1RZJL97BT5KUUSKE2Y","A13FUEPWBCLBUY","3PEG1BH7AEDCPKTV9M6N3A4F0EHKBR","","null","<img src=""img/flower2.png"" style=""width:200px;border:14px solid red;"">","null","","","","","","","","",""
"","image-keyboard-response","212","131724","0.0-212.0","3Z2R0DQ0JI0H1RZJL97BT5KUUSKE2Y","A13FUEPWBCLBUY","3PEG1BH7AEDCPKTV9M6N3A4F0EHKBR","","809.1000000238419","img/flower1.png","74","809.5","1","1","3","1","1,0.333,0.333,0.333,1,0.333,0.333,0.333,1","1,0.333,0.333,0.333,1,0.333,0.333,0.333,1","1",""
"","html-keyboard-response","213","132026","0.0-213.0","3Z2R0DQ0JI0H1RZJL97BT5KUUSKE2Y","A13FUEPWBCLBUY","3PEG1BH7AEDCPKTV9M6N3A4F0EHKBR","","null","<img src=""img/flower1.png"" style=""width:200px; border:14px solid green;"">","null","","","","","","","","",""
"","image-keyboard-response","214","133522","0.0-214.0","3Z2R0DQ0JI0H1RZJL97BT5KUUSKE2Y","A13FUEPWBCLBUY","3PEG1BH7AEDCPKTV9M6N3A4F0EHKBR","","1495.6000000238419","img/flower1.png","75","1496.300000011921","2","1","3","1","1,0.333,0.333,0.333,1,0.333,0.333,0.333,1","1,0.333,0.333,0.333,1,0.333,0.333,0.333,1","1",""
"","html-keyboard-response","215","133824","0.0-215.0","3Z2R0DQ0JI0H1RZJL97BT5KUUSKE2Y","A13FUEPWBCLBUY","3PEG1BH7AEDCPKTV9M6N3A4F0EHKBR","","null","<img src=""img/flower1.png"" style=""width:200px; border:14px solid green;"">","null","","","","","","","","",""
"","image-keyboard-response","216","134200","0.0-216.0","3Z2R0DQ0JI0H1RZJL97BT5KUUSKE2Y","A13FUEPWBCLBUY","3PEG1BH7AEDCPKTV9M6N3A4F0EHKBR","","374.5","img/flower1.png","74","375","1","1","3","1","1,0.333,0.333,0.333,1,0.333,0.333,0.333,1","1,0.333,0.333,0.333,1,0.333,0.333,0.333,1","1",""
"","html-keyboard-response","217","134500","0.0-217.0","3Z2R0DQ0JI0H1RZJL97BT5KUUSKE2Y","A13FUEPWBCLBUY","3PEG1BH7AEDCPKTV9M6N3A4F0EHKBR","","null","<img src=""img/flower1.png"" style=""width:200px; border:14px solid green;"">","null","","","","","","","","",""
"","image-keyboard-response","218","135257","0.0-218.0","3Z2R0DQ0JI0H1RZJL97BT5KUUSKE2Y","A13FUEPWBCLBUY","3PEG1BH7AEDCPKTV9M6N3A4F0EHKBR","","756.3000000119209","img/flower3.png","74","756.8000000119209","1","1","1","1","1,0.333,0.333,0.333,1,0.333,0.333,0.333,1","1,0.333,0.333,0.333,1,0.333,0.333,0.333,1","1",""
"","html-keyboard-response","219","135559","0.0-219.0","3Z2R0DQ0JI0H1RZJL97BT5KUUSKE2Y","A13FUEPWBCLBUY","3PEG1BH7AEDCPKTV9M6N3A4F0EHKBR","","null","<img src=""img/flower3.png"" style=""width:200px; border:14px solid green;"">","null","","","","","","","","",""
"","image-keyboard-response","220","136304","0.0-220.0","3Z2R0DQ0JI0H1RZJL97BT5KUUSKE2Y","A13FUEPWBCLBUY","3PEG1BH7AEDCPKTV9M6N3A4F0EHKBR","","745","img/flower2.png","76","745.6000000238419","3","0","2","1","1,0.333,0.333,0.333,1,0.333,0.333,0.333,1","1,0.333,0.333,0.333,1,0.333,0.333,0.333,1","1",""
"","html-keyboard-response","221","136606","0.0-221.0","3Z2R0DQ0JI0H1RZJL97BT5KUUSKE2Y","A13FUEPWBCLBUY","3PEG1BH7AEDCPKTV9M6N3A4F0EHKBR","","null","<img src=""img/flower2.png"" style=""width:200px;border:14px solid red;"">","null","","","","","","","","",""
"","image-keyboard-response","222","137090","0.0-222.0","3Z2R0DQ0JI0H1RZJL97BT5KUUSKE2Y","A13FUEPWBCLBUY","3PEG1BH7AEDCPKTV9M6N3A4F0EHKBR","","483.19999998807907","img/flower3.png","74","483.9000000357628","1","1","1","1","1,0.333,0.333,0.333,1,0.333,0.333,0.333,1","1,0.333,0.333,0.333,1,0.333,0.333,0.333,1","1",""
"","html-keyboard-response","223","137392","0.0-223.0","3Z2R0DQ0JI0H1RZJL97BT5KUUSKE2Y","A13FUEPWBCLBUY","3PEG1BH7AEDCPKTV9M6N3A4F0EHKBR","","null","<img src=""img/flower3.png"" style=""width:200px; border:14px solid green;"">","null","","","","","","","","",""
"","image-keyboard-response","224","137653","0.0-224.0","3Z2R0DQ0JI0H1RZJL97BT5KUUSKE2Y","A13FUEPWBCLBUY","3PEG1BH7AEDCPKTV9M6N3A4F0EHKBR","","261","img/flower3.png","74","261.5","1","1","1","1","1,0.333,0.333,0.333,1,0.333,0.333,0.333,1","1,0.333,0.333,0.333,1,0.333,0.333,0.333,1","1",""
"","html-keyboard-response","225","137955","0.0-225.0","3Z2R0DQ0JI0H1RZJL97BT5KUUSKE2Y","A13FUEPWBCLBUY","3PEG1BH7AEDCPKTV9M6N3A4F0EHKBR","","null","<img src=""img/flower3.png"" style=""width:200px; border:14px solid green;"">","null","","","","","","","","",""
"","image-keyboard-response","226","138241","0.0-226.0","3Z2R0DQ0JI0H1RZJL97BT5KUUSKE2Y","A13FUEPWBCLBUY","3PEG1BH7AEDCPKTV9M6N3A4F0EHKBR","","286.10000002384186","img/flower3.png","74","286.60000002384186","1","1","1","1","1,0.333,0.333,0.333,1,0.333,0.333,0.333,1","1,0.333,0.333,0.333,1,0.333,0.333,0.333,1","1",""
"","html-keyboard-response","227","138543","0.0-227.0","3Z2R0DQ0JI0H1RZJL97BT5KUUSKE2Y","A13FUEPWBCLBUY","3PEG1BH7AEDCPKTV9M6N3A4F0EHKBR","","null","<img src=""img/flower3.png"" style=""width:200px; border:14px solid green;"">","null","","","","","","","","",""
"","image-keyboard-response","228","138772","0.0-228.0","3Z2R0DQ0JI0H1RZJL97BT5KUUSKE2Y","A13FUEPWBCLBUY","3PEG1BH7AEDCPKTV9M6N3A4F0EHKBR","","228.89999997615814","img/flower2.png","74","229.5","1","0","2","1","1,0.333,0.333,0.333,1,0.333,0.333,0.333,1","1,0.333,0.333,0.333,1,0.333,0.333,0.333,1","1",""
"","html-keyboard-response","229","139074","0.0-229.0","3Z2R0DQ0JI0H1RZJL97BT5KUUSKE2Y","A13FUEPWBCLBUY","3PEG1BH7AEDCPKTV9M6N3A4F0EHKBR","","null","<img src=""img/flower2.png"" style=""width:200px;border:14px solid red;"">","null","","","","","","","","",""
"","image-keyboard-response","230","139513","0.0-230.0","3Z2R0DQ0JI0H1RZJL97BT5KUUSKE2Y","A13FUEPWBCLBUY","3PEG1BH7AEDCPKTV9M6N3A4F0EHKBR","","438.39999997615814","img/flower2.png","74","438.9000000357628","1","0","2","1","1,0.333,0.333,0.333,1,0.333,0.333,0.333,1","1,0.333,0.333,0.333,1,0.333,0.333,0.333,1","1",""
"","html-keyboard-response","231","139816","0.0-231.0","3Z2R0DQ0JI0H1RZJL97BT5KUUSKE2Y","A13FUEPWBCLBUY","3PEG1BH7AEDCPKTV9M6N3A4F0EHKBR","","null","<img src=""img/flower2.png"" style=""width:200px;border:14px solid red;"">","null","","","","","","","","",""
"","image-keyboard-response","232","139974","0.0-232.0","3Z2R0DQ0JI0H1RZJL97BT5KUUSKE2Y","A13FUEPWBCLBUY","3PEG1BH7AEDCPKTV9M6N3A4F0EHKBR","","158","img/flower2.png","75","158.5999999642372","2","1","2","1","1,0.333,0.333,0.333,1,0.333,0.333,0.333,1","1,0.333,0.333,0.333,1,0.333,0.333,0.333,1","1",""
"","html-keyboard-response","233","140277","0.0-233.0","3Z2R0DQ0JI0H1RZJL97BT5KUUSKE2Y","A13FUEPWBCLBUY","3PEG1BH7AEDCPKTV9M6N3A4F0EHKBR","","null","<img src=""img/flower2.png"" style=""width:200px; border:14px solid green;"">","null","","","","","","","","",""
"","image-keyboard-response","234","140501","0.0-234.0","3Z2R0DQ0JI0H1RZJL97BT5KUUSKE2Y","A13FUEPWBCLBUY","3PEG1BH7AEDCPKTV9M6N3A4F0EHKBR","","224","img/flower1.png","75","224.80000001192093","2","1","3","1","1,0.333,0.333,0.333,1,0.333,0.333,0.333,1","1,0.333,0.333,0.333,1,0.333,0.333,0.333,1","1",""
"","html-keyboard-response","235","140803","0.0-235.0","3Z2R0DQ0JI0H1RZJL97BT5KUUSKE2Y","A13FUEPWBCLBUY","3PEG1BH7AEDCPKTV9M6N3A4F0EHKBR","","null","<img src=""img/flower1.png"" style=""width:200px; border:14px solid green;"">","null","","","","","","","","",""
"","image-keyboard-response","236","141055","0.0-236.0","3Z2R0DQ0JI0H1RZJL97BT5KUUSKE2Y","A13FUEPWBCLBUY","3PEG1BH7AEDCPKTV9M6N3A4F0EHKBR","","251.89999997615814","img/flower2.png","75","252.39999997615814","2","1","2","1","1,0.333,0.333,0.333,1,0.333,0.333,0.333,1","1,0.333,0.333,0.333,1,0.333,0.333,0.333,1","1",""
"","html-keyboard-response","237","141357","0.0-237.0","3Z2R0DQ0JI0H1RZJL97BT5KUUSKE2Y","A13FUEPWBCLBUY","3PEG1BH7AEDCPKTV9M6N3A4F0EHKBR","","null","<img src=""img/flower2.png"" style=""width:200px; border:14px solid green;"">","null","","","","","","","","",""
"","image-keyboard-response","238","141701","0.0-238.0","3Z2R0DQ0JI0H1RZJL97BT5KUUSKE2Y","A13FUEPWBCLBUY","3PEG1BH7AEDCPKTV9M6N3A4F0EHKBR","","343.5","img/flower1.png","75","343.9000000357628","2","1","3","1","1,0.333,0.333,0.333,1,0.333,0.333,0.333,1","1,0.333,0.333,0.333,1,0.333,0.333,0.333,1","1",""
"","html-keyboard-response","239","142003","0.0-239.0","3Z2R0DQ0JI0H1RZJL97BT5KUUSKE2Y","A13FUEPWBCLBUY","3PEG1BH7AEDCPKTV9M6N3A4F0EHKBR","","null","<img src=""img/flower1.png"" style=""width:200px; border:14px solid green;"">","null","","","","","","","","",""
"","image-keyboard-response","240","142195","0.0-240.0","3Z2R0DQ0JI0H1RZJL97BT5KUUSKE2Y","A13FUEPWBCLBUY","3PEG1BH7AEDCPKTV9M6N3A4F0EHKBR","","191.5","img/flower2.png","75","192","2","1","2","1","1,0.333,0.333,0.333,1,0.333,0.333,0.333,1","1,0.333,0.333,0.333,1,0.333,0.333,0.333,1","1",""
"","html-keyboard-response","241","142501","0.0-241.0","3Z2R0DQ0JI0H1RZJL97BT5KUUSKE2Y","A13FUEPWBCLBUY","3PEG1BH7AEDCPKTV9M6N3A4F0EHKBR","","null","<img src=""img/flower2.png"" style=""width:200px; border:14px solid green;"">","null","","","","","","","","",""
"","image-keyboard-response","242","142621","0.0-242.0","3Z2R0DQ0JI0H1RZJL97BT5KUUSKE2Y","A13FUEPWBCLBUY","3PEG1BH7AEDCPKTV9M6N3A4F0EHKBR","","119.29999995231628","img/flower2.png","75","119.80000001192093","2","1","2","1","1,0.333,0.333,0.333,1,0.333,0.333,0.333,1","1,0.333,0.333,0.333,1,0.333,0.333,0.333,1","1",""
"","html-keyboard-response","243","142923","0.0-243.0","3Z2R0DQ0JI0H1RZJL97BT5KUUSKE2Y","A13FUEPWBCLBUY","3PEG1BH7AEDCPKTV9M6N3A4F0EHKBR","","null","<img src=""img/flower2.png"" style=""width:200px; border:14px solid green;"">","null","","","","","","","","",""
"","image-keyboard-response","244","143156","0.0-244.0","3Z2R0DQ0JI0H1RZJL97BT5KUUSKE2Y","A13FUEPWBCLBUY","3PEG1BH7AEDCPKTV9M6N3A4F0EHKBR","","232.80000001192093","img/flower1.png","75","233.30000001192093","2","1","3","1","1,0.333,0.333,0.333,1,0.333,0.333,0.333,1","1,0.333,0.333,0.333,1,0.333,0.333,0.333,1","1",""
"","html-keyboard-response","245","143458","0.0-245.0","3Z2R0DQ0JI0H1RZJL97BT5KUUSKE2Y","A13FUEPWBCLBUY","3PEG1BH7AEDCPKTV9M6N3A4F0EHKBR","","null","<img src=""img/flower1.png"" style=""width:200px; border:14px solid green;"">","null","","","","","","","","",""
"","image-keyboard-response","246","143626","0.0-246.0","3Z2R0DQ0JI0H1RZJL97BT5KUUSKE2Y","A13FUEPWBCLBUY","3PEG1BH7AEDCPKTV9M6N3A4F0EHKBR","","168","img/flower2.png","75","168.39999997615814","2","1","2","1","1,0.333,0.333,0.333,1,0.333,0.333,0.333,1","1,0.333,0.333,0.333,1,0.333,0.333,0.333,1","1",""
"","html-keyboard-response","247","143928","0.0-247.0","3Z2R0DQ0JI0H1RZJL97BT5KUUSKE2Y","A13FUEPWBCLBUY","3PEG1BH7AEDCPKTV9M6N3A4F0EHKBR","","null","<img src=""img/flower2.png"" style=""width:200px; border:14px solid green;"">","null","","","","","","","","",""
"","image-keyboard-response","248","144045","0.0-248.0","3Z2R0DQ0JI0H1RZJL97BT5KUUSKE2Y","A13FUEPWBCLBUY","3PEG1BH7AEDCPKTV9M6N3A4F0EHKBR","","117.19999998807907","img/flower2.png","75","117.5","2","1","2","1","1,0.333,0.333,0.333,1,0.333,0.333,0.333,1","1,0.333,0.333,0.333,1,0.333,0.333,0.333,1","1",""
"","html-keyboard-response","249","144347","0.0-249.0","3Z2R0DQ0JI0H1RZJL97BT5KUUSKE2Y","A13FUEPWBCLBUY","3PEG1BH7AEDCPKTV9M6N3A4F0EHKBR","","null","<img src=""img/flower2.png"" style=""width:200px; border:14px solid green;"">","null","","","","","","","","",""
"","image-keyboard-response","250","144513","0.0-250.0","3Z2R0DQ0JI0H1RZJL97BT5KUUSKE2Y","A13FUEPWBCLBUY","3PEG1BH7AEDCPKTV9M6N3A4F0EHKBR","","166.10000002384186","img/flower3.png","75","166.5999999642372","2","0","1","1","1,0.333,0.333,0.333,1,0.333,0.333,0.333,1","1,0.333,0.333,0.333,1,0.333,0.333,0.333,1","1",""
"","html-keyboard-response","251","144814","0.0-251.0","3Z2R0DQ0JI0H1RZJL97BT5KUUSKE2Y","A13FUEPWBCLBUY","3PEG1BH7AEDCPKTV9M6N3A4F0EHKBR","","null","<img src=""img/flower3.png"" style=""width:200px;border:14px solid red;"">","null","","","","","","","","",""
"","image-keyboard-response","252","145012","0.0-252.0","3Z2R0DQ0JI0H1RZJL97BT5KUUSKE2Y","A13FUEPWBCLBUY","3PEG1BH7AEDCPKTV9M6N3A4F0EHKBR","","197.79999995231628","img/flower2.png","75","198.39999997615814","2","1","2","1","1,0.333,0.333,0.333,1,0.333,0.333,0.333,1","1,0.333,0.333,0.333,1,0.333,0.333,0.333,1","1",""
"","html-keyboard-response","253","145315","0.0-253.0","3Z2R0DQ0JI0H1RZJL97BT5KUUSKE2Y","A13FUEPWBCLBUY","3PEG1BH7AEDCPKTV9M6N3A4F0EHKBR","","null","<img src=""img/flower2.png"" style=""width:200px; border:14px solid green;"">","null","","","","","","","","",""
"","image-keyboard-response","254","145403","0.0-254.0","3Z2R0DQ0JI0H1RZJL97BT5KUUSKE2Y","A13FUEPWBCLBUY","3PEG1BH7AEDCPKTV9M6N3A4F0EHKBR","","88","img/flower1.png","75","88.59999996423721","2","1","3","1","1,0.333,0.333,0.333,1,0.333,0.333,0.333,1","1,0.333,0.333,0.333,1,0.333,0.333,0.333,1","1",""
"","html-keyboard-response","255","145705","0.0-255.0","3Z2R0DQ0JI0H1RZJL97BT5KUUSKE2Y","A13FUEPWBCLBUY","3PEG1BH7AEDCPKTV9M6N3A4F0EHKBR","","null","<img src=""img/flower1.png"" style=""width:200px; border:14px solid green;"">","null","","","","","","","","",""
"","image-keyboard-response","256","145762","0.0-256.0","3Z2R0DQ0JI0H1RZJL97BT5KUUSKE2Y","A13FUEPWBCLBUY","3PEG1BH7AEDCPKTV9M6N3A4F0EHKBR","","56.19999998807907","img/flower3.png","75","56.799999952316284","2","1","1","1","1,0.333,0.333,0.333,1,0.333,0.333,0.333,1","1,0.333,0.333,0.333,1,0.333,0.333,0.333,1","1",""
"","html-keyboard-response","257","146066","0.0-257.0","3Z2R0DQ0JI0H1RZJL97BT5KUUSKE2Y","A13FUEPWBCLBUY","3PEG1BH7AEDCPKTV9M6N3A4F0EHKBR","","null","<img src=""img/flower3.png"" style=""width:200px; border:14px solid green;"">","null","","","","","","","","",""
"","image-keyboard-response","258","146124","0.0-258.0","3Z2R0DQ0JI0H1RZJL97BT5KUUSKE2Y","A13FUEPWBCLBUY","3PEG1BH7AEDCPKTV9M6N3A4F0EHKBR","","57.69999998807907","img/flower3.png","75","58.10000002384186","2","1","1","1","1,0.333,0.333,0.333,1,0.333,0.333,0.333,1","1,0.333,0.333,0.333,1,0.333,0.333,0.333,1","1",""
"","html-keyboard-response","259","146426","0.0-259.0","3Z2R0DQ0JI0H1RZJL97BT5KUUSKE2Y","A13FUEPWBCLBUY","3PEG1BH7AEDCPKTV9M6N3A4F0EHKBR","","null","<img src=""img/flower3.png"" style=""width:200px; border:14px solid green;"">","null","","","","","","","","",""
"","image-keyboard-response","260","146525","0.0-260.0","3Z2R0DQ0JI0H1RZJL97BT5KUUSKE2Y","A13FUEPWBCLBUY","3PEG1BH7AEDCPKTV9M6N3A4F0EHKBR","","98.19999998807907","img/flower2.png","75","99","2","1","2","1","1,0.333,0.333,0.333,1,0.333,0.333,0.333,1","1,0.333,0.333,0.333,1,0.333,0.333,0.333,1","1",""
"","html-keyboard-response","261","146826","0.0-261.0","3Z2R0DQ0JI0H1RZJL97BT5KUUSKE2Y","A13FUEPWBCLBUY","3PEG1BH7AEDCPKTV9M6N3A4F0EHKBR","","null","<img src=""img/flower2.png"" style=""width:200px; border:14px solid green;"">","null","","","","","","","","",""
"","image-keyboard-response","262","146942","0.0-262.0","3Z2R0DQ0JI0H1RZJL97BT5KUUSKE2Y","A13FUEPWBCLBUY","3PEG1BH7AEDCPKTV9M6N3A4F0EHKBR","","115.19999998807907","img/flower1.png","75","115.69999998807907","2","0","3","1","1,0.333,0.333,0.333,1,0.333,0.333,0.333,1","1,0.333,0.333,0.333,1,0.333,0.333,0.333,1","1",""
"","html-keyboard-response","263","147244","0.0-263.0","3Z2R0DQ0JI0H1RZJL97BT5KUUSKE2Y","A13FUEPWBCLBUY","3PEG1BH7AEDCPKTV9M6N3A4F0EHKBR","","null","<img src=""img/flower1.png"" style=""width:200px;border:14px solid red;"">","null","","","","","","","","",""
"","image-keyboard-response","264","147775","0.0-264.0","3Z2R0DQ0JI0H1RZJL97BT5KUUSKE2Y","A13FUEPWBCLBUY","3PEG1BH7AEDCPKTV9M6N3A4F0EHKBR","","530.6000000238419","img/flower3.png","75","531.2999999523163","2","1","1","1","1,0.333,0.333,0.333,1,0.333,0.333,0.333,1","1,0.333,0.333,0.333,1,0.333,0.333,0.333,1","1",""
"","html-keyboard-response","265","148078","0.0-265.0","3Z2R0DQ0JI0H1RZJL97BT5KUUSKE2Y","A13FUEPWBCLBUY","3PEG1BH7AEDCPKTV9M6N3A4F0EHKBR","","null","<img src=""img/flower3.png"" style=""width:200px; border:14px solid green;"">","null","","","","","","","","",""
"","image-keyboard-response","266","148298","0.0-266.0","3Z2R0DQ0JI0H1RZJL97BT5KUUSKE2Y","A13FUEPWBCLBUY","3PEG1BH7AEDCPKTV9M6N3A4F0EHKBR","","220.19999998807907","img/flower3.png","75","220.5999999642372","2","0","1","1","1,0.333,0.333,0.333,1,0.333,0.333,0.333,1","1,0.333,0.333,0.333,1,0.333,0.333,0.333,1","1",""
"","html-keyboard-response","267","148600","0.0-267.0","3Z2R0DQ0JI0H1RZJL97BT5KUUSKE2Y","A13FUEPWBCLBUY","3PEG1BH7AEDCPKTV9M6N3A4F0EHKBR","","null","<img src=""img/flower3.png"" style=""width:200px;border:14px solid red;"">","null","","","","","","","","",""
"","image-keyboard-response","268","149105","0.0-268.0","3Z2R0DQ0JI0H1RZJL97BT5KUUSKE2Y","A13FUEPWBCLBUY","3PEG1BH7AEDCPKTV9M6N3A4F0EHKBR","","504.10000002384186","img/flower2.png","75","504.69999998807907","2","1","2","1","1,0.333,0.333,0.333,1,0.333,0.333,0.333,1","1,0.333,0.333,0.333,1,0.333,0.333,0.333,1","1",""
"","html-keyboard-response","269","149407","0.0-269.0","3Z2R0DQ0JI0H1RZJL97BT5KUUSKE2Y","A13FUEPWBCLBUY","3PEG1BH7AEDCPKTV9M6N3A4F0EHKBR","","null","<img src=""img/flower2.png"" style=""width:200px; border:14px solid green;"">","null","","","","","","","","",""
"","image-keyboard-response","270","149650","0.0-270.0","3Z2R0DQ0JI0H1RZJL97BT5KUUSKE2Y","A13FUEPWBCLBUY","3PEG1BH7AEDCPKTV9M6N3A4F0EHKBR","","242.5","img/flower2.png","75","242.89999997615814","2","1","2","1","1,0.333,0.333,0.333,1,0.333,0.333,0.333,1","1,0.333,0.333,0.333,1,0.333,0.333,0.333,1","1",""
"","html-keyboard-response","271","149953","0.0-271.0","3Z2R0DQ0JI0H1RZJL97BT5KUUSKE2Y","A13FUEPWBCLBUY","3PEG1BH7AEDCPKTV9M6N3A4F0EHKBR","","null","<img src=""img/flower2.png"" style=""width:200px; border:14px solid green;"">","null","","","","","","","","",""
"","image-keyboard-response","272","150213","0.0-272.0","3Z2R0DQ0JI0H1RZJL97BT5KUUSKE2Y","A13FUEPWBCLBUY","3PEG1BH7AEDCPKTV9M6N3A4F0EHKBR","","259.30000001192093","img/flower2.png","75","259.89999997615814","2","1","2","1","1,0.333,0.333,0.333,1,0.333,0.333,0.333,1","1,0.333,0.333,0.333,1,0.333,0.333,0.333,1","1",""
"","html-keyboard-response","273","150515","0.0-273.0","3Z2R0DQ0JI0H1RZJL97BT5KUUSKE2Y","A13FUEPWBCLBUY","3PEG1BH7AEDCPKTV9M6N3A4F0EHKBR","","null","<img src=""img/flower2.png"" style=""width:200px; border:14px solid green;"">","null","","","","","","","","",""
"","image-keyboard-response","274","150781","0.0-274.0","3Z2R0DQ0JI0H1RZJL97BT5KUUSKE2Y","A13FUEPWBCLBUY","3PEG1BH7AEDCPKTV9M6N3A4F0EHKBR","","264.7000000476837","img/flower2.png","75","265.0999999642372","2","1","2","1","1,0.333,0.333,0.333,1,0.333,0.333,0.333,1","1,0.333,0.333,0.333,1,0.333,0.333,0.333,1","1",""
"","html-keyboard-response","275","151082","0.0-275.0","3Z2R0DQ0JI0H1RZJL97BT5KUUSKE2Y","A13FUEPWBCLBUY","3PEG1BH7AEDCPKTV9M6N3A4F0EHKBR","","null","<img src=""img/flower2.png"" style=""width:200px; border:14px solid green;"">","null","","","","","","","","",""
"","image-keyboard-response","276","151327","0.0-276.0","3Z2R0DQ0JI0H1RZJL97BT5KUUSKE2Y","A13FUEPWBCLBUY","3PEG1BH7AEDCPKTV9M6N3A4F0EHKBR","","243.89999997615814","img/flower2.png","75","244.5","2","1","2","1","1,0.333,0.333,0.333,1,0.333,0.333,0.333,1","1,0.333,0.333,0.333,1,0.333,0.333,0.333,1","1",""
"","html-keyboard-response","277","151629","0.0-277.0","3Z2R0DQ0JI0H1RZJL97BT5KUUSKE2Y","A13FUEPWBCLBUY","3PEG1BH7AEDCPKTV9M6N3A4F0EHKBR","","null","<img src=""img/flower2.png"" style=""width:200px; border:14px solid green;"">","null","","","","","","","","",""
"","image-keyboard-response","278","151808","0.0-278.0","3Z2R0DQ0JI0H1RZJL97BT5KUUSKE2Y","A13FUEPWBCLBUY","3PEG1BH7AEDCPKTV9M6N3A4F0EHKBR","","178.20000004768372","img/flower3.png","75","178.5999999642372","2","1","1","1","1,0.333,0.333,0.333,1,0.333,0.333,0.333,1","1,0.333,0.333,0.333,1,0.333,0.333,0.333,1","1",""
"","html-keyboard-response","279","152110","0.0-279.0","3Z2R0DQ0JI0H1RZJL97BT5KUUSKE2Y","A13FUEPWBCLBUY","3PEG1BH7AEDCPKTV9M6N3A4F0EHKBR","","null","<img src=""img/flower3.png"" style=""width:200px; border:14px solid green;"">","null","","","","","","","","",""
"","image-keyboard-response","280","152655","0.0-280.0","3Z2R0DQ0JI0H1RZJL97BT5KUUSKE2Y","A13FUEPWBCLBUY","3PEG1BH7AEDCPKTV9M6N3A4F0EHKBR","","544.5","img/flower2.png","75","545","2","1","2","1","1,0.333,0.333,0.333,1,0.333,0.333,0.333,1","1,0.333,0.333,0.333,1,0.333,0.333,0.333,1","1",""
"","html-keyboard-response","281","152957","0.0-281.0","3Z2R0DQ0JI0H1RZJL97BT5KUUSKE2Y","A13FUEPWBCLBUY","3PEG1BH7AEDCPKTV9M6N3A4F0EHKBR","","null","<img src=""img/flower2.png"" style=""width:200px; border:14px solid green;"">","null","","","","","","","","",""
"","image-keyboard-response","282","153479","0.0-282.0","3Z2R0DQ0JI0H1RZJL97BT5KUUSKE2Y","A13FUEPWBCLBUY","3PEG1BH7AEDCPKTV9M6N3A4F0EHKBR","","521.8000000119209","img/flower1.png","76","522.2999999523163","3","1","3","1","1,0.333,0.333,0.333,1,0.333,0.333,0.333,1","1,0.333,0.333,0.333,1,0.333,0.333,0.333,1","1",""
"","html-keyboard-response","283","153781","0.0-283.0","3Z2R0DQ0JI0H1RZJL97BT5KUUSKE2Y","A13FUEPWBCLBUY","3PEG1BH7AEDCPKTV9M6N3A4F0EHKBR","","null","<img src=""img/flower1.png"" style=""width:200px; border:14px solid green;"">","null","","","","","","","","",""
"","image-keyboard-response","284","154028","0.0-284.0","3Z2R0DQ0JI0H1RZJL97BT5KUUSKE2Y","A13FUEPWBCLBUY","3PEG1BH7AEDCPKTV9M6N3A4F0EHKBR","","245.89999997615814","img/flower3.png","75","246.39999997615814","2","0","1","1","1,0.333,0.333,0.333,1,0.333,0.333,0.333,1","1,0.333,0.333,0.333,1,0.333,0.333,0.333,1","1",""
"","html-keyboard-response","285","154330","0.0-285.0","3Z2R0DQ0JI0H1RZJL97BT5KUUSKE2Y","A13FUEPWBCLBUY","3PEG1BH7AEDCPKTV9M6N3A4F0EHKBR","","null","<img src=""img/flower3.png"" style=""width:200px;border:14px solid red;"">","null","","","","","","","","",""
"","image-keyboard-response","286","155146","0.0-286.0","3Z2R0DQ0JI0H1RZJL97BT5KUUSKE2Y","A13FUEPWBCLBUY","3PEG1BH7AEDCPKTV9M6N3A4F0EHKBR","","815.8000000119209","img/flower3.png","75","816.3000000119209","2","0","1","1","1,0.333,0.333,0.333,1,0.333,0.333,0.333,1","1,0.333,0.333,0.333,1,0.333,0.333,0.333,1","1",""
"","html-keyboard-response","287","155448","0.0-287.0","3Z2R0DQ0JI0H1RZJL97BT5KUUSKE2Y","A13FUEPWBCLBUY","3PEG1BH7AEDCPKTV9M6N3A4F0EHKBR","","null","<img src=""img/flower3.png"" style=""width:200px;border:14px solid red;"">","null","","","","","","","","",""
"","image-keyboard-response","288","156394","0.0-288.0","3Z2R0DQ0JI0H1RZJL97BT5KUUSKE2Y","A13FUEPWBCLBUY","3PEG1BH7AEDCPKTV9M6N3A4F0EHKBR","","944.7000000476837","img/flower1.png","76","945.3999999761581","3","1","3","1","1,0.333,0.333,0.333,1,0.333,0.333,0.333,1","1,0.333,0.333,0.333,1,0.333,0.333,0.333,1","1",""
"","html-keyboard-response","289","156695","0.0-289.0","3Z2R0DQ0JI0H1RZJL97BT5KUUSKE2Y","A13FUEPWBCLBUY","3PEG1BH7AEDCPKTV9M6N3A4F0EHKBR","","null","<img src=""img/flower1.png"" style=""width:200px; border:14px solid green;"">","null","","","","","","","","",""
"","image-keyboard-response","290","156932","0.0-290.0","3Z2R0DQ0JI0H1RZJL97BT5KUUSKE2Y","A13FUEPWBCLBUY","3PEG1BH7AEDCPKTV9M6N3A4F0EHKBR","","236","img/flower3.png","76","236.69999998807907","3","0","1","1","1,0.333,0.333,0.333,1,0.333,0.333,0.333,1","1,0.333,0.333,0.333,1,0.333,0.333,0.333,1","1",""
"","html-keyboard-response","291","157235","0.0-291.0","3Z2R0DQ0JI0H1RZJL97BT5KUUSKE2Y","A13FUEPWBCLBUY","3PEG1BH7AEDCPKTV9M6N3A4F0EHKBR","","null","<img src=""img/flower3.png"" style=""width:200px;border:14px solid red;"">","null","","","","","","","","",""
"","image-keyboard-response","292","157721","0.0-292.0","3Z2R0DQ0JI0H1RZJL97BT5KUUSKE2Y","A13FUEPWBCLBUY","3PEG1BH7AEDCPKTV9M6N3A4F0EHKBR","","486","img/flower2.png","75","486.5999999642372","2","1","2","1","1,0.333,0.333,0.333,1,0.333,0.333,0.333,1","1,0.333,0.333,0.333,1,0.333,0.333,0.333,1","1",""
"","html-keyboard-response","293","158024","0.0-293.0","3Z2R0DQ0JI0H1RZJL97BT5KUUSKE2Y","A13FUEPWBCLBUY","3PEG1BH7AEDCPKTV9M6N3A4F0EHKBR","","null","<img src=""img/flower2.png"" style=""width:200px; border:14px solid green;"">","null","","","","","","","","",""
"","image-keyboard-response","294","158246","0.0-294.0","3Z2R0DQ0JI0H1RZJL97BT5KUUSKE2Y","A13FUEPWBCLBUY","3PEG1BH7AEDCPKTV9M6N3A4F0EHKBR","","221.30000001192093","img/flower1.png","75","221.9000000357628","2","0","3","1","1,0.333,0.333,0.333,1,0.333,0.333,0.333,1","1,0.333,0.333,0.333,1,0.333,0.333,0.333,1","1",""
"","html-keyboard-response","295","158547","0.0-295.0","3Z2R0DQ0JI0H1RZJL97BT5KUUSKE2Y","A13FUEPWBCLBUY","3PEG1BH7AEDCPKTV9M6N3A4F0EHKBR","","null","<img src=""img/flower1.png"" style=""width:200px;border:14px solid red;"">","null","","","","","","","","",""
"","image-keyboard-response","296","159144","0.0-296.0","3Z2R0DQ0JI0H1RZJL97BT5KUUSKE2Y","A13FUEPWBCLBUY","3PEG1BH7AEDCPKTV9M6N3A4F0EHKBR","","596.7000000476837","img/flower2.png","75","597.3000000119209","2","1","2","1","1,0.333,0.333,0.333,1,0.333,0.333,0.333,1","1,0.333,0.333,0.333,1,0.333,0.333,0.333,1","1",""
"","html-keyboard-response","297","159446","0.0-297.0","3Z2R0DQ0JI0H1RZJL97BT5KUUSKE2Y","A13FUEPWBCLBUY","3PEG1BH7AEDCPKTV9M6N3A4F0EHKBR","","null","<img src=""img/flower2.png"" style=""width:200px; border:14px solid green;"">","null","","","","","","","","",""
"","image-keyboard-response","298","159949","0.0-298.0","3Z2R0DQ0JI0H1RZJL97BT5KUUSKE2Y","A13FUEPWBCLBUY","3PEG1BH7AEDCPKTV9M6N3A4F0EHKBR","","502.2000000476837","img/flower1.png","74","502.9000000357628","1","1","3","1","1,0.333,0.333,0.333,1,0.333,0.333,0.333,1","1,0.333,0.333,0.333,1,0.333,0.333,0.333,1","1",""
"","html-keyboard-response","299","160251","0.0-299.0","3Z2R0DQ0JI0H1RZJL97BT5KUUSKE2Y","A13FUEPWBCLBUY","3PEG1BH7AEDCPKTV9M6N3A4F0EHKBR","","null","<img src=""img/flower1.png"" style=""width:200px; border:14px solid green;"">","null","","","","","","","","",""
"","image-keyboard-response","300","160495","0.0-300.0","3Z2R0DQ0JI0H1RZJL97BT5KUUSKE2Y","A13FUEPWBCLBUY","3PEG1BH7AEDCPKTV9M6N3A4F0EHKBR","","243.39999997615814","img/flower2.png","75","243.89999997615814","2","1","2","1","1,0.333,0.333,0.333,1,0.333,0.333,0.333,1","1,0.333,0.333,0.333,1,0.333,0.333,0.333,1","1",""
"","html-keyboard-response","301","160796","0.0-301.0","3Z2R0DQ0JI0H1RZJL97BT5KUUSKE2Y","A13FUEPWBCLBUY","3PEG1BH7AEDCPKTV9M6N3A4F0EHKBR","","null","<img src=""img/flower2.png"" style=""width:200px; border:14px solid green;"">","null","","","","","","","","",""
"","image-keyboard-response","302","161034","0.0-302.0","3Z2R0DQ0JI0H1RZJL97BT5KUUSKE2Y","A13FUEPWBCLBUY","3PEG1BH7AEDCPKTV9M6N3A4F0EHKBR","","237.30000001192093","img/flower1.png","75","237.80000001192093","2","1","3","1","1,0.333,0.333,0.333,1,0.333,0.333,0.333,1","1,0.333,0.333,0.333,1,0.333,0.333,0.333,1","1",""
"","html-keyboard-response","303","161336","0.0-303.0","3Z2R0DQ0JI0H1RZJL97BT5KUUSKE2Y","A13FUEPWBCLBUY","3PEG1BH7AEDCPKTV9M6N3A4F0EHKBR","","null","<img src=""img/flower1.png"" style=""width:200px; border:14px solid green;"">","null","","","","","","","","",""
"","image-keyboard-response","304","161823","0.0-304.0","3Z2R0DQ0JI0H1RZJL97BT5KUUSKE2Y","A13FUEPWBCLBUY","3PEG1BH7AEDCPKTV9M6N3A4F0EHKBR","","486.4000000357628","img/flower3.png","75","486.89999997615814","2","1","1","1","1,0.333,0.333,0.333,1,0.333,0.333,0.333,1","1,0.333,0.333,0.333,1,0.333,0.333,0.333,1","1",""
"","html-keyboard-response","305","162126","0.0-305.0","3Z2R0DQ0JI0H1RZJL97BT5KUUSKE2Y","A13FUEPWBCLBUY","3PEG1BH7AEDCPKTV9M6N3A4F0EHKBR","","null","<img src=""img/flower3.png"" style=""width:200px; border:14px solid green;"">","null","","","","","","","","",""
"","image-keyboard-response","306","162408","0.0-306.0","3Z2R0DQ0JI0H1RZJL97BT5KUUSKE2Y","A13FUEPWBCLBUY","3PEG1BH7AEDCPKTV9M6N3A4F0EHKBR","","281.89999997615814","img/flower3.png","75","282.5","2","0","1","1","1,0.333,0.333,0.333,1,0.333,0.333,0.333,1","1,0.333,0.333,0.333,1,0.333,0.333,0.333,1","1",""
"","html-keyboard-response","307","162709","0.0-307.0","3Z2R0DQ0JI0H1RZJL97BT5KUUSKE2Y","A13FUEPWBCLBUY","3PEG1BH7AEDCPKTV9M6N3A4F0EHKBR","","null","<img src=""img/flower3.png"" style=""width:200px;border:14px solid red;"">","null","","","","","","","","",""
"","image-keyboard-response","308","163227","0.0-308.0","3Z2R0DQ0JI0H1RZJL97BT5KUUSKE2Y","A13FUEPWBCLBUY","3PEG1BH7AEDCPKTV9M6N3A4F0EHKBR","","517.3999999761581","img/flower2.png","75","518","2","1","2","1","1,0.333,0.333,0.333,1,0.333,0.333,0.333,1","1,0.333,0.333,0.333,1,0.333,0.333,0.333,1","1",""
"","html-keyboard-response","309","163530","0.0-309.0","3Z2R0DQ0JI0H1RZJL97BT5KUUSKE2Y","A13FUEPWBCLBUY","3PEG1BH7AEDCPKTV9M6N3A4F0EHKBR","","null","<img src=""img/flower2.png"" style=""width:200px; border:14px solid green;"">","null","","","","","","","","",""
"","image-keyboard-response","310","163697","0.0-310.0","3Z2R0DQ0JI0H1RZJL97BT5KUUSKE2Y","A13FUEPWBCLBUY","3PEG1BH7AEDCPKTV9M6N3A4F0EHKBR","","166.9000000357628","img/flower3.png","75","167.5","2","0","1","1","1,0.333,0.333,0.333,1,0.333,0.333,0.333,1","1,0.333,0.333,0.333,1,0.333,0.333,0.333,1","1",""
"","html-keyboard-response","311","163999","0.0-311.0","3Z2R0DQ0JI0H1RZJL97BT5KUUSKE2Y","A13FUEPWBCLBUY","3PEG1BH7AEDCPKTV9M6N3A4F0EHKBR","","null","<img src=""img/flower3.png"" style=""width:200px;border:14px solid red;"">","null","","","","","","","","",""
"","image-keyboard-response","312","164476","0.0-312.0","3Z2R0DQ0JI0H1RZJL97BT5KUUSKE2Y","A13FUEPWBCLBUY","3PEG1BH7AEDCPKTV9M6N3A4F0EHKBR","","476.10000002384186","img/flower1.png","75","476.60000002384186","2","0","3","1","1,0.333,0.333,0.333,1,0.333,0.333,0.333,1","1,0.333,0.333,0.333,1,0.333,0.333,0.333,1","1",""
"","html-keyboard-response","313","164777","0.0-313.0","3Z2R0DQ0JI0H1RZJL97BT5KUUSKE2Y","A13FUEPWBCLBUY","3PEG1BH7AEDCPKTV9M6N3A4F0EHKBR","","null","<img src=""img/flower1.png"" style=""width:200px;border:14px solid red;"">","null","","","","","","","","",""
"","image-keyboard-response","314","165046","0.0-314.0","3Z2R0DQ0JI0H1RZJL97BT5KUUSKE2Y","A13FUEPWBCLBUY","3PEG1BH7AEDCPKTV9M6N3A4F0EHKBR","","268.2999999523163","img/flower2.png","75","268.9000000357628","2","1","2","1","1,0.333,0.333,0.333,1,0.333,0.333,0.333,1","1,0.333,0.333,0.333,1,0.333,0.333,0.333,1","1",""
"","html-keyboard-response","315","165347","0.0-315.0","3Z2R0DQ0JI0H1RZJL97BT5KUUSKE2Y","A13FUEPWBCLBUY","3PEG1BH7AEDCPKTV9M6N3A4F0EHKBR","","null","<img src=""img/flower2.png"" style=""width:200px; border:14px solid green;"">","null","","","","","","","","",""
"","image-keyboard-response","316","165929","0.0-316.0","3Z2R0DQ0JI0H1RZJL97BT5KUUSKE2Y","A13FUEPWBCLBUY","3PEG1BH7AEDCPKTV9M6N3A4F0EHKBR","","581.3000000119209","img/flower1.png","75","581.8000000119209","2","0","3","1","1,0.333,0.333,0.333,1,0.333,0.333,0.333,1","1,0.333,0.333,0.333,1,0.333,0.333,0.333,1","1",""
"","html-keyboard-response","317","166232","0.0-317.0","3Z2R0DQ0JI0H1RZJL97BT5KUUSKE2Y","A13FUEPWBCLBUY","3PEG1BH7AEDCPKTV9M6N3A4F0EHKBR","","null","<img src=""img/flower1.png"" style=""width:200px;border:14px solid red;"">","null","","","","","","","","",""
"","image-keyboard-response","318","166582","0.0-318.0","3Z2R0DQ0JI0H1RZJL97BT5KUUSKE2Y","A13FUEPWBCLBUY","3PEG1BH7AEDCPKTV9M6N3A4F0EHKBR","","350","img/flower2.png","75","350.5999999642372","2","1","2","1","1,0.333,0.333,0.333,1,0.333,0.333,0.333,1","1,0.333,0.333,0.333,1,0.333,0.333,0.333,1","1",""
"","html-keyboard-response","319","166884","0.0-319.0","3Z2R0DQ0JI0H1RZJL97BT5KUUSKE2Y","A13FUEPWBCLBUY","3PEG1BH7AEDCPKTV9M6N3A4F0EHKBR","","null","<img src=""img/flower2.png"" style=""width:200px; border:14px solid green;"">","null","","","","","","","","",""
"","image-keyboard-response","320","167304","0.0-320.0","3Z2R0DQ0JI0H1RZJL97BT5KUUSKE2Y","A13FUEPWBCLBUY","3PEG1BH7AEDCPKTV9M6N3A4F0EHKBR","","420","img/flower1.png","75","420.60000002384186","2","0","3","1","1,0.333,0.333,0.333,1,0.333,0.333,0.333,1","1,0.333,0.333,0.333,1,0.333,0.333,0.333,1","1",""
"","html-keyboard-response","321","167613","0.0-321.0","3Z2R0DQ0JI0H1RZJL97BT5KUUSKE2Y","A13FUEPWBCLBUY","3PEG1BH7AEDCPKTV9M6N3A4F0EHKBR","","null","<img src=""img/flower1.png"" style=""width:200px;border:14px solid red;"">","null","","","","","","","","",""
"","image-keyboard-response","322","168167","0.0-322.0","3Z2R0DQ0JI0H1RZJL97BT5KUUSKE2Y","A13FUEPWBCLBUY","3PEG1BH7AEDCPKTV9M6N3A4F0EHKBR","","553.3000000119209","img/flower1.png","74","554","1","0","3","1","1,0.333,0.333,0.333,1,0.333,0.333,0.333,1","1,0.333,0.333,0.333,1,0.333,0.333,0.333,1","1",""
"","html-keyboard-response","323","168469","0.0-323.0","3Z2R0DQ0JI0H1RZJL97BT5KUUSKE2Y","A13FUEPWBCLBUY","3PEG1BH7AEDCPKTV9M6N3A4F0EHKBR","","null","<img src=""img/flower1.png"" style=""width:200px;border:14px solid red;"">","null","","","","","","","","",""
"","image-keyboard-response","324","169539","0.0-324.0","3Z2R0DQ0JI0H1RZJL97BT5KUUSKE2Y","A13FUEPWBCLBUY","3PEG1BH7AEDCPKTV9M6N3A4F0EHKBR","","1069.699999988079","img/flower3.png","74","1070.300000011921","1","1","1","1","1,0.333,0.333,0.333,1,0.333,0.333,0.333,1","1,0.333,0.333,0.333,1,0.333,0.333,0.333,1","1",""
"","html-keyboard-response","325","169841","0.0-325.0","3Z2R0DQ0JI0H1RZJL97BT5KUUSKE2Y","A13FUEPWBCLBUY","3PEG1BH7AEDCPKTV9M6N3A4F0EHKBR","","null","<img src=""img/flower3.png"" style=""width:200px; border:14px solid green;"">","null","","","","","","","","",""
"","image-keyboard-response","326","170810","0.0-326.0","3Z2R0DQ0JI0H1RZJL97BT5KUUSKE2Y","A13FUEPWBCLBUY","3PEG1BH7AEDCPKTV9M6N3A4F0EHKBR","","968.3000000119209","img/flower1.png","76","968.8000000119209","3","1","3","1","1,0.333,0.333,0.333,1,0.333,0.333,0.333,1","1,0.333,0.333,0.333,1,0.333,0.333,0.333,1","1",""
"","html-keyboard-response","327","171110","0.0-327.0","3Z2R0DQ0JI0H1RZJL97BT5KUUSKE2Y","A13FUEPWBCLBUY","3PEG1BH7AEDCPKTV9M6N3A4F0EHKBR","","null","<img src=""img/flower1.png"" style=""width:200px; border:14px solid green;"">","null","","","","","","","","",""
"","image-keyboard-response","328","171476","0.0-328.0","3Z2R0DQ0JI0H1RZJL97BT5KUUSKE2Y","A13FUEPWBCLBUY","3PEG1BH7AEDCPKTV9M6N3A4F0EHKBR","","365.39999997615814","img/flower1.png","76","365.80000001192093","3","1","3","1","1,0.333,0.333,0.333,1,0.333,0.333,0.333,1","1,0.333,0.333,0.333,1,0.333,0.333,0.333,1","1",""
"","html-keyboard-response","329","171778","0.0-329.0","3Z2R0DQ0JI0H1RZJL97BT5KUUSKE2Y","A13FUEPWBCLBUY","3PEG1BH7AEDCPKTV9M6N3A4F0EHKBR","","null","<img src=""img/flower1.png"" style=""width:200px; border:14px solid green;"">","null","","","","","","","","",""
"","image-keyboard-response","330","172336","0.0-330.0","3Z2R0DQ0JI0H1RZJL97BT5KUUSKE2Y","A13FUEPWBCLBUY","3PEG1BH7AEDCPKTV9M6N3A4F0EHKBR","","557.6999999880791","img/flower2.png","75","558.1999999880791","2","1","2","1","1,0.333,0.333,0.333,1,0.333,0.333,0.333,1","1,0.333,0.333,0.333,1,0.333,0.333,0.333,1","1",""
"","html-keyboard-response","331","172638","0.0-331.0","3Z2R0DQ0JI0H1RZJL97BT5KUUSKE2Y","A13FUEPWBCLBUY","3PEG1BH7AEDCPKTV9M6N3A4F0EHKBR","","null","<img src=""img/flower2.png"" style=""width:200px; border:14px solid green;"">","null","","","","","","","","",""
"","image-keyboard-response","332","173182","0.0-332.0","3Z2R0DQ0JI0H1RZJL97BT5KUUSKE2Y","A13FUEPWBCLBUY","3PEG1BH7AEDCPKTV9M6N3A4F0EHKBR","","543.8999999761581","img/flower1.png","76","544.4000000357628","3","1","3","1","1,0.333,0.333,0.333,1,0.333,0.333,0.333,1","1,0.333,0.333,0.333,1,0.333,0.333,0.333,1","1",""
"","html-keyboard-response","333","173484","0.0-333.0","3Z2R0DQ0JI0H1RZJL97BT5KUUSKE2Y","A13FUEPWBCLBUY","3PEG1BH7AEDCPKTV9M6N3A4F0EHKBR","","null","<img src=""img/flower1.png"" style=""width:200px; border:14px solid green;"">","null","","","","","","","","",""
"","image-keyboard-response","334","174233","0.0-334.0","3Z2R0DQ0JI0H1RZJL97BT5KUUSKE2Y","A13FUEPWBCLBUY","3PEG1BH7AEDCPKTV9M6N3A4F0EHKBR","","748.8999999761581","img/flower3.png","74","749.3000000119209","1","1","1","1","1,0.333,0.333,0.333,1,0.333,0.333,0.333,1","1,0.333,0.333,0.333,1,0.333,0.333,0.333,1","1",""
"","html-keyboard-response","335","174535","0.0-335.0","3Z2R0DQ0JI0H1RZJL97BT5KUUSKE2Y","A13FUEPWBCLBUY","3PEG1BH7AEDCPKTV9M6N3A4F0EHKBR","","null","<img src=""img/flower3.png"" style=""width:200px; border:14px solid green;"">","null","","","","","","","","",""
"","image-keyboard-response","336","174920","0.0-336.0","3Z2R0DQ0JI0H1RZJL97BT5KUUSKE2Y","A13FUEPWBCLBUY","3PEG1BH7AEDCPKTV9M6N3A4F0EHKBR","","384.80000001192093","img/flower3.png","74","385.5","1","1","1","1","1,0.333,0.333,0.333,1,0.333,0.333,0.333,1","1,0.333,0.333,0.333,1,0.333,0.333,0.333,1","1",""
"","html-keyboard-response","337","175223","0.0-337.0","3Z2R0DQ0JI0H1RZJL97BT5KUUSKE2Y","A13FUEPWBCLBUY","3PEG1BH7AEDCPKTV9M6N3A4F0EHKBR","","null","<img src=""img/flower3.png"" style=""width:200px; border:14px solid green;"">","null","","","","","","","","",""
"","image-keyboard-response","338","175550","0.0-338.0","3Z2R0DQ0JI0H1RZJL97BT5KUUSKE2Y","A13FUEPWBCLBUY","3PEG1BH7AEDCPKTV9M6N3A4F0EHKBR","","327","img/flower3.png","74","327.5","1","1","1","1","1,0.333,0.333,0.333,1,0.333,0.333,0.333,1","1,0.333,0.333,0.333,1,0.333,0.333,0.333,1","1",""
"","html-keyboard-response","339","175861","0.0-339.0","3Z2R0DQ0JI0H1RZJL97BT5KUUSKE2Y","A13FUEPWBCLBUY","3PEG1BH7AEDCPKTV9M6N3A4F0EHKBR","","null","<img src=""img/flower3.png"" style=""width:200px; border:14px solid green;"">","null","","","","","","","","",""
"","image-keyboard-response","340","176144","0.0-340.0","3Z2R0DQ0JI0H1RZJL97BT5KUUSKE2Y","A13FUEPWBCLBUY","3PEG1BH7AEDCPKTV9M6N3A4F0EHKBR","","282.80000001192093","img/flower3.png","74","283.30000001192093","1","1","1","1","1,0.333,0.333,0.333,1,0.333,0.333,0.333,1","1,0.333,0.333,0.333,1,0.333,0.333,0.333,1","1",""
"","html-keyboard-response","341","176447","0.0-341.0","3Z2R0DQ0JI0H1RZJL97BT5KUUSKE2Y","A13FUEPWBCLBUY","3PEG1BH7AEDCPKTV9M6N3A4F0EHKBR","","null","<img src=""img/flower3.png"" style=""width:200px; border:14px solid green;"">","null","","","","","","","","",""
"","image-keyboard-response","342","177058","0.0-342.0","3Z2R0DQ0JI0H1RZJL97BT5KUUSKE2Y","A13FUEPWBCLBUY","3PEG1BH7AEDCPKTV9M6N3A4F0EHKBR","","610.3000000119209","img/flower2.png","75","611.1000000238419","2","1","2","1","1,0.333,0.333,0.333,1,0.333,0.333,0.333,1","1,0.333,0.333,0.333,1,0.333,0.333,0.333,1","1",""
"","html-keyboard-response","343","177359","0.0-343.0","3Z2R0DQ0JI0H1RZJL97BT5KUUSKE2Y","A13FUEPWBCLBUY","3PEG1BH7AEDCPKTV9M6N3A4F0EHKBR","","null","<img src=""img/flower2.png"" style=""width:200px; border:14px solid green;"">","null","","","","","","","","",""
"","image-keyboard-response","344","177686","0.0-344.0","3Z2R0DQ0JI0H1RZJL97BT5KUUSKE2Y","A13FUEPWBCLBUY","3PEG1BH7AEDCPKTV9M6N3A4F0EHKBR","","326.19999998807907","img/flower2.png","75","326.69999998807907","2","1","2","1","1,0.333,0.333,0.333,1,0.333,0.333,0.333,1","1,0.333,0.333,0.333,1,0.333,0.333,0.333,1","1",""
"","html-keyboard-response","345","177988","0.0-345.0","3Z2R0DQ0JI0H1RZJL97BT5KUUSKE2Y","A13FUEPWBCLBUY","3PEG1BH7AEDCPKTV9M6N3A4F0EHKBR","","null","<img src=""img/flower2.png"" style=""width:200px; border:14px solid green;"">","null","","","","","","","","",""
"","image-keyboard-response","346","178702","0.0-346.0","3Z2R0DQ0JI0H1RZJL97BT5KUUSKE2Y","A13FUEPWBCLBUY","3PEG1BH7AEDCPKTV9M6N3A4F0EHKBR","","713.5","img/flower1.png","76","714.0999999642372","3","1","3","1","1,0.333,0.333,0.333,1,0.333,0.333,0.333,1","1,0.333,0.333,0.333,1,0.333,0.333,0.333,1","1",""
"","html-keyboard-response","347","179003","0.0-347.0","3Z2R0DQ0JI0H1RZJL97BT5KUUSKE2Y","A13FUEPWBCLBUY","3PEG1BH7AEDCPKTV9M6N3A4F0EHKBR","","null","<img src=""img/flower1.png"" style=""width:200px; border:14px solid green;"">","null","","","","","","","","",""
"","image-keyboard-response","348","179309","0.0-348.0","3Z2R0DQ0JI0H1RZJL97BT5KUUSKE2Y","A13FUEPWBCLBUY","3PEG1BH7AEDCPKTV9M6N3A4F0EHKBR","","305.39999997615814","img/flower1.png","76","306","3","1","3","1","1,0.333,0.333,0.333,1,0.333,0.333,0.333,1","1,0.333,0.333,0.333,1,0.333,0.333,0.333,1","1",""
"","html-keyboard-response","349","179611","0.0-349.0","3Z2R0DQ0JI0H1RZJL97BT5KUUSKE2Y","A13FUEPWBCLBUY","3PEG1BH7AEDCPKTV9M6N3A4F0EHKBR","","null","<img src=""img/flower1.png"" style=""width:200px; border:14px solid green;"">","null","","","","","","","","",""
"","image-keyboard-response","350","180176","0.0-350.0","3Z2R0DQ0JI0H1RZJL97BT5KUUSKE2Y","A13FUEPWBCLBUY","3PEG1BH7AEDCPKTV9M6N3A4F0EHKBR","","564.5","img/flower2.png","75","565.1999999880791","2","1","2","1","1,0.333,0.333,0.333,1,0.333,0.333,0.333,1","1,0.333,0.333,0.333,1,0.333,0.333,0.333,1","1",""
"","html-keyboard-response","351","180477","0.0-351.0","3Z2R0DQ0JI0H1RZJL97BT5KUUSKE2Y","A13FUEPWBCLBUY","3PEG1BH7AEDCPKTV9M6N3A4F0EHKBR","","null","<img src=""img/flower2.png"" style=""width:200px; border:14px solid green;"">","null","","","","","","","","",""
"","image-keyboard-response","352","181089","0.0-352.0","3Z2R0DQ0JI0H1RZJL97BT5KUUSKE2Y","A13FUEPWBCLBUY","3PEG1BH7AEDCPKTV9M6N3A4F0EHKBR","","610.6999999880791","img/flower1.png","76","611.1999999880791","3","1","3","1","1,0.333,0.333,0.333,1,0.333,0.333,0.333,1","1,0.333,0.333,0.333,1,0.333,0.333,0.333,1","1",""
"","html-keyboard-response","353","181390","0.0-353.0","3Z2R0DQ0JI0H1RZJL97BT5KUUSKE2Y","A13FUEPWBCLBUY","3PEG1BH7AEDCPKTV9M6N3A4F0EHKBR","","null","<img src=""img/flower1.png"" style=""width:200px; border:14px solid green;"">","null","","","","","","","","",""
"","image-keyboard-response","354","181791","0.0-354.0","3Z2R0DQ0JI0H1RZJL97BT5KUUSKE2Y","A13FUEPWBCLBUY","3PEG1BH7AEDCPKTV9M6N3A4F0EHKBR","","399.80000001192093","img/flower1.png","76","400.39999997615814","3","1","3","1","1,0.333,0.333,0.333,1,0.333,0.333,0.333,1","1,0.333,0.333,0.333,1,0.333,0.333,0.333,1","1",""
"","html-keyboard-response","355","182092","0.0-355.0","3Z2R0DQ0JI0H1RZJL97BT5KUUSKE2Y","A13FUEPWBCLBUY","3PEG1BH7AEDCPKTV9M6N3A4F0EHKBR","","null","<img src=""img/flower1.png"" style=""width:200px; border:14px solid green;"">","null","","","","","","","","",""
"","image-keyboard-response","356","182403","0.0-356.0","3Z2R0DQ0JI0H1RZJL97BT5KUUSKE2Y","A13FUEPWBCLBUY","3PEG1BH7AEDCPKTV9M6N3A4F0EHKBR","","310.10000002384186","img/flower1.png","76","310.60000002384186","3","1","3","1","1,0.333,0.333,0.333,1,0.333,0.333,0.333,1","1,0.333,0.333,0.333,1,0.333,0.333,0.333,1","1",""
"","html-keyboard-response","357","182704","0.0-357.0","3Z2R0DQ0JI0H1RZJL97BT5KUUSKE2Y","A13FUEPWBCLBUY","3PEG1BH7AEDCPKTV9M6N3A4F0EHKBR","","null","<img src=""img/flower1.png"" style=""width:200px; border:14px solid green;"">","null","","","","","","","","",""
"","image-keyboard-response","358","183505","0.0-358.0","3Z2R0DQ0JI0H1RZJL97BT5KUUSKE2Y","A13FUEPWBCLBUY","3PEG1BH7AEDCPKTV9M6N3A4F0EHKBR","","800.3000000119209","img/flower3.png","74","800.8000000119209","1","1","1","1","1,0.333,0.333,0.333,1,0.333,0.333,0.333,1","1,0.333,0.333,0.333,1,0.333,0.333,0.333,1","1",""
"","html-keyboard-response","359","183807","0.0-359.0","3Z2R0DQ0JI0H1RZJL97BT5KUUSKE2Y","A13FUEPWBCLBUY","3PEG1BH7AEDCPKTV9M6N3A4F0EHKBR","","null","<img src=""img/flower3.png"" style=""width:200px; border:14px solid green;"">","null","","","","","","","","",""
"","image-keyboard-response","360","184479","0.0-360.0","3Z2R0DQ0JI0H1RZJL97BT5KUUSKE2Y","A13FUEPWBCLBUY","3PEG1BH7AEDCPKTV9M6N3A4F0EHKBR","","671.5","img/flower1.png","76","671.8999999761581","3","1","3","1","1,0.333,0.333,0.333,1,0.333,0.333,0.333,1","1,0.333,0.333,0.333,1,0.333,0.333,0.333,1","1",""
"","html-keyboard-response","361","184780","0.0-361.0","3Z2R0DQ0JI0H1RZJL97BT5KUUSKE2Y","A13FUEPWBCLBUY","3PEG1BH7AEDCPKTV9M6N3A4F0EHKBR","","null","<img src=""img/flower1.png"" style=""width:200px; border:14px solid green;"">","null","","","","","","","","",""
"","html-keyboard-response","362","188592","0.0-362.0","3Z2R0DQ0JI0H1RZJL97BT5KUUSKE2Y","A13FUEPWBCLBUY","3PEG1BH7AEDCPKTV9M6N3A4F0EHKBR","","","","","","","","","","","","",""
"","instructions","363","190128","0.0-363.0","3Z2R0DQ0JI0H1RZJL97BT5KUUSKE2Y","A13FUEPWBCLBUY","3PEG1BH7AEDCPKTV9M6N3A4F0EHKBR","[{""page_index"":0,""viewing_time"":1535.6000000238419}]","1535.800000011921","","","","","","","","","","",""
