"rt","url","trial_type","trial_index","time_elapsed","internal_node_id","assignmentID","mturkID","hitID","success","view_history","stimulus","key_press","reactionTime","a","r","s","reward_cond","responses"
"13495.60000000894","consent.html","external-html","0","13672","0.0-0.0","33FBRBDW6PLDQ8HU5ZAHD8XUR1D8CI","A14DC1USXBIRXU","3WPCIUYH1AU470H2HRBLZRFBM3CTDN","","","","","","","","","",""
"","","fullscreen","1","17932","0.0-1.0","33FBRBDW6PLDQ8HU5ZAHD8XUR1D8CI","A14DC1USXBIRXU","3WPCIUYH1AU470H2HRBLZRFBM3CTDN","true","","","","","","","","",""
"68173","","instructions","2","86123","0.0-2.0","33FBRBDW6PLDQ8HU5ZAHD8XUR1D8CI","A14DC1USXBIRXU","3WPCIUYH1AU470H2HRBLZRFBM3CTDN","","[{""page_index"":0,""viewing_time"":9769.60000000894},{""page_index"":1,""viewing_time"":15373.699999988079},{""page_index"":2,""viewing_time"":16806.40000000596},{""page_index"":3,""viewing_time"":7015},{""page_index"":4,""viewing_time"":11817.29999999702},{""page_index"":5,""viewing_time"":5394.100000008941},{""page_index"":6,""viewing_time"":1995.2999999970198}]","","","","","","","",""
"61329.29999999702","","instructions","3","147457","0.0-3.0","33FBRBDW6PLDQ8HU5ZAHD8XUR1D8CI","A14DC1USXBIRXU","3WPCIUYH1AU470H2HRBLZRFBM3CTDN","","[{""page_index"":0,""viewing_time"":61324.79999999702}]","","","","","","","",""
"5981","","image-keyboard-response","4","153453","0.0-4.0","33FBRBDW6PLDQ8HU5ZAHD8XUR1D8CI","A14DC1USXBIRXU","3WPCIUYH1AU470H2HRBLZRFBM3CTDN","","","img/flower4.png","74","5993.29999999702","1","1","1","",""
"null","","html-keyboard-response","5","153759","0.0-5.0","33FBRBDW6PLDQ8HU5ZAHD8XUR1D8CI","A14DC1USXBIRXU","3WPCIUYH1AU470H2HRBLZRFBM3CTDN","","","<img src=""img/flower4.png"" style=""width:200px; border:14px solid green;"">","null","","","","","",""
"5240.0999999940395","","image-keyboard-response","6","159007","0.0-6.0","33FBRBDW6PLDQ8HU5ZAHD8XUR1D8CI","A14DC1USXBIRXU","3WPCIUYH1AU470H2HRBLZRFBM3CTDN","","","img/flower4.png","74","5247.79999999702","1","1","1","",""
"null","","html-keyboard-response","7","159348","0.0-7.0","33FBRBDW6PLDQ8HU5ZAHD8XUR1D8CI","A14DC1USXBIRXU","3WPCIUYH1AU470H2HRBLZRFBM3CTDN","","","<img src=""img/flower4.png"" style=""width:200px; border:14px solid green;"">","null","","","","","",""
"4263.699999988079","","image-keyboard-response","8","163617","0.0-8.0","33FBRBDW6PLDQ8HU5ZAHD8XUR1D8CI","A14DC1USXBIRXU","3WPCIUYH1AU470H2HRBLZRFBM3CTDN","","","img/flower5.png","75","4269.29999999702","2","1","2","",""
"null","","html-keyboard-response","9","163925","0.0-9.0","33FBRBDW6PLDQ8HU5ZAHD8XUR1D8CI","A14DC1USXBIRXU","3WPCIUYH1AU470H2HRBLZRFBM3CTDN","","","<img src=""img/flower5.png"" style=""width:200px; border:14px solid green;"">","null","","","","","",""
"1412.7000000029802","","image-keyboard-response","10","165341","0.0-10.0","33FBRBDW6PLDQ8HU5ZAHD8XUR1D8CI","A14DC1USXBIRXU","3WPCIUYH1AU470H2HRBLZRFBM3CTDN","","","img/flower4.png","74","1416.3999999910593","1","1","1","",""
"null","","html-keyboard-response","11","165656","0.0-11.0","33FBRBDW6PLDQ8HU5ZAHD8XUR1D8CI","A14DC1USXBIRXU","3WPCIUYH1AU470H2HRBLZRFBM3CTDN","","","<img src=""img/flower4.png"" style=""width:200px; border:14px solid green;"">","null","","","","","",""
"1204.5","","image-keyboard-response","12","166877","0.0-12.0","33FBRBDW6PLDQ8HU5ZAHD8XUR1D8CI","A14DC1USXBIRXU","3WPCIUYH1AU470H2HRBLZRFBM3CTDN","","","img/flower5.png","75","1224.5","2","1","2","",""
"null","","html-keyboard-response","13","167214","0.0-13.0","33FBRBDW6PLDQ8HU5ZAHD8XUR1D8CI","A14DC1USXBIRXU","3WPCIUYH1AU470H2HRBLZRFBM3CTDN","","","<img src=""img/flower5.png"" style=""width:200px; border:14px solid green;"">","null","","","","","",""
"1382.0999999940395","","image-keyboard-response","14","168611","0.0-14.0","33FBRBDW6PLDQ8HU5ZAHD8XUR1D8CI","A14DC1USXBIRXU","3WPCIUYH1AU470H2HRBLZRFBM3CTDN","","","img/flower6.png","76","1391.199999988079","3","1","3","",""
"null","","html-keyboard-response","15","168916","0.0-15.0","33FBRBDW6PLDQ8HU5ZAHD8XUR1D8CI","A14DC1USXBIRXU","3WPCIUYH1AU470H2HRBLZRFBM3CTDN","","","<img src=""img/flower6.png"" style=""width:200px; border:14px solid green;"">","null","","","","","",""
"26330.79999999702","","image-keyboard-response","16","195251","0.0-16.0","33FBRBDW6PLDQ8HU5ZAHD8XUR1D8CI","A14DC1USXBIRXU","3WPCIUYH1AU470H2HRBLZRFBM3CTDN","","","img/flower6.png","76","26333.59999999404","3","0","3","",""
"null","","html-keyboard-response","17","195556","0.0-17.0","33FBRBDW6PLDQ8HU5ZAHD8XUR1D8CI","A14DC1USXBIRXU","3WPCIUYH1AU470H2HRBLZRFBM3CTDN","","","<img src=""img/flower6.png"" style=""width:200px;border:14px solid red;"">","null","","","","","",""
"1244.7000000029802","","image-keyboard-response","18","196802","0.0-18.0","33FBRBDW6PLDQ8HU5ZAHD8XUR1D8CI","A14DC1USXBIRXU","3WPCIUYH1AU470H2HRBLZRFBM3CTDN","","","img/flower4.png","74","1246.199999988079","1","1","1","",""
"null","","html-keyboard-response","19","197120","0.0-19.0","33FBRBDW6PLDQ8HU5ZAHD8XUR1D8CI","A14DC1USXBIRXU","3WPCIUYH1AU470H2HRBLZRFBM3CTDN","","","<img src=""img/flower4.png"" style=""width:200px; border:14px solid green;"">","null","","","","","",""
"1574.3999999910593","","image-keyboard-response","20","198717","0.0-20.0","33FBRBDW6PLDQ8HU5ZAHD8XUR1D8CI","A14DC1USXBIRXU","3WPCIUYH1AU470H2HRBLZRFBM3CTDN","","","img/flower5.png","75","1596.2000000029802","2","1","2","",""
"null","","html-keyboard-response","21","199025","0.0-21.0","33FBRBDW6PLDQ8HU5ZAHD8XUR1D8CI","A14DC1USXBIRXU","3WPCIUYH1AU470H2HRBLZRFBM3CTDN","","","<img src=""img/flower5.png"" style=""width:200px; border:14px solid green;"">","null","","","","","",""
"1930.5999999940395","","image-keyboard-response","22","200962","0.0-22.0","33FBRBDW6PLDQ8HU5ZAHD8XUR1D8CI","A14DC1USXBIRXU","3WPCIUYH1AU470H2HRBLZRFBM3CTDN","","","img/flower4.png","74","1936.4000000059605","1","0","1","",""
"null","","html-keyboard-response","23","201269","0.0-23.0","33FBRBDW6PLDQ8HU5ZAHD8XUR1D8CI","A14DC1USXBIRXU","3WPCIUYH1AU470H2HRBLZRFBM3CTDN","","","<img src=""img/flower4.png"" style=""width:200px;border:14px solid red;"">","null","","","","","",""
"1781.7999999970198","","image-keyboard-response","24","203053","0.0-24.0","33FBRBDW6PLDQ8HU5ZAHD8XUR1D8CI","A14DC1USXBIRXU","3WPCIUYH1AU470H2HRBLZRFBM3CTDN","","","img/flower6.png","76","1784.5999999940395","3","1","3","",""
"null","","html-keyboard-response","25","203365","0.0-25.0","33FBRBDW6PLDQ8HU5ZAHD8XUR1D8CI","A14DC1USXBIRXU","3WPCIUYH1AU470H2HRBLZRFBM3CTDN","","","<img src=""img/flower6.png"" style=""width:200px; border:14px solid green;"">","null","","","","","",""
"1564.7999999970198","","image-keyboard-response","26","204932","0.0-26.0","33FBRBDW6PLDQ8HU5ZAHD8XUR1D8CI","A14DC1USXBIRXU","3WPCIUYH1AU470H2HRBLZRFBM3CTDN","","","img/flower5.png","75","1566.5","2","0","2","",""
"null","","html-keyboard-response","27","205237","0.0-27.0","33FBRBDW6PLDQ8HU5ZAHD8XUR1D8CI","A14DC1USXBIRXU","3WPCIUYH1AU470H2HRBLZRFBM3CTDN","","","<img src=""img/flower5.png"" style=""width:200px;border:14px solid red;"">","null","","","","","",""
"4302.800000011921","","image-keyboard-response","28","209546","0.0-28.0","33FBRBDW6PLDQ8HU5ZAHD8XUR1D8CI","A14DC1USXBIRXU","3WPCIUYH1AU470H2HRBLZRFBM3CTDN","","","img/flower5.png","74","4309.5","1","1","2","",""
"null","","html-keyboard-response","29","210093","0.0-29.0","33FBRBDW6PLDQ8HU5ZAHD8XUR1D8CI","A14DC1USXBIRXU","3WPCIUYH1AU470H2HRBLZRFBM3CTDN","","","<img src=""img/flower5.png"" style=""width:200px; border:14px solid green;"">","null","","","","","",""
"1130.2000000029802","","image-keyboard-response","30","211226","0.0-30.0","33FBRBDW6PLDQ8HU5ZAHD8XUR1D8CI","A14DC1USXBIRXU","3WPCIUYH1AU470H2HRBLZRFBM3CTDN","","","img/flower6.png","76","1132.4000000059605","3","0","3","",""
"null","","html-keyboard-response","31","211532","0.0-31.0","33FBRBDW6PLDQ8HU5ZAHD8XUR1D8CI","A14DC1USXBIRXU","3WPCIUYH1AU470H2HRBLZRFBM3CTDN","","","<img src=""img/flower6.png"" style=""width:200px;border:14px solid red;"">","null","","","","","",""
"3411","","image-keyboard-response","32","214948","0.0-32.0","33FBRBDW6PLDQ8HU5ZAHD8XUR1D8CI","A14DC1USXBIRXU","3WPCIUYH1AU470H2HRBLZRFBM3CTDN","","","img/flower5.png","74","3413.7000000029802","1","0","2","",""
"null","","html-keyboard-response","33","215262","0.0-33.0","33FBRBDW6PLDQ8HU5ZAHD8XUR1D8CI","A14DC1USXBIRXU","3WPCIUYH1AU470H2HRBLZRFBM3CTDN","","","<img src=""img/flower5.png"" style=""width:200px;border:14px solid red;"">","null","","","","","",""
"1329.9000000059605","","image-keyboard-response","34","216593","0.0-34.0","33FBRBDW6PLDQ8HU5ZAHD8XUR1D8CI","A14DC1USXBIRXU","3WPCIUYH1AU470H2HRBLZRFBM3CTDN","","","img/flower5.png","75","1331.2000000029802","2","1","2","",""
"null","","html-keyboard-response","35","216900","0.0-35.0","33FBRBDW6PLDQ8HU5ZAHD8XUR1D8CI","A14DC1USXBIRXU","3WPCIUYH1AU470H2HRBLZRFBM3CTDN","","","<img src=""img/flower5.png"" style=""width:200px; border:14px solid green;"">","null","","","","","",""
"4342.399999991059","","image-keyboard-response","36","221244","0.0-36.0","33FBRBDW6PLDQ8HU5ZAHD8XUR1D8CI","A14DC1USXBIRXU","3WPCIUYH1AU470H2HRBLZRFBM3CTDN","","","img/flower5.png","75","4343.5999999940395","2","1","2","",""
"null","","html-keyboard-response","37","221587","0.0-37.0","33FBRBDW6PLDQ8HU5ZAHD8XUR1D8CI","A14DC1USXBIRXU","3WPCIUYH1AU470H2HRBLZRFBM3CTDN","","","<img src=""img/flower5.png"" style=""width:200px; border:14px solid green;"">","null","","","","","",""
"1669.8999999910593","","image-keyboard-response","38","223282","0.0-38.0","33FBRBDW6PLDQ8HU5ZAHD8XUR1D8CI","A14DC1USXBIRXU","3WPCIUYH1AU470H2HRBLZRFBM3CTDN","","","img/flower5.png","75","1690.199999988079","2","1","2","",""
"null","","html-keyboard-response","39","223589","0.0-39.0","33FBRBDW6PLDQ8HU5ZAHD8XUR1D8CI","A14DC1USXBIRXU","3WPCIUYH1AU470H2HRBLZRFBM3CTDN","","","<img src=""img/flower5.png"" style=""width:200px; border:14px solid green;"">","null","","","","","",""
"1020","","image-keyboard-response","40","224611","0.0-40.0","33FBRBDW6PLDQ8HU5ZAHD8XUR1D8CI","A14DC1USXBIRXU","3WPCIUYH1AU470H2HRBLZRFBM3CTDN","","","img/flower4.png","74","1022.1000000089407","1","1","1","",""
"null","","html-keyboard-response","41","224927","0.0-41.0","33FBRBDW6PLDQ8HU5ZAHD8XUR1D8CI","A14DC1USXBIRXU","3WPCIUYH1AU470H2HRBLZRFBM3CTDN","","","<img src=""img/flower4.png"" style=""width:200px; border:14px solid green;"">","null","","","","","",""
"1607","","image-keyboard-response","42","226539","0.0-42.0","33FBRBDW6PLDQ8HU5ZAHD8XUR1D8CI","A14DC1USXBIRXU","3WPCIUYH1AU470H2HRBLZRFBM3CTDN","","","img/flower4.png","74","1611.6000000089407","1","1","1","",""
"null","","html-keyboard-response","43","226846","0.0-43.0","33FBRBDW6PLDQ8HU5ZAHD8XUR1D8CI","A14DC1USXBIRXU","3WPCIUYH1AU470H2HRBLZRFBM3CTDN","","","<img src=""img/flower4.png"" style=""width:200px; border:14px solid green;"">","null","","","","","",""
"918.8000000119209","","image-keyboard-response","44","227773","0.0-44.0","33FBRBDW6PLDQ8HU5ZAHD8XUR1D8CI","A14DC1USXBIRXU","3WPCIUYH1AU470H2HRBLZRFBM3CTDN","","","img/flower4.png","74","927.2000000029802","1","1","1","",""
"null","","html-keyboard-response","45","228086","0.0-45.0","33FBRBDW6PLDQ8HU5ZAHD8XUR1D8CI","A14DC1USXBIRXU","3WPCIUYH1AU470H2HRBLZRFBM3CTDN","","","<img src=""img/flower4.png"" style=""width:200px; border:14px solid green;"">","null","","","","","",""
"978.2999999970198","","image-keyboard-response","46","229077","0.0-46.0","33FBRBDW6PLDQ8HU5ZAHD8XUR1D8CI","A14DC1USXBIRXU","3WPCIUYH1AU470H2HRBLZRFBM3CTDN","","","img/flower6.png","76","989.5","3","1","3","",""
"null","","html-keyboard-response","47","229404","0.0-47.0","33FBRBDW6PLDQ8HU5ZAHD8XUR1D8CI","A14DC1USXBIRXU","3WPCIUYH1AU470H2HRBLZRFBM3CTDN","","","<img src=""img/flower6.png"" style=""width:200px; border:14px solid green;"">","null","","","","","",""
"11381","","image-keyboard-response","48","240796","0.0-48.0","33FBRBDW6PLDQ8HU5ZAHD8XUR1D8CI","A14DC1USXBIRXU","3WPCIUYH1AU470H2HRBLZRFBM3CTDN","","","img/flower6.png","76","11391.5","3","0","3","",""
"null","","html-keyboard-response","49","241125","0.0-49.0","33FBRBDW6PLDQ8HU5ZAHD8XUR1D8CI","A14DC1USXBIRXU","3WPCIUYH1AU470H2HRBLZRFBM3CTDN","","","<img src=""img/flower6.png"" style=""width:200px;border:14px solid red;"">","null","","","","","",""
"1157.9000000059605","","image-keyboard-response","50","242298","0.0-50.0","33FBRBDW6PLDQ8HU5ZAHD8XUR1D8CI","A14DC1USXBIRXU","3WPCIUYH1AU470H2HRBLZRFBM3CTDN","","","img/flower6.png","76","1172.5","3","1","3","",""
"null","","html-keyboard-response","51","242605","0.0-51.0","33FBRBDW6PLDQ8HU5ZAHD8XUR1D8CI","A14DC1USXBIRXU","3WPCIUYH1AU470H2HRBLZRFBM3CTDN","","","<img src=""img/flower6.png"" style=""width:200px; border:14px solid green;"">","null","","","","","",""
"1262.5","","image-keyboard-response","52","243890","0.0-52.0","33FBRBDW6PLDQ8HU5ZAHD8XUR1D8CI","A14DC1USXBIRXU","3WPCIUYH1AU470H2HRBLZRFBM3CTDN","","","img/flower4.png","74","1276.3999999910593","1","1","1","",""
"null","","html-keyboard-response","53","244220","0.0-53.0","33FBRBDW6PLDQ8HU5ZAHD8XUR1D8CI","A14DC1USXBIRXU","3WPCIUYH1AU470H2HRBLZRFBM3CTDN","","","<img src=""img/flower4.png"" style=""width:200px; border:14px solid green;"">","null","","","","","",""
"1055.6000000089407","","image-keyboard-response","54","245301","0.0-54.0","33FBRBDW6PLDQ8HU5ZAHD8XUR1D8CI","A14DC1USXBIRXU","3WPCIUYH1AU470H2HRBLZRFBM3CTDN","","","img/flower4.png","74","1073.7999999970198","1","1","1","",""
"null","","html-keyboard-response","55","245604","0.0-55.0","33FBRBDW6PLDQ8HU5ZAHD8XUR1D8CI","A14DC1USXBIRXU","3WPCIUYH1AU470H2HRBLZRFBM3CTDN","","","<img src=""img/flower4.png"" style=""width:200px; border:14px solid green;"">","null","","","","","",""
"1113.3999999910593","","image-keyboard-response","56","246771","0.0-56.0","33FBRBDW6PLDQ8HU5ZAHD8XUR1D8CI","A14DC1USXBIRXU","3WPCIUYH1AU470H2HRBLZRFBM3CTDN","","","img/flower5.png","75","1147.7999999970198","2","1","2","",""
"null","","html-keyboard-response","57","247085","0.0-57.0","33FBRBDW6PLDQ8HU5ZAHD8XUR1D8CI","A14DC1USXBIRXU","3WPCIUYH1AU470H2HRBLZRFBM3CTDN","","","<img src=""img/flower5.png"" style=""width:200px; border:14px solid green;"">","null","","","","","",""
"954.2999999970198","","image-keyboard-response","58","248042","0.0-58.0","33FBRBDW6PLDQ8HU5ZAHD8XUR1D8CI","A14DC1USXBIRXU","3WPCIUYH1AU470H2HRBLZRFBM3CTDN","","","img/flower6.png","76","956.1000000089407","3","1","3","",""
"null","","html-keyboard-response","59","248357","0.0-59.0","33FBRBDW6PLDQ8HU5ZAHD8XUR1D8CI","A14DC1USXBIRXU","3WPCIUYH1AU470H2HRBLZRFBM3CTDN","","","<img src=""img/flower6.png"" style=""width:200px; border:14px solid green;"">","null","","","","","",""
"1011.5","","image-keyboard-response","60","249410","0.0-60.0","33FBRBDW6PLDQ8HU5ZAHD8XUR1D8CI","A14DC1USXBIRXU","3WPCIUYH1AU470H2HRBLZRFBM3CTDN","","","img/flower6.png","76","1058.5","3","1","3","",""
"null","","html-keyboard-response","61","249742","0.0-61.0","33FBRBDW6PLDQ8HU5ZAHD8XUR1D8CI","A14DC1USXBIRXU","3WPCIUYH1AU470H2HRBLZRFBM3CTDN","","","<img src=""img/flower6.png"" style=""width:200px; border:14px solid green;"">","null","","","","","",""
"807.6000000089407","","image-keyboard-response","62","250554","0.0-62.0","33FBRBDW6PLDQ8HU5ZAHD8XUR1D8CI","A14DC1USXBIRXU","3WPCIUYH1AU470H2HRBLZRFBM3CTDN","","","img/flower6.png","76","809.2000000029802","3","0","3","",""
"null","","html-keyboard-response","63","250861","0.0-63.0","33FBRBDW6PLDQ8HU5ZAHD8XUR1D8CI","A14DC1USXBIRXU","3WPCIUYH1AU470H2HRBLZRFBM3CTDN","","","<img src=""img/flower6.png"" style=""width:200px;border:14px solid red;"">","null","","","","","",""
"77113.90000000596","","instructions","64","327976","0.0-64.0","33FBRBDW6PLDQ8HU5ZAHD8XUR1D8CI","A14DC1USXBIRXU","3WPCIUYH1AU470H2HRBLZRFBM3CTDN","","[{""page_index"":0,""viewing_time"":4135.5999999940395},{""page_index"":1,""viewing_time"":72977.40000000596}]","","","","","","","",""
"2727.2000000029802","","image-keyboard-response","65","330705","0.0-65.0","33FBRBDW6PLDQ8HU5ZAHD8XUR1D8CI","A14DC1USXBIRXU","3WPCIUYH1AU470H2HRBLZRFBM3CTDN","","","img/flower6.png","76","2728.7000000029802","3","1","3","",""
"null","","html-keyboard-response","66","331014","0.0-66.0","33FBRBDW6PLDQ8HU5ZAHD8XUR1D8CI","A14DC1USXBIRXU","3WPCIUYH1AU470H2HRBLZRFBM3CTDN","","","<img src=""img/flower6.png"" style=""width:200px; border:14px solid green;"">","null","","","","","",""
"992.5999999940395","","image-keyboard-response","67","332009","0.0-67.0","33FBRBDW6PLDQ8HU5ZAHD8XUR1D8CI","A14DC1USXBIRXU","3WPCIUYH1AU470H2HRBLZRFBM3CTDN","","","img/flower4.png","74","994.5999999940395","1","1","1","",""
"null","","html-keyboard-response","68","332317","0.0-68.0","33FBRBDW6PLDQ8HU5ZAHD8XUR1D8CI","A14DC1USXBIRXU","3WPCIUYH1AU470H2HRBLZRFBM3CTDN","","","<img src=""img/flower4.png"" style=""width:200px; border:14px solid green;"">","null","","","","","",""
"842.5999999940395","","image-keyboard-response","69","333161","0.0-69.0","33FBRBDW6PLDQ8HU5ZAHD8XUR1D8CI","A14DC1USXBIRXU","3WPCIUYH1AU470H2HRBLZRFBM3CTDN","","","img/flower4.png","74","844.0999999940395","1","1","1","",""
"null","","html-keyboard-response","70","333468","0.0-70.0","33FBRBDW6PLDQ8HU5ZAHD8XUR1D8CI","A14DC1USXBIRXU","3WPCIUYH1AU470H2HRBLZRFBM3CTDN","","","<img src=""img/flower4.png"" style=""width:200px; border:14px solid green;"">","null","","","","","",""
"1297.2000000029802","","image-keyboard-response","71","334769","0.0-71.0","33FBRBDW6PLDQ8HU5ZAHD8XUR1D8CI","A14DC1USXBIRXU","3WPCIUYH1AU470H2HRBLZRFBM3CTDN","","","img/flower5.png","75","1299.9000000059605","2","0","2","",""
"null","","html-keyboard-response","72","335077","0.0-72.0","33FBRBDW6PLDQ8HU5ZAHD8XUR1D8CI","A14DC1USXBIRXU","3WPCIUYH1AU470H2HRBLZRFBM3CTDN","","","<img src=""img/flower5.png"" style=""width:200px;border:14px solid red;"">","null","","","","","",""
"977.4000000059605","","image-keyboard-response","73","336056","0.0-73.0","33FBRBDW6PLDQ8HU5ZAHD8XUR1D8CI","A14DC1USXBIRXU","3WPCIUYH1AU470H2HRBLZRFBM3CTDN","","","img/flower6.png","76","979","3","1","3","",""
"null","","html-keyboard-response","74","336364","0.0-74.0","33FBRBDW6PLDQ8HU5ZAHD8XUR1D8CI","A14DC1USXBIRXU","3WPCIUYH1AU470H2HRBLZRFBM3CTDN","","","<img src=""img/flower6.png"" style=""width:200px; border:14px solid green;"">","null","","","","","",""
"1138.699999988079","","image-keyboard-response","75","337504","0.0-75.0","33FBRBDW6PLDQ8HU5ZAHD8XUR1D8CI","A14DC1USXBIRXU","3WPCIUYH1AU470H2HRBLZRFBM3CTDN","","","img/flower5.png","75","1139.7999999970198","2","1","2","",""
"null","","html-keyboard-response","76","337813","0.0-76.0","33FBRBDW6PLDQ8HU5ZAHD8XUR1D8CI","A14DC1USXBIRXU","3WPCIUYH1AU470H2HRBLZRFBM3CTDN","","","<img src=""img/flower5.png"" style=""width:200px; border:14px solid green;"">","null","","","","","",""
"784.5","","image-keyboard-response","77","338599","0.0-77.0","33FBRBDW6PLDQ8HU5ZAHD8XUR1D8CI","A14DC1USXBIRXU","3WPCIUYH1AU470H2HRBLZRFBM3CTDN","","","img/flower4.png","74","785.8999999910593","1","1","1","",""
"null","","html-keyboard-response","78","338909","0.0-78.0","33FBRBDW6PLDQ8HU5ZAHD8XUR1D8CI","A14DC1USXBIRXU","3WPCIUYH1AU470H2HRBLZRFBM3CTDN","","","<img src=""img/flower4.png"" style=""width:200px; border:14px solid green;"">","null","","","","","",""
"1531","","image-keyboard-response","79","340456","0.0-79.0","33FBRBDW6PLDQ8HU5ZAHD8XUR1D8CI","A14DC1USXBIRXU","3WPCIUYH1AU470H2HRBLZRFBM3CTDN","","","img/flower5.png","75","1547","2","1","2","",""
"null","","html-keyboard-response","80","340765","0.0-80.0","33FBRBDW6PLDQ8HU5ZAHD8XUR1D8CI","A14DC1USXBIRXU","3WPCIUYH1AU470H2HRBLZRFBM3CTDN","","","<img src=""img/flower5.png"" style=""width:200px; border:14px solid green;"">","null","","","","","",""
"971.7000000029802","","image-keyboard-response","81","341743","0.0-81.0","33FBRBDW6PLDQ8HU5ZAHD8XUR1D8CI","A14DC1USXBIRXU","3WPCIUYH1AU470H2HRBLZRFBM3CTDN","","","img/flower4.png","74","983.5999999940395","1","1","1","",""
"null","","html-keyboard-response","82","342061","0.0-82.0","33FBRBDW6PLDQ8HU5ZAHD8XUR1D8CI","A14DC1USXBIRXU","3WPCIUYH1AU470H2HRBLZRFBM3CTDN","","","<img src=""img/flower4.png"" style=""width:200px; border:14px solid green;"">","null","","","","","",""
"1625.199999988079","","image-keyboard-response","83","343688","0.0-83.0","33FBRBDW6PLDQ8HU5ZAHD8XUR1D8CI","A14DC1USXBIRXU","3WPCIUYH1AU470H2HRBLZRFBM3CTDN","","","img/flower6.png","76","1626.7000000029802","3","1","3","",""
"null","","html-keyboard-response","84","343998","0.0-84.0","33FBRBDW6PLDQ8HU5ZAHD8XUR1D8CI","A14DC1USXBIRXU","3WPCIUYH1AU470H2HRBLZRFBM3CTDN","","","<img src=""img/flower6.png"" style=""width:200px; border:14px solid green;"">","null","","","","","",""
"909.5999999940395","","image-keyboard-response","85","344929","0.0-85.0","33FBRBDW6PLDQ8HU5ZAHD8XUR1D8CI","A14DC1USXBIRXU","3WPCIUYH1AU470H2HRBLZRFBM3CTDN","","","img/flower5.png","75","934.2000000029802","2","0","2","",""
"null","","html-keyboard-response","86","345276","0.0-86.0","33FBRBDW6PLDQ8HU5ZAHD8XUR1D8CI","A14DC1USXBIRXU","3WPCIUYH1AU470H2HRBLZRFBM3CTDN","","","<img src=""img/flower5.png"" style=""width:200px;border:14px solid red;"">","null","","","","","",""
"1246.0999999940395","","image-keyboard-response","87","346524","0.0-87.0","33FBRBDW6PLDQ8HU5ZAHD8XUR1D8CI","A14DC1USXBIRXU","3WPCIUYH1AU470H2HRBLZRFBM3CTDN","","","img/flower6.png","76","1247.7999999970198","3","1","3","",""
"null","","html-keyboard-response","88","346845","0.0-88.0","33FBRBDW6PLDQ8HU5ZAHD8XUR1D8CI","A14DC1USXBIRXU","3WPCIUYH1AU470H2HRBLZRFBM3CTDN","","","<img src=""img/flower6.png"" style=""width:200px; border:14px solid green;"">","null","","","","","",""
"1736.2999999970198","","image-keyboard-response","89","348583","0.0-89.0","33FBRBDW6PLDQ8HU5ZAHD8XUR1D8CI","A14DC1USXBIRXU","3WPCIUYH1AU470H2HRBLZRFBM3CTDN","","","img/flower5.png","75","1737.9000000059605","2","1","2","",""
"null","","html-keyboard-response","90","348894","0.0-90.0","33FBRBDW6PLDQ8HU5ZAHD8XUR1D8CI","A14DC1USXBIRXU","3WPCIUYH1AU470H2HRBLZRFBM3CTDN","","","<img src=""img/flower5.png"" style=""width:200px; border:14px solid green;"">","null","","","","","",""
"802.5","","image-keyboard-response","91","349701","0.0-91.0","33FBRBDW6PLDQ8HU5ZAHD8XUR1D8CI","A14DC1USXBIRXU","3WPCIUYH1AU470H2HRBLZRFBM3CTDN","","","img/flower6.png","74","807.6000000089407","1","0","3","",""
"null","","html-keyboard-response","92","350014","0.0-92.0","33FBRBDW6PLDQ8HU5ZAHD8XUR1D8CI","A14DC1USXBIRXU","3WPCIUYH1AU470H2HRBLZRFBM3CTDN","","","<img src=""img/flower6.png"" style=""width:200px;border:14px solid red;"">","null","","","","","",""
"94.3999999910593","","image-keyboard-response","93","350113","0.0-93.0","33FBRBDW6PLDQ8HU5ZAHD8XUR1D8CI","A14DC1USXBIRXU","3WPCIUYH1AU470H2HRBLZRFBM3CTDN","","","img/flower5.png","76","98.3999999910593","3","1","2","",""
"null","","html-keyboard-response","94","350422","0.0-94.0","33FBRBDW6PLDQ8HU5ZAHD8XUR1D8CI","A14DC1USXBIRXU","3WPCIUYH1AU470H2HRBLZRFBM3CTDN","","","<img src=""img/flower5.png"" style=""width:200px; border:14px solid green;"">","null","","","","","",""
"1771.2000000029802","","image-keyboard-response","95","352224","0.0-95.0","33FBRBDW6PLDQ8HU5ZAHD8XUR1D8CI","A14DC1USXBIRXU","3WPCIUYH1AU470H2HRBLZRFBM3CTDN","","","img/flower4.png","74","1801.0999999940395","1","0","1","",""
"null","","html-keyboard-response","96","352533","0.0-96.0","33FBRBDW6PLDQ8HU5ZAHD8XUR1D8CI","A14DC1USXBIRXU","3WPCIUYH1AU470H2HRBLZRFBM3CTDN","","","<img src=""img/flower4.png"" style=""width:200px;border:14px solid red;"">","null","","","","","",""
"1178.0999999940395","","image-keyboard-response","97","353714","0.0-97.0","33FBRBDW6PLDQ8HU5ZAHD8XUR1D8CI","A14DC1USXBIRXU","3WPCIUYH1AU470H2HRBLZRFBM3CTDN","","","img/flower6.png","76","1180.7000000029802","3","0","3","",""
"null","","html-keyboard-response","98","354021","0.0-98.0","33FBRBDW6PLDQ8HU5ZAHD8XUR1D8CI","A14DC1USXBIRXU","3WPCIUYH1AU470H2HRBLZRFBM3CTDN","","","<img src=""img/flower6.png"" style=""width:200px;border:14px solid red;"">","null","","","","","",""
"727.1000000089407","","image-keyboard-response","99","354752","0.0-99.0","33FBRBDW6PLDQ8HU5ZAHD8XUR1D8CI","A14DC1USXBIRXU","3WPCIUYH1AU470H2HRBLZRFBM3CTDN","","","img/flower6.png","75","730.1000000089407","2","1","3","",""
"null","","html-keyboard-response","100","355061","0.0-100.0","33FBRBDW6PLDQ8HU5ZAHD8XUR1D8CI","A14DC1USXBIRXU","3WPCIUYH1AU470H2HRBLZRFBM3CTDN","","","<img src=""img/flower6.png"" style=""width:200px; border:14px solid green;"">","null","","","","","",""
"1348.5","","image-keyboard-response","101","356414","0.0-101.0","33FBRBDW6PLDQ8HU5ZAHD8XUR1D8CI","A14DC1USXBIRXU","3WPCIUYH1AU470H2HRBLZRFBM3CTDN","","","img/flower4.png","74","1352.5","1","1","1","",""
"null","","html-keyboard-response","102","356725","0.0-102.0","33FBRBDW6PLDQ8HU5ZAHD8XUR1D8CI","A14DC1USXBIRXU","3WPCIUYH1AU470H2HRBLZRFBM3CTDN","","","<img src=""img/flower4.png"" style=""width:200px; border:14px solid green;"">","null","","","","","",""
"2361.5","","image-keyboard-response","103","359093","0.0-103.0","33FBRBDW6PLDQ8HU5ZAHD8XUR1D8CI","A14DC1USXBIRXU","3WPCIUYH1AU470H2HRBLZRFBM3CTDN","","","img/flower5.png","75","2367.7000000029802","2","1","2","",""
"null","","html-keyboard-response","104","359404","0.0-104.0","33FBRBDW6PLDQ8HU5ZAHD8XUR1D8CI","A14DC1USXBIRXU","3WPCIUYH1AU470H2HRBLZRFBM3CTDN","","","<img src=""img/flower5.png"" style=""width:200px; border:14px solid green;"">","null","","","","","",""
"2080.7000000029802","","image-keyboard-response","105","361488","0.0-105.0","33FBRBDW6PLDQ8HU5ZAHD8XUR1D8CI","A14DC1USXBIRXU","3WPCIUYH1AU470H2HRBLZRFBM3CTDN","","","img/flower5.png","75","2082.5","2","1","2","",""
"null","","html-keyboard-response","106","361797","0.0-106.0","33FBRBDW6PLDQ8HU5ZAHD8XUR1D8CI","A14DC1USXBIRXU","3WPCIUYH1AU470H2HRBLZRFBM3CTDN","","","<img src=""img/flower5.png"" style=""width:200px; border:14px solid green;"">","null","","","","","",""
"896.7999999970198","","image-keyboard-response","107","362695","0.0-107.0","33FBRBDW6PLDQ8HU5ZAHD8XUR1D8CI","A14DC1USXBIRXU","3WPCIUYH1AU470H2HRBLZRFBM3CTDN","","","img/flower4.png","74","898","1","1","1","",""
"null","","html-keyboard-response","108","363006","0.0-108.0","33FBRBDW6PLDQ8HU5ZAHD8XUR1D8CI","A14DC1USXBIRXU","3WPCIUYH1AU470H2HRBLZRFBM3CTDN","","","<img src=""img/flower4.png"" style=""width:200px; border:14px solid green;"">","null","","","","","",""
"914.0999999940395","","image-keyboard-response","109","363923","0.0-109.0","33FBRBDW6PLDQ8HU5ZAHD8XUR1D8CI","A14DC1USXBIRXU","3WPCIUYH1AU470H2HRBLZRFBM3CTDN","","","img/flower6.png","76","916.7000000029802","3","1","3","",""
"null","","html-keyboard-response","110","364236","0.0-110.0","33FBRBDW6PLDQ8HU5ZAHD8XUR1D8CI","A14DC1USXBIRXU","3WPCIUYH1AU470H2HRBLZRFBM3CTDN","","","<img src=""img/flower6.png"" style=""width:200px; border:14px solid green;"">","null","","","","","",""
"1147.8999999910593","","image-keyboard-response","111","365385","0.0-111.0","33FBRBDW6PLDQ8HU5ZAHD8XUR1D8CI","A14DC1USXBIRXU","3WPCIUYH1AU470H2HRBLZRFBM3CTDN","","","img/flower4.png","74","1149.2000000029802","1","1","1","",""
"null","","html-keyboard-response","112","365727","0.0-112.0","33FBRBDW6PLDQ8HU5ZAHD8XUR1D8CI","A14DC1USXBIRXU","3WPCIUYH1AU470H2HRBLZRFBM3CTDN","","","<img src=""img/flower4.png"" style=""width:200px; border:14px solid green;"">","null","","","","","",""
"1932.0999999940395","","image-keyboard-response","113","367674","0.0-113.0","33FBRBDW6PLDQ8HU5ZAHD8XUR1D8CI","A14DC1USXBIRXU","3WPCIUYH1AU470H2HRBLZRFBM3CTDN","","","img/flower4.png","74","1948.2999999970198","1","1","1","",""
"null","","html-keyboard-response","114","367990","0.0-114.0","33FBRBDW6PLDQ8HU5ZAHD8XUR1D8CI","A14DC1USXBIRXU","3WPCIUYH1AU470H2HRBLZRFBM3CTDN","","","<img src=""img/flower4.png"" style=""width:200px; border:14px solid green;"">","null","","","","","",""
"1062.2999999970198","","image-keyboard-response","115","369055","0.0-115.0","33FBRBDW6PLDQ8HU5ZAHD8XUR1D8CI","A14DC1USXBIRXU","3WPCIUYH1AU470H2HRBLZRFBM3CTDN","","","img/flower6.png","76","1064.1000000089407","3","1","3","",""
"null","","html-keyboard-response","116","369364","0.0-116.0","33FBRBDW6PLDQ8HU5ZAHD8XUR1D8CI","A14DC1USXBIRXU","3WPCIUYH1AU470H2HRBLZRFBM3CTDN","","","<img src=""img/flower6.png"" style=""width:200px; border:14px solid green;"">","null","","","","","",""
"912.2999999970198","","image-keyboard-response","117","370281","0.0-117.0","33FBRBDW6PLDQ8HU5ZAHD8XUR1D8CI","A14DC1USXBIRXU","3WPCIUYH1AU470H2HRBLZRFBM3CTDN","","","img/flower5.png","75","920.1000000089407","2","1","2","",""
"null","","html-keyboard-response","118","370596","0.0-118.0","33FBRBDW6PLDQ8HU5ZAHD8XUR1D8CI","A14DC1USXBIRXU","3WPCIUYH1AU470H2HRBLZRFBM3CTDN","","","<img src=""img/flower5.png"" style=""width:200px; border:14px solid green;"">","null","","","","","",""
"993.7000000029802","","image-keyboard-response","119","371636","0.0-119.0","33FBRBDW6PLDQ8HU5ZAHD8XUR1D8CI","A14DC1USXBIRXU","3WPCIUYH1AU470H2HRBLZRFBM3CTDN","","","img/flower4.png","74","1039.5","1","1","1","",""
"null","","html-keyboard-response","120","371960","0.0-120.0","33FBRBDW6PLDQ8HU5ZAHD8XUR1D8CI","A14DC1USXBIRXU","3WPCIUYH1AU470H2HRBLZRFBM3CTDN","","","<img src=""img/flower4.png"" style=""width:200px; border:14px solid green;"">","null","","","","","",""
"1095.6000000089407","","image-keyboard-response","121","373058","0.0-121.0","33FBRBDW6PLDQ8HU5ZAHD8XUR1D8CI","A14DC1USXBIRXU","3WPCIUYH1AU470H2HRBLZRFBM3CTDN","","","img/flower5.png","75","1097.4000000059605","2","1","2","",""
"null","","html-keyboard-response","122","373381","0.0-122.0","33FBRBDW6PLDQ8HU5ZAHD8XUR1D8CI","A14DC1USXBIRXU","3WPCIUYH1AU470H2HRBLZRFBM3CTDN","","","<img src=""img/flower5.png"" style=""width:200px; border:14px solid green;"">","null","","","","","",""
"877.5","","image-keyboard-response","123","374261","0.0-123.0","33FBRBDW6PLDQ8HU5ZAHD8XUR1D8CI","A14DC1USXBIRXU","3WPCIUYH1AU470H2HRBLZRFBM3CTDN","","","img/flower6.png","76","879.4000000059605","3","1","3","",""
"null","","html-keyboard-response","124","374574","0.0-124.0","33FBRBDW6PLDQ8HU5ZAHD8XUR1D8CI","A14DC1USXBIRXU","3WPCIUYH1AU470H2HRBLZRFBM3CTDN","","","<img src=""img/flower6.png"" style=""width:200px; border:14px solid green;"">","null","","","","","",""
"3776.7000000029802","","instructions","125","378354","0.0-125.0","33FBRBDW6PLDQ8HU5ZAHD8XUR1D8CI","A14DC1USXBIRXU","3WPCIUYH1AU470H2HRBLZRFBM3CTDN","","[{""page_index"":0,""viewing_time"":3775.2000000029802}]","","","","","","","",""
"5222.70000000298","","image-keyboard-response","126","383584","0.0-126.0","33FBRBDW6PLDQ8HU5ZAHD8XUR1D8CI","A14DC1USXBIRXU","3WPCIUYH1AU470H2HRBLZRFBM3CTDN","","","img/flower9.png","76","5228.5999999940395","3","0","1","0.6,0.6,0,0,0.6,0.6,0.6,0,0.6",""
"null","","html-keyboard-response","127","383904","0.0-127.0","33FBRBDW6PLDQ8HU5ZAHD8XUR1D8CI","A14DC1USXBIRXU","3WPCIUYH1AU470H2HRBLZRFBM3CTDN","","","<img src=""img/flower9.png"" style=""width:200px;border:14px solid red;"">","null","","","","","",""
"2355.5999999940395","","image-keyboard-response","128","386280","0.0-128.0","33FBRBDW6PLDQ8HU5ZAHD8XUR1D8CI","A14DC1USXBIRXU","3WPCIUYH1AU470H2HRBLZRFBM3CTDN","","","img/flower6.png","76","2365","3","0","3","0.6,0.6,0,0,0.6,0.6,0.6,0,0.6",""
"null","","html-keyboard-response","129","386594","0.0-129.0","33FBRBDW6PLDQ8HU5ZAHD8XUR1D8CI","A14DC1USXBIRXU","3WPCIUYH1AU470H2HRBLZRFBM3CTDN","","","<img src=""img/flower6.png"" style=""width:200px;border:14px solid red;"">","null","","","","","",""
"1119.2000000029802","","image-keyboard-response","130","387721","0.0-130.0","33FBRBDW6PLDQ8HU5ZAHD8XUR1D8CI","A14DC1USXBIRXU","3WPCIUYH1AU470H2HRBLZRFBM3CTDN","","","img/flower5.png","75","1127.0999999940395","2","0","2","0.6,0.6,0,0,0.6,0.6,0.6,0,0.6",""
"null","","html-keyboard-response","131","388037","0.0-131.0","33FBRBDW6PLDQ8HU5ZAHD8XUR1D8CI","A14DC1USXBIRXU","3WPCIUYH1AU470H2HRBLZRFBM3CTDN","","","<img src=""img/flower5.png"" style=""width:200px;border:14px solid red;"">","null","","","","","",""
"2336","","image-keyboard-response","132","390387","0.0-132.0","33FBRBDW6PLDQ8HU5ZAHD8XUR1D8CI","A14DC1USXBIRXU","3WPCIUYH1AU470H2HRBLZRFBM3CTDN","","","img/flower9.png","74","2349.8999999910593","1","1","1","0.6,0.6,0,0,0.6,0.6,0.6,0,0.6",""
"null","","html-keyboard-response","133","390694","0.0-133.0","33FBRBDW6PLDQ8HU5ZAHD8XUR1D8CI","A14DC1USXBIRXU","3WPCIUYH1AU470H2HRBLZRFBM3CTDN","","","<img src=""img/flower9.png"" style=""width:200px; border:14px solid green;"">","null","","","","","",""
"2860.7000000029802","","image-keyboard-response","134","393565","0.0-134.0","33FBRBDW6PLDQ8HU5ZAHD8XUR1D8CI","A14DC1USXBIRXU","3WPCIUYH1AU470H2HRBLZRFBM3CTDN","","","img/flower6.png","76","2871.2000000029802","3","1","3","0.6,0.6,0,0,0.6,0.6,0.6,0,0.6",""
"null","","html-keyboard-response","135","393881","0.0-135.0","33FBRBDW6PLDQ8HU5ZAHD8XUR1D8CI","A14DC1USXBIRXU","3WPCIUYH1AU470H2HRBLZRFBM3CTDN","","","<img src=""img/flower6.png"" style=""width:200px; border:14px solid green;"">","null","","","","","",""
"1276.5999999940395","","image-keyboard-response","136","395161","0.0-136.0","33FBRBDW6PLDQ8HU5ZAHD8XUR1D8CI","A14DC1USXBIRXU","3WPCIUYH1AU470H2HRBLZRFBM3CTDN","","","img/flower9.png","74","1279.699999988079","1","1","1","0.6,0.6,0,0,0.6,0.6,0.6,0,0.6",""
"null","","html-keyboard-response","137","395478","0.0-137.0","33FBRBDW6PLDQ8HU5ZAHD8XUR1D8CI","A14DC1USXBIRXU","3WPCIUYH1AU470H2HRBLZRFBM3CTDN","","","<img src=""img/flower9.png"" style=""width:200px; border:14px solid green;"">","null","","","","","",""
"1015.7000000029802","","image-keyboard-response","138","396497","0.0-138.0","33FBRBDW6PLDQ8HU5ZAHD8XUR1D8CI","A14DC1USXBIRXU","3WPCIUYH1AU470H2HRBLZRFBM3CTDN","","","img/flower6.png","76","1018.5","3","0","3","0.6,0.6,0,0,0.6,0.6,0.6,0,0.6",""
"null","","html-keyboard-response","139","396807","0.0-139.0","33FBRBDW6PLDQ8HU5ZAHD8XUR1D8CI","A14DC1USXBIRXU","3WPCIUYH1AU470H2HRBLZRFBM3CTDN","","","<img src=""img/flower6.png"" style=""width:200px;border:14px solid red;"">","null","","","","","",""
"2110.5999999940395","","image-keyboard-response","140","398921","0.0-140.0","33FBRBDW6PLDQ8HU5ZAHD8XUR1D8CI","A14DC1USXBIRXU","3WPCIUYH1AU470H2HRBLZRFBM3CTDN","","","img/flower5.png","75","2113.300000011921","2","0","2","0.6,0.6,0,0,0.6,0.6,0.6,0,0.6",""
"null","","html-keyboard-response","141","399230","0.0-141.0","33FBRBDW6PLDQ8HU5ZAHD8XUR1D8CI","A14DC1USXBIRXU","3WPCIUYH1AU470H2HRBLZRFBM3CTDN","","","<img src=""img/flower5.png"" style=""width:200px;border:14px solid red;"">","null","","","","","",""
"1760.1000000089407","","image-keyboard-response","142","400992","0.0-142.0","33FBRBDW6PLDQ8HU5ZAHD8XUR1D8CI","A14DC1USXBIRXU","3WPCIUYH1AU470H2HRBLZRFBM3CTDN","","","img/flower6.png","76","1762.3999999910593","3","0","3","0.6,0.6,0,0,0.6,0.6,0.6,0,0.6",""
"null","","html-keyboard-response","143","401308","0.0-143.0","33FBRBDW6PLDQ8HU5ZAHD8XUR1D8CI","A14DC1USXBIRXU","3WPCIUYH1AU470H2HRBLZRFBM3CTDN","","","<img src=""img/flower6.png"" style=""width:200px;border:14px solid red;"">","null","","","","","",""
"1214.8999999910593","","image-keyboard-response","144","402533","0.0-144.0","33FBRBDW6PLDQ8HU5ZAHD8XUR1D8CI","A14DC1USXBIRXU","3WPCIUYH1AU470H2HRBLZRFBM3CTDN","","","img/flower5.png","74","1224","1","0","2","0.6,0.6,0,0,0.6,0.6,0.6,0,0.6",""
"null","","html-keyboard-response","145","402854","0.0-145.0","33FBRBDW6PLDQ8HU5ZAHD8XUR1D8CI","A14DC1USXBIRXU","3WPCIUYH1AU470H2HRBLZRFBM3CTDN","","","<img src=""img/flower5.png"" style=""width:200px;border:14px solid red;"">","null","","","","","",""
"1749.6000000089407","","image-keyboard-response","146","404615","0.0-146.0","33FBRBDW6PLDQ8HU5ZAHD8XUR1D8CI","A14DC1USXBIRXU","3WPCIUYH1AU470H2HRBLZRFBM3CTDN","","","img/flower9.png","74","1760.2999999970198","1","1","1","0.6,0.6,0,0,0.6,0.6,0.6,0,0.6",""
"null","","html-keyboard-response","147","404943","0.0-147.0","33FBRBDW6PLDQ8HU5ZAHD8XUR1D8CI","A14DC1USXBIRXU","3WPCIUYH1AU470H2HRBLZRFBM3CTDN","","","<img src=""img/flower9.png"" style=""width:200px; border:14px solid green;"">","null","","","","","",""
"1680","","image-keyboard-response","148","406641","0.0-148.0","33FBRBDW6PLDQ8HU5ZAHD8XUR1D8CI","A14DC1USXBIRXU","3WPCIUYH1AU470H2HRBLZRFBM3CTDN","","","img/flower5.png","75","1697.1000000089407","2","0","2","0.6,0.6,0,0,0.6,0.6,0.6,0,0.6",""
"null","","html-keyboard-response","149","406949","0.0-149.0","33FBRBDW6PLDQ8HU5ZAHD8XUR1D8CI","A14DC1USXBIRXU","3WPCIUYH1AU470H2HRBLZRFBM3CTDN","","","<img src=""img/flower5.png"" style=""width:200px;border:14px solid red;"">","null","","","","","",""
"922.0999999940395","","image-keyboard-response","150","407878","0.0-150.0","33FBRBDW6PLDQ8HU5ZAHD8XUR1D8CI","A14DC1USXBIRXU","3WPCIUYH1AU470H2HRBLZRFBM3CTDN","","","img/flower5.png","76","924.7999999970198","3","0","2","0.6,0.6,0,0,0.6,0.6,0.6,0,0.6",""
"null","","html-keyboard-response","151","408190","0.0-151.0","33FBRBDW6PLDQ8HU5ZAHD8XUR1D8CI","A14DC1USXBIRXU","3WPCIUYH1AU470H2HRBLZRFBM3CTDN","","","<img src=""img/flower5.png"" style=""width:200px;border:14px solid red;"">","null","","","","","",""
"1028.7000000029802","","image-keyboard-response","152","409232","0.0-152.0","33FBRBDW6PLDQ8HU5ZAHD8XUR1D8CI","A14DC1USXBIRXU","3WPCIUYH1AU470H2HRBLZRFBM3CTDN","","","img/flower9.png","74","1041","1","1","1","0.6,0.6,0,0,0.6,0.6,0.6,0,0.6",""
"null","","html-keyboard-response","153","409541","0.0-153.0","33FBRBDW6PLDQ8HU5ZAHD8XUR1D8CI","A14DC1USXBIRXU","3WPCIUYH1AU470H2HRBLZRFBM3CTDN","","","<img src=""img/flower9.png"" style=""width:200px; border:14px solid green;"">","null","","","","","",""
"3223.5","","image-keyboard-response","154","412769","0.0-154.0","33FBRBDW6PLDQ8HU5ZAHD8XUR1D8CI","A14DC1USXBIRXU","3WPCIUYH1AU470H2HRBLZRFBM3CTDN","","","img/flower9.png","74","3227.7999999970198","1","1","1","0.6,0.6,0,0,0.6,0.6,0.6,0,0.6",""
"null","","html-keyboard-response","155","413077","0.0-155.0","33FBRBDW6PLDQ8HU5ZAHD8XUR1D8CI","A14DC1USXBIRXU","3WPCIUYH1AU470H2HRBLZRFBM3CTDN","","","<img src=""img/flower9.png"" style=""width:200px; border:14px solid green;"">","null","","","","","",""
"1672.7999999970198","","image-keyboard-response","156","414765","0.0-156.0","33FBRBDW6PLDQ8HU5ZAHD8XUR1D8CI","A14DC1USXBIRXU","3WPCIUYH1AU470H2HRBLZRFBM3CTDN","","","img/flower5.png","76","1685.2999999970198","3","0","2","0.6,0.6,0,0,0.6,0.6,0.6,0,0.6",""
"null","","html-keyboard-response","157","415097","0.0-157.0","33FBRBDW6PLDQ8HU5ZAHD8XUR1D8CI","A14DC1USXBIRXU","3WPCIUYH1AU470H2HRBLZRFBM3CTDN","","","<img src=""img/flower5.png"" style=""width:200px;border:14px solid red;"">","null","","","","","",""
"1463.800000011921","","image-keyboard-response","158","416571","0.0-158.0","33FBRBDW6PLDQ8HU5ZAHD8XUR1D8CI","A14DC1USXBIRXU","3WPCIUYH1AU470H2HRBLZRFBM3CTDN","","","img/flower6.png","75","1469","2","0","3","0.6,0.6,0,0,0.6,0.6,0.6,0,0.6",""
"null","","html-keyboard-response","159","416890","0.0-159.0","33FBRBDW6PLDQ8HU5ZAHD8XUR1D8CI","A14DC1USXBIRXU","3WPCIUYH1AU470H2HRBLZRFBM3CTDN","","","<img src=""img/flower6.png"" style=""width:200px;border:14px solid red;"">","null","","","","","",""
"1553.800000011921","","image-keyboard-response","160","418465","0.0-160.0","33FBRBDW6PLDQ8HU5ZAHD8XUR1D8CI","A14DC1USXBIRXU","3WPCIUYH1AU470H2HRBLZRFBM3CTDN","","","img/flower6.png","76","1560.4000000059605","3","1","3","0.6,0.6,0,0,0.6,0.6,0.6,0,0.6",""
"null","","html-keyboard-response","161","418774","0.0-161.0","33FBRBDW6PLDQ8HU5ZAHD8XUR1D8CI","A14DC1USXBIRXU","3WPCIUYH1AU470H2HRBLZRFBM3CTDN","","","<img src=""img/flower6.png"" style=""width:200px; border:14px solid green;"">","null","","","","","",""
"2202.7999999970198","","image-keyboard-response","162","420985","0.0-162.0","33FBRBDW6PLDQ8HU5ZAHD8XUR1D8CI","A14DC1USXBIRXU","3WPCIUYH1AU470H2HRBLZRFBM3CTDN","","","img/flower5.png","75","2210","2","1","2","0.6,0.6,0,0,0.6,0.6,0.6,0,0.6",""
"null","","html-keyboard-response","163","421294","0.0-163.0","33FBRBDW6PLDQ8HU5ZAHD8XUR1D8CI","A14DC1USXBIRXU","3WPCIUYH1AU470H2HRBLZRFBM3CTDN","","","<img src=""img/flower5.png"" style=""width:200px; border:14px solid green;"">","null","","","","","",""
"1156.4000000059605","","image-keyboard-response","164","422484","0.0-164.0","33FBRBDW6PLDQ8HU5ZAHD8XUR1D8CI","A14DC1USXBIRXU","3WPCIUYH1AU470H2HRBLZRFBM3CTDN","","","img/flower5.png","75","1188.7000000029802","2","1","2","0.6,0.6,0,0,0.6,0.6,0.6,0,0.6",""
"null","","html-keyboard-response","165","422854","0.0-165.0","33FBRBDW6PLDQ8HU5ZAHD8XUR1D8CI","A14DC1USXBIRXU","3WPCIUYH1AU470H2HRBLZRFBM3CTDN","","","<img src=""img/flower5.png"" style=""width:200px; border:14px solid green;"">","null","","","","","",""
"1713","","image-keyboard-response","166","424626","0.0-166.0","33FBRBDW6PLDQ8HU5ZAHD8XUR1D8CI","A14DC1USXBIRXU","3WPCIUYH1AU470H2HRBLZRFBM3CTDN","","","img/flower6.png","76","1771.4000000059605","3","0","3","0.6,0.6,0,0,0.6,0.6,0.6,0,0.6",""
"null","","html-keyboard-response","167","424949","0.0-167.0","33FBRBDW6PLDQ8HU5ZAHD8XUR1D8CI","A14DC1USXBIRXU","3WPCIUYH1AU470H2HRBLZRFBM3CTDN","","","<img src=""img/flower6.png"" style=""width:200px;border:14px solid red;"">","null","","","","","",""
"1501.7999999970198","","image-keyboard-response","168","426465","0.0-168.0","33FBRBDW6PLDQ8HU5ZAHD8XUR1D8CI","A14DC1USXBIRXU","3WPCIUYH1AU470H2HRBLZRFBM3CTDN","","","img/flower9.png","74","1508.5","1","1","1","0.6,0.6,0,0,0.6,0.6,0.6,0,0.6",""
"null","","html-keyboard-response","169","426775","0.0-169.0","33FBRBDW6PLDQ8HU5ZAHD8XUR1D8CI","A14DC1USXBIRXU","3WPCIUYH1AU470H2HRBLZRFBM3CTDN","","","<img src=""img/flower9.png"" style=""width:200px; border:14px solid green;"">","null","","","","","",""
"1390","","image-keyboard-response","170","428177","0.0-170.0","33FBRBDW6PLDQ8HU5ZAHD8XUR1D8CI","A14DC1USXBIRXU","3WPCIUYH1AU470H2HRBLZRFBM3CTDN","","","img/flower9.png","74","1402.1000000089407","1","0","1","0.6,0.6,0,0,0.6,0.6,0.6,0,0.6",""
"null","","html-keyboard-response","171","428486","0.0-171.0","33FBRBDW6PLDQ8HU5ZAHD8XUR1D8CI","A14DC1USXBIRXU","3WPCIUYH1AU470H2HRBLZRFBM3CTDN","","","<img src=""img/flower9.png"" style=""width:200px;border:14px solid red;"">","null","","","","","",""
"1428.7000000029802","","image-keyboard-response","172","429928","0.0-172.0","33FBRBDW6PLDQ8HU5ZAHD8XUR1D8CI","A14DC1USXBIRXU","3WPCIUYH1AU470H2HRBLZRFBM3CTDN","","","img/flower9.png","74","1441.7000000029802","1","1","1","0.6,0.6,0,0,0.6,0.6,0.6,0,0.6",""
"null","","html-keyboard-response","173","430256","0.0-173.0","33FBRBDW6PLDQ8HU5ZAHD8XUR1D8CI","A14DC1USXBIRXU","3WPCIUYH1AU470H2HRBLZRFBM3CTDN","","","<img src=""img/flower9.png"" style=""width:200px; border:14px solid green;"">","null","","","","","",""
"1063.7999999970198","","image-keyboard-response","174","431334","0.0-174.0","33FBRBDW6PLDQ8HU5ZAHD8XUR1D8CI","A14DC1USXBIRXU","3WPCIUYH1AU470H2HRBLZRFBM3CTDN","","","img/flower5.png","75","1078.2000000029802","2","1","2","0.6,0.6,0,0,0.6,0.6,0.6,0,0.6",""
"null","","html-keyboard-response","175","431646","0.0-175.0","33FBRBDW6PLDQ8HU5ZAHD8XUR1D8CI","A14DC1USXBIRXU","3WPCIUYH1AU470H2HRBLZRFBM3CTDN","","","<img src=""img/flower5.png"" style=""width:200px; border:14px solid green;"">","null","","","","","",""
"1121.2999999970198","","image-keyboard-response","176","432778","0.0-176.0","33FBRBDW6PLDQ8HU5ZAHD8XUR1D8CI","A14DC1USXBIRXU","3WPCIUYH1AU470H2HRBLZRFBM3CTDN","","","img/flower5.png","75","1127.5","2","0","2","0.6,0.6,0,0,0.6,0.6,0.6,0,0.6",""
"null","","html-keyboard-response","177","433085","0.0-177.0","33FBRBDW6PLDQ8HU5ZAHD8XUR1D8CI","A14DC1USXBIRXU","3WPCIUYH1AU470H2HRBLZRFBM3CTDN","","","<img src=""img/flower5.png"" style=""width:200px;border:14px solid red;"">","null","","","","","",""
"1145.6000000089407","","image-keyboard-response","178","434236","0.0-178.0","33FBRBDW6PLDQ8HU5ZAHD8XUR1D8CI","A14DC1USXBIRXU","3WPCIUYH1AU470H2HRBLZRFBM3CTDN","","","img/flower5.png","76","1153.1000000089407","3","0","2","0.6,0.6,0,0,0.6,0.6,0.6,0,0.6",""
"null","","html-keyboard-response","179","434598","0.0-179.0","33FBRBDW6PLDQ8HU5ZAHD8XUR1D8CI","A14DC1USXBIRXU","3WPCIUYH1AU470H2HRBLZRFBM3CTDN","","","<img src=""img/flower5.png"" style=""width:200px;border:14px solid red;"">","null","","","","","",""
"1606.2999999970198","","image-keyboard-response","180","436240","0.0-180.0","33FBRBDW6PLDQ8HU5ZAHD8XUR1D8CI","A14DC1USXBIRXU","3WPCIUYH1AU470H2HRBLZRFBM3CTDN","","","img/flower5.png","75","1635.800000011921","2","1","2","0.6,0.6,0,0,0.6,0.6,0.6,0,0.6",""
"null","","html-keyboard-response","181","436571","0.0-181.0","33FBRBDW6PLDQ8HU5ZAHD8XUR1D8CI","A14DC1USXBIRXU","3WPCIUYH1AU470H2HRBLZRFBM3CTDN","","","<img src=""img/flower5.png"" style=""width:200px; border:14px solid green;"">","null","","","","","",""
"2397.5","","image-keyboard-response","182","438974","0.0-182.0","33FBRBDW6PLDQ8HU5ZAHD8XUR1D8CI","A14DC1USXBIRXU","3WPCIUYH1AU470H2HRBLZRFBM3CTDN","","","img/flower5.png","75","2402.5","2","0","2","0.6,0.6,0,0,0.6,0.6,0.6,0,0.6",""
"null","","html-keyboard-response","183","439278","0.0-183.0","33FBRBDW6PLDQ8HU5ZAHD8XUR1D8CI","A14DC1USXBIRXU","3WPCIUYH1AU470H2HRBLZRFBM3CTDN","","","<img src=""img/flower5.png"" style=""width:200px;border:14px solid red;"">","null","","","","","",""
"967.7000000029802","","image-keyboard-response","184","440248","0.0-184.0","33FBRBDW6PLDQ8HU5ZAHD8XUR1D8CI","A14DC1USXBIRXU","3WPCIUYH1AU470H2HRBLZRFBM3CTDN","","","img/flower6.png","76","970","3","1","3","0.6,0.6,0,0,0.6,0.6,0.6,0,0.6",""
"null","","html-keyboard-response","185","440566","0.0-185.0","33FBRBDW6PLDQ8HU5ZAHD8XUR1D8CI","A14DC1USXBIRXU","3WPCIUYH1AU470H2HRBLZRFBM3CTDN","","","<img src=""img/flower6.png"" style=""width:200px; border:14px solid green;"">","null","","","","","",""
"1929.0999999940395","","image-keyboard-response","186","442502","0.0-186.0","33FBRBDW6PLDQ8HU5ZAHD8XUR1D8CI","A14DC1USXBIRXU","3WPCIUYH1AU470H2HRBLZRFBM3CTDN","","","img/flower9.png","74","1935.5999999940395","1","0","1","0.6,0.6,0,0,0.6,0.6,0.6,0,0.6",""
"null","","html-keyboard-response","187","442826","0.0-187.0","33FBRBDW6PLDQ8HU5ZAHD8XUR1D8CI","A14DC1USXBIRXU","3WPCIUYH1AU470H2HRBLZRFBM3CTDN","","","<img src=""img/flower9.png"" style=""width:200px;border:14px solid red;"">","null","","","","","",""
"3554","","image-keyboard-response","188","446393","0.0-188.0","33FBRBDW6PLDQ8HU5ZAHD8XUR1D8CI","A14DC1USXBIRXU","3WPCIUYH1AU470H2HRBLZRFBM3CTDN","","","img/flower5.png","75","3560.2999999970198","2","0","2","0.6,0.6,0,0,0.6,0.6,0.6,0,0.6",""
"null","","html-keyboard-response","189","446702","0.0-189.0","33FBRBDW6PLDQ8HU5ZAHD8XUR1D8CI","A14DC1USXBIRXU","3WPCIUYH1AU470H2HRBLZRFBM3CTDN","","","<img src=""img/flower5.png"" style=""width:200px;border:14px solid red;"">","null","","","","","",""
"1001.7000000029802","","image-keyboard-response","190","447708","0.0-190.0","33FBRBDW6PLDQ8HU5ZAHD8XUR1D8CI","A14DC1USXBIRXU","3WPCIUYH1AU470H2HRBLZRFBM3CTDN","","","img/flower5.png","75","1004","2","1","2","0.6,0.6,0,0,0.6,0.6,0.6,0,0.6",""
"null","","html-keyboard-response","191","448074","0.0-191.0","33FBRBDW6PLDQ8HU5ZAHD8XUR1D8CI","A14DC1USXBIRXU","3WPCIUYH1AU470H2HRBLZRFBM3CTDN","","","<img src=""img/flower5.png"" style=""width:200px; border:14px solid green;"">","null","","","","","",""
"1298.7000000029802","","image-keyboard-response","192","449398","0.0-192.0","33FBRBDW6PLDQ8HU5ZAHD8XUR1D8CI","A14DC1USXBIRXU","3WPCIUYH1AU470H2HRBLZRFBM3CTDN","","","img/flower6.png","76","1324.2000000029802","3","1","3","0.6,0.6,0,0,0.6,0.6,0.6,0,0.6",""
"null","","html-keyboard-response","193","449710","0.0-193.0","33FBRBDW6PLDQ8HU5ZAHD8XUR1D8CI","A14DC1USXBIRXU","3WPCIUYH1AU470H2HRBLZRFBM3CTDN","","","<img src=""img/flower6.png"" style=""width:200px; border:14px solid green;"">","null","","","","","",""
"1150.7000000029802","","image-keyboard-response","194","450864","0.0-194.0","33FBRBDW6PLDQ8HU5ZAHD8XUR1D8CI","A14DC1USXBIRXU","3WPCIUYH1AU470H2HRBLZRFBM3CTDN","","","img/flower5.png","75","1154.199999988079","2","1","2","0.6,0.6,0,0,0.6,0.6,0.6,0,0.6",""
"null","","html-keyboard-response","195","451174","0.0-195.0","33FBRBDW6PLDQ8HU5ZAHD8XUR1D8CI","A14DC1USXBIRXU","3WPCIUYH1AU470H2HRBLZRFBM3CTDN","","","<img src=""img/flower5.png"" style=""width:200px; border:14px solid green;"">","null","","","","","",""
"1044","","image-keyboard-response","196","452221","0.0-196.0","33FBRBDW6PLDQ8HU5ZAHD8XUR1D8CI","A14DC1USXBIRXU","3WPCIUYH1AU470H2HRBLZRFBM3CTDN","","","img/flower6.png","76","1046.800000011921","3","1","3","0.6,0.6,0,0,0.6,0.6,0.6,0,0.6",""
"null","","html-keyboard-response","197","452528","0.0-197.0","33FBRBDW6PLDQ8HU5ZAHD8XUR1D8CI","A14DC1USXBIRXU","3WPCIUYH1AU470H2HRBLZRFBM3CTDN","","","<img src=""img/flower6.png"" style=""width:200px; border:14px solid green;"">","null","","","","","",""
"987.9000000059605","","image-keyboard-response","198","453534","0.0-198.0","33FBRBDW6PLDQ8HU5ZAHD8XUR1D8CI","A14DC1USXBIRXU","3WPCIUYH1AU470H2HRBLZRFBM3CTDN","","","img/flower6.png","76","1003.8000000119209","3","0","3","0.6,0.6,0,0,0.6,0.6,0.6,0,0.6",""
"null","","html-keyboard-response","199","453846","0.0-199.0","33FBRBDW6PLDQ8HU5ZAHD8XUR1D8CI","A14DC1USXBIRXU","3WPCIUYH1AU470H2HRBLZRFBM3CTDN","","","<img src=""img/flower6.png"" style=""width:200px;border:14px solid red;"">","null","","","","","",""
"3806.8999999910593","","image-keyboard-response","200","457658","0.0-200.0","33FBRBDW6PLDQ8HU5ZAHD8XUR1D8CI","A14DC1USXBIRXU","3WPCIUYH1AU470H2HRBLZRFBM3CTDN","","","img/flower6.png","76","3811.7999999970198","3","0","3","0.6,0.6,0,0,0.6,0.6,0.6,0,0.6",""
"null","","html-keyboard-response","201","457985","0.0-201.0","33FBRBDW6PLDQ8HU5ZAHD8XUR1D8CI","A14DC1USXBIRXU","3WPCIUYH1AU470H2HRBLZRFBM3CTDN","","","<img src=""img/flower6.png"" style=""width:200px;border:14px solid red;"">","null","","","","","",""
"2316.4000000059605","","image-keyboard-response","202","460307","0.0-202.0","33FBRBDW6PLDQ8HU5ZAHD8XUR1D8CI","A14DC1USXBIRXU","3WPCIUYH1AU470H2HRBLZRFBM3CTDN","","","img/flower5.png","75","2321.2999999970198","2","1","2","0.6,0.6,0,0,0.6,0.6,0.6,0,0.6",""
"null","","html-keyboard-response","203","460621","0.0-203.0","33FBRBDW6PLDQ8HU5ZAHD8XUR1D8CI","A14DC1USXBIRXU","3WPCIUYH1AU470H2HRBLZRFBM3CTDN","","","<img src=""img/flower5.png"" style=""width:200px; border:14px solid green;"">","null","","","","","",""
"2428.3999999910593","","image-keyboard-response","204","463063","0.0-204.0","33FBRBDW6PLDQ8HU5ZAHD8XUR1D8CI","A14DC1USXBIRXU","3WPCIUYH1AU470H2HRBLZRFBM3CTDN","","","img/flower9.png","74","2454","1","1","1","0.6,0.6,0,0,0.6,0.6,0.6,0,0.6",""
"null","","html-keyboard-response","205","463399","0.0-205.0","33FBRBDW6PLDQ8HU5ZAHD8XUR1D8CI","A14DC1USXBIRXU","3WPCIUYH1AU470H2HRBLZRFBM3CTDN","","","<img src=""img/flower9.png"" style=""width:200px; border:14px solid green;"">","null","","","","","",""
"3843.5999999940395","","image-keyboard-response","206","467262","0.0-206.0","33FBRBDW6PLDQ8HU5ZAHD8XUR1D8CI","A14DC1USXBIRXU","3WPCIUYH1AU470H2HRBLZRFBM3CTDN","","","img/flower9.png","74","3867.2999999970198","1","1","1","0.6,0.6,0,0,0.6,0.6,0.6,0,0.6",""
"null","","html-keyboard-response","207","467590","0.0-207.0","33FBRBDW6PLDQ8HU5ZAHD8XUR1D8CI","A14DC1USXBIRXU","3WPCIUYH1AU470H2HRBLZRFBM3CTDN","","","<img src=""img/flower9.png"" style=""width:200px; border:14px solid green;"">","null","","","","","",""
"1133.9000000059605","","image-keyboard-response","208","468728","0.0-208.0","33FBRBDW6PLDQ8HU5ZAHD8XUR1D8CI","A14DC1USXBIRXU","3WPCIUYH1AU470H2HRBLZRFBM3CTDN","","","img/flower6.png","76","1138.0999999940395","3","0","3","0.6,0.6,0,0,0.6,0.6,0.6,0,0.6",""
"null","","html-keyboard-response","209","469037","0.0-209.0","33FBRBDW6PLDQ8HU5ZAHD8XUR1D8CI","A14DC1USXBIRXU","3WPCIUYH1AU470H2HRBLZRFBM3CTDN","","","<img src=""img/flower6.png"" style=""width:200px;border:14px solid red;"">","null","","","","","",""
"903","","image-keyboard-response","210","469942","0.0-210.0","33FBRBDW6PLDQ8HU5ZAHD8XUR1D8CI","A14DC1USXBIRXU","3WPCIUYH1AU470H2HRBLZRFBM3CTDN","","","img/flower9.png","74","904.5999999940395","1","0","1","0.6,0.6,0,0,0.6,0.6,0.6,0,0.6",""
"null","","html-keyboard-response","211","470254","0.0-211.0","33FBRBDW6PLDQ8HU5ZAHD8XUR1D8CI","A14DC1USXBIRXU","3WPCIUYH1AU470H2HRBLZRFBM3CTDN","","","<img src=""img/flower9.png"" style=""width:200px;border:14px solid red;"">","null","","","","","",""
"1422","","image-keyboard-response","212","471678","0.0-212.0","33FBRBDW6PLDQ8HU5ZAHD8XUR1D8CI","A14DC1USXBIRXU","3WPCIUYH1AU470H2HRBLZRFBM3CTDN","","","img/flower9.png","74","1423.9000000059605","1","1","1","0.6,0.6,0,0,0.6,0.6,0.6,0,0.6",""
"null","","html-keyboard-response","213","471980","0.0-213.0","33FBRBDW6PLDQ8HU5ZAHD8XUR1D8CI","A14DC1USXBIRXU","3WPCIUYH1AU470H2HRBLZRFBM3CTDN","","","<img src=""img/flower9.png"" style=""width:200px; border:14px solid green;"">","null","","","","","",""
"1331.7999999970198","","image-keyboard-response","214","473318","0.0-214.0","33FBRBDW6PLDQ8HU5ZAHD8XUR1D8CI","A14DC1USXBIRXU","3WPCIUYH1AU470H2HRBLZRFBM3CTDN","","","img/flower5.png","75","1337.7000000029802","2","0","2","0.6,0.6,0,0,0.6,0.6,0.6,0,0.6",""
"null","","html-keyboard-response","215","473621","0.0-215.0","33FBRBDW6PLDQ8HU5ZAHD8XUR1D8CI","A14DC1USXBIRXU","3WPCIUYH1AU470H2HRBLZRFBM3CTDN","","","<img src=""img/flower5.png"" style=""width:200px;border:14px solid red;"">","null","","","","","",""
"2482.7000000029802","","image-keyboard-response","216","476105","0.0-216.0","33FBRBDW6PLDQ8HU5ZAHD8XUR1D8CI","A14DC1USXBIRXU","3WPCIUYH1AU470H2HRBLZRFBM3CTDN","","","img/flower5.png","75","2483.8999999910593","2","0","2","0.6,0.6,0,0,0.6,0.6,0.6,0,0.6",""
"null","","html-keyboard-response","217","476414","0.0-217.0","33FBRBDW6PLDQ8HU5ZAHD8XUR1D8CI","A14DC1USXBIRXU","3WPCIUYH1AU470H2HRBLZRFBM3CTDN","","","<img src=""img/flower5.png"" style=""width:200px;border:14px solid red;"">","null","","","","","",""
"967.2999999970198","","image-keyboard-response","218","477391","0.0-218.0","33FBRBDW6PLDQ8HU5ZAHD8XUR1D8CI","A14DC1USXBIRXU","3WPCIUYH1AU470H2HRBLZRFBM3CTDN","","","img/flower6.png","76","977.0999999940395","3","1","3","0.6,0.6,0,0,0.6,0.6,0.6,0,0.6",""
"null","","html-keyboard-response","219","477701","0.0-219.0","33FBRBDW6PLDQ8HU5ZAHD8XUR1D8CI","A14DC1USXBIRXU","3WPCIUYH1AU470H2HRBLZRFBM3CTDN","","","<img src=""img/flower6.png"" style=""width:200px; border:14px solid green;"">","null","","","","","",""
"841.7999999970198","","image-keyboard-response","220","478546","0.0-220.0","33FBRBDW6PLDQ8HU5ZAHD8XUR1D8CI","A14DC1USXBIRXU","3WPCIUYH1AU470H2HRBLZRFBM3CTDN","","","img/flower9.png","74","844","1","1","1","0.6,0.6,0,0,0.6,0.6,0.6,0,0.6",""
"null","","html-keyboard-response","221","478855","0.0-221.0","33FBRBDW6PLDQ8HU5ZAHD8XUR1D8CI","A14DC1USXBIRXU","3WPCIUYH1AU470H2HRBLZRFBM3CTDN","","","<img src=""img/flower9.png"" style=""width:200px; border:14px solid green;"">","null","","","","","",""
"962.3999999910593","","image-keyboard-response","222","479822","0.0-222.0","33FBRBDW6PLDQ8HU5ZAHD8XUR1D8CI","A14DC1USXBIRXU","3WPCIUYH1AU470H2HRBLZRFBM3CTDN","","","img/flower6.png","76","965.7000000029802","3","1","3","0.6,0.6,0,0,0.6,0.6,0.6,0,0.6",""
"null","","html-keyboard-response","223","480128","0.0-223.0","33FBRBDW6PLDQ8HU5ZAHD8XUR1D8CI","A14DC1USXBIRXU","3WPCIUYH1AU470H2HRBLZRFBM3CTDN","","","<img src=""img/flower6.png"" style=""width:200px; border:14px solid green;"">","null","","","","","",""
"899.2000000029802","","image-keyboard-response","224","481036","0.0-224.0","33FBRBDW6PLDQ8HU5ZAHD8XUR1D8CI","A14DC1USXBIRXU","3WPCIUYH1AU470H2HRBLZRFBM3CTDN","","","img/flower9.png","74","907.6000000089407","1","1","1","0.6,0.6,0,0,0.6,0.6,0.6,0,0.6",""
"null","","html-keyboard-response","225","481350","0.0-225.0","33FBRBDW6PLDQ8HU5ZAHD8XUR1D8CI","A14DC1USXBIRXU","3WPCIUYH1AU470H2HRBLZRFBM3CTDN","","","<img src=""img/flower9.png"" style=""width:200px; border:14px solid green;"">","null","","","","","",""
"1876","","image-keyboard-response","226","483249","0.0-226.0","33FBRBDW6PLDQ8HU5ZAHD8XUR1D8CI","A14DC1USXBIRXU","3WPCIUYH1AU470H2HRBLZRFBM3CTDN","","","img/flower6.png","76","1895.7000000029802","3","1","3","0.6,0.6,0,0,0.6,0.6,0.6,0,0.6",""
"null","","html-keyboard-response","227","483565","0.0-227.0","33FBRBDW6PLDQ8HU5ZAHD8XUR1D8CI","A14DC1USXBIRXU","3WPCIUYH1AU470H2HRBLZRFBM3CTDN","","","<img src=""img/flower6.png"" style=""width:200px; border:14px solid green;"">","null","","","","","",""
"1094.7999999970198","","image-keyboard-response","228","484666","0.0-228.0","33FBRBDW6PLDQ8HU5ZAHD8XUR1D8CI","A14DC1USXBIRXU","3WPCIUYH1AU470H2HRBLZRFBM3CTDN","","","img/flower6.png","76","1100.5","3","1","3","0.6,0.6,0,0,0.6,0.6,0.6,0,0.6",""
"null","","html-keyboard-response","229","484977","0.0-229.0","33FBRBDW6PLDQ8HU5ZAHD8XUR1D8CI","A14DC1USXBIRXU","3WPCIUYH1AU470H2HRBLZRFBM3CTDN","","","<img src=""img/flower6.png"" style=""width:200px; border:14px solid green;"">","null","","","","","",""
"903.2999999970198","","image-keyboard-response","230","485885","0.0-230.0","33FBRBDW6PLDQ8HU5ZAHD8XUR1D8CI","A14DC1USXBIRXU","3WPCIUYH1AU470H2HRBLZRFBM3CTDN","","","img/flower9.png","74","907.6000000089407","1","1","1","0.6,0.6,0,0,0.6,0.6,0.6,0,0.6",""
"null","","html-keyboard-response","231","486197","0.0-231.0","33FBRBDW6PLDQ8HU5ZAHD8XUR1D8CI","A14DC1USXBIRXU","3WPCIUYH1AU470H2HRBLZRFBM3CTDN","","","<img src=""img/flower9.png"" style=""width:200px; border:14px solid green;"">","null","","","","","",""
"1026.9000000059605","","image-keyboard-response","232","487228","0.0-232.0","33FBRBDW6PLDQ8HU5ZAHD8XUR1D8CI","A14DC1USXBIRXU","3WPCIUYH1AU470H2HRBLZRFBM3CTDN","","","img/flower5.png","74","1031.1000000089407","1","0","2","0.6,0.6,0,0,0.6,0.6,0.6,0,0.6",""
"null","","html-keyboard-response","233","487558","0.0-233.0","33FBRBDW6PLDQ8HU5ZAHD8XUR1D8CI","A14DC1USXBIRXU","3WPCIUYH1AU470H2HRBLZRFBM3CTDN","","","<img src=""img/flower5.png"" style=""width:200px;border:14px solid red;"">","null","","","","","",""
"1021.0999999940395","","image-keyboard-response","234","488580","0.0-234.0","33FBRBDW6PLDQ8HU5ZAHD8XUR1D8CI","A14DC1USXBIRXU","3WPCIUYH1AU470H2HRBLZRFBM3CTDN","","","img/flower6.png","76","1022.2000000029802","3","0","3","0.6,0.6,0,0,0.6,0.6,0.6,0,0.6",""
"null","","html-keyboard-response","235","488893","0.0-235.0","33FBRBDW6PLDQ8HU5ZAHD8XUR1D8CI","A14DC1USXBIRXU","3WPCIUYH1AU470H2HRBLZRFBM3CTDN","","","<img src=""img/flower6.png"" style=""width:200px;border:14px solid red;"">","null","","","","","",""
"1364.300000011921","","image-keyboard-response","236","490261","0.0-236.0","33FBRBDW6PLDQ8HU5ZAHD8XUR1D8CI","A14DC1USXBIRXU","3WPCIUYH1AU470H2HRBLZRFBM3CTDN","","","img/flower6.png","76","1367.3999999910593","3","0","3","0.6,0.6,0,0,0.6,0.6,0.6,0,0.6",""
"null","","html-keyboard-response","237","490566","0.0-237.0","33FBRBDW6PLDQ8HU5ZAHD8XUR1D8CI","A14DC1USXBIRXU","3WPCIUYH1AU470H2HRBLZRFBM3CTDN","","","<img src=""img/flower6.png"" style=""width:200px;border:14px solid red;"">","null","","","","","",""
"1252.7000000029802","","image-keyboard-response","238","491820","0.0-238.0","33FBRBDW6PLDQ8HU5ZAHD8XUR1D8CI","A14DC1USXBIRXU","3WPCIUYH1AU470H2HRBLZRFBM3CTDN","","","img/flower5.png","75","1254","2","1","2","0.6,0.6,0,0,0.6,0.6,0.6,0,0.6",""
"null","","html-keyboard-response","239","492132","0.0-239.0","33FBRBDW6PLDQ8HU5ZAHD8XUR1D8CI","A14DC1USXBIRXU","3WPCIUYH1AU470H2HRBLZRFBM3CTDN","","","<img src=""img/flower5.png"" style=""width:200px; border:14px solid green;"">","null","","","","","",""
"831.6999999880791","","image-keyboard-response","240","492966","0.0-240.0","33FBRBDW6PLDQ8HU5ZAHD8XUR1D8CI","A14DC1USXBIRXU","3WPCIUYH1AU470H2HRBLZRFBM3CTDN","","","img/flower9.png","74","833.8999999910593","1","1","1","0.6,0.6,0,0,0.6,0.6,0.6,0,0.6",""
"null","","html-keyboard-response","241","493279","0.0-241.0","33FBRBDW6PLDQ8HU5ZAHD8XUR1D8CI","A14DC1USXBIRXU","3WPCIUYH1AU470H2HRBLZRFBM3CTDN","","","<img src=""img/flower9.png"" style=""width:200px; border:14px solid green;"">","null","","","","","",""
"2276","","image-keyboard-response","242","495557","0.0-242.0","33FBRBDW6PLDQ8HU5ZAHD8XUR1D8CI","A14DC1USXBIRXU","3WPCIUYH1AU470H2HRBLZRFBM3CTDN","","","img/flower6.png","74","2277.8999999910593","1","1","3","0.6,0.6,0,0,0.6,0.6,0.6,0,0.6",""
"null","","html-keyboard-response","243","495862","0.0-243.0","33FBRBDW6PLDQ8HU5ZAHD8XUR1D8CI","A14DC1USXBIRXU","3WPCIUYH1AU470H2HRBLZRFBM3CTDN","","","<img src=""img/flower6.png"" style=""width:200px; border:14px solid green;"">","null","","","","","",""
"1038.7999999970198","","image-keyboard-response","244","496904","0.0-244.0","33FBRBDW6PLDQ8HU5ZAHD8XUR1D8CI","A14DC1USXBIRXU","3WPCIUYH1AU470H2HRBLZRFBM3CTDN","","","img/flower6.png","74","1042.5","1","0","3","0.6,0.6,0,0,0.6,0.6,0.6,0,0.6",""
"null","","html-keyboard-response","245","497213","0.0-245.0","33FBRBDW6PLDQ8HU5ZAHD8XUR1D8CI","A14DC1USXBIRXU","3WPCIUYH1AU470H2HRBLZRFBM3CTDN","","","<img src=""img/flower6.png"" style=""width:200px;border:14px solid red;"">","null","","","","","",""
"2422.2999999970198","","image-keyboard-response","246","499637","0.0-246.0","33FBRBDW6PLDQ8HU5ZAHD8XUR1D8CI","A14DC1USXBIRXU","3WPCIUYH1AU470H2HRBLZRFBM3CTDN","","","img/flower5.png","76","2423.9000000059605","3","0","2","0.6,0.6,0,0,0.6,0.6,0.6,0,0.6",""
"null","","html-keyboard-response","247","499945","0.0-247.0","33FBRBDW6PLDQ8HU5ZAHD8XUR1D8CI","A14DC1USXBIRXU","3WPCIUYH1AU470H2HRBLZRFBM3CTDN","","","<img src=""img/flower5.png"" style=""width:200px;border:14px solid red;"">","null","","","","","",""
"2681.0999999940395","","image-keyboard-response","248","502629","0.0-248.0","33FBRBDW6PLDQ8HU5ZAHD8XUR1D8CI","A14DC1USXBIRXU","3WPCIUYH1AU470H2HRBLZRFBM3CTDN","","","img/flower6.png","76","2683.699999988079","3","0","3","0.6,0.6,0,0,0.6,0.6,0.6,0,0.6",""
"null","","html-keyboard-response","249","502934","0.0-249.0","33FBRBDW6PLDQ8HU5ZAHD8XUR1D8CI","A14DC1USXBIRXU","3WPCIUYH1AU470H2HRBLZRFBM3CTDN","","","<img src=""img/flower6.png"" style=""width:200px;border:14px solid red;"">","null","","","","","",""
"2460.3999999910593","","image-keyboard-response","250","505396","0.0-250.0","33FBRBDW6PLDQ8HU5ZAHD8XUR1D8CI","A14DC1USXBIRXU","3WPCIUYH1AU470H2HRBLZRFBM3CTDN","","","img/flower6.png","76","2462.2999999970198","3","1","3","0.6,0.6,0,0,0.6,0.6,0.6,0,0.6",""
"null","","html-keyboard-response","251","505702","0.0-251.0","33FBRBDW6PLDQ8HU5ZAHD8XUR1D8CI","A14DC1USXBIRXU","3WPCIUYH1AU470H2HRBLZRFBM3CTDN","","","<img src=""img/flower6.png"" style=""width:200px; border:14px solid green;"">","null","","","","","",""
"1247.2000000029802","","image-keyboard-response","252","506950","0.0-252.0","33FBRBDW6PLDQ8HU5ZAHD8XUR1D8CI","A14DC1USXBIRXU","3WPCIUYH1AU470H2HRBLZRFBM3CTDN","","","img/flower5.png","75","1248.1000000089407","2","1","2","0.6,0.6,0,0,0.6,0.6,0.6,0,0.6",""
"null","","html-keyboard-response","253","507253","0.0-253.0","33FBRBDW6PLDQ8HU5ZAHD8XUR1D8CI","A14DC1USXBIRXU","3WPCIUYH1AU470H2HRBLZRFBM3CTDN","","","<img src=""img/flower5.png"" style=""width:200px; border:14px solid green;"">","null","","","","","",""
"1717","","image-keyboard-response","254","508983","0.0-254.0","33FBRBDW6PLDQ8HU5ZAHD8XUR1D8CI","A14DC1USXBIRXU","3WPCIUYH1AU470H2HRBLZRFBM3CTDN","","","img/flower5.png","75","1722.2999999970198","2","1","2","0.6,0.6,0,0,0.6,0.6,0.6,0,0.6",""
"null","","html-keyboard-response","255","509301","0.0-255.0","33FBRBDW6PLDQ8HU5ZAHD8XUR1D8CI","A14DC1USXBIRXU","3WPCIUYH1AU470H2HRBLZRFBM3CTDN","","","<img src=""img/flower5.png"" style=""width:200px; border:14px solid green;"">","null","","","","","",""
"1205.5","","image-keyboard-response","256","510509","0.0-256.0","33FBRBDW6PLDQ8HU5ZAHD8XUR1D8CI","A14DC1USXBIRXU","3WPCIUYH1AU470H2HRBLZRFBM3CTDN","","","img/flower9.png","74","1209.0999999940395","1","0","1","0.6,0.6,0,0,0.6,0.6,0.6,0,0.6",""
"null","","html-keyboard-response","257","510832","0.0-257.0","33FBRBDW6PLDQ8HU5ZAHD8XUR1D8CI","A14DC1USXBIRXU","3WPCIUYH1AU470H2HRBLZRFBM3CTDN","","","<img src=""img/flower9.png"" style=""width:200px;border:14px solid red;"">","null","","","","","",""
"1333.6000000089407","","image-keyboard-response","258","512214","0.0-258.0","33FBRBDW6PLDQ8HU5ZAHD8XUR1D8CI","A14DC1USXBIRXU","3WPCIUYH1AU470H2HRBLZRFBM3CTDN","","","img/flower6.png","76","1373.2000000029802","3","1","3","0.6,0.6,0,0,0.6,0.6,0.6,0,0.6",""
"null","","html-keyboard-response","259","512525","0.0-259.0","33FBRBDW6PLDQ8HU5ZAHD8XUR1D8CI","A14DC1USXBIRXU","3WPCIUYH1AU470H2HRBLZRFBM3CTDN","","","<img src=""img/flower6.png"" style=""width:200px; border:14px solid green;"">","null","","","","","",""
"947.0999999940395","","image-keyboard-response","260","513487","0.0-260.0","33FBRBDW6PLDQ8HU5ZAHD8XUR1D8CI","A14DC1USXBIRXU","3WPCIUYH1AU470H2HRBLZRFBM3CTDN","","","img/flower9.png","74","962.2000000029802","1","1","1","0.6,0.6,0,0,0.6,0.6,0.6,0,0.6",""
"null","","html-keyboard-response","261","513797","0.0-261.0","33FBRBDW6PLDQ8HU5ZAHD8XUR1D8CI","A14DC1USXBIRXU","3WPCIUYH1AU470H2HRBLZRFBM3CTDN","","","<img src=""img/flower9.png"" style=""width:200px; border:14px solid green;"">","null","","","","","",""
"1808.7999999970198","","image-keyboard-response","262","515620","0.0-262.0","33FBRBDW6PLDQ8HU5ZAHD8XUR1D8CI","A14DC1USXBIRXU","3WPCIUYH1AU470H2HRBLZRFBM3CTDN","","","img/flower9.png","74","1822.2000000029802","1","0","1","0.6,0.6,0,0,0.6,0.6,0.6,0,0.6",""
"null","","html-keyboard-response","263","515942","0.0-263.0","33FBRBDW6PLDQ8HU5ZAHD8XUR1D8CI","A14DC1USXBIRXU","3WPCIUYH1AU470H2HRBLZRFBM3CTDN","","","<img src=""img/flower9.png"" style=""width:200px;border:14px solid red;"">","null","","","","","",""
"1119.2000000029802","","image-keyboard-response","264","517070","0.0-264.0","33FBRBDW6PLDQ8HU5ZAHD8XUR1D8CI","A14DC1USXBIRXU","3WPCIUYH1AU470H2HRBLZRFBM3CTDN","","","img/flower6.png","76","1124.2000000029802","3","1","3","0.6,0.6,0,0,0.6,0.6,0.6,0,0.6",""
"null","","html-keyboard-response","265","517375","0.0-265.0","33FBRBDW6PLDQ8HU5ZAHD8XUR1D8CI","A14DC1USXBIRXU","3WPCIUYH1AU470H2HRBLZRFBM3CTDN","","","<img src=""img/flower6.png"" style=""width:200px; border:14px solid green;"">","null","","","","","",""
"3053.300000011921","","image-keyboard-response","266","520445","0.0-266.0","33FBRBDW6PLDQ8HU5ZAHD8XUR1D8CI","A14DC1USXBIRXU","3WPCIUYH1AU470H2HRBLZRFBM3CTDN","","","img/flower9.png","74","3069.2999999970198","1","1","1","0.6,0.6,0,0,0.6,0.6,0.6,0,0.6",""
"null","","html-keyboard-response","267","520749","0.0-267.0","33FBRBDW6PLDQ8HU5ZAHD8XUR1D8CI","A14DC1USXBIRXU","3WPCIUYH1AU470H2HRBLZRFBM3CTDN","","","<img src=""img/flower9.png"" style=""width:200px; border:14px solid green;"">","null","","","","","",""
"2855.7000000029802","","image-keyboard-response","268","523620","0.0-268.0","33FBRBDW6PLDQ8HU5ZAHD8XUR1D8CI","A14DC1USXBIRXU","3WPCIUYH1AU470H2HRBLZRFBM3CTDN","","","img/flower5.png","75","2861.6000000089407","2","0","2","0.6,0.6,0,0,0.6,0.6,0.6,0,0.6",""
"null","","html-keyboard-response","269","523933","0.0-269.0","33FBRBDW6PLDQ8HU5ZAHD8XUR1D8CI","A14DC1USXBIRXU","3WPCIUYH1AU470H2HRBLZRFBM3CTDN","","","<img src=""img/flower5.png"" style=""width:200px;border:14px solid red;"">","null","","","","","",""
"1174.199999988079","","image-keyboard-response","270","525110","0.0-270.0","33FBRBDW6PLDQ8HU5ZAHD8XUR1D8CI","A14DC1USXBIRXU","3WPCIUYH1AU470H2HRBLZRFBM3CTDN","","","img/flower6.png","76","1176.7999999970198","3","1","3","0.6,0.6,0,0,0.6,0.6,0.6,0,0.6",""
"null","","html-keyboard-response","271","525414","0.0-271.0","33FBRBDW6PLDQ8HU5ZAHD8XUR1D8CI","A14DC1USXBIRXU","3WPCIUYH1AU470H2HRBLZRFBM3CTDN","","","<img src=""img/flower6.png"" style=""width:200px; border:14px solid green;"">","null","","","","","",""
"1091.7000000029802","","image-keyboard-response","272","526508","0.0-272.0","33FBRBDW6PLDQ8HU5ZAHD8XUR1D8CI","A14DC1USXBIRXU","3WPCIUYH1AU470H2HRBLZRFBM3CTDN","","","img/flower9.png","74","1093.2000000029802","1","1","1","0.6,0.6,0,0,0.6,0.6,0.6,0,0.6",""
"null","","html-keyboard-response","273","526814","0.0-273.0","33FBRBDW6PLDQ8HU5ZAHD8XUR1D8CI","A14DC1USXBIRXU","3WPCIUYH1AU470H2HRBLZRFBM3CTDN","","","<img src=""img/flower9.png"" style=""width:200px; border:14px solid green;"">","null","","","","","",""
"2031","","image-keyboard-response","274","528847","0.0-274.0","33FBRBDW6PLDQ8HU5ZAHD8XUR1D8CI","A14DC1USXBIRXU","3WPCIUYH1AU470H2HRBLZRFBM3CTDN","","","img/flower9.png","74","2032.3999999910593","1","0","1","0.6,0.6,0,0,0.6,0.6,0.6,0,0.6",""
"null","","html-keyboard-response","275","529156","0.0-275.0","33FBRBDW6PLDQ8HU5ZAHD8XUR1D8CI","A14DC1USXBIRXU","3WPCIUYH1AU470H2HRBLZRFBM3CTDN","","","<img src=""img/flower9.png"" style=""width:200px;border:14px solid red;"">","null","","","","","",""
"2238.7000000029802","","image-keyboard-response","276","531396","0.0-276.0","33FBRBDW6PLDQ8HU5ZAHD8XUR1D8CI","A14DC1USXBIRXU","3WPCIUYH1AU470H2HRBLZRFBM3CTDN","","","img/flower9.png","74","2239.8999999910593","1","0","1","0.6,0.6,0,0,0.6,0.6,0.6,0,0.6",""
"null","","html-keyboard-response","277","531701","0.0-277.0","33FBRBDW6PLDQ8HU5ZAHD8XUR1D8CI","A14DC1USXBIRXU","3WPCIUYH1AU470H2HRBLZRFBM3CTDN","","","<img src=""img/flower9.png"" style=""width:200px;border:14px solid red;"">","null","","","","","",""
"1644.199999988079","","image-keyboard-response","278","533349","0.0-278.0","33FBRBDW6PLDQ8HU5ZAHD8XUR1D8CI","A14DC1USXBIRXU","3WPCIUYH1AU470H2HRBLZRFBM3CTDN","","","img/flower9.png","74","1647.699999988079","1","1","1","0.6,0.6,0,0,0.6,0.6,0.6,0,0.6",""
"null","","html-keyboard-response","279","533666","0.0-279.0","33FBRBDW6PLDQ8HU5ZAHD8XUR1D8CI","A14DC1USXBIRXU","3WPCIUYH1AU470H2HRBLZRFBM3CTDN","","","<img src=""img/flower9.png"" style=""width:200px; border:14px solid green;"">","null","","","","","",""
"3270.7999999970198","","image-keyboard-response","280","536939","0.0-280.0","33FBRBDW6PLDQ8HU5ZAHD8XUR1D8CI","A14DC1USXBIRXU","3WPCIUYH1AU470H2HRBLZRFBM3CTDN","","","img/flower9.png","74","3273.9000000059605","1","1","1","0.6,0.6,0,0,0.6,0.6,0.6,0,0.6",""
"null","","html-keyboard-response","281","537252","0.0-281.0","33FBRBDW6PLDQ8HU5ZAHD8XUR1D8CI","A14DC1USXBIRXU","3WPCIUYH1AU470H2HRBLZRFBM3CTDN","","","<img src=""img/flower9.png"" style=""width:200px; border:14px solid green;"">","null","","","","","",""
"1390.2000000029802","","image-keyboard-response","282","538647","0.0-282.0","33FBRBDW6PLDQ8HU5ZAHD8XUR1D8CI","A14DC1USXBIRXU","3WPCIUYH1AU470H2HRBLZRFBM3CTDN","","","img/flower5.png","76","1395.0999999940395","3","0","2","0.6,0.6,0,0,0.6,0.6,0.6,0,0.6",""
"null","","html-keyboard-response","283","538973","0.0-283.0","33FBRBDW6PLDQ8HU5ZAHD8XUR1D8CI","A14DC1USXBIRXU","3WPCIUYH1AU470H2HRBLZRFBM3CTDN","","","<img src=""img/flower5.png"" style=""width:200px;border:14px solid red;"">","null","","","","","",""
"2002.6000000089407","","image-keyboard-response","284","540984","0.0-284.0","33FBRBDW6PLDQ8HU5ZAHD8XUR1D8CI","A14DC1USXBIRXU","3WPCIUYH1AU470H2HRBLZRFBM3CTDN","","","img/flower5.png","75","2011.5","2","1","2","0.6,0.6,0,0,0.6,0.6,0.6,0,0.6",""
"null","","html-keyboard-response","285","541338","0.0-285.0","33FBRBDW6PLDQ8HU5ZAHD8XUR1D8CI","A14DC1USXBIRXU","3WPCIUYH1AU470H2HRBLZRFBM3CTDN","","","<img src=""img/flower5.png"" style=""width:200px; border:14px solid green;"">","null","","","","","",""
"2053.6000000089407","","image-keyboard-response","286","543411","0.0-286.0","33FBRBDW6PLDQ8HU5ZAHD8XUR1D8CI","A14DC1USXBIRXU","3WPCIUYH1AU470H2HRBLZRFBM3CTDN","","","img/flower9.png","74","2073.2000000029802","1","0","1","0.6,0.6,0,0,0.6,0.6,0.6,0,0.6",""
"null","","html-keyboard-response","287","543722","0.0-287.0","33FBRBDW6PLDQ8HU5ZAHD8XUR1D8CI","A14DC1USXBIRXU","3WPCIUYH1AU470H2HRBLZRFBM3CTDN","","","<img src=""img/flower9.png"" style=""width:200px;border:14px solid red;"">","null","","","","","",""
"2775.800000011921","","image-keyboard-response","288","546500","0.0-288.0","33FBRBDW6PLDQ8HU5ZAHD8XUR1D8CI","A14DC1USXBIRXU","3WPCIUYH1AU470H2HRBLZRFBM3CTDN","","","img/flower5.png","74","2778","1","0","2","0.6,0.6,0,0,0.6,0.6,0.6,0,0.6",""
"null","","html-keyboard-response","289","546804","0.0-289.0","33FBRBDW6PLDQ8HU5ZAHD8XUR1D8CI","A14DC1USXBIRXU","3WPCIUYH1AU470H2HRBLZRFBM3CTDN","","","<img src=""img/flower5.png"" style=""width:200px;border:14px solid red;"">","null","","","","","",""
"1977.5","","image-keyboard-response","290","548783","0.0-290.0","33FBRBDW6PLDQ8HU5ZAHD8XUR1D8CI","A14DC1USXBIRXU","3WPCIUYH1AU470H2HRBLZRFBM3CTDN","","","img/flower9.png","74","1979","1","1","1","0.6,0.6,0,0,0.6,0.6,0.6,0,0.6",""
"null","","html-keyboard-response","291","549098","0.0-291.0","33FBRBDW6PLDQ8HU5ZAHD8XUR1D8CI","A14DC1USXBIRXU","3WPCIUYH1AU470H2HRBLZRFBM3CTDN","","","<img src=""img/flower9.png"" style=""width:200px; border:14px solid green;"">","null","","","","","",""
"1064","","image-keyboard-response","292","550189","0.0-292.0","33FBRBDW6PLDQ8HU5ZAHD8XUR1D8CI","A14DC1USXBIRXU","3WPCIUYH1AU470H2HRBLZRFBM3CTDN","","","img/flower5.png","75","1089.5","2","0","2","0.6,0.6,0,0,0.6,0.6,0.6,0,0.6",""
"null","","html-keyboard-response","293","550518","0.0-293.0","33FBRBDW6PLDQ8HU5ZAHD8XUR1D8CI","A14DC1USXBIRXU","3WPCIUYH1AU470H2HRBLZRFBM3CTDN","","","<img src=""img/flower5.png"" style=""width:200px;border:14px solid red;"">","null","","","","","",""
"1393","","image-keyboard-response","294","551916","0.0-294.0","33FBRBDW6PLDQ8HU5ZAHD8XUR1D8CI","A14DC1USXBIRXU","3WPCIUYH1AU470H2HRBLZRFBM3CTDN","","","img/flower5.png","75","1396.5999999940395","2","1","2","0.6,0.6,0,0,0.6,0.6,0.6,0,0.6",""
"null","","html-keyboard-response","295","552237","0.0-295.0","33FBRBDW6PLDQ8HU5ZAHD8XUR1D8CI","A14DC1USXBIRXU","3WPCIUYH1AU470H2HRBLZRFBM3CTDN","","","<img src=""img/flower5.png"" style=""width:200px; border:14px solid green;"">","null","","","","","",""
"1537.2000000029802","","image-keyboard-response","296","553789","0.0-296.0","33FBRBDW6PLDQ8HU5ZAHD8XUR1D8CI","A14DC1USXBIRXU","3WPCIUYH1AU470H2HRBLZRFBM3CTDN","","","img/flower6.png","76","1554.1000000089407","3","0","3","0.6,0.6,0,0,0.6,0.6,0.6,0,0.6",""
"null","","html-keyboard-response","297","554117","0.0-297.0","33FBRBDW6PLDQ8HU5ZAHD8XUR1D8CI","A14DC1USXBIRXU","3WPCIUYH1AU470H2HRBLZRFBM3CTDN","","","<img src=""img/flower6.png"" style=""width:200px;border:14px solid red;"">","null","","","","","",""
"2128.199999988079","","image-keyboard-response","298","556248","0.0-298.0","33FBRBDW6PLDQ8HU5ZAHD8XUR1D8CI","A14DC1USXBIRXU","3WPCIUYH1AU470H2HRBLZRFBM3CTDN","","","img/flower6.png","76","2129.7000000029802","3","1","3","0.6,0.6,0,0,0.6,0.6,0.6,0,0.6",""
"null","","html-keyboard-response","299","556557","0.0-299.0","33FBRBDW6PLDQ8HU5ZAHD8XUR1D8CI","A14DC1USXBIRXU","3WPCIUYH1AU470H2HRBLZRFBM3CTDN","","","<img src=""img/flower6.png"" style=""width:200px; border:14px solid green;"">","null","","","","","",""
"3580.3999999910593","","image-keyboard-response","300","560158","0.0-300.0","33FBRBDW6PLDQ8HU5ZAHD8XUR1D8CI","A14DC1USXBIRXU","3WPCIUYH1AU470H2HRBLZRFBM3CTDN","","","img/flower6.png","76","3591.5","3","1","3","0.6,0.6,0,0,0.6,0.6,0.6,0,0.6",""
"null","","html-keyboard-response","301","560470","0.0-301.0","33FBRBDW6PLDQ8HU5ZAHD8XUR1D8CI","A14DC1USXBIRXU","3WPCIUYH1AU470H2HRBLZRFBM3CTDN","","","<img src=""img/flower6.png"" style=""width:200px; border:14px solid green;"">","null","","","","","",""
"2316.1000000089407","","image-keyboard-response","302","562791","0.0-302.0","33FBRBDW6PLDQ8HU5ZAHD8XUR1D8CI","A14DC1USXBIRXU","3WPCIUYH1AU470H2HRBLZRFBM3CTDN","","","img/flower6.png","76","2321","3","1","3","0.6,0.6,0,0,0.6,0.6,0.6,0,0.6",""
"null","","html-keyboard-response","303","563100","0.0-303.0","33FBRBDW6PLDQ8HU5ZAHD8XUR1D8CI","A14DC1USXBIRXU","3WPCIUYH1AU470H2HRBLZRFBM3CTDN","","","<img src=""img/flower6.png"" style=""width:200px; border:14px solid green;"">","null","","","","","",""
"1526.199999988079","","image-keyboard-response","304","564632","0.0-304.0","33FBRBDW6PLDQ8HU5ZAHD8XUR1D8CI","A14DC1USXBIRXU","3WPCIUYH1AU470H2HRBLZRFBM3CTDN","","","img/flower9.png","74","1532.5","1","0","1","0.6,0.6,0,0,0.6,0.6,0.6,0,0.6",""
"null","","html-keyboard-response","305","564941","0.0-305.0","33FBRBDW6PLDQ8HU5ZAHD8XUR1D8CI","A14DC1USXBIRXU","3WPCIUYH1AU470H2HRBLZRFBM3CTDN","","","<img src=""img/flower9.png"" style=""width:200px;border:14px solid red;"">","null","","","","","",""
"","","html-keyboard-response","306","590140","0.0-306.0","33FBRBDW6PLDQ8HU5ZAHD8XUR1D8CI","A14DC1USXBIRXU","3WPCIUYH1AU470H2HRBLZRFBM3CTDN","","","","","","","","","",""
"2268.2999999970198","","image-keyboard-response","307","592497","0.0-307.0","33FBRBDW6PLDQ8HU5ZAHD8XUR1D8CI","A14DC1USXBIRXU","3WPCIUYH1AU470H2HRBLZRFBM3CTDN","","","img/flower7.png","74","2356.4000000059605","1","0","1","0.8,0.2,0.2,0.2,0.8,0.2,0.2,0.2,0.8",""
"null","","html-keyboard-response","308","592804","0.0-308.0","33FBRBDW6PLDQ8HU5ZAHD8XUR1D8CI","A14DC1USXBIRXU","3WPCIUYH1AU470H2HRBLZRFBM3CTDN","","","<img src=""img/flower7.png"" style=""width:200px;border:14px solid red;"">","null","","","","","",""
"2352","","image-keyboard-response","309","595169","0.0-309.0","33FBRBDW6PLDQ8HU5ZAHD8XUR1D8CI","A14DC1USXBIRXU","3WPCIUYH1AU470H2HRBLZRFBM3CTDN","","","img/flower2.png","75","2365.0999999940395","2","1","2","0.8,0.2,0.2,0.2,0.8,0.2,0.2,0.2,0.8",""
"null","","html-keyboard-response","310","595476","0.0-310.0","33FBRBDW6PLDQ8HU5ZAHD8XUR1D8CI","A14DC1USXBIRXU","3WPCIUYH1AU470H2HRBLZRFBM3CTDN","","","<img src=""img/flower2.png"" style=""width:200px; border:14px solid green;"">","null","","","","","",""
"2282.2999999970198","","image-keyboard-response","311","597759","0.0-311.0","33FBRBDW6PLDQ8HU5ZAHD8XUR1D8CI","A14DC1USXBIRXU","3WPCIUYH1AU470H2HRBLZRFBM3CTDN","","","img/flower8.png","74","2283.3999999910593","1","0","3","0.8,0.2,0.2,0.2,0.8,0.2,0.2,0.2,0.8",""
"null","","html-keyboard-response","312","598076","0.0-312.0","33FBRBDW6PLDQ8HU5ZAHD8XUR1D8CI","A14DC1USXBIRXU","3WPCIUYH1AU470H2HRBLZRFBM3CTDN","","","<img src=""img/flower8.png"" style=""width:200px;border:14px solid red;"">","null","","","","","",""
"1069.300000011921","","image-keyboard-response","313","599162","0.0-313.0","33FBRBDW6PLDQ8HU5ZAHD8XUR1D8CI","A14DC1USXBIRXU","3WPCIUYH1AU470H2HRBLZRFBM3CTDN","","","img/flower2.png","75","1083.7000000029802","2","0","2","0.8,0.2,0.2,0.2,0.8,0.2,0.2,0.2,0.8",""
"null","","html-keyboard-response","314","599491","0.0-314.0","33FBRBDW6PLDQ8HU5ZAHD8XUR1D8CI","A14DC1USXBIRXU","3WPCIUYH1AU470H2HRBLZRFBM3CTDN","","","<img src=""img/flower2.png"" style=""width:200px;border:14px solid red;"">","null","","","","","",""
"4657.5999999940395","","image-keyboard-response","315","604157","0.0-315.0","33FBRBDW6PLDQ8HU5ZAHD8XUR1D8CI","A14DC1USXBIRXU","3WPCIUYH1AU470H2HRBLZRFBM3CTDN","","","img/flower8.png","76","4665.9000000059605","3","1","3","0.8,0.2,0.2,0.2,0.8,0.2,0.2,0.2,0.8",""
"null","","html-keyboard-response","316","604475","0.0-316.0","33FBRBDW6PLDQ8HU5ZAHD8XUR1D8CI","A14DC1USXBIRXU","3WPCIUYH1AU470H2HRBLZRFBM3CTDN","","","<img src=""img/flower8.png"" style=""width:200px; border:14px solid green;"">","null","","","","","",""
"3380.2999999970198","","image-keyboard-response","317","607867","0.0-317.0","33FBRBDW6PLDQ8HU5ZAHD8XUR1D8CI","A14DC1USXBIRXU","3WPCIUYH1AU470H2HRBLZRFBM3CTDN","","","img/flower8.png","76","3390","3","1","3","0.8,0.2,0.2,0.2,0.8,0.2,0.2,0.2,0.8",""
"null","","html-keyboard-response","318","608172","0.0-318.0","33FBRBDW6PLDQ8HU5ZAHD8XUR1D8CI","A14DC1USXBIRXU","3WPCIUYH1AU470H2HRBLZRFBM3CTDN","","","<img src=""img/flower8.png"" style=""width:200px; border:14px solid green;"">","null","","","","","",""
"1203","","image-keyboard-response","319","609377","0.0-319.0","33FBRBDW6PLDQ8HU5ZAHD8XUR1D8CI","A14DC1USXBIRXU","3WPCIUYH1AU470H2HRBLZRFBM3CTDN","","","img/flower2.png","75","1204.4000000059605","2","1","2","0.8,0.2,0.2,0.2,0.8,0.2,0.2,0.2,0.8",""
"null","","html-keyboard-response","320","609684","0.0-320.0","33FBRBDW6PLDQ8HU5ZAHD8XUR1D8CI","A14DC1USXBIRXU","3WPCIUYH1AU470H2HRBLZRFBM3CTDN","","","<img src=""img/flower2.png"" style=""width:200px; border:14px solid green;"">","null","","","","","",""
"1769.9000000059605","","image-keyboard-response","321","611455","0.0-321.0","33FBRBDW6PLDQ8HU5ZAHD8XUR1D8CI","A14DC1USXBIRXU","3WPCIUYH1AU470H2HRBLZRFBM3CTDN","","","img/flower7.png","74","1771","1","1","1","0.8,0.2,0.2,0.2,0.8,0.2,0.2,0.2,0.8",""
"null","","html-keyboard-response","322","611788","0.0-322.0","33FBRBDW6PLDQ8HU5ZAHD8XUR1D8CI","A14DC1USXBIRXU","3WPCIUYH1AU470H2HRBLZRFBM3CTDN","","","<img src=""img/flower7.png"" style=""width:200px; border:14px solid green;"">","null","","","","","",""
"1052.7999999970198","","image-keyboard-response","323","612842","0.0-323.0","33FBRBDW6PLDQ8HU5ZAHD8XUR1D8CI","A14DC1USXBIRXU","3WPCIUYH1AU470H2HRBLZRFBM3CTDN","","","img/flower8.png","76","1053.9000000059605","3","1","3","0.8,0.2,0.2,0.2,0.8,0.2,0.2,0.2,0.8",""
"null","","html-keyboard-response","324","613151","0.0-324.0","33FBRBDW6PLDQ8HU5ZAHD8XUR1D8CI","A14DC1USXBIRXU","3WPCIUYH1AU470H2HRBLZRFBM3CTDN","","","<img src=""img/flower8.png"" style=""width:200px; border:14px solid green;"">","null","","","","","",""
"1032","","image-keyboard-response","325","614186","0.0-325.0","33FBRBDW6PLDQ8HU5ZAHD8XUR1D8CI","A14DC1USXBIRXU","3WPCIUYH1AU470H2HRBLZRFBM3CTDN","","","img/flower2.png","75","1034.5","2","1","2","0.8,0.2,0.2,0.2,0.8,0.2,0.2,0.2,0.8",""
"null","","html-keyboard-response","326","614495","0.0-326.0","33FBRBDW6PLDQ8HU5ZAHD8XUR1D8CI","A14DC1USXBIRXU","3WPCIUYH1AU470H2HRBLZRFBM3CTDN","","","<img src=""img/flower2.png"" style=""width:200px; border:14px solid green;"">","null","","","","","",""
"1066.2999999970198","","image-keyboard-response","327","615563","0.0-327.0","33FBRBDW6PLDQ8HU5ZAHD8XUR1D8CI","A14DC1USXBIRXU","3WPCIUYH1AU470H2HRBLZRFBM3CTDN","","","img/flower2.png","75","1067.9000000059605","2","0","2","0.8,0.2,0.2,0.2,0.8,0.2,0.2,0.2,0.8",""
"null","","html-keyboard-response","328","615869","0.0-328.0","33FBRBDW6PLDQ8HU5ZAHD8XUR1D8CI","A14DC1USXBIRXU","3WPCIUYH1AU470H2HRBLZRFBM3CTDN","","","<img src=""img/flower2.png"" style=""width:200px;border:14px solid red;"">","null","","","","","",""
"868.5999999940395","","image-keyboard-response","329","616738","0.0-329.0","33FBRBDW6PLDQ8HU5ZAHD8XUR1D8CI","A14DC1USXBIRXU","3WPCIUYH1AU470H2HRBLZRFBM3CTDN","","","img/flower2.png","76","869.7999999970198","3","0","2","0.8,0.2,0.2,0.2,0.8,0.2,0.2,0.2,0.8",""
"null","","html-keyboard-response","330","617045","0.0-330.0","33FBRBDW6PLDQ8HU5ZAHD8XUR1D8CI","A14DC1USXBIRXU","3WPCIUYH1AU470H2HRBLZRFBM3CTDN","","","<img src=""img/flower2.png"" style=""width:200px;border:14px solid red;"">","null","","","","","",""
"994.5","","image-keyboard-response","331","618041","0.0-331.0","33FBRBDW6PLDQ8HU5ZAHD8XUR1D8CI","A14DC1USXBIRXU","3WPCIUYH1AU470H2HRBLZRFBM3CTDN","","","img/flower8.png","76","996.1000000089407","3","0","3","0.8,0.2,0.2,0.2,0.8,0.2,0.2,0.2,0.8",""
"null","","html-keyboard-response","332","618357","0.0-332.0","33FBRBDW6PLDQ8HU5ZAHD8XUR1D8CI","A14DC1USXBIRXU","3WPCIUYH1AU470H2HRBLZRFBM3CTDN","","","<img src=""img/flower8.png"" style=""width:200px;border:14px solid red;"">","null","","","","","",""
"939.4000000059605","","image-keyboard-response","333","619297","0.0-333.0","33FBRBDW6PLDQ8HU5ZAHD8XUR1D8CI","A14DC1USXBIRXU","3WPCIUYH1AU470H2HRBLZRFBM3CTDN","","","img/flower2.png","74","940.4000000059605","1","1","2","0.8,0.2,0.2,0.2,0.8,0.2,0.2,0.2,0.8",""
"null","","html-keyboard-response","334","619605","0.0-334.0","33FBRBDW6PLDQ8HU5ZAHD8XUR1D8CI","A14DC1USXBIRXU","3WPCIUYH1AU470H2HRBLZRFBM3CTDN","","","<img src=""img/flower2.png"" style=""width:200px; border:14px solid green;"">","null","","","","","",""
"1884.5","","image-keyboard-response","335","621492","0.0-335.0","33FBRBDW6PLDQ8HU5ZAHD8XUR1D8CI","A14DC1USXBIRXU","3WPCIUYH1AU470H2HRBLZRFBM3CTDN","","","img/flower2.png","74","1886.7000000029802","1","0","2","0.8,0.2,0.2,0.2,0.8,0.2,0.2,0.2,0.8",""
"null","","html-keyboard-response","336","621805","0.0-336.0","33FBRBDW6PLDQ8HU5ZAHD8XUR1D8CI","A14DC1USXBIRXU","3WPCIUYH1AU470H2HRBLZRFBM3CTDN","","","<img src=""img/flower2.png"" style=""width:200px;border:14px solid red;"">","null","","","","","",""
"798.2999999970198","","image-keyboard-response","337","622622","0.0-337.0","33FBRBDW6PLDQ8HU5ZAHD8XUR1D8CI","A14DC1USXBIRXU","3WPCIUYH1AU470H2HRBLZRFBM3CTDN","","","img/flower8.png","75","802.0999999940395","2","0","3","0.8,0.2,0.2,0.2,0.8,0.2,0.2,0.2,0.8",""
"null","","html-keyboard-response","338","622933","0.0-338.0","33FBRBDW6PLDQ8HU5ZAHD8XUR1D8CI","A14DC1USXBIRXU","3WPCIUYH1AU470H2HRBLZRFBM3CTDN","","","<img src=""img/flower8.png"" style=""width:200px;border:14px solid red;"">","null","","","","","",""
"332.29999999701977","","image-keyboard-response","339","623267","0.0-339.0","33FBRBDW6PLDQ8HU5ZAHD8XUR1D8CI","A14DC1USXBIRXU","3WPCIUYH1AU470H2HRBLZRFBM3CTDN","","","img/flower2.png","76","333.70000000298023","3","1","2","0.8,0.2,0.2,0.2,0.8,0.2,0.2,0.2,0.8",""
"null","","html-keyboard-response","340","623572","0.0-340.0","33FBRBDW6PLDQ8HU5ZAHD8XUR1D8CI","A14DC1USXBIRXU","3WPCIUYH1AU470H2HRBLZRFBM3CTDN","","","<img src=""img/flower2.png"" style=""width:200px; border:14px solid green;"">","null","","","","","",""
"299.6000000089407","","image-keyboard-response","341","623873","0.0-341.0","33FBRBDW6PLDQ8HU5ZAHD8XUR1D8CI","A14DC1USXBIRXU","3WPCIUYH1AU470H2HRBLZRFBM3CTDN","","","img/flower8.png","74","301","1","0","3","0.8,0.2,0.2,0.2,0.8,0.2,0.2,0.2,0.8",""
"null","","html-keyboard-response","342","624181","0.0-342.0","33FBRBDW6PLDQ8HU5ZAHD8XUR1D8CI","A14DC1USXBIRXU","3WPCIUYH1AU470H2HRBLZRFBM3CTDN","","","<img src=""img/flower8.png"" style=""width:200px;border:14px solid red;"">","null","","","","","",""
"121","","image-keyboard-response","343","624304","0.0-343.0","33FBRBDW6PLDQ8HU5ZAHD8XUR1D8CI","A14DC1USXBIRXU","3WPCIUYH1AU470H2HRBLZRFBM3CTDN","","","img/flower7.png","74","127.3999999910593","1","1","1","0.8,0.2,0.2,0.2,0.8,0.2,0.2,0.2,0.8",""
"null","","html-keyboard-response","344","624628","0.0-344.0","33FBRBDW6PLDQ8HU5ZAHD8XUR1D8CI","A14DC1USXBIRXU","3WPCIUYH1AU470H2HRBLZRFBM3CTDN","","","<img src=""img/flower7.png"" style=""width:200px; border:14px solid green;"">","null","","","","","",""
"75.20000000298023","","image-keyboard-response","345","624705","0.0-345.0","33FBRBDW6PLDQ8HU5ZAHD8XUR1D8CI","A14DC1USXBIRXU","3WPCIUYH1AU470H2HRBLZRFBM3CTDN","","","img/flower7.png","74","76.90000000596046","1","1","1","0.8,0.2,0.2,0.2,0.8,0.2,0.2,0.2,0.8",""
"null","","html-keyboard-response","346","625012","0.0-346.0","33FBRBDW6PLDQ8HU5ZAHD8XUR1D8CI","A14DC1USXBIRXU","3WPCIUYH1AU470H2HRBLZRFBM3CTDN","","","<img src=""img/flower7.png"" style=""width:200px; border:14px solid green;"">","null","","","","","",""
"170.79999999701977","","image-keyboard-response","347","625186","0.0-347.0","33FBRBDW6PLDQ8HU5ZAHD8XUR1D8CI","A14DC1USXBIRXU","3WPCIUYH1AU470H2HRBLZRFBM3CTDN","","","img/flower7.png","76","174","3","0","1","0.8,0.2,0.2,0.2,0.8,0.2,0.2,0.2,0.8",""
"null","","html-keyboard-response","348","625500","0.0-348.0","33FBRBDW6PLDQ8HU5ZAHD8XUR1D8CI","A14DC1USXBIRXU","3WPCIUYH1AU470H2HRBLZRFBM3CTDN","","","<img src=""img/flower7.png"" style=""width:200px;border:14px solid red;"">","null","","","","","",""
"488.59999999403954","","image-keyboard-response","349","625990","0.0-349.0","33FBRBDW6PLDQ8HU5ZAHD8XUR1D8CI","A14DC1USXBIRXU","3WPCIUYH1AU470H2HRBLZRFBM3CTDN","","","img/flower8.png","74","490","1","1","3","0.8,0.2,0.2,0.2,0.8,0.2,0.2,0.2,0.8",""
"null","","html-keyboard-response","350","626300","0.0-350.0","33FBRBDW6PLDQ8HU5ZAHD8XUR1D8CI","A14DC1USXBIRXU","3WPCIUYH1AU470H2HRBLZRFBM3CTDN","","","<img src=""img/flower8.png"" style=""width:200px; border:14px solid green;"">","null","","","","","",""
"58.70000000298023","","image-keyboard-response","351","626361","0.0-351.0","33FBRBDW6PLDQ8HU5ZAHD8XUR1D8CI","A14DC1USXBIRXU","3WPCIUYH1AU470H2HRBLZRFBM3CTDN","","","img/flower7.png","76","60.400000005960464","3","0","1","0.8,0.2,0.2,0.2,0.8,0.2,0.2,0.2,0.8",""
"null","","html-keyboard-response","352","626669","0.0-352.0","33FBRBDW6PLDQ8HU5ZAHD8XUR1D8CI","A14DC1USXBIRXU","3WPCIUYH1AU470H2HRBLZRFBM3CTDN","","","<img src=""img/flower7.png"" style=""width:200px;border:14px solid red;"">","null","","","","","",""
"15","","image-keyboard-response","353","626689","0.0-353.0","33FBRBDW6PLDQ8HU5ZAHD8XUR1D8CI","A14DC1USXBIRXU","3WPCIUYH1AU470H2HRBLZRFBM3CTDN","","","img/flower7.png","76","19.200000002980232","3","0","1","0.8,0.2,0.2,0.2,0.8,0.2,0.2,0.2,0.8",""
"null","","html-keyboard-response","354","626996","0.0-354.0","33FBRBDW6PLDQ8HU5ZAHD8XUR1D8CI","A14DC1USXBIRXU","3WPCIUYH1AU470H2HRBLZRFBM3CTDN","","","<img src=""img/flower7.png"" style=""width:200px;border:14px solid red;"">","null","","","","","",""
"219.5","","image-keyboard-response","355","627219","0.0-355.0","33FBRBDW6PLDQ8HU5ZAHD8XUR1D8CI","A14DC1USXBIRXU","3WPCIUYH1AU470H2HRBLZRFBM3CTDN","","","img/flower7.png","75","223","2","0","1","0.8,0.2,0.2,0.2,0.8,0.2,0.2,0.2,0.8",""
"null","","html-keyboard-response","356","627532","0.0-356.0","33FBRBDW6PLDQ8HU5ZAHD8XUR1D8CI","A14DC1USXBIRXU","3WPCIUYH1AU470H2HRBLZRFBM3CTDN","","","<img src=""img/flower7.png"" style=""width:200px;border:14px solid red;"">","null","","","","","",""
"1484.7999999970198","","image-keyboard-response","357","629023","0.0-357.0","33FBRBDW6PLDQ8HU5ZAHD8XUR1D8CI","A14DC1USXBIRXU","3WPCIUYH1AU470H2HRBLZRFBM3CTDN","","","img/flower2.png","74","1490","1","0","2","0.8,0.2,0.2,0.2,0.8,0.2,0.2,0.2,0.8",""
"null","","html-keyboard-response","358","629333","0.0-358.0","33FBRBDW6PLDQ8HU5ZAHD8XUR1D8CI","A14DC1USXBIRXU","3WPCIUYH1AU470H2HRBLZRFBM3CTDN","","","<img src=""img/flower2.png"" style=""width:200px;border:14px solid red;"">","null","","","","","",""
"1497.8999999910593","","image-keyboard-response","359","630833","0.0-359.0","33FBRBDW6PLDQ8HU5ZAHD8XUR1D8CI","A14DC1USXBIRXU","3WPCIUYH1AU470H2HRBLZRFBM3CTDN","","","img/flower2.png","74","1500.4000000059605","1","0","2","0.8,0.2,0.2,0.2,0.8,0.2,0.2,0.2,0.8",""
"null","","html-keyboard-response","360","631140","0.0-360.0","33FBRBDW6PLDQ8HU5ZAHD8XUR1D8CI","A14DC1USXBIRXU","3WPCIUYH1AU470H2HRBLZRFBM3CTDN","","","<img src=""img/flower2.png"" style=""width:200px;border:14px solid red;"">","null","","","","","",""
"1694.6000000089407","","image-keyboard-response","361","632837","0.0-361.0","33FBRBDW6PLDQ8HU5ZAHD8XUR1D8CI","A14DC1USXBIRXU","3WPCIUYH1AU470H2HRBLZRFBM3CTDN","","","img/flower2.png","75","1696","2","1","2","0.8,0.2,0.2,0.2,0.8,0.2,0.2,0.2,0.8",""
"null","","html-keyboard-response","362","633157","0.0-362.0","33FBRBDW6PLDQ8HU5ZAHD8XUR1D8CI","A14DC1USXBIRXU","3WPCIUYH1AU470H2HRBLZRFBM3CTDN","","","<img src=""img/flower2.png"" style=""width:200px; border:14px solid green;"">","null","","","","","",""
"1651.4000000059605","","image-keyboard-response","363","634809","0.0-363.0","33FBRBDW6PLDQ8HU5ZAHD8XUR1D8CI","A14DC1USXBIRXU","3WPCIUYH1AU470H2HRBLZRFBM3CTDN","","","img/flower8.png","76","1652.5","3","1","3","0.8,0.2,0.2,0.2,0.8,0.2,0.2,0.2,0.8",""
"null","","html-keyboard-response","364","635123","0.0-364.0","33FBRBDW6PLDQ8HU5ZAHD8XUR1D8CI","A14DC1USXBIRXU","3WPCIUYH1AU470H2HRBLZRFBM3CTDN","","","<img src=""img/flower8.png"" style=""width:200px; border:14px solid green;"">","null","","","","","",""
"1006.9000000059605","","image-keyboard-response","365","636134","0.0-365.0","33FBRBDW6PLDQ8HU5ZAHD8XUR1D8CI","A14DC1USXBIRXU","3WPCIUYH1AU470H2HRBLZRFBM3CTDN","","","img/flower7.png","74","1010.2000000029802","1","0","1","0.8,0.2,0.2,0.2,0.8,0.2,0.2,0.2,0.8",""
"null","","html-keyboard-response","366","636436","0.0-366.0","33FBRBDW6PLDQ8HU5ZAHD8XUR1D8CI","A14DC1USXBIRXU","3WPCIUYH1AU470H2HRBLZRFBM3CTDN","","","<img src=""img/flower7.png"" style=""width:200px;border:14px solid red;"">","null","","","","","",""
"923.4000000059605","","image-keyboard-response","367","637393","0.0-367.0","33FBRBDW6PLDQ8HU5ZAHD8XUR1D8CI","A14DC1USXBIRXU","3WPCIUYH1AU470H2HRBLZRFBM3CTDN","","","img/flower8.png","76","948.2999999970198","3","1","3","0.8,0.2,0.2,0.2,0.8,0.2,0.2,0.2,0.8",""
"null","","html-keyboard-response","368","637705","0.0-368.0","33FBRBDW6PLDQ8HU5ZAHD8XUR1D8CI","A14DC1USXBIRXU","3WPCIUYH1AU470H2HRBLZRFBM3CTDN","","","<img src=""img/flower8.png"" style=""width:200px; border:14px solid green;"">","null","","","","","",""
"2010","","image-keyboard-response","369","639731","0.0-369.0","33FBRBDW6PLDQ8HU5ZAHD8XUR1D8CI","A14DC1USXBIRXU","3WPCIUYH1AU470H2HRBLZRFBM3CTDN","","","img/flower8.png","76","2025.5","3","1","3","0.8,0.2,0.2,0.2,0.8,0.2,0.2,0.2,0.8",""
"null","","html-keyboard-response","370","640036","0.0-370.0","33FBRBDW6PLDQ8HU5ZAHD8XUR1D8CI","A14DC1USXBIRXU","3WPCIUYH1AU470H2HRBLZRFBM3CTDN","","","<img src=""img/flower8.png"" style=""width:200px; border:14px solid green;"">","null","","","","","",""
"1756.9000000059605","","image-keyboard-response","371","641810","0.0-371.0","33FBRBDW6PLDQ8HU5ZAHD8XUR1D8CI","A14DC1USXBIRXU","3WPCIUYH1AU470H2HRBLZRFBM3CTDN","","","img/flower2.png","74","1772.1000000089407","1","0","2","0.8,0.2,0.2,0.2,0.8,0.2,0.2,0.2,0.8",""
"null","","html-keyboard-response","372","642116","0.0-372.0","33FBRBDW6PLDQ8HU5ZAHD8XUR1D8CI","A14DC1USXBIRXU","3WPCIUYH1AU470H2HRBLZRFBM3CTDN","","","<img src=""img/flower2.png"" style=""width:200px;border:14px solid red;"">","null","","","","","",""
"1701.5999999940395","","image-keyboard-response","373","643820","0.0-373.0","33FBRBDW6PLDQ8HU5ZAHD8XUR1D8CI","A14DC1USXBIRXU","3WPCIUYH1AU470H2HRBLZRFBM3CTDN","","","img/flower8.png","76","1703.699999988079","3","1","3","0.8,0.2,0.2,0.2,0.8,0.2,0.2,0.2,0.8",""
"null","","html-keyboard-response","374","644149","0.0-374.0","33FBRBDW6PLDQ8HU5ZAHD8XUR1D8CI","A14DC1USXBIRXU","3WPCIUYH1AU470H2HRBLZRFBM3CTDN","","","<img src=""img/flower8.png"" style=""width:200px; border:14px solid green;"">","null","","","","","",""
"5074.0999999940395","","image-keyboard-response","375","649224","0.0-375.0","33FBRBDW6PLDQ8HU5ZAHD8XUR1D8CI","A14DC1USXBIRXU","3WPCIUYH1AU470H2HRBLZRFBM3CTDN","","","img/flower8.png","76","5076.4000000059605","3","1","3","0.8,0.2,0.2,0.2,0.8,0.2,0.2,0.2,0.8",""
"null","","html-keyboard-response","376","649532","0.0-376.0","33FBRBDW6PLDQ8HU5ZAHD8XUR1D8CI","A14DC1USXBIRXU","3WPCIUYH1AU470H2HRBLZRFBM3CTDN","","","<img src=""img/flower8.png"" style=""width:200px; border:14px solid green;"">","null","","","","","",""
"978.7999999970198","","image-keyboard-response","377","650526","0.0-377.0","33FBRBDW6PLDQ8HU5ZAHD8XUR1D8CI","A14DC1USXBIRXU","3WPCIUYH1AU470H2HRBLZRFBM3CTDN","","","img/flower7.png","74","993.5999999940395","1","1","1","0.8,0.2,0.2,0.2,0.8,0.2,0.2,0.2,0.8",""
"null","","html-keyboard-response","378","650836","0.0-378.0","33FBRBDW6PLDQ8HU5ZAHD8XUR1D8CI","A14DC1USXBIRXU","3WPCIUYH1AU470H2HRBLZRFBM3CTDN","","","<img src=""img/flower7.png"" style=""width:200px; border:14px solid green;"">","null","","","","","",""
"2050.2000000029802","","image-keyboard-response","379","652891","0.0-379.0","33FBRBDW6PLDQ8HU5ZAHD8XUR1D8CI","A14DC1USXBIRXU","3WPCIUYH1AU470H2HRBLZRFBM3CTDN","","","img/flower2.png","75","2055.2000000029802","2","1","2","0.8,0.2,0.2,0.2,0.8,0.2,0.2,0.2,0.8",""
"null","","html-keyboard-response","380","653201","0.0-380.0","33FBRBDW6PLDQ8HU5ZAHD8XUR1D8CI","A14DC1USXBIRXU","3WPCIUYH1AU470H2HRBLZRFBM3CTDN","","","<img src=""img/flower2.png"" style=""width:200px; border:14px solid green;"">","null","","","","","",""
"1305.5","","image-keyboard-response","381","654518","0.0-381.0","33FBRBDW6PLDQ8HU5ZAHD8XUR1D8CI","A14DC1USXBIRXU","3WPCIUYH1AU470H2HRBLZRFBM3CTDN","","","img/flower2.png","75","1316.1000000089407","2","0","2","0.8,0.2,0.2,0.2,0.8,0.2,0.2,0.2,0.8",""
"null","","html-keyboard-response","382","654829","0.0-382.0","33FBRBDW6PLDQ8HU5ZAHD8XUR1D8CI","A14DC1USXBIRXU","3WPCIUYH1AU470H2HRBLZRFBM3CTDN","","","<img src=""img/flower2.png"" style=""width:200px;border:14px solid red;"">","null","","","","","",""
"986.5","","image-keyboard-response","383","655822","0.0-383.0","33FBRBDW6PLDQ8HU5ZAHD8XUR1D8CI","A14DC1USXBIRXU","3WPCIUYH1AU470H2HRBLZRFBM3CTDN","","","img/flower8.png","76","992.3999999910593","3","1","3","0.8,0.2,0.2,0.2,0.8,0.2,0.2,0.2,0.8",""
"null","","html-keyboard-response","384","656135","0.0-384.0","33FBRBDW6PLDQ8HU5ZAHD8XUR1D8CI","A14DC1USXBIRXU","3WPCIUYH1AU470H2HRBLZRFBM3CTDN","","","<img src=""img/flower8.png"" style=""width:200px; border:14px solid green;"">","null","","","","","",""
"1189","","image-keyboard-response","385","657345","0.0-385.0","33FBRBDW6PLDQ8HU5ZAHD8XUR1D8CI","A14DC1USXBIRXU","3WPCIUYH1AU470H2HRBLZRFBM3CTDN","","","img/flower8.png","76","1213.0999999940395","3","1","3","0.8,0.2,0.2,0.2,0.8,0.2,0.2,0.2,0.8",""
"null","","html-keyboard-response","386","657687","0.0-386.0","33FBRBDW6PLDQ8HU5ZAHD8XUR1D8CI","A14DC1USXBIRXU","3WPCIUYH1AU470H2HRBLZRFBM3CTDN","","","<img src=""img/flower8.png"" style=""width:200px; border:14px solid green;"">","null","","","","","",""
"966.7999999970198","","image-keyboard-response","387","658676","0.0-387.0","33FBRBDW6PLDQ8HU5ZAHD8XUR1D8CI","A14DC1USXBIRXU","3WPCIUYH1AU470H2HRBLZRFBM3CTDN","","","img/flower7.png","74","988.5","1","0","1","0.8,0.2,0.2,0.2,0.8,0.2,0.2,0.2,0.8",""
"null","","html-keyboard-response","388","658994","0.0-388.0","33FBRBDW6PLDQ8HU5ZAHD8XUR1D8CI","A14DC1USXBIRXU","3WPCIUYH1AU470H2HRBLZRFBM3CTDN","","","<img src=""img/flower7.png"" style=""width:200px;border:14px solid red;"">","null","","","","","",""
"1080.0999999940395","","image-keyboard-response","389","660087","0.0-389.0","33FBRBDW6PLDQ8HU5ZAHD8XUR1D8CI","A14DC1USXBIRXU","3WPCIUYH1AU470H2HRBLZRFBM3CTDN","","","img/flower2.png","75","1092.300000011921","2","1","2","0.8,0.2,0.2,0.2,0.8,0.2,0.2,0.2,0.8",""
"null","","html-keyboard-response","390","660397","0.0-390.0","33FBRBDW6PLDQ8HU5ZAHD8XUR1D8CI","A14DC1USXBIRXU","3WPCIUYH1AU470H2HRBLZRFBM3CTDN","","","<img src=""img/flower2.png"" style=""width:200px; border:14px solid green;"">","null","","","","","",""
"1779.300000011921","","image-keyboard-response","391","662178","0.0-391.0","33FBRBDW6PLDQ8HU5ZAHD8XUR1D8CI","A14DC1USXBIRXU","3WPCIUYH1AU470H2HRBLZRFBM3CTDN","","","img/flower7.png","74","1782.2000000029802","1","1","1","0.8,0.2,0.2,0.2,0.8,0.2,0.2,0.2,0.8",""
"null","","html-keyboard-response","392","662493","0.0-392.0","33FBRBDW6PLDQ8HU5ZAHD8XUR1D8CI","A14DC1USXBIRXU","3WPCIUYH1AU470H2HRBLZRFBM3CTDN","","","<img src=""img/flower7.png"" style=""width:200px; border:14px solid green;"">","null","","","","","",""
"2071.6000000089407","","image-keyboard-response","393","664569","0.0-393.0","33FBRBDW6PLDQ8HU5ZAHD8XUR1D8CI","A14DC1USXBIRXU","3WPCIUYH1AU470H2HRBLZRFBM3CTDN","","","img/flower7.png","74","2075.5999999940395","1","1","1","0.8,0.2,0.2,0.2,0.8,0.2,0.2,0.2,0.8",""
"null","","html-keyboard-response","394","664893","0.0-394.0","33FBRBDW6PLDQ8HU5ZAHD8XUR1D8CI","A14DC1USXBIRXU","3WPCIUYH1AU470H2HRBLZRFBM3CTDN","","","<img src=""img/flower7.png"" style=""width:200px; border:14px solid green;"">","null","","","","","",""
"2603.8999999910593","","image-keyboard-response","395","667500","0.0-395.0","33FBRBDW6PLDQ8HU5ZAHD8XUR1D8CI","A14DC1USXBIRXU","3WPCIUYH1AU470H2HRBLZRFBM3CTDN","","","img/flower7.png","74","2606.0999999940395","1","1","1","0.8,0.2,0.2,0.2,0.8,0.2,0.2,0.2,0.8",""
"null","","html-keyboard-response","396","667812","0.0-396.0","33FBRBDW6PLDQ8HU5ZAHD8XUR1D8CI","A14DC1USXBIRXU","3WPCIUYH1AU470H2HRBLZRFBM3CTDN","","","<img src=""img/flower7.png"" style=""width:200px; border:14px solid green;"">","null","","","","","",""
"1882.300000011921","","image-keyboard-response","397","669697","0.0-397.0","33FBRBDW6PLDQ8HU5ZAHD8XUR1D8CI","A14DC1USXBIRXU","3WPCIUYH1AU470H2HRBLZRFBM3CTDN","","","img/flower2.png","75","1883.9000000059605","2","1","2","0.8,0.2,0.2,0.2,0.8,0.2,0.2,0.2,0.8",""
"null","","html-keyboard-response","398","670033","0.0-398.0","33FBRBDW6PLDQ8HU5ZAHD8XUR1D8CI","A14DC1USXBIRXU","3WPCIUYH1AU470H2HRBLZRFBM3CTDN","","","<img src=""img/flower2.png"" style=""width:200px; border:14px solid green;"">","null","","","","","",""
"1833.5","","image-keyboard-response","399","671884","0.0-399.0","33FBRBDW6PLDQ8HU5ZAHD8XUR1D8CI","A14DC1USXBIRXU","3WPCIUYH1AU470H2HRBLZRFBM3CTDN","","","img/flower2.png","75","1845.5999999940395","2","0","2","0.8,0.2,0.2,0.2,0.8,0.2,0.2,0.2,0.8",""
"null","","html-keyboard-response","400","672197","0.0-400.0","33FBRBDW6PLDQ8HU5ZAHD8XUR1D8CI","A14DC1USXBIRXU","3WPCIUYH1AU470H2HRBLZRFBM3CTDN","","","<img src=""img/flower2.png"" style=""width:200px;border:14px solid red;"">","null","","","","","",""
