"success","trial_type","trial_index","time_elapsed","internal_node_id","assignmentID","mturkID","hitID","view_history","rt","stimulus","key_press","reactionTime","a","r","s","cond","reward_cond","reward_cond_actual","reward_matrix_idx","responses"
"true","fullscreen","0","7124","0.0-0.0","","","","","","","","","","","","","","","",""
"","instructions","1","26778","0.0-1.0","","","","[{""page_index"":0,""viewing_time"":1662.1000001430511},{""page_index"":1,""viewing_time"":1800.2000000476837},{""page_index"":2,""viewing_time"":1928.1999998092651},{""page_index"":3,""viewing_time"":2266.100000143051},{""page_index"":4,""viewing_time"":4294.799999952316},{""page_index"":5,""viewing_time"":2887.4000000953674},{""page_index"":6,""viewing_time"":3200.699999809265},{""page_index"":7,""viewing_time"":1609.2000000476837}]","19649.5","","","","","","","","","","",""
"","image-keyboard-response","2","27360","0.0-2.0","","","","","576.7000000476837","img/flower6.png","74","580.5999999046326","1","1","3","1","1,0.333,0.333,0.333,1,0.333,0.333,0.333,1","1,0.333,0.333,0.333,1,0.333,0.333,0.333,1","1",""
"","html-keyboard-response","3","27679","0.0-3.0","","","","","null","<img src=""img/flower6.png"" style=""width:200px; border:14px solid green;"">","null","","","","","","","","",""
"","image-keyboard-response","4","29195","0.0-4.0","","","","","1512.2999999523163","img/flower6.png","74","1515.4000000953674","1","0","3","1","1,0.333,0.333,0.333,1,0.333,0.333,0.333,1","1,0.333,0.333,0.333,1,0.333,0.333,0.333,1","1",""
"","html-keyboard-response","5","29501","0.0-5.0","","","","","null","<img src=""img/flower6.png"" style=""width:200px;border:14px solid red;"">","null","","","","","","","","",""
"","image-keyboard-response","6","30134","0.0-6.0","","","","","629.7999999523163","img/flower2.png","75","632.2999999523163","2","1","2","1","1,0.333,0.333,0.333,1,0.333,0.333,0.333,1","1,0.333,0.333,0.333,1,0.333,0.333,0.333,1","1",""
"","html-keyboard-response","7","30446","0.0-7.0","","","","","null","<img src=""img/flower2.png"" style=""width:200px; border:14px solid green;"">","null","","","","","","","","",""
"","image-keyboard-response","8","31585","0.0-8.0","","","","","1136","img/flower4.png","76","1138.1999998092651","3","0","1","1","1,0.333,0.333,0.333,1,0.333,0.333,0.333,1","1,0.333,0.333,0.333,1,0.333,0.333,0.333,1","1",""
"","html-keyboard-response","9","31898","0.0-9.0","","","","","null","<img src=""img/flower4.png"" style=""width:200px;border:14px solid red;"">","null","","","","","","","","",""
"","image-keyboard-response","10","32833","0.0-10.0","","","","","932.1000001430511","img/flower4.png","75","933.9000000953674","2","0","1","1","1,0.333,0.333,0.333,1,0.333,0.333,0.333,1","1,0.333,0.333,0.333,1,0.333,0.333,0.333,1","1",""
"","html-keyboard-response","11","33146","0.0-11.0","","","","","null","<img src=""img/flower4.png"" style=""width:200px;border:14px solid red;"">","null","","","","","","","","",""
"","image-keyboard-response","12","34045","0.0-12.0","","","","","896.7000000476837","img/flower4.png","74","899.2000000476837","1","1","1","1","1,0.333,0.333,0.333,1,0.333,0.333,0.333,1","1,0.333,0.333,0.333,1,0.333,0.333,0.333,1","1",""
"","html-keyboard-response","13","34354","0.0-13.0","","","","","null","<img src=""img/flower4.png"" style=""width:200px; border:14px solid green;"">","null","","","","","","","","",""
"","image-keyboard-response","14","35103","0.0-14.0","","","","","745.9000000953674","img/flower6.png","74","748.2999999523163","1","0","3","1","1,0.333,0.333,0.333,1,0.333,0.333,0.333,1","1,0.333,0.333,0.333,1,0.333,0.333,0.333,1","1",""
"","html-keyboard-response","15","35415","0.0-15.0","","","","","null","<img src=""img/flower6.png"" style=""width:200px;border:14px solid red;"">","null","","","","","","","","",""
"","image-keyboard-response","16","36819","0.0-16.0","","","","","1402.1000001430511","img/flower2.png","75","1404.4000000953674","2","1","2","1","1,0.333,0.333,0.333,1,0.333,0.333,0.333,1","1,0.333,0.333,0.333,1,0.333,0.333,0.333,1","1",""
"","html-keyboard-response","17","37132","0.0-17.0","","","","","null","<img src=""img/flower2.png"" style=""width:200px; border:14px solid green;"">","null","","","","","","","","",""
"","image-keyboard-response","18","38017","0.0-18.0","","","","","881.9000000953674","img/flower2.png","75","884.2999999523163","2","1","2","1","1,0.333,0.333,0.333,1,0.333,0.333,0.333,1","1,0.333,0.333,0.333,1,0.333,0.333,0.333,1","1",""
"","html-keyboard-response","19","38327","0.0-19.0","","","","","null","<img src=""img/flower2.png"" style=""width:200px; border:14px solid green;"">","null","","","","","","","","",""
"","image-keyboard-response","20","39135","0.0-20.0","","","","","805","img/flower6.png","74","807.5999999046326","1","0","3","1","1,0.333,0.333,0.333,1,0.333,0.333,0.333,1","1,0.333,0.333,0.333,1,0.333,0.333,0.333,1","1",""
"","html-keyboard-response","21","39447","0.0-21.0","","","","","null","<img src=""img/flower6.png"" style=""width:200px;border:14px solid red;"">","null","","","","","","","","",""
"","image-keyboard-response","22","39956","0.0-22.0","","","","","506.2999999523163","img/flower2.png","75","508.40000009536743","2","1","2","1","1,0.333,0.333,0.333,1,0.333,0.333,0.333,1","1,0.333,0.333,0.333,1,0.333,0.333,0.333,1","1",""
"","html-keyboard-response","23","40271","0.0-23.0","","","","","null","<img src=""img/flower2.png"" style=""width:200px; border:14px solid green;"">","null","","","","","","","","",""
"","image-keyboard-response","24","40731","0.0-24.0","","","","","457.60000014305115","img/flower2.png","75","459.39999985694885","2","1","2","1","1,0.333,0.333,0.333,1,0.333,0.333,0.333,1","1,0.333,0.333,0.333,1,0.333,0.333,0.333,1","1",""
"","html-keyboard-response","25","41038","0.0-25.0","","","","","null","<img src=""img/flower2.png"" style=""width:200px; border:14px solid green;"">","null","","","","","","","","",""
"","image-keyboard-response","26","41650","0.0-26.0","","","","","610.1999998092651","img/flower4.png","76","612.4000000953674","3","1","1","1","1,0.333,0.333,0.333,1,0.333,0.333,0.333,1","1,0.333,0.333,0.333,1,0.333,0.333,0.333,1","1",""
"","html-keyboard-response","27","41957","0.0-27.0","","","","","null","<img src=""img/flower4.png"" style=""width:200px; border:14px solid green;"">","null","","","","","","","","",""
"","image-keyboard-response","28","43067","0.0-28.0","","","","","1107.7999999523163","img/flower6.png","75","1110.0999999046326","2","0","3","1","1,0.333,0.333,0.333,1,0.333,0.333,0.333,1","1,0.333,0.333,0.333,1,0.333,0.333,0.333,1","1",""
"","html-keyboard-response","29","43375","0.0-29.0","","","","","null","<img src=""img/flower6.png"" style=""width:200px;border:14px solid red;"">","null","","","","","","","","",""
"","image-keyboard-response","30","44065","0.0-30.0","","","","","687.3000001907349","img/flower2.png","76","689.2999999523163","3","0","2","1","1,0.333,0.333,0.333,1,0.333,0.333,0.333,1","1,0.333,0.333,0.333,1,0.333,0.333,0.333,1","1",""
"","html-keyboard-response","31","44383","0.0-31.0","","","","","null","<img src=""img/flower2.png"" style=""width:200px;border:14px solid red;"">","null","","","","","","","","",""
"","image-keyboard-response","32","45298","0.0-32.0","","","","","912.5999999046326","img/flower6.png","74","914.7000000476837","1","1","3","1","1,0.333,0.333,0.333,1,0.333,0.333,0.333,1","1,0.333,0.333,0.333,1,0.333,0.333,0.333,1","1",""
"","html-keyboard-response","33","45611","0.0-33.0","","","","","null","<img src=""img/flower6.png"" style=""width:200px; border:14px solid green;"">","null","","","","","","","","",""
"","image-keyboard-response","34","46491","0.0-34.0","","","","","877.2000000476837","img/flower2.png","75","879.1999998092651","2","1","2","1","1,0.333,0.333,0.333,1,0.333,0.333,0.333,1","1,0.333,0.333,0.333,1,0.333,0.333,0.333,1","1",""
"","html-keyboard-response","35","46799","0.0-35.0","","","","","null","<img src=""img/flower2.png"" style=""width:200px; border:14px solid green;"">","null","","","","","","","","",""
"","image-keyboard-response","36","47888","0.0-36.0","","","","","1086.0999999046326","img/flower6.png","75","1088.3999998569489","2","0","3","1","1,0.333,0.333,0.333,1,0.333,0.333,0.333,1","1,0.333,0.333,0.333,1,0.333,0.333,0.333,1","1",""
"","html-keyboard-response","37","48192","0.0-37.0","","","","","null","<img src=""img/flower6.png"" style=""width:200px;border:14px solid red;"">","null","","","","","","","","",""
"","image-keyboard-response","38","48916","0.0-38.0","","","","","721.7999999523163","img/flower2.png","75","724","2","1","2","1","1,0.333,0.333,0.333,1,0.333,0.333,0.333,1","1,0.333,0.333,0.333,1,0.333,0.333,0.333,1","1",""
"","html-keyboard-response","39","49223","0.0-39.0","","","","","null","<img src=""img/flower2.png"" style=""width:200px; border:14px solid green;"">","null","","","","","","","","",""
"","image-keyboard-response","40","49914","0.0-40.0","","","","","688.5","img/flower6.png","74","690.3999998569489","1","0","3","1","1,0.333,0.333,0.333,1,0.333,0.333,0.333,1","1,0.333,0.333,0.333,1,0.333,0.333,0.333,1","1",""
"","html-keyboard-response","41","50217","0.0-41.0","","","","","null","<img src=""img/flower6.png"" style=""width:200px;border:14px solid red;"">","null","","","","","","","","",""
"","image-keyboard-response","42","50782","0.0-42.0","","","","","563.2000000476837","img/flower2.png","75","565.3000001907349","2","1","2","1","1,0.333,0.333,0.333,1,0.333,0.333,0.333,1","1,0.333,0.333,0.333,1,0.333,0.333,0.333,1","1",""
"","html-keyboard-response","43","51100","0.0-43.0","","","","","null","<img src=""img/flower2.png"" style=""width:200px; border:14px solid green;"">","null","","","","","","","","",""
"","image-keyboard-response","44","51655","0.0-44.0","","","","","552.1999998092651","img/flower4.png","76","554.2000000476837","3","1","1","1","1,0.333,0.333,0.333,1,0.333,0.333,0.333,1","1,0.333,0.333,0.333,1,0.333,0.333,0.333,1","1",""
"","html-keyboard-response","45","51961","0.0-45.0","","","","","null","<img src=""img/flower4.png"" style=""width:200px; border:14px solid green;"">","null","","","","","","","","",""
"","image-keyboard-response","46","52878","0.0-46.0","","","","","914","img/flower6.png","74","916.0999999046326","1","1","3","1","1,0.333,0.333,0.333,1,0.333,0.333,0.333,1","1,0.333,0.333,0.333,1,0.333,0.333,0.333,1","1",""
"","html-keyboard-response","47","53195","0.0-47.0","","","","","null","<img src=""img/flower6.png"" style=""width:200px; border:14px solid green;"">","null","","","","","","","","",""
"","image-keyboard-response","48","53806","0.0-48.0","","","","","609.6000001430511","img/flower6.png","74","611.0999999046326","1","0","3","1","1,0.333,0.333,0.333,1,0.333,0.333,0.333,1","1,0.333,0.333,0.333,1,0.333,0.333,0.333,1","1",""
"","html-keyboard-response","49","54111","0.0-49.0","","","","","null","<img src=""img/flower6.png"" style=""width:200px;border:14px solid red;"">","null","","","","","","","","",""
"","image-keyboard-response","50","54995","0.0-50.0","","","","","880.7999999523163","img/flower4.png","76","882.9000000953674","3","0","1","1","1,0.333,0.333,0.333,1,0.333,0.333,0.333,1","1,0.333,0.333,0.333,1,0.333,0.333,0.333,1","1",""
"","html-keyboard-response","51","55309","0.0-51.0","","","","","null","<img src=""img/flower4.png"" style=""width:200px;border:14px solid red;"">","null","","","","","","","","",""
"","image-keyboard-response","52","55872","0.0-52.0","","","","","560.7000000476837","img/flower4.png","75","562.2000000476837","2","1","1","1","1,0.333,0.333,0.333,1,0.333,0.333,0.333,1","1,0.333,0.333,0.333,1,0.333,0.333,0.333,1","1",""
"","html-keyboard-response","53","56177","0.0-53.0","","","","","null","<img src=""img/flower4.png"" style=""width:200px; border:14px solid green;"">","null","","","","","","","","",""
"","image-keyboard-response","54","56675","0.0-54.0","","","","","496","img/flower2.png","75","498.10000014305115","2","1","2","1","1,0.333,0.333,0.333,1,0.333,0.333,0.333,1","1,0.333,0.333,0.333,1,0.333,0.333,0.333,1","1",""
"","html-keyboard-response","55","56992","0.0-55.0","","","","","null","<img src=""img/flower2.png"" style=""width:200px; border:14px solid green;"">","null","","","","","","","","",""
"","image-keyboard-response","56","57309","0.0-56.0","","","","","314.40000009536743","img/flower2.png","75","316.60000014305115","2","1","2","1","1,0.333,0.333,0.333,1,0.333,0.333,0.333,1","1,0.333,0.333,0.333,1,0.333,0.333,0.333,1","1",""
"","html-keyboard-response","57","57626","0.0-57.0","","","","","null","<img src=""img/flower2.png"" style=""width:200px; border:14px solid green;"">","null","","","","","","","","",""
"","image-keyboard-response","58","58372","0.0-58.0","","","","","742.9000000953674","img/flower4.png","76","744.7000000476837","3","1","1","1","1,0.333,0.333,0.333,1,0.333,0.333,0.333,1","1,0.333,0.333,0.333,1,0.333,0.333,0.333,1","1",""
"","html-keyboard-response","59","58679","0.0-59.0","","","","","null","<img src=""img/flower4.png"" style=""width:200px; border:14px solid green;"">","null","","","","","","","","",""
"","image-keyboard-response","60","59185","0.0-60.0","","","","","504.90000009536743","img/flower2.png","75","506.2999999523163","2","1","2","1","1,0.333,0.333,0.333,1,0.333,0.333,0.333,1","1,0.333,0.333,0.333,1,0.333,0.333,0.333,1","1",""
"","html-keyboard-response","61","59495","0.0-61.0","","","","","null","<img src=""img/flower2.png"" style=""width:200px; border:14px solid green;"">","null","","","","","","","","",""
"","image-keyboard-response","62","59914","0.0-62.0","","","","","417.40000009536743","img/flower4.png","75","418.7999999523163","2","0","1","1","1,0.333,0.333,0.333,1,0.333,0.333,0.333,1","1,0.333,0.333,0.333,1,0.333,0.333,0.333,1","1",""
"","html-keyboard-response","63","60225","0.0-63.0","","","","","null","<img src=""img/flower4.png"" style=""width:200px;border:14px solid red;"">","null","","","","","","","","",""
"","image-keyboard-response","64","60712","0.0-64.0","","","","","484.2000000476837","img/flower2.png","75","486.2999999523163","2","1","2","1","1,0.333,0.333,0.333,1,0.333,0.333,0.333,1","1,0.333,0.333,0.333,1,0.333,0.333,0.333,1","1",""
"","html-keyboard-response","65","61017","0.0-65.0","","","","","null","<img src=""img/flower2.png"" style=""width:200px; border:14px solid green;"">","null","","","","","","","","",""
"","image-keyboard-response","66","61378","0.0-66.0","","","","","358.2000000476837","img/flower2.png","75","360.2000000476837","2","1","2","1","1,0.333,0.333,0.333,1,0.333,0.333,0.333,1","1,0.333,0.333,0.333,1,0.333,0.333,0.333,1","1",""
"","html-keyboard-response","67","61690","0.0-67.0","","","","","null","<img src=""img/flower2.png"" style=""width:200px; border:14px solid green;"">","null","","","","","","","","",""
"","image-keyboard-response","68","62385","0.0-68.0","","","","","692.1000001430511","img/flower6.png","75","694.0999999046326","2","0","3","1","1,0.333,0.333,0.333,1,0.333,0.333,0.333,1","1,0.333,0.333,0.333,1,0.333,0.333,0.333,1","1",""
"","html-keyboard-response","69","62700","0.0-69.0","","","","","null","<img src=""img/flower6.png"" style=""width:200px;border:14px solid red;"">","null","","","","","","","","",""
"","image-keyboard-response","70","63197","0.0-70.0","","","","","494.2999999523163","img/flower2.png","75","496.5","2","1","2","1","1,0.333,0.333,0.333,1,0.333,0.333,0.333,1","1,0.333,0.333,0.333,1,0.333,0.333,0.333,1","1",""
"","html-keyboard-response","71","63501","0.0-71.0","","","","","null","<img src=""img/flower2.png"" style=""width:200px; border:14px solid green;"">","null","","","","","","","","",""
"","image-keyboard-response","72","63918","0.0-72.0","","","","","414","img/flower2.png","75","416.40000009536743","2","1","2","1","1,0.333,0.333,0.333,1,0.333,0.333,0.333,1","1,0.333,0.333,0.333,1,0.333,0.333,0.333,1","1",""
"","html-keyboard-response","73","64229","0.0-73.0","","","","","null","<img src=""img/flower2.png"" style=""width:200px; border:14px solid green;"">","null","","","","","","","","",""
"","image-keyboard-response","74","64969","0.0-74.0","","","","","736.5999999046326","img/flower4.png","75","738.7000000476837","2","0","1","1","1,0.333,0.333,0.333,1,0.333,0.333,0.333,1","1,0.333,0.333,0.333,1,0.333,0.333,0.333,1","1",""
"","html-keyboard-response","75","65277","0.0-75.0","","","","","null","<img src=""img/flower4.png"" style=""width:200px;border:14px solid red;"">","null","","","","","","","","",""
"","image-keyboard-response","76","65747","0.0-76.0","","","","","468.40000009536743","img/flower2.png","75","470.39999985694885","2","1","2","1","1,0.333,0.333,0.333,1,0.333,0.333,0.333,1","1,0.333,0.333,0.333,1,0.333,0.333,0.333,1","1",""
"","html-keyboard-response","77","66054","0.0-77.0","","","","","null","<img src=""img/flower2.png"" style=""width:200px; border:14px solid green;"">","null","","","","","","","","",""
"","image-keyboard-response","78","66831","0.0-78.0","","","","","774.9000000953674","img/flower6.png","76","777.2000000476837","3","1","3","1","1,0.333,0.333,0.333,1,0.333,0.333,0.333,1","1,0.333,0.333,0.333,1,0.333,0.333,0.333,1","1",""
"","html-keyboard-response","79","67149","0.0-79.0","","","","","null","<img src=""img/flower6.png"" style=""width:200px; border:14px solid green;"">","null","","","","","","","","",""
"","image-keyboard-response","80","67793","0.0-80.0","","","","","641.0999999046326","img/flower4.png","75","643.3999998569489","2","0","1","1","1,0.333,0.333,0.333,1,0.333,0.333,0.333,1","1,0.333,0.333,0.333,1,0.333,0.333,0.333,1","1",""
"","html-keyboard-response","81","68107","0.0-81.0","","","","","null","<img src=""img/flower4.png"" style=""width:200px;border:14px solid red;"">","null","","","","","","","","",""
"","image-keyboard-response","82","68622","0.0-82.0","","","","","512.3999998569489","img/flower4.png","76","514.7000000476837","3","0","1","1","1,0.333,0.333,0.333,1,0.333,0.333,0.333,1","1,0.333,0.333,0.333,1,0.333,0.333,0.333,1","1",""
"","html-keyboard-response","83","68938","0.0-83.0","","","","","null","<img src=""img/flower4.png"" style=""width:200px;border:14px solid red;"">","null","","","","","","","","",""
"","image-keyboard-response","84","69919","0.0-84.0","","","","","978.7000000476837","img/flower6.png","76","980.7000000476837","3","1","3","1","1,0.333,0.333,0.333,1,0.333,0.333,0.333,1","1,0.333,0.333,0.333,1,0.333,0.333,0.333,1","1",""
"","html-keyboard-response","85","70228","0.0-85.0","","","","","null","<img src=""img/flower6.png"" style=""width:200px; border:14px solid green;"">","null","","","","","","","","",""
"","image-keyboard-response","86","71022","0.0-86.0","","","","","790.9000000953674","img/flower4.png","74","793.0999999046326","1","1","1","1","1,0.333,0.333,0.333,1,0.333,0.333,0.333,1","1,0.333,0.333,0.333,1,0.333,0.333,0.333,1","1",""
"","html-keyboard-response","87","71333","0.0-87.0","","","","","null","<img src=""img/flower4.png"" style=""width:200px; border:14px solid green;"">","null","","","","","","","","",""
"","image-keyboard-response","88","71871","0.0-88.0","","","","","536","img/flower4.png","74","538.2999999523163","1","1","1","1","1,0.333,0.333,0.333,1,0.333,0.333,0.333,1","1,0.333,0.333,0.333,1,0.333,0.333,0.333,1","1",""
"","html-keyboard-response","89","72179","0.0-89.0","","","","","null","<img src=""img/flower4.png"" style=""width:200px; border:14px solid green;"">","null","","","","","","","","",""
"","image-keyboard-response","90","73037","0.0-90.0","","","","","854.5","img/flower6.png","76","856.5999999046326","3","1","3","1","1,0.333,0.333,0.333,1,0.333,0.333,0.333,1","1,0.333,0.333,0.333,1,0.333,0.333,0.333,1","1",""
"","html-keyboard-response","91","73345","0.0-91.0","","","","","null","<img src=""img/flower6.png"" style=""width:200px; border:14px solid green;"">","null","","","","","","","","",""
"","image-keyboard-response","92","73941","0.0-92.0","","","","","594.8999998569489","img/flower6.png","76","596.2000000476837","3","1","3","1","1,0.333,0.333,0.333,1,0.333,0.333,0.333,1","1,0.333,0.333,0.333,1,0.333,0.333,0.333,1","1",""
"","html-keyboard-response","93","74256","0.0-93.0","","","","","null","<img src=""img/flower6.png"" style=""width:200px; border:14px solid green;"">","null","","","","","","","","",""
"","image-keyboard-response","94","74705","0.0-94.0","","","","","445.7999999523163","img/flower6.png","76","448.2000000476837","3","1","3","1","1,0.333,0.333,0.333,1,0.333,0.333,0.333,1","1,0.333,0.333,0.333,1,0.333,0.333,0.333,1","1",""
"","html-keyboard-response","95","75017","0.0-95.0","","","","","null","<img src=""img/flower6.png"" style=""width:200px; border:14px solid green;"">","null","","","","","","","","",""
"","image-keyboard-response","96","75444","0.0-96.0","","","","","424.10000014305115","img/flower6.png","76","426","3","1","3","1","1,0.333,0.333,0.333,1,0.333,0.333,0.333,1","1,0.333,0.333,0.333,1,0.333,0.333,0.333,1","1",""
"","html-keyboard-response","97","75753","0.0-97.0","","","","","null","<img src=""img/flower6.png"" style=""width:200px; border:14px solid green;"">","null","","","","","","","","",""
"","image-keyboard-response","98","76336","0.0-98.0","","","","","580.7999999523163","img/flower4.png","74","582.8999998569489","1","1","1","1","1,0.333,0.333,0.333,1,0.333,0.333,0.333,1","1,0.333,0.333,0.333,1,0.333,0.333,0.333,1","1",""
"","html-keyboard-response","99","76641","0.0-99.0","","","","","null","<img src=""img/flower4.png"" style=""width:200px; border:14px solid green;"">","null","","","","","","","","",""
"","image-keyboard-response","100","77040","0.0-100.0","","","","","397.39999985694885","img/flower4.png","74","398.90000009536743","1","1","1","1","1,0.333,0.333,0.333,1,0.333,0.333,0.333,1","1,0.333,0.333,0.333,1,0.333,0.333,0.333,1","1",""
"","html-keyboard-response","101","77359","0.0-101.0","","","","","null","<img src=""img/flower4.png"" style=""width:200px; border:14px solid green;"">","null","","","","","","","","",""
"","image-keyboard-response","102","78038","0.0-102.0","","","","","676.7000000476837","img/flower6.png","76","678.9000000953674","3","1","3","1","1,0.333,0.333,0.333,1,0.333,0.333,0.333,1","1,0.333,0.333,0.333,1,0.333,0.333,0.333,1","1",""
"","html-keyboard-response","103","78356","0.0-103.0","","","","","null","<img src=""img/flower6.png"" style=""width:200px; border:14px solid green;"">","null","","","","","","","","",""
"","image-keyboard-response","104","79011","0.0-104.0","","","","","652.2999999523163","img/flower2.png","75","654.5","2","1","2","1","1,0.333,0.333,0.333,1,0.333,0.333,0.333,1","1,0.333,0.333,0.333,1,0.333,0.333,0.333,1","1",""
"","html-keyboard-response","105","79320","0.0-105.0","","","","","null","<img src=""img/flower2.png"" style=""width:200px; border:14px solid green;"">","null","","","","","","","","",""
"","image-keyboard-response","106","79705","0.0-106.0","","","","","382.40000009536743","img/flower2.png","75","384.39999985694885","2","1","2","1","1,0.333,0.333,0.333,1,0.333,0.333,0.333,1","1,0.333,0.333,0.333,1,0.333,0.333,0.333,1","1",""
"","html-keyboard-response","107","80013","0.0-107.0","","","","","null","<img src=""img/flower2.png"" style=""width:200px; border:14px solid green;"">","null","","","","","","","","",""
"","image-keyboard-response","108","80798","0.0-108.0","","","","","782","img/flower6.png","76","784.1999998092651","3","1","3","1","1,0.333,0.333,0.333,1,0.333,0.333,0.333,1","1,0.333,0.333,0.333,1,0.333,0.333,0.333,1","1",""
"","html-keyboard-response","109","81107","0.0-109.0","","","","","null","<img src=""img/flower6.png"" style=""width:200px; border:14px solid green;"">","null","","","","","","","","",""
"","image-keyboard-response","110","81892","0.0-110.0","","","","","782.0999999046326","img/flower4.png","74","784.5","1","1","1","1","1,0.333,0.333,0.333,1,0.333,0.333,0.333,1","1,0.333,0.333,0.333,1,0.333,0.333,0.333,1","1",""
"","html-keyboard-response","111","82201","0.0-111.0","","","","","null","<img src=""img/flower4.png"" style=""width:200px; border:14px solid green;"">","null","","","","","","","","",""
"","image-keyboard-response","112","82849","0.0-112.0","","","","","644.7999999523163","img/flower6.png","76","647.1000001430511","3","1","3","1","1,0.333,0.333,0.333,1,0.333,0.333,0.333,1","1,0.333,0.333,0.333,1,0.333,0.333,0.333,1","1",""
"","html-keyboard-response","113","83154","0.0-113.0","","","","","null","<img src=""img/flower6.png"" style=""width:200px; border:14px solid green;"">","null","","","","","","","","",""
"","image-keyboard-response","114","83667","0.0-114.0","","","","","510.7000000476837","img/flower6.png","76","512.7000000476837","3","1","3","1","1,0.333,0.333,0.333,1,0.333,0.333,0.333,1","1,0.333,0.333,0.333,1,0.333,0.333,0.333,1","1",""
"","html-keyboard-response","115","83978","0.0-115.0","","","","","null","<img src=""img/flower6.png"" style=""width:200px; border:14px solid green;"">","null","","","","","","","","",""
"","image-keyboard-response","116","84850","0.0-116.0","","","","","869.0999999046326","img/flower6.png","76","871.5","3","1","3","1","1,0.333,0.333,0.333,1,0.333,0.333,0.333,1","1,0.333,0.333,0.333,1,0.333,0.333,0.333,1","1",""
"","html-keyboard-response","117","85180","0.0-117.0","","","","","null","<img src=""img/flower6.png"" style=""width:200px; border:14px solid green;"">","null","","","","","","","","",""
"","image-keyboard-response","118","85533","0.0-118.0","","","","","350.69999980926514","img/flower6.png","76","352.89999985694885","3","1","3","1","1,0.333,0.333,0.333,1,0.333,0.333,0.333,1","1,0.333,0.333,0.333,1,0.333,0.333,0.333,1","1",""
"","html-keyboard-response","119","85837","0.0-119.0","","","","","null","<img src=""img/flower6.png"" style=""width:200px; border:14px solid green;"">","null","","","","","","","","",""
"","image-keyboard-response","120","86392","0.0-120.0","","","","","552.0999999046326","img/flower2.png","75","554.4000000953674","2","1","2","1","1,0.333,0.333,0.333,1,0.333,0.333,0.333,1","1,0.333,0.333,0.333,1,0.333,0.333,0.333,1","1",""
"","html-keyboard-response","121","86710","0.0-121.0","","","","","null","<img src=""img/flower2.png"" style=""width:200px; border:14px solid green;"">","null","","","","","","","","",""
"","image-keyboard-response","122","87200","0.0-122.0","","","","","487.39999985694885","img/flower6.png","76","489.7000000476837","3","1","3","1","1,0.333,0.333,0.333,1,0.333,0.333,0.333,1","1,0.333,0.333,0.333,1,0.333,0.333,0.333,1","1",""
"","html-keyboard-response","123","87506","0.0-123.0","","","","","null","<img src=""img/flower6.png"" style=""width:200px; border:14px solid green;"">","null","","","","","","","","",""
"","image-keyboard-response","124","88188","0.0-124.0","","","","","679","img/flower4.png","74","681.2999999523163","1","1","1","1","1,0.333,0.333,0.333,1,0.333,0.333,0.333,1","1,0.333,0.333,0.333,1,0.333,0.333,0.333,1","1",""
"","html-keyboard-response","125","88492","0.0-125.0","","","","","null","<img src=""img/flower4.png"" style=""width:200px; border:14px solid green;"">","null","","","","","","","","",""
"","image-keyboard-response","126","89067","0.0-126.0","","","","","573.5","img/flower6.png","75","575.3999998569489","2","0","3","1","1,0.333,0.333,0.333,1,0.333,0.333,0.333,1","1,0.333,0.333,0.333,1,0.333,0.333,0.333,1","1",""
"","html-keyboard-response","127","89380","0.0-127.0","","","","","null","<img src=""img/flower6.png"" style=""width:200px;border:14px solid red;"">","null","","","","","","","","",""
"","image-keyboard-response","128","89979","0.0-128.0","","","","","598.5","img/flower4.png","74","599.9000000953674","1","1","1","1","1,0.333,0.333,0.333,1,0.333,0.333,0.333,1","1,0.333,0.333,0.333,1,0.333,0.333,0.333,1","1",""
"","html-keyboard-response","129","90290","0.0-129.0","","","","","null","<img src=""img/flower4.png"" style=""width:200px; border:14px solid green;"">","null","","","","","","","","",""
"","image-keyboard-response","130","91202","0.0-130.0","","","","","910.5999999046326","img/flower2.png","75","912.0999999046326","2","1","2","1","1,0.333,0.333,0.333,1,0.333,0.333,0.333,1","1,0.333,0.333,0.333,1,0.333,0.333,0.333,1","1",""
"","html-keyboard-response","131","91506","0.0-131.0","","","","","null","<img src=""img/flower2.png"" style=""width:200px; border:14px solid green;"">","null","","","","","","","","",""
"","image-keyboard-response","132","92654","0.0-132.0","","","","","1145.2000000476837","img/flower4.png","76","1147.2999999523163","3","0","1","1","1,0.333,0.333,0.333,1,0.333,0.333,0.333,1","1,0.333,0.333,0.333,1,0.333,0.333,0.333,1","1",""
"","html-keyboard-response","133","92969","0.0-133.0","","","","","null","<img src=""img/flower4.png"" style=""width:200px;border:14px solid red;"">","null","","","","","","","","",""
"","image-keyboard-response","134","93717","0.0-134.0","","","","","745","img/flower2.png","75","746.5","2","1","2","1","1,0.333,0.333,0.333,1,0.333,0.333,0.333,1","1,0.333,0.333,0.333,1,0.333,0.333,0.333,1","1",""
"","html-keyboard-response","135","94030","0.0-135.0","","","","","null","<img src=""img/flower2.png"" style=""width:200px; border:14px solid green;"">","null","","","","","","","","",""
"","image-keyboard-response","136","94465","0.0-136.0","","","","","432.5","img/flower4.png","74","434.80000019073486","1","1","1","1","1,0.333,0.333,0.333,1,0.333,0.333,0.333,1","1,0.333,0.333,0.333,1,0.333,0.333,0.333,1","1",""
"","html-keyboard-response","137","94771","0.0-137.0","","","","","null","<img src=""img/flower4.png"" style=""width:200px; border:14px solid green;"">","null","","","","","","","","",""
"","image-keyboard-response","138","95269","0.0-138.0","","","","","494.2000000476837","img/flower2.png","75","496.7000000476837","2","1","2","1","1,0.333,0.333,0.333,1,0.333,0.333,0.333,1","1,0.333,0.333,0.333,1,0.333,0.333,0.333,1","1",""
"","html-keyboard-response","139","95583","0.0-139.0","","","","","null","<img src=""img/flower2.png"" style=""width:200px; border:14px solid green;"">","null","","","","","","","","",""
"","image-keyboard-response","140","95967","0.0-140.0","","","","","381.5","img/flower2.png","75","383.7000000476837","2","1","2","1","1,0.333,0.333,0.333,1,0.333,0.333,0.333,1","1,0.333,0.333,0.333,1,0.333,0.333,0.333,1","1",""
"","html-keyboard-response","141","96274","0.0-141.0","","","","","null","<img src=""img/flower2.png"" style=""width:200px; border:14px solid green;"">","null","","","","","","","","",""
"","image-keyboard-response","142","96757","0.0-142.0","","","","","481.09999990463257","img/flower2.png","75","483.10000014305115","2","1","2","1","1,0.333,0.333,0.333,1,0.333,0.333,0.333,1","1,0.333,0.333,0.333,1,0.333,0.333,0.333,1","1",""
"","html-keyboard-response","143","97066","0.0-143.0","","","","","null","<img src=""img/flower2.png"" style=""width:200px; border:14px solid green;"">","null","","","","","","","","",""
"","image-keyboard-response","144","97499","0.0-144.0","","","","","431.2000000476837","img/flower2.png","75","433.19999980926514","2","1","2","1","1,0.333,0.333,0.333,1,0.333,0.333,0.333,1","1,0.333,0.333,0.333,1,0.333,0.333,0.333,1","1",""
"","html-keyboard-response","145","97809","0.0-145.0","","","","","null","<img src=""img/flower2.png"" style=""width:200px; border:14px solid green;"">","null","","","","","","","","",""
"","image-keyboard-response","146","98518","0.0-146.0","","","","","706.2999999523163","img/flower6.png","76","708.3000001907349","3","1","3","1","1,0.333,0.333,0.333,1,0.333,0.333,0.333,1","1,0.333,0.333,0.333,1,0.333,0.333,0.333,1","1",""
"","html-keyboard-response","147","98825","0.0-147.0","","","","","null","<img src=""img/flower6.png"" style=""width:200px; border:14px solid green;"">","null","","","","","","","","",""
"","image-keyboard-response","148","99715","0.0-148.0","","","","","887.2000000476837","img/flower4.png","74","889.2999999523163","1","1","1","1","1,0.333,0.333,0.333,1,0.333,0.333,0.333,1","1,0.333,0.333,0.333,1,0.333,0.333,0.333,1","1",""
"","html-keyboard-response","149","100026","0.0-149.0","","","","","null","<img src=""img/flower4.png"" style=""width:200px; border:14px solid green;"">","null","","","","","","","","",""
"","image-keyboard-response","150","100509","0.0-150.0","","","","","479.89999985694885","img/flower2.png","75","482.2000000476837","2","1","2","1","1,0.333,0.333,0.333,1,0.333,0.333,0.333,1","1,0.333,0.333,0.333,1,0.333,0.333,0.333,1","1",""
"","html-keyboard-response","151","100827","0.0-151.0","","","","","null","<img src=""img/flower2.png"" style=""width:200px; border:14px solid green;"">","null","","","","","","","","",""
"","image-keyboard-response","152","101297","0.0-152.0","","","","","466.7000000476837","img/flower4.png","74","469","1","1","1","1","1,0.333,0.333,0.333,1,0.333,0.333,0.333,1","1,0.333,0.333,0.333,1,0.333,0.333,0.333,1","1",""
"","html-keyboard-response","153","101611","0.0-153.0","","","","","null","<img src=""img/flower4.png"" style=""width:200px; border:14px solid green;"">","null","","","","","","","","",""
"","image-keyboard-response","154","102184","0.0-154.0","","","","","570.8999998569489","img/flower6.png","76","572.9000000953674","3","1","3","1","1,0.333,0.333,0.333,1,0.333,0.333,0.333,1","1,0.333,0.333,0.333,1,0.333,0.333,0.333,1","1",""
"","html-keyboard-response","155","102499","0.0-155.0","","","","","null","<img src=""img/flower6.png"" style=""width:200px; border:14px solid green;"">","null","","","","","","","","",""
"","image-keyboard-response","156","103110","0.0-156.0","","","","","608.9000000953674","img/flower2.png","75","611.1999998092651","2","1","2","1","1,0.333,0.333,0.333,1,0.333,0.333,0.333,1","1,0.333,0.333,0.333,1,0.333,0.333,0.333,1","1",""
"","html-keyboard-response","157","103420","0.0-157.0","","","","","null","<img src=""img/flower2.png"" style=""width:200px; border:14px solid green;"">","null","","","","","","","","",""
"","image-keyboard-response","158","104048","0.0-158.0","","","","","624.8000001907349","img/flower4.png","74","627","1","1","1","1","1,0.333,0.333,0.333,1,0.333,0.333,0.333,1","1,0.333,0.333,0.333,1,0.333,0.333,0.333,1","1",""
"","html-keyboard-response","159","104356","0.0-159.0","","","","","null","<img src=""img/flower4.png"" style=""width:200px; border:14px solid green;"">","null","","","","","","","","",""
"","image-keyboard-response","160","104961","0.0-160.0","","","","","601.7999999523163","img/flower2.png","75","604.1000001430511","2","1","2","1","1,0.333,0.333,0.333,1,0.333,0.333,0.333,1","1,0.333,0.333,0.333,1,0.333,0.333,0.333,1","1",""
"","html-keyboard-response","161","105275","0.0-161.0","","","","","null","<img src=""img/flower2.png"" style=""width:200px; border:14px solid green;"">","null","","","","","","","","",""
"","image-keyboard-response","162","105665","0.0-162.0","","","","","387.09999990463257","img/flower2.png","75","389.2999999523163","2","1","2","1","1,0.333,0.333,0.333,1,0.333,0.333,0.333,1","1,0.333,0.333,0.333,1,0.333,0.333,0.333,1","1",""
"","html-keyboard-response","163","105981","0.0-163.0","","","","","null","<img src=""img/flower2.png"" style=""width:200px; border:14px solid green;"">","null","","","","","","","","",""
"","image-keyboard-response","164","106617","0.0-164.0","","","","","633.7000000476837","img/flower4.png","76","635.7999999523163","3","1","1","1","1,0.333,0.333,0.333,1,0.333,0.333,0.333,1","1,0.333,0.333,0.333,1,0.333,0.333,0.333,1","1",""
"","html-keyboard-response","165","106921","0.0-165.0","","","","","null","<img src=""img/flower4.png"" style=""width:200px; border:14px solid green;"">","null","","","","","","","","",""
"","image-keyboard-response","166","107311","0.0-166.0","","","","","387.39999985694885","img/flower4.png","76","389.60000014305115","3","1","1","1","1,0.333,0.333,0.333,1,0.333,0.333,0.333,1","1,0.333,0.333,0.333,1,0.333,0.333,0.333,1","1",""
"","html-keyboard-response","167","107624","0.0-167.0","","","","","null","<img src=""img/flower4.png"" style=""width:200px; border:14px solid green;"">","null","","","","","","","","",""
"","image-keyboard-response","168","108155","0.0-168.0","","","","","527.8000001907349","img/flower4.png","76","530","3","0","1","1","1,0.333,0.333,0.333,1,0.333,0.333,0.333,1","1,0.333,0.333,0.333,1,0.333,0.333,0.333,1","1",""
"","html-keyboard-response","169","108459","0.0-169.0","","","","","null","<img src=""img/flower4.png"" style=""width:200px;border:14px solid red;"">","null","","","","","","","","",""
"","image-keyboard-response","170","108989","0.0-170.0","","","","","526.7999999523163","img/flower4.png","76","529","3","0","1","1","1,0.333,0.333,0.333,1,0.333,0.333,0.333,1","1,0.333,0.333,0.333,1,0.333,0.333,0.333,1","1",""
"","html-keyboard-response","171","109296","0.0-171.0","","","","","null","<img src=""img/flower4.png"" style=""width:200px;border:14px solid red;"">","null","","","","","","","","",""
"","image-keyboard-response","172","110146","0.0-172.0","","","","","847.1999998092651","img/flower6.png","74","849.2999999523163","1","1","3","1","1,0.333,0.333,0.333,1,0.333,0.333,0.333,1","1,0.333,0.333,0.333,1,0.333,0.333,0.333,1","1",""
"","html-keyboard-response","173","110463","0.0-173.0","","","","","null","<img src=""img/flower6.png"" style=""width:200px; border:14px solid green;"">","null","","","","","","","","",""
"","image-keyboard-response","174","110870","0.0-174.0","","","","","405.2000000476837","img/flower6.png","74","406.60000014305115","1","0","3","1","1,0.333,0.333,0.333,1,0.333,0.333,0.333,1","1,0.333,0.333,0.333,1,0.333,0.333,0.333,1","1",""
"","html-keyboard-response","175","111182","0.0-175.0","","","","","null","<img src=""img/flower6.png"" style=""width:200px;border:14px solid red;"">","null","","","","","","","","",""
"","image-keyboard-response","176","111896","0.0-176.0","","","","","711.9000000953674","img/flower4.png","76","714.0999999046326","3","0","1","1","1,0.333,0.333,0.333,1,0.333,0.333,0.333,1","1,0.333,0.333,0.333,1,0.333,0.333,0.333,1","1",""
"","html-keyboard-response","177","112208","0.0-177.0","","","","","null","<img src=""img/flower4.png"" style=""width:200px;border:14px solid red;"">","null","","","","","","","","",""
"","image-keyboard-response","178","112580","0.0-178.0","","","","","369.59999990463257","img/flower4.png","74","371.59999990463257","1","1","1","1","1,0.333,0.333,0.333,1,0.333,0.333,0.333,1","1,0.333,0.333,0.333,1,0.333,0.333,0.333,1","1",""
"","html-keyboard-response","179","112882","0.0-179.0","","","","","null","<img src=""img/flower4.png"" style=""width:200px; border:14px solid green;"">","null","","","","","","","","",""
"","image-keyboard-response","180","113794","0.0-180.0","","","","","909.9000000953674","img/flower6.png","76","912","3","1","3","1","1,0.333,0.333,0.333,1,0.333,0.333,0.333,1","1,0.333,0.333,0.333,1,0.333,0.333,0.333,1","1",""
"","html-keyboard-response","181","114099","0.0-181.0","","","","","null","<img src=""img/flower6.png"" style=""width:200px; border:14px solid green;"">","null","","","","","","","","",""
"","html-keyboard-response","182","117616","0.0-182.0","","","","","","","","","","","","","","","",""
"","image-keyboard-response","183","118345","0.0-183.0","","","","","725.8999998569489","img/flower5.png","75","728.5999999046326","2","0","1","2","1,0,0,1,1,0,1,0,1","1,0,0,1,1,0,1,0,1","1",""
"","html-keyboard-response","184","118663","0.0-184.0","","","","","null","<img src=""img/flower5.png"" style=""width:200px;border:14px solid red;"">","null","","","","","","","","",""
"","image-keyboard-response","185","119428","0.0-185.0","","","","","762","img/flower3.png","75","764.2999999523163","2","0","3","2","1,0,0,1,1,0,1,0,1","1,0,0,1,1,0,1,0,1","1",""
"","html-keyboard-response","186","119743","0.0-186.0","","","","","null","<img src=""img/flower3.png"" style=""width:200px;border:14px solid red;"">","null","","","","","","","","",""
"","image-keyboard-response","187","120432","0.0-187.0","","","","","686.2999999523163","img/flower5.png","75","688.5","2","0","1","2","1,0,0,1,1,0,1,0,1","1,0,0,1,1,0,1,0,1","1",""
"","html-keyboard-response","188","120750","0.0-188.0","","","","","null","<img src=""img/flower5.png"" style=""width:200px;border:14px solid red;"">","null","","","","","","","","",""
"","image-keyboard-response","189","121160","0.0-189.0","","","","","407.2000000476837","img/flower5.png","76","409.5","3","0","1","2","1,0,0,1,1,0,1,0,1","1,0,0,1,1,0,1,0,1","1",""
"","html-keyboard-response","190","121476","0.0-190.0","","","","","null","<img src=""img/flower5.png"" style=""width:200px;border:14px solid red;"">","null","","","","","","","","",""
"","image-keyboard-response","191","121875","0.0-191.0","","","","","396.2999999523163","img/flower5.png","74","398.89999985694885","1","1","1","2","1,0,0,1,1,0,1,0,1","1,0,0,1,1,0,1,0,1","1",""
"","html-keyboard-response","192","122183","0.0-192.0","","","","","null","<img src=""img/flower5.png"" style=""width:200px; border:14px solid green;"">","null","","","","","","","","",""
"","image-keyboard-response","193","123310","0.0-193.0","","","","","1124.1000001430511","img/flower1.png","75","1127","2","1","2","2","1,0,0,1,1,0,1,0,1","1,0,0,1,1,0,1,0,1","1",""
"","html-keyboard-response","194","123620","0.0-194.0","","","","","null","<img src=""img/flower1.png"" style=""width:200px; border:14px solid green;"">","null","","","","","","","","",""
"","image-keyboard-response","195","124135","0.0-195.0","","","","","511.5","img/flower1.png","75","513.8000001907349","2","1","2","2","1,0,0,1,1,0,1,0,1","1,0,0,1,1,0,1,0,1","1",""
"","html-keyboard-response","196","124443","0.0-196.0","","","","","null","<img src=""img/flower1.png"" style=""width:200px; border:14px solid green;"">","null","","","","","","","","",""
"","image-keyboard-response","197","124827","0.0-197.0","","","","","381.09999990463257","img/flower1.png","75","383.5","2","1","2","2","1,0,0,1,1,0,1,0,1","1,0,0,1,1,0,1,0,1","1",""
"","html-keyboard-response","198","125133","0.0-198.0","","","","","null","<img src=""img/flower1.png"" style=""width:200px; border:14px solid green;"">","null","","","","","","","","",""
"","image-keyboard-response","199","125666","0.0-199.0","","","","","530.7999999523163","img/flower5.png","74","533.0999999046326","1","1","1","2","1,0,0,1,1,0,1,0,1","1,0,0,1,1,0,1,0,1","1",""
"","html-keyboard-response","200","125973","0.0-200.0","","","","","null","<img src=""img/flower5.png"" style=""width:200px; border:14px solid green;"">","null","","","","","","","","",""
"","image-keyboard-response","201","126404","0.0-201.0","","","","","428.40000009536743","img/flower1.png","75","430.5","2","1","2","2","1,0,0,1,1,0,1,0,1","1,0,0,1,1,0,1,0,1","1",""
"","html-keyboard-response","202","126719","0.0-202.0","","","","","null","<img src=""img/flower1.png"" style=""width:200px; border:14px solid green;"">","null","","","","","","","","",""
"","image-keyboard-response","203","127437","0.0-203.0","","","","","715.6000001430511","img/flower5.png","74","718.1000001430511","1","1","1","2","1,0,0,1,1,0,1,0,1","1,0,0,1,1,0,1,0,1","1",""
"","html-keyboard-response","204","127745","0.0-204.0","","","","","null","<img src=""img/flower5.png"" style=""width:200px; border:14px solid green;"">","null","","","","","","","","",""
"","image-keyboard-response","205","128111","0.0-205.0","","","","","363.2999999523163","img/flower1.png","75","365.5","2","1","2","2","1,0,0,1,1,0,1,0,1","1,0,0,1,1,0,1,0,1","1",""
"","html-keyboard-response","206","128418","0.0-206.0","","","","","null","<img src=""img/flower1.png"" style=""width:200px; border:14px solid green;"">","null","","","","","","","","",""
"","image-keyboard-response","207","128899","0.0-207.0","","","","","478.59999990463257","img/flower5.png","74","480.90000009536743","1","1","1","2","1,0,0,1,1,0,1,0,1","1,0,0,1,1,0,1,0,1","1",""
"","html-keyboard-response","208","129203","0.0-208.0","","","","","null","<img src=""img/flower5.png"" style=""width:200px; border:14px solid green;"">","null","","","","","","","","",""
"","image-keyboard-response","209","129797","0.0-209.0","","","","","592.0999999046326","img/flower3.png","76","593.4000000953674","3","1","3","2","1,0,0,1,1,0,1,0,1","1,0,0,1,1,0,1,0,1","1",""
"","html-keyboard-response","210","130110","0.0-210.0","","","","","null","<img src=""img/flower3.png"" style=""width:200px; border:14px solid green;"">","null","","","","","","","","",""
"","image-keyboard-response","211","130981","0.0-211.0","","","","","868.5","img/flower5.png","74","870.7999999523163","1","1","1","2","1,0,0,1,1,0,1,0,1","1,0,0,1,1,0,1,0,1","1",""
"","html-keyboard-response","212","131295","0.0-212.0","","","","","null","<img src=""img/flower5.png"" style=""width:200px; border:14px solid green;"">","null","","","","","","","","",""
"","image-keyboard-response","213","132188","0.0-213.0","","","","","890.9000000953674","img/flower3.png","76","893.2999999523163","3","1","3","2","1,0,0,1,1,0,1,0,1","1,0,0,1,1,0,1,0,1","1",""
"","html-keyboard-response","214","132493","0.0-214.0","","","","","null","<img src=""img/flower3.png"" style=""width:200px; border:14px solid green;"">","null","","","","","","","","",""
"","image-keyboard-response","215","133106","0.0-215.0","","","","","607.4000000953674","img/flower1.png","75","610.1000001430511","2","1","2","2","1,0,0,1,1,0,1,0,1","1,0,0,1,1,0,1,0,1","1",""
"","html-keyboard-response","216","133413","0.0-216.0","","","","","null","<img src=""img/flower1.png"" style=""width:200px; border:14px solid green;"">","null","","","","","","","","",""
"","image-keyboard-response","217","134386","0.0-217.0","","","","","969.5999999046326","img/flower3.png","76","971.7999999523163","3","1","3","2","1,0,0,1,1,0,1,0,1","1,0,0,1,1,0,1,0,1","1",""
"","html-keyboard-response","218","134694","0.0-218.0","","","","","null","<img src=""img/flower3.png"" style=""width:200px; border:14px solid green;"">","null","","","","","","","","",""
"","image-keyboard-response","219","135566","0.0-219.0","","","","","869.5999999046326","img/flower1.png","74","872","1","1","2","2","1,0,0,1,1,0,1,0,1","1,0,0,1,1,0,1,0,1","1",""
"","html-keyboard-response","220","135872","0.0-220.0","","","","","null","<img src=""img/flower1.png"" style=""width:200px; border:14px solid green;"">","null","","","","","","","","",""
"","image-keyboard-response","221","136430","0.0-221.0","","","","","555.5","img/flower1.png","74","557.7000000476837","1","1","2","2","1,0,0,1,1,0,1,0,1","1,0,0,1,1,0,1,0,1","1",""
"","html-keyboard-response","222","136742","0.0-222.0","","","","","null","<img src=""img/flower1.png"" style=""width:200px; border:14px solid green;"">","null","","","","","","","","",""
"","image-keyboard-response","223","137088","0.0-223.0","","","","","343.40000009536743","img/flower1.png","74","345.7000000476837","1","1","2","2","1,0,0,1,1,0,1,0,1","1,0,0,1,1,0,1,0,1","1",""
"","html-keyboard-response","224","137394","0.0-224.0","","","","","null","<img src=""img/flower1.png"" style=""width:200px; border:14px solid green;"">","null","","","","","","","","",""
"","image-keyboard-response","225","138096","0.0-225.0","","","","","699.5","img/flower5.png","75","701.7000000476837","2","0","1","2","1,0,0,1,1,0,1,0,1","1,0,0,1,1,0,1,0,1","1",""
"","html-keyboard-response","226","138410","0.0-226.0","","","","","null","<img src=""img/flower5.png"" style=""width:200px;border:14px solid red;"">","null","","","","","","","","",""
"","image-keyboard-response","227","139270","0.0-227.0","","","","","857.2000000476837","img/flower1.png","75","859.5","2","1","2","2","1,0,0,1,1,0,1,0,1","1,0,0,1,1,0,1,0,1","1",""
"","html-keyboard-response","228","139576","0.0-228.0","","","","","null","<img src=""img/flower1.png"" style=""width:200px; border:14px solid green;"">","null","","","","","","","","",""
"","image-keyboard-response","229","140187","0.0-229.0","","","","","608.5","img/flower3.png","76","610.6000001430511","3","1","3","2","1,0,0,1,1,0,1,0,1","1,0,0,1,1,0,1,0,1","1",""
"","html-keyboard-response","230","140497","0.0-230.0","","","","","null","<img src=""img/flower3.png"" style=""width:200px; border:14px solid green;"">","null","","","","","","","","",""
"","image-keyboard-response","231","141350","0.0-231.0","","","","","850.0999999046326","img/flower1.png","75","852.2000000476837","2","1","2","2","1,0,0,1,1,0,1,0,1","1,0,0,1,1,0,1,0,1","1",""
"","html-keyboard-response","232","141660","0.0-232.0","","","","","null","<img src=""img/flower1.png"" style=""width:200px; border:14px solid green;"">","null","","","","","","","","",""
"","image-keyboard-response","233","142123","0.0-233.0","","","","","460.40000009536743","img/flower3.png","76","462.60000014305115","3","1","3","2","1,0,0,1,1,0,1,0,1","1,0,0,1,1,0,1,0,1","1",""
"","html-keyboard-response","234","142426","0.0-234.0","","","","","null","<img src=""img/flower3.png"" style=""width:200px; border:14px solid green;"">","null","","","","","","","","",""
"","image-keyboard-response","235","143024","0.0-235.0","","","","","594.7999999523163","img/flower5.png","74","597","1","1","1","2","1,0,0,1,1,0,1,0,1","1,0,0,1,1,0,1,0,1","1",""
"","html-keyboard-response","236","143339","0.0-236.0","","","","","null","<img src=""img/flower5.png"" style=""width:200px; border:14px solid green;"">","null","","","","","","","","",""
"","image-keyboard-response","237","143981","0.0-237.0","","","","","639.6999998092651","img/flower1.png","75","642.0999999046326","2","1","2","2","1,0,0,1,1,0,1,0,1","1,0,0,1,1,0,1,0,1","1",""
"","html-keyboard-response","238","144294","0.0-238.0","","","","","null","<img src=""img/flower1.png"" style=""width:200px; border:14px solid green;"">","null","","","","","","","","",""
"","image-keyboard-response","239","144664","0.0-239.0","","","","","367.39999985694885","img/flower1.png","75","369.69999980926514","2","1","2","2","1,0,0,1,1,0,1,0,1","1,0,0,1,1,0,1,0,1","1",""
"","html-keyboard-response","240","144969","0.0-240.0","","","","","null","<img src=""img/flower1.png"" style=""width:200px; border:14px solid green;"">","null","","","","","","","","",""
"","image-keyboard-response","241","145451","0.0-241.0","","","","","479.2999999523163","img/flower3.png","76","481.2000000476837","3","1","3","2","1,0,0,1,1,0,1,0,1","1,0,0,1,1,0,1,0,1","1",""
"","html-keyboard-response","242","145755","0.0-242.0","","","","","null","<img src=""img/flower3.png"" style=""width:200px; border:14px solid green;"">","null","","","","","","","","",""
"","image-keyboard-response","243","146086","0.0-243.0","","","","","327.59999990463257","img/flower3.png","76","329.89999985694885","3","1","3","2","1,0,0,1,1,0,1,0,1","1,0,0,1,1,0,1,0,1","1",""
"","html-keyboard-response","244","146394","0.0-244.0","","","","","null","<img src=""img/flower3.png"" style=""width:200px; border:14px solid green;"">","null","","","","","","","","",""
"","image-keyboard-response","245","146740","0.0-245.0","","","","","344.90000009536743","img/flower3.png","76","346.39999985694885","3","1","3","2","1,0,0,1,1,0,1,0,1","1,0,0,1,1,0,1,0,1","1",""
"","html-keyboard-response","246","147047","0.0-246.0","","","","","null","<img src=""img/flower3.png"" style=""width:200px; border:14px solid green;"">","null","","","","","","","","",""
"","image-keyboard-response","247","147692","0.0-247.0","","","","","642.3999998569489","img/flower1.png","75","644.8000001907349","2","1","2","2","1,0,0,1,1,0,1,0,1","1,0,0,1,1,0,1,0,1","1",""
"","html-keyboard-response","248","147998","0.0-248.0","","","","","null","<img src=""img/flower1.png"" style=""width:200px; border:14px solid green;"">","null","","","","","","","","",""
"","image-keyboard-response","249","148461","0.0-249.0","","","","","459.89999985694885","img/flower3.png","76","462.09999990463257","3","1","3","2","1,0,0,1,1,0,1,0,1","1,0,0,1,1,0,1,0,1","1",""
"","html-keyboard-response","250","148773","0.0-250.0","","","","","null","<img src=""img/flower3.png"" style=""width:200px; border:14px solid green;"">","null","","","","","","","","",""
"","image-keyboard-response","251","149334","0.0-251.0","","","","","558.9000000953674","img/flower5.png","74","561.2999999523163","1","1","1","2","1,0,0,1,1,0,1,0,1","1,0,0,1,1,0,1,0,1","1",""
"","html-keyboard-response","252","149643","0.0-252.0","","","","","null","<img src=""img/flower5.png"" style=""width:200px; border:14px solid green;"">","null","","","","","","","","",""
"","image-keyboard-response","253","150262","0.0-253.0","","","","","616.0999999046326","img/flower3.png","76","618.6000001430511","3","1","3","2","1,0,0,1,1,0,1,0,1","1,0,0,1,1,0,1,0,1","1",""
"","html-keyboard-response","254","150579","0.0-254.0","","","","","null","<img src=""img/flower3.png"" style=""width:200px; border:14px solid green;"">","null","","","","","","","","",""
"","image-keyboard-response","255","150891","0.0-255.0","","","","","309.5","img/flower3.png","76","311.89999985694885","3","1","3","2","1,0,0,1,1,0,1,0,1","1,0,0,1,1,0,1,0,1","1",""
"","html-keyboard-response","256","151205","0.0-256.0","","","","","null","<img src=""img/flower3.png"" style=""width:200px; border:14px solid green;"">","null","","","","","","","","",""
"","image-keyboard-response","257","151824","0.0-257.0","","","","","615.7999999523163","img/flower5.png","75","618.1000001430511","2","0","1","2","1,0,0,1,1,0,1,0,1","1,0,0,1,1,0,1,0,1","1",""
"","html-keyboard-response","258","152139","0.0-258.0","","","","","null","<img src=""img/flower5.png"" style=""width:200px;border:14px solid red;"">","null","","","","","","","","",""
"","image-keyboard-response","259","152713","0.0-259.0","","","","","571.5","img/flower3.png","76","573.7999999523163","3","1","3","2","1,0,0,1,1,0,1,0,1","1,0,0,1,1,0,1,0,1","1",""
"","html-keyboard-response","260","153026","0.0-260.0","","","","","null","<img src=""img/flower3.png"" style=""width:200px; border:14px solid green;"">","null","","","","","","","","",""
"","image-keyboard-response","261","153945","0.0-261.0","","","","","915.7999999523163","img/flower1.png","75","918.2000000476837","2","1","2","2","1,0,0,1,1,0,1,0,1","1,0,0,1,1,0,1,0,1","1",""
"","html-keyboard-response","262","154251","0.0-262.0","","","","","null","<img src=""img/flower1.png"" style=""width:200px; border:14px solid green;"">","null","","","","","","","","",""
"","image-keyboard-response","263","155717","0.0-263.0","","","","","1463","img/flower3.png","76","1465.4000000953674","3","1","3","2","1,0,0,1,1,0,1,0,1","1,0,0,1,1,0,1,0,1","1",""
"","html-keyboard-response","264","156023","0.0-264.0","","","","","null","<img src=""img/flower3.png"" style=""width:200px; border:14px solid green;"">","null","","","","","","","","",""
"","image-keyboard-response","265","156920","0.0-265.0","","","","","894.6000001430511","img/flower5.png","74","896.8000001907349","1","1","1","2","1,0,0,1,1,0,1,0,1","1,0,0,1,1,0,1,0,1","1",""
"","html-keyboard-response","266","157233","0.0-266.0","","","","","null","<img src=""img/flower5.png"" style=""width:200px; border:14px solid green;"">","null","","","","","","","","",""
"","image-keyboard-response","267","158137","0.0-267.0","","","","","900.7000000476837","img/flower3.png","76","903.2000000476837","3","1","3","2","1,0,0,1,1,0,1,0,1","1,0,0,1,1,0,1,0,1","1",""
"","html-keyboard-response","268","158445","0.0-268.0","","","","","null","<img src=""img/flower3.png"" style=""width:200px; border:14px solid green;"">","null","","","","","","","","",""
"","image-keyboard-response","269","159180","0.0-269.0","","","","","732","img/flower5.png","74","734.2999999523163","1","1","1","2","1,0,0,1,1,0,1,0,1","1,0,0,1,1,0,1,0,1","1",""
"","html-keyboard-response","270","159497","0.0-270.0","","","","","null","<img src=""img/flower5.png"" style=""width:200px; border:14px solid green;"">","null","","","","","","","","",""
"","image-keyboard-response","271","160242","0.0-271.0","","","","","742.7999999523163","img/flower1.png","75","744.9000000953674","2","1","2","2","1,0,0,1,1,0,1,0,1","1,0,0,1,1,0,1,0,1","1",""
"","html-keyboard-response","272","160559","0.0-272.0","","","","","null","<img src=""img/flower1.png"" style=""width:200px; border:14px solid green;"">","null","","","","","","","","",""
"","image-keyboard-response","273","160976","0.0-273.0","","","","","414.2999999523163","img/flower1.png","75","416.5","2","1","2","2","1,0,0,1,1,0,1,0,1","1,0,0,1,1,0,1,0,1","1",""
"","html-keyboard-response","274","161293","0.0-274.0","","","","","null","<img src=""img/flower1.png"" style=""width:200px; border:14px solid green;"">","null","","","","","","","","",""
"","image-keyboard-response","275","161620","0.0-275.0","","","","","325.7000000476837","img/flower1.png","75","327.19999980926514","2","1","2","2","1,0,0,1,1,0,1,0,1","1,0,0,1,1,0,1,0,1","1",""
"","html-keyboard-response","276","161935","0.0-276.0","","","","","null","<img src=""img/flower1.png"" style=""width:200px; border:14px solid green;"">","null","","","","","","","","",""
"","image-keyboard-response","277","162628","0.0-277.0","","","","","690.1000001430511","img/flower5.png","74","692","1","1","1","2","1,0,0,1,1,0,1,0,1","1,0,0,1,1,0,1,0,1","1",""
"","html-keyboard-response","278","162933","0.0-278.0","","","","","null","<img src=""img/flower5.png"" style=""width:200px; border:14px solid green;"">","null","","","","","","","","",""
"","image-keyboard-response","279","163541","0.0-279.0","","","","","604.7000000476837","img/flower3.png","76","606.8999998569489","3","1","3","2","1,0,0,1,1,0,1,0,1","1,0,0,1,1,0,1,0,1","1",""
"","html-keyboard-response","280","163854","0.0-280.0","","","","","null","<img src=""img/flower3.png"" style=""width:200px; border:14px solid green;"">","null","","","","","","","","",""
"","image-keyboard-response","281","164684","0.0-281.0","","","","","826.6000001430511","img/flower5.png","74","828.8999998569489","1","1","1","2","1,0,0,1,1,0,1,0,1","1,0,0,1,1,0,1,0,1","1",""
"","html-keyboard-response","282","165001","0.0-282.0","","","","","null","<img src=""img/flower5.png"" style=""width:200px; border:14px solid green;"">","null","","","","","","","","",""
"","image-keyboard-response","283","165388","0.0-283.0","","","","","384.89999985694885","img/flower5.png","74","387.19999980926514","1","1","1","2","1,0,0,1,1,0,1,0,1","1,0,0,1,1,0,1,0,1","1",""
"","html-keyboard-response","284","165701","0.0-284.0","","","","","null","<img src=""img/flower5.png"" style=""width:200px; border:14px solid green;"">","null","","","","","","","","",""
"","image-keyboard-response","285","166251","0.0-285.0","","","","","548","img/flower3.png","75","551.8999998569489","2","0","3","2","1,0,0,1,1,0,1,0,1","1,0,0,1,1,0,1,0,1","1",""
"","html-keyboard-response","286","166560","0.0-286.0","","","","","null","<img src=""img/flower3.png"" style=""width:200px;border:14px solid red;"">","null","","","","","","","","",""
"","image-keyboard-response","287","166685","0.0-287.0","","","","","122.20000004768372","img/flower5.png","76","124.70000004768372","3","0","1","2","1,0,0,1,1,0,1,0,1","1,0,0,1,1,0,1,0,1","1",""
"","html-keyboard-response","288","167006","0.0-288.0","","","","","null","<img src=""img/flower5.png"" style=""width:200px;border:14px solid red;"">","null","","","","","","","","",""
"","image-keyboard-response","289","167761","0.0-289.0","","","","","753.2000000476837","img/flower1.png","75","755","2","1","2","2","1,0,0,1,1,0,1,0,1","1,0,0,1,1,0,1,0,1","1",""
"","html-keyboard-response","290","168064","0.0-290.0","","","","","null","<img src=""img/flower1.png"" style=""width:200px; border:14px solid green;"">","null","","","","","","","","",""
"","image-keyboard-response","291","168751","0.0-291.0","","","","","684.4000000953674","img/flower3.png","74","686.6000001430511","1","1","3","2","1,0,0,1,1,0,1,0,1","1,0,0,1,1,0,1,0,1","1",""
"","html-keyboard-response","292","169058","0.0-292.0","","","","","null","<img src=""img/flower3.png"" style=""width:200px; border:14px solid green;"">","null","","","","","","","","",""
"","image-keyboard-response","293","169605","0.0-293.0","","","","","543.8000001907349","img/flower3.png","74","546.2000000476837","1","1","3","2","1,0,0,1,1,0,1,0,1","1,0,0,1,1,0,1,0,1","1",""
"","html-keyboard-response","294","169917","0.0-294.0","","","","","null","<img src=""img/flower3.png"" style=""width:200px; border:14px solid green;"">","null","","","","","","","","",""
"","image-keyboard-response","295","171215","0.0-295.0","","","","","1296.1000001430511","img/flower5.png","76","1298.2000000476837","3","0","1","2","1,0,0,1,1,0,1,0,1","1,0,0,1,1,0,1,0,1","1",""
"","html-keyboard-response","296","171526","0.0-296.0","","","","","null","<img src=""img/flower5.png"" style=""width:200px;border:14px solid red;"">","null","","","","","","","","",""
"","image-keyboard-response","297","172039","0.0-297.0","","","","","510","img/flower5.png","74","512.2999999523163","1","1","1","2","1,0,0,1,1,0,1,0,1","1,0,0,1,1,0,1,0,1","1",""
"","html-keyboard-response","298","172356","0.0-298.0","","","","","null","<img src=""img/flower5.png"" style=""width:200px; border:14px solid green;"">","null","","","","","","","","",""
"","image-keyboard-response","299","173356","0.0-299.0","","","","","997.3999998569489","img/flower3.png","76","999.7000000476837","3","1","3","2","1,0,0,1,1,0,1,0,1","1,0,0,1,1,0,1,0,1","1",""
"","html-keyboard-response","300","173672","0.0-300.0","","","","","null","<img src=""img/flower3.png"" style=""width:200px; border:14px solid green;"">","null","","","","","","","","",""
"","image-keyboard-response","301","174783","0.0-301.0","","","","","1108.3000001907349","img/flower5.png","74","1110.7000000476837","1","1","1","2","1,0,0,1,1,0,1,0,1","1,0,0,1,1,0,1,0,1","1",""
"","html-keyboard-response","302","175094","0.0-302.0","","","","","null","<img src=""img/flower5.png"" style=""width:200px; border:14px solid green;"">","null","","","","","","","","",""
"","image-keyboard-response","303","175460","0.0-303.0","","","","","363.2999999523163","img/flower3.png","76","365.30000019073486","3","1","3","2","1,0,0,1,1,0,1,0,1","1,0,0,1,1,0,1,0,1","1",""
"","html-keyboard-response","304","175777","0.0-304.0","","","","","null","<img src=""img/flower3.png"" style=""width:200px; border:14px solid green;"">","null","","","","","","","","",""
"","image-keyboard-response","305","176122","0.0-305.0","","","","","343.5","img/flower3.png","76","345.09999990463257","3","1","3","2","1,0,0,1,1,0,1,0,1","1,0,0,1,1,0,1,0,1","1",""
"","html-keyboard-response","306","176433","0.0-306.0","","","","","null","<img src=""img/flower3.png"" style=""width:200px; border:14px solid green;"">","null","","","","","","","","",""
"","image-keyboard-response","307","176952","0.0-307.0","","","","","515.7000000476837","img/flower1.png","75","517.9000000953674","2","1","2","2","1,0,0,1,1,0,1,0,1","1,0,0,1,1,0,1,0,1","1",""
"","html-keyboard-response","308","177263","0.0-308.0","","","","","null","<img src=""img/flower1.png"" style=""width:200px; border:14px solid green;"">","null","","","","","","","","",""
"","image-keyboard-response","309","177598","0.0-309.0","","","","","333.19999980926514","img/flower1.png","75","335.30000019073486","2","1","2","2","1,0,0,1,1,0,1,0,1","1,0,0,1,1,0,1,0,1","1",""
"","html-keyboard-response","310","177901","0.0-310.0","","","","","null","<img src=""img/flower1.png"" style=""width:200px; border:14px solid green;"">","null","","","","","","","","",""
"","image-keyboard-response","311","178232","0.0-311.0","","","","","327.5","img/flower1.png","75","330","2","1","2","2","1,0,0,1,1,0,1,0,1","1,0,0,1,1,0,1,0,1","1",""
"","html-keyboard-response","312","178544","0.0-312.0","","","","","null","<img src=""img/flower1.png"" style=""width:200px; border:14px solid green;"">","null","","","","","","","","",""
"","image-keyboard-response","313","179169","0.0-313.0","","","","","622.2999999523163","img/flower3.png","76","624.7000000476837","3","1","3","2","1,0,0,1,1,0,1,0,1","1,0,0,1,1,0,1,0,1","1",""
"","html-keyboard-response","314","179480","0.0-314.0","","","","","null","<img src=""img/flower3.png"" style=""width:200px; border:14px solid green;"">","null","","","","","","","","",""
"","image-keyboard-response","315","179873","0.0-315.0","","","","","390.10000014305115","img/flower3.png","76","392.39999985694885","3","1","3","2","1,0,0,1,1,0,1,0,1","1,0,0,1,1,0,1,0,1","1",""
"","html-keyboard-response","316","180181","0.0-316.0","","","","","null","<img src=""img/flower3.png"" style=""width:200px; border:14px solid green;"">","null","","","","","","","","",""
"","image-keyboard-response","317","180857","0.0-317.0","","","","","672.9000000953674","img/flower1.png","75","675.3999998569489","2","1","2","2","1,0,0,1,1,0,1,0,1","1,0,0,1,1,0,1,0,1","1",""
"","html-keyboard-response","318","181174","0.0-318.0","","","","","null","<img src=""img/flower1.png"" style=""width:200px; border:14px solid green;"">","null","","","","","","","","",""
"","image-keyboard-response","319","181534","0.0-319.0","","","","","357.7000000476837","img/flower1.png","75","360.7000000476837","2","1","2","2","1,0,0,1,1,0,1,0,1","1,0,0,1,1,0,1,0,1","1",""
"","html-keyboard-response","320","181846","0.0-320.0","","","","","null","<img src=""img/flower1.png"" style=""width:200px; border:14px solid green;"">","null","","","","","","","","",""
"","image-keyboard-response","321","182454","0.0-321.0","","","","","604.7000000476837","img/flower3.png","76","607.4000000953674","3","1","3","2","1,0,0,1,1,0,1,0,1","1,0,0,1,1,0,1,0,1","1",""
"","html-keyboard-response","322","182766","0.0-322.0","","","","","null","<img src=""img/flower3.png"" style=""width:200px; border:14px solid green;"">","null","","","","","","","","",""
"","image-keyboard-response","323","183261","0.0-323.0","","","","","491.90000009536743","img/flower1.png","76","494.40000009536743","3","0","2","2","1,0,0,1,1,0,1,0,1","1,0,0,1,1,0,1,0,1","1",""
"","html-keyboard-response","324","183573","0.0-324.0","","","","","null","<img src=""img/flower1.png"" style=""width:200px;border:14px solid red;"">","null","","","","","","","","",""
"","image-keyboard-response","325","184644","0.0-325.0","","","","","1068.3000001907349","img/flower5.png","76","1070.3999998569489","3","0","1","2","1,0,0,1,1,0,1,0,1","1,0,0,1,1,0,1,0,1","1",""
"","html-keyboard-response","326","184959","0.0-326.0","","","","","null","<img src=""img/flower5.png"" style=""width:200px;border:14px solid red;"">","null","","","","","","","","",""
"","image-keyboard-response","327","185556","0.0-327.0","","","","","594.9000000953674","img/flower5.png","74","597.1000001430511","1","1","1","2","1,0,0,1,1,0,1,0,1","1,0,0,1,1,0,1,0,1","1",""
"","html-keyboard-response","328","185863","0.0-328.0","","","","","null","<img src=""img/flower5.png"" style=""width:200px; border:14px solid green;"">","null","","","","","","","","",""
"","image-keyboard-response","329","186246","0.0-329.0","","","","","380.09999990463257","img/flower5.png","74","382.30000019073486","1","1","1","2","1,0,0,1,1,0,1,0,1","1,0,0,1,1,0,1,0,1","1",""
"","html-keyboard-response","330","186561","0.0-330.0","","","","","null","<img src=""img/flower5.png"" style=""width:200px; border:14px solid green;"">","null","","","","","","","","",""
"","image-keyboard-response","331","186904","0.0-331.0","","","","","340.5","img/flower5.png","74","342.90000009536743","1","1","1","2","1,0,0,1,1,0,1,0,1","1,0,0,1,1,0,1,0,1","1",""
"","html-keyboard-response","332","187208","0.0-332.0","","","","","null","<img src=""img/flower5.png"" style=""width:200px; border:14px solid green;"">","null","","","","","","","","",""
"","image-keyboard-response","333","187822","0.0-333.0","","","","","611.6000001430511","img/flower3.png","76","613.9000000953674","3","1","3","2","1,0,0,1,1,0,1,0,1","1,0,0,1,1,0,1,0,1","1",""
"","html-keyboard-response","334","188135","0.0-334.0","","","","","null","<img src=""img/flower3.png"" style=""width:200px; border:14px solid green;"">","null","","","","","","","","",""
"","image-keyboard-response","335","188556","0.0-335.0","","","","","418.40000009536743","img/flower3.png","76","420.7000000476837","3","1","3","2","1,0,0,1,1,0,1,0,1","1,0,0,1,1,0,1,0,1","1",""
"","html-keyboard-response","336","188869","0.0-336.0","","","","","null","<img src=""img/flower3.png"" style=""width:200px; border:14px solid green;"">","null","","","","","","","","",""
"","image-keyboard-response","337","189569","0.0-337.0","","","","","696.7000000476837","img/flower3.png","76","699.0999999046326","3","1","3","2","1,0,0,1,1,0,1,0,1","1,0,0,1,1,0,1,0,1","1",""
"","html-keyboard-response","338","189883","0.0-338.0","","","","","null","<img src=""img/flower3.png"" style=""width:200px; border:14px solid green;"">","null","","","","","","","","",""
"","image-keyboard-response","339","190557","0.0-339.0","","","","","670.2999999523163","img/flower5.png","74","673","1","1","1","2","1,0,0,1,1,0,1,0,1","1,0,0,1,1,0,1,0,1","1",""
"","html-keyboard-response","340","190866","0.0-340.0","","","","","null","<img src=""img/flower5.png"" style=""width:200px; border:14px solid green;"">","null","","","","","","","","",""
"","image-keyboard-response","341","191260","0.0-341.0","","","","","390.7000000476837","img/flower5.png","74","393.2999999523163","1","1","1","2","1,0,0,1,1,0,1,0,1","1,0,0,1,1,0,1,0,1","1",""
"","html-keyboard-response","342","191578","0.0-342.0","","","","","null","<img src=""img/flower5.png"" style=""width:200px; border:14px solid green;"">","null","","","","","","","","",""
"","image-keyboard-response","343","192229","0.0-343.0","","","","","647.8000001907349","img/flower1.png","75","650.2000000476837","2","1","2","2","1,0,0,1,1,0,1,0,1","1,0,0,1,1,0,1,0,1","1",""
"","html-keyboard-response","344","192562","0.0-344.0","","","","","null","<img src=""img/flower1.png"" style=""width:200px; border:14px solid green;"">","null","","","","","","","","",""
"","image-keyboard-response","345","193337","0.0-345.0","","","","","772.7000000476837","img/flower5.png","74","775.2000000476837","1","1","1","2","1,0,0,1,1,0,1,0,1","1,0,0,1,1,0,1,0,1","1",""
"","html-keyboard-response","346","193650","0.0-346.0","","","","","null","<img src=""img/flower5.png"" style=""width:200px; border:14px solid green;"">","null","","","","","","","","",""
"","image-keyboard-response","347","194149","0.0-347.0","","","","","496.5","img/flower1.png","75","498.7000000476837","2","1","2","2","1,0,0,1,1,0,1,0,1","1,0,0,1,1,0,1,0,1","1",""
"","html-keyboard-response","348","194458","0.0-348.0","","","","","null","<img src=""img/flower1.png"" style=""width:200px; border:14px solid green;"">","null","","","","","","","","",""
"","image-keyboard-response","349","195177","0.0-349.0","","","","","716.2999999523163","img/flower5.png","74","718.6999998092651","1","1","1","2","1,0,0,1,1,0,1,0,1","1,0,0,1,1,0,1,0,1","1",""
"","html-keyboard-response","350","195483","0.0-350.0","","","","","null","<img src=""img/flower5.png"" style=""width:200px; border:14px solid green;"">","null","","","","","","","","",""
"","image-keyboard-response","351","196075","0.0-351.0","","","","","589.9000000953674","img/flower3.png","76","592.2000000476837","3","1","3","2","1,0,0,1,1,0,1,0,1","1,0,0,1,1,0,1,0,1","1",""
"","html-keyboard-response","352","196386","0.0-352.0","","","","","null","<img src=""img/flower3.png"" style=""width:200px; border:14px solid green;"">","null","","","","","","","","",""
"","image-keyboard-response","353","197108","0.0-353.0","","","","","720.0999999046326","img/flower5.png","74","722.3999998569489","1","1","1","2","1,0,0,1,1,0,1,0,1","1,0,0,1,1,0,1,0,1","1",""
"","html-keyboard-response","354","197417","0.0-354.0","","","","","null","<img src=""img/flower5.png"" style=""width:200px; border:14px solid green;"">","null","","","","","","","","",""
"","image-keyboard-response","355","197938","0.0-355.0","","","","","518.2999999523163","img/flower3.png","76","520.7999999523163","3","1","3","2","1,0,0,1,1,0,1,0,1","1,0,0,1,1,0,1,0,1","1",""
"","html-keyboard-response","356","198252","0.0-356.0","","","","","null","<img src=""img/flower3.png"" style=""width:200px; border:14px solid green;"">","null","","","","","","","","",""
"","image-keyboard-response","357","198791","0.0-357.0","","","","","536.0999999046326","img/flower1.png","75","538.5999999046326","2","1","2","2","1,0,0,1,1,0,1,0,1","1,0,0,1,1,0,1,0,1","1",""
"","html-keyboard-response","358","199097","0.0-358.0","","","","","null","<img src=""img/flower1.png"" style=""width:200px; border:14px solid green;"">","null","","","","","","","","",""
"","image-keyboard-response","359","199593","0.0-359.0","","","","","492.7999999523163","img/flower1.png","75","495.10000014305115","2","1","2","2","1,0,0,1,1,0,1,0,1","1,0,0,1,1,0,1,0,1","1",""
"","html-keyboard-response","360","199906","0.0-360.0","","","","","null","<img src=""img/flower1.png"" style=""width:200px; border:14px solid green;"">","null","","","","","","","","",""
"","image-keyboard-response","361","200413","0.0-361.0","","","","","503.90000009536743","img/flower1.png","75","506.40000009536743","2","1","2","2","1,0,0,1,1,0,1,0,1","1,0,0,1,1,0,1,0,1","1",""
"","html-keyboard-response","362","200718","0.0-362.0","","","","","null","<img src=""img/flower1.png"" style=""width:200px; border:14px solid green;"">","null","","","","","","","","",""
"","instructions","363","203590","0.0-363.0","","","","[{""page_index"":0,""viewing_time"":2869.5999999046326}]","2869.9000000953674","","","","","","","","","","",""
"","survey-text","364","212899","0.0-364.0","","","","","9297.599999904633","","","","","","","","","","","{""Q0"":""A14W0AXTJ3R19V""}"
