"rt","url","trial_type","trial_index","time_elapsed","internal_node_id","assignmentID","mturkID","hitID","success","view_history","stimulus","key_press","reactionTime","a","r","s","cond","reward_cond","reward_cond_actual","reward_matrix_idx","responses"
"214759","consent.html","external-html","0","214846","0.0-0.0","3QAPZX2QN5ZIA1KPD28W8GIQZUS02L","A19CB2C4GY4C60","3MVY4USGB69K0BK9K576GJZ2CVDSII","","","","","","","","","","","","",""
"","","fullscreen","1","217451","0.0-1.0","3QAPZX2QN5ZIA1KPD28W8GIQZUS02L","A19CB2C4GY4C60","3MVY4USGB69K0BK9K576GJZ2CVDSII","true","","","","","","","","","","","",""
"91816.59999990463","","instructions","2","309267","0.0-2.0","3QAPZX2QN5ZIA1KPD28W8GIQZUS02L","A19CB2C4GY4C60","3MVY4USGB69K0BK9K576GJZ2CVDSII","","[{""page_index"":0,""viewing_time"":8102.099999904633},{""page_index"":1,""viewing_time"":8986.200000047684},{""page_index"":2,""viewing_time"":6597.899999976158},{""page_index"":3,""viewing_time"":28760.100000023842},{""page_index"":4,""viewing_time"":20018},{""page_index"":5,""viewing_time"":10439.899999976158},{""page_index"":6,""viewing_time"":8912.100000023842}]","","","","","","","","","","",""
"12201.5","","instructions","3","321469","0.0-3.0","3QAPZX2QN5ZIA1KPD28W8GIQZUS02L","A19CB2C4GY4C60","3MVY4USGB69K0BK9K576GJZ2CVDSII","","[{""page_index"":0,""viewing_time"":12201.399999976158}]","","","","","","","","","","",""
"749.4000000953674","","image-keyboard-response","4","322219","0.0-4.0","3QAPZX2QN5ZIA1KPD28W8GIQZUS02L","A19CB2C4GY4C60","3MVY4USGB69K0BK9K576GJZ2CVDSII","","","img/flower5.png","75","749.8999999761581","2","0","2","","","","",""
"null","","html-keyboard-response","5","322530","0.0-5.0","3QAPZX2QN5ZIA1KPD28W8GIQZUS02L","A19CB2C4GY4C60","3MVY4USGB69K0BK9K576GJZ2CVDSII","","","<img src=""img/flower5.png"" style=""width:200px;border:14px solid red;"">","null","","","","","","","","",""
"812.1999999284744","","image-keyboard-response","6","323343","0.0-6.0","3QAPZX2QN5ZIA1KPD28W8GIQZUS02L","A19CB2C4GY4C60","3MVY4USGB69K0BK9K576GJZ2CVDSII","","","img/flower6.png","76","812.5","3","1","3","","","","",""
"null","","html-keyboard-response","7","323654","0.0-7.0","3QAPZX2QN5ZIA1KPD28W8GIQZUS02L","A19CB2C4GY4C60","3MVY4USGB69K0BK9K576GJZ2CVDSII","","","<img src=""img/flower6.png"" style=""width:200px; border:14px solid green;"">","null","","","","","","","","",""
"798.1999999284744","","image-keyboard-response","8","324452","0.0-8.0","3QAPZX2QN5ZIA1KPD28W8GIQZUS02L","A19CB2C4GY4C60","3MVY4USGB69K0BK9K576GJZ2CVDSII","","","img/flower6.png","76","798.3999999761581","3","1","3","","","","",""
"null","","html-keyboard-response","9","324766","0.0-9.0","3QAPZX2QN5ZIA1KPD28W8GIQZUS02L","A19CB2C4GY4C60","3MVY4USGB69K0BK9K576GJZ2CVDSII","","","<img src=""img/flower6.png"" style=""width:200px; border:14px solid green;"">","null","","","","","","","","",""
"516.7000000476837","","image-keyboard-response","10","325283","0.0-10.0","3QAPZX2QN5ZIA1KPD28W8GIQZUS02L","A19CB2C4GY4C60","3MVY4USGB69K0BK9K576GJZ2CVDSII","","","img/flower6.png","76","517","3","1","3","","","","",""
"null","","html-keyboard-response","11","325597","0.0-11.0","3QAPZX2QN5ZIA1KPD28W8GIQZUS02L","A19CB2C4GY4C60","3MVY4USGB69K0BK9K576GJZ2CVDSII","","","<img src=""img/flower6.png"" style=""width:200px; border:14px solid green;"">","null","","","","","","","","",""
"864.6999999284744","","image-keyboard-response","12","326462","0.0-12.0","3QAPZX2QN5ZIA1KPD28W8GIQZUS02L","A19CB2C4GY4C60","3MVY4USGB69K0BK9K576GJZ2CVDSII","","","img/flower5.png","75","864.8999999761581","2","0","2","","","","",""
"null","","html-keyboard-response","13","326774","0.0-13.0","3QAPZX2QN5ZIA1KPD28W8GIQZUS02L","A19CB2C4GY4C60","3MVY4USGB69K0BK9K576GJZ2CVDSII","","","<img src=""img/flower5.png"" style=""width:200px;border:14px solid red;"">","null","","","","","","","","",""
"614.8999999761581","","image-keyboard-response","14","327389","0.0-14.0","3QAPZX2QN5ZIA1KPD28W8GIQZUS02L","A19CB2C4GY4C60","3MVY4USGB69K0BK9K576GJZ2CVDSII","","","img/flower4.png","74","615.1000000238419","1","1","1","","","","",""
"null","","html-keyboard-response","15","327702","0.0-15.0","3QAPZX2QN5ZIA1KPD28W8GIQZUS02L","A19CB2C4GY4C60","3MVY4USGB69K0BK9K576GJZ2CVDSII","","","<img src=""img/flower4.png"" style=""width:200px; border:14px solid green;"">","null","","","","","","","","",""
"567","","image-keyboard-response","16","328269","0.0-16.0","3QAPZX2QN5ZIA1KPD28W8GIQZUS02L","A19CB2C4GY4C60","3MVY4USGB69K0BK9K576GJZ2CVDSII","","","img/flower5.png","75","567.4000000953674","2","1","2","","","","",""
"null","","html-keyboard-response","17","328581","0.0-17.0","3QAPZX2QN5ZIA1KPD28W8GIQZUS02L","A19CB2C4GY4C60","3MVY4USGB69K0BK9K576GJZ2CVDSII","","","<img src=""img/flower5.png"" style=""width:200px; border:14px solid green;"">","null","","","","","","","","",""
"549.2000000476837","","image-keyboard-response","18","329131","0.0-18.0","3QAPZX2QN5ZIA1KPD28W8GIQZUS02L","A19CB2C4GY4C60","3MVY4USGB69K0BK9K576GJZ2CVDSII","","","img/flower4.png","74","549.7000000476837","1","1","1","","","","",""
"null","","html-keyboard-response","19","329447","0.0-19.0","3QAPZX2QN5ZIA1KPD28W8GIQZUS02L","A19CB2C4GY4C60","3MVY4USGB69K0BK9K576GJZ2CVDSII","","","<img src=""img/flower4.png"" style=""width:200px; border:14px solid green;"">","null","","","","","","","","",""
"568.8999999761581","","image-keyboard-response","20","330016","0.0-20.0","3QAPZX2QN5ZIA1KPD28W8GIQZUS02L","A19CB2C4GY4C60","3MVY4USGB69K0BK9K576GJZ2CVDSII","","","img/flower6.png","76","569.2999999523163","3","0","3","","","","",""
"null","","html-keyboard-response","21","330327","0.0-21.0","3QAPZX2QN5ZIA1KPD28W8GIQZUS02L","A19CB2C4GY4C60","3MVY4USGB69K0BK9K576GJZ2CVDSII","","","<img src=""img/flower6.png"" style=""width:200px;border:14px solid red;"">","null","","","","","","","","",""
"440.6999999284744","","image-keyboard-response","22","330769","0.0-22.0","3QAPZX2QN5ZIA1KPD28W8GIQZUS02L","A19CB2C4GY4C60","3MVY4USGB69K0BK9K576GJZ2CVDSII","","","img/flower6.png","76","441","3","0","3","","","","",""
"null","","html-keyboard-response","23","331080","0.0-23.0","3QAPZX2QN5ZIA1KPD28W8GIQZUS02L","A19CB2C4GY4C60","3MVY4USGB69K0BK9K576GJZ2CVDSII","","","<img src=""img/flower6.png"" style=""width:200px;border:14px solid red;"">","null","","","","","","","","",""
"660.5999999046326","","image-keyboard-response","24","331741","0.0-24.0","3QAPZX2QN5ZIA1KPD28W8GIQZUS02L","A19CB2C4GY4C60","3MVY4USGB69K0BK9K576GJZ2CVDSII","","","img/flower4.png","74","660.7999999523163","1","0","1","","","","",""
"null","","html-keyboard-response","25","332053","0.0-25.0","3QAPZX2QN5ZIA1KPD28W8GIQZUS02L","A19CB2C4GY4C60","3MVY4USGB69K0BK9K576GJZ2CVDSII","","","<img src=""img/flower4.png"" style=""width:200px;border:14px solid red;"">","null","","","","","","","","",""
"1311.6999999284744","","image-keyboard-response","26","333365","0.0-26.0","3QAPZX2QN5ZIA1KPD28W8GIQZUS02L","A19CB2C4GY4C60","3MVY4USGB69K0BK9K576GJZ2CVDSII","","","img/flower6.png","76","1312.1000000238419","3","1","3","","","","",""
"null","","html-keyboard-response","27","333678","0.0-27.0","3QAPZX2QN5ZIA1KPD28W8GIQZUS02L","A19CB2C4GY4C60","3MVY4USGB69K0BK9K576GJZ2CVDSII","","","<img src=""img/flower6.png"" style=""width:200px; border:14px solid green;"">","null","","","","","","","","",""
"615.8000000715256","","image-keyboard-response","28","334294","0.0-28.0","3QAPZX2QN5ZIA1KPD28W8GIQZUS02L","A19CB2C4GY4C60","3MVY4USGB69K0BK9K576GJZ2CVDSII","","","img/flower5.png","75","616.1999999284744","2","1","2","","","","",""
"null","","html-keyboard-response","29","334608","0.0-29.0","3QAPZX2QN5ZIA1KPD28W8GIQZUS02L","A19CB2C4GY4C60","3MVY4USGB69K0BK9K576GJZ2CVDSII","","","<img src=""img/flower5.png"" style=""width:200px; border:14px solid green;"">","null","","","","","","","","",""
"381.7000000476837","","image-keyboard-response","30","334990","0.0-30.0","3QAPZX2QN5ZIA1KPD28W8GIQZUS02L","A19CB2C4GY4C60","3MVY4USGB69K0BK9K576GJZ2CVDSII","","","img/flower5.png","75","381.89999997615814","2","1","2","","","","",""
"null","","html-keyboard-response","31","335301","0.0-31.0","3QAPZX2QN5ZIA1KPD28W8GIQZUS02L","A19CB2C4GY4C60","3MVY4USGB69K0BK9K576GJZ2CVDSII","","","<img src=""img/flower5.png"" style=""width:200px; border:14px solid green;"">","null","","","","","","","","",""
"553.5999999046326","","image-keyboard-response","32","335855","0.0-32.0","3QAPZX2QN5ZIA1KPD28W8GIQZUS02L","A19CB2C4GY4C60","3MVY4USGB69K0BK9K576GJZ2CVDSII","","","img/flower6.png","76","553.7999999523163","3","1","3","","","","",""
"null","","html-keyboard-response","33","336167","0.0-33.0","3QAPZX2QN5ZIA1KPD28W8GIQZUS02L","A19CB2C4GY4C60","3MVY4USGB69K0BK9K576GJZ2CVDSII","","","<img src=""img/flower6.png"" style=""width:200px; border:14px solid green;"">","null","","","","","","","","",""
"633","","image-keyboard-response","34","336800","0.0-34.0","3QAPZX2QN5ZIA1KPD28W8GIQZUS02L","A19CB2C4GY4C60","3MVY4USGB69K0BK9K576GJZ2CVDSII","","","img/flower4.png","74","633.5","1","1","1","","","","",""
"null","","html-keyboard-response","35","337115","0.0-35.0","3QAPZX2QN5ZIA1KPD28W8GIQZUS02L","A19CB2C4GY4C60","3MVY4USGB69K0BK9K576GJZ2CVDSII","","","<img src=""img/flower4.png"" style=""width:200px; border:14px solid green;"">","null","","","","","","","","",""
"910.3999999761581","","image-keyboard-response","36","338025","0.0-36.0","3QAPZX2QN5ZIA1KPD28W8GIQZUS02L","A19CB2C4GY4C60","3MVY4USGB69K0BK9K576GJZ2CVDSII","","","img/flower6.png","76","910.5999999046326","3","1","3","","","","",""
"null","","html-keyboard-response","37","338339","0.0-37.0","3QAPZX2QN5ZIA1KPD28W8GIQZUS02L","A19CB2C4GY4C60","3MVY4USGB69K0BK9K576GJZ2CVDSII","","","<img src=""img/flower6.png"" style=""width:200px; border:14px solid green;"">","null","","","","","","","","",""
"1536.6000000238419","","image-keyboard-response","38","339876","0.0-38.0","3QAPZX2QN5ZIA1KPD28W8GIQZUS02L","A19CB2C4GY4C60","3MVY4USGB69K0BK9K576GJZ2CVDSII","","","img/flower4.png","74","1536.8999999761581","1","1","1","","","","",""
"null","","html-keyboard-response","39","340185","0.0-39.0","3QAPZX2QN5ZIA1KPD28W8GIQZUS02L","A19CB2C4GY4C60","3MVY4USGB69K0BK9K576GJZ2CVDSII","","","<img src=""img/flower4.png"" style=""width:200px; border:14px solid green;"">","null","","","","","","","","",""
"407.60000002384186","","image-keyboard-response","40","340593","0.0-40.0","3QAPZX2QN5ZIA1KPD28W8GIQZUS02L","A19CB2C4GY4C60","3MVY4USGB69K0BK9K576GJZ2CVDSII","","","img/flower4.png","74","407.8000000715256","1","1","1","","","","",""
"null","","html-keyboard-response","41","340902","0.0-41.0","3QAPZX2QN5ZIA1KPD28W8GIQZUS02L","A19CB2C4GY4C60","3MVY4USGB69K0BK9K576GJZ2CVDSII","","","<img src=""img/flower4.png"" style=""width:200px; border:14px solid green;"">","null","","","","","","","","",""
"610.8000000715256","","image-keyboard-response","42","341514","0.0-42.0","3QAPZX2QN5ZIA1KPD28W8GIQZUS02L","A19CB2C4GY4C60","3MVY4USGB69K0BK9K576GJZ2CVDSII","","","img/flower5.png","75","611.1000000238419","2","1","2","","","","",""
"null","","html-keyboard-response","43","341822","0.0-43.0","3QAPZX2QN5ZIA1KPD28W8GIQZUS02L","A19CB2C4GY4C60","3MVY4USGB69K0BK9K576GJZ2CVDSII","","","<img src=""img/flower5.png"" style=""width:200px; border:14px solid green;"">","null","","","","","","","","",""
"344.2000000476837","","image-keyboard-response","44","342167","0.0-44.0","3QAPZX2QN5ZIA1KPD28W8GIQZUS02L","A19CB2C4GY4C60","3MVY4USGB69K0BK9K576GJZ2CVDSII","","","img/flower5.png","75","344.7000000476837","2","1","2","","","","",""
"null","","html-keyboard-response","45","342480","0.0-45.0","3QAPZX2QN5ZIA1KPD28W8GIQZUS02L","A19CB2C4GY4C60","3MVY4USGB69K0BK9K576GJZ2CVDSII","","","<img src=""img/flower5.png"" style=""width:200px; border:14px solid green;"">","null","","","","","","","","",""
"490.10000002384186","","image-keyboard-response","46","342970","0.0-46.0","3QAPZX2QN5ZIA1KPD28W8GIQZUS02L","A19CB2C4GY4C60","3MVY4USGB69K0BK9K576GJZ2CVDSII","","","img/flower4.png","74","490.39999997615814","1","0","1","","","","",""
"null","","html-keyboard-response","47","343281","0.0-47.0","3QAPZX2QN5ZIA1KPD28W8GIQZUS02L","A19CB2C4GY4C60","3MVY4USGB69K0BK9K576GJZ2CVDSII","","","<img src=""img/flower4.png"" style=""width:200px;border:14px solid red;"">","null","","","","","","","","",""
"628.8999999761581","","image-keyboard-response","48","343910","0.0-48.0","3QAPZX2QN5ZIA1KPD28W8GIQZUS02L","A19CB2C4GY4C60","3MVY4USGB69K0BK9K576GJZ2CVDSII","","","img/flower6.png","76","629.2999999523163","3","1","3","","","","",""
"null","","html-keyboard-response","49","344223","0.0-49.0","3QAPZX2QN5ZIA1KPD28W8GIQZUS02L","A19CB2C4GY4C60","3MVY4USGB69K0BK9K576GJZ2CVDSII","","","<img src=""img/flower6.png"" style=""width:200px; border:14px solid green;"">","null","","","","","","","","",""
"626","","image-keyboard-response","50","344850","0.0-50.0","3QAPZX2QN5ZIA1KPD28W8GIQZUS02L","A19CB2C4GY4C60","3MVY4USGB69K0BK9K576GJZ2CVDSII","","","img/flower4.png","74","626.2000000476837","1","1","1","","","","",""
"null","","html-keyboard-response","51","345163","0.0-51.0","3QAPZX2QN5ZIA1KPD28W8GIQZUS02L","A19CB2C4GY4C60","3MVY4USGB69K0BK9K576GJZ2CVDSII","","","<img src=""img/flower4.png"" style=""width:200px; border:14px solid green;"">","null","","","","","","","","",""
"582.8000000715256","","image-keyboard-response","52","345746","0.0-52.0","3QAPZX2QN5ZIA1KPD28W8GIQZUS02L","A19CB2C4GY4C60","3MVY4USGB69K0BK9K576GJZ2CVDSII","","","img/flower5.png","75","583.1999999284744","2","1","2","","","","",""
"null","","html-keyboard-response","53","346060","0.0-53.0","3QAPZX2QN5ZIA1KPD28W8GIQZUS02L","A19CB2C4GY4C60","3MVY4USGB69K0BK9K576GJZ2CVDSII","","","<img src=""img/flower5.png"" style=""width:200px; border:14px solid green;"">","null","","","","","","","","",""
"566","","image-keyboard-response","54","346626","0.0-54.0","3QAPZX2QN5ZIA1KPD28W8GIQZUS02L","A19CB2C4GY4C60","3MVY4USGB69K0BK9K576GJZ2CVDSII","","","img/flower4.png","74","566.2999999523163","1","1","1","","","","",""
"null","","html-keyboard-response","55","346936","0.0-55.0","3QAPZX2QN5ZIA1KPD28W8GIQZUS02L","A19CB2C4GY4C60","3MVY4USGB69K0BK9K576GJZ2CVDSII","","","<img src=""img/flower4.png"" style=""width:200px; border:14px solid green;"">","null","","","","","","","","",""
"362.6999999284744","","image-keyboard-response","56","347300","0.0-56.0","3QAPZX2QN5ZIA1KPD28W8GIQZUS02L","A19CB2C4GY4C60","3MVY4USGB69K0BK9K576GJZ2CVDSII","","","img/flower4.png","74","363","1","0","1","","","","",""
"null","","html-keyboard-response","57","347615","0.0-57.0","3QAPZX2QN5ZIA1KPD28W8GIQZUS02L","A19CB2C4GY4C60","3MVY4USGB69K0BK9K576GJZ2CVDSII","","","<img src=""img/flower4.png"" style=""width:200px;border:14px solid red;"">","null","","","","","","","","",""
"599.8000000715256","","image-keyboard-response","58","348215","0.0-58.0","3QAPZX2QN5ZIA1KPD28W8GIQZUS02L","A19CB2C4GY4C60","3MVY4USGB69K0BK9K576GJZ2CVDSII","","","img/flower5.png","75","600.1999999284744","2","0","2","","","","",""
"null","","html-keyboard-response","59","348530","0.0-59.0","3QAPZX2QN5ZIA1KPD28W8GIQZUS02L","A19CB2C4GY4C60","3MVY4USGB69K0BK9K576GJZ2CVDSII","","","<img src=""img/flower5.png"" style=""width:200px;border:14px solid red;"">","null","","","","","","","","",""
"564.8999999761581","","image-keyboard-response","60","349095","0.0-60.0","3QAPZX2QN5ZIA1KPD28W8GIQZUS02L","A19CB2C4GY4C60","3MVY4USGB69K0BK9K576GJZ2CVDSII","","","img/flower6.png","76","565.3000000715256","3","1","3","","","","",""
"null","","html-keyboard-response","61","349403","0.0-61.0","3QAPZX2QN5ZIA1KPD28W8GIQZUS02L","A19CB2C4GY4C60","3MVY4USGB69K0BK9K576GJZ2CVDSII","","","<img src=""img/flower6.png"" style=""width:200px; border:14px solid green;"">","null","","","","","","","","",""
"659.8999999761581","","image-keyboard-response","62","350064","0.0-62.0","3QAPZX2QN5ZIA1KPD28W8GIQZUS02L","A19CB2C4GY4C60","3MVY4USGB69K0BK9K576GJZ2CVDSII","","","img/flower5.png","75","660.1000000238419","2","1","2","","","","",""
"null","","html-keyboard-response","63","350375","0.0-63.0","3QAPZX2QN5ZIA1KPD28W8GIQZUS02L","A19CB2C4GY4C60","3MVY4USGB69K0BK9K576GJZ2CVDSII","","","<img src=""img/flower5.png"" style=""width:200px; border:14px solid green;"">","null","","","","","","","","",""
"14328.799999952316","","instructions","64","364704","0.0-64.0","3QAPZX2QN5ZIA1KPD28W8GIQZUS02L","A19CB2C4GY4C60","3MVY4USGB69K0BK9K576GJZ2CVDSII","","[{""page_index"":0,""viewing_time"":2724.5},{""page_index"":1,""viewing_time"":11604.200000047684}]","","","","","","","","","","",""
"687.8999999761581","","image-keyboard-response","65","365392","0.0-65.0","3QAPZX2QN5ZIA1KPD28W8GIQZUS02L","A19CB2C4GY4C60","3MVY4USGB69K0BK9K576GJZ2CVDSII","","","img/flower5.png","75","688.1000000238419","2","1","2","","","","",""
"null","","html-keyboard-response","66","365694","0.0-66.0","3QAPZX2QN5ZIA1KPD28W8GIQZUS02L","A19CB2C4GY4C60","3MVY4USGB69K0BK9K576GJZ2CVDSII","","","<img src=""img/flower5.png"" style=""width:200px; border:14px solid green;"">","null","","","","","","","","",""
"357.5","","image-keyboard-response","67","366052","0.0-67.0","3QAPZX2QN5ZIA1KPD28W8GIQZUS02L","A19CB2C4GY4C60","3MVY4USGB69K0BK9K576GJZ2CVDSII","","","img/flower5.png","75","358","2","1","2","","","","",""
"null","","html-keyboard-response","68","366362","0.0-68.0","3QAPZX2QN5ZIA1KPD28W8GIQZUS02L","A19CB2C4GY4C60","3MVY4USGB69K0BK9K576GJZ2CVDSII","","","<img src=""img/flower5.png"" style=""width:200px; border:14px solid green;"">","null","","","","","","","","",""
"728.1000000238419","","image-keyboard-response","69","367090","0.0-69.0","3QAPZX2QN5ZIA1KPD28W8GIQZUS02L","A19CB2C4GY4C60","3MVY4USGB69K0BK9K576GJZ2CVDSII","","","img/flower6.png","76","728.4000000953674","3","0","3","","","","",""
"null","","html-keyboard-response","70","367401","0.0-70.0","3QAPZX2QN5ZIA1KPD28W8GIQZUS02L","A19CB2C4GY4C60","3MVY4USGB69K0BK9K576GJZ2CVDSII","","","<img src=""img/flower6.png"" style=""width:200px;border:14px solid red;"">","null","","","","","","","","",""
"802","","image-keyboard-response","71","368204","0.0-71.0","3QAPZX2QN5ZIA1KPD28W8GIQZUS02L","A19CB2C4GY4C60","3MVY4USGB69K0BK9K576GJZ2CVDSII","","","img/flower4.png","74","802.1999999284744","1","1","1","","","","",""
"null","","html-keyboard-response","72","368515","0.0-72.0","3QAPZX2QN5ZIA1KPD28W8GIQZUS02L","A19CB2C4GY4C60","3MVY4USGB69K0BK9K576GJZ2CVDSII","","","<img src=""img/flower4.png"" style=""width:200px; border:14px solid green;"">","null","","","","","","","","",""
"550.8999999761581","","image-keyboard-response","73","369067","0.0-73.0","3QAPZX2QN5ZIA1KPD28W8GIQZUS02L","A19CB2C4GY4C60","3MVY4USGB69K0BK9K576GJZ2CVDSII","","","img/flower5.png","75","551.2000000476837","2","0","2","","","","",""
"null","","html-keyboard-response","74","369376","0.0-74.0","3QAPZX2QN5ZIA1KPD28W8GIQZUS02L","A19CB2C4GY4C60","3MVY4USGB69K0BK9K576GJZ2CVDSII","","","<img src=""img/flower5.png"" style=""width:200px;border:14px solid red;"">","null","","","","","","","","",""
"617.7999999523163","","image-keyboard-response","75","369994","0.0-75.0","3QAPZX2QN5ZIA1KPD28W8GIQZUS02L","A19CB2C4GY4C60","3MVY4USGB69K0BK9K576GJZ2CVDSII","","","img/flower6.png","76","618.1999999284744","3","1","3","","","","",""
"null","","html-keyboard-response","76","370305","0.0-76.0","3QAPZX2QN5ZIA1KPD28W8GIQZUS02L","A19CB2C4GY4C60","3MVY4USGB69K0BK9K576GJZ2CVDSII","","","<img src=""img/flower6.png"" style=""width:200px; border:14px solid green;"">","null","","","","","","","","",""
"738.5","","image-keyboard-response","77","371043","0.0-77.0","3QAPZX2QN5ZIA1KPD28W8GIQZUS02L","A19CB2C4GY4C60","3MVY4USGB69K0BK9K576GJZ2CVDSII","","","img/flower4.png","74","738.8999999761581","1","1","1","","","","",""
"null","","html-keyboard-response","78","371356","0.0-78.0","3QAPZX2QN5ZIA1KPD28W8GIQZUS02L","A19CB2C4GY4C60","3MVY4USGB69K0BK9K576GJZ2CVDSII","","","<img src=""img/flower4.png"" style=""width:200px; border:14px solid green;"">","null","","","","","","","","",""
"410.60000002384186","","image-keyboard-response","79","371767","0.0-79.0","3QAPZX2QN5ZIA1KPD28W8GIQZUS02L","A19CB2C4GY4C60","3MVY4USGB69K0BK9K576GJZ2CVDSII","","","img/flower4.png","74","410.89999997615814","1","1","1","","","","",""
"null","","html-keyboard-response","80","372075","0.0-80.0","3QAPZX2QN5ZIA1KPD28W8GIQZUS02L","A19CB2C4GY4C60","3MVY4USGB69K0BK9K576GJZ2CVDSII","","","<img src=""img/flower4.png"" style=""width:200px; border:14px solid green;"">","null","","","","","","","","",""
"316.2999999523163","","image-keyboard-response","81","372391","0.0-81.0","3QAPZX2QN5ZIA1KPD28W8GIQZUS02L","A19CB2C4GY4C60","3MVY4USGB69K0BK9K576GJZ2CVDSII","","","img/flower4.png","74","316.5","1","1","1","","","","",""
"null","","html-keyboard-response","82","372703","0.0-82.0","3QAPZX2QN5ZIA1KPD28W8GIQZUS02L","A19CB2C4GY4C60","3MVY4USGB69K0BK9K576GJZ2CVDSII","","","<img src=""img/flower4.png"" style=""width:200px; border:14px solid green;"">","null","","","","","","","","",""
"282.59999990463257","","image-keyboard-response","83","372986","0.0-83.0","3QAPZX2QN5ZIA1KPD28W8GIQZUS02L","A19CB2C4GY4C60","3MVY4USGB69K0BK9K576GJZ2CVDSII","","","img/flower4.png","74","282.7999999523163","1","0","1","","","","",""
"null","","html-keyboard-response","84","373298","0.0-84.0","3QAPZX2QN5ZIA1KPD28W8GIQZUS02L","A19CB2C4GY4C60","3MVY4USGB69K0BK9K576GJZ2CVDSII","","","<img src=""img/flower4.png"" style=""width:200px;border:14px solid red;"">","null","","","","","","","","",""
"568","","image-keyboard-response","85","373866","0.0-85.0","3QAPZX2QN5ZIA1KPD28W8GIQZUS02L","A19CB2C4GY4C60","3MVY4USGB69K0BK9K576GJZ2CVDSII","","","img/flower5.png","75","568.2999999523163","2","1","2","","","","",""
"null","","html-keyboard-response","86","374174","0.0-86.0","3QAPZX2QN5ZIA1KPD28W8GIQZUS02L","A19CB2C4GY4C60","3MVY4USGB69K0BK9K576GJZ2CVDSII","","","<img src=""img/flower5.png"" style=""width:200px; border:14px solid green;"">","null","","","","","","","","",""
"625.7999999523163","","image-keyboard-response","87","374800","0.0-87.0","3QAPZX2QN5ZIA1KPD28W8GIQZUS02L","A19CB2C4GY4C60","3MVY4USGB69K0BK9K576GJZ2CVDSII","","","img/flower6.png","76","626.2000000476837","3","1","3","","","","",""
"null","","html-keyboard-response","88","375112","0.0-88.0","3QAPZX2QN5ZIA1KPD28W8GIQZUS02L","A19CB2C4GY4C60","3MVY4USGB69K0BK9K576GJZ2CVDSII","","","<img src=""img/flower6.png"" style=""width:200px; border:14px solid green;"">","null","","","","","","","","",""
"312.1999999284744","","image-keyboard-response","89","375425","0.0-89.0","3QAPZX2QN5ZIA1KPD28W8GIQZUS02L","A19CB2C4GY4C60","3MVY4USGB69K0BK9K576GJZ2CVDSII","","","img/flower6.png","76","312.5","3","1","3","","","","",""
"null","","html-keyboard-response","90","375737","0.0-90.0","3QAPZX2QN5ZIA1KPD28W8GIQZUS02L","A19CB2C4GY4C60","3MVY4USGB69K0BK9K576GJZ2CVDSII","","","<img src=""img/flower6.png"" style=""width:200px; border:14px solid green;"">","null","","","","","","","","",""
"748.3999999761581","","image-keyboard-response","91","376486","0.0-91.0","3QAPZX2QN5ZIA1KPD28W8GIQZUS02L","A19CB2C4GY4C60","3MVY4USGB69K0BK9K576GJZ2CVDSII","","","img/flower5.png","75","748.7000000476837","2","1","2","","","","",""
"null","","html-keyboard-response","92","376800","0.0-92.0","3QAPZX2QN5ZIA1KPD28W8GIQZUS02L","A19CB2C4GY4C60","3MVY4USGB69K0BK9K576GJZ2CVDSII","","","<img src=""img/flower5.png"" style=""width:200px; border:14px solid green;"">","null","","","","","","","","",""
"251.30000007152557","","image-keyboard-response","93","377052","0.0-93.0","3QAPZX2QN5ZIA1KPD28W8GIQZUS02L","A19CB2C4GY4C60","3MVY4USGB69K0BK9K576GJZ2CVDSII","","","img/flower5.png","75","251.69999992847443","2","1","2","","","","",""
"null","","html-keyboard-response","94","377364","0.0-94.0","3QAPZX2QN5ZIA1KPD28W8GIQZUS02L","A19CB2C4GY4C60","3MVY4USGB69K0BK9K576GJZ2CVDSII","","","<img src=""img/flower5.png"" style=""width:200px; border:14px solid green;"">","null","","","","","","","","",""
"567.2999999523163","","image-keyboard-response","95","377932","0.0-95.0","3QAPZX2QN5ZIA1KPD28W8GIQZUS02L","A19CB2C4GY4C60","3MVY4USGB69K0BK9K576GJZ2CVDSII","","","img/flower6.png","76","567.7000000476837","3","1","3","","","","",""
"null","","html-keyboard-response","96","378243","0.0-96.0","3QAPZX2QN5ZIA1KPD28W8GIQZUS02L","A19CB2C4GY4C60","3MVY4USGB69K0BK9K576GJZ2CVDSII","","","<img src=""img/flower6.png"" style=""width:200px; border:14px solid green;"">","null","","","","","","","","",""
"487.89999997615814","","image-keyboard-response","97","378731","0.0-97.0","3QAPZX2QN5ZIA1KPD28W8GIQZUS02L","A19CB2C4GY4C60","3MVY4USGB69K0BK9K576GJZ2CVDSII","","","img/flower5.png","75","488.10000002384186","2","1","2","","","","",""
"null","","html-keyboard-response","98","379046","0.0-98.0","3QAPZX2QN5ZIA1KPD28W8GIQZUS02L","A19CB2C4GY4C60","3MVY4USGB69K0BK9K576GJZ2CVDSII","","","<img src=""img/flower5.png"" style=""width:200px; border:14px solid green;"">","null","","","","","","","","",""
"315.2000000476837","","image-keyboard-response","99","379361","0.0-99.0","3QAPZX2QN5ZIA1KPD28W8GIQZUS02L","A19CB2C4GY4C60","3MVY4USGB69K0BK9K576GJZ2CVDSII","","","img/flower5.png","75","315.60000002384186","2","1","2","","","","",""
"null","","html-keyboard-response","100","379675","0.0-100.0","3QAPZX2QN5ZIA1KPD28W8GIQZUS02L","A19CB2C4GY4C60","3MVY4USGB69K0BK9K576GJZ2CVDSII","","","<img src=""img/flower5.png"" style=""width:200px; border:14px solid green;"">","null","","","","","","","","",""
"1180.1000000238419","","image-keyboard-response","101","380855","0.0-101.0","3QAPZX2QN5ZIA1KPD28W8GIQZUS02L","A19CB2C4GY4C60","3MVY4USGB69K0BK9K576GJZ2CVDSII","","","img/flower4.png","74","1180.3000000715256","1","0","1","","","","",""
"null","","html-keyboard-response","102","381168","0.0-102.0","3QAPZX2QN5ZIA1KPD28W8GIQZUS02L","A19CB2C4GY4C60","3MVY4USGB69K0BK9K576GJZ2CVDSII","","","<img src=""img/flower4.png"" style=""width:200px;border:14px solid red;"">","null","","","","","","","","",""
"283.2000000476837","","image-keyboard-response","103","381452","0.0-103.0","3QAPZX2QN5ZIA1KPD28W8GIQZUS02L","A19CB2C4GY4C60","3MVY4USGB69K0BK9K576GJZ2CVDSII","","","img/flower4.png","74","283.60000002384186","1","1","1","","","","",""
"null","","html-keyboard-response","104","381763","0.0-104.0","3QAPZX2QN5ZIA1KPD28W8GIQZUS02L","A19CB2C4GY4C60","3MVY4USGB69K0BK9K576GJZ2CVDSII","","","<img src=""img/flower4.png"" style=""width:200px; border:14px solid green;"">","null","","","","","","","","",""
"658.7999999523163","","image-keyboard-response","105","382422","0.0-105.0","3QAPZX2QN5ZIA1KPD28W8GIQZUS02L","A19CB2C4GY4C60","3MVY4USGB69K0BK9K576GJZ2CVDSII","","","img/flower6.png","76","659.1999999284744","3","1","3","","","","",""
"null","","html-keyboard-response","106","382733","0.0-106.0","3QAPZX2QN5ZIA1KPD28W8GIQZUS02L","A19CB2C4GY4C60","3MVY4USGB69K0BK9K576GJZ2CVDSII","","","<img src=""img/flower6.png"" style=""width:200px; border:14px solid green;"">","null","","","","","","","","",""
"283.3000000715256","","image-keyboard-response","107","383017","0.0-107.0","3QAPZX2QN5ZIA1KPD28W8GIQZUS02L","A19CB2C4GY4C60","3MVY4USGB69K0BK9K576GJZ2CVDSII","","","img/flower6.png","76","283.59999990463257","3","1","3","","","","",""
"null","","html-keyboard-response","108","383325","0.0-108.0","3QAPZX2QN5ZIA1KPD28W8GIQZUS02L","A19CB2C4GY4C60","3MVY4USGB69K0BK9K576GJZ2CVDSII","","","<img src=""img/flower6.png"" style=""width:200px; border:14px solid green;"">","null","","","","","","","","",""
"752.3999999761581","","image-keyboard-response","109","384078","0.0-109.0","3QAPZX2QN5ZIA1KPD28W8GIQZUS02L","A19CB2C4GY4C60","3MVY4USGB69K0BK9K576GJZ2CVDSII","","","img/flower4.png","74","752.7000000476837","1","1","1","","","","",""
"null","","html-keyboard-response","110","384385","0.0-110.0","3QAPZX2QN5ZIA1KPD28W8GIQZUS02L","A19CB2C4GY4C60","3MVY4USGB69K0BK9K576GJZ2CVDSII","","","<img src=""img/flower4.png"" style=""width:200px; border:14px solid green;"">","null","","","","","","","","",""
"252.79999995231628","","image-keyboard-response","111","384638","0.0-111.0","3QAPZX2QN5ZIA1KPD28W8GIQZUS02L","A19CB2C4GY4C60","3MVY4USGB69K0BK9K576GJZ2CVDSII","","","img/flower4.png","74","253.29999995231628","1","0","1","","","","",""
"null","","html-keyboard-response","112","384951","0.0-112.0","3QAPZX2QN5ZIA1KPD28W8GIQZUS02L","A19CB2C4GY4C60","3MVY4USGB69K0BK9K576GJZ2CVDSII","","","<img src=""img/flower4.png"" style=""width:200px;border:14px solid red;"">","null","","","","","","","","",""
"659.3999999761581","","image-keyboard-response","113","385611","0.0-113.0","3QAPZX2QN5ZIA1KPD28W8GIQZUS02L","A19CB2C4GY4C60","3MVY4USGB69K0BK9K576GJZ2CVDSII","","","img/flower5.png","75","659.7000000476837","2","0","2","","","","",""
"null","","html-keyboard-response","114","385925","0.0-114.0","3QAPZX2QN5ZIA1KPD28W8GIQZUS02L","A19CB2C4GY4C60","3MVY4USGB69K0BK9K576GJZ2CVDSII","","","<img src=""img/flower5.png"" style=""width:200px;border:14px solid red;"">","null","","","","","","","","",""
"600.8999999761581","","image-keyboard-response","115","386526","0.0-115.0","3QAPZX2QN5ZIA1KPD28W8GIQZUS02L","A19CB2C4GY4C60","3MVY4USGB69K0BK9K576GJZ2CVDSII","","","img/flower6.png","76","601.2000000476837","3","1","3","","","","",""
"null","","html-keyboard-response","116","386837","0.0-116.0","3QAPZX2QN5ZIA1KPD28W8GIQZUS02L","A19CB2C4GY4C60","3MVY4USGB69K0BK9K576GJZ2CVDSII","","","<img src=""img/flower6.png"" style=""width:200px; border:14px solid green;"">","null","","","","","","","","",""
"773.5","","image-keyboard-response","117","387611","0.0-117.0","3QAPZX2QN5ZIA1KPD28W8GIQZUS02L","A19CB2C4GY4C60","3MVY4USGB69K0BK9K576GJZ2CVDSII","","","img/flower4.png","74","773.7000000476837","1","0","1","","","","",""
"null","","html-keyboard-response","118","387921","0.0-118.0","3QAPZX2QN5ZIA1KPD28W8GIQZUS02L","A19CB2C4GY4C60","3MVY4USGB69K0BK9K576GJZ2CVDSII","","","<img src=""img/flower4.png"" style=""width:200px;border:14px solid red;"">","null","","","","","","","","",""
"641.6000000238419","","image-keyboard-response","119","388562","0.0-119.0","3QAPZX2QN5ZIA1KPD28W8GIQZUS02L","A19CB2C4GY4C60","3MVY4USGB69K0BK9K576GJZ2CVDSII","","","img/flower6.png","76","641.7999999523163","3","1","3","","","","",""
"null","","html-keyboard-response","120","388874","0.0-120.0","3QAPZX2QN5ZIA1KPD28W8GIQZUS02L","A19CB2C4GY4C60","3MVY4USGB69K0BK9K576GJZ2CVDSII","","","<img src=""img/flower6.png"" style=""width:200px; border:14px solid green;"">","null","","","","","","","","",""
"473.3000000715256","","image-keyboard-response","121","389348","0.0-121.0","3QAPZX2QN5ZIA1KPD28W8GIQZUS02L","A19CB2C4GY4C60","3MVY4USGB69K0BK9K576GJZ2CVDSII","","","img/flower5.png","75","473.60000002384186","2","1","2","","","","",""
"null","","html-keyboard-response","122","389654","0.0-122.0","3QAPZX2QN5ZIA1KPD28W8GIQZUS02L","A19CB2C4GY4C60","3MVY4USGB69K0BK9K576GJZ2CVDSII","","","<img src=""img/flower5.png"" style=""width:200px; border:14px solid green;"">","null","","","","","","","","",""
"705","","image-keyboard-response","123","390360","0.0-123.0","3QAPZX2QN5ZIA1KPD28W8GIQZUS02L","A19CB2C4GY4C60","3MVY4USGB69K0BK9K576GJZ2CVDSII","","","img/flower6.png","76","705.1999999284744","3","1","3","","","","",""
"null","","html-keyboard-response","124","390674","0.0-124.0","3QAPZX2QN5ZIA1KPD28W8GIQZUS02L","A19CB2C4GY4C60","3MVY4USGB69K0BK9K576GJZ2CVDSII","","","<img src=""img/flower6.png"" style=""width:200px; border:14px solid green;"">","null","","","","","","","","",""
"43855.799999952316","","instructions","125","434530","0.0-125.0","3QAPZX2QN5ZIA1KPD28W8GIQZUS02L","A19CB2C4GY4C60","3MVY4USGB69K0BK9K576GJZ2CVDSII","","[{""page_index"":0,""viewing_time"":43855.60000002384}]","","","","","","","","","","",""
"1208.5","","image-keyboard-response","126","435739","0.0-126.0","3QAPZX2QN5ZIA1KPD28W8GIQZUS02L","A19CB2C4GY4C60","3MVY4USGB69K0BK9K576GJZ2CVDSII","","","img/flower4.png","74","1208.8999999761581","1","0","3","1","1,0.333,0.333,0.333,1,0.333,0.333,0.333,1","1,0.333,0.333,0.333,1,0.333,0.333,0.333,1","1",""
"null","","html-keyboard-response","127","436052","0.0-127.0","3QAPZX2QN5ZIA1KPD28W8GIQZUS02L","A19CB2C4GY4C60","3MVY4USGB69K0BK9K576GJZ2CVDSII","","","<img src=""img/flower4.png"" style=""width:200px;border:14px solid red;"">","null","","","","","","","","",""
"1098.6999999284744","","image-keyboard-response","128","437151","0.0-128.0","3QAPZX2QN5ZIA1KPD28W8GIQZUS02L","A19CB2C4GY4C60","3MVY4USGB69K0BK9K576GJZ2CVDSII","","","img/flower3.png","74","1099","1","1","1","1","1,0.333,0.333,0.333,1,0.333,0.333,0.333,1","1,0.333,0.333,0.333,1,0.333,0.333,0.333,1","1",""
"null","","html-keyboard-response","129","437462","0.0-129.0","3QAPZX2QN5ZIA1KPD28W8GIQZUS02L","A19CB2C4GY4C60","3MVY4USGB69K0BK9K576GJZ2CVDSII","","","<img src=""img/flower3.png"" style=""width:200px; border:14px solid green;"">","null","","","","","","","","",""
"563.9000000953674","","image-keyboard-response","130","438027","0.0-130.0","3QAPZX2QN5ZIA1KPD28W8GIQZUS02L","A19CB2C4GY4C60","3MVY4USGB69K0BK9K576GJZ2CVDSII","","","img/flower3.png","74","564.1999999284744","1","1","1","1","1,0.333,0.333,0.333,1,0.333,0.333,0.333,1","1,0.333,0.333,0.333,1,0.333,0.333,0.333,1","1",""
"null","","html-keyboard-response","131","438336","0.0-131.0","3QAPZX2QN5ZIA1KPD28W8GIQZUS02L","A19CB2C4GY4C60","3MVY4USGB69K0BK9K576GJZ2CVDSII","","","<img src=""img/flower3.png"" style=""width:200px; border:14px solid green;"">","null","","","","","","","","",""
"971.5","","image-keyboard-response","132","439307","0.0-132.0","3QAPZX2QN5ZIA1KPD28W8GIQZUS02L","A19CB2C4GY4C60","3MVY4USGB69K0BK9K576GJZ2CVDSII","","","img/flower6.png","75","971.7000000476837","2","1","2","1","1,0.333,0.333,0.333,1,0.333,0.333,0.333,1","1,0.333,0.333,0.333,1,0.333,0.333,0.333,1","1",""
"null","","html-keyboard-response","133","439616","0.0-133.0","3QAPZX2QN5ZIA1KPD28W8GIQZUS02L","A19CB2C4GY4C60","3MVY4USGB69K0BK9K576GJZ2CVDSII","","","<img src=""img/flower6.png"" style=""width:200px; border:14px solid green;"">","null","","","","","","","","",""
"1007.8999999761581","","image-keyboard-response","134","440624","0.0-134.0","3QAPZX2QN5ZIA1KPD28W8GIQZUS02L","A19CB2C4GY4C60","3MVY4USGB69K0BK9K576GJZ2CVDSII","","","img/flower4.png","76","1008.1000000238419","3","1","3","1","1,0.333,0.333,0.333,1,0.333,0.333,0.333,1","1,0.333,0.333,0.333,1,0.333,0.333,0.333,1","1",""
"null","","html-keyboard-response","135","440935","0.0-135.0","3QAPZX2QN5ZIA1KPD28W8GIQZUS02L","A19CB2C4GY4C60","3MVY4USGB69K0BK9K576GJZ2CVDSII","","","<img src=""img/flower4.png"" style=""width:200px; border:14px solid green;"">","null","","","","","","","","",""
"778.7999999523163","","image-keyboard-response","136","441714","0.0-136.0","3QAPZX2QN5ZIA1KPD28W8GIQZUS02L","A19CB2C4GY4C60","3MVY4USGB69K0BK9K576GJZ2CVDSII","","","img/flower6.png","75","779.1000000238419","2","1","2","1","1,0.333,0.333,0.333,1,0.333,0.333,0.333,1","1,0.333,0.333,0.333,1,0.333,0.333,0.333,1","1",""
"null","","html-keyboard-response","137","442023","0.0-137.0","3QAPZX2QN5ZIA1KPD28W8GIQZUS02L","A19CB2C4GY4C60","3MVY4USGB69K0BK9K576GJZ2CVDSII","","","<img src=""img/flower6.png"" style=""width:200px; border:14px solid green;"">","null","","","","","","","","",""
"737.8999999761581","","image-keyboard-response","138","442761","0.0-138.0","3QAPZX2QN5ZIA1KPD28W8GIQZUS02L","A19CB2C4GY4C60","3MVY4USGB69K0BK9K576GJZ2CVDSII","","","img/flower4.png","76","738.3000000715256","3","1","3","1","1,0.333,0.333,0.333,1,0.333,0.333,0.333,1","1,0.333,0.333,0.333,1,0.333,0.333,0.333,1","1",""
"null","","html-keyboard-response","139","443070","0.0-139.0","3QAPZX2QN5ZIA1KPD28W8GIQZUS02L","A19CB2C4GY4C60","3MVY4USGB69K0BK9K576GJZ2CVDSII","","","<img src=""img/flower4.png"" style=""width:200px; border:14px solid green;"">","null","","","","","","","","",""
"422.7000000476837","","image-keyboard-response","140","443493","0.0-140.0","3QAPZX2QN5ZIA1KPD28W8GIQZUS02L","A19CB2C4GY4C60","3MVY4USGB69K0BK9K576GJZ2CVDSII","","","img/flower4.png","76","422.89999997615814","3","1","3","1","1,0.333,0.333,0.333,1,0.333,0.333,0.333,1","1,0.333,0.333,0.333,1,0.333,0.333,0.333,1","1",""
"null","","html-keyboard-response","141","443806","0.0-141.0","3QAPZX2QN5ZIA1KPD28W8GIQZUS02L","A19CB2C4GY4C60","3MVY4USGB69K0BK9K576GJZ2CVDSII","","","<img src=""img/flower4.png"" style=""width:200px; border:14px solid green;"">","null","","","","","","","","",""
"718.6999999284744","","image-keyboard-response","142","444525","0.0-142.0","3QAPZX2QN5ZIA1KPD28W8GIQZUS02L","A19CB2C4GY4C60","3MVY4USGB69K0BK9K576GJZ2CVDSII","","","img/flower3.png","74","719","1","1","1","1","1,0.333,0.333,0.333,1,0.333,0.333,0.333,1","1,0.333,0.333,0.333,1,0.333,0.333,0.333,1","1",""
"null","","html-keyboard-response","143","444837","0.0-143.0","3QAPZX2QN5ZIA1KPD28W8GIQZUS02L","A19CB2C4GY4C60","3MVY4USGB69K0BK9K576GJZ2CVDSII","","","<img src=""img/flower3.png"" style=""width:200px; border:14px solid green;"">","null","","","","","","","","",""
"894.1000000238419","","image-keyboard-response","144","445732","0.0-144.0","3QAPZX2QN5ZIA1KPD28W8GIQZUS02L","A19CB2C4GY4C60","3MVY4USGB69K0BK9K576GJZ2CVDSII","","","img/flower6.png","75","894.3000000715256","2","1","2","1","1,0.333,0.333,0.333,1,0.333,0.333,0.333,1","1,0.333,0.333,0.333,1,0.333,0.333,0.333,1","1",""
"null","","html-keyboard-response","145","446044","0.0-145.0","3QAPZX2QN5ZIA1KPD28W8GIQZUS02L","A19CB2C4GY4C60","3MVY4USGB69K0BK9K576GJZ2CVDSII","","","<img src=""img/flower6.png"" style=""width:200px; border:14px solid green;"">","null","","","","","","","","",""
"800.7999999523163","","image-keyboard-response","146","446845","0.0-146.0","3QAPZX2QN5ZIA1KPD28W8GIQZUS02L","A19CB2C4GY4C60","3MVY4USGB69K0BK9K576GJZ2CVDSII","","","img/flower3.png","76","801.1000000238419","3","1","1","1","1,0.333,0.333,0.333,1,0.333,0.333,0.333,1","1,0.333,0.333,0.333,1,0.333,0.333,0.333,1","1",""
"null","","html-keyboard-response","147","447157","0.0-147.0","3QAPZX2QN5ZIA1KPD28W8GIQZUS02L","A19CB2C4GY4C60","3MVY4USGB69K0BK9K576GJZ2CVDSII","","","<img src=""img/flower3.png"" style=""width:200px; border:14px solid green;"">","null","","","","","","","","",""
"331.7999999523163","","image-keyboard-response","148","447489","0.0-148.0","3QAPZX2QN5ZIA1KPD28W8GIQZUS02L","A19CB2C4GY4C60","3MVY4USGB69K0BK9K576GJZ2CVDSII","","","img/flower3.png","76","332.2000000476837","3","0","1","1","1,0.333,0.333,0.333,1,0.333,0.333,0.333,1","1,0.333,0.333,0.333,1,0.333,0.333,0.333,1","1",""
"null","","html-keyboard-response","149","447797","0.0-149.0","3QAPZX2QN5ZIA1KPD28W8GIQZUS02L","A19CB2C4GY4C60","3MVY4USGB69K0BK9K576GJZ2CVDSII","","","<img src=""img/flower3.png"" style=""width:200px;border:14px solid red;"">","null","","","","","","","","",""
"423.89999997615814","","image-keyboard-response","150","448221","0.0-150.0","3QAPZX2QN5ZIA1KPD28W8GIQZUS02L","A19CB2C4GY4C60","3MVY4USGB69K0BK9K576GJZ2CVDSII","","","img/flower3.png","76","424.10000002384186","3","1","1","1","1,0.333,0.333,0.333,1,0.333,0.333,0.333,1","1,0.333,0.333,0.333,1,0.333,0.333,0.333,1","1",""
"null","","html-keyboard-response","151","448529","0.0-151.0","3QAPZX2QN5ZIA1KPD28W8GIQZUS02L","A19CB2C4GY4C60","3MVY4USGB69K0BK9K576GJZ2CVDSII","","","<img src=""img/flower3.png"" style=""width:200px; border:14px solid green;"">","null","","","","","","","","",""
"955.5999999046326","","image-keyboard-response","152","449485","0.0-152.0","3QAPZX2QN5ZIA1KPD28W8GIQZUS02L","A19CB2C4GY4C60","3MVY4USGB69K0BK9K576GJZ2CVDSII","","","img/flower4.png","75","955.8999999761581","2","1","3","1","1,0.333,0.333,0.333,1,0.333,0.333,0.333,1","1,0.333,0.333,0.333,1,0.333,0.333,0.333,1","1",""
"null","","html-keyboard-response","153","449794","0.0-153.0","3QAPZX2QN5ZIA1KPD28W8GIQZUS02L","A19CB2C4GY4C60","3MVY4USGB69K0BK9K576GJZ2CVDSII","","","<img src=""img/flower4.png"" style=""width:200px; border:14px solid green;"">","null","","","","","","","","",""
"733.8999999761581","","image-keyboard-response","154","450528","0.0-154.0","3QAPZX2QN5ZIA1KPD28W8GIQZUS02L","A19CB2C4GY4C60","3MVY4USGB69K0BK9K576GJZ2CVDSII","","","img/flower3.png","76","734.1000000238419","3","0","1","1","1,0.333,0.333,0.333,1,0.333,0.333,0.333,1","1,0.333,0.333,0.333,1,0.333,0.333,0.333,1","1",""
"null","","html-keyboard-response","155","450836","0.0-155.0","3QAPZX2QN5ZIA1KPD28W8GIQZUS02L","A19CB2C4GY4C60","3MVY4USGB69K0BK9K576GJZ2CVDSII","","","<img src=""img/flower3.png"" style=""width:200px;border:14px solid red;"">","null","","","","","","","","",""
"827.6000000238419","","image-keyboard-response","156","451664","0.0-156.0","3QAPZX2QN5ZIA1KPD28W8GIQZUS02L","A19CB2C4GY4C60","3MVY4USGB69K0BK9K576GJZ2CVDSII","","","img/flower3.png","76","828","3","0","1","1","1,0.333,0.333,0.333,1,0.333,0.333,0.333,1","1,0.333,0.333,0.333,1,0.333,0.333,0.333,1","1",""
"null","","html-keyboard-response","157","451974","0.0-157.0","3QAPZX2QN5ZIA1KPD28W8GIQZUS02L","A19CB2C4GY4C60","3MVY4USGB69K0BK9K576GJZ2CVDSII","","","<img src=""img/flower3.png"" style=""width:200px;border:14px solid red;"">","null","","","","","","","","",""
"1163.6999999284744","","image-keyboard-response","158","453138","0.0-158.0","3QAPZX2QN5ZIA1KPD28W8GIQZUS02L","A19CB2C4GY4C60","3MVY4USGB69K0BK9K576GJZ2CVDSII","","","img/flower6.png","76","1164","3","0","2","1","1,0.333,0.333,0.333,1,0.333,0.333,0.333,1","1,0.333,0.333,0.333,1,0.333,0.333,0.333,1","1",""
"null","","html-keyboard-response","159","453449","0.0-159.0","3QAPZX2QN5ZIA1KPD28W8GIQZUS02L","A19CB2C4GY4C60","3MVY4USGB69K0BK9K576GJZ2CVDSII","","","<img src=""img/flower6.png"" style=""width:200px;border:14px solid red;"">","null","","","","","","","","",""
"1301.3000000715256","","image-keyboard-response","160","454751","0.0-160.0","3QAPZX2QN5ZIA1KPD28W8GIQZUS02L","A19CB2C4GY4C60","3MVY4USGB69K0BK9K576GJZ2CVDSII","","","img/flower4.png","75","1301.6000000238419","2","0","3","1","1,0.333,0.333,0.333,1,0.333,0.333,0.333,1","1,0.333,0.333,0.333,1,0.333,0.333,0.333,1","1",""
"null","","html-keyboard-response","161","455060","0.0-161.0","3QAPZX2QN5ZIA1KPD28W8GIQZUS02L","A19CB2C4GY4C60","3MVY4USGB69K0BK9K576GJZ2CVDSII","","","<img src=""img/flower4.png"" style=""width:200px;border:14px solid red;"">","null","","","","","","","","",""
"1000.7999999523163","","image-keyboard-response","162","456061","0.0-162.0","3QAPZX2QN5ZIA1KPD28W8GIQZUS02L","A19CB2C4GY4C60","3MVY4USGB69K0BK9K576GJZ2CVDSII","","","img/flower6.png","75","1001","2","1","2","1","1,0.333,0.333,0.333,1,0.333,0.333,0.333,1","1,0.333,0.333,0.333,1,0.333,0.333,0.333,1","1",""
"null","","html-keyboard-response","163","456370","0.0-163.0","3QAPZX2QN5ZIA1KPD28W8GIQZUS02L","A19CB2C4GY4C60","3MVY4USGB69K0BK9K576GJZ2CVDSII","","","<img src=""img/flower6.png"" style=""width:200px; border:14px solid green;"">","null","","","","","","","","",""
"282.7999999523163","","image-keyboard-response","164","456653","0.0-164.0","3QAPZX2QN5ZIA1KPD28W8GIQZUS02L","A19CB2C4GY4C60","3MVY4USGB69K0BK9K576GJZ2CVDSII","","","img/flower6.png","75","283","2","1","2","1","1,0.333,0.333,0.333,1,0.333,0.333,0.333,1","1,0.333,0.333,0.333,1,0.333,0.333,0.333,1","1",""
"null","","html-keyboard-response","165","456961","0.0-165.0","3QAPZX2QN5ZIA1KPD28W8GIQZUS02L","A19CB2C4GY4C60","3MVY4USGB69K0BK9K576GJZ2CVDSII","","","<img src=""img/flower6.png"" style=""width:200px; border:14px solid green;"">","null","","","","","","","","",""
"919.8999999761581","","image-keyboard-response","166","457881","0.0-166.0","3QAPZX2QN5ZIA1KPD28W8GIQZUS02L","A19CB2C4GY4C60","3MVY4USGB69K0BK9K576GJZ2CVDSII","","","img/flower3.png","76","920.2000000476837","3","0","1","1","1,0.333,0.333,0.333,1,0.333,0.333,0.333,1","1,0.333,0.333,0.333,1,0.333,0.333,0.333,1","1",""
"null","","html-keyboard-response","167","458191","0.0-167.0","3QAPZX2QN5ZIA1KPD28W8GIQZUS02L","A19CB2C4GY4C60","3MVY4USGB69K0BK9K576GJZ2CVDSII","","","<img src=""img/flower3.png"" style=""width:200px;border:14px solid red;"">","null","","","","","","","","",""
"1034.7999999523163","","image-keyboard-response","168","459226","0.0-168.0","3QAPZX2QN5ZIA1KPD28W8GIQZUS02L","A19CB2C4GY4C60","3MVY4USGB69K0BK9K576GJZ2CVDSII","","","img/flower6.png","75","1035.1000000238419","2","1","2","1","1,0.333,0.333,0.333,1,0.333,0.333,0.333,1","1,0.333,0.333,0.333,1,0.333,0.333,0.333,1","1",""
"null","","html-keyboard-response","169","459537","0.0-169.0","3QAPZX2QN5ZIA1KPD28W8GIQZUS02L","A19CB2C4GY4C60","3MVY4USGB69K0BK9K576GJZ2CVDSII","","","<img src=""img/flower6.png"" style=""width:200px; border:14px solid green;"">","null","","","","","","","","",""
"609.5","","image-keyboard-response","170","460147","0.0-170.0","3QAPZX2QN5ZIA1KPD28W8GIQZUS02L","A19CB2C4GY4C60","3MVY4USGB69K0BK9K576GJZ2CVDSII","","","img/flower3.png","74","609.8999999761581","1","1","1","1","1,0.333,0.333,0.333,1,0.333,0.333,0.333,1","1,0.333,0.333,0.333,1,0.333,0.333,0.333,1","1",""
"null","","html-keyboard-response","171","460456","0.0-171.0","3QAPZX2QN5ZIA1KPD28W8GIQZUS02L","A19CB2C4GY4C60","3MVY4USGB69K0BK9K576GJZ2CVDSII","","","<img src=""img/flower3.png"" style=""width:200px; border:14px solid green;"">","null","","","","","","","","",""
"939.1999999284744","","image-keyboard-response","172","461396","0.0-172.0","3QAPZX2QN5ZIA1KPD28W8GIQZUS02L","A19CB2C4GY4C60","3MVY4USGB69K0BK9K576GJZ2CVDSII","","","img/flower4.png","76","939.5","3","1","3","1","1,0.333,0.333,0.333,1,0.333,0.333,0.333,1","1,0.333,0.333,0.333,1,0.333,0.333,0.333,1","1",""
"null","","html-keyboard-response","173","461706","0.0-173.0","3QAPZX2QN5ZIA1KPD28W8GIQZUS02L","A19CB2C4GY4C60","3MVY4USGB69K0BK9K576GJZ2CVDSII","","","<img src=""img/flower4.png"" style=""width:200px; border:14px solid green;"">","null","","","","","","","","",""
"311.5","","image-keyboard-response","174","462018","0.0-174.0","3QAPZX2QN5ZIA1KPD28W8GIQZUS02L","A19CB2C4GY4C60","3MVY4USGB69K0BK9K576GJZ2CVDSII","","","img/flower4.png","76","311.90000009536743","3","1","3","1","1,0.333,0.333,0.333,1,0.333,0.333,0.333,1","1,0.333,0.333,0.333,1,0.333,0.333,0.333,1","1",""
"null","","html-keyboard-response","175","462325","0.0-175.0","3QAPZX2QN5ZIA1KPD28W8GIQZUS02L","A19CB2C4GY4C60","3MVY4USGB69K0BK9K576GJZ2CVDSII","","","<img src=""img/flower4.png"" style=""width:200px; border:14px solid green;"">","null","","","","","","","","",""
"627.8999999761581","","image-keyboard-response","176","462953","0.0-176.0","3QAPZX2QN5ZIA1KPD28W8GIQZUS02L","A19CB2C4GY4C60","3MVY4USGB69K0BK9K576GJZ2CVDSII","","","img/flower3.png","74","628.3000000715256","1","1","1","1","1,0.333,0.333,0.333,1,0.333,0.333,0.333,1","1,0.333,0.333,0.333,1,0.333,0.333,0.333,1","1",""
"null","","html-keyboard-response","177","463262","0.0-177.0","3QAPZX2QN5ZIA1KPD28W8GIQZUS02L","A19CB2C4GY4C60","3MVY4USGB69K0BK9K576GJZ2CVDSII","","","<img src=""img/flower3.png"" style=""width:200px; border:14px solid green;"">","null","","","","","","","","",""
"732.6999999284744","","image-keyboard-response","178","463995","0.0-178.0","3QAPZX2QN5ZIA1KPD28W8GIQZUS02L","A19CB2C4GY4C60","3MVY4USGB69K0BK9K576GJZ2CVDSII","","","img/flower4.png","76","733","3","1","3","1","1,0.333,0.333,0.333,1,0.333,0.333,0.333,1","1,0.333,0.333,0.333,1,0.333,0.333,0.333,1","1",""
"null","","html-keyboard-response","179","464309","0.0-179.0","3QAPZX2QN5ZIA1KPD28W8GIQZUS02L","A19CB2C4GY4C60","3MVY4USGB69K0BK9K576GJZ2CVDSII","","","<img src=""img/flower4.png"" style=""width:200px; border:14px solid green;"">","null","","","","","","","","",""
"675","","image-keyboard-response","180","464984","0.0-180.0","3QAPZX2QN5ZIA1KPD28W8GIQZUS02L","A19CB2C4GY4C60","3MVY4USGB69K0BK9K576GJZ2CVDSII","","","img/flower6.png","75","675.4000000953674","2","1","2","1","1,0.333,0.333,0.333,1,0.333,0.333,0.333,1","1,0.333,0.333,0.333,1,0.333,0.333,0.333,1","1",""
"null","","html-keyboard-response","181","465294","0.0-181.0","3QAPZX2QN5ZIA1KPD28W8GIQZUS02L","A19CB2C4GY4C60","3MVY4USGB69K0BK9K576GJZ2CVDSII","","","<img src=""img/flower6.png"" style=""width:200px; border:14px solid green;"">","null","","","","","","","","",""
"1112.8000000715256","","image-keyboard-response","182","466408","0.0-182.0","3QAPZX2QN5ZIA1KPD28W8GIQZUS02L","A19CB2C4GY4C60","3MVY4USGB69K0BK9K576GJZ2CVDSII","","","img/flower3.png","74","1113.1000000238419","1","1","1","1","1,0.333,0.333,0.333,1,0.333,0.333,0.333,1","1,0.333,0.333,0.333,1,0.333,0.333,0.333,1","1",""
"null","","html-keyboard-response","183","466719","0.0-183.0","3QAPZX2QN5ZIA1KPD28W8GIQZUS02L","A19CB2C4GY4C60","3MVY4USGB69K0BK9K576GJZ2CVDSII","","","<img src=""img/flower3.png"" style=""width:200px; border:14px solid green;"">","null","","","","","","","","",""
"565.8999999761581","","image-keyboard-response","184","467285","0.0-184.0","3QAPZX2QN5ZIA1KPD28W8GIQZUS02L","A19CB2C4GY4C60","3MVY4USGB69K0BK9K576GJZ2CVDSII","","","img/flower6.png","75","566.2000000476837","2","1","2","1","1,0.333,0.333,0.333,1,0.333,0.333,0.333,1","1,0.333,0.333,0.333,1,0.333,0.333,0.333,1","1",""
"null","","html-keyboard-response","185","467598","0.0-185.0","3QAPZX2QN5ZIA1KPD28W8GIQZUS02L","A19CB2C4GY4C60","3MVY4USGB69K0BK9K576GJZ2CVDSII","","","<img src=""img/flower6.png"" style=""width:200px; border:14px solid green;"">","null","","","","","","","","",""
"363.6999999284744","","image-keyboard-response","186","467962","0.0-186.0","3QAPZX2QN5ZIA1KPD28W8GIQZUS02L","A19CB2C4GY4C60","3MVY4USGB69K0BK9K576GJZ2CVDSII","","","img/flower6.png","75","364.10000002384186","2","1","2","1","1,0.333,0.333,0.333,1,0.333,0.333,0.333,1","1,0.333,0.333,0.333,1,0.333,0.333,0.333,1","1",""
"null","","html-keyboard-response","187","468275","0.0-187.0","3QAPZX2QN5ZIA1KPD28W8GIQZUS02L","A19CB2C4GY4C60","3MVY4USGB69K0BK9K576GJZ2CVDSII","","","<img src=""img/flower6.png"" style=""width:200px; border:14px solid green;"">","null","","","","","","","","",""
"553.7999999523163","","image-keyboard-response","188","468829","0.0-188.0","3QAPZX2QN5ZIA1KPD28W8GIQZUS02L","A19CB2C4GY4C60","3MVY4USGB69K0BK9K576GJZ2CVDSII","","","img/flower3.png","74","554.2000000476837","1","1","1","1","1,0.333,0.333,0.333,1,0.333,0.333,0.333,1","1,0.333,0.333,0.333,1,0.333,0.333,0.333,1","1",""
"null","","html-keyboard-response","189","469141","0.0-189.0","3QAPZX2QN5ZIA1KPD28W8GIQZUS02L","A19CB2C4GY4C60","3MVY4USGB69K0BK9K576GJZ2CVDSII","","","<img src=""img/flower3.png"" style=""width:200px; border:14px solid green;"">","null","","","","","","","","",""
"770","","image-keyboard-response","190","469912","0.0-190.0","3QAPZX2QN5ZIA1KPD28W8GIQZUS02L","A19CB2C4GY4C60","3MVY4USGB69K0BK9K576GJZ2CVDSII","","","img/flower4.png","76","770.2000000476837","3","1","3","1","1,0.333,0.333,0.333,1,0.333,0.333,0.333,1","1,0.333,0.333,0.333,1,0.333,0.333,0.333,1","1",""
"null","","html-keyboard-response","191","470224","0.0-191.0","3QAPZX2QN5ZIA1KPD28W8GIQZUS02L","A19CB2C4GY4C60","3MVY4USGB69K0BK9K576GJZ2CVDSII","","","<img src=""img/flower4.png"" style=""width:200px; border:14px solid green;"">","null","","","","","","","","",""
"312.60000002384186","","image-keyboard-response","192","470538","0.0-192.0","3QAPZX2QN5ZIA1KPD28W8GIQZUS02L","A19CB2C4GY4C60","3MVY4USGB69K0BK9K576GJZ2CVDSII","","","img/flower4.png","76","313","3","1","3","1","1,0.333,0.333,0.333,1,0.333,0.333,0.333,1","1,0.333,0.333,0.333,1,0.333,0.333,0.333,1","1",""
"null","","html-keyboard-response","193","470849","0.0-193.0","3QAPZX2QN5ZIA1KPD28W8GIQZUS02L","A19CB2C4GY4C60","3MVY4USGB69K0BK9K576GJZ2CVDSII","","","<img src=""img/flower4.png"" style=""width:200px; border:14px solid green;"">","null","","","","","","","","",""
"531.6999999284744","","image-keyboard-response","194","471381","0.0-194.0","3QAPZX2QN5ZIA1KPD28W8GIQZUS02L","A19CB2C4GY4C60","3MVY4USGB69K0BK9K576GJZ2CVDSII","","","img/flower6.png","75","532","2","1","2","1","1,0.333,0.333,0.333,1,0.333,0.333,0.333,1","1,0.333,0.333,0.333,1,0.333,0.333,0.333,1","1",""
"null","","html-keyboard-response","195","471693","0.0-195.0","3QAPZX2QN5ZIA1KPD28W8GIQZUS02L","A19CB2C4GY4C60","3MVY4USGB69K0BK9K576GJZ2CVDSII","","","<img src=""img/flower6.png"" style=""width:200px; border:14px solid green;"">","null","","","","","","","","",""
"987.7999999523163","","image-keyboard-response","196","472681","0.0-196.0","3QAPZX2QN5ZIA1KPD28W8GIQZUS02L","A19CB2C4GY4C60","3MVY4USGB69K0BK9K576GJZ2CVDSII","","","img/flower3.png","76","988.1000000238419","3","0","1","1","1,0.333,0.333,0.333,1,0.333,0.333,0.333,1","1,0.333,0.333,0.333,1,0.333,0.333,0.333,1","1",""
"null","","html-keyboard-response","197","472993","0.0-197.0","3QAPZX2QN5ZIA1KPD28W8GIQZUS02L","A19CB2C4GY4C60","3MVY4USGB69K0BK9K576GJZ2CVDSII","","","<img src=""img/flower3.png"" style=""width:200px;border:14px solid red;"">","null","","","","","","","","",""
"845.7999999523163","","image-keyboard-response","198","473839","0.0-198.0","3QAPZX2QN5ZIA1KPD28W8GIQZUS02L","A19CB2C4GY4C60","3MVY4USGB69K0BK9K576GJZ2CVDSII","","","img/flower6.png","75","846.1000000238419","2","1","2","1","1,0.333,0.333,0.333,1,0.333,0.333,0.333,1","1,0.333,0.333,0.333,1,0.333,0.333,0.333,1","1",""
"null","","html-keyboard-response","199","474148","0.0-199.0","3QAPZX2QN5ZIA1KPD28W8GIQZUS02L","A19CB2C4GY4C60","3MVY4USGB69K0BK9K576GJZ2CVDSII","","","<img src=""img/flower6.png"" style=""width:200px; border:14px solid green;"">","null","","","","","","","","",""
"313.60000002384186","","image-keyboard-response","200","474461","0.0-200.0","3QAPZX2QN5ZIA1KPD28W8GIQZUS02L","A19CB2C4GY4C60","3MVY4USGB69K0BK9K576GJZ2CVDSII","","","img/flower6.png","75","313.7000000476837","2","1","2","1","1,0.333,0.333,0.333,1,0.333,0.333,0.333,1","1,0.333,0.333,0.333,1,0.333,0.333,0.333,1","1",""
"null","","html-keyboard-response","201","474770","0.0-201.0","3QAPZX2QN5ZIA1KPD28W8GIQZUS02L","A19CB2C4GY4C60","3MVY4USGB69K0BK9K576GJZ2CVDSII","","","<img src=""img/flower6.png"" style=""width:200px; border:14px solid green;"">","null","","","","","","","","",""
"1020.1000000238419","","image-keyboard-response","202","475791","0.0-202.0","3QAPZX2QN5ZIA1KPD28W8GIQZUS02L","A19CB2C4GY4C60","3MVY4USGB69K0BK9K576GJZ2CVDSII","","","img/flower3.png","74","1020.3000000715256","1","1","1","1","1,0.333,0.333,0.333,1,0.333,0.333,0.333,1","1,0.333,0.333,0.333,1,0.333,0.333,0.333,1","1",""
"null","","html-keyboard-response","203","476100","0.0-203.0","3QAPZX2QN5ZIA1KPD28W8GIQZUS02L","A19CB2C4GY4C60","3MVY4USGB69K0BK9K576GJZ2CVDSII","","","<img src=""img/flower3.png"" style=""width:200px; border:14px solid green;"">","null","","","","","","","","",""
"314.2999999523163","","image-keyboard-response","204","476414","0.0-204.0","3QAPZX2QN5ZIA1KPD28W8GIQZUS02L","A19CB2C4GY4C60","3MVY4USGB69K0BK9K576GJZ2CVDSII","","","img/flower3.png","74","314.60000002384186","1","1","1","1","1,0.333,0.333,0.333,1,0.333,0.333,0.333,1","1,0.333,0.333,0.333,1,0.333,0.333,0.333,1","1",""
"null","","html-keyboard-response","205","476724","0.0-205.0","3QAPZX2QN5ZIA1KPD28W8GIQZUS02L","A19CB2C4GY4C60","3MVY4USGB69K0BK9K576GJZ2CVDSII","","","<img src=""img/flower3.png"" style=""width:200px; border:14px solid green;"">","null","","","","","","","","",""
"750","","image-keyboard-response","206","477475","0.0-206.0","3QAPZX2QN5ZIA1KPD28W8GIQZUS02L","A19CB2C4GY4C60","3MVY4USGB69K0BK9K576GJZ2CVDSII","","","img/flower4.png","76","750.2999999523163","3","1","3","1","1,0.333,0.333,0.333,1,0.333,0.333,0.333,1","1,0.333,0.333,0.333,1,0.333,0.333,0.333,1","1",""
"null","","html-keyboard-response","207","477785","0.0-207.0","3QAPZX2QN5ZIA1KPD28W8GIQZUS02L","A19CB2C4GY4C60","3MVY4USGB69K0BK9K576GJZ2CVDSII","","","<img src=""img/flower4.png"" style=""width:200px; border:14px solid green;"">","null","","","","","","","","",""
"141.79999995231628","","image-keyboard-response","208","477927","0.0-208.0","3QAPZX2QN5ZIA1KPD28W8GIQZUS02L","A19CB2C4GY4C60","3MVY4USGB69K0BK9K576GJZ2CVDSII","","","img/flower3.png","76","142.10000002384186","3","1","1","1","1,0.333,0.333,0.333,1,0.333,0.333,0.333,1","1,0.333,0.333,0.333,1,0.333,0.333,0.333,1","1",""
"null","","html-keyboard-response","209","478237","0.0-209.0","3QAPZX2QN5ZIA1KPD28W8GIQZUS02L","A19CB2C4GY4C60","3MVY4USGB69K0BK9K576GJZ2CVDSII","","","<img src=""img/flower3.png"" style=""width:200px; border:14px solid green;"">","null","","","","","","","","",""
"826.7999999523163","","image-keyboard-response","210","479064","0.0-210.0","3QAPZX2QN5ZIA1KPD28W8GIQZUS02L","A19CB2C4GY4C60","3MVY4USGB69K0BK9K576GJZ2CVDSII","","","img/flower6.png","75","827.2000000476837","2","1","2","1","1,0.333,0.333,0.333,1,0.333,0.333,0.333,1","1,0.333,0.333,0.333,1,0.333,0.333,0.333,1","1",""
"null","","html-keyboard-response","211","479377","0.0-211.0","3QAPZX2QN5ZIA1KPD28W8GIQZUS02L","A19CB2C4GY4C60","3MVY4USGB69K0BK9K576GJZ2CVDSII","","","<img src=""img/flower6.png"" style=""width:200px; border:14px solid green;"">","null","","","","","","","","",""
"1274.1999999284744","","image-keyboard-response","212","480652","0.0-212.0","3QAPZX2QN5ZIA1KPD28W8GIQZUS02L","A19CB2C4GY4C60","3MVY4USGB69K0BK9K576GJZ2CVDSII","","","img/flower3.png","74","1274.6000000238419","1","1","1","1","1,0.333,0.333,0.333,1,0.333,0.333,0.333,1","1,0.333,0.333,0.333,1,0.333,0.333,0.333,1","1",""
"null","","html-keyboard-response","213","480963","0.0-213.0","3QAPZX2QN5ZIA1KPD28W8GIQZUS02L","A19CB2C4GY4C60","3MVY4USGB69K0BK9K576GJZ2CVDSII","","","<img src=""img/flower3.png"" style=""width:200px; border:14px solid green;"">","null","","","","","","","","",""
"284.1999999284744","","image-keyboard-response","214","481248","0.0-214.0","3QAPZX2QN5ZIA1KPD28W8GIQZUS02L","A19CB2C4GY4C60","3MVY4USGB69K0BK9K576GJZ2CVDSII","","","img/flower3.png","74","284.5","1","1","1","1","1,0.333,0.333,0.333,1,0.333,0.333,0.333,1","1,0.333,0.333,0.333,1,0.333,0.333,0.333,1","1",""
"null","","html-keyboard-response","215","481557","0.0-215.0","3QAPZX2QN5ZIA1KPD28W8GIQZUS02L","A19CB2C4GY4C60","3MVY4USGB69K0BK9K576GJZ2CVDSII","","","<img src=""img/flower3.png"" style=""width:200px; border:14px solid green;"">","null","","","","","","","","",""
"282.59999990463257","","image-keyboard-response","216","481840","0.0-216.0","3QAPZX2QN5ZIA1KPD28W8GIQZUS02L","A19CB2C4GY4C60","3MVY4USGB69K0BK9K576GJZ2CVDSII","","","img/flower3.png","74","283","1","1","1","1","1,0.333,0.333,0.333,1,0.333,0.333,0.333,1","1,0.333,0.333,0.333,1,0.333,0.333,0.333,1","1",""
"null","","html-keyboard-response","217","482151","0.0-217.0","3QAPZX2QN5ZIA1KPD28W8GIQZUS02L","A19CB2C4GY4C60","3MVY4USGB69K0BK9K576GJZ2CVDSII","","","<img src=""img/flower3.png"" style=""width:200px; border:14px solid green;"">","null","","","","","","","","",""
"778.6000000238419","","image-keyboard-response","218","482930","0.0-218.0","3QAPZX2QN5ZIA1KPD28W8GIQZUS02L","A19CB2C4GY4C60","3MVY4USGB69K0BK9K576GJZ2CVDSII","","","img/flower4.png","76","779.1000000238419","3","1","3","1","1,0.333,0.333,0.333,1,0.333,0.333,0.333,1","1,0.333,0.333,0.333,1,0.333,0.333,0.333,1","1",""
"null","","html-keyboard-response","219","483242","0.0-219.0","3QAPZX2QN5ZIA1KPD28W8GIQZUS02L","A19CB2C4GY4C60","3MVY4USGB69K0BK9K576GJZ2CVDSII","","","<img src=""img/flower4.png"" style=""width:200px; border:14px solid green;"">","null","","","","","","","","",""
"286.7000000476837","","image-keyboard-response","220","483529","0.0-220.0","3QAPZX2QN5ZIA1KPD28W8GIQZUS02L","A19CB2C4GY4C60","3MVY4USGB69K0BK9K576GJZ2CVDSII","","","img/flower4.png","76","287.10000002384186","3","1","3","1","1,0.333,0.333,0.333,1,0.333,0.333,0.333,1","1,0.333,0.333,0.333,1,0.333,0.333,0.333,1","1",""
"null","","html-keyboard-response","221","483845","0.0-221.0","3QAPZX2QN5ZIA1KPD28W8GIQZUS02L","A19CB2C4GY4C60","3MVY4USGB69K0BK9K576GJZ2CVDSII","","","<img src=""img/flower4.png"" style=""width:200px; border:14px solid green;"">","null","","","","","","","","",""
"752.7000000476837","","image-keyboard-response","222","484598","0.0-222.0","3QAPZX2QN5ZIA1KPD28W8GIQZUS02L","A19CB2C4GY4C60","3MVY4USGB69K0BK9K576GJZ2CVDSII","","","img/flower3.png","74","753.1000000238419","1","1","1","1","1,0.333,0.333,0.333,1,0.333,0.333,0.333,1","1,0.333,0.333,0.333,1,0.333,0.333,0.333,1","1",""
"null","","html-keyboard-response","223","484909","0.0-223.0","3QAPZX2QN5ZIA1KPD28W8GIQZUS02L","A19CB2C4GY4C60","3MVY4USGB69K0BK9K576GJZ2CVDSII","","","<img src=""img/flower3.png"" style=""width:200px; border:14px solid green;"">","null","","","","","","","","",""
"691.1000000238419","","image-keyboard-response","224","485601","0.0-224.0","3QAPZX2QN5ZIA1KPD28W8GIQZUS02L","A19CB2C4GY4C60","3MVY4USGB69K0BK9K576GJZ2CVDSII","","","img/flower4.png","76","691.3999999761581","3","1","3","1","1,0.333,0.333,0.333,1,0.333,0.333,0.333,1","1,0.333,0.333,0.333,1,0.333,0.333,0.333,1","1",""
"null","","html-keyboard-response","225","485909","0.0-225.0","3QAPZX2QN5ZIA1KPD28W8GIQZUS02L","A19CB2C4GY4C60","3MVY4USGB69K0BK9K576GJZ2CVDSII","","","<img src=""img/flower4.png"" style=""width:200px; border:14px solid green;"">","null","","","","","","","","",""
"740.1000000238419","","image-keyboard-response","226","486650","0.0-226.0","3QAPZX2QN5ZIA1KPD28W8GIQZUS02L","A19CB2C4GY4C60","3MVY4USGB69K0BK9K576GJZ2CVDSII","","","img/flower6.png","75","740.3999999761581","2","1","2","1","1,0.333,0.333,0.333,1,0.333,0.333,0.333,1","1,0.333,0.333,0.333,1,0.333,0.333,0.333,1","1",""
"null","","html-keyboard-response","227","486957","0.0-227.0","3QAPZX2QN5ZIA1KPD28W8GIQZUS02L","A19CB2C4GY4C60","3MVY4USGB69K0BK9K576GJZ2CVDSII","","","<img src=""img/flower6.png"" style=""width:200px; border:14px solid green;"">","null","","","","","","","","",""
"316.7999999523163","","image-keyboard-response","228","487274","0.0-228.0","3QAPZX2QN5ZIA1KPD28W8GIQZUS02L","A19CB2C4GY4C60","3MVY4USGB69K0BK9K576GJZ2CVDSII","","","img/flower6.png","75","317.10000002384186","2","1","2","1","1,0.333,0.333,0.333,1,0.333,0.333,0.333,1","1,0.333,0.333,0.333,1,0.333,0.333,0.333,1","1",""
"null","","html-keyboard-response","229","487583","0.0-229.0","3QAPZX2QN5ZIA1KPD28W8GIQZUS02L","A19CB2C4GY4C60","3MVY4USGB69K0BK9K576GJZ2CVDSII","","","<img src=""img/flower6.png"" style=""width:200px; border:14px solid green;"">","null","","","","","","","","",""
"1065.6000000238419","","image-keyboard-response","230","488649","0.0-230.0","3QAPZX2QN5ZIA1KPD28W8GIQZUS02L","A19CB2C4GY4C60","3MVY4USGB69K0BK9K576GJZ2CVDSII","","","img/flower3.png","74","1066","1","1","1","1","1,0.333,0.333,0.333,1,0.333,0.333,0.333,1","1,0.333,0.333,0.333,1,0.333,0.333,0.333,1","1",""
"null","","html-keyboard-response","231","488958","0.0-231.0","3QAPZX2QN5ZIA1KPD28W8GIQZUS02L","A19CB2C4GY4C60","3MVY4USGB69K0BK9K576GJZ2CVDSII","","","<img src=""img/flower3.png"" style=""width:200px; border:14px solid green;"">","null","","","","","","","","",""
"283.09999990463257","","image-keyboard-response","232","489242","0.0-232.0","3QAPZX2QN5ZIA1KPD28W8GIQZUS02L","A19CB2C4GY4C60","3MVY4USGB69K0BK9K576GJZ2CVDSII","","","img/flower3.png","74","283.39999997615814","1","1","1","1","1,0.333,0.333,0.333,1,0.333,0.333,0.333,1","1,0.333,0.333,0.333,1,0.333,0.333,0.333,1","1",""
"null","","html-keyboard-response","233","489550","0.0-233.0","3QAPZX2QN5ZIA1KPD28W8GIQZUS02L","A19CB2C4GY4C60","3MVY4USGB69K0BK9K576GJZ2CVDSII","","","<img src=""img/flower3.png"" style=""width:200px; border:14px solid green;"">","null","","","","","","","","",""
"563.3999999761581","","image-keyboard-response","234","490113","0.0-234.0","3QAPZX2QN5ZIA1KPD28W8GIQZUS02L","A19CB2C4GY4C60","3MVY4USGB69K0BK9K576GJZ2CVDSII","","","img/flower6.png","75","563.7000000476837","2","1","2","1","1,0.333,0.333,0.333,1,0.333,0.333,0.333,1","1,0.333,0.333,0.333,1,0.333,0.333,0.333,1","1",""
"null","","html-keyboard-response","235","490424","0.0-235.0","3QAPZX2QN5ZIA1KPD28W8GIQZUS02L","A19CB2C4GY4C60","3MVY4USGB69K0BK9K576GJZ2CVDSII","","","<img src=""img/flower6.png"" style=""width:200px; border:14px solid green;"">","null","","","","","","","","",""
"265.6999999284744","","image-keyboard-response","236","490690","0.0-236.0","3QAPZX2QN5ZIA1KPD28W8GIQZUS02L","A19CB2C4GY4C60","3MVY4USGB69K0BK9K576GJZ2CVDSII","","","img/flower6.png","75","266","2","1","2","1","1,0.333,0.333,0.333,1,0.333,0.333,0.333,1","1,0.333,0.333,0.333,1,0.333,0.333,0.333,1","1",""
"null","","html-keyboard-response","237","490999","0.0-237.0","3QAPZX2QN5ZIA1KPD28W8GIQZUS02L","A19CB2C4GY4C60","3MVY4USGB69K0BK9K576GJZ2CVDSII","","","<img src=""img/flower6.png"" style=""width:200px; border:14px solid green;"">","null","","","","","","","","",""
"298.39999997615814","","image-keyboard-response","238","491297","0.0-238.0","3QAPZX2QN5ZIA1KPD28W8GIQZUS02L","A19CB2C4GY4C60","3MVY4USGB69K0BK9K576GJZ2CVDSII","","","img/flower6.png","75","298.7000000476837","2","1","2","1","1,0.333,0.333,0.333,1,0.333,0.333,0.333,1","1,0.333,0.333,0.333,1,0.333,0.333,0.333,1","1",""
"null","","html-keyboard-response","239","491610","0.0-239.0","3QAPZX2QN5ZIA1KPD28W8GIQZUS02L","A19CB2C4GY4C60","3MVY4USGB69K0BK9K576GJZ2CVDSII","","","<img src=""img/flower6.png"" style=""width:200px; border:14px solid green;"">","null","","","","","","","","",""
"1038.3000000715256","","image-keyboard-response","240","492649","0.0-240.0","3QAPZX2QN5ZIA1KPD28W8GIQZUS02L","A19CB2C4GY4C60","3MVY4USGB69K0BK9K576GJZ2CVDSII","","","img/flower4.png","74","1038.5","1","0","3","1","1,0.333,0.333,0.333,1,0.333,0.333,0.333,1","1,0.333,0.333,0.333,1,0.333,0.333,0.333,1","1",""
"null","","html-keyboard-response","241","492958","0.0-241.0","3QAPZX2QN5ZIA1KPD28W8GIQZUS02L","A19CB2C4GY4C60","3MVY4USGB69K0BK9K576GJZ2CVDSII","","","<img src=""img/flower4.png"" style=""width:200px;border:14px solid red;"">","null","","","","","","","","",""
"362.1999999284744","","image-keyboard-response","242","493321","0.0-242.0","3QAPZX2QN5ZIA1KPD28W8GIQZUS02L","A19CB2C4GY4C60","3MVY4USGB69K0BK9K576GJZ2CVDSII","","","img/flower4.png","76","362.5","3","1","3","1","1,0.333,0.333,0.333,1,0.333,0.333,0.333,1","1,0.333,0.333,0.333,1,0.333,0.333,0.333,1","1",""
"null","","html-keyboard-response","243","493631","0.0-243.0","3QAPZX2QN5ZIA1KPD28W8GIQZUS02L","A19CB2C4GY4C60","3MVY4USGB69K0BK9K576GJZ2CVDSII","","","<img src=""img/flower4.png"" style=""width:200px; border:14px solid green;"">","null","","","","","","","","",""
"327","","image-keyboard-response","244","493959","0.0-244.0","3QAPZX2QN5ZIA1KPD28W8GIQZUS02L","A19CB2C4GY4C60","3MVY4USGB69K0BK9K576GJZ2CVDSII","","","img/flower4.png","76","327.2999999523163","3","1","3","1","1,0.333,0.333,0.333,1,0.333,0.333,0.333,1","1,0.333,0.333,0.333,1,0.333,0.333,0.333,1","1",""
"null","","html-keyboard-response","245","494269","0.0-245.0","3QAPZX2QN5ZIA1KPD28W8GIQZUS02L","A19CB2C4GY4C60","3MVY4USGB69K0BK9K576GJZ2CVDSII","","","<img src=""img/flower4.png"" style=""width:200px; border:14px solid green;"">","null","","","","","","","","",""
"562.8999999761581","","image-keyboard-response","246","494832","0.0-246.0","3QAPZX2QN5ZIA1KPD28W8GIQZUS02L","A19CB2C4GY4C60","3MVY4USGB69K0BK9K576GJZ2CVDSII","","","img/flower6.png","75","563.1000000238419","2","1","2","1","1,0.333,0.333,0.333,1,0.333,0.333,0.333,1","1,0.333,0.333,0.333,1,0.333,0.333,0.333,1","1",""
"null","","html-keyboard-response","247","495145","0.0-247.0","3QAPZX2QN5ZIA1KPD28W8GIQZUS02L","A19CB2C4GY4C60","3MVY4USGB69K0BK9K576GJZ2CVDSII","","","<img src=""img/flower6.png"" style=""width:200px; border:14px solid green;"">","null","","","","","","","","",""
"919.8999999761581","","image-keyboard-response","248","496065","0.0-248.0","3QAPZX2QN5ZIA1KPD28W8GIQZUS02L","A19CB2C4GY4C60","3MVY4USGB69K0BK9K576GJZ2CVDSII","","","img/flower3.png","74","920.2000000476837","1","1","1","1","1,0.333,0.333,0.333,1,0.333,0.333,0.333,1","1,0.333,0.333,0.333,1,0.333,0.333,0.333,1","1",""
"null","","html-keyboard-response","249","496373","0.0-249.0","3QAPZX2QN5ZIA1KPD28W8GIQZUS02L","A19CB2C4GY4C60","3MVY4USGB69K0BK9K576GJZ2CVDSII","","","<img src=""img/flower3.png"" style=""width:200px; border:14px solid green;"">","null","","","","","","","","",""
"501.7999999523163","","image-keyboard-response","250","496875","0.0-250.0","3QAPZX2QN5ZIA1KPD28W8GIQZUS02L","A19CB2C4GY4C60","3MVY4USGB69K0BK9K576GJZ2CVDSII","","","img/flower4.png","76","502.2000000476837","3","1","3","1","1,0.333,0.333,0.333,1,0.333,0.333,0.333,1","1,0.333,0.333,0.333,1,0.333,0.333,0.333,1","1",""
"null","","html-keyboard-response","251","497185","0.0-251.0","3QAPZX2QN5ZIA1KPD28W8GIQZUS02L","A19CB2C4GY4C60","3MVY4USGB69K0BK9K576GJZ2CVDSII","","","<img src=""img/flower4.png"" style=""width:200px; border:14px solid green;"">","null","","","","","","","","",""
"536","","image-keyboard-response","252","497722","0.0-252.0","3QAPZX2QN5ZIA1KPD28W8GIQZUS02L","A19CB2C4GY4C60","3MVY4USGB69K0BK9K576GJZ2CVDSII","","","img/flower6.png","75","536.3000000715256","2","1","2","1","1,0.333,0.333,0.333,1,0.333,0.333,0.333,1","1,0.333,0.333,0.333,1,0.333,0.333,0.333,1","1",""
"null","","html-keyboard-response","253","498036","0.0-253.0","3QAPZX2QN5ZIA1KPD28W8GIQZUS02L","A19CB2C4GY4C60","3MVY4USGB69K0BK9K576GJZ2CVDSII","","","<img src=""img/flower6.png"" style=""width:200px; border:14px solid green;"">","null","","","","","","","","",""
"817.2999999523163","","image-keyboard-response","254","498853","0.0-254.0","3QAPZX2QN5ZIA1KPD28W8GIQZUS02L","A19CB2C4GY4C60","3MVY4USGB69K0BK9K576GJZ2CVDSII","","","img/flower4.png","76","817.6000000238419","3","1","3","1","1,0.333,0.333,0.333,1,0.333,0.333,0.333,1","1,0.333,0.333,0.333,1,0.333,0.333,0.333,1","1",""
"null","","html-keyboard-response","255","499167","0.0-255.0","3QAPZX2QN5ZIA1KPD28W8GIQZUS02L","A19CB2C4GY4C60","3MVY4USGB69K0BK9K576GJZ2CVDSII","","","<img src=""img/flower4.png"" style=""width:200px; border:14px solid green;"">","null","","","","","","","","",""
"1488.7999999523163","","image-keyboard-response","256","500656","0.0-256.0","3QAPZX2QN5ZIA1KPD28W8GIQZUS02L","A19CB2C4GY4C60","3MVY4USGB69K0BK9K576GJZ2CVDSII","","","img/flower3.png","74","1489.2000000476837","1","1","1","1","1,0.333,0.333,0.333,1,0.333,0.333,0.333,1","1,0.333,0.333,0.333,1,0.333,0.333,0.333,1","1",""
"null","","html-keyboard-response","257","500965","0.0-257.0","3QAPZX2QN5ZIA1KPD28W8GIQZUS02L","A19CB2C4GY4C60","3MVY4USGB69K0BK9K576GJZ2CVDSII","","","<img src=""img/flower3.png"" style=""width:200px; border:14px solid green;"">","null","","","","","","","","",""
"719.6999999284744","","image-keyboard-response","258","501685","0.0-258.0","3QAPZX2QN5ZIA1KPD28W8GIQZUS02L","A19CB2C4GY4C60","3MVY4USGB69K0BK9K576GJZ2CVDSII","","","img/flower6.png","75","720.3000000715256","2","1","2","1","1,0.333,0.333,0.333,1,0.333,0.333,0.333,1","1,0.333,0.333,0.333,1,0.333,0.333,0.333,1","1",""
"null","","html-keyboard-response","259","501995","0.0-259.0","3QAPZX2QN5ZIA1KPD28W8GIQZUS02L","A19CB2C4GY4C60","3MVY4USGB69K0BK9K576GJZ2CVDSII","","","<img src=""img/flower6.png"" style=""width:200px; border:14px solid green;"">","null","","","","","","","","",""
"327.6999999284744","","image-keyboard-response","260","502323","0.0-260.0","3QAPZX2QN5ZIA1KPD28W8GIQZUS02L","A19CB2C4GY4C60","3MVY4USGB69K0BK9K576GJZ2CVDSII","","","img/flower6.png","75","328","2","1","2","1","1,0.333,0.333,0.333,1,0.333,0.333,0.333,1","1,0.333,0.333,0.333,1,0.333,0.333,0.333,1","1",""
"null","","html-keyboard-response","261","502633","0.0-261.0","3QAPZX2QN5ZIA1KPD28W8GIQZUS02L","A19CB2C4GY4C60","3MVY4USGB69K0BK9K576GJZ2CVDSII","","","<img src=""img/flower6.png"" style=""width:200px; border:14px solid green;"">","null","","","","","","","","",""
"829.6999999284744","","image-keyboard-response","262","503463","0.0-262.0","3QAPZX2QN5ZIA1KPD28W8GIQZUS02L","A19CB2C4GY4C60","3MVY4USGB69K0BK9K576GJZ2CVDSII","","","img/flower4.png","76","830.1000000238419","3","1","3","1","1,0.333,0.333,0.333,1,0.333,0.333,0.333,1","1,0.333,0.333,0.333,1,0.333,0.333,0.333,1","1",""
"null","","html-keyboard-response","263","503772","0.0-263.0","3QAPZX2QN5ZIA1KPD28W8GIQZUS02L","A19CB2C4GY4C60","3MVY4USGB69K0BK9K576GJZ2CVDSII","","","<img src=""img/flower4.png"" style=""width:200px; border:14px solid green;"">","null","","","","","","","","",""
"549.8999999761581","","image-keyboard-response","264","504322","0.0-264.0","3QAPZX2QN5ZIA1KPD28W8GIQZUS02L","A19CB2C4GY4C60","3MVY4USGB69K0BK9K576GJZ2CVDSII","","","img/flower6.png","75","550.2000000476837","2","1","2","1","1,0.333,0.333,0.333,1,0.333,0.333,0.333,1","1,0.333,0.333,0.333,1,0.333,0.333,0.333,1","1",""
"null","","html-keyboard-response","265","504634","0.0-265.0","3QAPZX2QN5ZIA1KPD28W8GIQZUS02L","A19CB2C4GY4C60","3MVY4USGB69K0BK9K576GJZ2CVDSII","","","<img src=""img/flower6.png"" style=""width:200px; border:14px solid green;"">","null","","","","","","","","",""
"1282.8000000715256","","image-keyboard-response","266","505917","0.0-266.0","3QAPZX2QN5ZIA1KPD28W8GIQZUS02L","A19CB2C4GY4C60","3MVY4USGB69K0BK9K576GJZ2CVDSII","","","img/flower3.png","74","1283.1000000238419","1","1","1","1","1,0.333,0.333,0.333,1,0.333,0.333,0.333,1","1,0.333,0.333,0.333,1,0.333,0.333,0.333,1","1",""
"null","","html-keyboard-response","267","506229","0.0-267.0","3QAPZX2QN5ZIA1KPD28W8GIQZUS02L","A19CB2C4GY4C60","3MVY4USGB69K0BK9K576GJZ2CVDSII","","","<img src=""img/flower3.png"" style=""width:200px; border:14px solid green;"">","null","","","","","","","","",""
"563.6999999284744","","image-keyboard-response","268","506793","0.0-268.0","3QAPZX2QN5ZIA1KPD28W8GIQZUS02L","A19CB2C4GY4C60","3MVY4USGB69K0BK9K576GJZ2CVDSII","","","img/flower4.png","76","564.1000000238419","3","1","3","1","1,0.333,0.333,0.333,1,0.333,0.333,0.333,1","1,0.333,0.333,0.333,1,0.333,0.333,0.333,1","1",""
"null","","html-keyboard-response","269","507103","0.0-269.0","3QAPZX2QN5ZIA1KPD28W8GIQZUS02L","A19CB2C4GY4C60","3MVY4USGB69K0BK9K576GJZ2CVDSII","","","<img src=""img/flower4.png"" style=""width:200px; border:14px solid green;"">","null","","","","","","","","",""
"327.8000000715256","","image-keyboard-response","270","507431","0.0-270.0","3QAPZX2QN5ZIA1KPD28W8GIQZUS02L","A19CB2C4GY4C60","3MVY4USGB69K0BK9K576GJZ2CVDSII","","","img/flower4.png","76","328.09999990463257","3","1","3","1","1,0.333,0.333,0.333,1,0.333,0.333,0.333,1","1,0.333,0.333,0.333,1,0.333,0.333,0.333,1","1",""
"null","","html-keyboard-response","271","507738","0.0-271.0","3QAPZX2QN5ZIA1KPD28W8GIQZUS02L","A19CB2C4GY4C60","3MVY4USGB69K0BK9K576GJZ2CVDSII","","","<img src=""img/flower4.png"" style=""width:200px; border:14px solid green;"">","null","","","","","","","","",""
"579.2000000476837","","image-keyboard-response","272","508318","0.0-272.0","3QAPZX2QN5ZIA1KPD28W8GIQZUS02L","A19CB2C4GY4C60","3MVY4USGB69K0BK9K576GJZ2CVDSII","","","img/flower6.png","75","579.6000000238419","2","1","2","1","1,0.333,0.333,0.333,1,0.333,0.333,0.333,1","1,0.333,0.333,0.333,1,0.333,0.333,0.333,1","1",""
"null","","html-keyboard-response","273","508629","0.0-273.0","3QAPZX2QN5ZIA1KPD28W8GIQZUS02L","A19CB2C4GY4C60","3MVY4USGB69K0BK9K576GJZ2CVDSII","","","<img src=""img/flower6.png"" style=""width:200px; border:14px solid green;"">","null","","","","","","","","",""
"1355.5","","image-keyboard-response","274","509985","0.0-274.0","3QAPZX2QN5ZIA1KPD28W8GIQZUS02L","A19CB2C4GY4C60","3MVY4USGB69K0BK9K576GJZ2CVDSII","","","img/flower3.png","74","1355.8999999761581","1","1","1","1","1,0.333,0.333,0.333,1,0.333,0.333,0.333,1","1,0.333,0.333,0.333,1,0.333,0.333,0.333,1","1",""
"null","","html-keyboard-response","275","510293","0.0-275.0","3QAPZX2QN5ZIA1KPD28W8GIQZUS02L","A19CB2C4GY4C60","3MVY4USGB69K0BK9K576GJZ2CVDSII","","","<img src=""img/flower3.png"" style=""width:200px; border:14px solid green;"">","null","","","","","","","","",""
"566","","image-keyboard-response","276","510860","0.0-276.0","3QAPZX2QN5ZIA1KPD28W8GIQZUS02L","A19CB2C4GY4C60","3MVY4USGB69K0BK9K576GJZ2CVDSII","","","img/flower4.png","76","566.3000000715256","3","1","3","1","1,0.333,0.333,0.333,1,0.333,0.333,0.333,1","1,0.333,0.333,0.333,1,0.333,0.333,0.333,1","1",""
"null","","html-keyboard-response","277","511169","0.0-277.0","3QAPZX2QN5ZIA1KPD28W8GIQZUS02L","A19CB2C4GY4C60","3MVY4USGB69K0BK9K576GJZ2CVDSII","","","<img src=""img/flower4.png"" style=""width:200px; border:14px solid green;"">","null","","","","","","","","",""
"343.89999997615814","","image-keyboard-response","278","511513","0.0-278.0","3QAPZX2QN5ZIA1KPD28W8GIQZUS02L","A19CB2C4GY4C60","3MVY4USGB69K0BK9K576GJZ2CVDSII","","","img/flower4.png","76","344.2000000476837","3","1","3","1","1,0.333,0.333,0.333,1,0.333,0.333,0.333,1","1,0.333,0.333,0.333,1,0.333,0.333,0.333,1","1",""
"null","","html-keyboard-response","279","511822","0.0-279.0","3QAPZX2QN5ZIA1KPD28W8GIQZUS02L","A19CB2C4GY4C60","3MVY4USGB69K0BK9K576GJZ2CVDSII","","","<img src=""img/flower4.png"" style=""width:200px; border:14px solid green;"">","null","","","","","","","","",""
"735.8999999761581","","image-keyboard-response","280","512559","0.0-280.0","3QAPZX2QN5ZIA1KPD28W8GIQZUS02L","A19CB2C4GY4C60","3MVY4USGB69K0BK9K576GJZ2CVDSII","","","img/flower6.png","75","736.2000000476837","2","1","2","1","1,0.333,0.333,0.333,1,0.333,0.333,0.333,1","1,0.333,0.333,0.333,1,0.333,0.333,0.333,1","1",""
"null","","html-keyboard-response","281","512867","0.0-281.0","3QAPZX2QN5ZIA1KPD28W8GIQZUS02L","A19CB2C4GY4C60","3MVY4USGB69K0BK9K576GJZ2CVDSII","","","<img src=""img/flower6.png"" style=""width:200px; border:14px solid green;"">","null","","","","","","","","",""
"298.2999999523163","","image-keyboard-response","282","513166","0.0-282.0","3QAPZX2QN5ZIA1KPD28W8GIQZUS02L","A19CB2C4GY4C60","3MVY4USGB69K0BK9K576GJZ2CVDSII","","","img/flower6.png","75","298.60000002384186","2","1","2","1","1,0.333,0.333,0.333,1,0.333,0.333,0.333,1","1,0.333,0.333,0.333,1,0.333,0.333,0.333,1","1",""
"null","","html-keyboard-response","283","513477","0.0-283.0","3QAPZX2QN5ZIA1KPD28W8GIQZUS02L","A19CB2C4GY4C60","3MVY4USGB69K0BK9K576GJZ2CVDSII","","","<img src=""img/flower6.png"" style=""width:200px; border:14px solid green;"">","null","","","","","","","","",""
"859.6999999284744","","image-keyboard-response","284","514337","0.0-284.0","3QAPZX2QN5ZIA1KPD28W8GIQZUS02L","A19CB2C4GY4C60","3MVY4USGB69K0BK9K576GJZ2CVDSII","","","img/flower3.png","74","859.8999999761581","1","1","1","1","1,0.333,0.333,0.333,1,0.333,0.333,0.333,1","1,0.333,0.333,0.333,1,0.333,0.333,0.333,1","1",""
"null","","html-keyboard-response","285","514648","0.0-285.0","3QAPZX2QN5ZIA1KPD28W8GIQZUS02L","A19CB2C4GY4C60","3MVY4USGB69K0BK9K576GJZ2CVDSII","","","<img src=""img/flower3.png"" style=""width:200px; border:14px solid green;"">","null","","","","","","","","",""
"562.3999999761581","","image-keyboard-response","286","515210","0.0-286.0","3QAPZX2QN5ZIA1KPD28W8GIQZUS02L","A19CB2C4GY4C60","3MVY4USGB69K0BK9K576GJZ2CVDSII","","","img/flower4.png","76","562.8999999761581","3","1","3","1","1,0.333,0.333,0.333,1,0.333,0.333,0.333,1","1,0.333,0.333,0.333,1,0.333,0.333,0.333,1","1",""
"null","","html-keyboard-response","287","515521","0.0-287.0","3QAPZX2QN5ZIA1KPD28W8GIQZUS02L","A19CB2C4GY4C60","3MVY4USGB69K0BK9K576GJZ2CVDSII","","","<img src=""img/flower4.png"" style=""width:200px; border:14px solid green;"">","null","","","","","","","","",""
"316","","image-keyboard-response","288","515837","0.0-288.0","3QAPZX2QN5ZIA1KPD28W8GIQZUS02L","A19CB2C4GY4C60","3MVY4USGB69K0BK9K576GJZ2CVDSII","","","img/flower4.png","76","316.39999997615814","3","1","3","1","1,0.333,0.333,0.333,1,0.333,0.333,0.333,1","1,0.333,0.333,0.333,1,0.333,0.333,0.333,1","1",""
"null","","html-keyboard-response","289","516151","0.0-289.0","3QAPZX2QN5ZIA1KPD28W8GIQZUS02L","A19CB2C4GY4C60","3MVY4USGB69K0BK9K576GJZ2CVDSII","","","<img src=""img/flower4.png"" style=""width:200px; border:14px solid green;"">","null","","","","","","","","",""
"686.1999999284744","","image-keyboard-response","290","516837","0.0-290.0","3QAPZX2QN5ZIA1KPD28W8GIQZUS02L","A19CB2C4GY4C60","3MVY4USGB69K0BK9K576GJZ2CVDSII","","","img/flower6.png","75","686.5","2","1","2","1","1,0.333,0.333,0.333,1,0.333,0.333,0.333,1","1,0.333,0.333,0.333,1,0.333,0.333,0.333,1","1",""
"null","","html-keyboard-response","291","517147","0.0-291.0","3QAPZX2QN5ZIA1KPD28W8GIQZUS02L","A19CB2C4GY4C60","3MVY4USGB69K0BK9K576GJZ2CVDSII","","","<img src=""img/flower6.png"" style=""width:200px; border:14px solid green;"">","null","","","","","","","","",""
"1868.6000000238419","","image-keyboard-response","292","519016","0.0-292.0","3QAPZX2QN5ZIA1KPD28W8GIQZUS02L","A19CB2C4GY4C60","3MVY4USGB69K0BK9K576GJZ2CVDSII","","","img/flower4.png","74","1868.8000000715256","1","0","3","1","1,0.333,0.333,0.333,1,0.333,0.333,0.333,1","1,0.333,0.333,0.333,1,0.333,0.333,0.333,1","1",""
"null","","html-keyboard-response","293","519325","0.0-293.0","3QAPZX2QN5ZIA1KPD28W8GIQZUS02L","A19CB2C4GY4C60","3MVY4USGB69K0BK9K576GJZ2CVDSII","","","<img src=""img/flower4.png"" style=""width:200px;border:14px solid red;"">","null","","","","","","","","",""
"887.7000000476837","","image-keyboard-response","294","520213","0.0-294.0","3QAPZX2QN5ZIA1KPD28W8GIQZUS02L","A19CB2C4GY4C60","3MVY4USGB69K0BK9K576GJZ2CVDSII","","","img/flower3.png","74","888.1999999284744","1","1","1","1","1,0.333,0.333,0.333,1,0.333,0.333,0.333,1","1,0.333,0.333,0.333,1,0.333,0.333,0.333,1","1",""
"null","","html-keyboard-response","295","520525","0.0-295.0","3QAPZX2QN5ZIA1KPD28W8GIQZUS02L","A19CB2C4GY4C60","3MVY4USGB69K0BK9K576GJZ2CVDSII","","","<img src=""img/flower3.png"" style=""width:200px; border:14px solid green;"">","null","","","","","","","","",""
"502.7999999523163","","image-keyboard-response","296","521029","0.0-296.0","3QAPZX2QN5ZIA1KPD28W8GIQZUS02L","A19CB2C4GY4C60","3MVY4USGB69K0BK9K576GJZ2CVDSII","","","img/flower4.png","76","503.2000000476837","3","1","3","1","1,0.333,0.333,0.333,1,0.333,0.333,0.333,1","1,0.333,0.333,0.333,1,0.333,0.333,0.333,1","1",""
"null","","html-keyboard-response","297","521340","0.0-297.0","3QAPZX2QN5ZIA1KPD28W8GIQZUS02L","A19CB2C4GY4C60","3MVY4USGB69K0BK9K576GJZ2CVDSII","","","<img src=""img/flower4.png"" style=""width:200px; border:14px solid green;"">","null","","","","","","","","",""
"548","","image-keyboard-response","298","521888","0.0-298.0","3QAPZX2QN5ZIA1KPD28W8GIQZUS02L","A19CB2C4GY4C60","3MVY4USGB69K0BK9K576GJZ2CVDSII","","","img/flower6.png","75","548.2000000476837","2","1","2","1","1,0.333,0.333,0.333,1,0.333,0.333,0.333,1","1,0.333,0.333,0.333,1,0.333,0.333,0.333,1","1",""
"null","","html-keyboard-response","299","522198","0.0-299.0","3QAPZX2QN5ZIA1KPD28W8GIQZUS02L","A19CB2C4GY4C60","3MVY4USGB69K0BK9K576GJZ2CVDSII","","","<img src=""img/flower6.png"" style=""width:200px; border:14px solid green;"">","null","","","","","","","","",""
"377.7000000476837","","image-keyboard-response","300","522576","0.0-300.0","3QAPZX2QN5ZIA1KPD28W8GIQZUS02L","A19CB2C4GY4C60","3MVY4USGB69K0BK9K576GJZ2CVDSII","","","img/flower6.png","75","377.89999997615814","2","1","2","1","1,0.333,0.333,0.333,1,0.333,0.333,0.333,1","1,0.333,0.333,0.333,1,0.333,0.333,0.333,1","1",""
"null","","html-keyboard-response","301","522884","0.0-301.0","3QAPZX2QN5ZIA1KPD28W8GIQZUS02L","A19CB2C4GY4C60","3MVY4USGB69K0BK9K576GJZ2CVDSII","","","<img src=""img/flower6.png"" style=""width:200px; border:14px solid green;"">","null","","","","","","","","",""
"956.1999999284744","","image-keyboard-response","302","523840","0.0-302.0","3QAPZX2QN5ZIA1KPD28W8GIQZUS02L","A19CB2C4GY4C60","3MVY4USGB69K0BK9K576GJZ2CVDSII","","","img/flower3.png","74","956.6000000238419","1","1","1","1","1,0.333,0.333,0.333,1,0.333,0.333,0.333,1","1,0.333,0.333,0.333,1,0.333,0.333,0.333,1","1",""
"null","","html-keyboard-response","303","524150","0.0-303.0","3QAPZX2QN5ZIA1KPD28W8GIQZUS02L","A19CB2C4GY4C60","3MVY4USGB69K0BK9K576GJZ2CVDSII","","","<img src=""img/flower3.png"" style=""width:200px; border:14px solid green;"">","null","","","","","","","","",""
"454.8000000715256","","image-keyboard-response","304","524605","0.0-304.0","3QAPZX2QN5ZIA1KPD28W8GIQZUS02L","A19CB2C4GY4C60","3MVY4USGB69K0BK9K576GJZ2CVDSII","","","img/flower4.png","76","455.2000000476837","3","1","3","1","1,0.333,0.333,0.333,1,0.333,0.333,0.333,1","1,0.333,0.333,0.333,1,0.333,0.333,0.333,1","1",""
"null","","html-keyboard-response","305","524913","0.0-305.0","3QAPZX2QN5ZIA1KPD28W8GIQZUS02L","A19CB2C4GY4C60","3MVY4USGB69K0BK9K576GJZ2CVDSII","","","<img src=""img/flower4.png"" style=""width:200px; border:14px solid green;"">","null","","","","","","","","",""
"","","html-keyboard-response","306","528484","0.0-306.0","3QAPZX2QN5ZIA1KPD28W8GIQZUS02L","A19CB2C4GY4C60","3MVY4USGB69K0BK9K576GJZ2CVDSII","","","","","","","","","","","","",""
"1476.8999999761581","","image-keyboard-response","307","529961","0.0-307.0","3QAPZX2QN5ZIA1KPD28W8GIQZUS02L","A19CB2C4GY4C60","3MVY4USGB69K0BK9K576GJZ2CVDSII","","","img/flower2.png","76","1477.2000000476837","3","1","2","2","1,0,0,1,1,0,1,0,1","0,0,1,1,0,1,0,1,1","2",""
"null","","html-keyboard-response","308","530273","0.0-308.0","3QAPZX2QN5ZIA1KPD28W8GIQZUS02L","A19CB2C4GY4C60","3MVY4USGB69K0BK9K576GJZ2CVDSII","","","<img src=""img/flower2.png"" style=""width:200px; border:14px solid green;"">","null","","","","","","","","",""
"346.89999997615814","","image-keyboard-response","309","530620","0.0-309.0","3QAPZX2QN5ZIA1KPD28W8GIQZUS02L","A19CB2C4GY4C60","3MVY4USGB69K0BK9K576GJZ2CVDSII","","","img/flower2.png","76","347.2000000476837","3","1","2","2","1,0,0,1,1,0,1,0,1","0,0,1,1,0,1,0,1,1","2",""
"null","","html-keyboard-response","310","530931","0.0-310.0","3QAPZX2QN5ZIA1KPD28W8GIQZUS02L","A19CB2C4GY4C60","3MVY4USGB69K0BK9K576GJZ2CVDSII","","","<img src=""img/flower2.png"" style=""width:200px; border:14px solid green;"">","null","","","","","","","","",""
"310.10000002384186","","image-keyboard-response","311","531241","0.0-311.0","3QAPZX2QN5ZIA1KPD28W8GIQZUS02L","A19CB2C4GY4C60","3MVY4USGB69K0BK9K576GJZ2CVDSII","","","img/flower2.png","76","310.39999997615814","3","1","2","2","1,0,0,1,1,0,1,0,1","0,0,1,1,0,1,0,1,1","2",""
"null","","html-keyboard-response","312","531551","0.0-312.0","3QAPZX2QN5ZIA1KPD28W8GIQZUS02L","A19CB2C4GY4C60","3MVY4USGB69K0BK9K576GJZ2CVDSII","","","<img src=""img/flower2.png"" style=""width:200px; border:14px solid green;"">","null","","","","","","","","",""
"1125.3999999761581","","image-keyboard-response","313","532677","0.0-313.0","3QAPZX2QN5ZIA1KPD28W8GIQZUS02L","A19CB2C4GY4C60","3MVY4USGB69K0BK9K576GJZ2CVDSII","","","img/flower1.png","74","1125.6000000238419","1","0","1","2","1,0,0,1,1,0,1,0,1","0,0,1,1,0,1,0,1,1","2",""
"null","","html-keyboard-response","314","532987","0.0-314.0","3QAPZX2QN5ZIA1KPD28W8GIQZUS02L","A19CB2C4GY4C60","3MVY4USGB69K0BK9K576GJZ2CVDSII","","","<img src=""img/flower1.png"" style=""width:200px;border:14px solid red;"">","null","","","","","","","","",""
"407.1999999284744","","image-keyboard-response","315","533395","0.0-315.0","3QAPZX2QN5ZIA1KPD28W8GIQZUS02L","A19CB2C4GY4C60","3MVY4USGB69K0BK9K576GJZ2CVDSII","","","img/flower1.png","74","407.5","1","0","1","2","1,0,0,1,1,0,1,0,1","0,0,1,1,0,1,0,1,1","2",""
"null","","html-keyboard-response","316","533707","0.0-316.0","3QAPZX2QN5ZIA1KPD28W8GIQZUS02L","A19CB2C4GY4C60","3MVY4USGB69K0BK9K576GJZ2CVDSII","","","<img src=""img/flower1.png"" style=""width:200px;border:14px solid red;"">","null","","","","","","","","",""
"299.89999997615814","","image-keyboard-response","317","534007","0.0-317.0","3QAPZX2QN5ZIA1KPD28W8GIQZUS02L","A19CB2C4GY4C60","3MVY4USGB69K0BK9K576GJZ2CVDSII","","","img/flower1.png","75","300.2000000476837","2","0","1","2","1,0,0,1,1,0,1,0,1","0,0,1,1,0,1,0,1,1","2",""
"null","","html-keyboard-response","318","534317","0.0-318.0","3QAPZX2QN5ZIA1KPD28W8GIQZUS02L","A19CB2C4GY4C60","3MVY4USGB69K0BK9K576GJZ2CVDSII","","","<img src=""img/flower1.png"" style=""width:200px;border:14px solid red;"">","null","","","","","","","","",""
"1421.7999999523163","","image-keyboard-response","319","535739","0.0-319.0","3QAPZX2QN5ZIA1KPD28W8GIQZUS02L","A19CB2C4GY4C60","3MVY4USGB69K0BK9K576GJZ2CVDSII","","","img/flower5.png","74","1422.1000000238419","1","0","3","2","1,0,0,1,1,0,1,0,1","0,0,1,1,0,1,0,1,1","2",""
"null","","html-keyboard-response","320","536047","0.0-320.0","3QAPZX2QN5ZIA1KPD28W8GIQZUS02L","A19CB2C4GY4C60","3MVY4USGB69K0BK9K576GJZ2CVDSII","","","<img src=""img/flower5.png"" style=""width:200px;border:14px solid red;"">","null","","","","","","","","",""
"299.7999999523163","","image-keyboard-response","321","536347","0.0-321.0","3QAPZX2QN5ZIA1KPD28W8GIQZUS02L","A19CB2C4GY4C60","3MVY4USGB69K0BK9K576GJZ2CVDSII","","","img/flower5.png","75","300.2000000476837","2","1","3","2","1,0,0,1,1,0,1,0,1","0,0,1,1,0,1,0,1,1","2",""
"null","","html-keyboard-response","322","536658","0.0-322.0","3QAPZX2QN5ZIA1KPD28W8GIQZUS02L","A19CB2C4GY4C60","3MVY4USGB69K0BK9K576GJZ2CVDSII","","","<img src=""img/flower5.png"" style=""width:200px; border:14px solid green;"">","null","","","","","","","","",""
"1300.1999999284744","","image-keyboard-response","323","537958","0.0-323.0","3QAPZX2QN5ZIA1KPD28W8GIQZUS02L","A19CB2C4GY4C60","3MVY4USGB69K0BK9K576GJZ2CVDSII","","","img/flower1.png","75","1300.5","2","0","1","2","1,0,0,1,1,0,1,0,1","0,0,1,1,0,1,0,1,1","2",""
"null","","html-keyboard-response","324","538268","0.0-324.0","3QAPZX2QN5ZIA1KPD28W8GIQZUS02L","A19CB2C4GY4C60","3MVY4USGB69K0BK9K576GJZ2CVDSII","","","<img src=""img/flower1.png"" style=""width:200px;border:14px solid red;"">","null","","","","","","","","",""
"1357.7999999523163","","image-keyboard-response","325","539626","0.0-325.0","3QAPZX2QN5ZIA1KPD28W8GIQZUS02L","A19CB2C4GY4C60","3MVY4USGB69K0BK9K576GJZ2CVDSII","","","img/flower2.png","76","1358.1000000238419","3","1","2","2","1,0,0,1,1,0,1,0,1","0,0,1,1,0,1,0,1,1","2",""
"null","","html-keyboard-response","326","539935","0.0-326.0","3QAPZX2QN5ZIA1KPD28W8GIQZUS02L","A19CB2C4GY4C60","3MVY4USGB69K0BK9K576GJZ2CVDSII","","","<img src=""img/flower2.png"" style=""width:200px; border:14px solid green;"">","null","","","","","","","","",""
"269.1999999284744","","image-keyboard-response","327","540204","0.0-327.0","3QAPZX2QN5ZIA1KPD28W8GIQZUS02L","A19CB2C4GY4C60","3MVY4USGB69K0BK9K576GJZ2CVDSII","","","img/flower2.png","76","269.39999997615814","3","1","2","2","1,0,0,1,1,0,1,0,1","0,0,1,1,0,1,0,1,1","2",""
"null","","html-keyboard-response","328","540512","0.0-328.0","3QAPZX2QN5ZIA1KPD28W8GIQZUS02L","A19CB2C4GY4C60","3MVY4USGB69K0BK9K576GJZ2CVDSII","","","<img src=""img/flower2.png"" style=""width:200px; border:14px solid green;"">","null","","","","","","","","",""
"1077.8999999761581","","image-keyboard-response","329","541590","0.0-329.0","3QAPZX2QN5ZIA1KPD28W8GIQZUS02L","A19CB2C4GY4C60","3MVY4USGB69K0BK9K576GJZ2CVDSII","","","img/flower1.png","75","1078.2000000476837","2","0","1","2","1,0,0,1,1,0,1,0,1","0,0,1,1,0,1,0,1,1","2",""
"null","","html-keyboard-response","330","541899","0.0-330.0","3QAPZX2QN5ZIA1KPD28W8GIQZUS02L","A19CB2C4GY4C60","3MVY4USGB69K0BK9K576GJZ2CVDSII","","","<img src=""img/flower1.png"" style=""width:200px;border:14px solid red;"">","null","","","","","","","","",""
"1038.0999999046326","","image-keyboard-response","331","542937","0.0-331.0","3QAPZX2QN5ZIA1KPD28W8GIQZUS02L","A19CB2C4GY4C60","3MVY4USGB69K0BK9K576GJZ2CVDSII","","","img/flower5.png","75","1038.3999999761581","2","1","3","2","1,0,0,1,1,0,1,0,1","0,0,1,1,0,1,0,1,1","2",""
"null","","html-keyboard-response","332","543246","0.0-332.0","3QAPZX2QN5ZIA1KPD28W8GIQZUS02L","A19CB2C4GY4C60","3MVY4USGB69K0BK9K576GJZ2CVDSII","","","<img src=""img/flower5.png"" style=""width:200px; border:14px solid green;"">","null","","","","","","","","",""
"235.89999997615814","","image-keyboard-response","333","543482","0.0-333.0","3QAPZX2QN5ZIA1KPD28W8GIQZUS02L","A19CB2C4GY4C60","3MVY4USGB69K0BK9K576GJZ2CVDSII","","","img/flower5.png","75","236.20000004768372","2","1","3","2","1,0,0,1,1,0,1,0,1","0,0,1,1,0,1,0,1,1","2",""
"null","","html-keyboard-response","334","543792","0.0-334.0","3QAPZX2QN5ZIA1KPD28W8GIQZUS02L","A19CB2C4GY4C60","3MVY4USGB69K0BK9K576GJZ2CVDSII","","","<img src=""img/flower5.png"" style=""width:200px; border:14px solid green;"">","null","","","","","","","","",""
"252.30000007152557","","image-keyboard-response","335","544044","0.0-335.0","3QAPZX2QN5ZIA1KPD28W8GIQZUS02L","A19CB2C4GY4C60","3MVY4USGB69K0BK9K576GJZ2CVDSII","","","img/flower5.png","75","252.70000004768372","2","1","3","2","1,0,0,1,1,0,1,0,1","0,0,1,1,0,1,0,1,1","2",""
"null","","html-keyboard-response","336","544354","0.0-336.0","3QAPZX2QN5ZIA1KPD28W8GIQZUS02L","A19CB2C4GY4C60","3MVY4USGB69K0BK9K576GJZ2CVDSII","","","<img src=""img/flower5.png"" style=""width:200px; border:14px solid green;"">","null","","","","","","","","",""
"903.8000000715256","","image-keyboard-response","337","545258","0.0-337.0","3QAPZX2QN5ZIA1KPD28W8GIQZUS02L","A19CB2C4GY4C60","3MVY4USGB69K0BK9K576GJZ2CVDSII","","","img/flower1.png","76","904.2000000476837","3","1","1","2","1,0,0,1,1,0,1,0,1","0,0,1,1,0,1,0,1,1","2",""
"null","","html-keyboard-response","338","545573","0.0-338.0","3QAPZX2QN5ZIA1KPD28W8GIQZUS02L","A19CB2C4GY4C60","3MVY4USGB69K0BK9K576GJZ2CVDSII","","","<img src=""img/flower1.png"" style=""width:200px; border:14px solid green;"">","null","","","","","","","","",""
"770","","image-keyboard-response","339","546343","0.0-339.0","3QAPZX2QN5ZIA1KPD28W8GIQZUS02L","A19CB2C4GY4C60","3MVY4USGB69K0BK9K576GJZ2CVDSII","","","img/flower5.png","75","770.2000000476837","2","1","3","2","1,0,0,1,1,0,1,0,1","0,0,1,1,0,1,0,1,1","2",""
"null","","html-keyboard-response","340","546652","0.0-340.0","3QAPZX2QN5ZIA1KPD28W8GIQZUS02L","A19CB2C4GY4C60","3MVY4USGB69K0BK9K576GJZ2CVDSII","","","<img src=""img/flower5.png"" style=""width:200px; border:14px solid green;"">","null","","","","","","","","",""
"954.1999999284744","","image-keyboard-response","341","547606","0.0-341.0","3QAPZX2QN5ZIA1KPD28W8GIQZUS02L","A19CB2C4GY4C60","3MVY4USGB69K0BK9K576GJZ2CVDSII","","","img/flower2.png","76","954.5","3","1","2","2","1,0,0,1,1,0,1,0,1","0,0,1,1,0,1,0,1,1","2",""
"null","","html-keyboard-response","342","547917","0.0-342.0","3QAPZX2QN5ZIA1KPD28W8GIQZUS02L","A19CB2C4GY4C60","3MVY4USGB69K0BK9K576GJZ2CVDSII","","","<img src=""img/flower2.png"" style=""width:200px; border:14px solid green;"">","null","","","","","","","","",""
"831.2999999523163","","image-keyboard-response","343","548748","0.0-343.0","3QAPZX2QN5ZIA1KPD28W8GIQZUS02L","A19CB2C4GY4C60","3MVY4USGB69K0BK9K576GJZ2CVDSII","","","img/flower5.png","75","831.5","2","1","3","2","1,0,0,1,1,0,1,0,1","0,0,1,1,0,1,0,1,1","2",""
"null","","html-keyboard-response","344","549057","0.0-344.0","3QAPZX2QN5ZIA1KPD28W8GIQZUS02L","A19CB2C4GY4C60","3MVY4USGB69K0BK9K576GJZ2CVDSII","","","<img src=""img/flower5.png"" style=""width:200px; border:14px solid green;"">","null","","","","","","","","",""
"297.8000000715256","","image-keyboard-response","345","549355","0.0-345.0","3QAPZX2QN5ZIA1KPD28W8GIQZUS02L","A19CB2C4GY4C60","3MVY4USGB69K0BK9K576GJZ2CVDSII","","","img/flower5.png","75","298.10000002384186","2","1","3","2","1,0,0,1,1,0,1,0,1","0,0,1,1,0,1,0,1,1","2",""
"null","","html-keyboard-response","346","549667","0.0-346.0","3QAPZX2QN5ZIA1KPD28W8GIQZUS02L","A19CB2C4GY4C60","3MVY4USGB69K0BK9K576GJZ2CVDSII","","","<img src=""img/flower5.png"" style=""width:200px; border:14px solid green;"">","null","","","","","","","","",""
"841.8999999761581","","image-keyboard-response","347","550509","0.0-347.0","3QAPZX2QN5ZIA1KPD28W8GIQZUS02L","A19CB2C4GY4C60","3MVY4USGB69K0BK9K576GJZ2CVDSII","","","img/flower1.png","76","842.1999999284744","3","1","1","2","1,0,0,1,1,0,1,0,1","0,0,1,1,0,1,0,1,1","2",""
"null","","html-keyboard-response","348","550822","0.0-348.0","3QAPZX2QN5ZIA1KPD28W8GIQZUS02L","A19CB2C4GY4C60","3MVY4USGB69K0BK9K576GJZ2CVDSII","","","<img src=""img/flower1.png"" style=""width:200px; border:14px solid green;"">","null","","","","","","","","",""
"668.7000000476837","","image-keyboard-response","349","551491","0.0-349.0","3QAPZX2QN5ZIA1KPD28W8GIQZUS02L","A19CB2C4GY4C60","3MVY4USGB69K0BK9K576GJZ2CVDSII","","","img/flower5.png","75","669","2","1","3","2","1,0,0,1,1,0,1,0,1","0,0,1,1,0,1,0,1,1","2",""
"null","","html-keyboard-response","350","551802","0.0-350.0","3QAPZX2QN5ZIA1KPD28W8GIQZUS02L","A19CB2C4GY4C60","3MVY4USGB69K0BK9K576GJZ2CVDSII","","","<img src=""img/flower5.png"" style=""width:200px; border:14px solid green;"">","null","","","","","","","","",""
"719.7000000476837","","image-keyboard-response","351","552522","0.0-351.0","3QAPZX2QN5ZIA1KPD28W8GIQZUS02L","A19CB2C4GY4C60","3MVY4USGB69K0BK9K576GJZ2CVDSII","","","img/flower1.png","75","720","2","0","1","2","1,0,0,1,1,0,1,0,1","0,0,1,1,0,1,0,1,1","2",""
"null","","html-keyboard-response","352","552831","0.0-352.0","3QAPZX2QN5ZIA1KPD28W8GIQZUS02L","A19CB2C4GY4C60","3MVY4USGB69K0BK9K576GJZ2CVDSII","","","<img src=""img/flower1.png"" style=""width:200px;border:14px solid red;"">","null","","","","","","","","",""
"685.3999999761581","","image-keyboard-response","353","553517","0.0-353.0","3QAPZX2QN5ZIA1KPD28W8GIQZUS02L","A19CB2C4GY4C60","3MVY4USGB69K0BK9K576GJZ2CVDSII","","","img/flower5.png","75","685.8000000715256","2","1","3","2","1,0,0,1,1,0,1,0,1","0,0,1,1,0,1,0,1,1","2",""
"null","","html-keyboard-response","354","553828","0.0-354.0","3QAPZX2QN5ZIA1KPD28W8GIQZUS02L","A19CB2C4GY4C60","3MVY4USGB69K0BK9K576GJZ2CVDSII","","","<img src=""img/flower5.png"" style=""width:200px; border:14px solid green;"">","null","","","","","","","","",""
"314.60000002384186","","image-keyboard-response","355","554143","0.0-355.0","3QAPZX2QN5ZIA1KPD28W8GIQZUS02L","A19CB2C4GY4C60","3MVY4USGB69K0BK9K576GJZ2CVDSII","","","img/flower5.png","75","314.89999997615814","2","1","3","2","1,0,0,1,1,0,1,0,1","0,0,1,1,0,1,0,1,1","2",""
"null","","html-keyboard-response","356","554454","0.0-356.0","3QAPZX2QN5ZIA1KPD28W8GIQZUS02L","A19CB2C4GY4C60","3MVY4USGB69K0BK9K576GJZ2CVDSII","","","<img src=""img/flower5.png"" style=""width:200px; border:14px solid green;"">","null","","","","","","","","",""
"409.2000000476837","","image-keyboard-response","357","554863","0.0-357.0","3QAPZX2QN5ZIA1KPD28W8GIQZUS02L","A19CB2C4GY4C60","3MVY4USGB69K0BK9K576GJZ2CVDSII","","","img/flower1.png","76","409.2999999523163","3","1","1","2","1,0,0,1,1,0,1,0,1","0,0,1,1,0,1,0,1,1","2",""
"null","","html-keyboard-response","358","555174","0.0-358.0","3QAPZX2QN5ZIA1KPD28W8GIQZUS02L","A19CB2C4GY4C60","3MVY4USGB69K0BK9K576GJZ2CVDSII","","","<img src=""img/flower1.png"" style=""width:200px; border:14px solid green;"">","null","","","","","","","","",""
"565.6000000238419","","image-keyboard-response","359","555740","0.0-359.0","3QAPZX2QN5ZIA1KPD28W8GIQZUS02L","A19CB2C4GY4C60","3MVY4USGB69K0BK9K576GJZ2CVDSII","","","img/flower5.png","75","565.8999999761581","2","1","3","2","1,0,0,1,1,0,1,0,1","0,0,1,1,0,1,0,1,1","2",""
"null","","html-keyboard-response","360","556052","0.0-360.0","3QAPZX2QN5ZIA1KPD28W8GIQZUS02L","A19CB2C4GY4C60","3MVY4USGB69K0BK9K576GJZ2CVDSII","","","<img src=""img/flower5.png"" style=""width:200px; border:14px solid green;"">","null","","","","","","","","",""
"281.7000000476837","","image-keyboard-response","361","556334","0.0-361.0","3QAPZX2QN5ZIA1KPD28W8GIQZUS02L","A19CB2C4GY4C60","3MVY4USGB69K0BK9K576GJZ2CVDSII","","","img/flower5.png","75","282.1999999284744","2","1","3","2","1,0,0,1,1,0,1,0,1","0,0,1,1,0,1,0,1,1","2",""
"null","","html-keyboard-response","362","556646","0.0-362.0","3QAPZX2QN5ZIA1KPD28W8GIQZUS02L","A19CB2C4GY4C60","3MVY4USGB69K0BK9K576GJZ2CVDSII","","","<img src=""img/flower5.png"" style=""width:200px; border:14px solid green;"">","null","","","","","","","","",""
"519.1999999284744","","image-keyboard-response","363","557166","0.0-363.0","3QAPZX2QN5ZIA1KPD28W8GIQZUS02L","A19CB2C4GY4C60","3MVY4USGB69K0BK9K576GJZ2CVDSII","","","img/flower2.png","76","519.5","3","1","2","2","1,0,0,1,1,0,1,0,1","0,0,1,1,0,1,0,1,1","2",""
"null","","html-keyboard-response","364","557475","0.0-364.0","3QAPZX2QN5ZIA1KPD28W8GIQZUS02L","A19CB2C4GY4C60","3MVY4USGB69K0BK9K576GJZ2CVDSII","","","<img src=""img/flower2.png"" style=""width:200px; border:14px solid green;"">","null","","","","","","","","",""
"516.8000000715256","","image-keyboard-response","365","557992","0.0-365.0","3QAPZX2QN5ZIA1KPD28W8GIQZUS02L","A19CB2C4GY4C60","3MVY4USGB69K0BK9K576GJZ2CVDSII","","","img/flower5.png","75","517.1000000238419","2","1","3","2","1,0,0,1,1,0,1,0,1","0,0,1,1,0,1,0,1,1","2",""
"null","","html-keyboard-response","366","558302","0.0-366.0","3QAPZX2QN5ZIA1KPD28W8GIQZUS02L","A19CB2C4GY4C60","3MVY4USGB69K0BK9K576GJZ2CVDSII","","","<img src=""img/flower5.png"" style=""width:200px; border:14px solid green;"">","null","","","","","","","","",""
