"success","trial_type","trial_index","time_elapsed","internal_node_id","assignmentID","mturkID","hitID","view_history","rt","stimulus","key_press","reactionTime","a","r","s","cond","reward_cond","reward_cond_actual","reward_matrix_idx","responses"
"true","fullscreen","0","211510","0.0-0.0","351SEKWQS132GPPCZWFB2WG7ZWTDM9","A19NGUFGC7KIGW","3VAOOVPI3ZEZMZXPLZ7IWDDZ15LLLX","","","","","","","","","","","","",""
"","instructions","1","238162","0.0-1.0","351SEKWQS132GPPCZWFB2WG7ZWTDM9","A19NGUFGC7KIGW","3VAOOVPI3ZEZMZXPLZ7IWDDZ15LLLX","[{""page_index"":0,""viewing_time"":3980},{""page_index"":1,""viewing_time"":2027},{""page_index"":2,""viewing_time"":2050},{""page_index"":1,""viewing_time"":824},{""page_index"":2,""viewing_time"":608},{""page_index"":3,""viewing_time"":2555},{""page_index"":4,""viewing_time"":2255},{""page_index"":5,""viewing_time"":3111},{""page_index"":6,""viewing_time"":6551},{""page_index"":7,""viewing_time"":2690}]","26651","","","","","","","","","","",""
"","image-keyboard-response","2","238912","0.0-2.0","351SEKWQS132GPPCZWFB2WG7ZWTDM9","A19NGUFGC7KIGW","3VAOOVPI3ZEZMZXPLZ7IWDDZ15LLLX","","748","img/flower4.png","74","750","1","1","2","2","1,0,0,1,1,0,1,0,1","1,0,0,1,1,0,1,0,1","1",""
"","html-keyboard-response","3","239225","0.0-3.0","351SEKWQS132GPPCZWFB2WG7ZWTDM9","A19NGUFGC7KIGW","3VAOOVPI3ZEZMZXPLZ7IWDDZ15LLLX","","null","<img src=""img/flower4.png"" style=""width:200px; border:14px solid green;"">","null","","","","","","","","",""
"","image-keyboard-response","4","239639","0.0-4.0","351SEKWQS132GPPCZWFB2WG7ZWTDM9","A19NGUFGC7KIGW","3VAOOVPI3ZEZMZXPLZ7IWDDZ15LLLX","","413","img/flower4.png","74","414","1","1","2","2","1,0,0,1,1,0,1,0,1","1,0,0,1,1,0,1,0,1","1",""
"","html-keyboard-response","5","239954","0.0-5.0","351SEKWQS132GPPCZWFB2WG7ZWTDM9","A19NGUFGC7KIGW","3VAOOVPI3ZEZMZXPLZ7IWDDZ15LLLX","","null","<img src=""img/flower4.png"" style=""width:200px; border:14px solid green;"">","null","","","","","","","","",""
"","image-keyboard-response","6","240201","0.0-6.0","351SEKWQS132GPPCZWFB2WG7ZWTDM9","A19NGUFGC7KIGW","3VAOOVPI3ZEZMZXPLZ7IWDDZ15LLLX","","246","img/flower4.png","74","246","1","1","2","2","1,0,0,1,1,0,1,0,1","1,0,0,1,1,0,1,0,1","1",""
"","html-keyboard-response","7","240508","0.0-7.0","351SEKWQS132GPPCZWFB2WG7ZWTDM9","A19NGUFGC7KIGW","3VAOOVPI3ZEZMZXPLZ7IWDDZ15LLLX","","null","<img src=""img/flower4.png"" style=""width:200px; border:14px solid green;"">","null","","","","","","","","",""
"","image-keyboard-response","8","240673","0.0-8.0","351SEKWQS132GPPCZWFB2WG7ZWTDM9","A19NGUFGC7KIGW","3VAOOVPI3ZEZMZXPLZ7IWDDZ15LLLX","","163","img/flower1.png","74","163","1","1","1","2","1,0,0,1,1,0,1,0,1","1,0,0,1,1,0,1,0,1","1",""
"","html-keyboard-response","9","240985","0.0-9.0","351SEKWQS132GPPCZWFB2WG7ZWTDM9","A19NGUFGC7KIGW","3VAOOVPI3ZEZMZXPLZ7IWDDZ15LLLX","","null","<img src=""img/flower1.png"" style=""width:200px; border:14px solid green;"">","null","","","","","","","","",""
"","image-keyboard-response","10","241472","0.0-10.0","351SEKWQS132GPPCZWFB2WG7ZWTDM9","A19NGUFGC7KIGW","3VAOOVPI3ZEZMZXPLZ7IWDDZ15LLLX","","487","img/flower3.png","74","487","1","1","3","2","1,0,0,1,1,0,1,0,1","1,0,0,1,1,0,1,0,1","1",""
"","html-keyboard-response","11","241782","0.0-11.0","351SEKWQS132GPPCZWFB2WG7ZWTDM9","A19NGUFGC7KIGW","3VAOOVPI3ZEZMZXPLZ7IWDDZ15LLLX","","null","<img src=""img/flower3.png"" style=""width:200px; border:14px solid green;"">","null","","","","","","","","",""
"","image-keyboard-response","12","242224","0.0-12.0","351SEKWQS132GPPCZWFB2WG7ZWTDM9","A19NGUFGC7KIGW","3VAOOVPI3ZEZMZXPLZ7IWDDZ15LLLX","","442","img/flower3.png","74","442","1","1","3","2","1,0,0,1,1,0,1,0,1","1,0,0,1,1,0,1,0,1","1",""
"","html-keyboard-response","13","242528","0.0-13.0","351SEKWQS132GPPCZWFB2WG7ZWTDM9","A19NGUFGC7KIGW","3VAOOVPI3ZEZMZXPLZ7IWDDZ15LLLX","","null","<img src=""img/flower3.png"" style=""width:200px; border:14px solid green;"">","null","","","","","","","","",""
"","image-keyboard-response","14","242832","0.0-14.0","351SEKWQS132GPPCZWFB2WG7ZWTDM9","A19NGUFGC7KIGW","3VAOOVPI3ZEZMZXPLZ7IWDDZ15LLLX","","302","img/flower3.png","74","303","1","1","3","2","1,0,0,1,1,0,1,0,1","1,0,0,1,1,0,1,0,1","1",""
"","html-keyboard-response","15","243143","0.0-15.0","351SEKWQS132GPPCZWFB2WG7ZWTDM9","A19NGUFGC7KIGW","3VAOOVPI3ZEZMZXPLZ7IWDDZ15LLLX","","null","<img src=""img/flower3.png"" style=""width:200px; border:14px solid green;"">","null","","","","","","","","",""
"","image-keyboard-response","16","243408","0.0-16.0","351SEKWQS132GPPCZWFB2WG7ZWTDM9","A19NGUFGC7KIGW","3VAOOVPI3ZEZMZXPLZ7IWDDZ15LLLX","","264","img/flower1.png","74","265","1","1","1","2","1,0,0,1,1,0,1,0,1","1,0,0,1,1,0,1,0,1","1",""
"","html-keyboard-response","17","243716","0.0-17.0","351SEKWQS132GPPCZWFB2WG7ZWTDM9","A19NGUFGC7KIGW","3VAOOVPI3ZEZMZXPLZ7IWDDZ15LLLX","","null","<img src=""img/flower1.png"" style=""width:200px; border:14px solid green;"">","null","","","","","","","","",""
"","image-keyboard-response","18","243936","0.0-18.0","351SEKWQS132GPPCZWFB2WG7ZWTDM9","A19NGUFGC7KIGW","3VAOOVPI3ZEZMZXPLZ7IWDDZ15LLLX","","219","img/flower3.png","74","221","1","1","3","2","1,0,0,1,1,0,1,0,1","1,0,0,1,1,0,1,0,1","1",""
"","html-keyboard-response","19","244252","0.0-19.0","351SEKWQS132GPPCZWFB2WG7ZWTDM9","A19NGUFGC7KIGW","3VAOOVPI3ZEZMZXPLZ7IWDDZ15LLLX","","null","<img src=""img/flower3.png"" style=""width:200px; border:14px solid green;"">","null","","","","","","","","",""
"","image-keyboard-response","20","244480","0.0-20.0","351SEKWQS132GPPCZWFB2WG7ZWTDM9","A19NGUFGC7KIGW","3VAOOVPI3ZEZMZXPLZ7IWDDZ15LLLX","","228","img/flower1.png","74","228","1","1","1","2","1,0,0,1,1,0,1,0,1","1,0,0,1,1,0,1,0,1","1",""
"","html-keyboard-response","21","244794","0.0-21.0","351SEKWQS132GPPCZWFB2WG7ZWTDM9","A19NGUFGC7KIGW","3VAOOVPI3ZEZMZXPLZ7IWDDZ15LLLX","","null","<img src=""img/flower1.png"" style=""width:200px; border:14px solid green;"">","null","","","","","","","","",""
"","image-keyboard-response","22","244987","0.0-22.0","351SEKWQS132GPPCZWFB2WG7ZWTDM9","A19NGUFGC7KIGW","3VAOOVPI3ZEZMZXPLZ7IWDDZ15LLLX","","192","img/flower1.png","74","192","1","1","1","2","1,0,0,1,1,0,1,0,1","1,0,0,1,1,0,1,0,1","1",""
"","html-keyboard-response","23","245295","0.0-23.0","351SEKWQS132GPPCZWFB2WG7ZWTDM9","A19NGUFGC7KIGW","3VAOOVPI3ZEZMZXPLZ7IWDDZ15LLLX","","null","<img src=""img/flower1.png"" style=""width:200px; border:14px solid green;"">","null","","","","","","","","",""
"","image-keyboard-response","24","245447","0.0-24.0","351SEKWQS132GPPCZWFB2WG7ZWTDM9","A19NGUFGC7KIGW","3VAOOVPI3ZEZMZXPLZ7IWDDZ15LLLX","","151","img/flower1.png","74","151","1","1","1","2","1,0,0,1,1,0,1,0,1","1,0,0,1,1,0,1,0,1","1",""
"","html-keyboard-response","25","245750","0.0-25.0","351SEKWQS132GPPCZWFB2WG7ZWTDM9","A19NGUFGC7KIGW","3VAOOVPI3ZEZMZXPLZ7IWDDZ15LLLX","","null","<img src=""img/flower1.png"" style=""width:200px; border:14px solid green;"">","null","","","","","","","","",""
"","image-keyboard-response","26","245928","0.0-26.0","351SEKWQS132GPPCZWFB2WG7ZWTDM9","A19NGUFGC7KIGW","3VAOOVPI3ZEZMZXPLZ7IWDDZ15LLLX","","178","img/flower4.png","74","178","1","1","2","2","1,0,0,1,1,0,1,0,1","1,0,0,1,1,0,1,0,1","1",""
"","html-keyboard-response","27","246244","0.0-27.0","351SEKWQS132GPPCZWFB2WG7ZWTDM9","A19NGUFGC7KIGW","3VAOOVPI3ZEZMZXPLZ7IWDDZ15LLLX","","null","<img src=""img/flower4.png"" style=""width:200px; border:14px solid green;"">","null","","","","","","","","",""
"","image-keyboard-response","28","246383","0.0-28.0","351SEKWQS132GPPCZWFB2WG7ZWTDM9","A19NGUFGC7KIGW","3VAOOVPI3ZEZMZXPLZ7IWDDZ15LLLX","","138","img/flower4.png","74","139","1","1","2","2","1,0,0,1,1,0,1,0,1","1,0,0,1,1,0,1,0,1","1",""
"","html-keyboard-response","29","246686","0.0-29.0","351SEKWQS132GPPCZWFB2WG7ZWTDM9","A19NGUFGC7KIGW","3VAOOVPI3ZEZMZXPLZ7IWDDZ15LLLX","","null","<img src=""img/flower4.png"" style=""width:200px; border:14px solid green;"">","null","","","","","","","","",""
"","image-keyboard-response","30","246822","0.0-30.0","351SEKWQS132GPPCZWFB2WG7ZWTDM9","A19NGUFGC7KIGW","3VAOOVPI3ZEZMZXPLZ7IWDDZ15LLLX","","136","img/flower3.png","74","137","1","1","3","2","1,0,0,1,1,0,1,0,1","1,0,0,1,1,0,1,0,1","1",""
"","html-keyboard-response","31","247125","0.0-31.0","351SEKWQS132GPPCZWFB2WG7ZWTDM9","A19NGUFGC7KIGW","3VAOOVPI3ZEZMZXPLZ7IWDDZ15LLLX","","null","<img src=""img/flower3.png"" style=""width:200px; border:14px solid green;"">","null","","","","","","","","",""
"","image-keyboard-response","32","247289","0.0-32.0","351SEKWQS132GPPCZWFB2WG7ZWTDM9","A19NGUFGC7KIGW","3VAOOVPI3ZEZMZXPLZ7IWDDZ15LLLX","","163","img/flower3.png","74","163","1","1","3","2","1,0,0,1,1,0,1,0,1","1,0,0,1,1,0,1,0,1","1",""
"","html-keyboard-response","33","247593","0.0-33.0","351SEKWQS132GPPCZWFB2WG7ZWTDM9","A19NGUFGC7KIGW","3VAOOVPI3ZEZMZXPLZ7IWDDZ15LLLX","","null","<img src=""img/flower3.png"" style=""width:200px; border:14px solid green;"">","null","","","","","","","","",""
"","image-keyboard-response","34","247768","0.0-34.0","351SEKWQS132GPPCZWFB2WG7ZWTDM9","A19NGUFGC7KIGW","3VAOOVPI3ZEZMZXPLZ7IWDDZ15LLLX","","175","img/flower3.png","74","175","1","1","3","2","1,0,0,1,1,0,1,0,1","1,0,0,1,1,0,1,0,1","1",""
"","html-keyboard-response","35","248080","0.0-35.0","351SEKWQS132GPPCZWFB2WG7ZWTDM9","A19NGUFGC7KIGW","3VAOOVPI3ZEZMZXPLZ7IWDDZ15LLLX","","null","<img src=""img/flower3.png"" style=""width:200px; border:14px solid green;"">","null","","","","","","","","",""
"","image-keyboard-response","36","248176","0.0-36.0","351SEKWQS132GPPCZWFB2WG7ZWTDM9","A19NGUFGC7KIGW","3VAOOVPI3ZEZMZXPLZ7IWDDZ15LLLX","","95","img/flower4.png","74","95","1","1","2","2","1,0,0,1,1,0,1,0,1","1,0,0,1,1,0,1,0,1","1",""
"","html-keyboard-response","37","248489","0.0-37.0","351SEKWQS132GPPCZWFB2WG7ZWTDM9","A19NGUFGC7KIGW","3VAOOVPI3ZEZMZXPLZ7IWDDZ15LLLX","","null","<img src=""img/flower4.png"" style=""width:200px; border:14px solid green;"">","null","","","","","","","","",""
"","image-keyboard-response","38","248655","0.0-38.0","351SEKWQS132GPPCZWFB2WG7ZWTDM9","A19NGUFGC7KIGW","3VAOOVPI3ZEZMZXPLZ7IWDDZ15LLLX","","166","img/flower4.png","74","167","1","1","2","2","1,0,0,1,1,0,1,0,1","1,0,0,1,1,0,1,0,1","1",""
"","html-keyboard-response","39","248960","0.0-39.0","351SEKWQS132GPPCZWFB2WG7ZWTDM9","A19NGUFGC7KIGW","3VAOOVPI3ZEZMZXPLZ7IWDDZ15LLLX","","null","<img src=""img/flower4.png"" style=""width:200px; border:14px solid green;"">","null","","","","","","","","",""
"","image-keyboard-response","40","249096","0.0-40.0","351SEKWQS132GPPCZWFB2WG7ZWTDM9","A19NGUFGC7KIGW","3VAOOVPI3ZEZMZXPLZ7IWDDZ15LLLX","","135","img/flower4.png","74","135","1","1","2","2","1,0,0,1,1,0,1,0,1","1,0,0,1,1,0,1,0,1","1",""
"","html-keyboard-response","41","249401","0.0-41.0","351SEKWQS132GPPCZWFB2WG7ZWTDM9","A19NGUFGC7KIGW","3VAOOVPI3ZEZMZXPLZ7IWDDZ15LLLX","","null","<img src=""img/flower4.png"" style=""width:200px; border:14px solid green;"">","null","","","","","","","","",""
"","image-keyboard-response","42","249552","0.0-42.0","351SEKWQS132GPPCZWFB2WG7ZWTDM9","A19NGUFGC7KIGW","3VAOOVPI3ZEZMZXPLZ7IWDDZ15LLLX","","151","img/flower3.png","74","151","1","1","3","2","1,0,0,1,1,0,1,0,1","1,0,0,1,1,0,1,0,1","1",""
"","html-keyboard-response","43","249859","0.0-43.0","351SEKWQS132GPPCZWFB2WG7ZWTDM9","A19NGUFGC7KIGW","3VAOOVPI3ZEZMZXPLZ7IWDDZ15LLLX","","null","<img src=""img/flower3.png"" style=""width:200px; border:14px solid green;"">","null","","","","","","","","",""
"","image-keyboard-response","44","250038","0.0-44.0","351SEKWQS132GPPCZWFB2WG7ZWTDM9","A19NGUFGC7KIGW","3VAOOVPI3ZEZMZXPLZ7IWDDZ15LLLX","","179","img/flower1.png","74","180","1","1","1","2","1,0,0,1,1,0,1,0,1","1,0,0,1,1,0,1,0,1","1",""
"","html-keyboard-response","45","250344","0.0-45.0","351SEKWQS132GPPCZWFB2WG7ZWTDM9","A19NGUFGC7KIGW","3VAOOVPI3ZEZMZXPLZ7IWDDZ15LLLX","","null","<img src=""img/flower1.png"" style=""width:200px; border:14px solid green;"">","null","","","","","","","","",""
"","image-keyboard-response","46","250526","0.0-46.0","351SEKWQS132GPPCZWFB2WG7ZWTDM9","A19NGUFGC7KIGW","3VAOOVPI3ZEZMZXPLZ7IWDDZ15LLLX","","181","img/flower3.png","74","183","1","1","3","2","1,0,0,1,1,0,1,0,1","1,0,0,1,1,0,1,0,1","1",""
"","html-keyboard-response","47","250832","0.0-47.0","351SEKWQS132GPPCZWFB2WG7ZWTDM9","A19NGUFGC7KIGW","3VAOOVPI3ZEZMZXPLZ7IWDDZ15LLLX","","null","<img src=""img/flower3.png"" style=""width:200px; border:14px solid green;"">","null","","","","","","","","",""
"","image-keyboard-response","48","251025","0.0-48.0","351SEKWQS132GPPCZWFB2WG7ZWTDM9","A19NGUFGC7KIGW","3VAOOVPI3ZEZMZXPLZ7IWDDZ15LLLX","","192","img/flower1.png","74","192","1","1","1","2","1,0,0,1,1,0,1,0,1","1,0,0,1,1,0,1,0,1","1",""
"","html-keyboard-response","49","251325","0.0-49.0","351SEKWQS132GPPCZWFB2WG7ZWTDM9","A19NGUFGC7KIGW","3VAOOVPI3ZEZMZXPLZ7IWDDZ15LLLX","","null","<img src=""img/flower1.png"" style=""width:200px; border:14px solid green;"">","null","","","","","","","","",""
"","image-keyboard-response","50","251519","0.0-50.0","351SEKWQS132GPPCZWFB2WG7ZWTDM9","A19NGUFGC7KIGW","3VAOOVPI3ZEZMZXPLZ7IWDDZ15LLLX","","194","img/flower4.png","74","194","1","1","2","2","1,0,0,1,1,0,1,0,1","1,0,0,1,1,0,1,0,1","1",""
"","html-keyboard-response","51","251830","0.0-51.0","351SEKWQS132GPPCZWFB2WG7ZWTDM9","A19NGUFGC7KIGW","3VAOOVPI3ZEZMZXPLZ7IWDDZ15LLLX","","null","<img src=""img/flower4.png"" style=""width:200px; border:14px solid green;"">","null","","","","","","","","",""
"","image-keyboard-response","52","252063","0.0-52.0","351SEKWQS132GPPCZWFB2WG7ZWTDM9","A19NGUFGC7KIGW","3VAOOVPI3ZEZMZXPLZ7IWDDZ15LLLX","","232","img/flower3.png","74","233","1","1","3","2","1,0,0,1,1,0,1,0,1","1,0,0,1,1,0,1,0,1","1",""
"","html-keyboard-response","53","252366","0.0-53.0","351SEKWQS132GPPCZWFB2WG7ZWTDM9","A19NGUFGC7KIGW","3VAOOVPI3ZEZMZXPLZ7IWDDZ15LLLX","","null","<img src=""img/flower3.png"" style=""width:200px; border:14px solid green;"">","null","","","","","","","","",""
"","image-keyboard-response","54","252704","0.0-54.0","351SEKWQS132GPPCZWFB2WG7ZWTDM9","A19NGUFGC7KIGW","3VAOOVPI3ZEZMZXPLZ7IWDDZ15LLLX","","337","img/flower1.png","74","337","1","1","1","2","1,0,0,1,1,0,1,0,1","1,0,0,1,1,0,1,0,1","1",""
"","html-keyboard-response","55","253013","0.0-55.0","351SEKWQS132GPPCZWFB2WG7ZWTDM9","A19NGUFGC7KIGW","3VAOOVPI3ZEZMZXPLZ7IWDDZ15LLLX","","null","<img src=""img/flower1.png"" style=""width:200px; border:14px solid green;"">","null","","","","","","","","",""
"","image-keyboard-response","56","253208","0.0-56.0","351SEKWQS132GPPCZWFB2WG7ZWTDM9","A19NGUFGC7KIGW","3VAOOVPI3ZEZMZXPLZ7IWDDZ15LLLX","","193","img/flower4.png","74","195","1","1","2","2","1,0,0,1,1,0,1,0,1","1,0,0,1,1,0,1,0,1","1",""
"","html-keyboard-response","57","253517","0.0-57.0","351SEKWQS132GPPCZWFB2WG7ZWTDM9","A19NGUFGC7KIGW","3VAOOVPI3ZEZMZXPLZ7IWDDZ15LLLX","","null","<img src=""img/flower4.png"" style=""width:200px; border:14px solid green;"">","null","","","","","","","","",""
"","image-keyboard-response","58","253673","0.0-58.0","351SEKWQS132GPPCZWFB2WG7ZWTDM9","A19NGUFGC7KIGW","3VAOOVPI3ZEZMZXPLZ7IWDDZ15LLLX","","155","img/flower1.png","74","156","1","1","1","2","1,0,0,1,1,0,1,0,1","1,0,0,1,1,0,1,0,1","1",""
"","html-keyboard-response","59","253986","0.0-59.0","351SEKWQS132GPPCZWFB2WG7ZWTDM9","A19NGUFGC7KIGW","3VAOOVPI3ZEZMZXPLZ7IWDDZ15LLLX","","null","<img src=""img/flower1.png"" style=""width:200px; border:14px solid green;"">","null","","","","","","","","",""
"","image-keyboard-response","60","254150","0.0-60.0","351SEKWQS132GPPCZWFB2WG7ZWTDM9","A19NGUFGC7KIGW","3VAOOVPI3ZEZMZXPLZ7IWDDZ15LLLX","","165","img/flower4.png","74","165","1","1","2","2","1,0,0,1,1,0,1,0,1","1,0,0,1,1,0,1,0,1","1",""
"","html-keyboard-response","61","254459","0.0-61.0","351SEKWQS132GPPCZWFB2WG7ZWTDM9","A19NGUFGC7KIGW","3VAOOVPI3ZEZMZXPLZ7IWDDZ15LLLX","","null","<img src=""img/flower4.png"" style=""width:200px; border:14px solid green;"">","null","","","","","","","","",""
"","image-keyboard-response","62","254671","0.0-62.0","351SEKWQS132GPPCZWFB2WG7ZWTDM9","A19NGUFGC7KIGW","3VAOOVPI3ZEZMZXPLZ7IWDDZ15LLLX","","212","img/flower4.png","74","212","1","1","2","2","1,0,0,1,1,0,1,0,1","1,0,0,1,1,0,1,0,1","1",""
"","html-keyboard-response","63","254984","0.0-63.0","351SEKWQS132GPPCZWFB2WG7ZWTDM9","A19NGUFGC7KIGW","3VAOOVPI3ZEZMZXPLZ7IWDDZ15LLLX","","null","<img src=""img/flower4.png"" style=""width:200px; border:14px solid green;"">","null","","","","","","","","",""
"","image-keyboard-response","64","255135","0.0-64.0","351SEKWQS132GPPCZWFB2WG7ZWTDM9","A19NGUFGC7KIGW","3VAOOVPI3ZEZMZXPLZ7IWDDZ15LLLX","","151","img/flower4.png","74","151","1","1","2","2","1,0,0,1,1,0,1,0,1","1,0,0,1,1,0,1,0,1","1",""
"","html-keyboard-response","65","255450","0.0-65.0","351SEKWQS132GPPCZWFB2WG7ZWTDM9","A19NGUFGC7KIGW","3VAOOVPI3ZEZMZXPLZ7IWDDZ15LLLX","","null","<img src=""img/flower4.png"" style=""width:200px; border:14px solid green;"">","null","","","","","","","","",""
"","image-keyboard-response","66","255583","0.0-66.0","351SEKWQS132GPPCZWFB2WG7ZWTDM9","A19NGUFGC7KIGW","3VAOOVPI3ZEZMZXPLZ7IWDDZ15LLLX","","132","img/flower1.png","74","133","1","1","1","2","1,0,0,1,1,0,1,0,1","1,0,0,1,1,0,1,0,1","1",""
"","html-keyboard-response","67","255889","0.0-67.0","351SEKWQS132GPPCZWFB2WG7ZWTDM9","A19NGUFGC7KIGW","3VAOOVPI3ZEZMZXPLZ7IWDDZ15LLLX","","null","<img src=""img/flower1.png"" style=""width:200px; border:14px solid green;"">","null","","","","","","","","",""
"","image-keyboard-response","68","256127","0.0-68.0","351SEKWQS132GPPCZWFB2WG7ZWTDM9","A19NGUFGC7KIGW","3VAOOVPI3ZEZMZXPLZ7IWDDZ15LLLX","","237","img/flower1.png","74","238","1","1","1","2","1,0,0,1,1,0,1,0,1","1,0,0,1,1,0,1,0,1","1",""
"","html-keyboard-response","69","256436","0.0-69.0","351SEKWQS132GPPCZWFB2WG7ZWTDM9","A19NGUFGC7KIGW","3VAOOVPI3ZEZMZXPLZ7IWDDZ15LLLX","","null","<img src=""img/flower1.png"" style=""width:200px; border:14px solid green;"">","null","","","","","","","","",""
"","image-keyboard-response","70","256584","0.0-70.0","351SEKWQS132GPPCZWFB2WG7ZWTDM9","A19NGUFGC7KIGW","3VAOOVPI3ZEZMZXPLZ7IWDDZ15LLLX","","147","img/flower1.png","74","147","1","1","1","2","1,0,0,1,1,0,1,0,1","1,0,0,1,1,0,1,0,1","1",""
"","html-keyboard-response","71","256888","0.0-71.0","351SEKWQS132GPPCZWFB2WG7ZWTDM9","A19NGUFGC7KIGW","3VAOOVPI3ZEZMZXPLZ7IWDDZ15LLLX","","null","<img src=""img/flower1.png"" style=""width:200px; border:14px solid green;"">","null","","","","","","","","",""
"","image-keyboard-response","72","257032","0.0-72.0","351SEKWQS132GPPCZWFB2WG7ZWTDM9","A19NGUFGC7KIGW","3VAOOVPI3ZEZMZXPLZ7IWDDZ15LLLX","","142","img/flower4.png","74","142","1","1","2","2","1,0,0,1,1,0,1,0,1","1,0,0,1,1,0,1,0,1","1",""
"","html-keyboard-response","73","257336","0.0-73.0","351SEKWQS132GPPCZWFB2WG7ZWTDM9","A19NGUFGC7KIGW","3VAOOVPI3ZEZMZXPLZ7IWDDZ15LLLX","","null","<img src=""img/flower4.png"" style=""width:200px; border:14px solid green;"">","null","","","","","","","","",""
"","image-keyboard-response","74","257544","0.0-74.0","351SEKWQS132GPPCZWFB2WG7ZWTDM9","A19NGUFGC7KIGW","3VAOOVPI3ZEZMZXPLZ7IWDDZ15LLLX","","208","img/flower1.png","74","209","1","1","1","2","1,0,0,1,1,0,1,0,1","1,0,0,1,1,0,1,0,1","1",""
"","html-keyboard-response","75","257844","0.0-75.0","351SEKWQS132GPPCZWFB2WG7ZWTDM9","A19NGUFGC7KIGW","3VAOOVPI3ZEZMZXPLZ7IWDDZ15LLLX","","null","<img src=""img/flower1.png"" style=""width:200px; border:14px solid green;"">","null","","","","","","","","",""
"","image-keyboard-response","76","257992","0.0-76.0","351SEKWQS132GPPCZWFB2WG7ZWTDM9","A19NGUFGC7KIGW","3VAOOVPI3ZEZMZXPLZ7IWDDZ15LLLX","","147","img/flower3.png","74","147","1","1","3","2","1,0,0,1,1,0,1,0,1","1,0,0,1,1,0,1,0,1","1",""
"","html-keyboard-response","77","258307","0.0-77.0","351SEKWQS132GPPCZWFB2WG7ZWTDM9","A19NGUFGC7KIGW","3VAOOVPI3ZEZMZXPLZ7IWDDZ15LLLX","","null","<img src=""img/flower3.png"" style=""width:200px; border:14px solid green;"">","null","","","","","","","","",""
"","image-keyboard-response","78","258446","0.0-78.0","351SEKWQS132GPPCZWFB2WG7ZWTDM9","A19NGUFGC7KIGW","3VAOOVPI3ZEZMZXPLZ7IWDDZ15LLLX","","139","img/flower4.png","74","139","1","1","2","2","1,0,0,1,1,0,1,0,1","1,0,0,1,1,0,1,0,1","1",""
"","html-keyboard-response","79","258762","0.0-79.0","351SEKWQS132GPPCZWFB2WG7ZWTDM9","A19NGUFGC7KIGW","3VAOOVPI3ZEZMZXPLZ7IWDDZ15LLLX","","null","<img src=""img/flower4.png"" style=""width:200px; border:14px solid green;"">","null","","","","","","","","",""
"","image-keyboard-response","80","258886","0.0-80.0","351SEKWQS132GPPCZWFB2WG7ZWTDM9","A19NGUFGC7KIGW","3VAOOVPI3ZEZMZXPLZ7IWDDZ15LLLX","","122","img/flower1.png","74","124","1","1","1","2","1,0,0,1,1,0,1,0,1","1,0,0,1,1,0,1,0,1","1",""
"","html-keyboard-response","81","259187","0.0-81.0","351SEKWQS132GPPCZWFB2WG7ZWTDM9","A19NGUFGC7KIGW","3VAOOVPI3ZEZMZXPLZ7IWDDZ15LLLX","","null","<img src=""img/flower1.png"" style=""width:200px; border:14px solid green;"">","null","","","","","","","","",""
"","image-keyboard-response","82","259383","0.0-82.0","351SEKWQS132GPPCZWFB2WG7ZWTDM9","A19NGUFGC7KIGW","3VAOOVPI3ZEZMZXPLZ7IWDDZ15LLLX","","195","img/flower4.png","74","195","1","1","2","2","1,0,0,1,1,0,1,0,1","1,0,0,1,1,0,1,0,1","1",""
"","html-keyboard-response","83","259686","0.0-83.0","351SEKWQS132GPPCZWFB2WG7ZWTDM9","A19NGUFGC7KIGW","3VAOOVPI3ZEZMZXPLZ7IWDDZ15LLLX","","null","<img src=""img/flower4.png"" style=""width:200px; border:14px solid green;"">","null","","","","","","","","",""
"","image-keyboard-response","84","259839","0.0-84.0","351SEKWQS132GPPCZWFB2WG7ZWTDM9","A19NGUFGC7KIGW","3VAOOVPI3ZEZMZXPLZ7IWDDZ15LLLX","","151","img/flower3.png","74","152","1","1","3","2","1,0,0,1,1,0,1,0,1","1,0,0,1,1,0,1,0,1","1",""
"","html-keyboard-response","85","260147","0.0-85.0","351SEKWQS132GPPCZWFB2WG7ZWTDM9","A19NGUFGC7KIGW","3VAOOVPI3ZEZMZXPLZ7IWDDZ15LLLX","","null","<img src=""img/flower3.png"" style=""width:200px; border:14px solid green;"">","null","","","","","","","","",""
"","image-keyboard-response","86","260246","0.0-86.0","351SEKWQS132GPPCZWFB2WG7ZWTDM9","A19NGUFGC7KIGW","3VAOOVPI3ZEZMZXPLZ7IWDDZ15LLLX","","99","img/flower1.png","74","100","1","1","1","2","1,0,0,1,1,0,1,0,1","1,0,0,1,1,0,1,0,1","1",""
"","html-keyboard-response","87","260559","0.0-87.0","351SEKWQS132GPPCZWFB2WG7ZWTDM9","A19NGUFGC7KIGW","3VAOOVPI3ZEZMZXPLZ7IWDDZ15LLLX","","null","<img src=""img/flower1.png"" style=""width:200px; border:14px solid green;"">","null","","","","","","","","",""
"","image-keyboard-response","88","260672","0.0-88.0","351SEKWQS132GPPCZWFB2WG7ZWTDM9","A19NGUFGC7KIGW","3VAOOVPI3ZEZMZXPLZ7IWDDZ15LLLX","","111","img/flower4.png","74","111","1","1","2","2","1,0,0,1,1,0,1,0,1","1,0,0,1,1,0,1,0,1","1",""
"","html-keyboard-response","89","260974","0.0-89.0","351SEKWQS132GPPCZWFB2WG7ZWTDM9","A19NGUFGC7KIGW","3VAOOVPI3ZEZMZXPLZ7IWDDZ15LLLX","","null","<img src=""img/flower4.png"" style=""width:200px; border:14px solid green;"">","null","","","","","","","","",""
"","image-keyboard-response","90","261127","0.0-90.0","351SEKWQS132GPPCZWFB2WG7ZWTDM9","A19NGUFGC7KIGW","3VAOOVPI3ZEZMZXPLZ7IWDDZ15LLLX","","153","img/flower1.png","74","154","1","1","1","2","1,0,0,1,1,0,1,0,1","1,0,0,1,1,0,1,0,1","1",""
"","html-keyboard-response","91","261437","0.0-91.0","351SEKWQS132GPPCZWFB2WG7ZWTDM9","A19NGUFGC7KIGW","3VAOOVPI3ZEZMZXPLZ7IWDDZ15LLLX","","null","<img src=""img/flower1.png"" style=""width:200px; border:14px solid green;"">","null","","","","","","","","",""
"","image-keyboard-response","92","261543","0.0-92.0","351SEKWQS132GPPCZWFB2WG7ZWTDM9","A19NGUFGC7KIGW","3VAOOVPI3ZEZMZXPLZ7IWDDZ15LLLX","","105","img/flower1.png","74","105","1","1","1","2","1,0,0,1,1,0,1,0,1","1,0,0,1,1,0,1,0,1","1",""
"","html-keyboard-response","93","261849","0.0-93.0","351SEKWQS132GPPCZWFB2WG7ZWTDM9","A19NGUFGC7KIGW","3VAOOVPI3ZEZMZXPLZ7IWDDZ15LLLX","","null","<img src=""img/flower1.png"" style=""width:200px; border:14px solid green;"">","null","","","","","","","","",""
"","image-keyboard-response","94","261951","0.0-94.0","351SEKWQS132GPPCZWFB2WG7ZWTDM9","A19NGUFGC7KIGW","3VAOOVPI3ZEZMZXPLZ7IWDDZ15LLLX","","102","img/flower4.png","74","103","1","1","2","2","1,0,0,1,1,0,1,0,1","1,0,0,1,1,0,1,0,1","1",""
"","html-keyboard-response","95","262257","0.0-95.0","351SEKWQS132GPPCZWFB2WG7ZWTDM9","A19NGUFGC7KIGW","3VAOOVPI3ZEZMZXPLZ7IWDDZ15LLLX","","null","<img src=""img/flower4.png"" style=""width:200px; border:14px solid green;"">","null","","","","","","","","",""
"","image-keyboard-response","96","262288","0.0-96.0","351SEKWQS132GPPCZWFB2WG7ZWTDM9","A19NGUFGC7KIGW","3VAOOVPI3ZEZMZXPLZ7IWDDZ15LLLX","","31","img/flower1.png","74","31","1","1","1","2","1,0,0,1,1,0,1,0,1","1,0,0,1,1,0,1,0,1","1",""
"","html-keyboard-response","97","262589","0.0-97.0","351SEKWQS132GPPCZWFB2WG7ZWTDM9","A19NGUFGC7KIGW","3VAOOVPI3ZEZMZXPLZ7IWDDZ15LLLX","","null","<img src=""img/flower1.png"" style=""width:200px; border:14px solid green;"">","null","","","","","","","","",""
"","image-keyboard-response","98","262631","0.0-98.0","351SEKWQS132GPPCZWFB2WG7ZWTDM9","A19NGUFGC7KIGW","3VAOOVPI3ZEZMZXPLZ7IWDDZ15LLLX","","43","img/flower4.png","74","43","1","1","2","2","1,0,0,1,1,0,1,0,1","1,0,0,1,1,0,1,0,1","1",""
"","html-keyboard-response","99","262940","0.0-99.0","351SEKWQS132GPPCZWFB2WG7ZWTDM9","A19NGUFGC7KIGW","3VAOOVPI3ZEZMZXPLZ7IWDDZ15LLLX","","null","<img src=""img/flower4.png"" style=""width:200px; border:14px solid green;"">","null","","","","","","","","",""
"","image-keyboard-response","100","262943","0.0-100.0","351SEKWQS132GPPCZWFB2WG7ZWTDM9","A19NGUFGC7KIGW","3VAOOVPI3ZEZMZXPLZ7IWDDZ15LLLX","","3","img/flower3.png","74","3","1","1","3","2","1,0,0,1,1,0,1,0,1","1,0,0,1,1,0,1,0,1","1",""
"","html-keyboard-response","101","263255","0.0-101.0","351SEKWQS132GPPCZWFB2WG7ZWTDM9","A19NGUFGC7KIGW","3VAOOVPI3ZEZMZXPLZ7IWDDZ15LLLX","","null","<img src=""img/flower3.png"" style=""width:200px; border:14px solid green;"">","null","","","","","","","","",""
"","image-keyboard-response","102","263256","0.0-102.0","351SEKWQS132GPPCZWFB2WG7ZWTDM9","A19NGUFGC7KIGW","3VAOOVPI3ZEZMZXPLZ7IWDDZ15LLLX","","1","img/flower1.png","74","1","1","1","1","2","1,0,0,1,1,0,1,0,1","1,0,0,1,1,0,1,0,1","1",""
"","html-keyboard-response","103","263567","0.0-103.0","351SEKWQS132GPPCZWFB2WG7ZWTDM9","A19NGUFGC7KIGW","3VAOOVPI3ZEZMZXPLZ7IWDDZ15LLLX","","null","<img src=""img/flower1.png"" style=""width:200px; border:14px solid green;"">","null","","","","","","","","",""
"","image-keyboard-response","104","263903","0.0-104.0","351SEKWQS132GPPCZWFB2WG7ZWTDM9","A19NGUFGC7KIGW","3VAOOVPI3ZEZMZXPLZ7IWDDZ15LLLX","","336","img/flower4.png","74","336","1","1","2","2","1,0,0,1,1,0,1,0,1","1,0,0,1,1,0,1,0,1","1",""
"","html-keyboard-response","105","264218","0.0-105.0","351SEKWQS132GPPCZWFB2WG7ZWTDM9","A19NGUFGC7KIGW","3VAOOVPI3ZEZMZXPLZ7IWDDZ15LLLX","","null","<img src=""img/flower4.png"" style=""width:200px; border:14px solid green;"">","null","","","","","","","","",""
"","image-keyboard-response","106","264543","0.0-106.0","351SEKWQS132GPPCZWFB2WG7ZWTDM9","A19NGUFGC7KIGW","3VAOOVPI3ZEZMZXPLZ7IWDDZ15LLLX","","324","img/flower1.png","74","324","1","1","1","2","1,0,0,1,1,0,1,0,1","1,0,0,1,1,0,1,0,1","1",""
"","html-keyboard-response","107","264852","0.0-107.0","351SEKWQS132GPPCZWFB2WG7ZWTDM9","A19NGUFGC7KIGW","3VAOOVPI3ZEZMZXPLZ7IWDDZ15LLLX","","null","<img src=""img/flower1.png"" style=""width:200px; border:14px solid green;"">","null","","","","","","","","",""
"","image-keyboard-response","108","265134","0.0-108.0","351SEKWQS132GPPCZWFB2WG7ZWTDM9","A19NGUFGC7KIGW","3VAOOVPI3ZEZMZXPLZ7IWDDZ15LLLX","","283","img/flower3.png","74","283","1","1","3","2","1,0,0,1,1,0,1,0,1","1,0,0,1,1,0,1,0,1","1",""
"","html-keyboard-response","109","265440","0.0-109.0","351SEKWQS132GPPCZWFB2WG7ZWTDM9","A19NGUFGC7KIGW","3VAOOVPI3ZEZMZXPLZ7IWDDZ15LLLX","","null","<img src=""img/flower3.png"" style=""width:200px; border:14px solid green;"">","null","","","","","","","","",""
"","image-keyboard-response","110","265847","0.0-110.0","351SEKWQS132GPPCZWFB2WG7ZWTDM9","A19NGUFGC7KIGW","3VAOOVPI3ZEZMZXPLZ7IWDDZ15LLLX","","407","img/flower4.png","74","409","1","1","2","2","1,0,0,1,1,0,1,0,1","1,0,0,1,1,0,1,0,1","1",""
"","html-keyboard-response","111","266151","0.0-111.0","351SEKWQS132GPPCZWFB2WG7ZWTDM9","A19NGUFGC7KIGW","3VAOOVPI3ZEZMZXPLZ7IWDDZ15LLLX","","null","<img src=""img/flower4.png"" style=""width:200px; border:14px solid green;"">","null","","","","","","","","",""
"","image-keyboard-response","112","266625","0.0-112.0","351SEKWQS132GPPCZWFB2WG7ZWTDM9","A19NGUFGC7KIGW","3VAOOVPI3ZEZMZXPLZ7IWDDZ15LLLX","","473","img/flower4.png","75","473","2","1","2","2","1,0,0,1,1,0,1,0,1","1,0,0,1,1,0,1,0,1","1",""
"","html-keyboard-response","113","266928","0.0-113.0","351SEKWQS132GPPCZWFB2WG7ZWTDM9","A19NGUFGC7KIGW","3VAOOVPI3ZEZMZXPLZ7IWDDZ15LLLX","","null","<img src=""img/flower4.png"" style=""width:200px; border:14px solid green;"">","null","","","","","","","","",""
"","image-keyboard-response","114","267449","0.0-114.0","351SEKWQS132GPPCZWFB2WG7ZWTDM9","A19NGUFGC7KIGW","3VAOOVPI3ZEZMZXPLZ7IWDDZ15LLLX","","520","img/flower3.png","75","520","2","0","3","2","1,0,0,1,1,0,1,0,1","1,0,0,1,1,0,1,0,1","1",""
"","html-keyboard-response","115","267760","0.0-115.0","351SEKWQS132GPPCZWFB2WG7ZWTDM9","A19NGUFGC7KIGW","3VAOOVPI3ZEZMZXPLZ7IWDDZ15LLLX","","null","<img src=""img/flower3.png"" style=""width:200px;border:14px solid red;"">","null","","","","","","","","",""
"","image-keyboard-response","116","268169","0.0-116.0","351SEKWQS132GPPCZWFB2WG7ZWTDM9","A19NGUFGC7KIGW","3VAOOVPI3ZEZMZXPLZ7IWDDZ15LLLX","","408","img/flower1.png","76","408","3","0","1","2","1,0,0,1,1,0,1,0,1","1,0,0,1,1,0,1,0,1","1",""
"","html-keyboard-response","117","268477","0.0-117.0","351SEKWQS132GPPCZWFB2WG7ZWTDM9","A19NGUFGC7KIGW","3VAOOVPI3ZEZMZXPLZ7IWDDZ15LLLX","","null","<img src=""img/flower1.png"" style=""width:200px;border:14px solid red;"">","null","","","","","","","","",""
"","image-keyboard-response","118","269049","0.0-118.0","351SEKWQS132GPPCZWFB2WG7ZWTDM9","A19NGUFGC7KIGW","3VAOOVPI3ZEZMZXPLZ7IWDDZ15LLLX","","571","img/flower3.png","74","571","1","1","3","2","1,0,0,1,1,0,1,0,1","1,0,0,1,1,0,1,0,1","1",""
"","html-keyboard-response","119","269359","0.0-119.0","351SEKWQS132GPPCZWFB2WG7ZWTDM9","A19NGUFGC7KIGW","3VAOOVPI3ZEZMZXPLZ7IWDDZ15LLLX","","null","<img src=""img/flower3.png"" style=""width:200px; border:14px solid green;"">","null","","","","","","","","",""
"","image-keyboard-response","120","269673","0.0-120.0","351SEKWQS132GPPCZWFB2WG7ZWTDM9","A19NGUFGC7KIGW","3VAOOVPI3ZEZMZXPLZ7IWDDZ15LLLX","","313","img/flower1.png","74","313","1","1","1","2","1,0,0,1,1,0,1,0,1","1,0,0,1,1,0,1,0,1","1",""
"","html-keyboard-response","121","269979","0.0-121.0","351SEKWQS132GPPCZWFB2WG7ZWTDM9","A19NGUFGC7KIGW","3VAOOVPI3ZEZMZXPLZ7IWDDZ15LLLX","","null","<img src=""img/flower1.png"" style=""width:200px; border:14px solid green;"">","null","","","","","","","","",""
"","image-keyboard-response","122","270209","0.0-122.0","351SEKWQS132GPPCZWFB2WG7ZWTDM9","A19NGUFGC7KIGW","3VAOOVPI3ZEZMZXPLZ7IWDDZ15LLLX","","229","img/flower3.png","74","229","1","1","3","2","1,0,0,1,1,0,1,0,1","1,0,0,1,1,0,1,0,1","1",""
"","html-keyboard-response","123","270520","0.0-123.0","351SEKWQS132GPPCZWFB2WG7ZWTDM9","A19NGUFGC7KIGW","3VAOOVPI3ZEZMZXPLZ7IWDDZ15LLLX","","null","<img src=""img/flower3.png"" style=""width:200px; border:14px solid green;"">","null","","","","","","","","",""
"","image-keyboard-response","124","270736","0.0-124.0","351SEKWQS132GPPCZWFB2WG7ZWTDM9","A19NGUFGC7KIGW","3VAOOVPI3ZEZMZXPLZ7IWDDZ15LLLX","","215","img/flower3.png","74","216","1","1","3","2","1,0,0,1,1,0,1,0,1","1,0,0,1,1,0,1,0,1","1",""
"","html-keyboard-response","125","271044","0.0-125.0","351SEKWQS132GPPCZWFB2WG7ZWTDM9","A19NGUFGC7KIGW","3VAOOVPI3ZEZMZXPLZ7IWDDZ15LLLX","","null","<img src=""img/flower3.png"" style=""width:200px; border:14px solid green;"">","null","","","","","","","","",""
"","image-keyboard-response","126","271248","0.0-126.0","351SEKWQS132GPPCZWFB2WG7ZWTDM9","A19NGUFGC7KIGW","3VAOOVPI3ZEZMZXPLZ7IWDDZ15LLLX","","203","img/flower3.png","74","203","1","1","3","2","1,0,0,1,1,0,1,0,1","1,0,0,1,1,0,1,0,1","1",""
"","html-keyboard-response","127","271561","0.0-127.0","351SEKWQS132GPPCZWFB2WG7ZWTDM9","A19NGUFGC7KIGW","3VAOOVPI3ZEZMZXPLZ7IWDDZ15LLLX","","null","<img src=""img/flower3.png"" style=""width:200px; border:14px solid green;"">","null","","","","","","","","",""
"","image-keyboard-response","128","271774","0.0-128.0","351SEKWQS132GPPCZWFB2WG7ZWTDM9","A19NGUFGC7KIGW","3VAOOVPI3ZEZMZXPLZ7IWDDZ15LLLX","","213","img/flower3.png","74","213","1","1","3","2","1,0,0,1,1,0,1,0,1","1,0,0,1,1,0,1,0,1","1",""
"","html-keyboard-response","129","272082","0.0-129.0","351SEKWQS132GPPCZWFB2WG7ZWTDM9","A19NGUFGC7KIGW","3VAOOVPI3ZEZMZXPLZ7IWDDZ15LLLX","","null","<img src=""img/flower3.png"" style=""width:200px; border:14px solid green;"">","null","","","","","","","","",""
"","image-keyboard-response","130","272311","0.0-130.0","351SEKWQS132GPPCZWFB2WG7ZWTDM9","A19NGUFGC7KIGW","3VAOOVPI3ZEZMZXPLZ7IWDDZ15LLLX","","228","img/flower3.png","74","229","1","1","3","2","1,0,0,1,1,0,1,0,1","1,0,0,1,1,0,1,0,1","1",""
"","html-keyboard-response","131","272623","0.0-131.0","351SEKWQS132GPPCZWFB2WG7ZWTDM9","A19NGUFGC7KIGW","3VAOOVPI3ZEZMZXPLZ7IWDDZ15LLLX","","null","<img src=""img/flower3.png"" style=""width:200px; border:14px solid green;"">","null","","","","","","","","",""
"","image-keyboard-response","132","273055","0.0-132.0","351SEKWQS132GPPCZWFB2WG7ZWTDM9","A19NGUFGC7KIGW","3VAOOVPI3ZEZMZXPLZ7IWDDZ15LLLX","","430","img/flower4.png","75","432","2","1","2","2","1,0,0,1,1,0,1,0,1","1,0,0,1,1,0,1,0,1","1",""
"","html-keyboard-response","133","273366","0.0-133.0","351SEKWQS132GPPCZWFB2WG7ZWTDM9","A19NGUFGC7KIGW","3VAOOVPI3ZEZMZXPLZ7IWDDZ15LLLX","","null","<img src=""img/flower4.png"" style=""width:200px; border:14px solid green;"">","null","","","","","","","","",""
"","image-keyboard-response","134","273615","0.0-134.0","351SEKWQS132GPPCZWFB2WG7ZWTDM9","A19NGUFGC7KIGW","3VAOOVPI3ZEZMZXPLZ7IWDDZ15LLLX","","249","img/flower4.png","75","249","2","1","2","2","1,0,0,1,1,0,1,0,1","1,0,0,1,1,0,1,0,1","1",""
"","html-keyboard-response","135","273922","0.0-135.0","351SEKWQS132GPPCZWFB2WG7ZWTDM9","A19NGUFGC7KIGW","3VAOOVPI3ZEZMZXPLZ7IWDDZ15LLLX","","null","<img src=""img/flower4.png"" style=""width:200px; border:14px solid green;"">","null","","","","","","","","",""
"","image-keyboard-response","136","274350","0.0-136.0","351SEKWQS132GPPCZWFB2WG7ZWTDM9","A19NGUFGC7KIGW","3VAOOVPI3ZEZMZXPLZ7IWDDZ15LLLX","","428","img/flower1.png","74","428","1","1","1","2","1,0,0,1,1,0,1,0,1","1,0,0,1,1,0,1,0,1","1",""
"","html-keyboard-response","137","274660","0.0-137.0","351SEKWQS132GPPCZWFB2WG7ZWTDM9","A19NGUFGC7KIGW","3VAOOVPI3ZEZMZXPLZ7IWDDZ15LLLX","","null","<img src=""img/flower1.png"" style=""width:200px; border:14px solid green;"">","null","","","","","","","","",""
"","image-keyboard-response","138","274822","0.0-138.0","351SEKWQS132GPPCZWFB2WG7ZWTDM9","A19NGUFGC7KIGW","3VAOOVPI3ZEZMZXPLZ7IWDDZ15LLLX","","161","img/flower4.png","74","162","1","1","2","2","1,0,0,1,1,0,1,0,1","1,0,0,1,1,0,1,0,1","1",""
"","html-keyboard-response","139","275137","0.0-139.0","351SEKWQS132GPPCZWFB2WG7ZWTDM9","A19NGUFGC7KIGW","3VAOOVPI3ZEZMZXPLZ7IWDDZ15LLLX","","null","<img src=""img/flower4.png"" style=""width:200px; border:14px solid green;"">","null","","","","","","","","",""
"","image-keyboard-response","140","275431","0.0-140.0","351SEKWQS132GPPCZWFB2WG7ZWTDM9","A19NGUFGC7KIGW","3VAOOVPI3ZEZMZXPLZ7IWDDZ15LLLX","","292","img/flower1.png","75","293","2","0","1","2","1,0,0,1,1,0,1,0,1","1,0,0,1,1,0,1,0,1","1",""
"","html-keyboard-response","141","275733","0.0-141.0","351SEKWQS132GPPCZWFB2WG7ZWTDM9","A19NGUFGC7KIGW","3VAOOVPI3ZEZMZXPLZ7IWDDZ15LLLX","","null","<img src=""img/flower1.png"" style=""width:200px;border:14px solid red;"">","null","","","","","","","","",""
"","image-keyboard-response","142","276095","0.0-142.0","351SEKWQS132GPPCZWFB2WG7ZWTDM9","A19NGUFGC7KIGW","3VAOOVPI3ZEZMZXPLZ7IWDDZ15LLLX","","361","img/flower4.png","74","362","1","1","2","2","1,0,0,1,1,0,1,0,1","1,0,0,1,1,0,1,0,1","1",""
"","html-keyboard-response","143","276408","0.0-143.0","351SEKWQS132GPPCZWFB2WG7ZWTDM9","A19NGUFGC7KIGW","3VAOOVPI3ZEZMZXPLZ7IWDDZ15LLLX","","null","<img src=""img/flower4.png"" style=""width:200px; border:14px solid green;"">","null","","","","","","","","",""
"","image-keyboard-response","144","276744","0.0-144.0","351SEKWQS132GPPCZWFB2WG7ZWTDM9","A19NGUFGC7KIGW","3VAOOVPI3ZEZMZXPLZ7IWDDZ15LLLX","","335","img/flower3.png","74","336","1","1","3","2","1,0,0,1,1,0,1,0,1","1,0,0,1,1,0,1,0,1","1",""
"","html-keyboard-response","145","277055","0.0-145.0","351SEKWQS132GPPCZWFB2WG7ZWTDM9","A19NGUFGC7KIGW","3VAOOVPI3ZEZMZXPLZ7IWDDZ15LLLX","","null","<img src=""img/flower3.png"" style=""width:200px; border:14px solid green;"">","null","","","","","","","","",""
"","image-keyboard-response","146","277311","0.0-146.0","351SEKWQS132GPPCZWFB2WG7ZWTDM9","A19NGUFGC7KIGW","3VAOOVPI3ZEZMZXPLZ7IWDDZ15LLLX","","256","img/flower3.png","74","256","1","1","3","2","1,0,0,1,1,0,1,0,1","1,0,0,1,1,0,1,0,1","1",""
"","html-keyboard-response","147","277622","0.0-147.0","351SEKWQS132GPPCZWFB2WG7ZWTDM9","A19NGUFGC7KIGW","3VAOOVPI3ZEZMZXPLZ7IWDDZ15LLLX","","null","<img src=""img/flower3.png"" style=""width:200px; border:14px solid green;"">","null","","","","","","","","",""
"","image-keyboard-response","148","277790","0.0-148.0","351SEKWQS132GPPCZWFB2WG7ZWTDM9","A19NGUFGC7KIGW","3VAOOVPI3ZEZMZXPLZ7IWDDZ15LLLX","","169","img/flower1.png","74","169","1","1","1","2","1,0,0,1,1,0,1,0,1","1,0,0,1,1,0,1,0,1","1",""
"","html-keyboard-response","149","278094","0.0-149.0","351SEKWQS132GPPCZWFB2WG7ZWTDM9","A19NGUFGC7KIGW","3VAOOVPI3ZEZMZXPLZ7IWDDZ15LLLX","","null","<img src=""img/flower1.png"" style=""width:200px; border:14px solid green;"">","null","","","","","","","","",""
"","image-keyboard-response","150","278255","0.0-150.0","351SEKWQS132GPPCZWFB2WG7ZWTDM9","A19NGUFGC7KIGW","3VAOOVPI3ZEZMZXPLZ7IWDDZ15LLLX","","161","img/flower1.png","74","161","1","1","1","2","1,0,0,1,1,0,1,0,1","1,0,0,1,1,0,1,0,1","1",""
"","html-keyboard-response","151","278567","0.0-151.0","351SEKWQS132GPPCZWFB2WG7ZWTDM9","A19NGUFGC7KIGW","3VAOOVPI3ZEZMZXPLZ7IWDDZ15LLLX","","null","<img src=""img/flower1.png"" style=""width:200px; border:14px solid green;"">","null","","","","","","","","",""
"","image-keyboard-response","152","278752","0.0-152.0","351SEKWQS132GPPCZWFB2WG7ZWTDM9","A19NGUFGC7KIGW","3VAOOVPI3ZEZMZXPLZ7IWDDZ15LLLX","","184","img/flower3.png","74","185","1","1","3","2","1,0,0,1,1,0,1,0,1","1,0,0,1,1,0,1,0,1","1",""
"","html-keyboard-response","153","279060","0.0-153.0","351SEKWQS132GPPCZWFB2WG7ZWTDM9","A19NGUFGC7KIGW","3VAOOVPI3ZEZMZXPLZ7IWDDZ15LLLX","","null","<img src=""img/flower3.png"" style=""width:200px; border:14px solid green;"">","null","","","","","","","","",""
"","image-keyboard-response","154","279296","0.0-154.0","351SEKWQS132GPPCZWFB2WG7ZWTDM9","A19NGUFGC7KIGW","3VAOOVPI3ZEZMZXPLZ7IWDDZ15LLLX","","235","img/flower1.png","74","236","1","1","1","2","1,0,0,1,1,0,1,0,1","1,0,0,1,1,0,1,0,1","1",""
"","html-keyboard-response","155","279612","0.0-155.0","351SEKWQS132GPPCZWFB2WG7ZWTDM9","A19NGUFGC7KIGW","3VAOOVPI3ZEZMZXPLZ7IWDDZ15LLLX","","null","<img src=""img/flower1.png"" style=""width:200px; border:14px solid green;"">","null","","","","","","","","",""
"","image-keyboard-response","156","279792","0.0-156.0","351SEKWQS132GPPCZWFB2WG7ZWTDM9","A19NGUFGC7KIGW","3VAOOVPI3ZEZMZXPLZ7IWDDZ15LLLX","","178","img/flower3.png","74","178","1","1","3","2","1,0,0,1,1,0,1,0,1","1,0,0,1,1,0,1,0,1","1",""
"","html-keyboard-response","157","280101","0.0-157.0","351SEKWQS132GPPCZWFB2WG7ZWTDM9","A19NGUFGC7KIGW","3VAOOVPI3ZEZMZXPLZ7IWDDZ15LLLX","","null","<img src=""img/flower3.png"" style=""width:200px; border:14px solid green;"">","null","","","","","","","","",""
"","image-keyboard-response","158","280327","0.0-158.0","351SEKWQS132GPPCZWFB2WG7ZWTDM9","A19NGUFGC7KIGW","3VAOOVPI3ZEZMZXPLZ7IWDDZ15LLLX","","226","img/flower3.png","74","226","1","1","3","2","1,0,0,1,1,0,1,0,1","1,0,0,1,1,0,1,0,1","1",""
"","html-keyboard-response","159","280640","0.0-159.0","351SEKWQS132GPPCZWFB2WG7ZWTDM9","A19NGUFGC7KIGW","3VAOOVPI3ZEZMZXPLZ7IWDDZ15LLLX","","null","<img src=""img/flower3.png"" style=""width:200px; border:14px solid green;"">","null","","","","","","","","",""
"","image-keyboard-response","160","281278","0.0-160.0","351SEKWQS132GPPCZWFB2WG7ZWTDM9","A19NGUFGC7KIGW","3VAOOVPI3ZEZMZXPLZ7IWDDZ15LLLX","","636","img/flower1.png","76","639","3","0","1","2","1,0,0,1,1,0,1,0,1","1,0,0,1,1,0,1,0,1","1",""
"","html-keyboard-response","161","281595","0.0-161.0","351SEKWQS132GPPCZWFB2WG7ZWTDM9","A19NGUFGC7KIGW","3VAOOVPI3ZEZMZXPLZ7IWDDZ15LLLX","","null","<img src=""img/flower1.png"" style=""width:200px;border:14px solid red;"">","null","","","","","","","","",""
"","image-keyboard-response","162","281968","0.0-162.0","351SEKWQS132GPPCZWFB2WG7ZWTDM9","A19NGUFGC7KIGW","3VAOOVPI3ZEZMZXPLZ7IWDDZ15LLLX","","372","img/flower3.png","74","372","1","1","3","2","1,0,0,1,1,0,1,0,1","1,0,0,1,1,0,1,0,1","1",""
"","html-keyboard-response","163","282281","0.0-163.0","351SEKWQS132GPPCZWFB2WG7ZWTDM9","A19NGUFGC7KIGW","3VAOOVPI3ZEZMZXPLZ7IWDDZ15LLLX","","null","<img src=""img/flower3.png"" style=""width:200px; border:14px solid green;"">","null","","","","","","","","",""
"","image-keyboard-response","164","282822","0.0-164.0","351SEKWQS132GPPCZWFB2WG7ZWTDM9","A19NGUFGC7KIGW","3VAOOVPI3ZEZMZXPLZ7IWDDZ15LLLX","","541","img/flower4.png","75","541","2","1","2","2","1,0,0,1,1,0,1,0,1","1,0,0,1,1,0,1,0,1","1",""
"","html-keyboard-response","165","283137","0.0-165.0","351SEKWQS132GPPCZWFB2WG7ZWTDM9","A19NGUFGC7KIGW","3VAOOVPI3ZEZMZXPLZ7IWDDZ15LLLX","","null","<img src=""img/flower4.png"" style=""width:200px; border:14px solid green;"">","null","","","","","","","","",""
"","image-keyboard-response","166","283735","0.0-166.0","351SEKWQS132GPPCZWFB2WG7ZWTDM9","A19NGUFGC7KIGW","3VAOOVPI3ZEZMZXPLZ7IWDDZ15LLLX","","598","img/flower1.png","74","598","1","1","1","2","1,0,0,1,1,0,1,0,1","1,0,0,1,1,0,1,0,1","1",""
"","html-keyboard-response","167","284048","0.0-167.0","351SEKWQS132GPPCZWFB2WG7ZWTDM9","A19NGUFGC7KIGW","3VAOOVPI3ZEZMZXPLZ7IWDDZ15LLLX","","null","<img src=""img/flower1.png"" style=""width:200px; border:14px solid green;"">","null","","","","","","","","",""
"","image-keyboard-response","168","284414","0.0-168.0","351SEKWQS132GPPCZWFB2WG7ZWTDM9","A19NGUFGC7KIGW","3VAOOVPI3ZEZMZXPLZ7IWDDZ15LLLX","","366","img/flower4.png","74","366","1","1","2","2","1,0,0,1,1,0,1,0,1","1,0,0,1,1,0,1,0,1","1",""
"","html-keyboard-response","169","284715","0.0-169.0","351SEKWQS132GPPCZWFB2WG7ZWTDM9","A19NGUFGC7KIGW","3VAOOVPI3ZEZMZXPLZ7IWDDZ15LLLX","","null","<img src=""img/flower4.png"" style=""width:200px; border:14px solid green;"">","null","","","","","","","","",""
"","image-keyboard-response","170","285081","0.0-170.0","351SEKWQS132GPPCZWFB2WG7ZWTDM9","A19NGUFGC7KIGW","3VAOOVPI3ZEZMZXPLZ7IWDDZ15LLLX","","365","img/flower4.png","75","365","2","1","2","2","1,0,0,1,1,0,1,0,1","1,0,0,1,1,0,1,0,1","1",""
"","html-keyboard-response","171","285387","0.0-171.0","351SEKWQS132GPPCZWFB2WG7ZWTDM9","A19NGUFGC7KIGW","3VAOOVPI3ZEZMZXPLZ7IWDDZ15LLLX","","null","<img src=""img/flower4.png"" style=""width:200px; border:14px solid green;"">","null","","","","","","","","",""
"","image-keyboard-response","172","285631","0.0-172.0","351SEKWQS132GPPCZWFB2WG7ZWTDM9","A19NGUFGC7KIGW","3VAOOVPI3ZEZMZXPLZ7IWDDZ15LLLX","","244","img/flower3.png","75","244","2","0","3","2","1,0,0,1,1,0,1,0,1","1,0,0,1,1,0,1,0,1","1",""
"","html-keyboard-response","173","285937","0.0-173.0","351SEKWQS132GPPCZWFB2WG7ZWTDM9","A19NGUFGC7KIGW","3VAOOVPI3ZEZMZXPLZ7IWDDZ15LLLX","","null","<img src=""img/flower3.png"" style=""width:200px;border:14px solid red;"">","null","","","","","","","","",""
"","image-keyboard-response","174","286182","0.0-174.0","351SEKWQS132GPPCZWFB2WG7ZWTDM9","A19NGUFGC7KIGW","3VAOOVPI3ZEZMZXPLZ7IWDDZ15LLLX","","245","img/flower4.png","74","246","1","1","2","2","1,0,0,1,1,0,1,0,1","1,0,0,1,1,0,1,0,1","1",""
"","html-keyboard-response","175","286492","0.0-175.0","351SEKWQS132GPPCZWFB2WG7ZWTDM9","A19NGUFGC7KIGW","3VAOOVPI3ZEZMZXPLZ7IWDDZ15LLLX","","null","<img src=""img/flower4.png"" style=""width:200px; border:14px solid green;"">","null","","","","","","","","",""
"","image-keyboard-response","176","286712","0.0-176.0","351SEKWQS132GPPCZWFB2WG7ZWTDM9","A19NGUFGC7KIGW","3VAOOVPI3ZEZMZXPLZ7IWDDZ15LLLX","","218","img/flower3.png","74","219","1","1","3","2","1,0,0,1,1,0,1,0,1","1,0,0,1,1,0,1,0,1","1",""
"","html-keyboard-response","177","287026","0.0-177.0","351SEKWQS132GPPCZWFB2WG7ZWTDM9","A19NGUFGC7KIGW","3VAOOVPI3ZEZMZXPLZ7IWDDZ15LLLX","","null","<img src=""img/flower3.png"" style=""width:200px; border:14px solid green;"">","null","","","","","","","","",""
"","image-keyboard-response","178","287207","0.0-178.0","351SEKWQS132GPPCZWFB2WG7ZWTDM9","A19NGUFGC7KIGW","3VAOOVPI3ZEZMZXPLZ7IWDDZ15LLLX","","180","img/flower1.png","74","181","1","1","1","2","1,0,0,1,1,0,1,0,1","1,0,0,1,1,0,1,0,1","1",""
"","html-keyboard-response","179","287512","0.0-179.0","351SEKWQS132GPPCZWFB2WG7ZWTDM9","A19NGUFGC7KIGW","3VAOOVPI3ZEZMZXPLZ7IWDDZ15LLLX","","null","<img src=""img/flower1.png"" style=""width:200px; border:14px solid green;"">","null","","","","","","","","",""
"","image-keyboard-response","180","287735","0.0-180.0","351SEKWQS132GPPCZWFB2WG7ZWTDM9","A19NGUFGC7KIGW","3VAOOVPI3ZEZMZXPLZ7IWDDZ15LLLX","","223","img/flower3.png","74","223","1","1","3","2","1,0,0,1,1,0,1,0,1","1,0,0,1,1,0,1,0,1","1",""
"","html-keyboard-response","181","288046","0.0-181.0","351SEKWQS132GPPCZWFB2WG7ZWTDM9","A19NGUFGC7KIGW","3VAOOVPI3ZEZMZXPLZ7IWDDZ15LLLX","","null","<img src=""img/flower3.png"" style=""width:200px; border:14px solid green;"">","null","","","","","","","","",""
"","image-keyboard-response","182","288239","0.0-182.0","351SEKWQS132GPPCZWFB2WG7ZWTDM9","A19NGUFGC7KIGW","3VAOOVPI3ZEZMZXPLZ7IWDDZ15LLLX","","193","img/flower2.png","74","193","1","1","2","1","1,0.333,0.333,0.333,1,0.333,0.333,0.333,1","1,0.333,0.333,0.333,1,0.333,0.333,0.333,1","1",""
"","html-keyboard-response","183","288549","0.0-183.0","351SEKWQS132GPPCZWFB2WG7ZWTDM9","A19NGUFGC7KIGW","3VAOOVPI3ZEZMZXPLZ7IWDDZ15LLLX","","null","<img src=""img/flower2.png"" style=""width:200px; border:14px solid green;"">","null","","","","","","","","",""
"","image-keyboard-response","184","288735","0.0-184.0","351SEKWQS132GPPCZWFB2WG7ZWTDM9","A19NGUFGC7KIGW","3VAOOVPI3ZEZMZXPLZ7IWDDZ15LLLX","","184","img/flower2.png","74","186","1","0","2","1","1,0.333,0.333,0.333,1,0.333,0.333,0.333,1","1,0.333,0.333,0.333,1,0.333,0.333,0.333,1","1",""
"","html-keyboard-response","185","289038","0.0-185.0","351SEKWQS132GPPCZWFB2WG7ZWTDM9","A19NGUFGC7KIGW","3VAOOVPI3ZEZMZXPLZ7IWDDZ15LLLX","","null","<img src=""img/flower2.png"" style=""width:200px;border:14px solid red;"">","null","","","","","","","","",""
"","image-keyboard-response","186","289287","0.0-186.0","351SEKWQS132GPPCZWFB2WG7ZWTDM9","A19NGUFGC7KIGW","3VAOOVPI3ZEZMZXPLZ7IWDDZ15LLLX","","248","img/flower2.png","74","249","1","1","2","1","1,0.333,0.333,0.333,1,0.333,0.333,0.333,1","1,0.333,0.333,0.333,1,0.333,0.333,0.333,1","1",""
"","html-keyboard-response","187","289591","0.0-187.0","351SEKWQS132GPPCZWFB2WG7ZWTDM9","A19NGUFGC7KIGW","3VAOOVPI3ZEZMZXPLZ7IWDDZ15LLLX","","null","<img src=""img/flower2.png"" style=""width:200px; border:14px solid green;"">","null","","","","","","","","",""
"","image-keyboard-response","188","289799","0.0-188.0","351SEKWQS132GPPCZWFB2WG7ZWTDM9","A19NGUFGC7KIGW","3VAOOVPI3ZEZMZXPLZ7IWDDZ15LLLX","","208","img/flower6.png","74","208","1","1","1","1","1,0.333,0.333,0.333,1,0.333,0.333,0.333,1","1,0.333,0.333,0.333,1,0.333,0.333,0.333,1","1",""
"","html-keyboard-response","189","290108","0.0-189.0","351SEKWQS132GPPCZWFB2WG7ZWTDM9","A19NGUFGC7KIGW","3VAOOVPI3ZEZMZXPLZ7IWDDZ15LLLX","","null","<img src=""img/flower6.png"" style=""width:200px; border:14px solid green;"">","null","","","","","","","","",""
"","image-keyboard-response","190","290863","0.0-190.0","351SEKWQS132GPPCZWFB2WG7ZWTDM9","A19NGUFGC7KIGW","3VAOOVPI3ZEZMZXPLZ7IWDDZ15LLLX","","754","img/flower5.png","74","755","1","1","3","1","1,0.333,0.333,0.333,1,0.333,0.333,0.333,1","1,0.333,0.333,0.333,1,0.333,0.333,0.333,1","1",""
"","html-keyboard-response","191","291170","0.0-191.0","351SEKWQS132GPPCZWFB2WG7ZWTDM9","A19NGUFGC7KIGW","3VAOOVPI3ZEZMZXPLZ7IWDDZ15LLLX","","null","<img src=""img/flower5.png"" style=""width:200px; border:14px solid green;"">","null","","","","","","","","",""
"","image-keyboard-response","192","291607","0.0-192.0","351SEKWQS132GPPCZWFB2WG7ZWTDM9","A19NGUFGC7KIGW","3VAOOVPI3ZEZMZXPLZ7IWDDZ15LLLX","","436","img/flower2.png","74","437","1","1","2","1","1,0.333,0.333,0.333,1,0.333,0.333,0.333,1","1,0.333,0.333,0.333,1,0.333,0.333,0.333,1","1",""
"","html-keyboard-response","193","291914","0.0-193.0","351SEKWQS132GPPCZWFB2WG7ZWTDM9","A19NGUFGC7KIGW","3VAOOVPI3ZEZMZXPLZ7IWDDZ15LLLX","","null","<img src=""img/flower2.png"" style=""width:200px; border:14px solid green;"">","null","","","","","","","","",""
"","image-keyboard-response","194","292598","0.0-194.0","351SEKWQS132GPPCZWFB2WG7ZWTDM9","A19NGUFGC7KIGW","3VAOOVPI3ZEZMZXPLZ7IWDDZ15LLLX","","685","img/flower6.png","74","685","1","1","1","1","1,0.333,0.333,0.333,1,0.333,0.333,0.333,1","1,0.333,0.333,0.333,1,0.333,0.333,0.333,1","1",""
"","html-keyboard-response","195","292906","0.0-195.0","351SEKWQS132GPPCZWFB2WG7ZWTDM9","A19NGUFGC7KIGW","3VAOOVPI3ZEZMZXPLZ7IWDDZ15LLLX","","null","<img src=""img/flower6.png"" style=""width:200px; border:14px solid green;"">","null","","","","","","","","",""
"","image-keyboard-response","196","293216","0.0-196.0","351SEKWQS132GPPCZWFB2WG7ZWTDM9","A19NGUFGC7KIGW","3VAOOVPI3ZEZMZXPLZ7IWDDZ15LLLX","","310","img/flower5.png","74","310","1","0","3","1","1,0.333,0.333,0.333,1,0.333,0.333,0.333,1","1,0.333,0.333,0.333,1,0.333,0.333,0.333,1","1",""
"","html-keyboard-response","197","293523","0.0-197.0","351SEKWQS132GPPCZWFB2WG7ZWTDM9","A19NGUFGC7KIGW","3VAOOVPI3ZEZMZXPLZ7IWDDZ15LLLX","","null","<img src=""img/flower5.png"" style=""width:200px;border:14px solid red;"">","null","","","","","","","","",""
"","image-keyboard-response","198","293799","0.0-198.0","351SEKWQS132GPPCZWFB2WG7ZWTDM9","A19NGUFGC7KIGW","3VAOOVPI3ZEZMZXPLZ7IWDDZ15LLLX","","275","img/flower5.png","74","276","1","1","3","1","1,0.333,0.333,0.333,1,0.333,0.333,0.333,1","1,0.333,0.333,0.333,1,0.333,0.333,0.333,1","1",""
"","html-keyboard-response","199","294105","0.0-199.0","351SEKWQS132GPPCZWFB2WG7ZWTDM9","A19NGUFGC7KIGW","3VAOOVPI3ZEZMZXPLZ7IWDDZ15LLLX","","null","<img src=""img/flower5.png"" style=""width:200px; border:14px solid green;"">","null","","","","","","","","",""
"","image-keyboard-response","200","294408","0.0-200.0","351SEKWQS132GPPCZWFB2WG7ZWTDM9","A19NGUFGC7KIGW","3VAOOVPI3ZEZMZXPLZ7IWDDZ15LLLX","","301","img/flower2.png","74","301","1","0","2","1","1,0.333,0.333,0.333,1,0.333,0.333,0.333,1","1,0.333,0.333,0.333,1,0.333,0.333,0.333,1","1",""
"","html-keyboard-response","201","294708","0.0-201.0","351SEKWQS132GPPCZWFB2WG7ZWTDM9","A19NGUFGC7KIGW","3VAOOVPI3ZEZMZXPLZ7IWDDZ15LLLX","","null","<img src=""img/flower2.png"" style=""width:200px;border:14px solid red;"">","null","","","","","","","","",""
"","image-keyboard-response","202","294992","0.0-202.0","351SEKWQS132GPPCZWFB2WG7ZWTDM9","A19NGUFGC7KIGW","3VAOOVPI3ZEZMZXPLZ7IWDDZ15LLLX","","283","img/flower2.png","74","284","1","0","2","1","1,0.333,0.333,0.333,1,0.333,0.333,0.333,1","1,0.333,0.333,0.333,1,0.333,0.333,0.333,1","1",""
"","html-keyboard-response","203","295294","0.0-203.0","351SEKWQS132GPPCZWFB2WG7ZWTDM9","A19NGUFGC7KIGW","3VAOOVPI3ZEZMZXPLZ7IWDDZ15LLLX","","null","<img src=""img/flower2.png"" style=""width:200px;border:14px solid red;"">","null","","","","","","","","",""
"","image-keyboard-response","204","295567","0.0-204.0","351SEKWQS132GPPCZWFB2WG7ZWTDM9","A19NGUFGC7KIGW","3VAOOVPI3ZEZMZXPLZ7IWDDZ15LLLX","","272","img/flower5.png","74","273","1","1","3","1","1,0.333,0.333,0.333,1,0.333,0.333,0.333,1","1,0.333,0.333,0.333,1,0.333,0.333,0.333,1","1",""
"","html-keyboard-response","205","295872","0.0-205.0","351SEKWQS132GPPCZWFB2WG7ZWTDM9","A19NGUFGC7KIGW","3VAOOVPI3ZEZMZXPLZ7IWDDZ15LLLX","","null","<img src=""img/flower5.png"" style=""width:200px; border:14px solid green;"">","null","","","","","","","","",""
"","image-keyboard-response","206","296111","0.0-206.0","351SEKWQS132GPPCZWFB2WG7ZWTDM9","A19NGUFGC7KIGW","3VAOOVPI3ZEZMZXPLZ7IWDDZ15LLLX","","238","img/flower5.png","74","238","1","0","3","1","1,0.333,0.333,0.333,1,0.333,0.333,0.333,1","1,0.333,0.333,0.333,1,0.333,0.333,0.333,1","1",""
"","html-keyboard-response","207","296419","0.0-207.0","351SEKWQS132GPPCZWFB2WG7ZWTDM9","A19NGUFGC7KIGW","3VAOOVPI3ZEZMZXPLZ7IWDDZ15LLLX","","null","<img src=""img/flower5.png"" style=""width:200px;border:14px solid red;"">","null","","","","","","","","",""
"","image-keyboard-response","208","297111","0.0-208.0","351SEKWQS132GPPCZWFB2WG7ZWTDM9","A19NGUFGC7KIGW","3VAOOVPI3ZEZMZXPLZ7IWDDZ15LLLX","","691","img/flower5.png","76","692","3","1","3","1","1,0.333,0.333,0.333,1,0.333,0.333,0.333,1","1,0.333,0.333,0.333,1,0.333,0.333,0.333,1","1",""
"","html-keyboard-response","209","297413","0.0-209.0","351SEKWQS132GPPCZWFB2WG7ZWTDM9","A19NGUFGC7KIGW","3VAOOVPI3ZEZMZXPLZ7IWDDZ15LLLX","","null","<img src=""img/flower5.png"" style=""width:200px; border:14px solid green;"">","null","","","","","","","","",""
"","image-keyboard-response","210","297646","0.0-210.0","351SEKWQS132GPPCZWFB2WG7ZWTDM9","A19NGUFGC7KIGW","3VAOOVPI3ZEZMZXPLZ7IWDDZ15LLLX","","234","img/flower5.png","76","234","3","1","3","1","1,0.333,0.333,0.333,1,0.333,0.333,0.333,1","1,0.333,0.333,0.333,1,0.333,0.333,0.333,1","1",""
"","html-keyboard-response","211","297949","0.0-211.0","351SEKWQS132GPPCZWFB2WG7ZWTDM9","A19NGUFGC7KIGW","3VAOOVPI3ZEZMZXPLZ7IWDDZ15LLLX","","null","<img src=""img/flower5.png"" style=""width:200px; border:14px solid green;"">","null","","","","","","","","",""
"","image-keyboard-response","212","298383","0.0-212.0","351SEKWQS132GPPCZWFB2WG7ZWTDM9","A19NGUFGC7KIGW","3VAOOVPI3ZEZMZXPLZ7IWDDZ15LLLX","","433","img/flower2.png","74","433","1","1","2","1","1,0.333,0.333,0.333,1,0.333,0.333,0.333,1","1,0.333,0.333,0.333,1,0.333,0.333,0.333,1","1",""
"","html-keyboard-response","213","298684","0.0-213.0","351SEKWQS132GPPCZWFB2WG7ZWTDM9","A19NGUFGC7KIGW","3VAOOVPI3ZEZMZXPLZ7IWDDZ15LLLX","","null","<img src=""img/flower2.png"" style=""width:200px; border:14px solid green;"">","null","","","","","","","","",""
"","image-keyboard-response","214","299166","0.0-214.0","351SEKWQS132GPPCZWFB2WG7ZWTDM9","A19NGUFGC7KIGW","3VAOOVPI3ZEZMZXPLZ7IWDDZ15LLLX","","481","img/flower6.png","74","481","1","1","1","1","1,0.333,0.333,0.333,1,0.333,0.333,0.333,1","1,0.333,0.333,0.333,1,0.333,0.333,0.333,1","1",""
"","html-keyboard-response","215","299477","0.0-215.0","351SEKWQS132GPPCZWFB2WG7ZWTDM9","A19NGUFGC7KIGW","3VAOOVPI3ZEZMZXPLZ7IWDDZ15LLLX","","null","<img src=""img/flower6.png"" style=""width:200px; border:14px solid green;"">","null","","","","","","","","",""
"","image-keyboard-response","216","299806","0.0-216.0","351SEKWQS132GPPCZWFB2WG7ZWTDM9","A19NGUFGC7KIGW","3VAOOVPI3ZEZMZXPLZ7IWDDZ15LLLX","","328","img/flower6.png","74","328","1","1","1","1","1,0.333,0.333,0.333,1,0.333,0.333,0.333,1","1,0.333,0.333,0.333,1,0.333,0.333,0.333,1","1",""
"","html-keyboard-response","217","300113","0.0-217.0","351SEKWQS132GPPCZWFB2WG7ZWTDM9","A19NGUFGC7KIGW","3VAOOVPI3ZEZMZXPLZ7IWDDZ15LLLX","","null","<img src=""img/flower6.png"" style=""width:200px; border:14px solid green;"">","null","","","","","","","","",""
"","image-keyboard-response","218","300545","0.0-218.0","351SEKWQS132GPPCZWFB2WG7ZWTDM9","A19NGUFGC7KIGW","3VAOOVPI3ZEZMZXPLZ7IWDDZ15LLLX","","433","img/flower5.png","76","433","3","1","3","1","1,0.333,0.333,0.333,1,0.333,0.333,0.333,1","1,0.333,0.333,0.333,1,0.333,0.333,0.333,1","1",""
"","html-keyboard-response","219","300856","0.0-219.0","351SEKWQS132GPPCZWFB2WG7ZWTDM9","A19NGUFGC7KIGW","3VAOOVPI3ZEZMZXPLZ7IWDDZ15LLLX","","null","<img src=""img/flower5.png"" style=""width:200px; border:14px solid green;"">","null","","","","","","","","",""
"","image-keyboard-response","220","301065","0.0-220.0","351SEKWQS132GPPCZWFB2WG7ZWTDM9","A19NGUFGC7KIGW","3VAOOVPI3ZEZMZXPLZ7IWDDZ15LLLX","","207","img/flower5.png","76","207","3","1","3","1","1,0.333,0.333,0.333,1,0.333,0.333,0.333,1","1,0.333,0.333,0.333,1,0.333,0.333,0.333,1","1",""
"","html-keyboard-response","221","301378","0.0-221.0","351SEKWQS132GPPCZWFB2WG7ZWTDM9","A19NGUFGC7KIGW","3VAOOVPI3ZEZMZXPLZ7IWDDZ15LLLX","","null","<img src=""img/flower5.png"" style=""width:200px; border:14px solid green;"">","null","","","","","","","","",""
"","image-keyboard-response","222","301642","0.0-222.0","351SEKWQS132GPPCZWFB2WG7ZWTDM9","A19NGUFGC7KIGW","3VAOOVPI3ZEZMZXPLZ7IWDDZ15LLLX","","262","img/flower5.png","76","262","3","1","3","1","1,0.333,0.333,0.333,1,0.333,0.333,0.333,1","1,0.333,0.333,0.333,1,0.333,0.333,0.333,1","1",""
"","html-keyboard-response","223","301947","0.0-223.0","351SEKWQS132GPPCZWFB2WG7ZWTDM9","A19NGUFGC7KIGW","3VAOOVPI3ZEZMZXPLZ7IWDDZ15LLLX","","null","<img src=""img/flower5.png"" style=""width:200px; border:14px solid green;"">","null","","","","","","","","",""
"","image-keyboard-response","224","302144","0.0-224.0","351SEKWQS132GPPCZWFB2WG7ZWTDM9","A19NGUFGC7KIGW","3VAOOVPI3ZEZMZXPLZ7IWDDZ15LLLX","","195","img/flower6.png","76","197","3","1","1","1","1,0.333,0.333,0.333,1,0.333,0.333,0.333,1","1,0.333,0.333,0.333,1,0.333,0.333,0.333,1","1",""
"","html-keyboard-response","225","302453","0.0-225.0","351SEKWQS132GPPCZWFB2WG7ZWTDM9","A19NGUFGC7KIGW","3VAOOVPI3ZEZMZXPLZ7IWDDZ15LLLX","","null","<img src=""img/flower6.png"" style=""width:200px; border:14px solid green;"">","null","","","","","","","","",""
"","image-keyboard-response","226","303185","0.0-226.0","351SEKWQS132GPPCZWFB2WG7ZWTDM9","A19NGUFGC7KIGW","3VAOOVPI3ZEZMZXPLZ7IWDDZ15LLLX","","731","img/flower2.png","74","731","1","0","2","1","1,0.333,0.333,0.333,1,0.333,0.333,0.333,1","1,0.333,0.333,0.333,1,0.333,0.333,0.333,1","1",""
"","html-keyboard-response","227","303499","0.0-227.0","351SEKWQS132GPPCZWFB2WG7ZWTDM9","A19NGUFGC7KIGW","3VAOOVPI3ZEZMZXPLZ7IWDDZ15LLLX","","null","<img src=""img/flower2.png"" style=""width:200px;border:14px solid red;"">","null","","","","","","","","",""
"","image-keyboard-response","228","303969","0.0-228.0","351SEKWQS132GPPCZWFB2WG7ZWTDM9","A19NGUFGC7KIGW","3VAOOVPI3ZEZMZXPLZ7IWDDZ15LLLX","","470","img/flower2.png","75","471","2","1","2","1","1,0.333,0.333,0.333,1,0.333,0.333,0.333,1","1,0.333,0.333,0.333,1,0.333,0.333,0.333,1","1",""
"","html-keyboard-response","229","304284","0.0-229.0","351SEKWQS132GPPCZWFB2WG7ZWTDM9","A19NGUFGC7KIGW","3VAOOVPI3ZEZMZXPLZ7IWDDZ15LLLX","","null","<img src=""img/flower2.png"" style=""width:200px; border:14px solid green;"">","null","","","","","","","","",""
"","image-keyboard-response","230","304673","0.0-230.0","351SEKWQS132GPPCZWFB2WG7ZWTDM9","A19NGUFGC7KIGW","3VAOOVPI3ZEZMZXPLZ7IWDDZ15LLLX","","389","img/flower5.png","75","389","2","1","3","1","1,0.333,0.333,0.333,1,0.333,0.333,0.333,1","1,0.333,0.333,0.333,1,0.333,0.333,0.333,1","1",""
"","html-keyboard-response","231","304981","0.0-231.0","351SEKWQS132GPPCZWFB2WG7ZWTDM9","A19NGUFGC7KIGW","3VAOOVPI3ZEZMZXPLZ7IWDDZ15LLLX","","null","<img src=""img/flower5.png"" style=""width:200px; border:14px solid green;"">","null","","","","","","","","",""
"","image-keyboard-response","232","305502","0.0-232.0","351SEKWQS132GPPCZWFB2WG7ZWTDM9","A19NGUFGC7KIGW","3VAOOVPI3ZEZMZXPLZ7IWDDZ15LLLX","","522","img/flower6.png","76","523","3","1","1","1","1,0.333,0.333,0.333,1,0.333,0.333,0.333,1","1,0.333,0.333,0.333,1,0.333,0.333,0.333,1","1",""
"","html-keyboard-response","233","305812","0.0-233.0","351SEKWQS132GPPCZWFB2WG7ZWTDM9","A19NGUFGC7KIGW","3VAOOVPI3ZEZMZXPLZ7IWDDZ15LLLX","","null","<img src=""img/flower6.png"" style=""width:200px; border:14px solid green;"">","null","","","","","","","","",""
"","image-keyboard-response","234","306112","0.0-234.0","351SEKWQS132GPPCZWFB2WG7ZWTDM9","A19NGUFGC7KIGW","3VAOOVPI3ZEZMZXPLZ7IWDDZ15LLLX","","299","img/flower6.png","76","299","3","0","1","1","1,0.333,0.333,0.333,1,0.333,0.333,0.333,1","1,0.333,0.333,0.333,1,0.333,0.333,0.333,1","1",""
"","html-keyboard-response","235","306422","0.0-235.0","351SEKWQS132GPPCZWFB2WG7ZWTDM9","A19NGUFGC7KIGW","3VAOOVPI3ZEZMZXPLZ7IWDDZ15LLLX","","null","<img src=""img/flower6.png"" style=""width:200px;border:14px solid red;"">","null","","","","","","","","",""
"","image-keyboard-response","236","306911","0.0-236.0","351SEKWQS132GPPCZWFB2WG7ZWTDM9","A19NGUFGC7KIGW","3VAOOVPI3ZEZMZXPLZ7IWDDZ15LLLX","","488","img/flower5.png","74","488","1","1","3","1","1,0.333,0.333,0.333,1,0.333,0.333,0.333,1","1,0.333,0.333,0.333,1,0.333,0.333,0.333,1","1",""
"","html-keyboard-response","237","307215","0.0-237.0","351SEKWQS132GPPCZWFB2WG7ZWTDM9","A19NGUFGC7KIGW","3VAOOVPI3ZEZMZXPLZ7IWDDZ15LLLX","","null","<img src=""img/flower5.png"" style=""width:200px; border:14px solid green;"">","null","","","","","","","","",""
"","image-keyboard-response","238","307559","0.0-238.0","351SEKWQS132GPPCZWFB2WG7ZWTDM9","A19NGUFGC7KIGW","3VAOOVPI3ZEZMZXPLZ7IWDDZ15LLLX","","344","img/flower2.png","75","345","2","1","2","1","1,0.333,0.333,0.333,1,0.333,0.333,0.333,1","1,0.333,0.333,0.333,1,0.333,0.333,0.333,1","1",""
"","html-keyboard-response","239","307863","0.0-239.0","351SEKWQS132GPPCZWFB2WG7ZWTDM9","A19NGUFGC7KIGW","3VAOOVPI3ZEZMZXPLZ7IWDDZ15LLLX","","null","<img src=""img/flower2.png"" style=""width:200px; border:14px solid green;"">","null","","","","","","","","",""
"","image-keyboard-response","240","308375","0.0-240.0","351SEKWQS132GPPCZWFB2WG7ZWTDM9","A19NGUFGC7KIGW","3VAOOVPI3ZEZMZXPLZ7IWDDZ15LLLX","","511","img/flower6.png","74","512","1","1","1","1","1,0.333,0.333,0.333,1,0.333,0.333,0.333,1","1,0.333,0.333,0.333,1,0.333,0.333,0.333,1","1",""
"","html-keyboard-response","241","308686","0.0-241.0","351SEKWQS132GPPCZWFB2WG7ZWTDM9","A19NGUFGC7KIGW","3VAOOVPI3ZEZMZXPLZ7IWDDZ15LLLX","","null","<img src=""img/flower6.png"" style=""width:200px; border:14px solid green;"">","null","","","","","","","","",""
"","image-keyboard-response","242","308944","0.0-242.0","351SEKWQS132GPPCZWFB2WG7ZWTDM9","A19NGUFGC7KIGW","3VAOOVPI3ZEZMZXPLZ7IWDDZ15LLLX","","257","img/flower2.png","74","258","1","1","2","1","1,0.333,0.333,0.333,1,0.333,0.333,0.333,1","1,0.333,0.333,0.333,1,0.333,0.333,0.333,1","1",""
"","html-keyboard-response","243","309258","0.0-243.0","351SEKWQS132GPPCZWFB2WG7ZWTDM9","A19NGUFGC7KIGW","3VAOOVPI3ZEZMZXPLZ7IWDDZ15LLLX","","null","<img src=""img/flower2.png"" style=""width:200px; border:14px solid green;"">","null","","","","","","","","",""
"","image-keyboard-response","244","309695","0.0-244.0","351SEKWQS132GPPCZWFB2WG7ZWTDM9","A19NGUFGC7KIGW","3VAOOVPI3ZEZMZXPLZ7IWDDZ15LLLX","","437","img/flower6.png","74","437","1","1","1","1","1,0.333,0.333,0.333,1,0.333,0.333,0.333,1","1,0.333,0.333,0.333,1,0.333,0.333,0.333,1","1",""
"","html-keyboard-response","245","310006","0.0-245.0","351SEKWQS132GPPCZWFB2WG7ZWTDM9","A19NGUFGC7KIGW","3VAOOVPI3ZEZMZXPLZ7IWDDZ15LLLX","","null","<img src=""img/flower6.png"" style=""width:200px; border:14px solid green;"">","null","","","","","","","","",""
"","image-keyboard-response","246","310279","0.0-246.0","351SEKWQS132GPPCZWFB2WG7ZWTDM9","A19NGUFGC7KIGW","3VAOOVPI3ZEZMZXPLZ7IWDDZ15LLLX","","272","img/flower2.png","74","273","1","0","2","1","1,0.333,0.333,0.333,1,0.333,0.333,0.333,1","1,0.333,0.333,0.333,1,0.333,0.333,0.333,1","1",""
"","html-keyboard-response","247","310590","0.0-247.0","351SEKWQS132GPPCZWFB2WG7ZWTDM9","A19NGUFGC7KIGW","3VAOOVPI3ZEZMZXPLZ7IWDDZ15LLLX","","null","<img src=""img/flower2.png"" style=""width:200px;border:14px solid red;"">","null","","","","","","","","",""
"","image-keyboard-response","248","310984","0.0-248.0","351SEKWQS132GPPCZWFB2WG7ZWTDM9","A19NGUFGC7KIGW","3VAOOVPI3ZEZMZXPLZ7IWDDZ15LLLX","","393","img/flower2.png","75","394","2","1","2","1","1,0.333,0.333,0.333,1,0.333,0.333,0.333,1","1,0.333,0.333,0.333,1,0.333,0.333,0.333,1","1",""
"","html-keyboard-response","249","311286","0.0-249.0","351SEKWQS132GPPCZWFB2WG7ZWTDM9","A19NGUFGC7KIGW","3VAOOVPI3ZEZMZXPLZ7IWDDZ15LLLX","","null","<img src=""img/flower2.png"" style=""width:200px; border:14px solid green;"">","null","","","","","","","","",""
"","image-keyboard-response","250","311576","0.0-250.0","351SEKWQS132GPPCZWFB2WG7ZWTDM9","A19NGUFGC7KIGW","3VAOOVPI3ZEZMZXPLZ7IWDDZ15LLLX","","291","img/flower2.png","76","291","3","1","2","1","1,0.333,0.333,0.333,1,0.333,0.333,0.333,1","1,0.333,0.333,0.333,1,0.333,0.333,0.333,1","1",""
"","html-keyboard-response","251","311889","0.0-251.0","351SEKWQS132GPPCZWFB2WG7ZWTDM9","A19NGUFGC7KIGW","3VAOOVPI3ZEZMZXPLZ7IWDDZ15LLLX","","null","<img src=""img/flower2.png"" style=""width:200px; border:14px solid green;"">","null","","","","","","","","",""
"","image-keyboard-response","252","312201","0.0-252.0","351SEKWQS132GPPCZWFB2WG7ZWTDM9","A19NGUFGC7KIGW","3VAOOVPI3ZEZMZXPLZ7IWDDZ15LLLX","","312","img/flower2.png","76","313","3","0","2","1","1,0.333,0.333,0.333,1,0.333,0.333,0.333,1","1,0.333,0.333,0.333,1,0.333,0.333,0.333,1","1",""
"","html-keyboard-response","253","312515","0.0-253.0","351SEKWQS132GPPCZWFB2WG7ZWTDM9","A19NGUFGC7KIGW","3VAOOVPI3ZEZMZXPLZ7IWDDZ15LLLX","","null","<img src=""img/flower2.png"" style=""width:200px;border:14px solid red;"">","null","","","","","","","","",""
"","image-keyboard-response","254","312784","0.0-254.0","351SEKWQS132GPPCZWFB2WG7ZWTDM9","A19NGUFGC7KIGW","3VAOOVPI3ZEZMZXPLZ7IWDDZ15LLLX","","268","img/flower2.png","74","268","1","0","2","1","1,0.333,0.333,0.333,1,0.333,0.333,0.333,1","1,0.333,0.333,0.333,1,0.333,0.333,0.333,1","1",""
"","html-keyboard-response","255","313084","0.0-255.0","351SEKWQS132GPPCZWFB2WG7ZWTDM9","A19NGUFGC7KIGW","3VAOOVPI3ZEZMZXPLZ7IWDDZ15LLLX","","null","<img src=""img/flower2.png"" style=""width:200px;border:14px solid red;"">","null","","","","","","","","",""
"","image-keyboard-response","256","313297","0.0-256.0","351SEKWQS132GPPCZWFB2WG7ZWTDM9","A19NGUFGC7KIGW","3VAOOVPI3ZEZMZXPLZ7IWDDZ15LLLX","","211","img/flower6.png","75","211","2","1","1","1","1,0.333,0.333,0.333,1,0.333,0.333,0.333,1","1,0.333,0.333,0.333,1,0.333,0.333,0.333,1","1",""
"","html-keyboard-response","257","313607","0.0-257.0","351SEKWQS132GPPCZWFB2WG7ZWTDM9","A19NGUFGC7KIGW","3VAOOVPI3ZEZMZXPLZ7IWDDZ15LLLX","","null","<img src=""img/flower6.png"" style=""width:200px; border:14px solid green;"">","null","","","","","","","","",""
"","image-keyboard-response","258","313838","0.0-258.0","351SEKWQS132GPPCZWFB2WG7ZWTDM9","A19NGUFGC7KIGW","3VAOOVPI3ZEZMZXPLZ7IWDDZ15LLLX","","230","img/flower2.png","74","230","1","1","2","1","1,0.333,0.333,0.333,1,0.333,0.333,0.333,1","1,0.333,0.333,0.333,1,0.333,0.333,0.333,1","1",""
"","html-keyboard-response","259","314143","0.0-259.0","351SEKWQS132GPPCZWFB2WG7ZWTDM9","A19NGUFGC7KIGW","3VAOOVPI3ZEZMZXPLZ7IWDDZ15LLLX","","null","<img src=""img/flower2.png"" style=""width:200px; border:14px solid green;"">","null","","","","","","","","",""
"","image-keyboard-response","260","314414","0.0-260.0","351SEKWQS132GPPCZWFB2WG7ZWTDM9","A19NGUFGC7KIGW","3VAOOVPI3ZEZMZXPLZ7IWDDZ15LLLX","","269","img/flower2.png","75","271","2","1","2","1","1,0.333,0.333,0.333,1,0.333,0.333,0.333,1","1,0.333,0.333,0.333,1,0.333,0.333,0.333,1","1",""
"","html-keyboard-response","261","314717","0.0-261.0","351SEKWQS132GPPCZWFB2WG7ZWTDM9","A19NGUFGC7KIGW","3VAOOVPI3ZEZMZXPLZ7IWDDZ15LLLX","","null","<img src=""img/flower2.png"" style=""width:200px; border:14px solid green;"">","null","","","","","","","","",""
"","image-keyboard-response","262","314911","0.0-262.0","351SEKWQS132GPPCZWFB2WG7ZWTDM9","A19NGUFGC7KIGW","3VAOOVPI3ZEZMZXPLZ7IWDDZ15LLLX","","193","img/flower5.png","75","193","2","1","3","1","1,0.333,0.333,0.333,1,0.333,0.333,0.333,1","1,0.333,0.333,0.333,1,0.333,0.333,0.333,1","1",""
"","html-keyboard-response","263","315222","0.0-263.0","351SEKWQS132GPPCZWFB2WG7ZWTDM9","A19NGUFGC7KIGW","3VAOOVPI3ZEZMZXPLZ7IWDDZ15LLLX","","null","<img src=""img/flower5.png"" style=""width:200px; border:14px solid green;"">","null","","","","","","","","",""
"","image-keyboard-response","264","315623","0.0-264.0","351SEKWQS132GPPCZWFB2WG7ZWTDM9","A19NGUFGC7KIGW","3VAOOVPI3ZEZMZXPLZ7IWDDZ15LLLX","","400","img/flower5.png","75","400","2","1","3","1","1,0.333,0.333,0.333,1,0.333,0.333,0.333,1","1,0.333,0.333,0.333,1,0.333,0.333,0.333,1","1",""
"","html-keyboard-response","265","315932","0.0-265.0","351SEKWQS132GPPCZWFB2WG7ZWTDM9","A19NGUFGC7KIGW","3VAOOVPI3ZEZMZXPLZ7IWDDZ15LLLX","","null","<img src=""img/flower5.png"" style=""width:200px; border:14px solid green;"">","null","","","","","","","","",""
"","image-keyboard-response","266","316198","0.0-266.0","351SEKWQS132GPPCZWFB2WG7ZWTDM9","A19NGUFGC7KIGW","3VAOOVPI3ZEZMZXPLZ7IWDDZ15LLLX","","265","img/flower6.png","76","265","3","0","1","1","1,0.333,0.333,0.333,1,0.333,0.333,0.333,1","1,0.333,0.333,0.333,1,0.333,0.333,0.333,1","1",""
"","html-keyboard-response","267","316499","0.0-267.0","351SEKWQS132GPPCZWFB2WG7ZWTDM9","A19NGUFGC7KIGW","3VAOOVPI3ZEZMZXPLZ7IWDDZ15LLLX","","null","<img src=""img/flower6.png"" style=""width:200px;border:14px solid red;"">","null","","","","","","","","",""
"","image-keyboard-response","268","316783","0.0-268.0","351SEKWQS132GPPCZWFB2WG7ZWTDM9","A19NGUFGC7KIGW","3VAOOVPI3ZEZMZXPLZ7IWDDZ15LLLX","","283","img/flower6.png","74","284","1","1","1","1","1,0.333,0.333,0.333,1,0.333,0.333,0.333,1","1,0.333,0.333,0.333,1,0.333,0.333,0.333,1","1",""
"","html-keyboard-response","269","317086","0.0-269.0","351SEKWQS132GPPCZWFB2WG7ZWTDM9","A19NGUFGC7KIGW","3VAOOVPI3ZEZMZXPLZ7IWDDZ15LLLX","","null","<img src=""img/flower6.png"" style=""width:200px; border:14px solid green;"">","null","","","","","","","","",""
"","image-keyboard-response","270","317679","0.0-270.0","351SEKWQS132GPPCZWFB2WG7ZWTDM9","A19NGUFGC7KIGW","3VAOOVPI3ZEZMZXPLZ7IWDDZ15LLLX","","593","img/flower5.png","75","593","2","0","3","1","1,0.333,0.333,0.333,1,0.333,0.333,0.333,1","1,0.333,0.333,0.333,1,0.333,0.333,0.333,1","1",""
"","html-keyboard-response","271","317989","0.0-271.0","351SEKWQS132GPPCZWFB2WG7ZWTDM9","A19NGUFGC7KIGW","3VAOOVPI3ZEZMZXPLZ7IWDDZ15LLLX","","null","<img src=""img/flower5.png"" style=""width:200px;border:14px solid red;"">","null","","","","","","","","",""
"","image-keyboard-response","272","318176","0.0-272.0","351SEKWQS132GPPCZWFB2WG7ZWTDM9","A19NGUFGC7KIGW","3VAOOVPI3ZEZMZXPLZ7IWDDZ15LLLX","","186","img/flower5.png","76","187","3","1","3","1","1,0.333,0.333,0.333,1,0.333,0.333,0.333,1","1,0.333,0.333,0.333,1,0.333,0.333,0.333,1","1",""
"","html-keyboard-response","273","318480","0.0-273.0","351SEKWQS132GPPCZWFB2WG7ZWTDM9","A19NGUFGC7KIGW","3VAOOVPI3ZEZMZXPLZ7IWDDZ15LLLX","","null","<img src=""img/flower5.png"" style=""width:200px; border:14px solid green;"">","null","","","","","","","","",""
"","image-keyboard-response","274","318663","0.0-274.0","351SEKWQS132GPPCZWFB2WG7ZWTDM9","A19NGUFGC7KIGW","3VAOOVPI3ZEZMZXPLZ7IWDDZ15LLLX","","183","img/flower2.png","76","183","3","1","2","1","1,0.333,0.333,0.333,1,0.333,0.333,0.333,1","1,0.333,0.333,0.333,1,0.333,0.333,0.333,1","1",""
"","html-keyboard-response","275","318966","0.0-275.0","351SEKWQS132GPPCZWFB2WG7ZWTDM9","A19NGUFGC7KIGW","3VAOOVPI3ZEZMZXPLZ7IWDDZ15LLLX","","null","<img src=""img/flower2.png"" style=""width:200px; border:14px solid green;"">","null","","","","","","","","",""
"","image-keyboard-response","276","319799","0.0-276.0","351SEKWQS132GPPCZWFB2WG7ZWTDM9","A19NGUFGC7KIGW","3VAOOVPI3ZEZMZXPLZ7IWDDZ15LLLX","","832","img/flower6.png","74","832","1","1","1","1","1,0.333,0.333,0.333,1,0.333,0.333,0.333,1","1,0.333,0.333,0.333,1,0.333,0.333,0.333,1","1",""
"","html-keyboard-response","277","320108","0.0-277.0","351SEKWQS132GPPCZWFB2WG7ZWTDM9","A19NGUFGC7KIGW","3VAOOVPI3ZEZMZXPLZ7IWDDZ15LLLX","","null","<img src=""img/flower6.png"" style=""width:200px; border:14px solid green;"">","null","","","","","","","","",""
"","image-keyboard-response","278","320391","0.0-278.0","351SEKWQS132GPPCZWFB2WG7ZWTDM9","A19NGUFGC7KIGW","3VAOOVPI3ZEZMZXPLZ7IWDDZ15LLLX","","282","img/flower6.png","74","282","1","1","1","1","1,0.333,0.333,0.333,1,0.333,0.333,0.333,1","1,0.333,0.333,0.333,1,0.333,0.333,0.333,1","1",""
"","html-keyboard-response","279","320706","0.0-279.0","351SEKWQS132GPPCZWFB2WG7ZWTDM9","A19NGUFGC7KIGW","3VAOOVPI3ZEZMZXPLZ7IWDDZ15LLLX","","null","<img src=""img/flower6.png"" style=""width:200px; border:14px solid green;"">","null","","","","","","","","",""
"","image-keyboard-response","280","320885","0.0-280.0","351SEKWQS132GPPCZWFB2WG7ZWTDM9","A19NGUFGC7KIGW","3VAOOVPI3ZEZMZXPLZ7IWDDZ15LLLX","","180","img/flower2.png","74","180","1","0","2","1","1,0.333,0.333,0.333,1,0.333,0.333,0.333,1","1,0.333,0.333,0.333,1,0.333,0.333,0.333,1","1",""
"","html-keyboard-response","281","321198","0.0-281.0","351SEKWQS132GPPCZWFB2WG7ZWTDM9","A19NGUFGC7KIGW","3VAOOVPI3ZEZMZXPLZ7IWDDZ15LLLX","","null","<img src=""img/flower2.png"" style=""width:200px;border:14px solid red;"">","null","","","","","","","","",""
"","image-keyboard-response","282","321853","0.0-282.0","351SEKWQS132GPPCZWFB2WG7ZWTDM9","A19NGUFGC7KIGW","3VAOOVPI3ZEZMZXPLZ7IWDDZ15LLLX","","656","img/flower6.png","74","656","1","1","1","1","1,0.333,0.333,0.333,1,0.333,0.333,0.333,1","1,0.333,0.333,0.333,1,0.333,0.333,0.333,1","1",""
"","html-keyboard-response","283","322161","0.0-283.0","351SEKWQS132GPPCZWFB2WG7ZWTDM9","A19NGUFGC7KIGW","3VAOOVPI3ZEZMZXPLZ7IWDDZ15LLLX","","null","<img src=""img/flower6.png"" style=""width:200px; border:14px solid green;"">","null","","","","","","","","",""
"","image-keyboard-response","284","322495","0.0-284.0","351SEKWQS132GPPCZWFB2WG7ZWTDM9","A19NGUFGC7KIGW","3VAOOVPI3ZEZMZXPLZ7IWDDZ15LLLX","","334","img/flower2.png","76","334","3","1","2","1","1,0.333,0.333,0.333,1,0.333,0.333,0.333,1","1,0.333,0.333,0.333,1,0.333,0.333,0.333,1","1",""
"","html-keyboard-response","285","322807","0.0-285.0","351SEKWQS132GPPCZWFB2WG7ZWTDM9","A19NGUFGC7KIGW","3VAOOVPI3ZEZMZXPLZ7IWDDZ15LLLX","","null","<img src=""img/flower2.png"" style=""width:200px; border:14px solid green;"">","null","","","","","","","","",""
"","image-keyboard-response","286","323086","0.0-286.0","351SEKWQS132GPPCZWFB2WG7ZWTDM9","A19NGUFGC7KIGW","3VAOOVPI3ZEZMZXPLZ7IWDDZ15LLLX","","278","img/flower2.png","76","279","3","0","2","1","1,0.333,0.333,0.333,1,0.333,0.333,0.333,1","1,0.333,0.333,0.333,1,0.333,0.333,0.333,1","1",""
"","html-keyboard-response","287","323389","0.0-287.0","351SEKWQS132GPPCZWFB2WG7ZWTDM9","A19NGUFGC7KIGW","3VAOOVPI3ZEZMZXPLZ7IWDDZ15LLLX","","null","<img src=""img/flower2.png"" style=""width:200px;border:14px solid red;"">","null","","","","","","","","",""
"","image-keyboard-response","288","323743","0.0-288.0","351SEKWQS132GPPCZWFB2WG7ZWTDM9","A19NGUFGC7KIGW","3VAOOVPI3ZEZMZXPLZ7IWDDZ15LLLX","","354","img/flower2.png","75","354","2","1","2","1","1,0.333,0.333,0.333,1,0.333,0.333,0.333,1","1,0.333,0.333,0.333,1,0.333,0.333,0.333,1","1",""
"","html-keyboard-response","289","324053","0.0-289.0","351SEKWQS132GPPCZWFB2WG7ZWTDM9","A19NGUFGC7KIGW","3VAOOVPI3ZEZMZXPLZ7IWDDZ15LLLX","","null","<img src=""img/flower2.png"" style=""width:200px; border:14px solid green;"">","null","","","","","","","","",""
"","image-keyboard-response","290","324327","0.0-290.0","351SEKWQS132GPPCZWFB2WG7ZWTDM9","A19NGUFGC7KIGW","3VAOOVPI3ZEZMZXPLZ7IWDDZ15LLLX","","274","img/flower5.png","75","274","2","1","3","1","1,0.333,0.333,0.333,1,0.333,0.333,0.333,1","1,0.333,0.333,0.333,1,0.333,0.333,0.333,1","1",""
"","html-keyboard-response","291","324636","0.0-291.0","351SEKWQS132GPPCZWFB2WG7ZWTDM9","A19NGUFGC7KIGW","3VAOOVPI3ZEZMZXPLZ7IWDDZ15LLLX","","null","<img src=""img/flower5.png"" style=""width:200px; border:14px solid green;"">","null","","","","","","","","",""
"","image-keyboard-response","292","325118","0.0-292.0","351SEKWQS132GPPCZWFB2WG7ZWTDM9","A19NGUFGC7KIGW","3VAOOVPI3ZEZMZXPLZ7IWDDZ15LLLX","","482","img/flower6.png","74","482","1","1","1","1","1,0.333,0.333,0.333,1,0.333,0.333,0.333,1","1,0.333,0.333,0.333,1,0.333,0.333,0.333,1","1",""
"","html-keyboard-response","293","325432","0.0-293.0","351SEKWQS132GPPCZWFB2WG7ZWTDM9","A19NGUFGC7KIGW","3VAOOVPI3ZEZMZXPLZ7IWDDZ15LLLX","","null","<img src=""img/flower6.png"" style=""width:200px; border:14px solid green;"">","null","","","","","","","","",""
"","image-keyboard-response","294","325712","0.0-294.0","351SEKWQS132GPPCZWFB2WG7ZWTDM9","A19NGUFGC7KIGW","3VAOOVPI3ZEZMZXPLZ7IWDDZ15LLLX","","279","img/flower6.png","74","280","1","1","1","1","1,0.333,0.333,0.333,1,0.333,0.333,0.333,1","1,0.333,0.333,0.333,1,0.333,0.333,0.333,1","1",""
"","html-keyboard-response","295","326028","0.0-295.0","351SEKWQS132GPPCZWFB2WG7ZWTDM9","A19NGUFGC7KIGW","3VAOOVPI3ZEZMZXPLZ7IWDDZ15LLLX","","null","<img src=""img/flower6.png"" style=""width:200px; border:14px solid green;"">","null","","","","","","","","",""
"","image-keyboard-response","296","326246","0.0-296.0","351SEKWQS132GPPCZWFB2WG7ZWTDM9","A19NGUFGC7KIGW","3VAOOVPI3ZEZMZXPLZ7IWDDZ15LLLX","","217","img/flower6.png","74","217","1","1","1","1","1,0.333,0.333,0.333,1,0.333,0.333,0.333,1","1,0.333,0.333,0.333,1,0.333,0.333,0.333,1","1",""
"","html-keyboard-response","297","326559","0.0-297.0","351SEKWQS132GPPCZWFB2WG7ZWTDM9","A19NGUFGC7KIGW","3VAOOVPI3ZEZMZXPLZ7IWDDZ15LLLX","","null","<img src=""img/flower6.png"" style=""width:200px; border:14px solid green;"">","null","","","","","","","","",""
"","image-keyboard-response","298","326986","0.0-298.0","351SEKWQS132GPPCZWFB2WG7ZWTDM9","A19NGUFGC7KIGW","3VAOOVPI3ZEZMZXPLZ7IWDDZ15LLLX","","427","img/flower5.png","76","428","3","1","3","1","1,0.333,0.333,0.333,1,0.333,0.333,0.333,1","1,0.333,0.333,0.333,1,0.333,0.333,0.333,1","1",""
"","html-keyboard-response","299","327293","0.0-299.0","351SEKWQS132GPPCZWFB2WG7ZWTDM9","A19NGUFGC7KIGW","3VAOOVPI3ZEZMZXPLZ7IWDDZ15LLLX","","null","<img src=""img/flower5.png"" style=""width:200px; border:14px solid green;"">","null","","","","","","","","",""
"","image-keyboard-response","300","327559","0.0-300.0","351SEKWQS132GPPCZWFB2WG7ZWTDM9","A19NGUFGC7KIGW","3VAOOVPI3ZEZMZXPLZ7IWDDZ15LLLX","","264","img/flower5.png","76","264","3","1","3","1","1,0.333,0.333,0.333,1,0.333,0.333,0.333,1","1,0.333,0.333,0.333,1,0.333,0.333,0.333,1","1",""
"","html-keyboard-response","301","327860","0.0-301.0","351SEKWQS132GPPCZWFB2WG7ZWTDM9","A19NGUFGC7KIGW","3VAOOVPI3ZEZMZXPLZ7IWDDZ15LLLX","","null","<img src=""img/flower5.png"" style=""width:200px; border:14px solid green;"">","null","","","","","","","","",""
"","image-keyboard-response","302","328142","0.0-302.0","351SEKWQS132GPPCZWFB2WG7ZWTDM9","A19NGUFGC7KIGW","3VAOOVPI3ZEZMZXPLZ7IWDDZ15LLLX","","282","img/flower6.png","76","283","3","0","1","1","1,0.333,0.333,0.333,1,0.333,0.333,0.333,1","1,0.333,0.333,0.333,1,0.333,0.333,0.333,1","1",""
"","html-keyboard-response","303","328458","0.0-303.0","351SEKWQS132GPPCZWFB2WG7ZWTDM9","A19NGUFGC7KIGW","3VAOOVPI3ZEZMZXPLZ7IWDDZ15LLLX","","null","<img src=""img/flower6.png"" style=""width:200px;border:14px solid red;"">","null","","","","","","","","",""
"","image-keyboard-response","304","328605","0.0-304.0","351SEKWQS132GPPCZWFB2WG7ZWTDM9","A19NGUFGC7KIGW","3VAOOVPI3ZEZMZXPLZ7IWDDZ15LLLX","","147","img/flower6.png","75","147","2","0","1","1","1,0.333,0.333,0.333,1,0.333,0.333,0.333,1","1,0.333,0.333,0.333,1,0.333,0.333,0.333,1","1",""
"","html-keyboard-response","305","328920","0.0-305.0","351SEKWQS132GPPCZWFB2WG7ZWTDM9","A19NGUFGC7KIGW","3VAOOVPI3ZEZMZXPLZ7IWDDZ15LLLX","","null","<img src=""img/flower6.png"" style=""width:200px;border:14px solid red;"">","null","","","","","","","","",""
"","image-keyboard-response","306","329223","0.0-306.0","351SEKWQS132GPPCZWFB2WG7ZWTDM9","A19NGUFGC7KIGW","3VAOOVPI3ZEZMZXPLZ7IWDDZ15LLLX","","301","img/flower2.png","74","301","1","0","2","1","1,0.333,0.333,0.333,1,0.333,0.333,0.333,1","1,0.333,0.333,0.333,1,0.333,0.333,0.333,1","1",""
"","html-keyboard-response","307","329539","0.0-307.0","351SEKWQS132GPPCZWFB2WG7ZWTDM9","A19NGUFGC7KIGW","3VAOOVPI3ZEZMZXPLZ7IWDDZ15LLLX","","null","<img src=""img/flower2.png"" style=""width:200px;border:14px solid red;"">","null","","","","","","","","",""
"","image-keyboard-response","308","330166","0.0-308.0","351SEKWQS132GPPCZWFB2WG7ZWTDM9","A19NGUFGC7KIGW","3VAOOVPI3ZEZMZXPLZ7IWDDZ15LLLX","","626","img/flower6.png","75","626","2","0","1","1","1,0.333,0.333,0.333,1,0.333,0.333,0.333,1","1,0.333,0.333,0.333,1,0.333,0.333,0.333,1","1",""
"","html-keyboard-response","309","330470","0.0-309.0","351SEKWQS132GPPCZWFB2WG7ZWTDM9","A19NGUFGC7KIGW","3VAOOVPI3ZEZMZXPLZ7IWDDZ15LLLX","","null","<img src=""img/flower6.png"" style=""width:200px;border:14px solid red;"">","null","","","","","","","","",""
"","image-keyboard-response","310","331822","0.0-310.0","351SEKWQS132GPPCZWFB2WG7ZWTDM9","A19NGUFGC7KIGW","3VAOOVPI3ZEZMZXPLZ7IWDDZ15LLLX","","1352","img/flower5.png","76","1352","3","1","3","1","1,0.333,0.333,0.333,1,0.333,0.333,0.333,1","1,0.333,0.333,0.333,1,0.333,0.333,0.333,1","1",""
"","html-keyboard-response","311","332137","0.0-311.0","351SEKWQS132GPPCZWFB2WG7ZWTDM9","A19NGUFGC7KIGW","3VAOOVPI3ZEZMZXPLZ7IWDDZ15LLLX","","null","<img src=""img/flower5.png"" style=""width:200px; border:14px solid green;"">","null","","","","","","","","",""
"","image-keyboard-response","312","332471","0.0-312.0","351SEKWQS132GPPCZWFB2WG7ZWTDM9","A19NGUFGC7KIGW","3VAOOVPI3ZEZMZXPLZ7IWDDZ15LLLX","","332","img/flower5.png","76","333","3","1","3","1","1,0.333,0.333,0.333,1,0.333,0.333,0.333,1","1,0.333,0.333,0.333,1,0.333,0.333,0.333,1","1",""
"","html-keyboard-response","313","332779","0.0-313.0","351SEKWQS132GPPCZWFB2WG7ZWTDM9","A19NGUFGC7KIGW","3VAOOVPI3ZEZMZXPLZ7IWDDZ15LLLX","","null","<img src=""img/flower5.png"" style=""width:200px; border:14px solid green;"">","null","","","","","","","","",""
"","image-keyboard-response","314","333038","0.0-314.0","351SEKWQS132GPPCZWFB2WG7ZWTDM9","A19NGUFGC7KIGW","3VAOOVPI3ZEZMZXPLZ7IWDDZ15LLLX","","258","img/flower5.png","76","259","3","1","3","1","1,0.333,0.333,0.333,1,0.333,0.333,0.333,1","1,0.333,0.333,0.333,1,0.333,0.333,0.333,1","1",""
"","html-keyboard-response","315","333348","0.0-315.0","351SEKWQS132GPPCZWFB2WG7ZWTDM9","A19NGUFGC7KIGW","3VAOOVPI3ZEZMZXPLZ7IWDDZ15LLLX","","null","<img src=""img/flower5.png"" style=""width:200px; border:14px solid green;"">","null","","","","","","","","",""
"","image-keyboard-response","316","333655","0.0-316.0","351SEKWQS132GPPCZWFB2WG7ZWTDM9","A19NGUFGC7KIGW","3VAOOVPI3ZEZMZXPLZ7IWDDZ15LLLX","","307","img/flower5.png","76","307","3","1","3","1","1,0.333,0.333,0.333,1,0.333,0.333,0.333,1","1,0.333,0.333,0.333,1,0.333,0.333,0.333,1","1",""
"","html-keyboard-response","317","333965","0.0-317.0","351SEKWQS132GPPCZWFB2WG7ZWTDM9","A19NGUFGC7KIGW","3VAOOVPI3ZEZMZXPLZ7IWDDZ15LLLX","","null","<img src=""img/flower5.png"" style=""width:200px; border:14px solid green;"">","null","","","","","","","","",""
"","image-keyboard-response","318","334255","0.0-318.0","351SEKWQS132GPPCZWFB2WG7ZWTDM9","A19NGUFGC7KIGW","3VAOOVPI3ZEZMZXPLZ7IWDDZ15LLLX","","289","img/flower5.png","76","289","3","1","3","1","1,0.333,0.333,0.333,1,0.333,0.333,0.333,1","1,0.333,0.333,0.333,1,0.333,0.333,0.333,1","1",""
"","html-keyboard-response","319","334564","0.0-319.0","351SEKWQS132GPPCZWFB2WG7ZWTDM9","A19NGUFGC7KIGW","3VAOOVPI3ZEZMZXPLZ7IWDDZ15LLLX","","null","<img src=""img/flower5.png"" style=""width:200px; border:14px solid green;"">","null","","","","","","","","",""
"","image-keyboard-response","320","334773","0.0-320.0","351SEKWQS132GPPCZWFB2WG7ZWTDM9","A19NGUFGC7KIGW","3VAOOVPI3ZEZMZXPLZ7IWDDZ15LLLX","","208","img/flower6.png","76","208","3","1","1","1","1,0.333,0.333,0.333,1,0.333,0.333,0.333,1","1,0.333,0.333,0.333,1,0.333,0.333,0.333,1","1",""
"","html-keyboard-response","321","335074","0.0-321.0","351SEKWQS132GPPCZWFB2WG7ZWTDM9","A19NGUFGC7KIGW","3VAOOVPI3ZEZMZXPLZ7IWDDZ15LLLX","","null","<img src=""img/flower6.png"" style=""width:200px; border:14px solid green;"">","null","","","","","","","","",""
"","image-keyboard-response","322","335439","0.0-322.0","351SEKWQS132GPPCZWFB2WG7ZWTDM9","A19NGUFGC7KIGW","3VAOOVPI3ZEZMZXPLZ7IWDDZ15LLLX","","365","img/flower6.png","74","366","1","1","1","1","1,0.333,0.333,0.333,1,0.333,0.333,0.333,1","1,0.333,0.333,0.333,1,0.333,0.333,0.333,1","1",""
"","html-keyboard-response","323","335744","0.0-323.0","351SEKWQS132GPPCZWFB2WG7ZWTDM9","A19NGUFGC7KIGW","3VAOOVPI3ZEZMZXPLZ7IWDDZ15LLLX","","null","<img src=""img/flower6.png"" style=""width:200px; border:14px solid green;"">","null","","","","","","","","",""
"","image-keyboard-response","324","336017","0.0-324.0","351SEKWQS132GPPCZWFB2WG7ZWTDM9","A19NGUFGC7KIGW","3VAOOVPI3ZEZMZXPLZ7IWDDZ15LLLX","","272","img/flower6.png","74","272","1","1","1","1","1,0.333,0.333,0.333,1,0.333,0.333,0.333,1","1,0.333,0.333,0.333,1,0.333,0.333,0.333,1","1",""
"","html-keyboard-response","325","336325","0.0-325.0","351SEKWQS132GPPCZWFB2WG7ZWTDM9","A19NGUFGC7KIGW","3VAOOVPI3ZEZMZXPLZ7IWDDZ15LLLX","","null","<img src=""img/flower6.png"" style=""width:200px; border:14px solid green;"">","null","","","","","","","","",""
"","image-keyboard-response","326","336600","0.0-326.0","351SEKWQS132GPPCZWFB2WG7ZWTDM9","A19NGUFGC7KIGW","3VAOOVPI3ZEZMZXPLZ7IWDDZ15LLLX","","274","img/flower2.png","74","275","1","1","2","1","1,0.333,0.333,0.333,1,0.333,0.333,0.333,1","1,0.333,0.333,0.333,1,0.333,0.333,0.333,1","1",""
"","html-keyboard-response","327","336911","0.0-327.0","351SEKWQS132GPPCZWFB2WG7ZWTDM9","A19NGUFGC7KIGW","3VAOOVPI3ZEZMZXPLZ7IWDDZ15LLLX","","null","<img src=""img/flower2.png"" style=""width:200px; border:14px solid green;"">","null","","","","","","","","",""
"","image-keyboard-response","328","337592","0.0-328.0","351SEKWQS132GPPCZWFB2WG7ZWTDM9","A19NGUFGC7KIGW","3VAOOVPI3ZEZMZXPLZ7IWDDZ15LLLX","","680","img/flower5.png","76","680","3","1","3","1","1,0.333,0.333,0.333,1,0.333,0.333,0.333,1","1,0.333,0.333,0.333,1,0.333,0.333,0.333,1","1",""
"","html-keyboard-response","329","337906","0.0-329.0","351SEKWQS132GPPCZWFB2WG7ZWTDM9","A19NGUFGC7KIGW","3VAOOVPI3ZEZMZXPLZ7IWDDZ15LLLX","","null","<img src=""img/flower5.png"" style=""width:200px; border:14px solid green;"">","null","","","","","","","","",""
"","image-keyboard-response","330","338159","0.0-330.0","351SEKWQS132GPPCZWFB2WG7ZWTDM9","A19NGUFGC7KIGW","3VAOOVPI3ZEZMZXPLZ7IWDDZ15LLLX","","252","img/flower6.png","76","253","3","0","1","1","1,0.333,0.333,0.333,1,0.333,0.333,0.333,1","1,0.333,0.333,0.333,1,0.333,0.333,0.333,1","1",""
"","html-keyboard-response","331","338478","0.0-331.0","351SEKWQS132GPPCZWFB2WG7ZWTDM9","A19NGUFGC7KIGW","3VAOOVPI3ZEZMZXPLZ7IWDDZ15LLLX","","null","<img src=""img/flower6.png"" style=""width:200px;border:14px solid red;"">","null","","","","","","","","",""
"","image-keyboard-response","332","338680","0.0-332.0","351SEKWQS132GPPCZWFB2WG7ZWTDM9","A19NGUFGC7KIGW","3VAOOVPI3ZEZMZXPLZ7IWDDZ15LLLX","","202","img/flower6.png","74","203","1","1","1","1","1,0.333,0.333,0.333,1,0.333,0.333,0.333,1","1,0.333,0.333,0.333,1,0.333,0.333,0.333,1","1",""
"","html-keyboard-response","333","338983","0.0-333.0","351SEKWQS132GPPCZWFB2WG7ZWTDM9","A19NGUFGC7KIGW","3VAOOVPI3ZEZMZXPLZ7IWDDZ15LLLX","","null","<img src=""img/flower6.png"" style=""width:200px; border:14px solid green;"">","null","","","","","","","","",""
"","image-keyboard-response","334","339504","0.0-334.0","351SEKWQS132GPPCZWFB2WG7ZWTDM9","A19NGUFGC7KIGW","3VAOOVPI3ZEZMZXPLZ7IWDDZ15LLLX","","518","img/flower5.png","76","520","3","1","3","1","1,0.333,0.333,0.333,1,0.333,0.333,0.333,1","1,0.333,0.333,0.333,1,0.333,0.333,0.333,1","1",""
"","html-keyboard-response","335","339809","0.0-335.0","351SEKWQS132GPPCZWFB2WG7ZWTDM9","A19NGUFGC7KIGW","3VAOOVPI3ZEZMZXPLZ7IWDDZ15LLLX","","null","<img src=""img/flower5.png"" style=""width:200px; border:14px solid green;"">","null","","","","","","","","",""
"","image-keyboard-response","336","340231","0.0-336.0","351SEKWQS132GPPCZWFB2WG7ZWTDM9","A19NGUFGC7KIGW","3VAOOVPI3ZEZMZXPLZ7IWDDZ15LLLX","","421","img/flower6.png","74","422","1","1","1","1","1,0.333,0.333,0.333,1,0.333,0.333,0.333,1","1,0.333,0.333,0.333,1,0.333,0.333,0.333,1","1",""
"","html-keyboard-response","337","340545","0.0-337.0","351SEKWQS132GPPCZWFB2WG7ZWTDM9","A19NGUFGC7KIGW","3VAOOVPI3ZEZMZXPLZ7IWDDZ15LLLX","","null","<img src=""img/flower6.png"" style=""width:200px; border:14px solid green;"">","null","","","","","","","","",""
"","image-keyboard-response","338","341319","0.0-338.0","351SEKWQS132GPPCZWFB2WG7ZWTDM9","A19NGUFGC7KIGW","3VAOOVPI3ZEZMZXPLZ7IWDDZ15LLLX","","773","img/flower2.png","75","774","2","1","2","1","1,0.333,0.333,0.333,1,0.333,0.333,0.333,1","1,0.333,0.333,0.333,1,0.333,0.333,0.333,1","1",""
"","html-keyboard-response","339","341632","0.0-339.0","351SEKWQS132GPPCZWFB2WG7ZWTDM9","A19NGUFGC7KIGW","3VAOOVPI3ZEZMZXPLZ7IWDDZ15LLLX","","null","<img src=""img/flower2.png"" style=""width:200px; border:14px solid green;"">","null","","","","","","","","",""
"","image-keyboard-response","340","342111","0.0-340.0","351SEKWQS132GPPCZWFB2WG7ZWTDM9","A19NGUFGC7KIGW","3VAOOVPI3ZEZMZXPLZ7IWDDZ15LLLX","","477","img/flower5.png","74","477","1","0","3","1","1,0.333,0.333,0.333,1,0.333,0.333,0.333,1","1,0.333,0.333,0.333,1,0.333,0.333,0.333,1","1",""
"","html-keyboard-response","341","342422","0.0-341.0","351SEKWQS132GPPCZWFB2WG7ZWTDM9","A19NGUFGC7KIGW","3VAOOVPI3ZEZMZXPLZ7IWDDZ15LLLX","","null","<img src=""img/flower5.png"" style=""width:200px;border:14px solid red;"">","null","","","","","","","","",""
"","image-keyboard-response","342","342607","0.0-342.0","351SEKWQS132GPPCZWFB2WG7ZWTDM9","A19NGUFGC7KIGW","3VAOOVPI3ZEZMZXPLZ7IWDDZ15LLLX","","183","img/flower6.png","76","184","3","0","1","1","1,0.333,0.333,0.333,1,0.333,0.333,0.333,1","1,0.333,0.333,0.333,1,0.333,0.333,0.333,1","1",""
"","html-keyboard-response","343","342913","0.0-343.0","351SEKWQS132GPPCZWFB2WG7ZWTDM9","A19NGUFGC7KIGW","3VAOOVPI3ZEZMZXPLZ7IWDDZ15LLLX","","null","<img src=""img/flower6.png"" style=""width:200px;border:14px solid red;"">","null","","","","","","","","",""
"","image-keyboard-response","344","343671","0.0-344.0","351SEKWQS132GPPCZWFB2WG7ZWTDM9","A19NGUFGC7KIGW","3VAOOVPI3ZEZMZXPLZ7IWDDZ15LLLX","","758","img/flower5.png","76","758","3","1","3","1","1,0.333,0.333,0.333,1,0.333,0.333,0.333,1","1,0.333,0.333,0.333,1,0.333,0.333,0.333,1","1",""
"","html-keyboard-response","345","343974","0.0-345.0","351SEKWQS132GPPCZWFB2WG7ZWTDM9","A19NGUFGC7KIGW","3VAOOVPI3ZEZMZXPLZ7IWDDZ15LLLX","","null","<img src=""img/flower5.png"" style=""width:200px; border:14px solid green;"">","null","","","","","","","","",""
"","image-keyboard-response","346","344703","0.0-346.0","351SEKWQS132GPPCZWFB2WG7ZWTDM9","A19NGUFGC7KIGW","3VAOOVPI3ZEZMZXPLZ7IWDDZ15LLLX","","730","img/flower2.png","75","730","2","1","2","1","1,0.333,0.333,0.333,1,0.333,0.333,0.333,1","1,0.333,0.333,0.333,1,0.333,0.333,0.333,1","1",""
"","html-keyboard-response","347","345019","0.0-347.0","351SEKWQS132GPPCZWFB2WG7ZWTDM9","A19NGUFGC7KIGW","3VAOOVPI3ZEZMZXPLZ7IWDDZ15LLLX","","null","<img src=""img/flower2.png"" style=""width:200px; border:14px solid green;"">","null","","","","","","","","",""
"","image-keyboard-response","348","345551","0.0-348.0","351SEKWQS132GPPCZWFB2WG7ZWTDM9","A19NGUFGC7KIGW","3VAOOVPI3ZEZMZXPLZ7IWDDZ15LLLX","","530","img/flower6.png","74","531","1","1","1","1","1,0.333,0.333,0.333,1,0.333,0.333,0.333,1","1,0.333,0.333,0.333,1,0.333,0.333,0.333,1","1",""
"","html-keyboard-response","349","345855","0.0-349.0","351SEKWQS132GPPCZWFB2WG7ZWTDM9","A19NGUFGC7KIGW","3VAOOVPI3ZEZMZXPLZ7IWDDZ15LLLX","","null","<img src=""img/flower6.png"" style=""width:200px; border:14px solid green;"">","null","","","","","","","","",""
"","image-keyboard-response","350","346254","0.0-350.0","351SEKWQS132GPPCZWFB2WG7ZWTDM9","A19NGUFGC7KIGW","3VAOOVPI3ZEZMZXPLZ7IWDDZ15LLLX","","399","img/flower2.png","75","400","2","1","2","1","1,0.333,0.333,0.333,1,0.333,0.333,0.333,1","1,0.333,0.333,0.333,1,0.333,0.333,0.333,1","1",""
"","html-keyboard-response","351","346563","0.0-351.0","351SEKWQS132GPPCZWFB2WG7ZWTDM9","A19NGUFGC7KIGW","3VAOOVPI3ZEZMZXPLZ7IWDDZ15LLLX","","null","<img src=""img/flower2.png"" style=""width:200px; border:14px solid green;"">","null","","","","","","","","",""
"","image-keyboard-response","352","346975","0.0-352.0","351SEKWQS132GPPCZWFB2WG7ZWTDM9","A19NGUFGC7KIGW","3VAOOVPI3ZEZMZXPLZ7IWDDZ15LLLX","","411","img/flower5.png","76","413","3","1","3","1","1,0.333,0.333,0.333,1,0.333,0.333,0.333,1","1,0.333,0.333,0.333,1,0.333,0.333,0.333,1","1",""
"","html-keyboard-response","353","347282","0.0-353.0","351SEKWQS132GPPCZWFB2WG7ZWTDM9","A19NGUFGC7KIGW","3VAOOVPI3ZEZMZXPLZ7IWDDZ15LLLX","","null","<img src=""img/flower5.png"" style=""width:200px; border:14px solid green;"">","null","","","","","","","","",""
"","image-keyboard-response","354","347791","0.0-354.0","351SEKWQS132GPPCZWFB2WG7ZWTDM9","A19NGUFGC7KIGW","3VAOOVPI3ZEZMZXPLZ7IWDDZ15LLLX","","508","img/flower2.png","75","508","2","1","2","1","1,0.333,0.333,0.333,1,0.333,0.333,0.333,1","1,0.333,0.333,0.333,1,0.333,0.333,0.333,1","1",""
"","html-keyboard-response","355","348103","0.0-355.0","351SEKWQS132GPPCZWFB2WG7ZWTDM9","A19NGUFGC7KIGW","3VAOOVPI3ZEZMZXPLZ7IWDDZ15LLLX","","null","<img src=""img/flower2.png"" style=""width:200px; border:14px solid green;"">","null","","","","","","","","",""
"","image-keyboard-response","356","348510","0.0-356.0","351SEKWQS132GPPCZWFB2WG7ZWTDM9","A19NGUFGC7KIGW","3VAOOVPI3ZEZMZXPLZ7IWDDZ15LLLX","","406","img/flower2.png","75","407","2","1","2","1","1,0.333,0.333,0.333,1,0.333,0.333,0.333,1","1,0.333,0.333,0.333,1,0.333,0.333,0.333,1","1",""
"","html-keyboard-response","357","348812","0.0-357.0","351SEKWQS132GPPCZWFB2WG7ZWTDM9","A19NGUFGC7KIGW","3VAOOVPI3ZEZMZXPLZ7IWDDZ15LLLX","","null","<img src=""img/flower2.png"" style=""width:200px; border:14px solid green;"">","null","","","","","","","","",""
"","image-keyboard-response","358","349423","0.0-358.0","351SEKWQS132GPPCZWFB2WG7ZWTDM9","A19NGUFGC7KIGW","3VAOOVPI3ZEZMZXPLZ7IWDDZ15LLLX","","609","img/flower6.png","74","610","1","1","1","1","1,0.333,0.333,0.333,1,0.333,0.333,0.333,1","1,0.333,0.333,0.333,1,0.333,0.333,0.333,1","1",""
"","html-keyboard-response","359","349731","0.0-359.0","351SEKWQS132GPPCZWFB2WG7ZWTDM9","A19NGUFGC7KIGW","3VAOOVPI3ZEZMZXPLZ7IWDDZ15LLLX","","null","<img src=""img/flower6.png"" style=""width:200px; border:14px solid green;"">","null","","","","","","","","",""
"","image-keyboard-response","360","350359","0.0-360.0","351SEKWQS132GPPCZWFB2WG7ZWTDM9","A19NGUFGC7KIGW","3VAOOVPI3ZEZMZXPLZ7IWDDZ15LLLX","","627","img/flower5.png","76","627","3","1","3","1","1,0.333,0.333,0.333,1,0.333,0.333,0.333,1","1,0.333,0.333,0.333,1,0.333,0.333,0.333,1","1",""
"","html-keyboard-response","361","350674","0.0-361.0","351SEKWQS132GPPCZWFB2WG7ZWTDM9","A19NGUFGC7KIGW","3VAOOVPI3ZEZMZXPLZ7IWDDZ15LLLX","","null","<img src=""img/flower5.png"" style=""width:200px; border:14px solid green;"">","null","","","","","","","","",""
"","html-keyboard-response","362","354085","0.0-362.0","351SEKWQS132GPPCZWFB2WG7ZWTDM9","A19NGUFGC7KIGW","3VAOOVPI3ZEZMZXPLZ7IWDDZ15LLLX","","","","","","","","","","","","",""
"","instructions","363","356556","0.0-363.0","351SEKWQS132GPPCZWFB2WG7ZWTDM9","A19NGUFGC7KIGW","3VAOOVPI3ZEZMZXPLZ7IWDDZ15LLLX","[{""page_index"":0,""viewing_time"":2471}]","2471","","","","","","","","","","",""
"","survey-text","364","364513","0.0-364.0","351SEKWQS132GPPCZWFB2WG7ZWTDM9","A19NGUFGC7KIGW","3VAOOVPI3ZEZMZXPLZ7IWDDZ15LLLX","","7954","","","","","","","","","","","{""Q0"":""A19NGUFGC7KIGW""}"
