"rt","url","trial_type","trial_index","time_elapsed","internal_node_id","assignmentID","mturkID","hitID","success","view_history","stimulus","key_press","reactionTime","a","r","s","reward_cond","responses"
"139928","consent.html","external-html","0","140255","0.0-0.0","3WQQ9FUS6BGUG3PORZEM2ORCCR3B8T","A1AYQ8E01NSY5Z","3VJ4PFXFJ3TL96TFXMATEMT7KJHUAI","","","","","","","","","",""
"","","fullscreen","1","184819","0.0-1.0","3WQQ9FUS6BGUG3PORZEM2ORCCR3B8T","A1AYQ8E01NSY5Z","3VJ4PFXFJ3TL96TFXMATEMT7KJHUAI","true","","","","","","","","",""
"82795","","instructions","2","267617","0.0-2.0","3WQQ9FUS6BGUG3PORZEM2ORCCR3B8T","A1AYQ8E01NSY5Z","3VJ4PFXFJ3TL96TFXMATEMT7KJHUAI","","[{""page_index"":0,""viewing_time"":9383},{""page_index"":1,""viewing_time"":12441},{""page_index"":2,""viewing_time"":15646},{""page_index"":3,""viewing_time"":9610},{""page_index"":4,""viewing_time"":9261},{""page_index"":5,""viewing_time"":21503},{""page_index"":6,""viewing_time"":4951}]","","","","","","","",""
"14942","","instructions","3","282559","0.0-3.0","3WQQ9FUS6BGUG3PORZEM2ORCCR3B8T","A1AYQ8E01NSY5Z","3VJ4PFXFJ3TL96TFXMATEMT7KJHUAI","","[{""page_index"":0,""viewing_time"":14941}]","","","","","","","",""
"854","","image-keyboard-response","4","283414","0.0-4.0","3WQQ9FUS6BGUG3PORZEM2ORCCR3B8T","A1AYQ8E01NSY5Z","3VJ4PFXFJ3TL96TFXMATEMT7KJHUAI","","","img/flower6.png","76","856","3","1","3","",""
"null","","html-keyboard-response","5","283753","0.0-5.0","3WQQ9FUS6BGUG3PORZEM2ORCCR3B8T","A1AYQ8E01NSY5Z","3VJ4PFXFJ3TL96TFXMATEMT7KJHUAI","","","<img src=""img/flower6.png"" style=""width:200px; border:14px solid green;"">","null","","","","","",""
"1078","","image-keyboard-response","6","284836","0.0-6.0","3WQQ9FUS6BGUG3PORZEM2ORCCR3B8T","A1AYQ8E01NSY5Z","3VJ4PFXFJ3TL96TFXMATEMT7KJHUAI","","","img/flower4.png","74","1080","1","1","1","",""
"null","","html-keyboard-response","7","285149","0.0-7.0","3WQQ9FUS6BGUG3PORZEM2ORCCR3B8T","A1AYQ8E01NSY5Z","3VJ4PFXFJ3TL96TFXMATEMT7KJHUAI","","","<img src=""img/flower4.png"" style=""width:200px; border:14px solid green;"">","null","","","","","",""
"461","","image-keyboard-response","8","285611","0.0-8.0","3WQQ9FUS6BGUG3PORZEM2ORCCR3B8T","A1AYQ8E01NSY5Z","3VJ4PFXFJ3TL96TFXMATEMT7KJHUAI","","","img/flower5.png","75","463","2","1","2","",""
"null","","html-keyboard-response","9","285916","0.0-9.0","3WQQ9FUS6BGUG3PORZEM2ORCCR3B8T","A1AYQ8E01NSY5Z","3VJ4PFXFJ3TL96TFXMATEMT7KJHUAI","","","<img src=""img/flower5.png"" style=""width:200px; border:14px solid green;"">","null","","","","","",""
"694","","image-keyboard-response","10","286613","0.0-10.0","3WQQ9FUS6BGUG3PORZEM2ORCCR3B8T","A1AYQ8E01NSY5Z","3VJ4PFXFJ3TL96TFXMATEMT7KJHUAI","","","img/flower4.png","74","696","1","1","1","",""
"null","","html-keyboard-response","11","286928","0.0-11.0","3WQQ9FUS6BGUG3PORZEM2ORCCR3B8T","A1AYQ8E01NSY5Z","3VJ4PFXFJ3TL96TFXMATEMT7KJHUAI","","","<img src=""img/flower4.png"" style=""width:200px; border:14px solid green;"">","null","","","","","",""
"475","","image-keyboard-response","12","287406","0.0-12.0","3WQQ9FUS6BGUG3PORZEM2ORCCR3B8T","A1AYQ8E01NSY5Z","3VJ4PFXFJ3TL96TFXMATEMT7KJHUAI","","","img/flower4.png","74","477","1","1","1","",""
"null","","html-keyboard-response","13","287710","0.0-13.0","3WQQ9FUS6BGUG3PORZEM2ORCCR3B8T","A1AYQ8E01NSY5Z","3VJ4PFXFJ3TL96TFXMATEMT7KJHUAI","","","<img src=""img/flower4.png"" style=""width:200px; border:14px solid green;"">","null","","","","","",""
"579","","image-keyboard-response","14","288292","0.0-14.0","3WQQ9FUS6BGUG3PORZEM2ORCCR3B8T","A1AYQ8E01NSY5Z","3VJ4PFXFJ3TL96TFXMATEMT7KJHUAI","","","img/flower5.png","75","581","2","1","2","",""
"null","","html-keyboard-response","15","288597","0.0-15.0","3WQQ9FUS6BGUG3PORZEM2ORCCR3B8T","A1AYQ8E01NSY5Z","3VJ4PFXFJ3TL96TFXMATEMT7KJHUAI","","","<img src=""img/flower5.png"" style=""width:200px; border:14px solid green;"">","null","","","","","",""
"807","","image-keyboard-response","16","289406","0.0-16.0","3WQQ9FUS6BGUG3PORZEM2ORCCR3B8T","A1AYQ8E01NSY5Z","3VJ4PFXFJ3TL96TFXMATEMT7KJHUAI","","","img/flower6.png","76","809","3","1","3","",""
"null","","html-keyboard-response","17","289723","0.0-17.0","3WQQ9FUS6BGUG3PORZEM2ORCCR3B8T","A1AYQ8E01NSY5Z","3VJ4PFXFJ3TL96TFXMATEMT7KJHUAI","","","<img src=""img/flower6.png"" style=""width:200px; border:14px solid green;"">","null","","","","","",""
"1161","","image-keyboard-response","18","290886","0.0-18.0","3WQQ9FUS6BGUG3PORZEM2ORCCR3B8T","A1AYQ8E01NSY5Z","3VJ4PFXFJ3TL96TFXMATEMT7KJHUAI","","","img/flower4.png","74","1162","1","1","1","",""
"null","","html-keyboard-response","19","291191","0.0-19.0","3WQQ9FUS6BGUG3PORZEM2ORCCR3B8T","A1AYQ8E01NSY5Z","3VJ4PFXFJ3TL96TFXMATEMT7KJHUAI","","","<img src=""img/flower4.png"" style=""width:200px; border:14px solid green;"">","null","","","","","",""
"555","","image-keyboard-response","20","291747","0.0-20.0","3WQQ9FUS6BGUG3PORZEM2ORCCR3B8T","A1AYQ8E01NSY5Z","3VJ4PFXFJ3TL96TFXMATEMT7KJHUAI","","","img/flower4.png","74","555","1","1","1","",""
"null","","html-keyboard-response","21","292062","0.0-21.0","3WQQ9FUS6BGUG3PORZEM2ORCCR3B8T","A1AYQ8E01NSY5Z","3VJ4PFXFJ3TL96TFXMATEMT7KJHUAI","","","<img src=""img/flower4.png"" style=""width:200px; border:14px solid green;"">","null","","","","","",""
"437","","image-keyboard-response","22","292501","0.0-22.0","3WQQ9FUS6BGUG3PORZEM2ORCCR3B8T","A1AYQ8E01NSY5Z","3VJ4PFXFJ3TL96TFXMATEMT7KJHUAI","","","img/flower4.png","74","439","1","1","1","",""
"null","","html-keyboard-response","23","292812","0.0-23.0","3WQQ9FUS6BGUG3PORZEM2ORCCR3B8T","A1AYQ8E01NSY5Z","3VJ4PFXFJ3TL96TFXMATEMT7KJHUAI","","","<img src=""img/flower4.png"" style=""width:200px; border:14px solid green;"">","null","","","","","",""
"822","","image-keyboard-response","24","293635","0.0-24.0","3WQQ9FUS6BGUG3PORZEM2ORCCR3B8T","A1AYQ8E01NSY5Z","3VJ4PFXFJ3TL96TFXMATEMT7KJHUAI","","","img/flower6.png","76","822","3","1","3","",""
"null","","html-keyboard-response","25","293960","0.0-25.0","3WQQ9FUS6BGUG3PORZEM2ORCCR3B8T","A1AYQ8E01NSY5Z","3VJ4PFXFJ3TL96TFXMATEMT7KJHUAI","","","<img src=""img/flower6.png"" style=""width:200px; border:14px solid green;"">","null","","","","","",""
"682","","image-keyboard-response","26","294646","0.0-26.0","3WQQ9FUS6BGUG3PORZEM2ORCCR3B8T","A1AYQ8E01NSY5Z","3VJ4PFXFJ3TL96TFXMATEMT7KJHUAI","","","img/flower4.png","74","685","1","1","1","",""
"null","","html-keyboard-response","27","294959","0.0-27.0","3WQQ9FUS6BGUG3PORZEM2ORCCR3B8T","A1AYQ8E01NSY5Z","3VJ4PFXFJ3TL96TFXMATEMT7KJHUAI","","","<img src=""img/flower4.png"" style=""width:200px; border:14px solid green;"">","null","","","","","",""
"844","","image-keyboard-response","28","295806","0.0-28.0","3WQQ9FUS6BGUG3PORZEM2ORCCR3B8T","A1AYQ8E01NSY5Z","3VJ4PFXFJ3TL96TFXMATEMT7KJHUAI","","","img/flower6.png","76","847","3","1","3","",""
"null","","html-keyboard-response","29","296120","0.0-29.0","3WQQ9FUS6BGUG3PORZEM2ORCCR3B8T","A1AYQ8E01NSY5Z","3VJ4PFXFJ3TL96TFXMATEMT7KJHUAI","","","<img src=""img/flower6.png"" style=""width:200px; border:14px solid green;"">","null","","","","","",""
"1241","","image-keyboard-response","30","297363","0.0-30.0","3WQQ9FUS6BGUG3PORZEM2ORCCR3B8T","A1AYQ8E01NSY5Z","3VJ4PFXFJ3TL96TFXMATEMT7KJHUAI","","","img/flower4.png","74","1242","1","1","1","",""
"null","","html-keyboard-response","31","297665","0.0-31.0","3WQQ9FUS6BGUG3PORZEM2ORCCR3B8T","A1AYQ8E01NSY5Z","3VJ4PFXFJ3TL96TFXMATEMT7KJHUAI","","","<img src=""img/flower4.png"" style=""width:200px; border:14px solid green;"">","null","","","","","",""
"787","","image-keyboard-response","32","298454","0.0-32.0","3WQQ9FUS6BGUG3PORZEM2ORCCR3B8T","A1AYQ8E01NSY5Z","3VJ4PFXFJ3TL96TFXMATEMT7KJHUAI","","","img/flower5.png","75","788","2","0","2","",""
"null","","html-keyboard-response","33","298757","0.0-33.0","3WQQ9FUS6BGUG3PORZEM2ORCCR3B8T","A1AYQ8E01NSY5Z","3VJ4PFXFJ3TL96TFXMATEMT7KJHUAI","","","<img src=""img/flower5.png"" style=""width:200px;border:14px solid red;"">","null","","","","","",""
"1142","","image-keyboard-response","34","299901","0.0-34.0","3WQQ9FUS6BGUG3PORZEM2ORCCR3B8T","A1AYQ8E01NSY5Z","3VJ4PFXFJ3TL96TFXMATEMT7KJHUAI","","","img/flower6.png","76","1143","3","1","3","",""
"null","","html-keyboard-response","35","300211","0.0-35.0","3WQQ9FUS6BGUG3PORZEM2ORCCR3B8T","A1AYQ8E01NSY5Z","3VJ4PFXFJ3TL96TFXMATEMT7KJHUAI","","","<img src=""img/flower6.png"" style=""width:200px; border:14px solid green;"">","null","","","","","",""
"695","","image-keyboard-response","36","300907","0.0-36.0","3WQQ9FUS6BGUG3PORZEM2ORCCR3B8T","A1AYQ8E01NSY5Z","3VJ4PFXFJ3TL96TFXMATEMT7KJHUAI","","","img/flower4.png","74","696","1","0","1","",""
"null","","html-keyboard-response","37","301224","0.0-37.0","3WQQ9FUS6BGUG3PORZEM2ORCCR3B8T","A1AYQ8E01NSY5Z","3VJ4PFXFJ3TL96TFXMATEMT7KJHUAI","","","<img src=""img/flower4.png"" style=""width:200px;border:14px solid red;"">","null","","","","","",""
"780","","image-keyboard-response","38","302006","0.0-38.0","3WQQ9FUS6BGUG3PORZEM2ORCCR3B8T","A1AYQ8E01NSY5Z","3VJ4PFXFJ3TL96TFXMATEMT7KJHUAI","","","img/flower6.png","76","781","3","1","3","",""
"null","","html-keyboard-response","39","302319","0.0-39.0","3WQQ9FUS6BGUG3PORZEM2ORCCR3B8T","A1AYQ8E01NSY5Z","3VJ4PFXFJ3TL96TFXMATEMT7KJHUAI","","","<img src=""img/flower6.png"" style=""width:200px; border:14px solid green;"">","null","","","","","",""
"811","","image-keyboard-response","40","303132","0.0-40.0","3WQQ9FUS6BGUG3PORZEM2ORCCR3B8T","A1AYQ8E01NSY5Z","3VJ4PFXFJ3TL96TFXMATEMT7KJHUAI","","","img/flower6.png","76","814","3","1","3","",""
"null","","html-keyboard-response","41","303442","0.0-41.0","3WQQ9FUS6BGUG3PORZEM2ORCCR3B8T","A1AYQ8E01NSY5Z","3VJ4PFXFJ3TL96TFXMATEMT7KJHUAI","","","<img src=""img/flower6.png"" style=""width:200px; border:14px solid green;"">","null","","","","","",""
"743","","image-keyboard-response","42","304188","0.0-42.0","3WQQ9FUS6BGUG3PORZEM2ORCCR3B8T","A1AYQ8E01NSY5Z","3VJ4PFXFJ3TL96TFXMATEMT7KJHUAI","","","img/flower5.png","75","745","2","1","2","",""
"null","","html-keyboard-response","43","304499","0.0-43.0","3WQQ9FUS6BGUG3PORZEM2ORCCR3B8T","A1AYQ8E01NSY5Z","3VJ4PFXFJ3TL96TFXMATEMT7KJHUAI","","","<img src=""img/flower5.png"" style=""width:200px; border:14px solid green;"">","null","","","","","",""
"472","","image-keyboard-response","44","304972","0.0-44.0","3WQQ9FUS6BGUG3PORZEM2ORCCR3B8T","A1AYQ8E01NSY5Z","3VJ4PFXFJ3TL96TFXMATEMT7KJHUAI","","","img/flower5.png","75","473","2","0","2","",""
"null","","html-keyboard-response","45","305280","0.0-45.0","3WQQ9FUS6BGUG3PORZEM2ORCCR3B8T","A1AYQ8E01NSY5Z","3VJ4PFXFJ3TL96TFXMATEMT7KJHUAI","","","<img src=""img/flower5.png"" style=""width:200px;border:14px solid red;"">","null","","","","","",""
"754","","image-keyboard-response","46","306035","0.0-46.0","3WQQ9FUS6BGUG3PORZEM2ORCCR3B8T","A1AYQ8E01NSY5Z","3VJ4PFXFJ3TL96TFXMATEMT7KJHUAI","","","img/flower6.png","76","755","3","1","3","",""
"null","","html-keyboard-response","47","306346","0.0-47.0","3WQQ9FUS6BGUG3PORZEM2ORCCR3B8T","A1AYQ8E01NSY5Z","3VJ4PFXFJ3TL96TFXMATEMT7KJHUAI","","","<img src=""img/flower6.png"" style=""width:200px; border:14px solid green;"">","null","","","","","",""
"856","","image-keyboard-response","48","307204","0.0-48.0","3WQQ9FUS6BGUG3PORZEM2ORCCR3B8T","A1AYQ8E01NSY5Z","3VJ4PFXFJ3TL96TFXMATEMT7KJHUAI","","","img/flower5.png","75","858","2","0","2","",""
"null","","html-keyboard-response","49","307512","0.0-49.0","3WQQ9FUS6BGUG3PORZEM2ORCCR3B8T","A1AYQ8E01NSY5Z","3VJ4PFXFJ3TL96TFXMATEMT7KJHUAI","","","<img src=""img/flower5.png"" style=""width:200px;border:14px solid red;"">","null","","","","","",""
"729","","image-keyboard-response","50","308243","0.0-50.0","3WQQ9FUS6BGUG3PORZEM2ORCCR3B8T","A1AYQ8E01NSY5Z","3VJ4PFXFJ3TL96TFXMATEMT7KJHUAI","","","img/flower4.png","74","731","1","1","1","",""
"null","","html-keyboard-response","51","308547","0.0-51.0","3WQQ9FUS6BGUG3PORZEM2ORCCR3B8T","A1AYQ8E01NSY5Z","3VJ4PFXFJ3TL96TFXMATEMT7KJHUAI","","","<img src=""img/flower4.png"" style=""width:200px; border:14px solid green;"">","null","","","","","",""
"734","","image-keyboard-response","52","309284","0.0-52.0","3WQQ9FUS6BGUG3PORZEM2ORCCR3B8T","A1AYQ8E01NSY5Z","3VJ4PFXFJ3TL96TFXMATEMT7KJHUAI","","","img/flower5.png","74","736","1","0","2","",""
"null","","html-keyboard-response","53","309594","0.0-53.0","3WQQ9FUS6BGUG3PORZEM2ORCCR3B8T","A1AYQ8E01NSY5Z","3VJ4PFXFJ3TL96TFXMATEMT7KJHUAI","","","<img src=""img/flower5.png"" style=""width:200px;border:14px solid red;"">","null","","","","","",""
"848","","image-keyboard-response","54","310445","0.0-54.0","3WQQ9FUS6BGUG3PORZEM2ORCCR3B8T","A1AYQ8E01NSY5Z","3VJ4PFXFJ3TL96TFXMATEMT7KJHUAI","","","img/flower5.png","76","851","3","1","2","",""
"null","","html-keyboard-response","55","310762","0.0-55.0","3WQQ9FUS6BGUG3PORZEM2ORCCR3B8T","A1AYQ8E01NSY5Z","3VJ4PFXFJ3TL96TFXMATEMT7KJHUAI","","","<img src=""img/flower5.png"" style=""width:200px; border:14px solid green;"">","null","","","","","",""
"536","","image-keyboard-response","56","311300","0.0-56.0","3WQQ9FUS6BGUG3PORZEM2ORCCR3B8T","A1AYQ8E01NSY5Z","3VJ4PFXFJ3TL96TFXMATEMT7KJHUAI","","","img/flower5.png","76","537","3","0","2","",""
"null","","html-keyboard-response","57","311605","0.0-57.0","3WQQ9FUS6BGUG3PORZEM2ORCCR3B8T","A1AYQ8E01NSY5Z","3VJ4PFXFJ3TL96TFXMATEMT7KJHUAI","","","<img src=""img/flower5.png"" style=""width:200px;border:14px solid red;"">","null","","","","","",""
"1048","","image-keyboard-response","58","312653","0.0-58.0","3WQQ9FUS6BGUG3PORZEM2ORCCR3B8T","A1AYQ8E01NSY5Z","3VJ4PFXFJ3TL96TFXMATEMT7KJHUAI","","","img/flower5.png","75","1049","2","1","2","",""
"null","","html-keyboard-response","59","312965","0.0-59.0","3WQQ9FUS6BGUG3PORZEM2ORCCR3B8T","A1AYQ8E01NSY5Z","3VJ4PFXFJ3TL96TFXMATEMT7KJHUAI","","","<img src=""img/flower5.png"" style=""width:200px; border:14px solid green;"">","null","","","","","",""
"622","","image-keyboard-response","60","313590","0.0-60.0","3WQQ9FUS6BGUG3PORZEM2ORCCR3B8T","A1AYQ8E01NSY5Z","3VJ4PFXFJ3TL96TFXMATEMT7KJHUAI","","","img/flower6.png","76","625","3","1","3","",""
"null","","html-keyboard-response","61","313906","0.0-61.0","3WQQ9FUS6BGUG3PORZEM2ORCCR3B8T","A1AYQ8E01NSY5Z","3VJ4PFXFJ3TL96TFXMATEMT7KJHUAI","","","<img src=""img/flower6.png"" style=""width:200px; border:14px solid green;"">","null","","","","","",""
"570","","image-keyboard-response","62","314477","0.0-62.0","3WQQ9FUS6BGUG3PORZEM2ORCCR3B8T","A1AYQ8E01NSY5Z","3VJ4PFXFJ3TL96TFXMATEMT7KJHUAI","","","img/flower6.png","76","572","3","1","3","",""
"null","","html-keyboard-response","63","314793","0.0-63.0","3WQQ9FUS6BGUG3PORZEM2ORCCR3B8T","A1AYQ8E01NSY5Z","3VJ4PFXFJ3TL96TFXMATEMT7KJHUAI","","","<img src=""img/flower6.png"" style=""width:200px; border:14px solid green;"">","null","","","","","",""
"3799","","instructions","64","318595","0.0-64.0","3WQQ9FUS6BGUG3PORZEM2ORCCR3B8T","A1AYQ8E01NSY5Z","3VJ4PFXFJ3TL96TFXMATEMT7KJHUAI","","[{""page_index"":0,""viewing_time"":1973},{""page_index"":1,""viewing_time"":1826}]","","","","","","","",""
"935","","image-keyboard-response","65","319533","0.0-65.0","3WQQ9FUS6BGUG3PORZEM2ORCCR3B8T","A1AYQ8E01NSY5Z","3VJ4PFXFJ3TL96TFXMATEMT7KJHUAI","","","img/flower5.png","75","938","2","1","2","",""
"null","","html-keyboard-response","66","319843","0.0-66.0","3WQQ9FUS6BGUG3PORZEM2ORCCR3B8T","A1AYQ8E01NSY5Z","3VJ4PFXFJ3TL96TFXMATEMT7KJHUAI","","","<img src=""img/flower5.png"" style=""width:200px; border:14px solid green;"">","null","","","","","",""
"504","","image-keyboard-response","67","320349","0.0-67.0","3WQQ9FUS6BGUG3PORZEM2ORCCR3B8T","A1AYQ8E01NSY5Z","3VJ4PFXFJ3TL96TFXMATEMT7KJHUAI","","","img/flower5.png","75","506","2","1","2","",""
"null","","html-keyboard-response","68","320656","0.0-68.0","3WQQ9FUS6BGUG3PORZEM2ORCCR3B8T","A1AYQ8E01NSY5Z","3VJ4PFXFJ3TL96TFXMATEMT7KJHUAI","","","<img src=""img/flower5.png"" style=""width:200px; border:14px solid green;"">","null","","","","","",""
"642","","image-keyboard-response","69","321300","0.0-69.0","3WQQ9FUS6BGUG3PORZEM2ORCCR3B8T","A1AYQ8E01NSY5Z","3VJ4PFXFJ3TL96TFXMATEMT7KJHUAI","","","img/flower6.png","76","643","3","1","3","",""
"null","","html-keyboard-response","70","321607","0.0-70.0","3WQQ9FUS6BGUG3PORZEM2ORCCR3B8T","A1AYQ8E01NSY5Z","3VJ4PFXFJ3TL96TFXMATEMT7KJHUAI","","","<img src=""img/flower6.png"" style=""width:200px; border:14px solid green;"">","null","","","","","",""
"874","","image-keyboard-response","71","322483","0.0-71.0","3WQQ9FUS6BGUG3PORZEM2ORCCR3B8T","A1AYQ8E01NSY5Z","3VJ4PFXFJ3TL96TFXMATEMT7KJHUAI","","","img/flower4.png","74","875","1","1","1","",""
"null","","html-keyboard-response","72","322784","0.0-72.0","3WQQ9FUS6BGUG3PORZEM2ORCCR3B8T","A1AYQ8E01NSY5Z","3VJ4PFXFJ3TL96TFXMATEMT7KJHUAI","","","<img src=""img/flower4.png"" style=""width:200px; border:14px solid green;"">","null","","","","","",""
"722","","image-keyboard-response","73","323509","0.0-73.0","3WQQ9FUS6BGUG3PORZEM2ORCCR3B8T","A1AYQ8E01NSY5Z","3VJ4PFXFJ3TL96TFXMATEMT7KJHUAI","","","img/flower6.png","76","724","3","0","3","",""
"null","","html-keyboard-response","74","323817","0.0-74.0","3WQQ9FUS6BGUG3PORZEM2ORCCR3B8T","A1AYQ8E01NSY5Z","3VJ4PFXFJ3TL96TFXMATEMT7KJHUAI","","","<img src=""img/flower6.png"" style=""width:200px;border:14px solid red;"">","null","","","","","",""
"1044","","image-keyboard-response","75","324861","0.0-75.0","3WQQ9FUS6BGUG3PORZEM2ORCCR3B8T","A1AYQ8E01NSY5Z","3VJ4PFXFJ3TL96TFXMATEMT7KJHUAI","","","img/flower5.png","75","1044","2","0","2","",""
"null","","html-keyboard-response","76","325176","0.0-76.0","3WQQ9FUS6BGUG3PORZEM2ORCCR3B8T","A1AYQ8E01NSY5Z","3VJ4PFXFJ3TL96TFXMATEMT7KJHUAI","","","<img src=""img/flower5.png"" style=""width:200px;border:14px solid red;"">","null","","","","","",""
"797","","image-keyboard-response","77","325974","0.0-77.0","3WQQ9FUS6BGUG3PORZEM2ORCCR3B8T","A1AYQ8E01NSY5Z","3VJ4PFXFJ3TL96TFXMATEMT7KJHUAI","","","img/flower6.png","76","798","3","1","3","",""
"null","","html-keyboard-response","78","326281","0.0-78.0","3WQQ9FUS6BGUG3PORZEM2ORCCR3B8T","A1AYQ8E01NSY5Z","3VJ4PFXFJ3TL96TFXMATEMT7KJHUAI","","","<img src=""img/flower6.png"" style=""width:200px; border:14px solid green;"">","null","","","","","",""
"712","","image-keyboard-response","79","326996","0.0-79.0","3WQQ9FUS6BGUG3PORZEM2ORCCR3B8T","A1AYQ8E01NSY5Z","3VJ4PFXFJ3TL96TFXMATEMT7KJHUAI","","","img/flower5.png","75","714","2","1","2","",""
"null","","html-keyboard-response","80","327298","0.0-80.0","3WQQ9FUS6BGUG3PORZEM2ORCCR3B8T","A1AYQ8E01NSY5Z","3VJ4PFXFJ3TL96TFXMATEMT7KJHUAI","","","<img src=""img/flower5.png"" style=""width:200px; border:14px solid green;"">","null","","","","","",""
"1024","","image-keyboard-response","81","328324","0.0-81.0","3WQQ9FUS6BGUG3PORZEM2ORCCR3B8T","A1AYQ8E01NSY5Z","3VJ4PFXFJ3TL96TFXMATEMT7KJHUAI","","","img/flower6.png","76","1025","3","1","3","",""
"null","","html-keyboard-response","82","328634","0.0-82.0","3WQQ9FUS6BGUG3PORZEM2ORCCR3B8T","A1AYQ8E01NSY5Z","3VJ4PFXFJ3TL96TFXMATEMT7KJHUAI","","","<img src=""img/flower6.png"" style=""width:200px; border:14px solid green;"">","null","","","","","",""
"745","","image-keyboard-response","83","329381","0.0-83.0","3WQQ9FUS6BGUG3PORZEM2ORCCR3B8T","A1AYQ8E01NSY5Z","3VJ4PFXFJ3TL96TFXMATEMT7KJHUAI","","","img/flower4.png","74","747","1","0","1","",""
"null","","html-keyboard-response","84","329693","0.0-84.0","3WQQ9FUS6BGUG3PORZEM2ORCCR3B8T","A1AYQ8E01NSY5Z","3VJ4PFXFJ3TL96TFXMATEMT7KJHUAI","","","<img src=""img/flower4.png"" style=""width:200px;border:14px solid red;"">","null","","","","","",""
"1023","","image-keyboard-response","85","330716","0.0-85.0","3WQQ9FUS6BGUG3PORZEM2ORCCR3B8T","A1AYQ8E01NSY5Z","3VJ4PFXFJ3TL96TFXMATEMT7KJHUAI","","","img/flower6.png","76","1024","3","1","3","",""
"null","","html-keyboard-response","86","331023","0.0-86.0","3WQQ9FUS6BGUG3PORZEM2ORCCR3B8T","A1AYQ8E01NSY5Z","3VJ4PFXFJ3TL96TFXMATEMT7KJHUAI","","","<img src=""img/flower6.png"" style=""width:200px; border:14px solid green;"">","null","","","","","",""
"668","","image-keyboard-response","87","331693","0.0-87.0","3WQQ9FUS6BGUG3PORZEM2ORCCR3B8T","A1AYQ8E01NSY5Z","3VJ4PFXFJ3TL96TFXMATEMT7KJHUAI","","","img/flower4.png","74","671","1","0","1","",""
"null","","html-keyboard-response","88","332006","0.0-88.0","3WQQ9FUS6BGUG3PORZEM2ORCCR3B8T","A1AYQ8E01NSY5Z","3VJ4PFXFJ3TL96TFXMATEMT7KJHUAI","","","<img src=""img/flower4.png"" style=""width:200px;border:14px solid red;"">","null","","","","","",""
"1173","","image-keyboard-response","89","333181","0.0-89.0","3WQQ9FUS6BGUG3PORZEM2ORCCR3B8T","A1AYQ8E01NSY5Z","3VJ4PFXFJ3TL96TFXMATEMT7KJHUAI","","","img/flower6.png","76","1175","3","1","3","",""
"null","","html-keyboard-response","90","333485","0.0-90.0","3WQQ9FUS6BGUG3PORZEM2ORCCR3B8T","A1AYQ8E01NSY5Z","3VJ4PFXFJ3TL96TFXMATEMT7KJHUAI","","","<img src=""img/flower6.png"" style=""width:200px; border:14px solid green;"">","null","","","","","",""
"1205","","image-keyboard-response","91","334692","0.0-91.0","3WQQ9FUS6BGUG3PORZEM2ORCCR3B8T","A1AYQ8E01NSY5Z","3VJ4PFXFJ3TL96TFXMATEMT7KJHUAI","","","img/flower5.png","76","1206","3","1","2","",""
"null","","html-keyboard-response","92","334997","0.0-92.0","3WQQ9FUS6BGUG3PORZEM2ORCCR3B8T","A1AYQ8E01NSY5Z","3VJ4PFXFJ3TL96TFXMATEMT7KJHUAI","","","<img src=""img/flower5.png"" style=""width:200px; border:14px solid green;"">","null","","","","","",""
"903","","image-keyboard-response","93","335902","0.0-93.0","3WQQ9FUS6BGUG3PORZEM2ORCCR3B8T","A1AYQ8E01NSY5Z","3VJ4PFXFJ3TL96TFXMATEMT7KJHUAI","","","img/flower4.png","75","904","2","1","1","",""
"null","","html-keyboard-response","94","336217","0.0-94.0","3WQQ9FUS6BGUG3PORZEM2ORCCR3B8T","A1AYQ8E01NSY5Z","3VJ4PFXFJ3TL96TFXMATEMT7KJHUAI","","","<img src=""img/flower4.png"" style=""width:200px; border:14px solid green;"">","null","","","","","",""
"498","","image-keyboard-response","95","336717","0.0-95.0","3WQQ9FUS6BGUG3PORZEM2ORCCR3B8T","A1AYQ8E01NSY5Z","3VJ4PFXFJ3TL96TFXMATEMT7KJHUAI","","","img/flower4.png","75","500","2","1","1","",""
"null","","html-keyboard-response","96","337030","0.0-96.0","3WQQ9FUS6BGUG3PORZEM2ORCCR3B8T","A1AYQ8E01NSY5Z","3VJ4PFXFJ3TL96TFXMATEMT7KJHUAI","","","<img src=""img/flower4.png"" style=""width:200px; border:14px solid green;"">","null","","","","","",""
"693","","image-keyboard-response","97","337725","0.0-97.0","3WQQ9FUS6BGUG3PORZEM2ORCCR3B8T","A1AYQ8E01NSY5Z","3VJ4PFXFJ3TL96TFXMATEMT7KJHUAI","","","img/flower6.png","76","695","3","0","3","",""
"null","","html-keyboard-response","98","338042","0.0-98.0","3WQQ9FUS6BGUG3PORZEM2ORCCR3B8T","A1AYQ8E01NSY5Z","3VJ4PFXFJ3TL96TFXMATEMT7KJHUAI","","","<img src=""img/flower6.png"" style=""width:200px;border:14px solid red;"">","null","","","","","",""
"1073","","image-keyboard-response","99","339117","0.0-99.0","3WQQ9FUS6BGUG3PORZEM2ORCCR3B8T","A1AYQ8E01NSY5Z","3VJ4PFXFJ3TL96TFXMATEMT7KJHUAI","","","img/flower5.png","75","1075","2","1","2","",""
"null","","html-keyboard-response","100","339430","0.0-100.0","3WQQ9FUS6BGUG3PORZEM2ORCCR3B8T","A1AYQ8E01NSY5Z","3VJ4PFXFJ3TL96TFXMATEMT7KJHUAI","","","<img src=""img/flower5.png"" style=""width:200px; border:14px solid green;"">","null","","","","","",""
"924","","image-keyboard-response","101","340355","0.0-101.0","3WQQ9FUS6BGUG3PORZEM2ORCCR3B8T","A1AYQ8E01NSY5Z","3VJ4PFXFJ3TL96TFXMATEMT7KJHUAI","","","img/flower5.png","75","924","2","1","2","",""
"null","","html-keyboard-response","102","340669","0.0-102.0","3WQQ9FUS6BGUG3PORZEM2ORCCR3B8T","A1AYQ8E01NSY5Z","3VJ4PFXFJ3TL96TFXMATEMT7KJHUAI","","","<img src=""img/flower5.png"" style=""width:200px; border:14px solid green;"">","null","","","","","",""
"1462","","image-keyboard-response","103","342133","0.0-103.0","3WQQ9FUS6BGUG3PORZEM2ORCCR3B8T","A1AYQ8E01NSY5Z","3VJ4PFXFJ3TL96TFXMATEMT7KJHUAI","","","img/flower4.png","74","1463","1","1","1","",""
"null","","html-keyboard-response","104","342448","0.0-104.0","3WQQ9FUS6BGUG3PORZEM2ORCCR3B8T","A1AYQ8E01NSY5Z","3VJ4PFXFJ3TL96TFXMATEMT7KJHUAI","","","<img src=""img/flower4.png"" style=""width:200px; border:14px solid green;"">","null","","","","","",""
"787","","image-keyboard-response","105","343237","0.0-105.0","3WQQ9FUS6BGUG3PORZEM2ORCCR3B8T","A1AYQ8E01NSY5Z","3VJ4PFXFJ3TL96TFXMATEMT7KJHUAI","","","img/flower6.png","76","788","3","1","3","",""
"null","","html-keyboard-response","106","343541","0.0-106.0","3WQQ9FUS6BGUG3PORZEM2ORCCR3B8T","A1AYQ8E01NSY5Z","3VJ4PFXFJ3TL96TFXMATEMT7KJHUAI","","","<img src=""img/flower6.png"" style=""width:200px; border:14px solid green;"">","null","","","","","",""
"773","","image-keyboard-response","107","344316","0.0-107.0","3WQQ9FUS6BGUG3PORZEM2ORCCR3B8T","A1AYQ8E01NSY5Z","3VJ4PFXFJ3TL96TFXMATEMT7KJHUAI","","","img/flower4.png","74","774","1","0","1","",""
"null","","html-keyboard-response","108","344632","0.0-108.0","3WQQ9FUS6BGUG3PORZEM2ORCCR3B8T","A1AYQ8E01NSY5Z","3VJ4PFXFJ3TL96TFXMATEMT7KJHUAI","","","<img src=""img/flower4.png"" style=""width:200px;border:14px solid red;"">","null","","","","","",""
"1162","","image-keyboard-response","109","345797","0.0-109.0","3WQQ9FUS6BGUG3PORZEM2ORCCR3B8T","A1AYQ8E01NSY5Z","3VJ4PFXFJ3TL96TFXMATEMT7KJHUAI","","","img/flower6.png","74","1164","1","1","3","",""
"null","","html-keyboard-response","110","346107","0.0-110.0","3WQQ9FUS6BGUG3PORZEM2ORCCR3B8T","A1AYQ8E01NSY5Z","3VJ4PFXFJ3TL96TFXMATEMT7KJHUAI","","","<img src=""img/flower6.png"" style=""width:200px; border:14px solid green;"">","null","","","","","",""
"1144","","image-keyboard-response","111","347253","0.0-111.0","3WQQ9FUS6BGUG3PORZEM2ORCCR3B8T","A1AYQ8E01NSY5Z","3VJ4PFXFJ3TL96TFXMATEMT7KJHUAI","","","img/flower5.png","76","1146","3","1","2","",""
"null","","html-keyboard-response","112","347561","0.0-112.0","3WQQ9FUS6BGUG3PORZEM2ORCCR3B8T","A1AYQ8E01NSY5Z","3VJ4PFXFJ3TL96TFXMATEMT7KJHUAI","","","<img src=""img/flower5.png"" style=""width:200px; border:14px solid green;"">","null","","","","","",""
"826","","image-keyboard-response","113","348389","0.0-113.0","3WQQ9FUS6BGUG3PORZEM2ORCCR3B8T","A1AYQ8E01NSY5Z","3VJ4PFXFJ3TL96TFXMATEMT7KJHUAI","","","img/flower6.png","76","827","3","1","3","",""
"null","","html-keyboard-response","114","348694","0.0-114.0","3WQQ9FUS6BGUG3PORZEM2ORCCR3B8T","A1AYQ8E01NSY5Z","3VJ4PFXFJ3TL96TFXMATEMT7KJHUAI","","","<img src=""img/flower6.png"" style=""width:200px; border:14px solid green;"">","null","","","","","",""
"997","","image-keyboard-response","115","349693","0.0-115.0","3WQQ9FUS6BGUG3PORZEM2ORCCR3B8T","A1AYQ8E01NSY5Z","3VJ4PFXFJ3TL96TFXMATEMT7KJHUAI","","","img/flower4.png","75","998","2","0","1","",""
"null","","html-keyboard-response","116","350036","0.0-116.0","3WQQ9FUS6BGUG3PORZEM2ORCCR3B8T","A1AYQ8E01NSY5Z","3VJ4PFXFJ3TL96TFXMATEMT7KJHUAI","","","<img src=""img/flower4.png"" style=""width:200px;border:14px solid red;"">","null","","","","","",""
"504","","image-keyboard-response","117","350540","0.0-117.0","3WQQ9FUS6BGUG3PORZEM2ORCCR3B8T","A1AYQ8E01NSY5Z","3VJ4PFXFJ3TL96TFXMATEMT7KJHUAI","","","img/flower4.png","74","505","1","1","1","",""
"null","","html-keyboard-response","118","350844","0.0-118.0","3WQQ9FUS6BGUG3PORZEM2ORCCR3B8T","A1AYQ8E01NSY5Z","3VJ4PFXFJ3TL96TFXMATEMT7KJHUAI","","","<img src=""img/flower4.png"" style=""width:200px; border:14px solid green;"">","null","","","","","",""
"1055","","image-keyboard-response","119","351901","0.0-119.0","3WQQ9FUS6BGUG3PORZEM2ORCCR3B8T","A1AYQ8E01NSY5Z","3VJ4PFXFJ3TL96TFXMATEMT7KJHUAI","","","img/flower5.png","75","1056","2","1","2","",""
"null","","html-keyboard-response","120","352217","0.0-120.0","3WQQ9FUS6BGUG3PORZEM2ORCCR3B8T","A1AYQ8E01NSY5Z","3VJ4PFXFJ3TL96TFXMATEMT7KJHUAI","","","<img src=""img/flower5.png"" style=""width:200px; border:14px solid green;"">","null","","","","","",""
"794","","image-keyboard-response","121","353013","0.0-121.0","3WQQ9FUS6BGUG3PORZEM2ORCCR3B8T","A1AYQ8E01NSY5Z","3VJ4PFXFJ3TL96TFXMATEMT7KJHUAI","","","img/flower5.png","75","796","2","1","2","",""
"null","","html-keyboard-response","122","353327","0.0-122.0","3WQQ9FUS6BGUG3PORZEM2ORCCR3B8T","A1AYQ8E01NSY5Z","3VJ4PFXFJ3TL96TFXMATEMT7KJHUAI","","","<img src=""img/flower5.png"" style=""width:200px; border:14px solid green;"">","null","","","","","",""
"988","","image-keyboard-response","123","354317","0.0-123.0","3WQQ9FUS6BGUG3PORZEM2ORCCR3B8T","A1AYQ8E01NSY5Z","3VJ4PFXFJ3TL96TFXMATEMT7KJHUAI","","","img/flower4.png","74","989","1","0","1","",""
"null","","html-keyboard-response","124","354625","0.0-124.0","3WQQ9FUS6BGUG3PORZEM2ORCCR3B8T","A1AYQ8E01NSY5Z","3VJ4PFXFJ3TL96TFXMATEMT7KJHUAI","","","<img src=""img/flower4.png"" style=""width:200px;border:14px solid red;"">","null","","","","","",""
"1746","","instructions","125","356372","0.0-125.0","3WQQ9FUS6BGUG3PORZEM2ORCCR3B8T","A1AYQ8E01NSY5Z","3VJ4PFXFJ3TL96TFXMATEMT7KJHUAI","","[{""page_index"":0,""viewing_time"":1745}]","","","","","","","",""
"902","","image-keyboard-response","126","357275","0.0-126.0","3WQQ9FUS6BGUG3PORZEM2ORCCR3B8T","A1AYQ8E01NSY5Z","3VJ4PFXFJ3TL96TFXMATEMT7KJHUAI","","","img/flower4.png","74","903","1","1","2","1,0.5,0.5,0.5,1,0.5,0.5,0.5,1",""
"null","","html-keyboard-response","127","357582","0.0-127.0","3WQQ9FUS6BGUG3PORZEM2ORCCR3B8T","A1AYQ8E01NSY5Z","3VJ4PFXFJ3TL96TFXMATEMT7KJHUAI","","","<img src=""img/flower4.png"" style=""width:200px; border:14px solid green;"">","null","","","","","",""
"686","","image-keyboard-response","128","358269","0.0-128.0","3WQQ9FUS6BGUG3PORZEM2ORCCR3B8T","A1AYQ8E01NSY5Z","3VJ4PFXFJ3TL96TFXMATEMT7KJHUAI","","","img/flower6.png","76","686","3","1","3","1,0.5,0.5,0.5,1,0.5,0.5,0.5,1",""
"null","","html-keyboard-response","129","358580","0.0-129.0","3WQQ9FUS6BGUG3PORZEM2ORCCR3B8T","A1AYQ8E01NSY5Z","3VJ4PFXFJ3TL96TFXMATEMT7KJHUAI","","","<img src=""img/flower6.png"" style=""width:200px; border:14px solid green;"">","null","","","","","",""
"881","","image-keyboard-response","130","359461","0.0-130.0","3WQQ9FUS6BGUG3PORZEM2ORCCR3B8T","A1AYQ8E01NSY5Z","3VJ4PFXFJ3TL96TFXMATEMT7KJHUAI","","","img/flower4.png","74","882","1","1","2","1,0.5,0.5,0.5,1,0.5,0.5,0.5,1",""
"null","","html-keyboard-response","131","359766","0.0-131.0","3WQQ9FUS6BGUG3PORZEM2ORCCR3B8T","A1AYQ8E01NSY5Z","3VJ4PFXFJ3TL96TFXMATEMT7KJHUAI","","","<img src=""img/flower4.png"" style=""width:200px; border:14px solid green;"">","null","","","","","",""
"916","","image-keyboard-response","132","360685","0.0-132.0","3WQQ9FUS6BGUG3PORZEM2ORCCR3B8T","A1AYQ8E01NSY5Z","3VJ4PFXFJ3TL96TFXMATEMT7KJHUAI","","","img/flower4.png","75","918","2","1","2","1,0.5,0.5,0.5,1,0.5,0.5,0.5,1",""
"null","","html-keyboard-response","133","360999","0.0-133.0","3WQQ9FUS6BGUG3PORZEM2ORCCR3B8T","A1AYQ8E01NSY5Z","3VJ4PFXFJ3TL96TFXMATEMT7KJHUAI","","","<img src=""img/flower4.png"" style=""width:200px; border:14px solid green;"">","null","","","","","",""
"1147","","image-keyboard-response","134","362149","0.0-134.0","3WQQ9FUS6BGUG3PORZEM2ORCCR3B8T","A1AYQ8E01NSY5Z","3VJ4PFXFJ3TL96TFXMATEMT7KJHUAI","","","img/flower1.png","75","1149","2","0","1","1,0.5,0.5,0.5,1,0.5,0.5,0.5,1",""
"null","","html-keyboard-response","135","362456","0.0-135.0","3WQQ9FUS6BGUG3PORZEM2ORCCR3B8T","A1AYQ8E01NSY5Z","3VJ4PFXFJ3TL96TFXMATEMT7KJHUAI","","","<img src=""img/flower1.png"" style=""width:200px;border:14px solid red;"">","null","","","","","",""
"978","","image-keyboard-response","136","363436","0.0-136.0","3WQQ9FUS6BGUG3PORZEM2ORCCR3B8T","A1AYQ8E01NSY5Z","3VJ4PFXFJ3TL96TFXMATEMT7KJHUAI","","","img/flower1.png","76","980","3","0","1","1,0.5,0.5,0.5,1,0.5,0.5,0.5,1",""
"null","","html-keyboard-response","137","363751","0.0-137.0","3WQQ9FUS6BGUG3PORZEM2ORCCR3B8T","A1AYQ8E01NSY5Z","3VJ4PFXFJ3TL96TFXMATEMT7KJHUAI","","","<img src=""img/flower1.png"" style=""width:200px;border:14px solid red;"">","null","","","","","",""
"596","","image-keyboard-response","138","364349","0.0-138.0","3WQQ9FUS6BGUG3PORZEM2ORCCR3B8T","A1AYQ8E01NSY5Z","3VJ4PFXFJ3TL96TFXMATEMT7KJHUAI","","","img/flower1.png","74","597","1","1","1","1,0.5,0.5,0.5,1,0.5,0.5,0.5,1",""
"null","","html-keyboard-response","139","364661","0.0-139.0","3WQQ9FUS6BGUG3PORZEM2ORCCR3B8T","A1AYQ8E01NSY5Z","3VJ4PFXFJ3TL96TFXMATEMT7KJHUAI","","","<img src=""img/flower1.png"" style=""width:200px; border:14px solid green;"">","null","","","","","",""
"886","","image-keyboard-response","140","365549","0.0-140.0","3WQQ9FUS6BGUG3PORZEM2ORCCR3B8T","A1AYQ8E01NSY5Z","3VJ4PFXFJ3TL96TFXMATEMT7KJHUAI","","","img/flower4.png","75","888","2","1","2","1,0.5,0.5,0.5,1,0.5,0.5,0.5,1",""
"null","","html-keyboard-response","141","365852","0.0-141.0","3WQQ9FUS6BGUG3PORZEM2ORCCR3B8T","A1AYQ8E01NSY5Z","3VJ4PFXFJ3TL96TFXMATEMT7KJHUAI","","","<img src=""img/flower4.png"" style=""width:200px; border:14px solid green;"">","null","","","","","",""
"1039","","image-keyboard-response","142","366892","0.0-142.0","3WQQ9FUS6BGUG3PORZEM2ORCCR3B8T","A1AYQ8E01NSY5Z","3VJ4PFXFJ3TL96TFXMATEMT7KJHUAI","","","img/flower1.png","75","1040","2","0","1","1,0.5,0.5,0.5,1,0.5,0.5,0.5,1",""
"null","","html-keyboard-response","143","367208","0.0-143.0","3WQQ9FUS6BGUG3PORZEM2ORCCR3B8T","A1AYQ8E01NSY5Z","3VJ4PFXFJ3TL96TFXMATEMT7KJHUAI","","","<img src=""img/flower1.png"" style=""width:200px;border:14px solid red;"">","null","","","","","",""
"650","","image-keyboard-response","144","367860","0.0-144.0","3WQQ9FUS6BGUG3PORZEM2ORCCR3B8T","A1AYQ8E01NSY5Z","3VJ4PFXFJ3TL96TFXMATEMT7KJHUAI","","","img/flower1.png","74","651","1","1","1","1,0.5,0.5,0.5,1,0.5,0.5,0.5,1",""
"null","","html-keyboard-response","145","368177","0.0-145.0","3WQQ9FUS6BGUG3PORZEM2ORCCR3B8T","A1AYQ8E01NSY5Z","3VJ4PFXFJ3TL96TFXMATEMT7KJHUAI","","","<img src=""img/flower1.png"" style=""width:200px; border:14px solid green;"">","null","","","","","",""
"731","","image-keyboard-response","146","368909","0.0-146.0","3WQQ9FUS6BGUG3PORZEM2ORCCR3B8T","A1AYQ8E01NSY5Z","3VJ4PFXFJ3TL96TFXMATEMT7KJHUAI","","","img/flower1.png","74","732","1","1","1","1,0.5,0.5,0.5,1,0.5,0.5,0.5,1",""
"null","","html-keyboard-response","147","369222","0.0-147.0","3WQQ9FUS6BGUG3PORZEM2ORCCR3B8T","A1AYQ8E01NSY5Z","3VJ4PFXFJ3TL96TFXMATEMT7KJHUAI","","","<img src=""img/flower1.png"" style=""width:200px; border:14px solid green;"">","null","","","","","",""
"1133","","image-keyboard-response","148","370357","0.0-148.0","3WQQ9FUS6BGUG3PORZEM2ORCCR3B8T","A1AYQ8E01NSY5Z","3VJ4PFXFJ3TL96TFXMATEMT7KJHUAI","","","img/flower6.png","74","1134","1","1","3","1,0.5,0.5,0.5,1,0.5,0.5,0.5,1",""
"null","","html-keyboard-response","149","370660","0.0-149.0","3WQQ9FUS6BGUG3PORZEM2ORCCR3B8T","A1AYQ8E01NSY5Z","3VJ4PFXFJ3TL96TFXMATEMT7KJHUAI","","","<img src=""img/flower6.png"" style=""width:200px; border:14px solid green;"">","null","","","","","",""
"1165","","image-keyboard-response","150","371826","0.0-150.0","3WQQ9FUS6BGUG3PORZEM2ORCCR3B8T","A1AYQ8E01NSY5Z","3VJ4PFXFJ3TL96TFXMATEMT7KJHUAI","","","img/flower4.png","75","1165","2","1","2","1,0.5,0.5,0.5,1,0.5,0.5,0.5,1",""
"null","","html-keyboard-response","151","372130","0.0-151.0","3WQQ9FUS6BGUG3PORZEM2ORCCR3B8T","A1AYQ8E01NSY5Z","3VJ4PFXFJ3TL96TFXMATEMT7KJHUAI","","","<img src=""img/flower4.png"" style=""width:200px; border:14px solid green;"">","null","","","","","",""
"512","","image-keyboard-response","152","372646","0.0-152.0","3WQQ9FUS6BGUG3PORZEM2ORCCR3B8T","A1AYQ8E01NSY5Z","3VJ4PFXFJ3TL96TFXMATEMT7KJHUAI","","","img/flower4.png","75","514","2","1","2","1,0.5,0.5,0.5,1,0.5,0.5,0.5,1",""
"null","","html-keyboard-response","153","372957","0.0-153.0","3WQQ9FUS6BGUG3PORZEM2ORCCR3B8T","A1AYQ8E01NSY5Z","3VJ4PFXFJ3TL96TFXMATEMT7KJHUAI","","","<img src=""img/flower4.png"" style=""width:200px; border:14px solid green;"">","null","","","","","",""
"881","","image-keyboard-response","154","373840","0.0-154.0","3WQQ9FUS6BGUG3PORZEM2ORCCR3B8T","A1AYQ8E01NSY5Z","3VJ4PFXFJ3TL96TFXMATEMT7KJHUAI","","","img/flower6.png","76","882","3","1","3","1,0.5,0.5,0.5,1,0.5,0.5,0.5,1",""
"null","","html-keyboard-response","155","374152","0.0-155.0","3WQQ9FUS6BGUG3PORZEM2ORCCR3B8T","A1AYQ8E01NSY5Z","3VJ4PFXFJ3TL96TFXMATEMT7KJHUAI","","","<img src=""img/flower6.png"" style=""width:200px; border:14px solid green;"">","null","","","","","",""
"1201","","image-keyboard-response","156","375357","0.0-156.0","3WQQ9FUS6BGUG3PORZEM2ORCCR3B8T","A1AYQ8E01NSY5Z","3VJ4PFXFJ3TL96TFXMATEMT7KJHUAI","","","img/flower1.png","74","1204","1","1","1","1,0.5,0.5,0.5,1,0.5,0.5,0.5,1",""
"null","","html-keyboard-response","157","375672","0.0-157.0","3WQQ9FUS6BGUG3PORZEM2ORCCR3B8T","A1AYQ8E01NSY5Z","3VJ4PFXFJ3TL96TFXMATEMT7KJHUAI","","","<img src=""img/flower1.png"" style=""width:200px; border:14px solid green;"">","null","","","","","",""
"466","","image-keyboard-response","158","376138","0.0-158.0","3WQQ9FUS6BGUG3PORZEM2ORCCR3B8T","A1AYQ8E01NSY5Z","3VJ4PFXFJ3TL96TFXMATEMT7KJHUAI","","","img/flower1.png","74","466","1","1","1","1,0.5,0.5,0.5,1,0.5,0.5,0.5,1",""
"null","","html-keyboard-response","159","376452","0.0-159.0","3WQQ9FUS6BGUG3PORZEM2ORCCR3B8T","A1AYQ8E01NSY5Z","3VJ4PFXFJ3TL96TFXMATEMT7KJHUAI","","","<img src=""img/flower1.png"" style=""width:200px; border:14px solid green;"">","null","","","","","",""
"1400","","image-keyboard-response","160","377855","0.0-160.0","3WQQ9FUS6BGUG3PORZEM2ORCCR3B8T","A1AYQ8E01NSY5Z","3VJ4PFXFJ3TL96TFXMATEMT7KJHUAI","","","img/flower6.png","74","1402","1","1","3","1,0.5,0.5,0.5,1,0.5,0.5,0.5,1",""
"null","","html-keyboard-response","161","378160","0.0-161.0","3WQQ9FUS6BGUG3PORZEM2ORCCR3B8T","A1AYQ8E01NSY5Z","3VJ4PFXFJ3TL96TFXMATEMT7KJHUAI","","","<img src=""img/flower6.png"" style=""width:200px; border:14px solid green;"">","null","","","","","",""
"762","","image-keyboard-response","162","378926","0.0-162.0","3WQQ9FUS6BGUG3PORZEM2ORCCR3B8T","A1AYQ8E01NSY5Z","3VJ4PFXFJ3TL96TFXMATEMT7KJHUAI","","","img/flower1.png","74","765","1","1","1","1,0.5,0.5,0.5,1,0.5,0.5,0.5,1",""
"null","","html-keyboard-response","163","379236","0.0-163.0","3WQQ9FUS6BGUG3PORZEM2ORCCR3B8T","A1AYQ8E01NSY5Z","3VJ4PFXFJ3TL96TFXMATEMT7KJHUAI","","","<img src=""img/flower1.png"" style=""width:200px; border:14px solid green;"">","null","","","","","",""
"1006","","image-keyboard-response","164","380246","0.0-164.0","3WQQ9FUS6BGUG3PORZEM2ORCCR3B8T","A1AYQ8E01NSY5Z","3VJ4PFXFJ3TL96TFXMATEMT7KJHUAI","","","img/flower4.png","75","1008","2","1","2","1,0.5,0.5,0.5,1,0.5,0.5,0.5,1",""
"null","","html-keyboard-response","165","380554","0.0-165.0","3WQQ9FUS6BGUG3PORZEM2ORCCR3B8T","A1AYQ8E01NSY5Z","3VJ4PFXFJ3TL96TFXMATEMT7KJHUAI","","","<img src=""img/flower4.png"" style=""width:200px; border:14px solid green;"">","null","","","","","",""
"1529","","image-keyboard-response","166","382085","0.0-166.0","3WQQ9FUS6BGUG3PORZEM2ORCCR3B8T","A1AYQ8E01NSY5Z","3VJ4PFXFJ3TL96TFXMATEMT7KJHUAI","","","img/flower6.png","76","1531","3","1","3","1,0.5,0.5,0.5,1,0.5,0.5,0.5,1",""
"null","","html-keyboard-response","167","382396","0.0-167.0","3WQQ9FUS6BGUG3PORZEM2ORCCR3B8T","A1AYQ8E01NSY5Z","3VJ4PFXFJ3TL96TFXMATEMT7KJHUAI","","","<img src=""img/flower6.png"" style=""width:200px; border:14px solid green;"">","null","","","","","",""
"894","","image-keyboard-response","168","383293","0.0-168.0","3WQQ9FUS6BGUG3PORZEM2ORCCR3B8T","A1AYQ8E01NSY5Z","3VJ4PFXFJ3TL96TFXMATEMT7KJHUAI","","","img/flower4.png","75","896","2","1","2","1,0.5,0.5,0.5,1,0.5,0.5,0.5,1",""
"null","","html-keyboard-response","169","383600","0.0-169.0","3WQQ9FUS6BGUG3PORZEM2ORCCR3B8T","A1AYQ8E01NSY5Z","3VJ4PFXFJ3TL96TFXMATEMT7KJHUAI","","","<img src=""img/flower4.png"" style=""width:200px; border:14px solid green;"">","null","","","","","",""
"955","","image-keyboard-response","170","384557","0.0-170.0","3WQQ9FUS6BGUG3PORZEM2ORCCR3B8T","A1AYQ8E01NSY5Z","3VJ4PFXFJ3TL96TFXMATEMT7KJHUAI","","","img/flower6.png","76","957","3","1","3","1,0.5,0.5,0.5,1,0.5,0.5,0.5,1",""
"null","","html-keyboard-response","171","384862","0.0-171.0","3WQQ9FUS6BGUG3PORZEM2ORCCR3B8T","A1AYQ8E01NSY5Z","3VJ4PFXFJ3TL96TFXMATEMT7KJHUAI","","","<img src=""img/flower6.png"" style=""width:200px; border:14px solid green;"">","null","","","","","",""
"940","","image-keyboard-response","172","385806","0.0-172.0","3WQQ9FUS6BGUG3PORZEM2ORCCR3B8T","A1AYQ8E01NSY5Z","3VJ4PFXFJ3TL96TFXMATEMT7KJHUAI","","","img/flower1.png","74","942","1","1","1","1,0.5,0.5,0.5,1,0.5,0.5,0.5,1",""
"null","","html-keyboard-response","173","386117","0.0-173.0","3WQQ9FUS6BGUG3PORZEM2ORCCR3B8T","A1AYQ8E01NSY5Z","3VJ4PFXFJ3TL96TFXMATEMT7KJHUAI","","","<img src=""img/flower1.png"" style=""width:200px; border:14px solid green;"">","null","","","","","",""
"1014","","image-keyboard-response","174","387133","0.0-174.0","3WQQ9FUS6BGUG3PORZEM2ORCCR3B8T","A1AYQ8E01NSY5Z","3VJ4PFXFJ3TL96TFXMATEMT7KJHUAI","","","img/flower4.png","75","1015","2","1","2","1,0.5,0.5,0.5,1,0.5,0.5,0.5,1",""
"null","","html-keyboard-response","175","387448","0.0-175.0","3WQQ9FUS6BGUG3PORZEM2ORCCR3B8T","A1AYQ8E01NSY5Z","3VJ4PFXFJ3TL96TFXMATEMT7KJHUAI","","","<img src=""img/flower4.png"" style=""width:200px; border:14px solid green;"">","null","","","","","",""
"723","","image-keyboard-response","176","388172","0.0-176.0","3WQQ9FUS6BGUG3PORZEM2ORCCR3B8T","A1AYQ8E01NSY5Z","3VJ4PFXFJ3TL96TFXMATEMT7KJHUAI","","","img/flower6.png","76","724","3","1","3","1,0.5,0.5,0.5,1,0.5,0.5,0.5,1",""
"null","","html-keyboard-response","177","388480","0.0-177.0","3WQQ9FUS6BGUG3PORZEM2ORCCR3B8T","A1AYQ8E01NSY5Z","3VJ4PFXFJ3TL96TFXMATEMT7KJHUAI","","","<img src=""img/flower6.png"" style=""width:200px; border:14px solid green;"">","null","","","","","",""
"867","","image-keyboard-response","178","389349","0.0-178.0","3WQQ9FUS6BGUG3PORZEM2ORCCR3B8T","A1AYQ8E01NSY5Z","3VJ4PFXFJ3TL96TFXMATEMT7KJHUAI","","","img/flower6.png","76","868","3","1","3","1,0.5,0.5,0.5,1,0.5,0.5,0.5,1",""
"null","","html-keyboard-response","179","389658","0.0-179.0","3WQQ9FUS6BGUG3PORZEM2ORCCR3B8T","A1AYQ8E01NSY5Z","3VJ4PFXFJ3TL96TFXMATEMT7KJHUAI","","","<img src=""img/flower6.png"" style=""width:200px; border:14px solid green;"">","null","","","","","",""
"768","","image-keyboard-response","180","390428","0.0-180.0","3WQQ9FUS6BGUG3PORZEM2ORCCR3B8T","A1AYQ8E01NSY5Z","3VJ4PFXFJ3TL96TFXMATEMT7KJHUAI","","","img/flower4.png","75","769","2","1","2","1,0.5,0.5,0.5,1,0.5,0.5,0.5,1",""
"null","","html-keyboard-response","181","390752","0.0-181.0","3WQQ9FUS6BGUG3PORZEM2ORCCR3B8T","A1AYQ8E01NSY5Z","3VJ4PFXFJ3TL96TFXMATEMT7KJHUAI","","","<img src=""img/flower4.png"" style=""width:200px; border:14px solid green;"">","null","","","","","",""
"493","","image-keyboard-response","182","391245","0.0-182.0","3WQQ9FUS6BGUG3PORZEM2ORCCR3B8T","A1AYQ8E01NSY5Z","3VJ4PFXFJ3TL96TFXMATEMT7KJHUAI","","","img/flower4.png","75","493","2","1","2","1,0.5,0.5,0.5,1,0.5,0.5,0.5,1",""
"null","","html-keyboard-response","183","391550","0.0-183.0","3WQQ9FUS6BGUG3PORZEM2ORCCR3B8T","A1AYQ8E01NSY5Z","3VJ4PFXFJ3TL96TFXMATEMT7KJHUAI","","","<img src=""img/flower4.png"" style=""width:200px; border:14px solid green;"">","null","","","","","",""
"1077","","image-keyboard-response","184","392628","0.0-184.0","3WQQ9FUS6BGUG3PORZEM2ORCCR3B8T","A1AYQ8E01NSY5Z","3VJ4PFXFJ3TL96TFXMATEMT7KJHUAI","","","img/flower1.png","74","1078","1","1","1","1,0.5,0.5,0.5,1,0.5,0.5,0.5,1",""
"null","","html-keyboard-response","185","392932","0.0-185.0","3WQQ9FUS6BGUG3PORZEM2ORCCR3B8T","A1AYQ8E01NSY5Z","3VJ4PFXFJ3TL96TFXMATEMT7KJHUAI","","","<img src=""img/flower1.png"" style=""width:200px; border:14px solid green;"">","null","","","","","",""
"415","","image-keyboard-response","186","393349","0.0-186.0","3WQQ9FUS6BGUG3PORZEM2ORCCR3B8T","A1AYQ8E01NSY5Z","3VJ4PFXFJ3TL96TFXMATEMT7KJHUAI","","","img/flower1.png","74","417","1","1","1","1,0.5,0.5,0.5,1,0.5,0.5,0.5,1",""
"null","","html-keyboard-response","187","393665","0.0-187.0","3WQQ9FUS6BGUG3PORZEM2ORCCR3B8T","A1AYQ8E01NSY5Z","3VJ4PFXFJ3TL96TFXMATEMT7KJHUAI","","","<img src=""img/flower1.png"" style=""width:200px; border:14px solid green;"">","null","","","","","",""
"704","","image-keyboard-response","188","394372","0.0-188.0","3WQQ9FUS6BGUG3PORZEM2ORCCR3B8T","A1AYQ8E01NSY5Z","3VJ4PFXFJ3TL96TFXMATEMT7KJHUAI","","","img/flower6.png","76","706","3","1","3","1,0.5,0.5,0.5,1,0.5,0.5,0.5,1",""
"null","","html-keyboard-response","189","394683","0.0-189.0","3WQQ9FUS6BGUG3PORZEM2ORCCR3B8T","A1AYQ8E01NSY5Z","3VJ4PFXFJ3TL96TFXMATEMT7KJHUAI","","","<img src=""img/flower6.png"" style=""width:200px; border:14px solid green;"">","null","","","","","",""
"1061","","image-keyboard-response","190","395748","0.0-190.0","3WQQ9FUS6BGUG3PORZEM2ORCCR3B8T","A1AYQ8E01NSY5Z","3VJ4PFXFJ3TL96TFXMATEMT7KJHUAI","","","img/flower4.png","75","1063","2","1","2","1,0.5,0.5,0.5,1,0.5,0.5,0.5,1",""
"null","","html-keyboard-response","191","396059","0.0-191.0","3WQQ9FUS6BGUG3PORZEM2ORCCR3B8T","A1AYQ8E01NSY5Z","3VJ4PFXFJ3TL96TFXMATEMT7KJHUAI","","","<img src=""img/flower4.png"" style=""width:200px; border:14px solid green;"">","null","","","","","",""
"784","","image-keyboard-response","192","396845","0.0-192.0","3WQQ9FUS6BGUG3PORZEM2ORCCR3B8T","A1AYQ8E01NSY5Z","3VJ4PFXFJ3TL96TFXMATEMT7KJHUAI","","","img/flower1.png","74","785","1","1","1","1,0.5,0.5,0.5,1,0.5,0.5,0.5,1",""
"null","","html-keyboard-response","193","397155","0.0-193.0","3WQQ9FUS6BGUG3PORZEM2ORCCR3B8T","A1AYQ8E01NSY5Z","3VJ4PFXFJ3TL96TFXMATEMT7KJHUAI","","","<img src=""img/flower1.png"" style=""width:200px; border:14px solid green;"">","null","","","","","",""
"567","","image-keyboard-response","194","397726","0.0-194.0","3WQQ9FUS6BGUG3PORZEM2ORCCR3B8T","A1AYQ8E01NSY5Z","3VJ4PFXFJ3TL96TFXMATEMT7KJHUAI","","","img/flower1.png","74","569","1","1","1","1,0.5,0.5,0.5,1,0.5,0.5,0.5,1",""
"null","","html-keyboard-response","195","398028","0.0-195.0","3WQQ9FUS6BGUG3PORZEM2ORCCR3B8T","A1AYQ8E01NSY5Z","3VJ4PFXFJ3TL96TFXMATEMT7KJHUAI","","","<img src=""img/flower1.png"" style=""width:200px; border:14px solid green;"">","null","","","","","",""
"815","","image-keyboard-response","196","398846","0.0-196.0","3WQQ9FUS6BGUG3PORZEM2ORCCR3B8T","A1AYQ8E01NSY5Z","3VJ4PFXFJ3TL96TFXMATEMT7KJHUAI","","","img/flower6.png","76","818","3","1","3","1,0.5,0.5,0.5,1,0.5,0.5,0.5,1",""
"null","","html-keyboard-response","197","399151","0.0-197.0","3WQQ9FUS6BGUG3PORZEM2ORCCR3B8T","A1AYQ8E01NSY5Z","3VJ4PFXFJ3TL96TFXMATEMT7KJHUAI","","","<img src=""img/flower6.png"" style=""width:200px; border:14px solid green;"">","null","","","","","",""
"869","","image-keyboard-response","198","400021","0.0-198.0","3WQQ9FUS6BGUG3PORZEM2ORCCR3B8T","A1AYQ8E01NSY5Z","3VJ4PFXFJ3TL96TFXMATEMT7KJHUAI","","","img/flower4.png","75","870","2","1","2","1,0.5,0.5,0.5,1,0.5,0.5,0.5,1",""
"null","","html-keyboard-response","199","400338","0.0-199.0","3WQQ9FUS6BGUG3PORZEM2ORCCR3B8T","A1AYQ8E01NSY5Z","3VJ4PFXFJ3TL96TFXMATEMT7KJHUAI","","","<img src=""img/flower4.png"" style=""width:200px; border:14px solid green;"">","null","","","","","",""
"888","","image-keyboard-response","200","401228","0.0-200.0","3WQQ9FUS6BGUG3PORZEM2ORCCR3B8T","A1AYQ8E01NSY5Z","3VJ4PFXFJ3TL96TFXMATEMT7KJHUAI","","","img/flower6.png","75","889","2","1","3","1,0.5,0.5,0.5,1,0.5,0.5,0.5,1",""
"null","","html-keyboard-response","201","401540","0.0-201.0","3WQQ9FUS6BGUG3PORZEM2ORCCR3B8T","A1AYQ8E01NSY5Z","3VJ4PFXFJ3TL96TFXMATEMT7KJHUAI","","","<img src=""img/flower6.png"" style=""width:200px; border:14px solid green;"">","null","","","","","",""
"999","","image-keyboard-response","202","402540","0.0-202.0","3WQQ9FUS6BGUG3PORZEM2ORCCR3B8T","A1AYQ8E01NSY5Z","3VJ4PFXFJ3TL96TFXMATEMT7KJHUAI","","","img/flower4.png","75","1000","2","1","2","1,0.5,0.5,0.5,1,0.5,0.5,0.5,1",""
"null","","html-keyboard-response","203","402854","0.0-203.0","3WQQ9FUS6BGUG3PORZEM2ORCCR3B8T","A1AYQ8E01NSY5Z","3VJ4PFXFJ3TL96TFXMATEMT7KJHUAI","","","<img src=""img/flower4.png"" style=""width:200px; border:14px solid green;"">","null","","","","","",""
"1565","","image-keyboard-response","204","404421","0.0-204.0","3WQQ9FUS6BGUG3PORZEM2ORCCR3B8T","A1AYQ8E01NSY5Z","3VJ4PFXFJ3TL96TFXMATEMT7KJHUAI","","","img/flower6.png","74","1567","1","1","3","1,0.5,0.5,0.5,1,0.5,0.5,0.5,1",""
"null","","html-keyboard-response","205","404730","0.0-205.0","3WQQ9FUS6BGUG3PORZEM2ORCCR3B8T","A1AYQ8E01NSY5Z","3VJ4PFXFJ3TL96TFXMATEMT7KJHUAI","","","<img src=""img/flower6.png"" style=""width:200px; border:14px solid green;"">","null","","","","","",""
"601","","image-keyboard-response","206","405332","0.0-206.0","3WQQ9FUS6BGUG3PORZEM2ORCCR3B8T","A1AYQ8E01NSY5Z","3VJ4PFXFJ3TL96TFXMATEMT7KJHUAI","","","img/flower6.png","74","601","1","1","3","1,0.5,0.5,0.5,1,0.5,0.5,0.5,1",""
"null","","html-keyboard-response","207","405643","0.0-207.0","3WQQ9FUS6BGUG3PORZEM2ORCCR3B8T","A1AYQ8E01NSY5Z","3VJ4PFXFJ3TL96TFXMATEMT7KJHUAI","","","<img src=""img/flower6.png"" style=""width:200px; border:14px solid green;"">","null","","","","","",""
"686","","image-keyboard-response","208","406332","0.0-208.0","3WQQ9FUS6BGUG3PORZEM2ORCCR3B8T","A1AYQ8E01NSY5Z","3VJ4PFXFJ3TL96TFXMATEMT7KJHUAI","","","img/flower4.png","75","688","2","1","2","1,0.5,0.5,0.5,1,0.5,0.5,0.5,1",""
"null","","html-keyboard-response","209","406645","0.0-209.0","3WQQ9FUS6BGUG3PORZEM2ORCCR3B8T","A1AYQ8E01NSY5Z","3VJ4PFXFJ3TL96TFXMATEMT7KJHUAI","","","<img src=""img/flower4.png"" style=""width:200px; border:14px solid green;"">","null","","","","","",""
"893","","image-keyboard-response","210","407539","0.0-210.0","3WQQ9FUS6BGUG3PORZEM2ORCCR3B8T","A1AYQ8E01NSY5Z","3VJ4PFXFJ3TL96TFXMATEMT7KJHUAI","","","img/flower1.png","75","893","2","1","1","1,0.5,0.5,0.5,1,0.5,0.5,0.5,1",""
"null","","html-keyboard-response","211","407849","0.0-211.0","3WQQ9FUS6BGUG3PORZEM2ORCCR3B8T","A1AYQ8E01NSY5Z","3VJ4PFXFJ3TL96TFXMATEMT7KJHUAI","","","<img src=""img/flower1.png"" style=""width:200px; border:14px solid green;"">","null","","","","","",""
"1762","","image-keyboard-response","212","409612","0.0-212.0","3WQQ9FUS6BGUG3PORZEM2ORCCR3B8T","A1AYQ8E01NSY5Z","3VJ4PFXFJ3TL96TFXMATEMT7KJHUAI","","","img/flower4.png","75","1763","2","1","2","1,0.5,0.5,0.5,1,0.5,0.5,0.5,1",""
"null","","html-keyboard-response","213","409915","0.0-213.0","3WQQ9FUS6BGUG3PORZEM2ORCCR3B8T","A1AYQ8E01NSY5Z","3VJ4PFXFJ3TL96TFXMATEMT7KJHUAI","","","<img src=""img/flower4.png"" style=""width:200px; border:14px solid green;"">","null","","","","","",""
"480","","image-keyboard-response","214","410397","0.0-214.0","3WQQ9FUS6BGUG3PORZEM2ORCCR3B8T","A1AYQ8E01NSY5Z","3VJ4PFXFJ3TL96TFXMATEMT7KJHUAI","","","img/flower4.png","75","483","2","1","2","1,0.5,0.5,0.5,1,0.5,0.5,0.5,1",""
"null","","html-keyboard-response","215","410708","0.0-215.0","3WQQ9FUS6BGUG3PORZEM2ORCCR3B8T","A1AYQ8E01NSY5Z","3VJ4PFXFJ3TL96TFXMATEMT7KJHUAI","","","<img src=""img/flower4.png"" style=""width:200px; border:14px solid green;"">","null","","","","","",""
"1134","","image-keyboard-response","216","411843","0.0-216.0","3WQQ9FUS6BGUG3PORZEM2ORCCR3B8T","A1AYQ8E01NSY5Z","3VJ4PFXFJ3TL96TFXMATEMT7KJHUAI","","","img/flower6.png","74","1135","1","1","3","1,0.5,0.5,0.5,1,0.5,0.5,0.5,1",""
"null","","html-keyboard-response","217","412146","0.0-217.0","3WQQ9FUS6BGUG3PORZEM2ORCCR3B8T","A1AYQ8E01NSY5Z","3VJ4PFXFJ3TL96TFXMATEMT7KJHUAI","","","<img src=""img/flower6.png"" style=""width:200px; border:14px solid green;"">","null","","","","","",""
"1153","","image-keyboard-response","218","413301","0.0-218.0","3WQQ9FUS6BGUG3PORZEM2ORCCR3B8T","A1AYQ8E01NSY5Z","3VJ4PFXFJ3TL96TFXMATEMT7KJHUAI","","","img/flower4.png","75","1154","2","1","2","1,0.5,0.5,0.5,1,0.5,0.5,0.5,1",""
"null","","html-keyboard-response","219","413611","0.0-219.0","3WQQ9FUS6BGUG3PORZEM2ORCCR3B8T","A1AYQ8E01NSY5Z","3VJ4PFXFJ3TL96TFXMATEMT7KJHUAI","","","<img src=""img/flower4.png"" style=""width:200px; border:14px solid green;"">","null","","","","","",""
"658","","image-keyboard-response","220","414270","0.0-220.0","3WQQ9FUS6BGUG3PORZEM2ORCCR3B8T","A1AYQ8E01NSY5Z","3VJ4PFXFJ3TL96TFXMATEMT7KJHUAI","","","img/flower4.png","75","659","2","1","2","1,0.5,0.5,0.5,1,0.5,0.5,0.5,1",""
"null","","html-keyboard-response","221","414579","0.0-221.0","3WQQ9FUS6BGUG3PORZEM2ORCCR3B8T","A1AYQ8E01NSY5Z","3VJ4PFXFJ3TL96TFXMATEMT7KJHUAI","","","<img src=""img/flower4.png"" style=""width:200px; border:14px solid green;"">","null","","","","","",""
"401","","image-keyboard-response","222","414980","0.0-222.0","3WQQ9FUS6BGUG3PORZEM2ORCCR3B8T","A1AYQ8E01NSY5Z","3VJ4PFXFJ3TL96TFXMATEMT7KJHUAI","","","img/flower4.png","75","402","2","1","2","1,0.5,0.5,0.5,1,0.5,0.5,0.5,1",""
"null","","html-keyboard-response","223","415286","0.0-223.0","3WQQ9FUS6BGUG3PORZEM2ORCCR3B8T","A1AYQ8E01NSY5Z","3VJ4PFXFJ3TL96TFXMATEMT7KJHUAI","","","<img src=""img/flower4.png"" style=""width:200px; border:14px solid green;"">","null","","","","","",""
"1030","","image-keyboard-response","224","416316","0.0-224.0","3WQQ9FUS6BGUG3PORZEM2ORCCR3B8T","A1AYQ8E01NSY5Z","3VJ4PFXFJ3TL96TFXMATEMT7KJHUAI","","","img/flower6.png","74","1031","1","0","3","1,0.5,0.5,0.5,1,0.5,0.5,0.5,1",""
"null","","html-keyboard-response","225","416632","0.0-225.0","3WQQ9FUS6BGUG3PORZEM2ORCCR3B8T","A1AYQ8E01NSY5Z","3VJ4PFXFJ3TL96TFXMATEMT7KJHUAI","","","<img src=""img/flower6.png"" style=""width:200px;border:14px solid red;"">","null","","","","","",""
"1490","","image-keyboard-response","226","418124","0.0-226.0","3WQQ9FUS6BGUG3PORZEM2ORCCR3B8T","A1AYQ8E01NSY5Z","3VJ4PFXFJ3TL96TFXMATEMT7KJHUAI","","","img/flower1.png","74","1490","1","1","1","1,0.5,0.5,0.5,1,0.5,0.5,0.5,1",""
"null","","html-keyboard-response","227","418434","0.0-227.0","3WQQ9FUS6BGUG3PORZEM2ORCCR3B8T","A1AYQ8E01NSY5Z","3VJ4PFXFJ3TL96TFXMATEMT7KJHUAI","","","<img src=""img/flower1.png"" style=""width:200px; border:14px solid green;"">","null","","","","","",""
"904","","image-keyboard-response","228","419340","0.0-228.0","3WQQ9FUS6BGUG3PORZEM2ORCCR3B8T","A1AYQ8E01NSY5Z","3VJ4PFXFJ3TL96TFXMATEMT7KJHUAI","","","img/flower1.png","74","906","1","1","1","1,0.5,0.5,0.5,1,0.5,0.5,0.5,1",""
"null","","html-keyboard-response","229","419654","0.0-229.0","3WQQ9FUS6BGUG3PORZEM2ORCCR3B8T","A1AYQ8E01NSY5Z","3VJ4PFXFJ3TL96TFXMATEMT7KJHUAI","","","<img src=""img/flower1.png"" style=""width:200px; border:14px solid green;"">","null","","","","","",""
"1188","","image-keyboard-response","230","420846","0.0-230.0","3WQQ9FUS6BGUG3PORZEM2ORCCR3B8T","A1AYQ8E01NSY5Z","3VJ4PFXFJ3TL96TFXMATEMT7KJHUAI","","","img/flower4.png","75","1190","2","1","2","1,0.5,0.5,0.5,1,0.5,0.5,0.5,1",""
"null","","html-keyboard-response","231","421156","0.0-231.0","3WQQ9FUS6BGUG3PORZEM2ORCCR3B8T","A1AYQ8E01NSY5Z","3VJ4PFXFJ3TL96TFXMATEMT7KJHUAI","","","<img src=""img/flower4.png"" style=""width:200px; border:14px solid green;"">","null","","","","","",""
"782","","image-keyboard-response","232","421940","0.0-232.0","3WQQ9FUS6BGUG3PORZEM2ORCCR3B8T","A1AYQ8E01NSY5Z","3VJ4PFXFJ3TL96TFXMATEMT7KJHUAI","","","img/flower6.png","76","784","3","1","3","1,0.5,0.5,0.5,1,0.5,0.5,0.5,1",""
"null","","html-keyboard-response","233","422249","0.0-233.0","3WQQ9FUS6BGUG3PORZEM2ORCCR3B8T","A1AYQ8E01NSY5Z","3VJ4PFXFJ3TL96TFXMATEMT7KJHUAI","","","<img src=""img/flower6.png"" style=""width:200px; border:14px solid green;"">","null","","","","","",""
"659","","image-keyboard-response","234","422909","0.0-234.0","3WQQ9FUS6BGUG3PORZEM2ORCCR3B8T","A1AYQ8E01NSY5Z","3VJ4PFXFJ3TL96TFXMATEMT7KJHUAI","","","img/flower6.png","76","660","3","1","3","1,0.5,0.5,0.5,1,0.5,0.5,0.5,1",""
"null","","html-keyboard-response","235","423217","0.0-235.0","3WQQ9FUS6BGUG3PORZEM2ORCCR3B8T","A1AYQ8E01NSY5Z","3VJ4PFXFJ3TL96TFXMATEMT7KJHUAI","","","<img src=""img/flower6.png"" style=""width:200px; border:14px solid green;"">","null","","","","","",""
"740","","image-keyboard-response","236","423957","0.0-236.0","3WQQ9FUS6BGUG3PORZEM2ORCCR3B8T","A1AYQ8E01NSY5Z","3VJ4PFXFJ3TL96TFXMATEMT7KJHUAI","","","img/flower4.png","75","741","2","1","2","1,0.5,0.5,0.5,1,0.5,0.5,0.5,1",""
"null","","html-keyboard-response","237","424264","0.0-237.0","3WQQ9FUS6BGUG3PORZEM2ORCCR3B8T","A1AYQ8E01NSY5Z","3VJ4PFXFJ3TL96TFXMATEMT7KJHUAI","","","<img src=""img/flower4.png"" style=""width:200px; border:14px solid green;"">","null","","","","","",""
"1155","","image-keyboard-response","238","425420","0.0-238.0","3WQQ9FUS6BGUG3PORZEM2ORCCR3B8T","A1AYQ8E01NSY5Z","3VJ4PFXFJ3TL96TFXMATEMT7KJHUAI","","","img/flower1.png","74","1156","1","1","1","1,0.5,0.5,0.5,1,0.5,0.5,0.5,1",""
"null","","html-keyboard-response","239","425728","0.0-239.0","3WQQ9FUS6BGUG3PORZEM2ORCCR3B8T","A1AYQ8E01NSY5Z","3VJ4PFXFJ3TL96TFXMATEMT7KJHUAI","","","<img src=""img/flower1.png"" style=""width:200px; border:14px solid green;"">","null","","","","","",""
"714","","image-keyboard-response","240","426444","0.0-240.0","3WQQ9FUS6BGUG3PORZEM2ORCCR3B8T","A1AYQ8E01NSY5Z","3VJ4PFXFJ3TL96TFXMATEMT7KJHUAI","","","img/flower6.png","76","715","3","1","3","1,0.5,0.5,0.5,1,0.5,0.5,0.5,1",""
"null","","html-keyboard-response","241","426758","0.0-241.0","3WQQ9FUS6BGUG3PORZEM2ORCCR3B8T","A1AYQ8E01NSY5Z","3VJ4PFXFJ3TL96TFXMATEMT7KJHUAI","","","<img src=""img/flower6.png"" style=""width:200px; border:14px solid green;"">","null","","","","","",""
"534","","image-keyboard-response","242","427292","0.0-242.0","3WQQ9FUS6BGUG3PORZEM2ORCCR3B8T","A1AYQ8E01NSY5Z","3VJ4PFXFJ3TL96TFXMATEMT7KJHUAI","","","img/flower6.png","76","534","3","1","3","1,0.5,0.5,0.5,1,0.5,0.5,0.5,1",""
"null","","html-keyboard-response","243","427600","0.0-243.0","3WQQ9FUS6BGUG3PORZEM2ORCCR3B8T","A1AYQ8E01NSY5Z","3VJ4PFXFJ3TL96TFXMATEMT7KJHUAI","","","<img src=""img/flower6.png"" style=""width:200px; border:14px solid green;"">","null","","","","","",""
"1098","","image-keyboard-response","244","428699","0.0-244.0","3WQQ9FUS6BGUG3PORZEM2ORCCR3B8T","A1AYQ8E01NSY5Z","3VJ4PFXFJ3TL96TFXMATEMT7KJHUAI","","","img/flower4.png","74","1098","1","0","2","1,0.5,0.5,0.5,1,0.5,0.5,0.5,1",""
"null","","html-keyboard-response","245","429003","0.0-245.0","3WQQ9FUS6BGUG3PORZEM2ORCCR3B8T","A1AYQ8E01NSY5Z","3VJ4PFXFJ3TL96TFXMATEMT7KJHUAI","","","<img src=""img/flower4.png"" style=""width:200px;border:14px solid red;"">","null","","","","","",""
"935","","image-keyboard-response","246","429941","0.0-246.0","3WQQ9FUS6BGUG3PORZEM2ORCCR3B8T","A1AYQ8E01NSY5Z","3VJ4PFXFJ3TL96TFXMATEMT7KJHUAI","","","img/flower6.png","76","937","3","1","3","1,0.5,0.5,0.5,1,0.5,0.5,0.5,1",""
"null","","html-keyboard-response","247","430251","0.0-247.0","3WQQ9FUS6BGUG3PORZEM2ORCCR3B8T","A1AYQ8E01NSY5Z","3VJ4PFXFJ3TL96TFXMATEMT7KJHUAI","","","<img src=""img/flower6.png"" style=""width:200px; border:14px solid green;"">","null","","","","","",""
"769","","image-keyboard-response","248","431020","0.0-248.0","3WQQ9FUS6BGUG3PORZEM2ORCCR3B8T","A1AYQ8E01NSY5Z","3VJ4PFXFJ3TL96TFXMATEMT7KJHUAI","","","img/flower6.png","76","770","3","1","3","1,0.5,0.5,0.5,1,0.5,0.5,0.5,1",""
"null","","html-keyboard-response","249","431327","0.0-249.0","3WQQ9FUS6BGUG3PORZEM2ORCCR3B8T","A1AYQ8E01NSY5Z","3VJ4PFXFJ3TL96TFXMATEMT7KJHUAI","","","<img src=""img/flower6.png"" style=""width:200px; border:14px solid green;"">","null","","","","","",""
"467","","image-keyboard-response","250","431797","0.0-250.0","3WQQ9FUS6BGUG3PORZEM2ORCCR3B8T","A1AYQ8E01NSY5Z","3VJ4PFXFJ3TL96TFXMATEMT7KJHUAI","","","img/flower4.png","75","470","2","1","2","1,0.5,0.5,0.5,1,0.5,0.5,0.5,1",""
"null","","html-keyboard-response","251","432107","0.0-251.0","3WQQ9FUS6BGUG3PORZEM2ORCCR3B8T","A1AYQ8E01NSY5Z","3VJ4PFXFJ3TL96TFXMATEMT7KJHUAI","","","<img src=""img/flower4.png"" style=""width:200px; border:14px solid green;"">","null","","","","","",""
"1086","","image-keyboard-response","252","433197","0.0-252.0","3WQQ9FUS6BGUG3PORZEM2ORCCR3B8T","A1AYQ8E01NSY5Z","3VJ4PFXFJ3TL96TFXMATEMT7KJHUAI","","","img/flower1.png","74","1088","1","1","1","1,0.5,0.5,0.5,1,0.5,0.5,0.5,1",""
"null","","html-keyboard-response","253","433500","0.0-253.0","3WQQ9FUS6BGUG3PORZEM2ORCCR3B8T","A1AYQ8E01NSY5Z","3VJ4PFXFJ3TL96TFXMATEMT7KJHUAI","","","<img src=""img/flower1.png"" style=""width:200px; border:14px solid green;"">","null","","","","","",""
"621","","image-keyboard-response","254","434124","0.0-254.0","3WQQ9FUS6BGUG3PORZEM2ORCCR3B8T","A1AYQ8E01NSY5Z","3VJ4PFXFJ3TL96TFXMATEMT7KJHUAI","","","img/flower1.png","74","623","1","1","1","1,0.5,0.5,0.5,1,0.5,0.5,0.5,1",""
"null","","html-keyboard-response","255","434434","0.0-255.0","3WQQ9FUS6BGUG3PORZEM2ORCCR3B8T","A1AYQ8E01NSY5Z","3VJ4PFXFJ3TL96TFXMATEMT7KJHUAI","","","<img src=""img/flower1.png"" style=""width:200px; border:14px solid green;"">","null","","","","","",""
"1057","","image-keyboard-response","256","435492","0.0-256.0","3WQQ9FUS6BGUG3PORZEM2ORCCR3B8T","A1AYQ8E01NSY5Z","3VJ4PFXFJ3TL96TFXMATEMT7KJHUAI","","","img/flower6.png","76","1058","3","1","3","1,0.5,0.5,0.5,1,0.5,0.5,0.5,1",""
"null","","html-keyboard-response","257","435795","0.0-257.0","3WQQ9FUS6BGUG3PORZEM2ORCCR3B8T","A1AYQ8E01NSY5Z","3VJ4PFXFJ3TL96TFXMATEMT7KJHUAI","","","<img src=""img/flower6.png"" style=""width:200px; border:14px solid green;"">","null","","","","","",""
"610","","image-keyboard-response","258","436408","0.0-258.0","3WQQ9FUS6BGUG3PORZEM2ORCCR3B8T","A1AYQ8E01NSY5Z","3VJ4PFXFJ3TL96TFXMATEMT7KJHUAI","","","img/flower1.png","75","612","2","0","1","1,0.5,0.5,0.5,1,0.5,0.5,0.5,1",""
"null","","html-keyboard-response","259","436720","0.0-259.0","3WQQ9FUS6BGUG3PORZEM2ORCCR3B8T","A1AYQ8E01NSY5Z","3VJ4PFXFJ3TL96TFXMATEMT7KJHUAI","","","<img src=""img/flower1.png"" style=""width:200px;border:14px solid red;"">","null","","","","","",""
"1060","","image-keyboard-response","260","437782","0.0-260.0","3WQQ9FUS6BGUG3PORZEM2ORCCR3B8T","A1AYQ8E01NSY5Z","3VJ4PFXFJ3TL96TFXMATEMT7KJHUAI","","","img/flower6.png","76","1062","3","1","3","1,0.5,0.5,0.5,1,0.5,0.5,0.5,1",""
"null","","html-keyboard-response","261","438090","0.0-261.0","3WQQ9FUS6BGUG3PORZEM2ORCCR3B8T","A1AYQ8E01NSY5Z","3VJ4PFXFJ3TL96TFXMATEMT7KJHUAI","","","<img src=""img/flower6.png"" style=""width:200px; border:14px solid green;"">","null","","","","","",""
"761","","image-keyboard-response","262","438854","0.0-262.0","3WQQ9FUS6BGUG3PORZEM2ORCCR3B8T","A1AYQ8E01NSY5Z","3VJ4PFXFJ3TL96TFXMATEMT7KJHUAI","","","img/flower1.png","74","763","1","1","1","1,0.5,0.5,0.5,1,0.5,0.5,0.5,1",""
"null","","html-keyboard-response","263","439169","0.0-263.0","3WQQ9FUS6BGUG3PORZEM2ORCCR3B8T","A1AYQ8E01NSY5Z","3VJ4PFXFJ3TL96TFXMATEMT7KJHUAI","","","<img src=""img/flower1.png"" style=""width:200px; border:14px solid green;"">","null","","","","","",""
"425","","image-keyboard-response","264","439596","0.0-264.0","3WQQ9FUS6BGUG3PORZEM2ORCCR3B8T","A1AYQ8E01NSY5Z","3VJ4PFXFJ3TL96TFXMATEMT7KJHUAI","","","img/flower1.png","74","427","1","1","1","1,0.5,0.5,0.5,1,0.5,0.5,0.5,1",""
"null","","html-keyboard-response","265","439903","0.0-265.0","3WQQ9FUS6BGUG3PORZEM2ORCCR3B8T","A1AYQ8E01NSY5Z","3VJ4PFXFJ3TL96TFXMATEMT7KJHUAI","","","<img src=""img/flower1.png"" style=""width:200px; border:14px solid green;"">","null","","","","","",""
"471","","image-keyboard-response","266","440376","0.0-266.0","3WQQ9FUS6BGUG3PORZEM2ORCCR3B8T","A1AYQ8E01NSY5Z","3VJ4PFXFJ3TL96TFXMATEMT7KJHUAI","","","img/flower1.png","74","473","1","1","1","1,0.5,0.5,0.5,1,0.5,0.5,0.5,1",""
"null","","html-keyboard-response","267","440684","0.0-267.0","3WQQ9FUS6BGUG3PORZEM2ORCCR3B8T","A1AYQ8E01NSY5Z","3VJ4PFXFJ3TL96TFXMATEMT7KJHUAI","","","<img src=""img/flower1.png"" style=""width:200px; border:14px solid green;"">","null","","","","","",""
"806","","image-keyboard-response","268","441491","0.0-268.0","3WQQ9FUS6BGUG3PORZEM2ORCCR3B8T","A1AYQ8E01NSY5Z","3VJ4PFXFJ3TL96TFXMATEMT7KJHUAI","","","img/flower6.png","76","807","3","1","3","1,0.5,0.5,0.5,1,0.5,0.5,0.5,1",""
"null","","html-keyboard-response","269","441795","0.0-269.0","3WQQ9FUS6BGUG3PORZEM2ORCCR3B8T","A1AYQ8E01NSY5Z","3VJ4PFXFJ3TL96TFXMATEMT7KJHUAI","","","<img src=""img/flower6.png"" style=""width:200px; border:14px solid green;"">","null","","","","","",""
"703","","image-keyboard-response","270","442499","0.0-270.0","3WQQ9FUS6BGUG3PORZEM2ORCCR3B8T","A1AYQ8E01NSY5Z","3VJ4PFXFJ3TL96TFXMATEMT7KJHUAI","","","img/flower4.png","75","703","2","1","2","1,0.5,0.5,0.5,1,0.5,0.5,0.5,1",""
"null","","html-keyboard-response","271","442805","0.0-271.0","3WQQ9FUS6BGUG3PORZEM2ORCCR3B8T","A1AYQ8E01NSY5Z","3VJ4PFXFJ3TL96TFXMATEMT7KJHUAI","","","<img src=""img/flower4.png"" style=""width:200px; border:14px solid green;"">","null","","","","","",""
"758","","image-keyboard-response","272","443565","0.0-272.0","3WQQ9FUS6BGUG3PORZEM2ORCCR3B8T","A1AYQ8E01NSY5Z","3VJ4PFXFJ3TL96TFXMATEMT7KJHUAI","","","img/flower1.png","74","759","1","1","1","1,0.5,0.5,0.5,1,0.5,0.5,0.5,1",""
"null","","html-keyboard-response","273","443881","0.0-273.0","3WQQ9FUS6BGUG3PORZEM2ORCCR3B8T","A1AYQ8E01NSY5Z","3VJ4PFXFJ3TL96TFXMATEMT7KJHUAI","","","<img src=""img/flower1.png"" style=""width:200px; border:14px solid green;"">","null","","","","","",""
"858","","image-keyboard-response","274","444741","0.0-274.0","3WQQ9FUS6BGUG3PORZEM2ORCCR3B8T","A1AYQ8E01NSY5Z","3VJ4PFXFJ3TL96TFXMATEMT7KJHUAI","","","img/flower6.png","76","860","3","1","3","1,0.5,0.5,0.5,1,0.5,0.5,0.5,1",""
"null","","html-keyboard-response","275","445052","0.0-275.0","3WQQ9FUS6BGUG3PORZEM2ORCCR3B8T","A1AYQ8E01NSY5Z","3VJ4PFXFJ3TL96TFXMATEMT7KJHUAI","","","<img src=""img/flower6.png"" style=""width:200px; border:14px solid green;"">","null","","","","","",""
"728","","image-keyboard-response","276","445780","0.0-276.0","3WQQ9FUS6BGUG3PORZEM2ORCCR3B8T","A1AYQ8E01NSY5Z","3VJ4PFXFJ3TL96TFXMATEMT7KJHUAI","","","img/flower1.png","75","729","2","1","1","1,0.5,0.5,0.5,1,0.5,0.5,0.5,1",""
"null","","html-keyboard-response","277","446092","0.0-277.0","3WQQ9FUS6BGUG3PORZEM2ORCCR3B8T","A1AYQ8E01NSY5Z","3VJ4PFXFJ3TL96TFXMATEMT7KJHUAI","","","<img src=""img/flower1.png"" style=""width:200px; border:14px solid green;"">","null","","","","","",""
"519","","image-keyboard-response","278","446613","0.0-278.0","3WQQ9FUS6BGUG3PORZEM2ORCCR3B8T","A1AYQ8E01NSY5Z","3VJ4PFXFJ3TL96TFXMATEMT7KJHUAI","","","img/flower1.png","75","520","2","0","1","1,0.5,0.5,0.5,1,0.5,0.5,0.5,1",""
"null","","html-keyboard-response","279","446926","0.0-279.0","3WQQ9FUS6BGUG3PORZEM2ORCCR3B8T","A1AYQ8E01NSY5Z","3VJ4PFXFJ3TL96TFXMATEMT7KJHUAI","","","<img src=""img/flower1.png"" style=""width:200px;border:14px solid red;"">","null","","","","","",""
"762","","image-keyboard-response","280","447692","0.0-280.0","3WQQ9FUS6BGUG3PORZEM2ORCCR3B8T","A1AYQ8E01NSY5Z","3VJ4PFXFJ3TL96TFXMATEMT7KJHUAI","","","img/flower1.png","74","765","1","1","1","1,0.5,0.5,0.5,1,0.5,0.5,0.5,1",""
"null","","html-keyboard-response","281","448004","0.0-281.0","3WQQ9FUS6BGUG3PORZEM2ORCCR3B8T","A1AYQ8E01NSY5Z","3VJ4PFXFJ3TL96TFXMATEMT7KJHUAI","","","<img src=""img/flower1.png"" style=""width:200px; border:14px solid green;"">","null","","","","","",""
"910","","image-keyboard-response","282","448917","0.0-282.0","3WQQ9FUS6BGUG3PORZEM2ORCCR3B8T","A1AYQ8E01NSY5Z","3VJ4PFXFJ3TL96TFXMATEMT7KJHUAI","","","img/flower4.png","74","912","1","1","2","1,0.5,0.5,0.5,1,0.5,0.5,0.5,1",""
"null","","html-keyboard-response","283","449222","0.0-283.0","3WQQ9FUS6BGUG3PORZEM2ORCCR3B8T","A1AYQ8E01NSY5Z","3VJ4PFXFJ3TL96TFXMATEMT7KJHUAI","","","<img src=""img/flower4.png"" style=""width:200px; border:14px solid green;"">","null","","","","","",""
"886","","image-keyboard-response","284","450109","0.0-284.0","3WQQ9FUS6BGUG3PORZEM2ORCCR3B8T","A1AYQ8E01NSY5Z","3VJ4PFXFJ3TL96TFXMATEMT7KJHUAI","","","img/flower6.png","76","887","3","1","3","1,0.5,0.5,0.5,1,0.5,0.5,0.5,1",""
"null","","html-keyboard-response","285","450424","0.0-285.0","3WQQ9FUS6BGUG3PORZEM2ORCCR3B8T","A1AYQ8E01NSY5Z","3VJ4PFXFJ3TL96TFXMATEMT7KJHUAI","","","<img src=""img/flower6.png"" style=""width:200px; border:14px solid green;"">","null","","","","","",""
"667","","image-keyboard-response","286","451092","0.0-286.0","3WQQ9FUS6BGUG3PORZEM2ORCCR3B8T","A1AYQ8E01NSY5Z","3VJ4PFXFJ3TL96TFXMATEMT7KJHUAI","","","img/flower1.png","75","668","2","0","1","1,0.5,0.5,0.5,1,0.5,0.5,0.5,1",""
"null","","html-keyboard-response","287","451405","0.0-287.0","3WQQ9FUS6BGUG3PORZEM2ORCCR3B8T","A1AYQ8E01NSY5Z","3VJ4PFXFJ3TL96TFXMATEMT7KJHUAI","","","<img src=""img/flower1.png"" style=""width:200px;border:14px solid red;"">","null","","","","","",""
"888","","image-keyboard-response","288","452296","0.0-288.0","3WQQ9FUS6BGUG3PORZEM2ORCCR3B8T","A1AYQ8E01NSY5Z","3VJ4PFXFJ3TL96TFXMATEMT7KJHUAI","","","img/flower4.png","75","891","2","1","2","1,0.5,0.5,0.5,1,0.5,0.5,0.5,1",""
"null","","html-keyboard-response","289","452607","0.0-289.0","3WQQ9FUS6BGUG3PORZEM2ORCCR3B8T","A1AYQ8E01NSY5Z","3VJ4PFXFJ3TL96TFXMATEMT7KJHUAI","","","<img src=""img/flower4.png"" style=""width:200px; border:14px solid green;"">","null","","","","","",""
"1301","","image-keyboard-response","290","453908","0.0-290.0","3WQQ9FUS6BGUG3PORZEM2ORCCR3B8T","A1AYQ8E01NSY5Z","3VJ4PFXFJ3TL96TFXMATEMT7KJHUAI","","","img/flower6.png","74","1302","1","1","3","1,0.5,0.5,0.5,1,0.5,0.5,0.5,1",""
"null","","html-keyboard-response","291","454220","0.0-291.0","3WQQ9FUS6BGUG3PORZEM2ORCCR3B8T","A1AYQ8E01NSY5Z","3VJ4PFXFJ3TL96TFXMATEMT7KJHUAI","","","<img src=""img/flower6.png"" style=""width:200px; border:14px solid green;"">","null","","","","","",""
"1278","","image-keyboard-response","292","455500","0.0-292.0","3WQQ9FUS6BGUG3PORZEM2ORCCR3B8T","A1AYQ8E01NSY5Z","3VJ4PFXFJ3TL96TFXMATEMT7KJHUAI","","","img/flower4.png","74","1279","1","0","2","1,0.5,0.5,0.5,1,0.5,0.5,0.5,1",""
"null","","html-keyboard-response","293","455809","0.0-293.0","3WQQ9FUS6BGUG3PORZEM2ORCCR3B8T","A1AYQ8E01NSY5Z","3VJ4PFXFJ3TL96TFXMATEMT7KJHUAI","","","<img src=""img/flower4.png"" style=""width:200px;border:14px solid red;"">","null","","","","","",""
"890","","image-keyboard-response","294","456701","0.0-294.0","3WQQ9FUS6BGUG3PORZEM2ORCCR3B8T","A1AYQ8E01NSY5Z","3VJ4PFXFJ3TL96TFXMATEMT7KJHUAI","","","img/flower6.png","76","892","3","1","3","1,0.5,0.5,0.5,1,0.5,0.5,0.5,1",""
"null","","html-keyboard-response","295","457012","0.0-295.0","3WQQ9FUS6BGUG3PORZEM2ORCCR3B8T","A1AYQ8E01NSY5Z","3VJ4PFXFJ3TL96TFXMATEMT7KJHUAI","","","<img src=""img/flower6.png"" style=""width:200px; border:14px solid green;"">","null","","","","","",""
"615","","image-keyboard-response","296","457627","0.0-296.0","3WQQ9FUS6BGUG3PORZEM2ORCCR3B8T","A1AYQ8E01NSY5Z","3VJ4PFXFJ3TL96TFXMATEMT7KJHUAI","","","img/flower6.png","76","615","3","1","3","1,0.5,0.5,0.5,1,0.5,0.5,0.5,1",""
"null","","html-keyboard-response","297","457933","0.0-297.0","3WQQ9FUS6BGUG3PORZEM2ORCCR3B8T","A1AYQ8E01NSY5Z","3VJ4PFXFJ3TL96TFXMATEMT7KJHUAI","","","<img src=""img/flower6.png"" style=""width:200px; border:14px solid green;"">","null","","","","","",""
"927","","image-keyboard-response","298","458861","0.0-298.0","3WQQ9FUS6BGUG3PORZEM2ORCCR3B8T","A1AYQ8E01NSY5Z","3VJ4PFXFJ3TL96TFXMATEMT7KJHUAI","","","img/flower1.png","74","929","1","1","1","1,0.5,0.5,0.5,1,0.5,0.5,0.5,1",""
"null","","html-keyboard-response","299","459167","0.0-299.0","3WQQ9FUS6BGUG3PORZEM2ORCCR3B8T","A1AYQ8E01NSY5Z","3VJ4PFXFJ3TL96TFXMATEMT7KJHUAI","","","<img src=""img/flower1.png"" style=""width:200px; border:14px solid green;"">","null","","","","","",""
"1236","","image-keyboard-response","300","460404","0.0-300.0","3WQQ9FUS6BGUG3PORZEM2ORCCR3B8T","A1AYQ8E01NSY5Z","3VJ4PFXFJ3TL96TFXMATEMT7KJHUAI","","","img/flower6.png","74","1238","1","1","3","1,0.5,0.5,0.5,1,0.5,0.5,0.5,1",""
"null","","html-keyboard-response","301","460715","0.0-301.0","3WQQ9FUS6BGUG3PORZEM2ORCCR3B8T","A1AYQ8E01NSY5Z","3VJ4PFXFJ3TL96TFXMATEMT7KJHUAI","","","<img src=""img/flower6.png"" style=""width:200px; border:14px solid green;"">","null","","","","","",""
"751","","image-keyboard-response","302","461469","0.0-302.0","3WQQ9FUS6BGUG3PORZEM2ORCCR3B8T","A1AYQ8E01NSY5Z","3VJ4PFXFJ3TL96TFXMATEMT7KJHUAI","","","img/flower4.png","75","752","2","1","2","1,0.5,0.5,0.5,1,0.5,0.5,0.5,1",""
"null","","html-keyboard-response","303","461782","0.0-303.0","3WQQ9FUS6BGUG3PORZEM2ORCCR3B8T","A1AYQ8E01NSY5Z","3VJ4PFXFJ3TL96TFXMATEMT7KJHUAI","","","<img src=""img/flower4.png"" style=""width:200px; border:14px solid green;"">","null","","","","","",""
"763","","image-keyboard-response","304","462549","0.0-304.0","3WQQ9FUS6BGUG3PORZEM2ORCCR3B8T","A1AYQ8E01NSY5Z","3VJ4PFXFJ3TL96TFXMATEMT7KJHUAI","","","img/flower4.png","75","764","2","1","2","1,0.5,0.5,0.5,1,0.5,0.5,0.5,1",""
"null","","html-keyboard-response","305","462852","0.0-305.0","3WQQ9FUS6BGUG3PORZEM2ORCCR3B8T","A1AYQ8E01NSY5Z","3VJ4PFXFJ3TL96TFXMATEMT7KJHUAI","","","<img src=""img/flower4.png"" style=""width:200px; border:14px solid green;"">","null","","","","","",""
"","","html-keyboard-response","306","464765","0.0-306.0","3WQQ9FUS6BGUG3PORZEM2ORCCR3B8T","A1AYQ8E01NSY5Z","3VJ4PFXFJ3TL96TFXMATEMT7KJHUAI","","","","","","","","","",""
"917","","image-keyboard-response","307","465685","0.0-307.0","3WQQ9FUS6BGUG3PORZEM2ORCCR3B8T","A1AYQ8E01NSY5Z","3VJ4PFXFJ3TL96TFXMATEMT7KJHUAI","","","img/flower5.png","75","921","2","1","1","1,1,0,0,1,1,1,0,1",""
"null","","html-keyboard-response","308","466000","0.0-308.0","3WQQ9FUS6BGUG3PORZEM2ORCCR3B8T","A1AYQ8E01NSY5Z","3VJ4PFXFJ3TL96TFXMATEMT7KJHUAI","","","<img src=""img/flower5.png"" style=""width:200px; border:14px solid green;"">","null","","","","","",""
"786","","image-keyboard-response","309","466789","0.0-309.0","3WQQ9FUS6BGUG3PORZEM2ORCCR3B8T","A1AYQ8E01NSY5Z","3VJ4PFXFJ3TL96TFXMATEMT7KJHUAI","","","img/flower3.png","74","787","1","1","3","1,1,0,0,1,1,1,0,1",""
"null","","html-keyboard-response","310","467093","0.0-310.0","3WQQ9FUS6BGUG3PORZEM2ORCCR3B8T","A1AYQ8E01NSY5Z","3VJ4PFXFJ3TL96TFXMATEMT7KJHUAI","","","<img src=""img/flower3.png"" style=""width:200px; border:14px solid green;"">","null","","","","","",""
"789","","image-keyboard-response","311","467883","0.0-311.0","3WQQ9FUS6BGUG3PORZEM2ORCCR3B8T","A1AYQ8E01NSY5Z","3VJ4PFXFJ3TL96TFXMATEMT7KJHUAI","","","img/flower2.png","76","790","3","1","2","1,1,0,0,1,1,1,0,1",""
"null","","html-keyboard-response","312","468186","0.0-312.0","3WQQ9FUS6BGUG3PORZEM2ORCCR3B8T","A1AYQ8E01NSY5Z","3VJ4PFXFJ3TL96TFXMATEMT7KJHUAI","","","<img src=""img/flower2.png"" style=""width:200px; border:14px solid green;"">","null","","","","","",""
"896","","image-keyboard-response","313","469085","0.0-313.0","3WQQ9FUS6BGUG3PORZEM2ORCCR3B8T","A1AYQ8E01NSY5Z","3VJ4PFXFJ3TL96TFXMATEMT7KJHUAI","","","img/flower3.png","75","899","2","0","3","1,1,0,0,1,1,1,0,1",""
"null","","html-keyboard-response","314","469389","0.0-314.0","3WQQ9FUS6BGUG3PORZEM2ORCCR3B8T","A1AYQ8E01NSY5Z","3VJ4PFXFJ3TL96TFXMATEMT7KJHUAI","","","<img src=""img/flower3.png"" style=""width:200px;border:14px solid red;"">","null","","","","","",""
"548","","image-keyboard-response","315","469939","0.0-315.0","3WQQ9FUS6BGUG3PORZEM2ORCCR3B8T","A1AYQ8E01NSY5Z","3VJ4PFXFJ3TL96TFXMATEMT7KJHUAI","","","img/flower3.png","74","548","1","1","3","1,1,0,0,1,1,1,0,1",""
"null","","html-keyboard-response","316","470245","0.0-316.0","3WQQ9FUS6BGUG3PORZEM2ORCCR3B8T","A1AYQ8E01NSY5Z","3VJ4PFXFJ3TL96TFXMATEMT7KJHUAI","","","<img src=""img/flower3.png"" style=""width:200px; border:14px solid green;"">","null","","","","","",""
"444","","image-keyboard-response","317","470690","0.0-317.0","3WQQ9FUS6BGUG3PORZEM2ORCCR3B8T","A1AYQ8E01NSY5Z","3VJ4PFXFJ3TL96TFXMATEMT7KJHUAI","","","img/flower3.png","74","445","1","1","3","1,1,0,0,1,1,1,0,1",""
"null","","html-keyboard-response","318","471005","0.0-318.0","3WQQ9FUS6BGUG3PORZEM2ORCCR3B8T","A1AYQ8E01NSY5Z","3VJ4PFXFJ3TL96TFXMATEMT7KJHUAI","","","<img src=""img/flower3.png"" style=""width:200px; border:14px solid green;"">","null","","","","","",""
"391","","image-keyboard-response","319","471397","0.0-319.0","3WQQ9FUS6BGUG3PORZEM2ORCCR3B8T","A1AYQ8E01NSY5Z","3VJ4PFXFJ3TL96TFXMATEMT7KJHUAI","","","img/flower3.png","74","392","1","1","3","1,1,0,0,1,1,1,0,1",""
"null","","html-keyboard-response","320","471715","0.0-320.0","3WQQ9FUS6BGUG3PORZEM2ORCCR3B8T","A1AYQ8E01NSY5Z","3VJ4PFXFJ3TL96TFXMATEMT7KJHUAI","","","<img src=""img/flower3.png"" style=""width:200px; border:14px solid green;"">","null","","","","","",""
"759","","image-keyboard-response","321","472477","0.0-321.0","3WQQ9FUS6BGUG3PORZEM2ORCCR3B8T","A1AYQ8E01NSY5Z","3VJ4PFXFJ3TL96TFXMATEMT7KJHUAI","","","img/flower2.png","75","761","2","1","2","1,1,0,0,1,1,1,0,1",""
"null","","html-keyboard-response","322","472791","0.0-322.0","3WQQ9FUS6BGUG3PORZEM2ORCCR3B8T","A1AYQ8E01NSY5Z","3VJ4PFXFJ3TL96TFXMATEMT7KJHUAI","","","<img src=""img/flower2.png"" style=""width:200px; border:14px solid green;"">","null","","","","","",""
"404","","image-keyboard-response","323","473196","0.0-323.0","3WQQ9FUS6BGUG3PORZEM2ORCCR3B8T","A1AYQ8E01NSY5Z","3VJ4PFXFJ3TL96TFXMATEMT7KJHUAI","","","img/flower2.png","75","405","2","1","2","1,1,0,0,1,1,1,0,1",""
"null","","html-keyboard-response","324","473511","0.0-324.0","3WQQ9FUS6BGUG3PORZEM2ORCCR3B8T","A1AYQ8E01NSY5Z","3VJ4PFXFJ3TL96TFXMATEMT7KJHUAI","","","<img src=""img/flower2.png"" style=""width:200px; border:14px solid green;"">","null","","","","","",""
"355","","image-keyboard-response","325","473867","0.0-325.0","3WQQ9FUS6BGUG3PORZEM2ORCCR3B8T","A1AYQ8E01NSY5Z","3VJ4PFXFJ3TL96TFXMATEMT7KJHUAI","","","img/flower2.png","75","356","2","1","2","1,1,0,0,1,1,1,0,1",""
"null","","html-keyboard-response","326","474172","0.0-326.0","3WQQ9FUS6BGUG3PORZEM2ORCCR3B8T","A1AYQ8E01NSY5Z","3VJ4PFXFJ3TL96TFXMATEMT7KJHUAI","","","<img src=""img/flower2.png"" style=""width:200px; border:14px solid green;"">","null","","","","","",""
"998","","image-keyboard-response","327","475173","0.0-327.0","3WQQ9FUS6BGUG3PORZEM2ORCCR3B8T","A1AYQ8E01NSY5Z","3VJ4PFXFJ3TL96TFXMATEMT7KJHUAI","","","img/flower5.png","75","1001","2","1","1","1,1,0,0,1,1,1,0,1",""
"null","","html-keyboard-response","328","475483","0.0-328.0","3WQQ9FUS6BGUG3PORZEM2ORCCR3B8T","A1AYQ8E01NSY5Z","3VJ4PFXFJ3TL96TFXMATEMT7KJHUAI","","","<img src=""img/flower5.png"" style=""width:200px; border:14px solid green;"">","null","","","","","",""
"424","","image-keyboard-response","329","475906","0.0-329.0","3WQQ9FUS6BGUG3PORZEM2ORCCR3B8T","A1AYQ8E01NSY5Z","3VJ4PFXFJ3TL96TFXMATEMT7KJHUAI","","","img/flower5.png","75","424","2","1","1","1,1,0,0,1,1,1,0,1",""
"null","","html-keyboard-response","330","476215","0.0-330.0","3WQQ9FUS6BGUG3PORZEM2ORCCR3B8T","A1AYQ8E01NSY5Z","3VJ4PFXFJ3TL96TFXMATEMT7KJHUAI","","","<img src=""img/flower5.png"" style=""width:200px; border:14px solid green;"">","null","","","","","",""
"675","","image-keyboard-response","331","476892","0.0-331.0","3WQQ9FUS6BGUG3PORZEM2ORCCR3B8T","A1AYQ8E01NSY5Z","3VJ4PFXFJ3TL96TFXMATEMT7KJHUAI","","","img/flower5.png","76","677","3","0","1","1,1,0,0,1,1,1,0,1",""
"null","","html-keyboard-response","332","477201","0.0-332.0","3WQQ9FUS6BGUG3PORZEM2ORCCR3B8T","A1AYQ8E01NSY5Z","3VJ4PFXFJ3TL96TFXMATEMT7KJHUAI","","","<img src=""img/flower5.png"" style=""width:200px;border:14px solid red;"">","null","","","","","",""
"890","","image-keyboard-response","333","478092","0.0-333.0","3WQQ9FUS6BGUG3PORZEM2ORCCR3B8T","A1AYQ8E01NSY5Z","3VJ4PFXFJ3TL96TFXMATEMT7KJHUAI","","","img/flower2.png","74","892","1","0","2","1,1,0,0,1,1,1,0,1",""
"null","","html-keyboard-response","334","478398","0.0-334.0","3WQQ9FUS6BGUG3PORZEM2ORCCR3B8T","A1AYQ8E01NSY5Z","3VJ4PFXFJ3TL96TFXMATEMT7KJHUAI","","","<img src=""img/flower2.png"" style=""width:200px;border:14px solid red;"">","null","","","","","",""
"683","","image-keyboard-response","335","479082","0.0-335.0","3WQQ9FUS6BGUG3PORZEM2ORCCR3B8T","A1AYQ8E01NSY5Z","3VJ4PFXFJ3TL96TFXMATEMT7KJHUAI","","","img/flower5.png","75","683","2","1","1","1,1,0,0,1,1,1,0,1",""
"null","","html-keyboard-response","336","479388","0.0-336.0","3WQQ9FUS6BGUG3PORZEM2ORCCR3B8T","A1AYQ8E01NSY5Z","3VJ4PFXFJ3TL96TFXMATEMT7KJHUAI","","","<img src=""img/flower5.png"" style=""width:200px; border:14px solid green;"">","null","","","","","",""
"663","","image-keyboard-response","337","480052","0.0-337.0","3WQQ9FUS6BGUG3PORZEM2ORCCR3B8T","A1AYQ8E01NSY5Z","3VJ4PFXFJ3TL96TFXMATEMT7KJHUAI","","","img/flower3.png","74","663","1","1","3","1,1,0,0,1,1,1,0,1",""
"null","","html-keyboard-response","338","480354","0.0-338.0","3WQQ9FUS6BGUG3PORZEM2ORCCR3B8T","A1AYQ8E01NSY5Z","3VJ4PFXFJ3TL96TFXMATEMT7KJHUAI","","","<img src=""img/flower3.png"" style=""width:200px; border:14px solid green;"">","null","","","","","",""
"1049","","image-keyboard-response","339","481404","0.0-339.0","3WQQ9FUS6BGUG3PORZEM2ORCCR3B8T","A1AYQ8E01NSY5Z","3VJ4PFXFJ3TL96TFXMATEMT7KJHUAI","","","img/flower2.png","76","1049","3","1","2","1,1,0,0,1,1,1,0,1",""
"null","","html-keyboard-response","340","481715","0.0-340.0","3WQQ9FUS6BGUG3PORZEM2ORCCR3B8T","A1AYQ8E01NSY5Z","3VJ4PFXFJ3TL96TFXMATEMT7KJHUAI","","","<img src=""img/flower2.png"" style=""width:200px; border:14px solid green;"">","null","","","","","",""
"1079","","image-keyboard-response","341","482796","0.0-341.0","3WQQ9FUS6BGUG3PORZEM2ORCCR3B8T","A1AYQ8E01NSY5Z","3VJ4PFXFJ3TL96TFXMATEMT7KJHUAI","","","img/flower3.png","74","1081","1","1","3","1,1,0,0,1,1,1,0,1",""
"null","","html-keyboard-response","342","483105","0.0-342.0","3WQQ9FUS6BGUG3PORZEM2ORCCR3B8T","A1AYQ8E01NSY5Z","3VJ4PFXFJ3TL96TFXMATEMT7KJHUAI","","","<img src=""img/flower3.png"" style=""width:200px; border:14px solid green;"">","null","","","","","",""
"410","","image-keyboard-response","343","483516","0.0-343.0","3WQQ9FUS6BGUG3PORZEM2ORCCR3B8T","A1AYQ8E01NSY5Z","3VJ4PFXFJ3TL96TFXMATEMT7KJHUAI","","","img/flower3.png","74","411","1","1","3","1,1,0,0,1,1,1,0,1",""
"null","","html-keyboard-response","344","483829","0.0-344.0","3WQQ9FUS6BGUG3PORZEM2ORCCR3B8T","A1AYQ8E01NSY5Z","3VJ4PFXFJ3TL96TFXMATEMT7KJHUAI","","","<img src=""img/flower3.png"" style=""width:200px; border:14px solid green;"">","null","","","","","",""
"397","","image-keyboard-response","345","484229","0.0-345.0","3WQQ9FUS6BGUG3PORZEM2ORCCR3B8T","A1AYQ8E01NSY5Z","3VJ4PFXFJ3TL96TFXMATEMT7KJHUAI","","","img/flower3.png","74","399","1","1","3","1,1,0,0,1,1,1,0,1",""
"null","","html-keyboard-response","346","484535","0.0-346.0","3WQQ9FUS6BGUG3PORZEM2ORCCR3B8T","A1AYQ8E01NSY5Z","3VJ4PFXFJ3TL96TFXMATEMT7KJHUAI","","","<img src=""img/flower3.png"" style=""width:200px; border:14px solid green;"">","null","","","","","",""
"795","","image-keyboard-response","347","485335","0.0-347.0","3WQQ9FUS6BGUG3PORZEM2ORCCR3B8T","A1AYQ8E01NSY5Z","3VJ4PFXFJ3TL96TFXMATEMT7KJHUAI","","","img/flower5.png","75","800","2","1","1","1,1,0,0,1,1,1,0,1",""
"null","","html-keyboard-response","348","485640","0.0-348.0","3WQQ9FUS6BGUG3PORZEM2ORCCR3B8T","A1AYQ8E01NSY5Z","3VJ4PFXFJ3TL96TFXMATEMT7KJHUAI","","","<img src=""img/flower5.png"" style=""width:200px; border:14px solid green;"">","null","","","","","",""
"490","","image-keyboard-response","349","486132","0.0-349.0","3WQQ9FUS6BGUG3PORZEM2ORCCR3B8T","A1AYQ8E01NSY5Z","3VJ4PFXFJ3TL96TFXMATEMT7KJHUAI","","","img/flower5.png","75","491","2","1","1","1,1,0,0,1,1,1,0,1",""
"null","","html-keyboard-response","350","486436","0.0-350.0","3WQQ9FUS6BGUG3PORZEM2ORCCR3B8T","A1AYQ8E01NSY5Z","3VJ4PFXFJ3TL96TFXMATEMT7KJHUAI","","","<img src=""img/flower5.png"" style=""width:200px; border:14px solid green;"">","null","","","","","",""
"615","","image-keyboard-response","351","487052","0.0-351.0","3WQQ9FUS6BGUG3PORZEM2ORCCR3B8T","A1AYQ8E01NSY5Z","3VJ4PFXFJ3TL96TFXMATEMT7KJHUAI","","","img/flower3.png","74","616","1","1","3","1,1,0,0,1,1,1,0,1",""
"null","","html-keyboard-response","352","487362","0.0-352.0","3WQQ9FUS6BGUG3PORZEM2ORCCR3B8T","A1AYQ8E01NSY5Z","3VJ4PFXFJ3TL96TFXMATEMT7KJHUAI","","","<img src=""img/flower3.png"" style=""width:200px; border:14px solid green;"">","null","","","","","",""
"984","","image-keyboard-response","353","488348","0.0-353.0","3WQQ9FUS6BGUG3PORZEM2ORCCR3B8T","A1AYQ8E01NSY5Z","3VJ4PFXFJ3TL96TFXMATEMT7KJHUAI","","","img/flower2.png","75","986","2","1","2","1,1,0,0,1,1,1,0,1",""
"null","","html-keyboard-response","354","488654","0.0-354.0","3WQQ9FUS6BGUG3PORZEM2ORCCR3B8T","A1AYQ8E01NSY5Z","3VJ4PFXFJ3TL96TFXMATEMT7KJHUAI","","","<img src=""img/flower2.png"" style=""width:200px; border:14px solid green;"">","null","","","","","",""
"412","","image-keyboard-response","355","489069","0.0-355.0","3WQQ9FUS6BGUG3PORZEM2ORCCR3B8T","A1AYQ8E01NSY5Z","3VJ4PFXFJ3TL96TFXMATEMT7KJHUAI","","","img/flower3.png","75","414","2","0","3","1,1,0,0,1,1,1,0,1",""
"null","","html-keyboard-response","356","489386","0.0-356.0","3WQQ9FUS6BGUG3PORZEM2ORCCR3B8T","A1AYQ8E01NSY5Z","3VJ4PFXFJ3TL96TFXMATEMT7KJHUAI","","","<img src=""img/flower3.png"" style=""width:200px;border:14px solid red;"">","null","","","","","",""
"608","","image-keyboard-response","357","489997","0.0-357.0","3WQQ9FUS6BGUG3PORZEM2ORCCR3B8T","A1AYQ8E01NSY5Z","3VJ4PFXFJ3TL96TFXMATEMT7KJHUAI","","","img/flower2.png","74","611","1","0","2","1,1,0,0,1,1,1,0,1",""
"null","","html-keyboard-response","358","490305","0.0-358.0","3WQQ9FUS6BGUG3PORZEM2ORCCR3B8T","A1AYQ8E01NSY5Z","3VJ4PFXFJ3TL96TFXMATEMT7KJHUAI","","","<img src=""img/flower2.png"" style=""width:200px;border:14px solid red;"">","null","","","","","",""
"994","","image-keyboard-response","359","491301","0.0-359.0","3WQQ9FUS6BGUG3PORZEM2ORCCR3B8T","A1AYQ8E01NSY5Z","3VJ4PFXFJ3TL96TFXMATEMT7KJHUAI","","","img/flower5.png","75","996","2","1","1","1,1,0,0,1,1,1,0,1",""
"null","","html-keyboard-response","360","491613","0.0-360.0","3WQQ9FUS6BGUG3PORZEM2ORCCR3B8T","A1AYQ8E01NSY5Z","3VJ4PFXFJ3TL96TFXMATEMT7KJHUAI","","","<img src=""img/flower5.png"" style=""width:200px; border:14px solid green;"">","null","","","","","",""
"899","","image-keyboard-response","361","492515","0.0-361.0","3WQQ9FUS6BGUG3PORZEM2ORCCR3B8T","A1AYQ8E01NSY5Z","3VJ4PFXFJ3TL96TFXMATEMT7KJHUAI","","","img/flower2.png","74","901","1","0","2","1,1,0,0,1,1,1,0,1",""
"null","","html-keyboard-response","362","492819","0.0-362.0","3WQQ9FUS6BGUG3PORZEM2ORCCR3B8T","A1AYQ8E01NSY5Z","3VJ4PFXFJ3TL96TFXMATEMT7KJHUAI","","","<img src=""img/flower2.png"" style=""width:200px;border:14px solid red;"">","null","","","","","",""
"576","","image-keyboard-response","363","493396","0.0-363.0","3WQQ9FUS6BGUG3PORZEM2ORCCR3B8T","A1AYQ8E01NSY5Z","3VJ4PFXFJ3TL96TFXMATEMT7KJHUAI","","","img/flower3.png","75","578","2","0","3","1,1,0,0,1,1,1,0,1",""
"null","","html-keyboard-response","364","493709","0.0-364.0","3WQQ9FUS6BGUG3PORZEM2ORCCR3B8T","A1AYQ8E01NSY5Z","3VJ4PFXFJ3TL96TFXMATEMT7KJHUAI","","","<img src=""img/flower3.png"" style=""width:200px;border:14px solid red;"">","null","","","","","",""
"525","","image-keyboard-response","365","494235","0.0-365.0","3WQQ9FUS6BGUG3PORZEM2ORCCR3B8T","A1AYQ8E01NSY5Z","3VJ4PFXFJ3TL96TFXMATEMT7KJHUAI","","","img/flower3.png","74","526","1","1","3","1,1,0,0,1,1,1,0,1",""
"null","","html-keyboard-response","366","494551","0.0-366.0","3WQQ9FUS6BGUG3PORZEM2ORCCR3B8T","A1AYQ8E01NSY5Z","3VJ4PFXFJ3TL96TFXMATEMT7KJHUAI","","","<img src=""img/flower3.png"" style=""width:200px; border:14px solid green;"">","null","","","","","",""
"1381","","image-keyboard-response","367","495933","0.0-367.0","3WQQ9FUS6BGUG3PORZEM2ORCCR3B8T","A1AYQ8E01NSY5Z","3VJ4PFXFJ3TL96TFXMATEMT7KJHUAI","","","img/flower2.png","76","1381","3","1","2","1,1,0,0,1,1,1,0,1",""
"null","","html-keyboard-response","368","496237","0.0-368.0","3WQQ9FUS6BGUG3PORZEM2ORCCR3B8T","A1AYQ8E01NSY5Z","3VJ4PFXFJ3TL96TFXMATEMT7KJHUAI","","","<img src=""img/flower2.png"" style=""width:200px; border:14px solid green;"">","null","","","","","",""
"454","","image-keyboard-response","369","496692","0.0-369.0","3WQQ9FUS6BGUG3PORZEM2ORCCR3B8T","A1AYQ8E01NSY5Z","3VJ4PFXFJ3TL96TFXMATEMT7KJHUAI","","","img/flower2.png","76","455","3","1","2","1,1,0,0,1,1,1,0,1",""
"null","","html-keyboard-response","370","497003","0.0-370.0","3WQQ9FUS6BGUG3PORZEM2ORCCR3B8T","A1AYQ8E01NSY5Z","3VJ4PFXFJ3TL96TFXMATEMT7KJHUAI","","","<img src=""img/flower2.png"" style=""width:200px; border:14px solid green;"">","null","","","","","",""
"856","","image-keyboard-response","371","497860","0.0-371.0","3WQQ9FUS6BGUG3PORZEM2ORCCR3B8T","A1AYQ8E01NSY5Z","3VJ4PFXFJ3TL96TFXMATEMT7KJHUAI","","","img/flower5.png","75","857","2","1","1","1,1,0,0,1,1,1,0,1",""
"null","","html-keyboard-response","372","498186","0.0-372.0","3WQQ9FUS6BGUG3PORZEM2ORCCR3B8T","A1AYQ8E01NSY5Z","3VJ4PFXFJ3TL96TFXMATEMT7KJHUAI","","","<img src=""img/flower5.png"" style=""width:200px; border:14px solid green;"">","null","","","","","",""
"647","","image-keyboard-response","373","498836","0.0-373.0","3WQQ9FUS6BGUG3PORZEM2ORCCR3B8T","A1AYQ8E01NSY5Z","3VJ4PFXFJ3TL96TFXMATEMT7KJHUAI","","","img/flower3.png","74","648","1","1","3","1,1,0,0,1,1,1,0,1",""
"null","","html-keyboard-response","374","499144","0.0-374.0","3WQQ9FUS6BGUG3PORZEM2ORCCR3B8T","A1AYQ8E01NSY5Z","3VJ4PFXFJ3TL96TFXMATEMT7KJHUAI","","","<img src=""img/flower3.png"" style=""width:200px; border:14px solid green;"">","null","","","","","",""
"798","","image-keyboard-response","375","499944","0.0-375.0","3WQQ9FUS6BGUG3PORZEM2ORCCR3B8T","A1AYQ8E01NSY5Z","3VJ4PFXFJ3TL96TFXMATEMT7KJHUAI","","","img/flower5.png","76","801","3","0","1","1,1,0,0,1,1,1,0,1",""
"null","","html-keyboard-response","376","500258","0.0-376.0","3WQQ9FUS6BGUG3PORZEM2ORCCR3B8T","A1AYQ8E01NSY5Z","3VJ4PFXFJ3TL96TFXMATEMT7KJHUAI","","","<img src=""img/flower5.png"" style=""width:200px;border:14px solid red;"">","null","","","","","",""
"394","","image-keyboard-response","377","500653","0.0-377.0","3WQQ9FUS6BGUG3PORZEM2ORCCR3B8T","A1AYQ8E01NSY5Z","3VJ4PFXFJ3TL96TFXMATEMT7KJHUAI","","","img/flower5.png","75","396","2","1","1","1,1,0,0,1,1,1,0,1",""
"null","","html-keyboard-response","378","500966","0.0-378.0","3WQQ9FUS6BGUG3PORZEM2ORCCR3B8T","A1AYQ8E01NSY5Z","3VJ4PFXFJ3TL96TFXMATEMT7KJHUAI","","","<img src=""img/flower5.png"" style=""width:200px; border:14px solid green;"">","null","","","","","",""
"389","","image-keyboard-response","379","501356","0.0-379.0","3WQQ9FUS6BGUG3PORZEM2ORCCR3B8T","A1AYQ8E01NSY5Z","3VJ4PFXFJ3TL96TFXMATEMT7KJHUAI","","","img/flower2.png","75","390","2","1","2","1,1,0,0,1,1,1,0,1",""
"null","","html-keyboard-response","380","501670","0.0-380.0","3WQQ9FUS6BGUG3PORZEM2ORCCR3B8T","A1AYQ8E01NSY5Z","3VJ4PFXFJ3TL96TFXMATEMT7KJHUAI","","","<img src=""img/flower2.png"" style=""width:200px; border:14px solid green;"">","null","","","","","",""
"765","","image-keyboard-response","381","502437","0.0-381.0","3WQQ9FUS6BGUG3PORZEM2ORCCR3B8T","A1AYQ8E01NSY5Z","3VJ4PFXFJ3TL96TFXMATEMT7KJHUAI","","","img/flower5.png","74","767","1","1","1","1,1,0,0,1,1,1,0,1",""
"null","","html-keyboard-response","382","502748","0.0-382.0","3WQQ9FUS6BGUG3PORZEM2ORCCR3B8T","A1AYQ8E01NSY5Z","3VJ4PFXFJ3TL96TFXMATEMT7KJHUAI","","","<img src=""img/flower5.png"" style=""width:200px; border:14px solid green;"">","null","","","","","",""
"389","","image-keyboard-response","383","503139","0.0-383.0","3WQQ9FUS6BGUG3PORZEM2ORCCR3B8T","A1AYQ8E01NSY5Z","3VJ4PFXFJ3TL96TFXMATEMT7KJHUAI","","","img/flower5.png","75","390","2","1","1","1,1,0,0,1,1,1,0,1",""
"null","","html-keyboard-response","384","503454","0.0-384.0","3WQQ9FUS6BGUG3PORZEM2ORCCR3B8T","A1AYQ8E01NSY5Z","3VJ4PFXFJ3TL96TFXMATEMT7KJHUAI","","","<img src=""img/flower5.png"" style=""width:200px; border:14px solid green;"">","null","","","","","",""
"317","","image-keyboard-response","385","503772","0.0-385.0","3WQQ9FUS6BGUG3PORZEM2ORCCR3B8T","A1AYQ8E01NSY5Z","3VJ4PFXFJ3TL96TFXMATEMT7KJHUAI","","","img/flower5.png","74","319","1","1","1","1,1,0,0,1,1,1,0,1",""
"null","","html-keyboard-response","386","504078","0.0-386.0","3WQQ9FUS6BGUG3PORZEM2ORCCR3B8T","A1AYQ8E01NSY5Z","3VJ4PFXFJ3TL96TFXMATEMT7KJHUAI","","","<img src=""img/flower5.png"" style=""width:200px; border:14px solid green;"">","null","","","","","",""
"332","","image-keyboard-response","387","504412","0.0-387.0","3WQQ9FUS6BGUG3PORZEM2ORCCR3B8T","A1AYQ8E01NSY5Z","3VJ4PFXFJ3TL96TFXMATEMT7KJHUAI","","","img/flower5.png","75","333","2","1","1","1,1,0,0,1,1,1,0,1",""
"null","","html-keyboard-response","388","504716","0.0-388.0","3WQQ9FUS6BGUG3PORZEM2ORCCR3B8T","A1AYQ8E01NSY5Z","3VJ4PFXFJ3TL96TFXMATEMT7KJHUAI","","","<img src=""img/flower5.png"" style=""width:200px; border:14px solid green;"">","null","","","","","",""
"263","","image-keyboard-response","389","504980","0.0-389.0","3WQQ9FUS6BGUG3PORZEM2ORCCR3B8T","A1AYQ8E01NSY5Z","3VJ4PFXFJ3TL96TFXMATEMT7KJHUAI","","","img/flower3.png","74","264","1","1","3","1,1,0,0,1,1,1,0,1",""
"null","","html-keyboard-response","390","505291","0.0-390.0","3WQQ9FUS6BGUG3PORZEM2ORCCR3B8T","A1AYQ8E01NSY5Z","3VJ4PFXFJ3TL96TFXMATEMT7KJHUAI","","","<img src=""img/flower3.png"" style=""width:200px; border:14px solid green;"">","null","","","","","",""
"560","","image-keyboard-response","391","505852","0.0-391.0","3WQQ9FUS6BGUG3PORZEM2ORCCR3B8T","A1AYQ8E01NSY5Z","3VJ4PFXFJ3TL96TFXMATEMT7KJHUAI","","","img/flower2.png","76","561","3","1","2","1,1,0,0,1,1,1,0,1",""
"null","","html-keyboard-response","392","506156","0.0-392.0","3WQQ9FUS6BGUG3PORZEM2ORCCR3B8T","A1AYQ8E01NSY5Z","3VJ4PFXFJ3TL96TFXMATEMT7KJHUAI","","","<img src=""img/flower2.png"" style=""width:200px; border:14px solid green;"">","null","","","","","",""
"886","","image-keyboard-response","393","507045","0.0-393.0","3WQQ9FUS6BGUG3PORZEM2ORCCR3B8T","A1AYQ8E01NSY5Z","3VJ4PFXFJ3TL96TFXMATEMT7KJHUAI","","","img/flower5.png","75","888","2","1","1","1,1,0,0,1,1,1,0,1",""
"null","","html-keyboard-response","394","507357","0.0-394.0","3WQQ9FUS6BGUG3PORZEM2ORCCR3B8T","A1AYQ8E01NSY5Z","3VJ4PFXFJ3TL96TFXMATEMT7KJHUAI","","","<img src=""img/flower5.png"" style=""width:200px; border:14px solid green;"">","null","","","","","",""
"565","","image-keyboard-response","395","507924","0.0-395.0","3WQQ9FUS6BGUG3PORZEM2ORCCR3B8T","A1AYQ8E01NSY5Z","3VJ4PFXFJ3TL96TFXMATEMT7KJHUAI","","","img/flower2.png","75","568","2","1","2","1,1,0,0,1,1,1,0,1",""
"null","","html-keyboard-response","396","508231","0.0-396.0","3WQQ9FUS6BGUG3PORZEM2ORCCR3B8T","A1AYQ8E01NSY5Z","3VJ4PFXFJ3TL96TFXMATEMT7KJHUAI","","","<img src=""img/flower2.png"" style=""width:200px; border:14px solid green;"">","null","","","","","",""
"349","","image-keyboard-response","397","508582","0.0-397.0","3WQQ9FUS6BGUG3PORZEM2ORCCR3B8T","A1AYQ8E01NSY5Z","3VJ4PFXFJ3TL96TFXMATEMT7KJHUAI","","","img/flower2.png","75","351","2","1","2","1,1,0,0,1,1,1,0,1",""
"null","","html-keyboard-response","398","508886","0.0-398.0","3WQQ9FUS6BGUG3PORZEM2ORCCR3B8T","A1AYQ8E01NSY5Z","3VJ4PFXFJ3TL96TFXMATEMT7KJHUAI","","","<img src=""img/flower2.png"" style=""width:200px; border:14px solid green;"">","null","","","","","",""
"221","","image-keyboard-response","399","509109","0.0-399.0","3WQQ9FUS6BGUG3PORZEM2ORCCR3B8T","A1AYQ8E01NSY5Z","3VJ4PFXFJ3TL96TFXMATEMT7KJHUAI","","","img/flower3.png","75","222","2","0","3","1,1,0,0,1,1,1,0,1",""
"null","","html-keyboard-response","400","509420","0.0-400.0","3WQQ9FUS6BGUG3PORZEM2ORCCR3B8T","A1AYQ8E01NSY5Z","3VJ4PFXFJ3TL96TFXMATEMT7KJHUAI","","","<img src=""img/flower3.png"" style=""width:200px;border:14px solid red;"">","null","","","","","",""
"272","","image-keyboard-response","401","509694","0.0-401.0","3WQQ9FUS6BGUG3PORZEM2ORCCR3B8T","A1AYQ8E01NSY5Z","3VJ4PFXFJ3TL96TFXMATEMT7KJHUAI","","","img/flower2.png","74","274","1","0","2","1,1,0,0,1,1,1,0,1",""
"null","","html-keyboard-response","402","509999","0.0-402.0","3WQQ9FUS6BGUG3PORZEM2ORCCR3B8T","A1AYQ8E01NSY5Z","3VJ4PFXFJ3TL96TFXMATEMT7KJHUAI","","","<img src=""img/flower2.png"" style=""width:200px;border:14px solid red;"">","null","","","","","",""
"765","","image-keyboard-response","403","510766","0.0-403.0","3WQQ9FUS6BGUG3PORZEM2ORCCR3B8T","A1AYQ8E01NSY5Z","3VJ4PFXFJ3TL96TFXMATEMT7KJHUAI","","","img/flower5.png","76","767","3","0","1","1,1,0,0,1,1,1,0,1",""
"null","","html-keyboard-response","404","511083","0.0-404.0","3WQQ9FUS6BGUG3PORZEM2ORCCR3B8T","A1AYQ8E01NSY5Z","3VJ4PFXFJ3TL96TFXMATEMT7KJHUAI","","","<img src=""img/flower5.png"" style=""width:200px;border:14px solid red;"">","null","","","","","",""
"457","","image-keyboard-response","405","511540","0.0-405.0","3WQQ9FUS6BGUG3PORZEM2ORCCR3B8T","A1AYQ8E01NSY5Z","3VJ4PFXFJ3TL96TFXMATEMT7KJHUAI","","","img/flower5.png","75","458","2","1","1","1,1,0,0,1,1,1,0,1",""
"null","","html-keyboard-response","406","511847","0.0-406.0","3WQQ9FUS6BGUG3PORZEM2ORCCR3B8T","A1AYQ8E01NSY5Z","3VJ4PFXFJ3TL96TFXMATEMT7KJHUAI","","","<img src=""img/flower5.png"" style=""width:200px; border:14px solid green;"">","null","","","","","",""
"787","","image-keyboard-response","407","512636","0.0-407.0","3WQQ9FUS6BGUG3PORZEM2ORCCR3B8T","A1AYQ8E01NSY5Z","3VJ4PFXFJ3TL96TFXMATEMT7KJHUAI","","","img/flower2.png","74","788","1","0","2","1,1,0,0,1,1,1,0,1",""
"null","","html-keyboard-response","408","512941","0.0-408.0","3WQQ9FUS6BGUG3PORZEM2ORCCR3B8T","A1AYQ8E01NSY5Z","3VJ4PFXFJ3TL96TFXMATEMT7KJHUAI","","","<img src=""img/flower2.png"" style=""width:200px;border:14px solid red;"">","null","","","","","",""
"461","","image-keyboard-response","409","513405","0.0-409.0","3WQQ9FUS6BGUG3PORZEM2ORCCR3B8T","A1AYQ8E01NSY5Z","3VJ4PFXFJ3TL96TFXMATEMT7KJHUAI","","","img/flower3.png","75","463","2","0","3","1,1,0,0,1,1,1,0,1",""
"null","","html-keyboard-response","410","513711","0.0-410.0","3WQQ9FUS6BGUG3PORZEM2ORCCR3B8T","A1AYQ8E01NSY5Z","3VJ4PFXFJ3TL96TFXMATEMT7KJHUAI","","","<img src=""img/flower3.png"" style=""width:200px;border:14px solid red;"">","null","","","","","",""
"538","","image-keyboard-response","411","514251","0.0-411.0","3WQQ9FUS6BGUG3PORZEM2ORCCR3B8T","A1AYQ8E01NSY5Z","3VJ4PFXFJ3TL96TFXMATEMT7KJHUAI","","","img/flower5.png","76","539","3","0","1","1,1,0,0,1,1,1,0,1",""
"null","","html-keyboard-response","412","514556","0.0-412.0","3WQQ9FUS6BGUG3PORZEM2ORCCR3B8T","A1AYQ8E01NSY5Z","3VJ4PFXFJ3TL96TFXMATEMT7KJHUAI","","","<img src=""img/flower5.png"" style=""width:200px;border:14px solid red;"">","null","","","","","",""
"477","","image-keyboard-response","413","515035","0.0-413.0","3WQQ9FUS6BGUG3PORZEM2ORCCR3B8T","A1AYQ8E01NSY5Z","3VJ4PFXFJ3TL96TFXMATEMT7KJHUAI","","","img/flower2.png","74","477","1","0","2","1,1,0,0,1,1,1,0,1",""
"null","","html-keyboard-response","414","515348","0.0-414.0","3WQQ9FUS6BGUG3PORZEM2ORCCR3B8T","A1AYQ8E01NSY5Z","3VJ4PFXFJ3TL96TFXMATEMT7KJHUAI","","","<img src=""img/flower2.png"" style=""width:200px;border:14px solid red;"">","null","","","","","",""
"668","","image-keyboard-response","415","516019","0.0-415.0","3WQQ9FUS6BGUG3PORZEM2ORCCR3B8T","A1AYQ8E01NSY5Z","3VJ4PFXFJ3TL96TFXMATEMT7KJHUAI","","","img/flower5.png","75","670","2","1","1","1,1,0,0,1,1,1,0,1",""
"null","","html-keyboard-response","416","516333","0.0-416.0","3WQQ9FUS6BGUG3PORZEM2ORCCR3B8T","A1AYQ8E01NSY5Z","3VJ4PFXFJ3TL96TFXMATEMT7KJHUAI","","","<img src=""img/flower5.png"" style=""width:200px; border:14px solid green;"">","null","","","","","",""
"782","","image-keyboard-response","417","517116","0.0-417.0","3WQQ9FUS6BGUG3PORZEM2ORCCR3B8T","A1AYQ8E01NSY5Z","3VJ4PFXFJ3TL96TFXMATEMT7KJHUAI","","","img/flower2.png","74","783","1","0","2","1,1,0,0,1,1,1,0,1",""
"null","","html-keyboard-response","418","517456","0.0-418.0","3WQQ9FUS6BGUG3PORZEM2ORCCR3B8T","A1AYQ8E01NSY5Z","3VJ4PFXFJ3TL96TFXMATEMT7KJHUAI","","","<img src=""img/flower2.png"" style=""width:200px;border:14px solid red;"">","null","","","","","",""
"427","","image-keyboard-response","419","517885","0.0-419.0","3WQQ9FUS6BGUG3PORZEM2ORCCR3B8T","A1AYQ8E01NSY5Z","3VJ4PFXFJ3TL96TFXMATEMT7KJHUAI","","","img/flower2.png","75","430","2","1","2","1,1,0,0,1,1,1,0,1",""
"null","","html-keyboard-response","420","518190","0.0-420.0","3WQQ9FUS6BGUG3PORZEM2ORCCR3B8T","A1AYQ8E01NSY5Z","3VJ4PFXFJ3TL96TFXMATEMT7KJHUAI","","","<img src=""img/flower2.png"" style=""width:200px; border:14px solid green;"">","null","","","","","",""
"796","","image-keyboard-response","421","518988","0.0-421.0","3WQQ9FUS6BGUG3PORZEM2ORCCR3B8T","A1AYQ8E01NSY5Z","3VJ4PFXFJ3TL96TFXMATEMT7KJHUAI","","","img/flower3.png","74","798","1","1","3","1,1,0,0,1,1,1,0,1",""
"null","","html-keyboard-response","422","519290","0.0-422.0","3WQQ9FUS6BGUG3PORZEM2ORCCR3B8T","A1AYQ8E01NSY5Z","3VJ4PFXFJ3TL96TFXMATEMT7KJHUAI","","","<img src=""img/flower3.png"" style=""width:200px; border:14px solid green;"">","null","","","","","",""
"1064","","image-keyboard-response","423","520357","0.0-423.0","3WQQ9FUS6BGUG3PORZEM2ORCCR3B8T","A1AYQ8E01NSY5Z","3VJ4PFXFJ3TL96TFXMATEMT7KJHUAI","","","img/flower5.png","75","1066","2","1","1","1,1,0,0,1,1,1,0,1",""
