"rt","url","trial_type","trial_index","time_elapsed","internal_node_id","assignmentID","mturkID","hitID","success","view_history","stimulus","key_press","reactionTime","a","r","s","reward_cond","responses"
"28618.79999999702","consent.html","external-html","0","28891","0.0-0.0","3F6HPJW4JEMBIRLA691HFBRUZH7W2I","A1BJFYHXK6YDX1","3T5ZXGO9DEAUILU6S56NLENRQJRQZJ","","","","","","","","","",""
"","","fullscreen","1","73361","0.0-1.0","3F6HPJW4JEMBIRLA691HFBRUZH7W2I","A1BJFYHXK6YDX1","3T5ZXGO9DEAUILU6S56NLENRQJRQZJ","true","","","","","","","","",""
"101207.39999999851","","instructions","2","174570","0.0-2.0","3F6HPJW4JEMBIRLA691HFBRUZH7W2I","A1BJFYHXK6YDX1","3T5ZXGO9DEAUILU6S56NLENRQJRQZJ","","[{""page_index"":0,""viewing_time"":10606.5},{""page_index"":1,""viewing_time"":24454.79999999702},{""page_index"":2,""viewing_time"":23550.10000000149},{""page_index"":3,""viewing_time"":26476.39999999851},{""page_index"":4,""viewing_time"":11694.39999999851},{""page_index"":5,""viewing_time"":2539.3000000044703},{""page_index"":6,""viewing_time"":1885.3999999985099}]","","","","","","","",""
"5592","","instructions","3","180163","0.0-3.0","3F6HPJW4JEMBIRLA691HFBRUZH7W2I","A1BJFYHXK6YDX1","3T5ZXGO9DEAUILU6S56NLENRQJRQZJ","","[{""page_index"":0,""viewing_time"":5591.69999999553}]","","","","","","","",""
"1648.2999999970198","","image-keyboard-response","4","181812","0.0-4.0","3F6HPJW4JEMBIRLA691HFBRUZH7W2I","A1BJFYHXK6YDX1","3T5ZXGO9DEAUILU6S56NLENRQJRQZJ","","","img/flower5.png","74","1649.1999999955297","1","1","2","",""
"null","","html-keyboard-response","5","182117","0.0-5.0","3F6HPJW4JEMBIRLA691HFBRUZH7W2I","A1BJFYHXK6YDX1","3T5ZXGO9DEAUILU6S56NLENRQJRQZJ","","","<img src=""img/flower5.png"" style=""width:200px; border:14px solid green;"">","null","","","","","",""
"967.5999999940395","","image-keyboard-response","6","183086","0.0-6.0","3F6HPJW4JEMBIRLA691HFBRUZH7W2I","A1BJFYHXK6YDX1","3T5ZXGO9DEAUILU6S56NLENRQJRQZJ","","","img/flower4.png","75","968.6000000014901","2","1","1","",""
"null","","html-keyboard-response","7","183400","0.0-7.0","3F6HPJW4JEMBIRLA691HFBRUZH7W2I","A1BJFYHXK6YDX1","3T5ZXGO9DEAUILU6S56NLENRQJRQZJ","","","<img src=""img/flower4.png"" style=""width:200px; border:14px solid green;"">","null","","","","","",""
"2431.60000000149","","image-keyboard-response","8","185833","0.0-8.0","3F6HPJW4JEMBIRLA691HFBRUZH7W2I","A1BJFYHXK6YDX1","3T5ZXGO9DEAUILU6S56NLENRQJRQZJ","","","img/flower5.png","76","2432.89999999851","3","1","2","",""
"null","","html-keyboard-response","9","186143","0.0-9.0","3F6HPJW4JEMBIRLA691HFBRUZH7W2I","A1BJFYHXK6YDX1","3T5ZXGO9DEAUILU6S56NLENRQJRQZJ","","","<img src=""img/flower5.png"" style=""width:200px; border:14px solid green;"">","null","","","","","",""
"1319.7000000029802","","image-keyboard-response","10","187464","0.0-10.0","3F6HPJW4JEMBIRLA691HFBRUZH7W2I","A1BJFYHXK6YDX1","3T5ZXGO9DEAUILU6S56NLENRQJRQZJ","","","img/flower5.png","76","1320.8999999985099","3","0","2","",""
"null","","html-keyboard-response","11","187774","0.0-11.0","3F6HPJW4JEMBIRLA691HFBRUZH7W2I","A1BJFYHXK6YDX1","3T5ZXGO9DEAUILU6S56NLENRQJRQZJ","","","<img src=""img/flower5.png"" style=""width:200px;border:14px solid red;"">","null","","","","","",""
"1440.7999999970198","","image-keyboard-response","12","189217","0.0-12.0","3F6HPJW4JEMBIRLA691HFBRUZH7W2I","A1BJFYHXK6YDX1","3T5ZXGO9DEAUILU6S56NLENRQJRQZJ","","","img/flower6.png","75","1442.2999999970198","2","0","3","",""
"null","","html-keyboard-response","13","189526","0.0-13.0","3F6HPJW4JEMBIRLA691HFBRUZH7W2I","A1BJFYHXK6YDX1","3T5ZXGO9DEAUILU6S56NLENRQJRQZJ","","","<img src=""img/flower6.png"" style=""width:200px;border:14px solid red;"">","null","","","","","",""
"1020.3999999985099","","image-keyboard-response","14","190548","0.0-14.0","3F6HPJW4JEMBIRLA691HFBRUZH7W2I","A1BJFYHXK6YDX1","3T5ZXGO9DEAUILU6S56NLENRQJRQZJ","","","img/flower4.png","74","1021.8000000044703","1","1","1","",""
"null","","html-keyboard-response","15","190856","0.0-15.0","3F6HPJW4JEMBIRLA691HFBRUZH7W2I","A1BJFYHXK6YDX1","3T5ZXGO9DEAUILU6S56NLENRQJRQZJ","","","<img src=""img/flower4.png"" style=""width:200px; border:14px solid green;"">","null","","","","","",""
"602.8999999985099","","image-keyboard-response","16","191460","0.0-16.0","3F6HPJW4JEMBIRLA691HFBRUZH7W2I","A1BJFYHXK6YDX1","3T5ZXGO9DEAUILU6S56NLENRQJRQZJ","","","img/flower4.png","74","603.8000000044703","1","1","1","",""
"null","","html-keyboard-response","17","191766","0.0-17.0","3F6HPJW4JEMBIRLA691HFBRUZH7W2I","A1BJFYHXK6YDX1","3T5ZXGO9DEAUILU6S56NLENRQJRQZJ","","","<img src=""img/flower4.png"" style=""width:200px; border:14px solid green;"">","null","","","","","",""
"1827.8999999985099","","image-keyboard-response","18","193596","0.0-18.0","3F6HPJW4JEMBIRLA691HFBRUZH7W2I","A1BJFYHXK6YDX1","3T5ZXGO9DEAUILU6S56NLENRQJRQZJ","","","img/flower6.png","75","1829.1999999955297","2","0","3","",""
"null","","html-keyboard-response","19","193908","0.0-19.0","3F6HPJW4JEMBIRLA691HFBRUZH7W2I","A1BJFYHXK6YDX1","3T5ZXGO9DEAUILU6S56NLENRQJRQZJ","","","<img src=""img/flower6.png"" style=""width:200px;border:14px solid red;"">","null","","","","","",""
"1378.6000000014901","","image-keyboard-response","20","195288","0.0-20.0","3F6HPJW4JEMBIRLA691HFBRUZH7W2I","A1BJFYHXK6YDX1","3T5ZXGO9DEAUILU6S56NLENRQJRQZJ","","","img/flower5.png","75","1379.8000000044703","2","1","2","",""
"null","","html-keyboard-response","21","195589","0.0-21.0","3F6HPJW4JEMBIRLA691HFBRUZH7W2I","A1BJFYHXK6YDX1","3T5ZXGO9DEAUILU6S56NLENRQJRQZJ","","","<img src=""img/flower5.png"" style=""width:200px; border:14px solid green;"">","null","","","","","",""
"780.8000000044703","","image-keyboard-response","22","196372","0.0-22.0","3F6HPJW4JEMBIRLA691HFBRUZH7W2I","A1BJFYHXK6YDX1","3T5ZXGO9DEAUILU6S56NLENRQJRQZJ","","","img/flower6.png","76","782.5","3","1","3","",""
"null","","html-keyboard-response","23","196676","0.0-23.0","3F6HPJW4JEMBIRLA691HFBRUZH7W2I","A1BJFYHXK6YDX1","3T5ZXGO9DEAUILU6S56NLENRQJRQZJ","","","<img src=""img/flower6.png"" style=""width:200px; border:14px solid green;"">","null","","","","","",""
"837.7999999970198","","image-keyboard-response","24","197515","0.0-24.0","3F6HPJW4JEMBIRLA691HFBRUZH7W2I","A1BJFYHXK6YDX1","3T5ZXGO9DEAUILU6S56NLENRQJRQZJ","","","img/flower4.png","74","839","1","1","1","",""
"null","","html-keyboard-response","25","197823","0.0-25.0","3F6HPJW4JEMBIRLA691HFBRUZH7W2I","A1BJFYHXK6YDX1","3T5ZXGO9DEAUILU6S56NLENRQJRQZJ","","","<img src=""img/flower4.png"" style=""width:200px; border:14px solid green;"">","null","","","","","",""
"497.29999999701977","","image-keyboard-response","26","198322","0.0-26.0","3F6HPJW4JEMBIRLA691HFBRUZH7W2I","A1BJFYHXK6YDX1","3T5ZXGO9DEAUILU6S56NLENRQJRQZJ","","","img/flower4.png","74","498.3999999985099","1","1","1","",""
"null","","html-keyboard-response","27","198631","0.0-27.0","3F6HPJW4JEMBIRLA691HFBRUZH7W2I","A1BJFYHXK6YDX1","3T5ZXGO9DEAUILU6S56NLENRQJRQZJ","","","<img src=""img/flower4.png"" style=""width:200px; border:14px solid green;"">","null","","","","","",""
"962.7000000029802","","image-keyboard-response","28","199595","0.0-28.0","3F6HPJW4JEMBIRLA691HFBRUZH7W2I","A1BJFYHXK6YDX1","3T5ZXGO9DEAUILU6S56NLENRQJRQZJ","","","img/flower6.png","76","964.1000000014901","3","1","3","",""
"null","","html-keyboard-response","29","199922","0.0-29.0","3F6HPJW4JEMBIRLA691HFBRUZH7W2I","A1BJFYHXK6YDX1","3T5ZXGO9DEAUILU6S56NLENRQJRQZJ","","","<img src=""img/flower6.png"" style=""width:200px; border:14px solid green;"">","null","","","","","",""
"798.0999999940395","","image-keyboard-response","30","200720","0.0-30.0","3F6HPJW4JEMBIRLA691HFBRUZH7W2I","A1BJFYHXK6YDX1","3T5ZXGO9DEAUILU6S56NLENRQJRQZJ","","","img/flower6.png","76","798.9000000059605","3","0","3","",""
"null","","html-keyboard-response","31","201022","0.0-31.0","3F6HPJW4JEMBIRLA691HFBRUZH7W2I","A1BJFYHXK6YDX1","3T5ZXGO9DEAUILU6S56NLENRQJRQZJ","","","<img src=""img/flower6.png"" style=""width:200px;border:14px solid red;"">","null","","","","","",""
"1339.5","","image-keyboard-response","32","202363","0.0-32.0","3F6HPJW4JEMBIRLA691HFBRUZH7W2I","A1BJFYHXK6YDX1","3T5ZXGO9DEAUILU6S56NLENRQJRQZJ","","","img/flower4.png","75","1340.3999999985099","2","0","1","",""
"null","","html-keyboard-response","33","202667","0.0-33.0","3F6HPJW4JEMBIRLA691HFBRUZH7W2I","A1BJFYHXK6YDX1","3T5ZXGO9DEAUILU6S56NLENRQJRQZJ","","","<img src=""img/flower4.png"" style=""width:200px;border:14px solid red;"">","null","","","","","",""
"1449.3999999985099","","image-keyboard-response","34","204118","0.0-34.0","3F6HPJW4JEMBIRLA691HFBRUZH7W2I","A1BJFYHXK6YDX1","3T5ZXGO9DEAUILU6S56NLENRQJRQZJ","","","img/flower4.png","76","1450.5","3","1","1","",""
"null","","html-keyboard-response","35","204423","0.0-35.0","3F6HPJW4JEMBIRLA691HFBRUZH7W2I","A1BJFYHXK6YDX1","3T5ZXGO9DEAUILU6S56NLENRQJRQZJ","","","<img src=""img/flower4.png"" style=""width:200px; border:14px solid green;"">","null","","","","","",""
"901.8999999985099","","image-keyboard-response","36","205326","0.0-36.0","3F6HPJW4JEMBIRLA691HFBRUZH7W2I","A1BJFYHXK6YDX1","3T5ZXGO9DEAUILU6S56NLENRQJRQZJ","","","img/flower6.png","75","903.2000000029802","2","0","3","",""
"null","","html-keyboard-response","37","205631","0.0-37.0","3F6HPJW4JEMBIRLA691HFBRUZH7W2I","A1BJFYHXK6YDX1","3T5ZXGO9DEAUILU6S56NLENRQJRQZJ","","","<img src=""img/flower6.png"" style=""width:200px;border:14px solid red;"">","null","","","","","",""
"3962.3000000044703","","image-keyboard-response","38","209595","0.0-38.0","3F6HPJW4JEMBIRLA691HFBRUZH7W2I","A1BJFYHXK6YDX1","3T5ZXGO9DEAUILU6S56NLENRQJRQZJ","","","img/flower5.png","76","3963.5999999940395","3","0","2","",""
"null","","html-keyboard-response","39","209899","0.0-39.0","3F6HPJW4JEMBIRLA691HFBRUZH7W2I","A1BJFYHXK6YDX1","3T5ZXGO9DEAUILU6S56NLENRQJRQZJ","","","<img src=""img/flower5.png"" style=""width:200px;border:14px solid red;"">","null","","","","","",""
"1119.5","","image-keyboard-response","40","211020","0.0-40.0","3F6HPJW4JEMBIRLA691HFBRUZH7W2I","A1BJFYHXK6YDX1","3T5ZXGO9DEAUILU6S56NLENRQJRQZJ","","","img/flower4.png","74","1120.2999999970198","1","1","1","",""
"null","","html-keyboard-response","41","211330","0.0-41.0","3F6HPJW4JEMBIRLA691HFBRUZH7W2I","A1BJFYHXK6YDX1","3T5ZXGO9DEAUILU6S56NLENRQJRQZJ","","","<img src=""img/flower4.png"" style=""width:200px; border:14px solid green;"">","null","","","","","",""
"839","","image-keyboard-response","42","212172","0.0-42.0","3F6HPJW4JEMBIRLA691HFBRUZH7W2I","A1BJFYHXK6YDX1","3T5ZXGO9DEAUILU6S56NLENRQJRQZJ","","","img/flower6.png","75","840.2000000029802","2","0","3","",""
"null","","html-keyboard-response","43","212479","0.0-43.0","3F6HPJW4JEMBIRLA691HFBRUZH7W2I","A1BJFYHXK6YDX1","3T5ZXGO9DEAUILU6S56NLENRQJRQZJ","","","<img src=""img/flower6.png"" style=""width:200px;border:14px solid red;"">","null","","","","","",""
"754.3999999985099","","image-keyboard-response","44","213235","0.0-44.0","3F6HPJW4JEMBIRLA691HFBRUZH7W2I","A1BJFYHXK6YDX1","3T5ZXGO9DEAUILU6S56NLENRQJRQZJ","","","img/flower6.png","76","755.9000000059605","3","1","3","",""
"null","","html-keyboard-response","45","213540","0.0-45.0","3F6HPJW4JEMBIRLA691HFBRUZH7W2I","A1BJFYHXK6YDX1","3T5ZXGO9DEAUILU6S56NLENRQJRQZJ","","","<img src=""img/flower6.png"" style=""width:200px; border:14px solid green;"">","null","","","","","",""
"947.5","","image-keyboard-response","46","214489","0.0-46.0","3F6HPJW4JEMBIRLA691HFBRUZH7W2I","A1BJFYHXK6YDX1","3T5ZXGO9DEAUILU6S56NLENRQJRQZJ","","","img/flower4.png","74","948.6000000014901","1","1","1","",""
"null","","html-keyboard-response","47","214800","0.0-47.0","3F6HPJW4JEMBIRLA691HFBRUZH7W2I","A1BJFYHXK6YDX1","3T5ZXGO9DEAUILU6S56NLENRQJRQZJ","","","<img src=""img/flower4.png"" style=""width:200px; border:14px solid green;"">","null","","","","","",""
"813.2000000029802","","image-keyboard-response","48","215615","0.0-48.0","3F6HPJW4JEMBIRLA691HFBRUZH7W2I","A1BJFYHXK6YDX1","3T5ZXGO9DEAUILU6S56NLENRQJRQZJ","","","img/flower5.png","75","814.6000000014901","2","1","2","",""
"null","","html-keyboard-response","49","215920","0.0-49.0","3F6HPJW4JEMBIRLA691HFBRUZH7W2I","A1BJFYHXK6YDX1","3T5ZXGO9DEAUILU6S56NLENRQJRQZJ","","","<img src=""img/flower5.png"" style=""width:200px; border:14px solid green;"">","null","","","","","",""
"479.8999999985099","","image-keyboard-response","50","216402","0.0-50.0","3F6HPJW4JEMBIRLA691HFBRUZH7W2I","A1BJFYHXK6YDX1","3T5ZXGO9DEAUILU6S56NLENRQJRQZJ","","","img/flower5.png","75","481.29999999701977","2","0","2","",""
"null","","html-keyboard-response","51","216712","0.0-51.0","3F6HPJW4JEMBIRLA691HFBRUZH7W2I","A1BJFYHXK6YDX1","3T5ZXGO9DEAUILU6S56NLENRQJRQZJ","","","<img src=""img/flower5.png"" style=""width:200px;border:14px solid red;"">","null","","","","","",""
"471.1000000014901","","image-keyboard-response","52","217185","0.0-52.0","3F6HPJW4JEMBIRLA691HFBRUZH7W2I","A1BJFYHXK6YDX1","3T5ZXGO9DEAUILU6S56NLENRQJRQZJ","","","img/flower5.png","75","472.6000000014901","2","1","2","",""
"null","","html-keyboard-response","53","217495","0.0-53.0","3F6HPJW4JEMBIRLA691HFBRUZH7W2I","A1BJFYHXK6YDX1","3T5ZXGO9DEAUILU6S56NLENRQJRQZJ","","","<img src=""img/flower5.png"" style=""width:200px; border:14px solid green;"">","null","","","","","",""
"770.2000000029802","","image-keyboard-response","54","218266","0.0-54.0","3F6HPJW4JEMBIRLA691HFBRUZH7W2I","A1BJFYHXK6YDX1","3T5ZXGO9DEAUILU6S56NLENRQJRQZJ","","","img/flower6.png","76","771.4000000059605","3","1","3","",""
"null","","html-keyboard-response","55","218573","0.0-55.0","3F6HPJW4JEMBIRLA691HFBRUZH7W2I","A1BJFYHXK6YDX1","3T5ZXGO9DEAUILU6S56NLENRQJRQZJ","","","<img src=""img/flower6.png"" style=""width:200px; border:14px solid green;"">","null","","","","","",""
"662.8999999985099","","image-keyboard-response","56","219237","0.0-56.0","3F6HPJW4JEMBIRLA691HFBRUZH7W2I","A1BJFYHXK6YDX1","3T5ZXGO9DEAUILU6S56NLENRQJRQZJ","","","img/flower4.png","74","664.2000000029802","1","1","1","",""
"null","","html-keyboard-response","57","219543","0.0-57.0","3F6HPJW4JEMBIRLA691HFBRUZH7W2I","A1BJFYHXK6YDX1","3T5ZXGO9DEAUILU6S56NLENRQJRQZJ","","","<img src=""img/flower4.png"" style=""width:200px; border:14px solid green;"">","null","","","","","",""
"689.5999999940395","","image-keyboard-response","58","220233","0.0-58.0","3F6HPJW4JEMBIRLA691HFBRUZH7W2I","A1BJFYHXK6YDX1","3T5ZXGO9DEAUILU6S56NLENRQJRQZJ","","","img/flower6.png","76","690.7999999970198","3","0","3","",""
"null","","html-keyboard-response","59","220544","0.0-59.0","3F6HPJW4JEMBIRLA691HFBRUZH7W2I","A1BJFYHXK6YDX1","3T5ZXGO9DEAUILU6S56NLENRQJRQZJ","","","<img src=""img/flower6.png"" style=""width:200px;border:14px solid red;"">","null","","","","","",""
"1357.5","","image-keyboard-response","60","221903","0.0-60.0","3F6HPJW4JEMBIRLA691HFBRUZH7W2I","A1BJFYHXK6YDX1","3T5ZXGO9DEAUILU6S56NLENRQJRQZJ","","","img/flower5.png","75","1358.8999999985099","2","0","2","",""
"null","","html-keyboard-response","61","222211","0.0-61.0","3F6HPJW4JEMBIRLA691HFBRUZH7W2I","A1BJFYHXK6YDX1","3T5ZXGO9DEAUILU6S56NLENRQJRQZJ","","","<img src=""img/flower5.png"" style=""width:200px;border:14px solid red;"">","null","","","","","",""
"1234.1000000014901","","image-keyboard-response","62","223446","0.0-62.0","3F6HPJW4JEMBIRLA691HFBRUZH7W2I","A1BJFYHXK6YDX1","3T5ZXGO9DEAUILU6S56NLENRQJRQZJ","","","img/flower5.png","74","1235.3000000044703","1","0","2","",""
"null","","html-keyboard-response","63","223751","0.0-63.0","3F6HPJW4JEMBIRLA691HFBRUZH7W2I","A1BJFYHXK6YDX1","3T5ZXGO9DEAUILU6S56NLENRQJRQZJ","","","<img src=""img/flower5.png"" style=""width:200px;border:14px solid red;"">","null","","","","","",""
"18058.39999999851","","instructions","64","241810","0.0-64.0","3F6HPJW4JEMBIRLA691HFBRUZH7W2I","A1BJFYHXK6YDX1","3T5ZXGO9DEAUILU6S56NLENRQJRQZJ","","[{""page_index"":0,""viewing_time"":2177.60000000149},{""page_index"":1,""viewing_time"":15880.5}]","","","","","","","",""
"1259.1000000014901","","image-keyboard-response","65","243070","0.0-65.0","3F6HPJW4JEMBIRLA691HFBRUZH7W2I","A1BJFYHXK6YDX1","3T5ZXGO9DEAUILU6S56NLENRQJRQZJ","","","img/flower4.png","74","1260","1","1","1","",""
"null","","html-keyboard-response","66","243375","0.0-66.0","3F6HPJW4JEMBIRLA691HFBRUZH7W2I","A1BJFYHXK6YDX1","3T5ZXGO9DEAUILU6S56NLENRQJRQZJ","","","<img src=""img/flower4.png"" style=""width:200px; border:14px solid green;"">","null","","","","","",""
"862.2000000029802","","image-keyboard-response","67","244238","0.0-67.0","3F6HPJW4JEMBIRLA691HFBRUZH7W2I","A1BJFYHXK6YDX1","3T5ZXGO9DEAUILU6S56NLENRQJRQZJ","","","img/flower5.png","75","863.2999999970198","2","1","2","",""
"null","","html-keyboard-response","68","244547","0.0-68.0","3F6HPJW4JEMBIRLA691HFBRUZH7W2I","A1BJFYHXK6YDX1","3T5ZXGO9DEAUILU6S56NLENRQJRQZJ","","","<img src=""img/flower5.png"" style=""width:200px; border:14px solid green;"">","null","","","","","",""
"656.3000000044703","","image-keyboard-response","69","245204","0.0-69.0","3F6HPJW4JEMBIRLA691HFBRUZH7W2I","A1BJFYHXK6YDX1","3T5ZXGO9DEAUILU6S56NLENRQJRQZJ","","","img/flower5.png","75","656.8999999985099","2","1","2","",""
"null","","html-keyboard-response","70","245513","0.0-70.0","3F6HPJW4JEMBIRLA691HFBRUZH7W2I","A1BJFYHXK6YDX1","3T5ZXGO9DEAUILU6S56NLENRQJRQZJ","","","<img src=""img/flower5.png"" style=""width:200px; border:14px solid green;"">","null","","","","","",""
"608.6999999955297","","image-keyboard-response","71","246123","0.0-71.0","3F6HPJW4JEMBIRLA691HFBRUZH7W2I","A1BJFYHXK6YDX1","3T5ZXGO9DEAUILU6S56NLENRQJRQZJ","","","img/flower4.png","74","609.4000000059605","1","1","1","",""
"null","","html-keyboard-response","72","246432","0.0-72.0","3F6HPJW4JEMBIRLA691HFBRUZH7W2I","A1BJFYHXK6YDX1","3T5ZXGO9DEAUILU6S56NLENRQJRQZJ","","","<img src=""img/flower4.png"" style=""width:200px; border:14px solid green;"">","null","","","","","",""
"946","","image-keyboard-response","73","247379","0.0-73.0","3F6HPJW4JEMBIRLA691HFBRUZH7W2I","A1BJFYHXK6YDX1","3T5ZXGO9DEAUILU6S56NLENRQJRQZJ","","","img/flower5.png","75","947.2000000029802","2","1","2","",""
"null","","html-keyboard-response","74","247686","0.0-74.0","3F6HPJW4JEMBIRLA691HFBRUZH7W2I","A1BJFYHXK6YDX1","3T5ZXGO9DEAUILU6S56NLENRQJRQZJ","","","<img src=""img/flower5.png"" style=""width:200px; border:14px solid green;"">","null","","","","","",""
"765.2000000029802","","image-keyboard-response","75","248454","0.0-75.0","3F6HPJW4JEMBIRLA691HFBRUZH7W2I","A1BJFYHXK6YDX1","3T5ZXGO9DEAUILU6S56NLENRQJRQZJ","","","img/flower6.png","76","766.6000000014901","3","1","3","",""
"null","","html-keyboard-response","76","248758","0.0-76.0","3F6HPJW4JEMBIRLA691HFBRUZH7W2I","A1BJFYHXK6YDX1","3T5ZXGO9DEAUILU6S56NLENRQJRQZJ","","","<img src=""img/flower6.png"" style=""width:200px; border:14px solid green;"">","null","","","","","",""
"1074.5","","image-keyboard-response","77","249835","0.0-77.0","3F6HPJW4JEMBIRLA691HFBRUZH7W2I","A1BJFYHXK6YDX1","3T5ZXGO9DEAUILU6S56NLENRQJRQZJ","","","img/flower5.png","75","1077.1000000014901","2","1","2","",""
"null","","html-keyboard-response","78","250139","0.0-78.0","3F6HPJW4JEMBIRLA691HFBRUZH7W2I","A1BJFYHXK6YDX1","3T5ZXGO9DEAUILU6S56NLENRQJRQZJ","","","<img src=""img/flower5.png"" style=""width:200px; border:14px solid green;"">","null","","","","","",""
"770.7999999970198","","image-keyboard-response","79","250911","0.0-79.0","3F6HPJW4JEMBIRLA691HFBRUZH7W2I","A1BJFYHXK6YDX1","3T5ZXGO9DEAUILU6S56NLENRQJRQZJ","","","img/flower6.png","76","772.2999999970198","3","1","3","",""
"null","","html-keyboard-response","80","251214","0.0-80.0","3F6HPJW4JEMBIRLA691HFBRUZH7W2I","A1BJFYHXK6YDX1","3T5ZXGO9DEAUILU6S56NLENRQJRQZJ","","","<img src=""img/flower6.png"" style=""width:200px; border:14px solid green;"">","null","","","","","",""
"611.2999999970198","","image-keyboard-response","81","251826","0.0-81.0","3F6HPJW4JEMBIRLA691HFBRUZH7W2I","A1BJFYHXK6YDX1","3T5ZXGO9DEAUILU6S56NLENRQJRQZJ","","","img/flower5.png","75","612.2000000029802","2","1","2","",""
"null","","html-keyboard-response","82","252131","0.0-82.0","3F6HPJW4JEMBIRLA691HFBRUZH7W2I","A1BJFYHXK6YDX1","3T5ZXGO9DEAUILU6S56NLENRQJRQZJ","","","<img src=""img/flower5.png"" style=""width:200px; border:14px solid green;"">","null","","","","","",""
"622.3000000044703","","image-keyboard-response","83","252755","0.0-83.0","3F6HPJW4JEMBIRLA691HFBRUZH7W2I","A1BJFYHXK6YDX1","3T5ZXGO9DEAUILU6S56NLENRQJRQZJ","","","img/flower6.png","76","623.5","3","0","3","",""
"null","","html-keyboard-response","84","253059","0.0-84.0","3F6HPJW4JEMBIRLA691HFBRUZH7W2I","A1BJFYHXK6YDX1","3T5ZXGO9DEAUILU6S56NLENRQJRQZJ","","","<img src=""img/flower6.png"" style=""width:200px;border:14px solid red;"">","null","","","","","",""
"935.6000000014901","","image-keyboard-response","85","253996","0.0-85.0","3F6HPJW4JEMBIRLA691HFBRUZH7W2I","A1BJFYHXK6YDX1","3T5ZXGO9DEAUILU6S56NLENRQJRQZJ","","","img/flower5.png","75","936.6999999955297","2","1","2","",""
"null","","html-keyboard-response","86","254301","0.0-86.0","3F6HPJW4JEMBIRLA691HFBRUZH7W2I","A1BJFYHXK6YDX1","3T5ZXGO9DEAUILU6S56NLENRQJRQZJ","","","<img src=""img/flower5.png"" style=""width:200px; border:14px solid green;"">","null","","","","","",""
"767.1999999955297","","image-keyboard-response","87","255069","0.0-87.0","3F6HPJW4JEMBIRLA691HFBRUZH7W2I","A1BJFYHXK6YDX1","3T5ZXGO9DEAUILU6S56NLENRQJRQZJ","","","img/flower6.png","76","768.4000000059605","3","1","3","",""
"null","","html-keyboard-response","88","255377","0.0-88.0","3F6HPJW4JEMBIRLA691HFBRUZH7W2I","A1BJFYHXK6YDX1","3T5ZXGO9DEAUILU6S56NLENRQJRQZJ","","","<img src=""img/flower6.png"" style=""width:200px; border:14px solid green;"">","null","","","","","",""
"537.8999999985099","","image-keyboard-response","89","255916","0.0-89.0","3F6HPJW4JEMBIRLA691HFBRUZH7W2I","A1BJFYHXK6YDX1","3T5ZXGO9DEAUILU6S56NLENRQJRQZJ","","","img/flower6.png","76","538.8000000044703","3","1","3","",""
"null","","html-keyboard-response","90","256219","0.0-90.0","3F6HPJW4JEMBIRLA691HFBRUZH7W2I","A1BJFYHXK6YDX1","3T5ZXGO9DEAUILU6S56NLENRQJRQZJ","","","<img src=""img/flower6.png"" style=""width:200px; border:14px solid green;"">","null","","","","","",""
"907.6000000014901","","image-keyboard-response","91","257128","0.0-91.0","3F6HPJW4JEMBIRLA691HFBRUZH7W2I","A1BJFYHXK6YDX1","3T5ZXGO9DEAUILU6S56NLENRQJRQZJ","","","img/flower5.png","75","908.6999999955297","2","1","2","",""
"null","","html-keyboard-response","92","257433","0.0-92.0","3F6HPJW4JEMBIRLA691HFBRUZH7W2I","A1BJFYHXK6YDX1","3T5ZXGO9DEAUILU6S56NLENRQJRQZJ","","","<img src=""img/flower5.png"" style=""width:200px; border:14px solid green;"">","null","","","","","",""
"532.8999999985099","","image-keyboard-response","93","257967","0.0-93.0","3F6HPJW4JEMBIRLA691HFBRUZH7W2I","A1BJFYHXK6YDX1","3T5ZXGO9DEAUILU6S56NLENRQJRQZJ","","","img/flower4.png","74","533.7999999970198","1","1","1","",""
"null","","html-keyboard-response","94","258281","0.0-94.0","3F6HPJW4JEMBIRLA691HFBRUZH7W2I","A1BJFYHXK6YDX1","3T5ZXGO9DEAUILU6S56NLENRQJRQZJ","","","<img src=""img/flower4.png"" style=""width:200px; border:14px solid green;"">","null","","","","","",""
"690.7999999970198","","image-keyboard-response","95","258974","0.0-95.0","3F6HPJW4JEMBIRLA691HFBRUZH7W2I","A1BJFYHXK6YDX1","3T5ZXGO9DEAUILU6S56NLENRQJRQZJ","","","img/flower6.png","76","691.9000000059605","3","1","3","",""
"null","","html-keyboard-response","96","259284","0.0-96.0","3F6HPJW4JEMBIRLA691HFBRUZH7W2I","A1BJFYHXK6YDX1","3T5ZXGO9DEAUILU6S56NLENRQJRQZJ","","","<img src=""img/flower6.png"" style=""width:200px; border:14px solid green;"">","null","","","","","",""
"617","","image-keyboard-response","97","259902","0.0-97.0","3F6HPJW4JEMBIRLA691HFBRUZH7W2I","A1BJFYHXK6YDX1","3T5ZXGO9DEAUILU6S56NLENRQJRQZJ","","","img/flower4.png","75","617.8999999985099","2","1","1","",""
"null","","html-keyboard-response","98","260208","0.0-98.0","3F6HPJW4JEMBIRLA691HFBRUZH7W2I","A1BJFYHXK6YDX1","3T5ZXGO9DEAUILU6S56NLENRQJRQZJ","","","<img src=""img/flower4.png"" style=""width:200px; border:14px solid green;"">","null","","","","","",""
"789.5","","image-keyboard-response","99","260999","0.0-99.0","3F6HPJW4JEMBIRLA691HFBRUZH7W2I","A1BJFYHXK6YDX1","3T5ZXGO9DEAUILU6S56NLENRQJRQZJ","","","img/flower6.png","76","790.8999999985099","3","1","3","",""
"null","","html-keyboard-response","100","261306","0.0-100.0","3F6HPJW4JEMBIRLA691HFBRUZH7W2I","A1BJFYHXK6YDX1","3T5ZXGO9DEAUILU6S56NLENRQJRQZJ","","","<img src=""img/flower6.png"" style=""width:200px; border:14px solid green;"">","null","","","","","",""
"663.2000000029802","","image-keyboard-response","101","261971","0.0-101.0","3F6HPJW4JEMBIRLA691HFBRUZH7W2I","A1BJFYHXK6YDX1","3T5ZXGO9DEAUILU6S56NLENRQJRQZJ","","","img/flower4.png","74","664.5","1","1","1","",""
"null","","html-keyboard-response","102","262272","0.0-102.0","3F6HPJW4JEMBIRLA691HFBRUZH7W2I","A1BJFYHXK6YDX1","3T5ZXGO9DEAUILU6S56NLENRQJRQZJ","","","<img src=""img/flower4.png"" style=""width:200px; border:14px solid green;"">","null","","","","","",""
"527.7999999970198","","image-keyboard-response","103","262801","0.0-103.0","3F6HPJW4JEMBIRLA691HFBRUZH7W2I","A1BJFYHXK6YDX1","3T5ZXGO9DEAUILU6S56NLENRQJRQZJ","","","img/flower4.png","74","528.6000000014901","1","0","1","",""
"null","","html-keyboard-response","104","263105","0.0-104.0","3F6HPJW4JEMBIRLA691HFBRUZH7W2I","A1BJFYHXK6YDX1","3T5ZXGO9DEAUILU6S56NLENRQJRQZJ","","","<img src=""img/flower4.png"" style=""width:200px;border:14px solid red;"">","null","","","","","",""
"967","","image-keyboard-response","105","264072","0.0-105.0","3F6HPJW4JEMBIRLA691HFBRUZH7W2I","A1BJFYHXK6YDX1","3T5ZXGO9DEAUILU6S56NLENRQJRQZJ","","","img/flower5.png","75","967.5","2","1","2","",""
"null","","html-keyboard-response","106","264376","0.0-106.0","3F6HPJW4JEMBIRLA691HFBRUZH7W2I","A1BJFYHXK6YDX1","3T5ZXGO9DEAUILU6S56NLENRQJRQZJ","","","<img src=""img/flower5.png"" style=""width:200px; border:14px solid green;"">","null","","","","","",""
"493.69999999552965","","image-keyboard-response","107","264870","0.0-107.0","3F6HPJW4JEMBIRLA691HFBRUZH7W2I","A1BJFYHXK6YDX1","3T5ZXGO9DEAUILU6S56NLENRQJRQZJ","","","img/flower5.png","75","494.3999999985099","2","1","2","",""
"null","","html-keyboard-response","108","265173","0.0-108.0","3F6HPJW4JEMBIRLA691HFBRUZH7W2I","A1BJFYHXK6YDX1","3T5ZXGO9DEAUILU6S56NLENRQJRQZJ","","","<img src=""img/flower5.png"" style=""width:200px; border:14px solid green;"">","null","","","","","",""
"702.6999999955297","","image-keyboard-response","109","265876","0.0-109.0","3F6HPJW4JEMBIRLA691HFBRUZH7W2I","A1BJFYHXK6YDX1","3T5ZXGO9DEAUILU6S56NLENRQJRQZJ","","","img/flower4.png","74","703.2000000029802","1","0","1","",""
"null","","html-keyboard-response","110","266181","0.0-110.0","3F6HPJW4JEMBIRLA691HFBRUZH7W2I","A1BJFYHXK6YDX1","3T5ZXGO9DEAUILU6S56NLENRQJRQZJ","","","<img src=""img/flower4.png"" style=""width:200px;border:14px solid red;"">","null","","","","","",""
"1544.7000000029802","","image-keyboard-response","111","267727","0.0-111.0","3F6HPJW4JEMBIRLA691HFBRUZH7W2I","A1BJFYHXK6YDX1","3T5ZXGO9DEAUILU6S56NLENRQJRQZJ","","","img/flower5.png","75","1545.8999999985099","2","1","2","",""
"null","","html-keyboard-response","112","268042","0.0-112.0","3F6HPJW4JEMBIRLA691HFBRUZH7W2I","A1BJFYHXK6YDX1","3T5ZXGO9DEAUILU6S56NLENRQJRQZJ","","","<img src=""img/flower5.png"" style=""width:200px; border:14px solid green;"">","null","","","","","",""
"656.8000000044703","","image-keyboard-response","113","268702","0.0-113.0","3F6HPJW4JEMBIRLA691HFBRUZH7W2I","A1BJFYHXK6YDX1","3T5ZXGO9DEAUILU6S56NLENRQJRQZJ","","","img/flower6.png","76","658.3000000044703","3","1","3","",""
"null","","html-keyboard-response","114","269007","0.0-114.0","3F6HPJW4JEMBIRLA691HFBRUZH7W2I","A1BJFYHXK6YDX1","3T5ZXGO9DEAUILU6S56NLENRQJRQZJ","","","<img src=""img/flower6.png"" style=""width:200px; border:14px solid green;"">","null","","","","","",""
"587.1000000014901","","image-keyboard-response","115","269595","0.0-115.0","3F6HPJW4JEMBIRLA691HFBRUZH7W2I","A1BJFYHXK6YDX1","3T5ZXGO9DEAUILU6S56NLENRQJRQZJ","","","img/flower4.png","74","588.4000000059605","1","1","1","",""
"null","","html-keyboard-response","116","269902","0.0-116.0","3F6HPJW4JEMBIRLA691HFBRUZH7W2I","A1BJFYHXK6YDX1","3T5ZXGO9DEAUILU6S56NLENRQJRQZJ","","","<img src=""img/flower4.png"" style=""width:200px; border:14px solid green;"">","null","","","","","",""
"660.7999999970198","","image-keyboard-response","117","270565","0.0-117.0","3F6HPJW4JEMBIRLA691HFBRUZH7W2I","A1BJFYHXK6YDX1","3T5ZXGO9DEAUILU6S56NLENRQJRQZJ","","","img/flower6.png","76","662.3000000044703","3","0","3","",""
"null","","html-keyboard-response","118","270870","0.0-118.0","3F6HPJW4JEMBIRLA691HFBRUZH7W2I","A1BJFYHXK6YDX1","3T5ZXGO9DEAUILU6S56NLENRQJRQZJ","","","<img src=""img/flower6.png"" style=""width:200px;border:14px solid red;"">","null","","","","","",""
"2997.7000000029802","","image-keyboard-response","119","273863","0.0-119.0","3F6HPJW4JEMBIRLA691HFBRUZH7W2I","A1BJFYHXK6YDX1","3T5ZXGO9DEAUILU6S56NLENRQJRQZJ","","","img/flower4.png","74","2998.9000000059605","1","0","1","",""
"null","","html-keyboard-response","120","274178","0.0-120.0","3F6HPJW4JEMBIRLA691HFBRUZH7W2I","A1BJFYHXK6YDX1","3T5ZXGO9DEAUILU6S56NLENRQJRQZJ","","","<img src=""img/flower4.png"" style=""width:200px;border:14px solid red;"">","null","","","","","",""
"640.1000000014901","","image-keyboard-response","121","274820","0.0-121.0","3F6HPJW4JEMBIRLA691HFBRUZH7W2I","A1BJFYHXK6YDX1","3T5ZXGO9DEAUILU6S56NLENRQJRQZJ","","","img/flower6.png","76","641.3000000044703","3","1","3","",""
"null","","html-keyboard-response","122","275126","0.0-122.0","3F6HPJW4JEMBIRLA691HFBRUZH7W2I","A1BJFYHXK6YDX1","3T5ZXGO9DEAUILU6S56NLENRQJRQZJ","","","<img src=""img/flower6.png"" style=""width:200px; border:14px solid green;"">","null","","","","","",""
"1536.1999999955297","","image-keyboard-response","123","276664","0.0-123.0","3F6HPJW4JEMBIRLA691HFBRUZH7W2I","A1BJFYHXK6YDX1","3T5ZXGO9DEAUILU6S56NLENRQJRQZJ","","","img/flower4.png","74","1537.3999999985099","1","1","1","",""
"null","","html-keyboard-response","124","276969","0.0-124.0","3F6HPJW4JEMBIRLA691HFBRUZH7W2I","A1BJFYHXK6YDX1","3T5ZXGO9DEAUILU6S56NLENRQJRQZJ","","","<img src=""img/flower4.png"" style=""width:200px; border:14px solid green;"">","null","","","","","",""
"3156.2999999970198","","instructions","125","280126","0.0-125.0","3F6HPJW4JEMBIRLA691HFBRUZH7W2I","A1BJFYHXK6YDX1","3T5ZXGO9DEAUILU6S56NLENRQJRQZJ","","[{""page_index"":0,""viewing_time"":3156}]","","","","","","","",""
"2808.2999999970198","","image-keyboard-response","126","282935","0.0-126.0","3F6HPJW4JEMBIRLA691HFBRUZH7W2I","A1BJFYHXK6YDX1","3T5ZXGO9DEAUILU6S56NLENRQJRQZJ","","","img/flower1.png","76","2809.4000000059605","3","1","2","1,1,0,0,1,1,1,0,1",""
"null","","html-keyboard-response","127","283239","0.0-127.0","3F6HPJW4JEMBIRLA691HFBRUZH7W2I","A1BJFYHXK6YDX1","3T5ZXGO9DEAUILU6S56NLENRQJRQZJ","","","<img src=""img/flower1.png"" style=""width:200px; border:14px solid green;"">","null","","","","","",""
"580.9000000059605","","image-keyboard-response","128","283821","0.0-128.0","3F6HPJW4JEMBIRLA691HFBRUZH7W2I","A1BJFYHXK6YDX1","3T5ZXGO9DEAUILU6S56NLENRQJRQZJ","","","img/flower1.png","76","581.8999999985099","3","1","2","1,1,0,0,1,1,1,0,1",""
"null","","html-keyboard-response","129","284129","0.0-129.0","3F6HPJW4JEMBIRLA691HFBRUZH7W2I","A1BJFYHXK6YDX1","3T5ZXGO9DEAUILU6S56NLENRQJRQZJ","","","<img src=""img/flower1.png"" style=""width:200px; border:14px solid green;"">","null","","","","","",""
"1017.3999999985099","","image-keyboard-response","130","285147","0.0-130.0","3F6HPJW4JEMBIRLA691HFBRUZH7W2I","A1BJFYHXK6YDX1","3T5ZXGO9DEAUILU6S56NLENRQJRQZJ","","","img/flower5.png","75","1018.3999999985099","2","1","1","1,1,0,0,1,1,1,0,1",""
"null","","html-keyboard-response","131","285457","0.0-131.0","3F6HPJW4JEMBIRLA691HFBRUZH7W2I","A1BJFYHXK6YDX1","3T5ZXGO9DEAUILU6S56NLENRQJRQZJ","","","<img src=""img/flower5.png"" style=""width:200px; border:14px solid green;"">","null","","","","","",""
"768.3000000044703","","image-keyboard-response","132","286226","0.0-132.0","3F6HPJW4JEMBIRLA691HFBRUZH7W2I","A1BJFYHXK6YDX1","3T5ZXGO9DEAUILU6S56NLENRQJRQZJ","","","img/flower1.png","76","769.1999999955297","3","1","2","1,1,0,0,1,1,1,0,1",""
"null","","html-keyboard-response","133","286529","0.0-133.0","3F6HPJW4JEMBIRLA691HFBRUZH7W2I","A1BJFYHXK6YDX1","3T5ZXGO9DEAUILU6S56NLENRQJRQZJ","","","<img src=""img/flower1.png"" style=""width:200px; border:14px solid green;"">","null","","","","","",""
"1043","","image-keyboard-response","134","287573","0.0-134.0","3F6HPJW4JEMBIRLA691HFBRUZH7W2I","A1BJFYHXK6YDX1","3T5ZXGO9DEAUILU6S56NLENRQJRQZJ","","","img/flower3.png","74","1043.7999999970198","1","1","3","1,1,0,0,1,1,1,0,1",""
"null","","html-keyboard-response","135","287876","0.0-135.0","3F6HPJW4JEMBIRLA691HFBRUZH7W2I","A1BJFYHXK6YDX1","3T5ZXGO9DEAUILU6S56NLENRQJRQZJ","","","<img src=""img/flower3.png"" style=""width:200px; border:14px solid green;"">","null","","","","","",""
"1124.2000000029802","","image-keyboard-response","136","289002","0.0-136.0","3F6HPJW4JEMBIRLA691HFBRUZH7W2I","A1BJFYHXK6YDX1","3T5ZXGO9DEAUILU6S56NLENRQJRQZJ","","","img/flower5.png","75","1125.6000000014901","2","1","1","1,1,0,0,1,1,1,0,1",""
"null","","html-keyboard-response","137","289310","0.0-137.0","3F6HPJW4JEMBIRLA691HFBRUZH7W2I","A1BJFYHXK6YDX1","3T5ZXGO9DEAUILU6S56NLENRQJRQZJ","","","<img src=""img/flower5.png"" style=""width:200px; border:14px solid green;"">","null","","","","","",""
"728","","image-keyboard-response","138","290041","0.0-138.0","3F6HPJW4JEMBIRLA691HFBRUZH7W2I","A1BJFYHXK6YDX1","3T5ZXGO9DEAUILU6S56NLENRQJRQZJ","","","img/flower1.png","74","729.6000000014901","1","0","2","1,1,0,0,1,1,1,0,1",""
"null","","html-keyboard-response","139","290349","0.0-139.0","3F6HPJW4JEMBIRLA691HFBRUZH7W2I","A1BJFYHXK6YDX1","3T5ZXGO9DEAUILU6S56NLENRQJRQZJ","","","<img src=""img/flower1.png"" style=""width:200px;border:14px solid red;"">","null","","","","","",""
"669.2000000029802","","image-keyboard-response","140","291020","0.0-140.0","3F6HPJW4JEMBIRLA691HFBRUZH7W2I","A1BJFYHXK6YDX1","3T5ZXGO9DEAUILU6S56NLENRQJRQZJ","","","img/flower5.png","75","670.6999999955297","2","1","1","1,1,0,0,1,1,1,0,1",""
"null","","html-keyboard-response","141","291326","0.0-141.0","3F6HPJW4JEMBIRLA691HFBRUZH7W2I","A1BJFYHXK6YDX1","3T5ZXGO9DEAUILU6S56NLENRQJRQZJ","","","<img src=""img/flower5.png"" style=""width:200px; border:14px solid green;"">","null","","","","","",""
"900.6000000014901","","image-keyboard-response","142","292228","0.0-142.0","3F6HPJW4JEMBIRLA691HFBRUZH7W2I","A1BJFYHXK6YDX1","3T5ZXGO9DEAUILU6S56NLENRQJRQZJ","","","img/flower3.png","74","902","1","1","3","1,1,0,0,1,1,1,0,1",""
"null","","html-keyboard-response","143","292535","0.0-143.0","3F6HPJW4JEMBIRLA691HFBRUZH7W2I","A1BJFYHXK6YDX1","3T5ZXGO9DEAUILU6S56NLENRQJRQZJ","","","<img src=""img/flower3.png"" style=""width:200px; border:14px solid green;"">","null","","","","","",""
"1429.5","","image-keyboard-response","144","293966","0.0-144.0","3F6HPJW4JEMBIRLA691HFBRUZH7W2I","A1BJFYHXK6YDX1","3T5ZXGO9DEAUILU6S56NLENRQJRQZJ","","","img/flower1.png","76","1430.7000000029802","3","1","2","1,1,0,0,1,1,1,0,1",""
"null","","html-keyboard-response","145","294269","0.0-145.0","3F6HPJW4JEMBIRLA691HFBRUZH7W2I","A1BJFYHXK6YDX1","3T5ZXGO9DEAUILU6S56NLENRQJRQZJ","","","<img src=""img/flower1.png"" style=""width:200px; border:14px solid green;"">","null","","","","","",""
"482.09999999403954","","image-keyboard-response","146","294753","0.0-146.0","3F6HPJW4JEMBIRLA691HFBRUZH7W2I","A1BJFYHXK6YDX1","3T5ZXGO9DEAUILU6S56NLENRQJRQZJ","","","img/flower1.png","76","483.3999999985099","3","1","2","1,1,0,0,1,1,1,0,1",""
"null","","html-keyboard-response","147","295060","0.0-147.0","3F6HPJW4JEMBIRLA691HFBRUZH7W2I","A1BJFYHXK6YDX1","3T5ZXGO9DEAUILU6S56NLENRQJRQZJ","","","<img src=""img/flower1.png"" style=""width:200px; border:14px solid green;"">","null","","","","","",""
"798.6000000014901","","image-keyboard-response","148","295860","0.0-148.0","3F6HPJW4JEMBIRLA691HFBRUZH7W2I","A1BJFYHXK6YDX1","3T5ZXGO9DEAUILU6S56NLENRQJRQZJ","","","img/flower3.png","74","799.8000000044703","1","1","3","1,1,0,0,1,1,1,0,1",""
"null","","html-keyboard-response","149","296163","0.0-149.0","3F6HPJW4JEMBIRLA691HFBRUZH7W2I","A1BJFYHXK6YDX1","3T5ZXGO9DEAUILU6S56NLENRQJRQZJ","","","<img src=""img/flower3.png"" style=""width:200px; border:14px solid green;"">","null","","","","","",""
"484.29999999701977","","image-keyboard-response","150","296650","0.0-150.0","3F6HPJW4JEMBIRLA691HFBRUZH7W2I","A1BJFYHXK6YDX1","3T5ZXGO9DEAUILU6S56NLENRQJRQZJ","","","img/flower3.png","74","486.40000000596046","1","1","3","1,1,0,0,1,1,1,0,1",""
"null","","html-keyboard-response","151","296960","0.0-151.0","3F6HPJW4JEMBIRLA691HFBRUZH7W2I","A1BJFYHXK6YDX1","3T5ZXGO9DEAUILU6S56NLENRQJRQZJ","","","<img src=""img/flower3.png"" style=""width:200px; border:14px solid green;"">","null","","","","","",""
"994.4000000059605","","image-keyboard-response","152","297956","0.0-152.0","3F6HPJW4JEMBIRLA691HFBRUZH7W2I","A1BJFYHXK6YDX1","3T5ZXGO9DEAUILU6S56NLENRQJRQZJ","","","img/flower1.png","75","995.5","2","1","2","1,1,0,0,1,1,1,0,1",""
"null","","html-keyboard-response","153","298263","0.0-153.0","3F6HPJW4JEMBIRLA691HFBRUZH7W2I","A1BJFYHXK6YDX1","3T5ZXGO9DEAUILU6S56NLENRQJRQZJ","","","<img src=""img/flower1.png"" style=""width:200px; border:14px solid green;"">","null","","","","","",""
"880.9000000059605","","image-keyboard-response","154","299145","0.0-154.0","3F6HPJW4JEMBIRLA691HFBRUZH7W2I","A1BJFYHXK6YDX1","3T5ZXGO9DEAUILU6S56NLENRQJRQZJ","","","img/flower3.png","74","882.0999999940395","1","1","3","1,1,0,0,1,1,1,0,1",""
"null","","html-keyboard-response","155","299448","0.0-155.0","3F6HPJW4JEMBIRLA691HFBRUZH7W2I","A1BJFYHXK6YDX1","3T5ZXGO9DEAUILU6S56NLENRQJRQZJ","","","<img src=""img/flower3.png"" style=""width:200px; border:14px solid green;"">","null","","","","","",""
"640.2000000029802","","image-keyboard-response","156","300090","0.0-156.0","3F6HPJW4JEMBIRLA691HFBRUZH7W2I","A1BJFYHXK6YDX1","3T5ZXGO9DEAUILU6S56NLENRQJRQZJ","","","img/flower1.png","75","641.5","2","1","2","1,1,0,0,1,1,1,0,1",""
"null","","html-keyboard-response","157","300400","0.0-157.0","3F6HPJW4JEMBIRLA691HFBRUZH7W2I","A1BJFYHXK6YDX1","3T5ZXGO9DEAUILU6S56NLENRQJRQZJ","","","<img src=""img/flower1.png"" style=""width:200px; border:14px solid green;"">","null","","","","","",""
"1355.2999999970198","","image-keyboard-response","158","301757","0.0-158.0","3F6HPJW4JEMBIRLA691HFBRUZH7W2I","A1BJFYHXK6YDX1","3T5ZXGO9DEAUILU6S56NLENRQJRQZJ","","","img/flower5.png","76","1356.6000000014901","3","0","1","1,1,0,0,1,1,1,0,1",""
"null","","html-keyboard-response","159","302066","0.0-159.0","3F6HPJW4JEMBIRLA691HFBRUZH7W2I","A1BJFYHXK6YDX1","3T5ZXGO9DEAUILU6S56NLENRQJRQZJ","","","<img src=""img/flower5.png"" style=""width:200px;border:14px solid red;"">","null","","","","","",""
"709.7000000029802","","image-keyboard-response","160","302777","0.0-160.0","3F6HPJW4JEMBIRLA691HFBRUZH7W2I","A1BJFYHXK6YDX1","3T5ZXGO9DEAUILU6S56NLENRQJRQZJ","","","img/flower1.png","75","711","2","1","2","1,1,0,0,1,1,1,0,1",""
"null","","html-keyboard-response","161","303089","0.0-161.0","3F6HPJW4JEMBIRLA691HFBRUZH7W2I","A1BJFYHXK6YDX1","3T5ZXGO9DEAUILU6S56NLENRQJRQZJ","","","<img src=""img/flower1.png"" style=""width:200px; border:14px solid green;"">","null","","","","","",""
"714.2999999970198","","image-keyboard-response","162","303805","0.0-162.0","3F6HPJW4JEMBIRLA691HFBRUZH7W2I","A1BJFYHXK6YDX1","3T5ZXGO9DEAUILU6S56NLENRQJRQZJ","","","img/flower5.png","74","715.5999999940395","1","1","1","1,1,0,0,1,1,1,0,1",""
"null","","html-keyboard-response","163","304110","0.0-163.0","3F6HPJW4JEMBIRLA691HFBRUZH7W2I","A1BJFYHXK6YDX1","3T5ZXGO9DEAUILU6S56NLENRQJRQZJ","","","<img src=""img/flower5.png"" style=""width:200px; border:14px solid green;"">","null","","","","","",""
"630.2999999970198","","image-keyboard-response","164","304745","0.0-164.0","3F6HPJW4JEMBIRLA691HFBRUZH7W2I","A1BJFYHXK6YDX1","3T5ZXGO9DEAUILU6S56NLENRQJRQZJ","","","img/flower1.png","75","632.6000000014901","2","1","2","1,1,0,0,1,1,1,0,1",""
"null","","html-keyboard-response","165","305048","0.0-165.0","3F6HPJW4JEMBIRLA691HFBRUZH7W2I","A1BJFYHXK6YDX1","3T5ZXGO9DEAUILU6S56NLENRQJRQZJ","","","<img src=""img/flower1.png"" style=""width:200px; border:14px solid green;"">","null","","","","","",""
"641.6999999955297","","image-keyboard-response","166","305691","0.0-166.0","3F6HPJW4JEMBIRLA691HFBRUZH7W2I","A1BJFYHXK6YDX1","3T5ZXGO9DEAUILU6S56NLENRQJRQZJ","","","img/flower5.png","74","642.7999999970198","1","1","1","1,1,0,0,1,1,1,0,1",""
"null","","html-keyboard-response","167","306000","0.0-167.0","3F6HPJW4JEMBIRLA691HFBRUZH7W2I","A1BJFYHXK6YDX1","3T5ZXGO9DEAUILU6S56NLENRQJRQZJ","","","<img src=""img/flower5.png"" style=""width:200px; border:14px solid green;"">","null","","","","","",""
"1030.5","","image-keyboard-response","168","307032","0.0-168.0","3F6HPJW4JEMBIRLA691HFBRUZH7W2I","A1BJFYHXK6YDX1","3T5ZXGO9DEAUILU6S56NLENRQJRQZJ","","","img/flower3.png","74","1031.8000000044703","1","1","3","1,1,0,0,1,1,1,0,1",""
"null","","html-keyboard-response","169","307338","0.0-169.0","3F6HPJW4JEMBIRLA691HFBRUZH7W2I","A1BJFYHXK6YDX1","3T5ZXGO9DEAUILU6S56NLENRQJRQZJ","","","<img src=""img/flower3.png"" style=""width:200px; border:14px solid green;"">","null","","","","","",""
"1289.5","","image-keyboard-response","170","308629","0.0-170.0","3F6HPJW4JEMBIRLA691HFBRUZH7W2I","A1BJFYHXK6YDX1","3T5ZXGO9DEAUILU6S56NLENRQJRQZJ","","","img/flower5.png","75","1290.5","2","1","1","1,1,0,0,1,1,1,0,1",""
"null","","html-keyboard-response","171","308934","0.0-171.0","3F6HPJW4JEMBIRLA691HFBRUZH7W2I","A1BJFYHXK6YDX1","3T5ZXGO9DEAUILU6S56NLENRQJRQZJ","","","<img src=""img/flower5.png"" style=""width:200px; border:14px solid green;"">","null","","","","","",""
"557.5","","image-keyboard-response","172","309493","0.0-172.0","3F6HPJW4JEMBIRLA691HFBRUZH7W2I","A1BJFYHXK6YDX1","3T5ZXGO9DEAUILU6S56NLENRQJRQZJ","","","img/flower5.png","75","558.4000000059605","2","1","1","1,1,0,0,1,1,1,0,1",""
"null","","html-keyboard-response","173","309802","0.0-173.0","3F6HPJW4JEMBIRLA691HFBRUZH7W2I","A1BJFYHXK6YDX1","3T5ZXGO9DEAUILU6S56NLENRQJRQZJ","","","<img src=""img/flower5.png"" style=""width:200px; border:14px solid green;"">","null","","","","","",""
"457.3999999985099","","image-keyboard-response","174","310261","0.0-174.0","3F6HPJW4JEMBIRLA691HFBRUZH7W2I","A1BJFYHXK6YDX1","3T5ZXGO9DEAUILU6S56NLENRQJRQZJ","","","img/flower5.png","75","458.3999999985099","2","1","1","1,1,0,0,1,1,1,0,1",""
"null","","html-keyboard-response","175","310566","0.0-175.0","3F6HPJW4JEMBIRLA691HFBRUZH7W2I","A1BJFYHXK6YDX1","3T5ZXGO9DEAUILU6S56NLENRQJRQZJ","","","<img src=""img/flower5.png"" style=""width:200px; border:14px solid green;"">","null","","","","","",""
"825.8999999985099","","image-keyboard-response","176","311393","0.0-176.0","3F6HPJW4JEMBIRLA691HFBRUZH7W2I","A1BJFYHXK6YDX1","3T5ZXGO9DEAUILU6S56NLENRQJRQZJ","","","img/flower3.png","74","827.0999999940395","1","1","3","1,1,0,0,1,1,1,0,1",""
"null","","html-keyboard-response","177","311708","0.0-177.0","3F6HPJW4JEMBIRLA691HFBRUZH7W2I","A1BJFYHXK6YDX1","3T5ZXGO9DEAUILU6S56NLENRQJRQZJ","","","<img src=""img/flower3.png"" style=""width:200px; border:14px solid green;"">","null","","","","","",""
"398.3999999985099","","image-keyboard-response","178","312108","0.0-178.0","3F6HPJW4JEMBIRLA691HFBRUZH7W2I","A1BJFYHXK6YDX1","3T5ZXGO9DEAUILU6S56NLENRQJRQZJ","","","img/flower3.png","74","399.70000000298023","1","1","3","1,1,0,0,1,1,1,0,1",""
"null","","html-keyboard-response","179","312418","0.0-179.0","3F6HPJW4JEMBIRLA691HFBRUZH7W2I","A1BJFYHXK6YDX1","3T5ZXGO9DEAUILU6S56NLENRQJRQZJ","","","<img src=""img/flower3.png"" style=""width:200px; border:14px solid green;"">","null","","","","","",""
"411.79999999701977","","image-keyboard-response","180","312835","0.0-180.0","3F6HPJW4JEMBIRLA691HFBRUZH7W2I","A1BJFYHXK6YDX1","3T5ZXGO9DEAUILU6S56NLENRQJRQZJ","","","img/flower3.png","74","416.5","1","1","3","1,1,0,0,1,1,1,0,1",""
"null","","html-keyboard-response","181","313140","0.0-181.0","3F6HPJW4JEMBIRLA691HFBRUZH7W2I","A1BJFYHXK6YDX1","3T5ZXGO9DEAUILU6S56NLENRQJRQZJ","","","<img src=""img/flower3.png"" style=""width:200px; border:14px solid green;"">","null","","","","","",""
"576.2000000029802","","image-keyboard-response","182","313718","0.0-182.0","3F6HPJW4JEMBIRLA691HFBRUZH7W2I","A1BJFYHXK6YDX1","3T5ZXGO9DEAUILU6S56NLENRQJRQZJ","","","img/flower1.png","75","577.6000000014901","2","1","2","1,1,0,0,1,1,1,0,1",""
"null","","html-keyboard-response","183","314023","0.0-183.0","3F6HPJW4JEMBIRLA691HFBRUZH7W2I","A1BJFYHXK6YDX1","3T5ZXGO9DEAUILU6S56NLENRQJRQZJ","","","<img src=""img/flower1.png"" style=""width:200px; border:14px solid green;"">","null","","","","","",""
"839.7999999970198","","image-keyboard-response","184","314864","0.0-184.0","3F6HPJW4JEMBIRLA691HFBRUZH7W2I","A1BJFYHXK6YDX1","3T5ZXGO9DEAUILU6S56NLENRQJRQZJ","","","img/flower3.png","74","841.3000000044703","1","1","3","1,1,0,0,1,1,1,0,1",""
"null","","html-keyboard-response","185","315169","0.0-185.0","3F6HPJW4JEMBIRLA691HFBRUZH7W2I","A1BJFYHXK6YDX1","3T5ZXGO9DEAUILU6S56NLENRQJRQZJ","","","<img src=""img/flower3.png"" style=""width:200px; border:14px solid green;"">","null","","","","","",""
"679.3000000044703","","image-keyboard-response","186","315849","0.0-186.0","3F6HPJW4JEMBIRLA691HFBRUZH7W2I","A1BJFYHXK6YDX1","3T5ZXGO9DEAUILU6S56NLENRQJRQZJ","","","img/flower1.png","74","680.5","1","0","2","1,1,0,0,1,1,1,0,1",""
"null","","html-keyboard-response","187","316157","0.0-187.0","3F6HPJW4JEMBIRLA691HFBRUZH7W2I","A1BJFYHXK6YDX1","3T5ZXGO9DEAUILU6S56NLENRQJRQZJ","","","<img src=""img/flower1.png"" style=""width:200px;border:14px solid red;"">","null","","","","","",""
"837.7999999970198","","image-keyboard-response","188","316996","0.0-188.0","3F6HPJW4JEMBIRLA691HFBRUZH7W2I","A1BJFYHXK6YDX1","3T5ZXGO9DEAUILU6S56NLENRQJRQZJ","","","img/flower5.png","75","839.1000000014901","2","1","1","1,1,0,0,1,1,1,0,1",""
"null","","html-keyboard-response","189","317301","0.0-189.0","3F6HPJW4JEMBIRLA691HFBRUZH7W2I","A1BJFYHXK6YDX1","3T5ZXGO9DEAUILU6S56NLENRQJRQZJ","","","<img src=""img/flower5.png"" style=""width:200px; border:14px solid green;"">","null","","","","","",""
"907.3000000044703","","image-keyboard-response","190","318209","0.0-190.0","3F6HPJW4JEMBIRLA691HFBRUZH7W2I","A1BJFYHXK6YDX1","3T5ZXGO9DEAUILU6S56NLENRQJRQZJ","","","img/flower1.png","74","908.5999999940395","1","0","2","1,1,0,0,1,1,1,0,1",""
"null","","html-keyboard-response","191","318519","0.0-191.0","3F6HPJW4JEMBIRLA691HFBRUZH7W2I","A1BJFYHXK6YDX1","3T5ZXGO9DEAUILU6S56NLENRQJRQZJ","","","<img src=""img/flower1.png"" style=""width:200px;border:14px solid red;"">","null","","","","","",""
"572.7000000029802","","image-keyboard-response","192","319093","0.0-192.0","3F6HPJW4JEMBIRLA691HFBRUZH7W2I","A1BJFYHXK6YDX1","3T5ZXGO9DEAUILU6S56NLENRQJRQZJ","","","img/flower3.png","75","573.8000000044703","2","0","3","1,1,0,0,1,1,1,0,1",""
"null","","html-keyboard-response","193","319396","0.0-193.0","3F6HPJW4JEMBIRLA691HFBRUZH7W2I","A1BJFYHXK6YDX1","3T5ZXGO9DEAUILU6S56NLENRQJRQZJ","","","<img src=""img/flower3.png"" style=""width:200px;border:14px solid red;"">","null","","","","","",""
"366","","image-keyboard-response","194","319763","0.0-194.0","3F6HPJW4JEMBIRLA691HFBRUZH7W2I","A1BJFYHXK6YDX1","3T5ZXGO9DEAUILU6S56NLENRQJRQZJ","","","img/flower3.png","74","367.1000000014901","1","1","3","1,1,0,0,1,1,1,0,1",""
"null","","html-keyboard-response","195","320070","0.0-195.0","3F6HPJW4JEMBIRLA691HFBRUZH7W2I","A1BJFYHXK6YDX1","3T5ZXGO9DEAUILU6S56NLENRQJRQZJ","","","<img src=""img/flower3.png"" style=""width:200px; border:14px solid green;"">","null","","","","","",""
"832.8000000044703","","image-keyboard-response","196","320905","0.0-196.0","3F6HPJW4JEMBIRLA691HFBRUZH7W2I","A1BJFYHXK6YDX1","3T5ZXGO9DEAUILU6S56NLENRQJRQZJ","","","img/flower5.png","75","834.1999999955297","2","1","1","1,1,0,0,1,1,1,0,1",""
"null","","html-keyboard-response","197","321207","0.0-197.0","3F6HPJW4JEMBIRLA691HFBRUZH7W2I","A1BJFYHXK6YDX1","3T5ZXGO9DEAUILU6S56NLENRQJRQZJ","","","<img src=""img/flower5.png"" style=""width:200px; border:14px solid green;"">","null","","","","","",""
"524.5","","image-keyboard-response","198","321732","0.0-198.0","3F6HPJW4JEMBIRLA691HFBRUZH7W2I","A1BJFYHXK6YDX1","3T5ZXGO9DEAUILU6S56NLENRQJRQZJ","","","img/flower5.png","75","525.2000000029802","2","1","1","1,1,0,0,1,1,1,0,1",""
"null","","html-keyboard-response","199","322037","0.0-199.0","3F6HPJW4JEMBIRLA691HFBRUZH7W2I","A1BJFYHXK6YDX1","3T5ZXGO9DEAUILU6S56NLENRQJRQZJ","","","<img src=""img/flower5.png"" style=""width:200px; border:14px solid green;"">","null","","","","","",""
"662.7999999970198","","image-keyboard-response","200","322701","0.0-200.0","3F6HPJW4JEMBIRLA691HFBRUZH7W2I","A1BJFYHXK6YDX1","3T5ZXGO9DEAUILU6S56NLENRQJRQZJ","","","img/flower3.png","74","663.6999999955297","1","1","3","1,1,0,0,1,1,1,0,1",""
"null","","html-keyboard-response","201","323008","0.0-201.0","3F6HPJW4JEMBIRLA691HFBRUZH7W2I","A1BJFYHXK6YDX1","3T5ZXGO9DEAUILU6S56NLENRQJRQZJ","","","<img src=""img/flower3.png"" style=""width:200px; border:14px solid green;"">","null","","","","","",""
"940.5","","image-keyboard-response","202","323950","0.0-202.0","3F6HPJW4JEMBIRLA691HFBRUZH7W2I","A1BJFYHXK6YDX1","3T5ZXGO9DEAUILU6S56NLENRQJRQZJ","","","img/flower1.png","75","941.7999999970198","2","1","2","1,1,0,0,1,1,1,0,1",""
"null","","html-keyboard-response","203","324258","0.0-203.0","3F6HPJW4JEMBIRLA691HFBRUZH7W2I","A1BJFYHXK6YDX1","3T5ZXGO9DEAUILU6S56NLENRQJRQZJ","","","<img src=""img/flower1.png"" style=""width:200px; border:14px solid green;"">","null","","","","","",""
"889.1999999955297","","image-keyboard-response","204","325149","0.0-204.0","3F6HPJW4JEMBIRLA691HFBRUZH7W2I","A1BJFYHXK6YDX1","3T5ZXGO9DEAUILU6S56NLENRQJRQZJ","","","img/flower5.png","74","890.3999999985099","1","1","1","1,1,0,0,1,1,1,0,1",""
"null","","html-keyboard-response","205","325465","0.0-205.0","3F6HPJW4JEMBIRLA691HFBRUZH7W2I","A1BJFYHXK6YDX1","3T5ZXGO9DEAUILU6S56NLENRQJRQZJ","","","<img src=""img/flower5.png"" style=""width:200px; border:14px solid green;"">","null","","","","","",""
"1095.7000000029802","","image-keyboard-response","206","326562","0.0-206.0","3F6HPJW4JEMBIRLA691HFBRUZH7W2I","A1BJFYHXK6YDX1","3T5ZXGO9DEAUILU6S56NLENRQJRQZJ","","","img/flower3.png","74","1096.8999999985099","1","1","3","1,1,0,0,1,1,1,0,1",""
"null","","html-keyboard-response","207","326872","0.0-207.0","3F6HPJW4JEMBIRLA691HFBRUZH7W2I","A1BJFYHXK6YDX1","3T5ZXGO9DEAUILU6S56NLENRQJRQZJ","","","<img src=""img/flower3.png"" style=""width:200px; border:14px solid green;"">","null","","","","","",""
"1913.5999999940395","","image-keyboard-response","208","328787","0.0-208.0","3F6HPJW4JEMBIRLA691HFBRUZH7W2I","A1BJFYHXK6YDX1","3T5ZXGO9DEAUILU6S56NLENRQJRQZJ","","","img/flower1.png","74","1914.6999999955297","1","0","2","1,1,0,0,1,1,1,0,1",""
"null","","html-keyboard-response","209","329092","0.0-209.0","3F6HPJW4JEMBIRLA691HFBRUZH7W2I","A1BJFYHXK6YDX1","3T5ZXGO9DEAUILU6S56NLENRQJRQZJ","","","<img src=""img/flower1.png"" style=""width:200px;border:14px solid red;"">","null","","","","","",""
"836.6000000014901","","image-keyboard-response","210","329930","0.0-210.0","3F6HPJW4JEMBIRLA691HFBRUZH7W2I","A1BJFYHXK6YDX1","3T5ZXGO9DEAUILU6S56NLENRQJRQZJ","","","img/flower3.png","74","837.7999999970198","1","1","3","1,1,0,0,1,1,1,0,1",""
"null","","html-keyboard-response","211","330237","0.0-211.0","3F6HPJW4JEMBIRLA691HFBRUZH7W2I","A1BJFYHXK6YDX1","3T5ZXGO9DEAUILU6S56NLENRQJRQZJ","","","<img src=""img/flower3.png"" style=""width:200px; border:14px solid green;"">","null","","","","","",""
"619.6000000014901","","image-keyboard-response","212","330858","0.0-212.0","3F6HPJW4JEMBIRLA691HFBRUZH7W2I","A1BJFYHXK6YDX1","3T5ZXGO9DEAUILU6S56NLENRQJRQZJ","","","img/flower5.png","75","620.8000000044703","2","1","1","1,1,0,0,1,1,1,0,1",""
"null","","html-keyboard-response","213","331169","0.0-213.0","3F6HPJW4JEMBIRLA691HFBRUZH7W2I","A1BJFYHXK6YDX1","3T5ZXGO9DEAUILU6S56NLENRQJRQZJ","","","<img src=""img/flower5.png"" style=""width:200px; border:14px solid green;"">","null","","","","","",""
"765","","image-keyboard-response","214","331935","0.0-214.0","3F6HPJW4JEMBIRLA691HFBRUZH7W2I","A1BJFYHXK6YDX1","3T5ZXGO9DEAUILU6S56NLENRQJRQZJ","","","img/flower3.png","75","766.2000000029802","2","0","3","1,1,0,0,1,1,1,0,1",""
"null","","html-keyboard-response","215","332237","0.0-215.0","3F6HPJW4JEMBIRLA691HFBRUZH7W2I","A1BJFYHXK6YDX1","3T5ZXGO9DEAUILU6S56NLENRQJRQZJ","","","<img src=""img/flower3.png"" style=""width:200px;border:14px solid red;"">","null","","","","","",""
"888.5","","image-keyboard-response","216","333127","0.0-216.0","3F6HPJW4JEMBIRLA691HFBRUZH7W2I","A1BJFYHXK6YDX1","3T5ZXGO9DEAUILU6S56NLENRQJRQZJ","","","img/flower1.png","75","889.8999999985099","2","1","2","1,1,0,0,1,1,1,0,1",""
"null","","html-keyboard-response","217","333437","0.0-217.0","3F6HPJW4JEMBIRLA691HFBRUZH7W2I","A1BJFYHXK6YDX1","3T5ZXGO9DEAUILU6S56NLENRQJRQZJ","","","<img src=""img/flower1.png"" style=""width:200px; border:14px solid green;"">","null","","","","","",""
"576","","image-keyboard-response","218","334018","0.0-218.0","3F6HPJW4JEMBIRLA691HFBRUZH7W2I","A1BJFYHXK6YDX1","3T5ZXGO9DEAUILU6S56NLENRQJRQZJ","","","img/flower1.png","75","577.3999999985099","2","1","2","1,1,0,0,1,1,1,0,1",""
"null","","html-keyboard-response","219","334321","0.0-219.0","3F6HPJW4JEMBIRLA691HFBRUZH7W2I","A1BJFYHXK6YDX1","3T5ZXGO9DEAUILU6S56NLENRQJRQZJ","","","<img src=""img/flower1.png"" style=""width:200px; border:14px solid green;"">","null","","","","","",""
"709.2000000029802","","image-keyboard-response","220","335031","0.0-220.0","3F6HPJW4JEMBIRLA691HFBRUZH7W2I","A1BJFYHXK6YDX1","3T5ZXGO9DEAUILU6S56NLENRQJRQZJ","","","img/flower3.png","74","710.3000000044703","1","1","3","1,1,0,0,1,1,1,0,1",""
"null","","html-keyboard-response","221","335335","0.0-221.0","3F6HPJW4JEMBIRLA691HFBRUZH7W2I","A1BJFYHXK6YDX1","3T5ZXGO9DEAUILU6S56NLENRQJRQZJ","","","<img src=""img/flower3.png"" style=""width:200px; border:14px solid green;"">","null","","","","","",""
"1028.2000000029802","","image-keyboard-response","222","336365","0.0-222.0","3F6HPJW4JEMBIRLA691HFBRUZH7W2I","A1BJFYHXK6YDX1","3T5ZXGO9DEAUILU6S56NLENRQJRQZJ","","","img/flower1.png","75","1029.4000000059605","2","1","2","1,1,0,0,1,1,1,0,1",""
"null","","html-keyboard-response","223","336669","0.0-223.0","3F6HPJW4JEMBIRLA691HFBRUZH7W2I","A1BJFYHXK6YDX1","3T5ZXGO9DEAUILU6S56NLENRQJRQZJ","","","<img src=""img/flower1.png"" style=""width:200px; border:14px solid green;"">","null","","","","","",""
"893.2999999970198","","image-keyboard-response","224","337565","0.0-224.0","3F6HPJW4JEMBIRLA691HFBRUZH7W2I","A1BJFYHXK6YDX1","3T5ZXGO9DEAUILU6S56NLENRQJRQZJ","","","img/flower1.png","75","895.5","2","1","2","1,1,0,0,1,1,1,0,1",""
"null","","html-keyboard-response","225","337877","0.0-225.0","3F6HPJW4JEMBIRLA691HFBRUZH7W2I","A1BJFYHXK6YDX1","3T5ZXGO9DEAUILU6S56NLENRQJRQZJ","","","<img src=""img/flower1.png"" style=""width:200px; border:14px solid green;"">","null","","","","","",""
"696.1000000014901","","image-keyboard-response","226","338574","0.0-226.0","3F6HPJW4JEMBIRLA691HFBRUZH7W2I","A1BJFYHXK6YDX1","3T5ZXGO9DEAUILU6S56NLENRQJRQZJ","","","img/flower3.png","74","697.3999999985099","1","1","3","1,1,0,0,1,1,1,0,1",""
"null","","html-keyboard-response","227","338879","0.0-227.0","3F6HPJW4JEMBIRLA691HFBRUZH7W2I","A1BJFYHXK6YDX1","3T5ZXGO9DEAUILU6S56NLENRQJRQZJ","","","<img src=""img/flower3.png"" style=""width:200px; border:14px solid green;"">","null","","","","","",""
"1323.3999999985099","","image-keyboard-response","228","340204","0.0-228.0","3F6HPJW4JEMBIRLA691HFBRUZH7W2I","A1BJFYHXK6YDX1","3T5ZXGO9DEAUILU6S56NLENRQJRQZJ","","","img/flower5.png","76","1324.7000000029802","3","0","1","1,1,0,0,1,1,1,0,1",""
"null","","html-keyboard-response","229","340518","0.0-229.0","3F6HPJW4JEMBIRLA691HFBRUZH7W2I","A1BJFYHXK6YDX1","3T5ZXGO9DEAUILU6S56NLENRQJRQZJ","","","<img src=""img/flower5.png"" style=""width:200px;border:14px solid red;"">","null","","","","","",""
"624.7000000029802","","image-keyboard-response","230","341144","0.0-230.0","3F6HPJW4JEMBIRLA691HFBRUZH7W2I","A1BJFYHXK6YDX1","3T5ZXGO9DEAUILU6S56NLENRQJRQZJ","","","img/flower3.png","74","625.6999999955297","1","1","3","1,1,0,0,1,1,1,0,1",""
"null","","html-keyboard-response","231","341455","0.0-231.0","3F6HPJW4JEMBIRLA691HFBRUZH7W2I","A1BJFYHXK6YDX1","3T5ZXGO9DEAUILU6S56NLENRQJRQZJ","","","<img src=""img/flower3.png"" style=""width:200px; border:14px solid green;"">","null","","","","","",""
"930.5","","image-keyboard-response","232","342387","0.0-232.0","3F6HPJW4JEMBIRLA691HFBRUZH7W2I","A1BJFYHXK6YDX1","3T5ZXGO9DEAUILU6S56NLENRQJRQZJ","","","img/flower5.png","75","931.8999999985099","2","1","1","1,1,0,0,1,1,1,0,1",""
"null","","html-keyboard-response","233","342690","0.0-233.0","3F6HPJW4JEMBIRLA691HFBRUZH7W2I","A1BJFYHXK6YDX1","3T5ZXGO9DEAUILU6S56NLENRQJRQZJ","","","<img src=""img/flower5.png"" style=""width:200px; border:14px solid green;"">","null","","","","","",""
"730.3999999985099","","image-keyboard-response","234","343421","0.0-234.0","3F6HPJW4JEMBIRLA691HFBRUZH7W2I","A1BJFYHXK6YDX1","3T5ZXGO9DEAUILU6S56NLENRQJRQZJ","","","img/flower1.png","74","731.1999999955297","1","0","2","1,1,0,0,1,1,1,0,1",""
"null","","html-keyboard-response","235","343731","0.0-235.0","3F6HPJW4JEMBIRLA691HFBRUZH7W2I","A1BJFYHXK6YDX1","3T5ZXGO9DEAUILU6S56NLENRQJRQZJ","","","<img src=""img/flower1.png"" style=""width:200px;border:14px solid red;"">","null","","","","","",""
"696.3999999985099","","image-keyboard-response","236","344430","0.0-236.0","3F6HPJW4JEMBIRLA691HFBRUZH7W2I","A1BJFYHXK6YDX1","3T5ZXGO9DEAUILU6S56NLENRQJRQZJ","","","img/flower3.png","74","697.7999999970198","1","1","3","1,1,0,0,1,1,1,0,1",""
"null","","html-keyboard-response","237","344741","0.0-237.0","3F6HPJW4JEMBIRLA691HFBRUZH7W2I","A1BJFYHXK6YDX1","3T5ZXGO9DEAUILU6S56NLENRQJRQZJ","","","<img src=""img/flower3.png"" style=""width:200px; border:14px solid green;"">","null","","","","","",""
"566.2999999970198","","image-keyboard-response","238","345309","0.0-238.0","3F6HPJW4JEMBIRLA691HFBRUZH7W2I","A1BJFYHXK6YDX1","3T5ZXGO9DEAUILU6S56NLENRQJRQZJ","","","img/flower3.png","74","568.5","1","1","3","1,1,0,0,1,1,1,0,1",""
"null","","html-keyboard-response","239","345622","0.0-239.0","3F6HPJW4JEMBIRLA691HFBRUZH7W2I","A1BJFYHXK6YDX1","3T5ZXGO9DEAUILU6S56NLENRQJRQZJ","","","<img src=""img/flower3.png"" style=""width:200px; border:14px solid green;"">","null","","","","","",""
"512.4000000059605","","image-keyboard-response","240","346137","0.0-240.0","3F6HPJW4JEMBIRLA691HFBRUZH7W2I","A1BJFYHXK6YDX1","3T5ZXGO9DEAUILU6S56NLENRQJRQZJ","","","img/flower3.png","74","513.9000000059605","1","1","3","1,1,0,0,1,1,1,0,1",""
"null","","html-keyboard-response","241","346439","0.0-241.0","3F6HPJW4JEMBIRLA691HFBRUZH7W2I","A1BJFYHXK6YDX1","3T5ZXGO9DEAUILU6S56NLENRQJRQZJ","","","<img src=""img/flower3.png"" style=""width:200px; border:14px solid green;"">","null","","","","","",""
"1618.2000000029802","","image-keyboard-response","242","348059","0.0-242.0","3F6HPJW4JEMBIRLA691HFBRUZH7W2I","A1BJFYHXK6YDX1","3T5ZXGO9DEAUILU6S56NLENRQJRQZJ","","","img/flower3.png","74","1619.5999999940395","1","1","3","1,1,0,0,1,1,1,0,1",""
"null","","html-keyboard-response","243","348361","0.0-243.0","3F6HPJW4JEMBIRLA691HFBRUZH7W2I","A1BJFYHXK6YDX1","3T5ZXGO9DEAUILU6S56NLENRQJRQZJ","","","<img src=""img/flower3.png"" style=""width:200px; border:14px solid green;"">","null","","","","","",""
"736.4000000059605","","image-keyboard-response","244","349099","0.0-244.0","3F6HPJW4JEMBIRLA691HFBRUZH7W2I","A1BJFYHXK6YDX1","3T5ZXGO9DEAUILU6S56NLENRQJRQZJ","","","img/flower5.png","75","738","2","1","1","1,1,0,0,1,1,1,0,1",""
"null","","html-keyboard-response","245","349408","0.0-245.0","3F6HPJW4JEMBIRLA691HFBRUZH7W2I","A1BJFYHXK6YDX1","3T5ZXGO9DEAUILU6S56NLENRQJRQZJ","","","<img src=""img/flower5.png"" style=""width:200px; border:14px solid green;"">","null","","","","","",""
"439.3999999985099","","image-keyboard-response","246","349849","0.0-246.0","3F6HPJW4JEMBIRLA691HFBRUZH7W2I","A1BJFYHXK6YDX1","3T5ZXGO9DEAUILU6S56NLENRQJRQZJ","","","img/flower5.png","75","441.3999999985099","2","1","1","1,1,0,0,1,1,1,0,1",""
"null","","html-keyboard-response","247","350167","0.0-247.0","3F6HPJW4JEMBIRLA691HFBRUZH7W2I","A1BJFYHXK6YDX1","3T5ZXGO9DEAUILU6S56NLENRQJRQZJ","","","<img src=""img/flower5.png"" style=""width:200px; border:14px solid green;"">","null","","","","","",""
"2284.2000000029802","","image-keyboard-response","248","352453","0.0-248.0","3F6HPJW4JEMBIRLA691HFBRUZH7W2I","A1BJFYHXK6YDX1","3T5ZXGO9DEAUILU6S56NLENRQJRQZJ","","","img/flower5.png","75","2285.60000000149","2","1","1","1,1,0,0,1,1,1,0,1",""
"null","","html-keyboard-response","249","352760","0.0-249.0","3F6HPJW4JEMBIRLA691HFBRUZH7W2I","A1BJFYHXK6YDX1","3T5ZXGO9DEAUILU6S56NLENRQJRQZJ","","","<img src=""img/flower5.png"" style=""width:200px; border:14px solid green;"">","null","","","","","",""
"976","","image-keyboard-response","250","353738","0.0-250.0","3F6HPJW4JEMBIRLA691HFBRUZH7W2I","A1BJFYHXK6YDX1","3T5ZXGO9DEAUILU6S56NLENRQJRQZJ","","","img/flower5.png","75","978.1000000014901","2","1","1","1,1,0,0,1,1,1,0,1",""
"null","","html-keyboard-response","251","354047","0.0-251.0","3F6HPJW4JEMBIRLA691HFBRUZH7W2I","A1BJFYHXK6YDX1","3T5ZXGO9DEAUILU6S56NLENRQJRQZJ","","","<img src=""img/flower5.png"" style=""width:200px; border:14px solid green;"">","null","","","","","",""
"570.6999999955297","","image-keyboard-response","252","354619","0.0-252.0","3F6HPJW4JEMBIRLA691HFBRUZH7W2I","A1BJFYHXK6YDX1","3T5ZXGO9DEAUILU6S56NLENRQJRQZJ","","","img/flower5.png","75","571.8999999985099","2","1","1","1,1,0,0,1,1,1,0,1",""
"null","","html-keyboard-response","253","354924","0.0-253.0","3F6HPJW4JEMBIRLA691HFBRUZH7W2I","A1BJFYHXK6YDX1","3T5ZXGO9DEAUILU6S56NLENRQJRQZJ","","","<img src=""img/flower5.png"" style=""width:200px; border:14px solid green;"">","null","","","","","",""
"845","","image-keyboard-response","254","355770","0.0-254.0","3F6HPJW4JEMBIRLA691HFBRUZH7W2I","A1BJFYHXK6YDX1","3T5ZXGO9DEAUILU6S56NLENRQJRQZJ","","","img/flower1.png","74","845.8999999985099","1","0","2","1,1,0,0,1,1,1,0,1",""
"null","","html-keyboard-response","255","356080","0.0-255.0","3F6HPJW4JEMBIRLA691HFBRUZH7W2I","A1BJFYHXK6YDX1","3T5ZXGO9DEAUILU6S56NLENRQJRQZJ","","","<img src=""img/flower1.png"" style=""width:200px;border:14px solid red;"">","null","","","","","",""
"728.1000000014901","","image-keyboard-response","256","356810","0.0-256.0","3F6HPJW4JEMBIRLA691HFBRUZH7W2I","A1BJFYHXK6YDX1","3T5ZXGO9DEAUILU6S56NLENRQJRQZJ","","","img/flower3.png","74","729.4000000059605","1","1","3","1,1,0,0,1,1,1,0,1",""
"null","","html-keyboard-response","257","357118","0.0-257.0","3F6HPJW4JEMBIRLA691HFBRUZH7W2I","A1BJFYHXK6YDX1","3T5ZXGO9DEAUILU6S56NLENRQJRQZJ","","","<img src=""img/flower3.png"" style=""width:200px; border:14px solid green;"">","null","","","","","",""
"875.3999999985099","","image-keyboard-response","258","357995","0.0-258.0","3F6HPJW4JEMBIRLA691HFBRUZH7W2I","A1BJFYHXK6YDX1","3T5ZXGO9DEAUILU6S56NLENRQJRQZJ","","","img/flower1.png","76","876.6000000014901","3","1","2","1,1,0,0,1,1,1,0,1",""
"null","","html-keyboard-response","259","358300","0.0-259.0","3F6HPJW4JEMBIRLA691HFBRUZH7W2I","A1BJFYHXK6YDX1","3T5ZXGO9DEAUILU6S56NLENRQJRQZJ","","","<img src=""img/flower1.png"" style=""width:200px; border:14px solid green;"">","null","","","","","",""
"713.2999999970198","","image-keyboard-response","260","359015","0.0-260.0","3F6HPJW4JEMBIRLA691HFBRUZH7W2I","A1BJFYHXK6YDX1","3T5ZXGO9DEAUILU6S56NLENRQJRQZJ","","","img/flower5.png","75","714.7000000029802","2","1","1","1,1,0,0,1,1,1,0,1",""
"null","","html-keyboard-response","261","359325","0.0-261.0","3F6HPJW4JEMBIRLA691HFBRUZH7W2I","A1BJFYHXK6YDX1","3T5ZXGO9DEAUILU6S56NLENRQJRQZJ","","","<img src=""img/flower5.png"" style=""width:200px; border:14px solid green;"">","null","","","","","",""
"599.5","","image-keyboard-response","262","359927","0.0-262.0","3F6HPJW4JEMBIRLA691HFBRUZH7W2I","A1BJFYHXK6YDX1","3T5ZXGO9DEAUILU6S56NLENRQJRQZJ","","","img/flower1.png","76","602.5","3","1","2","1,1,0,0,1,1,1,0,1",""
"null","","html-keyboard-response","263","360230","0.0-263.0","3F6HPJW4JEMBIRLA691HFBRUZH7W2I","A1BJFYHXK6YDX1","3T5ZXGO9DEAUILU6S56NLENRQJRQZJ","","","<img src=""img/flower1.png"" style=""width:200px; border:14px solid green;"">","null","","","","","",""
"627.6000000014901","","image-keyboard-response","264","360859","0.0-264.0","3F6HPJW4JEMBIRLA691HFBRUZH7W2I","A1BJFYHXK6YDX1","3T5ZXGO9DEAUILU6S56NLENRQJRQZJ","","","img/flower3.png","74","628.9000000059605","1","1","3","1,1,0,0,1,1,1,0,1",""
"null","","html-keyboard-response","265","361177","0.0-265.0","3F6HPJW4JEMBIRLA691HFBRUZH7W2I","A1BJFYHXK6YDX1","3T5ZXGO9DEAUILU6S56NLENRQJRQZJ","","","<img src=""img/flower3.png"" style=""width:200px; border:14px solid green;"">","null","","","","","",""
"425.6000000014901","","image-keyboard-response","266","361605","0.0-266.0","3F6HPJW4JEMBIRLA691HFBRUZH7W2I","A1BJFYHXK6YDX1","3T5ZXGO9DEAUILU6S56NLENRQJRQZJ","","","img/flower3.png","74","427.29999999701977","1","1","3","1,1,0,0,1,1,1,0,1",""
"null","","html-keyboard-response","267","361913","0.0-267.0","3F6HPJW4JEMBIRLA691HFBRUZH7W2I","A1BJFYHXK6YDX1","3T5ZXGO9DEAUILU6S56NLENRQJRQZJ","","","<img src=""img/flower3.png"" style=""width:200px; border:14px solid green;"">","null","","","","","",""
"649.8999999985099","","image-keyboard-response","268","362565","0.0-268.0","3F6HPJW4JEMBIRLA691HFBRUZH7W2I","A1BJFYHXK6YDX1","3T5ZXGO9DEAUILU6S56NLENRQJRQZJ","","","img/flower5.png","75","651.3999999985099","2","1","1","1,1,0,0,1,1,1,0,1",""
"null","","html-keyboard-response","269","362873","0.0-269.0","3F6HPJW4JEMBIRLA691HFBRUZH7W2I","A1BJFYHXK6YDX1","3T5ZXGO9DEAUILU6S56NLENRQJRQZJ","","","<img src=""img/flower5.png"" style=""width:200px; border:14px solid green;"">","null","","","","","",""
"958.3000000044703","","image-keyboard-response","270","363833","0.0-270.0","3F6HPJW4JEMBIRLA691HFBRUZH7W2I","A1BJFYHXK6YDX1","3T5ZXGO9DEAUILU6S56NLENRQJRQZJ","","","img/flower3.png","74","959.5","1","1","3","1,1,0,0,1,1,1,0,1",""
"null","","html-keyboard-response","271","364136","0.0-271.0","3F6HPJW4JEMBIRLA691HFBRUZH7W2I","A1BJFYHXK6YDX1","3T5ZXGO9DEAUILU6S56NLENRQJRQZJ","","","<img src=""img/flower3.png"" style=""width:200px; border:14px solid green;"">","null","","","","","",""
"1314.6999999955297","","image-keyboard-response","272","365452","0.0-272.0","3F6HPJW4JEMBIRLA691HFBRUZH7W2I","A1BJFYHXK6YDX1","3T5ZXGO9DEAUILU6S56NLENRQJRQZJ","","","img/flower1.png","75","1315.7000000029802","2","1","2","1,1,0,0,1,1,1,0,1",""
"null","","html-keyboard-response","273","365760","0.0-273.0","3F6HPJW4JEMBIRLA691HFBRUZH7W2I","A1BJFYHXK6YDX1","3T5ZXGO9DEAUILU6S56NLENRQJRQZJ","","","<img src=""img/flower1.png"" style=""width:200px; border:14px solid green;"">","null","","","","","",""
"1709.6000000014901","","image-keyboard-response","274","367471","0.0-274.0","3F6HPJW4JEMBIRLA691HFBRUZH7W2I","A1BJFYHXK6YDX1","3T5ZXGO9DEAUILU6S56NLENRQJRQZJ","","","img/flower5.png","76","1710.5","3","0","1","1,1,0,0,1,1,1,0,1",""
"null","","html-keyboard-response","275","367788","0.0-275.0","3F6HPJW4JEMBIRLA691HFBRUZH7W2I","A1BJFYHXK6YDX1","3T5ZXGO9DEAUILU6S56NLENRQJRQZJ","","","<img src=""img/flower5.png"" style=""width:200px;border:14px solid red;"">","null","","","","","",""
"535.2999999970198","","image-keyboard-response","276","368325","0.0-276.0","3F6HPJW4JEMBIRLA691HFBRUZH7W2I","A1BJFYHXK6YDX1","3T5ZXGO9DEAUILU6S56NLENRQJRQZJ","","","img/flower5.png","74","536.5","1","1","1","1,1,0,0,1,1,1,0,1",""
"null","","html-keyboard-response","277","368633","0.0-277.0","3F6HPJW4JEMBIRLA691HFBRUZH7W2I","A1BJFYHXK6YDX1","3T5ZXGO9DEAUILU6S56NLENRQJRQZJ","","","<img src=""img/flower5.png"" style=""width:200px; border:14px solid green;"">","null","","","","","",""
"427.5","","image-keyboard-response","278","369062","0.0-278.0","3F6HPJW4JEMBIRLA691HFBRUZH7W2I","A1BJFYHXK6YDX1","3T5ZXGO9DEAUILU6S56NLENRQJRQZJ","","","img/flower5.png","74","428.59999999403954","1","1","1","1,1,0,0,1,1,1,0,1",""
"null","","html-keyboard-response","279","369370","0.0-279.0","3F6HPJW4JEMBIRLA691HFBRUZH7W2I","A1BJFYHXK6YDX1","3T5ZXGO9DEAUILU6S56NLENRQJRQZJ","","","<img src=""img/flower5.png"" style=""width:200px; border:14px solid green;"">","null","","","","","",""
"703.3999999985099","","image-keyboard-response","280","370075","0.0-280.0","3F6HPJW4JEMBIRLA691HFBRUZH7W2I","A1BJFYHXK6YDX1","3T5ZXGO9DEAUILU6S56NLENRQJRQZJ","","","img/flower3.png","74","704.4000000059605","1","1","3","1,1,0,0,1,1,1,0,1",""
"null","","html-keyboard-response","281","370382","0.0-281.0","3F6HPJW4JEMBIRLA691HFBRUZH7W2I","A1BJFYHXK6YDX1","3T5ZXGO9DEAUILU6S56NLENRQJRQZJ","","","<img src=""img/flower3.png"" style=""width:200px; border:14px solid green;"">","null","","","","","",""
"1135.1000000014901","","image-keyboard-response","282","371518","0.0-282.0","3F6HPJW4JEMBIRLA691HFBRUZH7W2I","A1BJFYHXK6YDX1","3T5ZXGO9DEAUILU6S56NLENRQJRQZJ","","","img/flower1.png","76","1136.7000000029802","3","1","2","1,1,0,0,1,1,1,0,1",""
"null","","html-keyboard-response","283","371825","0.0-283.0","3F6HPJW4JEMBIRLA691HFBRUZH7W2I","A1BJFYHXK6YDX1","3T5ZXGO9DEAUILU6S56NLENRQJRQZJ","","","<img src=""img/flower1.png"" style=""width:200px; border:14px solid green;"">","null","","","","","",""
"406","","image-keyboard-response","284","372233","0.0-284.0","3F6HPJW4JEMBIRLA691HFBRUZH7W2I","A1BJFYHXK6YDX1","3T5ZXGO9DEAUILU6S56NLENRQJRQZJ","","","img/flower1.png","76","407.19999999552965","3","1","2","1,1,0,0,1,1,1,0,1",""
"null","","html-keyboard-response","285","372540","0.0-285.0","3F6HPJW4JEMBIRLA691HFBRUZH7W2I","A1BJFYHXK6YDX1","3T5ZXGO9DEAUILU6S56NLENRQJRQZJ","","","<img src=""img/flower1.png"" style=""width:200px; border:14px solid green;"">","null","","","","","",""
"799.1000000014901","","image-keyboard-response","286","373340","0.0-286.0","3F6HPJW4JEMBIRLA691HFBRUZH7W2I","A1BJFYHXK6YDX1","3T5ZXGO9DEAUILU6S56NLENRQJRQZJ","","","img/flower5.png","75","800.2999999970198","2","1","1","1,1,0,0,1,1,1,0,1",""
"null","","html-keyboard-response","287","373644","0.0-287.0","3F6HPJW4JEMBIRLA691HFBRUZH7W2I","A1BJFYHXK6YDX1","3T5ZXGO9DEAUILU6S56NLENRQJRQZJ","","","<img src=""img/flower5.png"" style=""width:200px; border:14px solid green;"">","null","","","","","",""
"702.1000000014901","","image-keyboard-response","288","374347","0.0-288.0","3F6HPJW4JEMBIRLA691HFBRUZH7W2I","A1BJFYHXK6YDX1","3T5ZXGO9DEAUILU6S56NLENRQJRQZJ","","","img/flower1.png","76","703","3","1","2","1,1,0,0,1,1,1,0,1",""
"null","","html-keyboard-response","289","374651","0.0-289.0","3F6HPJW4JEMBIRLA691HFBRUZH7W2I","A1BJFYHXK6YDX1","3T5ZXGO9DEAUILU6S56NLENRQJRQZJ","","","<img src=""img/flower1.png"" style=""width:200px; border:14px solid green;"">","null","","","","","",""
"383.1000000014901","","image-keyboard-response","290","375035","0.0-290.0","3F6HPJW4JEMBIRLA691HFBRUZH7W2I","A1BJFYHXK6YDX1","3T5ZXGO9DEAUILU6S56NLENRQJRQZJ","","","img/flower1.png","76","384.30000000447035","3","1","2","1,1,0,0,1,1,1,0,1",""
"null","","html-keyboard-response","291","375341","0.0-291.0","3F6HPJW4JEMBIRLA691HFBRUZH7W2I","A1BJFYHXK6YDX1","3T5ZXGO9DEAUILU6S56NLENRQJRQZJ","","","<img src=""img/flower1.png"" style=""width:200px; border:14px solid green;"">","null","","","","","",""
"400.70000000298023","","image-keyboard-response","292","375743","0.0-292.0","3F6HPJW4JEMBIRLA691HFBRUZH7W2I","A1BJFYHXK6YDX1","3T5ZXGO9DEAUILU6S56NLENRQJRQZJ","","","img/flower1.png","76","402.09999999403954","3","1","2","1,1,0,0,1,1,1,0,1",""
"null","","html-keyboard-response","293","376046","0.0-293.0","3F6HPJW4JEMBIRLA691HFBRUZH7W2I","A1BJFYHXK6YDX1","3T5ZXGO9DEAUILU6S56NLENRQJRQZJ","","","<img src=""img/flower1.png"" style=""width:200px; border:14px solid green;"">","null","","","","","",""
"610.3999999985099","","image-keyboard-response","294","376658","0.0-294.0","3F6HPJW4JEMBIRLA691HFBRUZH7W2I","A1BJFYHXK6YDX1","3T5ZXGO9DEAUILU6S56NLENRQJRQZJ","","","img/flower5.png","75","611.7000000029802","2","1","1","1,1,0,0,1,1,1,0,1",""
"null","","html-keyboard-response","295","376962","0.0-295.0","3F6HPJW4JEMBIRLA691HFBRUZH7W2I","A1BJFYHXK6YDX1","3T5ZXGO9DEAUILU6S56NLENRQJRQZJ","","","<img src=""img/flower5.png"" style=""width:200px; border:14px solid green;"">","null","","","","","",""
"451.40000000596046","","image-keyboard-response","296","377414","0.0-296.0","3F6HPJW4JEMBIRLA691HFBRUZH7W2I","A1BJFYHXK6YDX1","3T5ZXGO9DEAUILU6S56NLENRQJRQZJ","","","img/flower5.png","75","452.3999999985099","2","1","1","1,1,0,0,1,1,1,0,1",""
"null","","html-keyboard-response","297","377727","0.0-297.0","3F6HPJW4JEMBIRLA691HFBRUZH7W2I","A1BJFYHXK6YDX1","3T5ZXGO9DEAUILU6S56NLENRQJRQZJ","","","<img src=""img/flower5.png"" style=""width:200px; border:14px solid green;"">","null","","","","","",""
"678.1000000014901","","image-keyboard-response","298","378406","0.0-298.0","3F6HPJW4JEMBIRLA691HFBRUZH7W2I","A1BJFYHXK6YDX1","3T5ZXGO9DEAUILU6S56NLENRQJRQZJ","","","img/flower3.png","74","679","1","1","3","1,1,0,0,1,1,1,0,1",""
"null","","html-keyboard-response","299","378715","0.0-299.0","3F6HPJW4JEMBIRLA691HFBRUZH7W2I","A1BJFYHXK6YDX1","3T5ZXGO9DEAUILU6S56NLENRQJRQZJ","","","<img src=""img/flower3.png"" style=""width:200px; border:14px solid green;"">","null","","","","","",""
"836.2000000029802","","image-keyboard-response","300","379553","0.0-300.0","3F6HPJW4JEMBIRLA691HFBRUZH7W2I","A1BJFYHXK6YDX1","3T5ZXGO9DEAUILU6S56NLENRQJRQZJ","","","img/flower5.png","75","837.2999999970198","2","1","1","1,1,0,0,1,1,1,0,1",""
"null","","html-keyboard-response","301","379862","0.0-301.0","3F6HPJW4JEMBIRLA691HFBRUZH7W2I","A1BJFYHXK6YDX1","3T5ZXGO9DEAUILU6S56NLENRQJRQZJ","","","<img src=""img/flower5.png"" style=""width:200px; border:14px solid green;"">","null","","","","","",""
"981.1999999955297","","image-keyboard-response","302","380845","0.0-302.0","3F6HPJW4JEMBIRLA691HFBRUZH7W2I","A1BJFYHXK6YDX1","3T5ZXGO9DEAUILU6S56NLENRQJRQZJ","","","img/flower1.png","76","982.3999999985099","3","1","2","1,1,0,0,1,1,1,0,1",""
"null","","html-keyboard-response","303","381150","0.0-303.0","3F6HPJW4JEMBIRLA691HFBRUZH7W2I","A1BJFYHXK6YDX1","3T5ZXGO9DEAUILU6S56NLENRQJRQZJ","","","<img src=""img/flower1.png"" style=""width:200px; border:14px solid green;"">","null","","","","","",""
"701.7000000029802","","image-keyboard-response","304","381853","0.0-304.0","3F6HPJW4JEMBIRLA691HFBRUZH7W2I","A1BJFYHXK6YDX1","3T5ZXGO9DEAUILU6S56NLENRQJRQZJ","","","img/flower3.png","74","702.8000000044703","1","1","3","1,1,0,0,1,1,1,0,1",""
"null","","html-keyboard-response","305","382160","0.0-305.0","3F6HPJW4JEMBIRLA691HFBRUZH7W2I","A1BJFYHXK6YDX1","3T5ZXGO9DEAUILU6S56NLENRQJRQZJ","","","<img src=""img/flower3.png"" style=""width:200px; border:14px solid green;"">","null","","","","","",""
"","","html-keyboard-response","306","385910","0.0-306.0","3F6HPJW4JEMBIRLA691HFBRUZH7W2I","A1BJFYHXK6YDX1","3T5ZXGO9DEAUILU6S56NLENRQJRQZJ","","","","","","","","","",""
"1457.5","","image-keyboard-response","307","387368","0.0-307.0","3F6HPJW4JEMBIRLA691HFBRUZH7W2I","A1BJFYHXK6YDX1","3T5ZXGO9DEAUILU6S56NLENRQJRQZJ","","","img/flower6.png","76","1458.3000000044703","3","0","1","1,0.5,0.5,0.5,1,0.5,0.5,0.5,1",""
"null","","html-keyboard-response","308","387671","0.0-308.0","3F6HPJW4JEMBIRLA691HFBRUZH7W2I","A1BJFYHXK6YDX1","3T5ZXGO9DEAUILU6S56NLENRQJRQZJ","","","<img src=""img/flower6.png"" style=""width:200px;border:14px solid red;"">","null","","","","","",""
"462.8999999985099","","image-keyboard-response","309","388135","0.0-309.0","3F6HPJW4JEMBIRLA691HFBRUZH7W2I","A1BJFYHXK6YDX1","3T5ZXGO9DEAUILU6S56NLENRQJRQZJ","","","img/flower6.png","75","464.20000000298023","2","1","1","1,0.5,0.5,0.5,1,0.5,0.5,0.5,1",""
"null","","html-keyboard-response","310","388441","0.0-310.0","3F6HPJW4JEMBIRLA691HFBRUZH7W2I","A1BJFYHXK6YDX1","3T5ZXGO9DEAUILU6S56NLENRQJRQZJ","","","<img src=""img/flower6.png"" style=""width:200px; border:14px solid green;"">","null","","","","","",""
"783.7000000029802","","image-keyboard-response","311","389227","0.0-311.0","3F6HPJW4JEMBIRLA691HFBRUZH7W2I","A1BJFYHXK6YDX1","3T5ZXGO9DEAUILU6S56NLENRQJRQZJ","","","img/flower4.png","74","786.1000000014901","1","1","2","1,0.5,0.5,0.5,1,0.5,0.5,0.5,1",""
"null","","html-keyboard-response","312","389531","0.0-312.0","3F6HPJW4JEMBIRLA691HFBRUZH7W2I","A1BJFYHXK6YDX1","3T5ZXGO9DEAUILU6S56NLENRQJRQZJ","","","<img src=""img/flower4.png"" style=""width:200px; border:14px solid green;"">","null","","","","","",""
"1438.6000000014901","","image-keyboard-response","313","390971","0.0-313.0","3F6HPJW4JEMBIRLA691HFBRUZH7W2I","A1BJFYHXK6YDX1","3T5ZXGO9DEAUILU6S56NLENRQJRQZJ","","","img/flower2.png","76","1439.7999999970198","3","1","3","1,0.5,0.5,0.5,1,0.5,0.5,0.5,1",""
"null","","html-keyboard-response","314","391274","0.0-314.0","3F6HPJW4JEMBIRLA691HFBRUZH7W2I","A1BJFYHXK6YDX1","3T5ZXGO9DEAUILU6S56NLENRQJRQZJ","","","<img src=""img/flower2.png"" style=""width:200px; border:14px solid green;"">","null","","","","","",""
"378.6000000014901","","image-keyboard-response","315","391654","0.0-315.0","3F6HPJW4JEMBIRLA691HFBRUZH7W2I","A1BJFYHXK6YDX1","3T5ZXGO9DEAUILU6S56NLENRQJRQZJ","","","img/flower2.png","76","379.79999999701977","3","1","3","1,0.5,0.5,0.5,1,0.5,0.5,0.5,1",""
"null","","html-keyboard-response","316","391961","0.0-316.0","3F6HPJW4JEMBIRLA691HFBRUZH7W2I","A1BJFYHXK6YDX1","3T5ZXGO9DEAUILU6S56NLENRQJRQZJ","","","<img src=""img/flower2.png"" style=""width:200px; border:14px solid green;"">","null","","","","","",""
"403.1000000014901","","image-keyboard-response","317","392366","0.0-317.0","3F6HPJW4JEMBIRLA691HFBRUZH7W2I","A1BJFYHXK6YDX1","3T5ZXGO9DEAUILU6S56NLENRQJRQZJ","","","img/flower2.png","76","404.69999999552965","3","1","3","1,0.5,0.5,0.5,1,0.5,0.5,0.5,1",""
"null","","html-keyboard-response","318","392681","0.0-318.0","3F6HPJW4JEMBIRLA691HFBRUZH7W2I","A1BJFYHXK6YDX1","3T5ZXGO9DEAUILU6S56NLENRQJRQZJ","","","<img src=""img/flower2.png"" style=""width:200px; border:14px solid green;"">","null","","","","","",""
"350.19999999552965","","image-keyboard-response","319","393033","0.0-319.0","3F6HPJW4JEMBIRLA691HFBRUZH7W2I","A1BJFYHXK6YDX1","3T5ZXGO9DEAUILU6S56NLENRQJRQZJ","","","img/flower2.png","76","351.5","3","1","3","1,0.5,0.5,0.5,1,0.5,0.5,0.5,1",""
"null","","html-keyboard-response","320","393342","0.0-320.0","3F6HPJW4JEMBIRLA691HFBRUZH7W2I","A1BJFYHXK6YDX1","3T5ZXGO9DEAUILU6S56NLENRQJRQZJ","","","<img src=""img/flower2.png"" style=""width:200px; border:14px solid green;"">","null","","","","","",""
"513.6000000014901","","image-keyboard-response","321","393857","0.0-321.0","3F6HPJW4JEMBIRLA691HFBRUZH7W2I","A1BJFYHXK6YDX1","3T5ZXGO9DEAUILU6S56NLENRQJRQZJ","","","img/flower6.png","75","515.1000000014901","2","1","1","1,0.5,0.5,0.5,1,0.5,0.5,0.5,1",""
"null","","html-keyboard-response","322","394168","0.0-322.0","3F6HPJW4JEMBIRLA691HFBRUZH7W2I","A1BJFYHXK6YDX1","3T5ZXGO9DEAUILU6S56NLENRQJRQZJ","","","<img src=""img/flower6.png"" style=""width:200px; border:14px solid green;"">","null","","","","","",""
"572","","image-keyboard-response","323","394741","0.0-323.0","3F6HPJW4JEMBIRLA691HFBRUZH7W2I","A1BJFYHXK6YDX1","3T5ZXGO9DEAUILU6S56NLENRQJRQZJ","","","img/flower4.png","74","573","1","0","2","1,0.5,0.5,0.5,1,0.5,0.5,0.5,1",""
"null","","html-keyboard-response","324","395044","0.0-324.0","3F6HPJW4JEMBIRLA691HFBRUZH7W2I","A1BJFYHXK6YDX1","3T5ZXGO9DEAUILU6S56NLENRQJRQZJ","","","<img src=""img/flower4.png"" style=""width:200px;border:14px solid red;"">","null","","","","","",""
"1070","","image-keyboard-response","325","396116","0.0-325.0","3F6HPJW4JEMBIRLA691HFBRUZH7W2I","A1BJFYHXK6YDX1","3T5ZXGO9DEAUILU6S56NLENRQJRQZJ","","","img/flower6.png","75","1071.2999999970198","2","1","1","1,0.5,0.5,0.5,1,0.5,0.5,0.5,1",""
"null","","html-keyboard-response","326","396418","0.0-326.0","3F6HPJW4JEMBIRLA691HFBRUZH7W2I","A1BJFYHXK6YDX1","3T5ZXGO9DEAUILU6S56NLENRQJRQZJ","","","<img src=""img/flower6.png"" style=""width:200px; border:14px solid green;"">","null","","","","","",""
"430.6000000014901","","image-keyboard-response","327","396850","0.0-327.0","3F6HPJW4JEMBIRLA691HFBRUZH7W2I","A1BJFYHXK6YDX1","3T5ZXGO9DEAUILU6S56NLENRQJRQZJ","","","img/flower6.png","75","431.70000000298023","2","1","1","1,0.5,0.5,0.5,1,0.5,0.5,0.5,1",""
"null","","html-keyboard-response","328","397153","0.0-328.0","3F6HPJW4JEMBIRLA691HFBRUZH7W2I","A1BJFYHXK6YDX1","3T5ZXGO9DEAUILU6S56NLENRQJRQZJ","","","<img src=""img/flower6.png"" style=""width:200px; border:14px solid green;"">","null","","","","","",""
"752.8999999985099","","image-keyboard-response","329","397907","0.0-329.0","3F6HPJW4JEMBIRLA691HFBRUZH7W2I","A1BJFYHXK6YDX1","3T5ZXGO9DEAUILU6S56NLENRQJRQZJ","","","img/flower4.png","74","754.2000000029802","1","1","2","1,0.5,0.5,0.5,1,0.5,0.5,0.5,1",""
"null","","html-keyboard-response","330","398213","0.0-330.0","3F6HPJW4JEMBIRLA691HFBRUZH7W2I","A1BJFYHXK6YDX1","3T5ZXGO9DEAUILU6S56NLENRQJRQZJ","","","<img src=""img/flower4.png"" style=""width:200px; border:14px solid green;"">","null","","","","","",""
"674.8999999985099","","image-keyboard-response","331","398889","0.0-331.0","3F6HPJW4JEMBIRLA691HFBRUZH7W2I","A1BJFYHXK6YDX1","3T5ZXGO9DEAUILU6S56NLENRQJRQZJ","","","img/flower6.png","75","676","2","1","1","1,0.5,0.5,0.5,1,0.5,0.5,0.5,1",""
"null","","html-keyboard-response","332","399193","0.0-332.0","3F6HPJW4JEMBIRLA691HFBRUZH7W2I","A1BJFYHXK6YDX1","3T5ZXGO9DEAUILU6S56NLENRQJRQZJ","","","<img src=""img/flower6.png"" style=""width:200px; border:14px solid green;"">","null","","","","","",""
"593.3000000044703","","image-keyboard-response","333","399788","0.0-333.0","3F6HPJW4JEMBIRLA691HFBRUZH7W2I","A1BJFYHXK6YDX1","3T5ZXGO9DEAUILU6S56NLENRQJRQZJ","","","img/flower4.png","74","594.6000000014901","1","1","2","1,0.5,0.5,0.5,1,0.5,0.5,0.5,1",""
"null","","html-keyboard-response","334","400101","0.0-334.0","3F6HPJW4JEMBIRLA691HFBRUZH7W2I","A1BJFYHXK6YDX1","3T5ZXGO9DEAUILU6S56NLENRQJRQZJ","","","<img src=""img/flower4.png"" style=""width:200px; border:14px solid green;"">","null","","","","","",""
"947.5","","image-keyboard-response","335","401050","0.0-335.0","3F6HPJW4JEMBIRLA691HFBRUZH7W2I","A1BJFYHXK6YDX1","3T5ZXGO9DEAUILU6S56NLENRQJRQZJ","","","img/flower2.png","76","948.7999999970198","3","1","3","1,0.5,0.5,0.5,1,0.5,0.5,0.5,1",""
"null","","html-keyboard-response","336","401353","0.0-336.0","3F6HPJW4JEMBIRLA691HFBRUZH7W2I","A1BJFYHXK6YDX1","3T5ZXGO9DEAUILU6S56NLENRQJRQZJ","","","<img src=""img/flower2.png"" style=""width:200px; border:14px solid green;"">","null","","","","","",""
"439.3999999985099","","image-keyboard-response","337","401794","0.0-337.0","3F6HPJW4JEMBIRLA691HFBRUZH7W2I","A1BJFYHXK6YDX1","3T5ZXGO9DEAUILU6S56NLENRQJRQZJ","","","img/flower2.png","76","440.70000000298023","3","1","3","1,0.5,0.5,0.5,1,0.5,0.5,0.5,1",""
"null","","html-keyboard-response","338","402098","0.0-338.0","3F6HPJW4JEMBIRLA691HFBRUZH7W2I","A1BJFYHXK6YDX1","3T5ZXGO9DEAUILU6S56NLENRQJRQZJ","","","<img src=""img/flower2.png"" style=""width:200px; border:14px solid green;"">","null","","","","","",""
"430.5","","image-keyboard-response","339","402530","0.0-339.0","3F6HPJW4JEMBIRLA691HFBRUZH7W2I","A1BJFYHXK6YDX1","3T5ZXGO9DEAUILU6S56NLENRQJRQZJ","","","img/flower2.png","76","432.20000000298023","3","1","3","1,0.5,0.5,0.5,1,0.5,0.5,0.5,1",""
"null","","html-keyboard-response","340","402835","0.0-340.0","3F6HPJW4JEMBIRLA691HFBRUZH7W2I","A1BJFYHXK6YDX1","3T5ZXGO9DEAUILU6S56NLENRQJRQZJ","","","<img src=""img/flower2.png"" style=""width:200px; border:14px solid green;"">","null","","","","","",""
"777.1000000014901","","image-keyboard-response","341","403613","0.0-341.0","3F6HPJW4JEMBIRLA691HFBRUZH7W2I","A1BJFYHXK6YDX1","3T5ZXGO9DEAUILU6S56NLENRQJRQZJ","","","img/flower4.png","74","778.3000000044703","1","0","2","1,0.5,0.5,0.5,1,0.5,0.5,0.5,1",""
"null","","html-keyboard-response","342","403926","0.0-342.0","3F6HPJW4JEMBIRLA691HFBRUZH7W2I","A1BJFYHXK6YDX1","3T5ZXGO9DEAUILU6S56NLENRQJRQZJ","","","<img src=""img/flower4.png"" style=""width:200px;border:14px solid red;"">","null","","","","","",""
"597.8999999985099","","image-keyboard-response","343","404525","0.0-343.0","3F6HPJW4JEMBIRLA691HFBRUZH7W2I","A1BJFYHXK6YDX1","3T5ZXGO9DEAUILU6S56NLENRQJRQZJ","","","img/flower2.png","75","599","2","1","3","1,0.5,0.5,0.5,1,0.5,0.5,0.5,1",""
"null","","html-keyboard-response","344","404834","0.0-344.0","3F6HPJW4JEMBIRLA691HFBRUZH7W2I","A1BJFYHXK6YDX1","3T5ZXGO9DEAUILU6S56NLENRQJRQZJ","","","<img src=""img/flower2.png"" style=""width:200px; border:14px solid green;"">","null","","","","","",""
"716.2999999970198","","image-keyboard-response","345","405552","0.0-345.0","3F6HPJW4JEMBIRLA691HFBRUZH7W2I","A1BJFYHXK6YDX1","3T5ZXGO9DEAUILU6S56NLENRQJRQZJ","","","img/flower4.png","74","717.5","1","1","2","1,0.5,0.5,0.5,1,0.5,0.5,0.5,1",""
"null","","html-keyboard-response","346","405855","0.0-346.0","3F6HPJW4JEMBIRLA691HFBRUZH7W2I","A1BJFYHXK6YDX1","3T5ZXGO9DEAUILU6S56NLENRQJRQZJ","","","<img src=""img/flower4.png"" style=""width:200px; border:14px solid green;"">","null","","","","","",""
"638.1999999955297","","image-keyboard-response","347","406494","0.0-347.0","3F6HPJW4JEMBIRLA691HFBRUZH7W2I","A1BJFYHXK6YDX1","3T5ZXGO9DEAUILU6S56NLENRQJRQZJ","","","img/flower2.png","75","639.2999999970198","2","1","3","1,0.5,0.5,0.5,1,0.5,0.5,0.5,1",""
"null","","html-keyboard-response","348","406805","0.0-348.0","3F6HPJW4JEMBIRLA691HFBRUZH7W2I","A1BJFYHXK6YDX1","3T5ZXGO9DEAUILU6S56NLENRQJRQZJ","","","<img src=""img/flower2.png"" style=""width:200px; border:14px solid green;"">","null","","","","","",""
"517.5","","image-keyboard-response","349","407324","0.0-349.0","3F6HPJW4JEMBIRLA691HFBRUZH7W2I","A1BJFYHXK6YDX1","3T5ZXGO9DEAUILU6S56NLENRQJRQZJ","","","img/flower2.png","75","519.0999999940395","2","1","3","1,0.5,0.5,0.5,1,0.5,0.5,0.5,1",""
"null","","html-keyboard-response","350","407631","0.0-350.0","3F6HPJW4JEMBIRLA691HFBRUZH7W2I","A1BJFYHXK6YDX1","3T5ZXGO9DEAUILU6S56NLENRQJRQZJ","","","<img src=""img/flower2.png"" style=""width:200px; border:14px solid green;"">","null","","","","","",""
"475.30000000447035","","image-keyboard-response","351","408107","0.0-351.0","3F6HPJW4JEMBIRLA691HFBRUZH7W2I","A1BJFYHXK6YDX1","3T5ZXGO9DEAUILU6S56NLENRQJRQZJ","","","img/flower2.png","75","476.5","2","0","3","1,0.5,0.5,0.5,1,0.5,0.5,0.5,1",""
"null","","html-keyboard-response","352","408413","0.0-352.0","3F6HPJW4JEMBIRLA691HFBRUZH7W2I","A1BJFYHXK6YDX1","3T5ZXGO9DEAUILU6S56NLENRQJRQZJ","","","<img src=""img/flower2.png"" style=""width:200px;border:14px solid red;"">","null","","","","","",""
"874.5","","image-keyboard-response","353","409290","0.0-353.0","3F6HPJW4JEMBIRLA691HFBRUZH7W2I","A1BJFYHXK6YDX1","3T5ZXGO9DEAUILU6S56NLENRQJRQZJ","","","img/flower6.png","76","875.9000000059605","3","0","1","1,0.5,0.5,0.5,1,0.5,0.5,0.5,1",""
"null","","html-keyboard-response","354","409598","0.0-354.0","3F6HPJW4JEMBIRLA691HFBRUZH7W2I","A1BJFYHXK6YDX1","3T5ZXGO9DEAUILU6S56NLENRQJRQZJ","","","<img src=""img/flower6.png"" style=""width:200px;border:14px solid red;"">","null","","","","","",""
"696.3000000044703","","image-keyboard-response","355","410296","0.0-355.0","3F6HPJW4JEMBIRLA691HFBRUZH7W2I","A1BJFYHXK6YDX1","3T5ZXGO9DEAUILU6S56NLENRQJRQZJ","","","img/flower4.png","76","697.7000000029802","3","1","2","1,0.5,0.5,0.5,1,0.5,0.5,0.5,1",""
"null","","html-keyboard-response","356","410606","0.0-356.0","3F6HPJW4JEMBIRLA691HFBRUZH7W2I","A1BJFYHXK6YDX1","3T5ZXGO9DEAUILU6S56NLENRQJRQZJ","","","<img src=""img/flower4.png"" style=""width:200px; border:14px solid green;"">","null","","","","","",""
"873.7000000029802","","image-keyboard-response","357","411480","0.0-357.0","3F6HPJW4JEMBIRLA691HFBRUZH7W2I","A1BJFYHXK6YDX1","3T5ZXGO9DEAUILU6S56NLENRQJRQZJ","","","img/flower4.png","76","874.7000000029802","3","0","2","1,0.5,0.5,0.5,1,0.5,0.5,0.5,1",""
"null","","html-keyboard-response","358","411789","0.0-358.0","3F6HPJW4JEMBIRLA691HFBRUZH7W2I","A1BJFYHXK6YDX1","3T5ZXGO9DEAUILU6S56NLENRQJRQZJ","","","<img src=""img/flower4.png"" style=""width:200px;border:14px solid red;"">","null","","","","","",""
"686.2999999970198","","image-keyboard-response","359","412476","0.0-359.0","3F6HPJW4JEMBIRLA691HFBRUZH7W2I","A1BJFYHXK6YDX1","3T5ZXGO9DEAUILU6S56NLENRQJRQZJ","","","img/flower6.png","75","687.5","2","1","1","1,0.5,0.5,0.5,1,0.5,0.5,0.5,1",""
"null","","html-keyboard-response","360","412780","0.0-360.0","3F6HPJW4JEMBIRLA691HFBRUZH7W2I","A1BJFYHXK6YDX1","3T5ZXGO9DEAUILU6S56NLENRQJRQZJ","","","<img src=""img/flower6.png"" style=""width:200px; border:14px solid green;"">","null","","","","","",""
"829.3000000044703","","image-keyboard-response","361","413611","0.0-361.0","3F6HPJW4JEMBIRLA691HFBRUZH7W2I","A1BJFYHXK6YDX1","3T5ZXGO9DEAUILU6S56NLENRQJRQZJ","","","img/flower2.png","74","830.6000000014901","1","1","3","1,0.5,0.5,0.5,1,0.5,0.5,0.5,1",""
"null","","html-keyboard-response","362","413919","0.0-362.0","3F6HPJW4JEMBIRLA691HFBRUZH7W2I","A1BJFYHXK6YDX1","3T5ZXGO9DEAUILU6S56NLENRQJRQZJ","","","<img src=""img/flower2.png"" style=""width:200px; border:14px solid green;"">","null","","","","","",""
"678.5","","image-keyboard-response","363","414599","0.0-363.0","3F6HPJW4JEMBIRLA691HFBRUZH7W2I","A1BJFYHXK6YDX1","3T5ZXGO9DEAUILU6S56NLENRQJRQZJ","","","img/flower4.png","75","679.7000000029802","2","1","2","1,0.5,0.5,0.5,1,0.5,0.5,0.5,1",""
"null","","html-keyboard-response","364","414909","0.0-364.0","3F6HPJW4JEMBIRLA691HFBRUZH7W2I","A1BJFYHXK6YDX1","3T5ZXGO9DEAUILU6S56NLENRQJRQZJ","","","<img src=""img/flower4.png"" style=""width:200px; border:14px solid green;"">","null","","","","","",""
"974.7000000029802","","image-keyboard-response","365","415885","0.0-365.0","3F6HPJW4JEMBIRLA691HFBRUZH7W2I","A1BJFYHXK6YDX1","3T5ZXGO9DEAUILU6S56NLENRQJRQZJ","","","img/flower2.png","74","976.3000000044703","1","0","3","1,0.5,0.5,0.5,1,0.5,0.5,0.5,1",""
"null","","html-keyboard-response","366","416192","0.0-366.0","3F6HPJW4JEMBIRLA691HFBRUZH7W2I","A1BJFYHXK6YDX1","3T5ZXGO9DEAUILU6S56NLENRQJRQZJ","","","<img src=""img/flower2.png"" style=""width:200px;border:14px solid red;"">","null","","","","","",""
"700.8999999985099","","image-keyboard-response","367","416895","0.0-367.0","3F6HPJW4JEMBIRLA691HFBRUZH7W2I","A1BJFYHXK6YDX1","3T5ZXGO9DEAUILU6S56NLENRQJRQZJ","","","img/flower6.png","75","702.2000000029802","2","0","1","1,0.5,0.5,0.5,1,0.5,0.5,0.5,1",""
"null","","html-keyboard-response","368","417202","0.0-368.0","3F6HPJW4JEMBIRLA691HFBRUZH7W2I","A1BJFYHXK6YDX1","3T5ZXGO9DEAUILU6S56NLENRQJRQZJ","","","<img src=""img/flower6.png"" style=""width:200px;border:14px solid red;"">","null","","","","","",""
"863.8999999985099","","image-keyboard-response","369","418067","0.0-369.0","3F6HPJW4JEMBIRLA691HFBRUZH7W2I","A1BJFYHXK6YDX1","3T5ZXGO9DEAUILU6S56NLENRQJRQZJ","","","img/flower2.png","76","865.2000000029802","3","1","3","1,0.5,0.5,0.5,1,0.5,0.5,0.5,1",""
"null","","html-keyboard-response","370","418375","0.0-370.0","3F6HPJW4JEMBIRLA691HFBRUZH7W2I","A1BJFYHXK6YDX1","3T5ZXGO9DEAUILU6S56NLENRQJRQZJ","","","<img src=""img/flower2.png"" style=""width:200px; border:14px solid green;"">","null","","","","","",""
"1018.2000000029802","","image-keyboard-response","371","419395","0.0-371.0","3F6HPJW4JEMBIRLA691HFBRUZH7W2I","A1BJFYHXK6YDX1","3T5ZXGO9DEAUILU6S56NLENRQJRQZJ","","","img/flower4.png","74","1019.5","1","1","2","1,0.5,0.5,0.5,1,0.5,0.5,0.5,1",""
"null","","html-keyboard-response","372","419702","0.0-372.0","3F6HPJW4JEMBIRLA691HFBRUZH7W2I","A1BJFYHXK6YDX1","3T5ZXGO9DEAUILU6S56NLENRQJRQZJ","","","<img src=""img/flower4.png"" style=""width:200px; border:14px solid green;"">","null","","","","","",""
"905.5","","image-keyboard-response","373","420610","0.0-373.0","3F6HPJW4JEMBIRLA691HFBRUZH7W2I","A1BJFYHXK6YDX1","3T5ZXGO9DEAUILU6S56NLENRQJRQZJ","","","img/flower2.png","75","906.8999999985099","2","0","3","1,0.5,0.5,0.5,1,0.5,0.5,0.5,1",""
"null","","html-keyboard-response","374","420917","0.0-374.0","3F6HPJW4JEMBIRLA691HFBRUZH7W2I","A1BJFYHXK6YDX1","3T5ZXGO9DEAUILU6S56NLENRQJRQZJ","","","<img src=""img/flower2.png"" style=""width:200px;border:14px solid red;"">","null","","","","","",""
"918.7000000029802","","image-keyboard-response","375","421837","0.0-375.0","3F6HPJW4JEMBIRLA691HFBRUZH7W2I","A1BJFYHXK6YDX1","3T5ZXGO9DEAUILU6S56NLENRQJRQZJ","","","img/flower4.png","74","919.8000000044703","1","1","2","1,0.5,0.5,0.5,1,0.5,0.5,0.5,1",""
"null","","html-keyboard-response","376","422146","0.0-376.0","3F6HPJW4JEMBIRLA691HFBRUZH7W2I","A1BJFYHXK6YDX1","3T5ZXGO9DEAUILU6S56NLENRQJRQZJ","","","<img src=""img/flower4.png"" style=""width:200px; border:14px solid green;"">","null","","","","","",""
"624.5999999940395","","image-keyboard-response","377","422772","0.0-377.0","3F6HPJW4JEMBIRLA691HFBRUZH7W2I","A1BJFYHXK6YDX1","3T5ZXGO9DEAUILU6S56NLENRQJRQZJ","","","img/flower2.png","74","625.7999999970198","1","0","3","1,0.5,0.5,0.5,1,0.5,0.5,0.5,1",""
"null","","html-keyboard-response","378","423080","0.0-378.0","3F6HPJW4JEMBIRLA691HFBRUZH7W2I","A1BJFYHXK6YDX1","3T5ZXGO9DEAUILU6S56NLENRQJRQZJ","","","<img src=""img/flower2.png"" style=""width:200px;border:14px solid red;"">","null","","","","","",""
"669.1000000014901","","image-keyboard-response","379","423751","0.0-379.0","3F6HPJW4JEMBIRLA691HFBRUZH7W2I","A1BJFYHXK6YDX1","3T5ZXGO9DEAUILU6S56NLENRQJRQZJ","","","img/flower4.png","74","670.5","1","1","2","1,0.5,0.5,0.5,1,0.5,0.5,0.5,1",""
"null","","html-keyboard-response","380","424060","0.0-380.0","3F6HPJW4JEMBIRLA691HFBRUZH7W2I","A1BJFYHXK6YDX1","3T5ZXGO9DEAUILU6S56NLENRQJRQZJ","","","<img src=""img/flower4.png"" style=""width:200px; border:14px solid green;"">","null","","","","","",""
"945.1000000014901","","image-keyboard-response","381","425006","0.0-381.0","3F6HPJW4JEMBIRLA691HFBRUZH7W2I","A1BJFYHXK6YDX1","3T5ZXGO9DEAUILU6S56NLENRQJRQZJ","","","img/flower6.png","75","946.3999999985099","2","1","1","1,0.5,0.5,0.5,1,0.5,0.5,0.5,1",""
"null","","html-keyboard-response","382","425316","0.0-382.0","3F6HPJW4JEMBIRLA691HFBRUZH7W2I","A1BJFYHXK6YDX1","3T5ZXGO9DEAUILU6S56NLENRQJRQZJ","","","<img src=""img/flower6.png"" style=""width:200px; border:14px solid green;"">","null","","","","","",""
"480.70000000298023","","image-keyboard-response","383","425798","0.0-383.0","3F6HPJW4JEMBIRLA691HFBRUZH7W2I","A1BJFYHXK6YDX1","3T5ZXGO9DEAUILU6S56NLENRQJRQZJ","","","img/flower6.png","75","482","2","1","1","1,0.5,0.5,0.5,1,0.5,0.5,0.5,1",""
"null","","html-keyboard-response","384","426106","0.0-384.0","3F6HPJW4JEMBIRLA691HFBRUZH7W2I","A1BJFYHXK6YDX1","3T5ZXGO9DEAUILU6S56NLENRQJRQZJ","","","<img src=""img/flower6.png"" style=""width:200px; border:14px solid green;"">","null","","","","","",""
"986.6000000014901","","image-keyboard-response","385","427094","0.0-385.0","3F6HPJW4JEMBIRLA691HFBRUZH7W2I","A1BJFYHXK6YDX1","3T5ZXGO9DEAUILU6S56NLENRQJRQZJ","","","img/flower2.png","75","987.7000000029802","2","0","3","1,0.5,0.5,0.5,1,0.5,0.5,0.5,1",""
"null","","html-keyboard-response","386","427397","0.0-386.0","3F6HPJW4JEMBIRLA691HFBRUZH7W2I","A1BJFYHXK6YDX1","3T5ZXGO9DEAUILU6S56NLENRQJRQZJ","","","<img src=""img/flower2.png"" style=""width:200px;border:14px solid red;"">","null","","","","","",""
"709.3999999985099","","image-keyboard-response","387","428108","0.0-387.0","3F6HPJW4JEMBIRLA691HFBRUZH7W2I","A1BJFYHXK6YDX1","3T5ZXGO9DEAUILU6S56NLENRQJRQZJ","","","img/flower6.png","75","711.8999999985099","2","0","1","1,0.5,0.5,0.5,1,0.5,0.5,0.5,1",""
"null","","html-keyboard-response","388","428415","0.0-388.0","3F6HPJW4JEMBIRLA691HFBRUZH7W2I","A1BJFYHXK6YDX1","3T5ZXGO9DEAUILU6S56NLENRQJRQZJ","","","<img src=""img/flower6.png"" style=""width:200px;border:14px solid red;"">","null","","","","","",""
"1379.0999999940395","","image-keyboard-response","389","429796","0.0-389.0","3F6HPJW4JEMBIRLA691HFBRUZH7W2I","A1BJFYHXK6YDX1","3T5ZXGO9DEAUILU6S56NLENRQJRQZJ","","","img/flower2.png","74","1380.3999999985099","1","1","3","1,0.5,0.5,0.5,1,0.5,0.5,0.5,1",""
"null","","html-keyboard-response","390","430105","0.0-390.0","3F6HPJW4JEMBIRLA691HFBRUZH7W2I","A1BJFYHXK6YDX1","3T5ZXGO9DEAUILU6S56NLENRQJRQZJ","","","<img src=""img/flower2.png"" style=""width:200px; border:14px solid green;"">","null","","","","","",""
"469","","image-keyboard-response","391","430575","0.0-391.0","3F6HPJW4JEMBIRLA691HFBRUZH7W2I","A1BJFYHXK6YDX1","3T5ZXGO9DEAUILU6S56NLENRQJRQZJ","","","img/flower2.png","74","470.29999999701977","1","1","3","1,0.5,0.5,0.5,1,0.5,0.5,0.5,1",""
"null","","html-keyboard-response","392","430878","0.0-392.0","3F6HPJW4JEMBIRLA691HFBRUZH7W2I","A1BJFYHXK6YDX1","3T5ZXGO9DEAUILU6S56NLENRQJRQZJ","","","<img src=""img/flower2.png"" style=""width:200px; border:14px solid green;"">","null","","","","","",""
"702.1000000014901","","image-keyboard-response","393","431582","0.0-393.0","3F6HPJW4JEMBIRLA691HFBRUZH7W2I","A1BJFYHXK6YDX1","3T5ZXGO9DEAUILU6S56NLENRQJRQZJ","","","img/flower4.png","74","703.5","1","0","2","1,0.5,0.5,0.5,1,0.5,0.5,0.5,1",""
"null","","html-keyboard-response","394","431888","0.0-394.0","3F6HPJW4JEMBIRLA691HFBRUZH7W2I","A1BJFYHXK6YDX1","3T5ZXGO9DEAUILU6S56NLENRQJRQZJ","","","<img src=""img/flower4.png"" style=""width:200px;border:14px solid red;"">","null","","","","","",""
"880.5","","image-keyboard-response","395","432770","0.0-395.0","3F6HPJW4JEMBIRLA691HFBRUZH7W2I","A1BJFYHXK6YDX1","3T5ZXGO9DEAUILU6S56NLENRQJRQZJ","","","img/flower6.png","76","881.6000000014901","3","0","1","1,0.5,0.5,0.5,1,0.5,0.5,0.5,1",""
"null","","html-keyboard-response","396","433074","0.0-396.0","3F6HPJW4JEMBIRLA691HFBRUZH7W2I","A1BJFYHXK6YDX1","3T5ZXGO9DEAUILU6S56NLENRQJRQZJ","","","<img src=""img/flower6.png"" style=""width:200px;border:14px solid red;"">","null","","","","","",""
"446.70000000298023","","image-keyboard-response","397","433522","0.0-397.0","3F6HPJW4JEMBIRLA691HFBRUZH7W2I","A1BJFYHXK6YDX1","3T5ZXGO9DEAUILU6S56NLENRQJRQZJ","","","img/flower6.png","75","447.90000000596046","2","0","1","1,0.5,0.5,0.5,1,0.5,0.5,0.5,1",""
"null","","html-keyboard-response","398","433831","0.0-398.0","3F6HPJW4JEMBIRLA691HFBRUZH7W2I","A1BJFYHXK6YDX1","3T5ZXGO9DEAUILU6S56NLENRQJRQZJ","","","<img src=""img/flower6.png"" style=""width:200px;border:14px solid red;"">","null","","","","","",""
"829.1999999955297","","image-keyboard-response","399","434662","0.0-399.0","3F6HPJW4JEMBIRLA691HFBRUZH7W2I","A1BJFYHXK6YDX1","3T5ZXGO9DEAUILU6S56NLENRQJRQZJ","","","img/flower4.png","74","831.3999999985099","1","0","2","1,0.5,0.5,0.5,1,0.5,0.5,0.5,1",""
"null","","html-keyboard-response","400","434971","0.0-400.0","3F6HPJW4JEMBIRLA691HFBRUZH7W2I","A1BJFYHXK6YDX1","3T5ZXGO9DEAUILU6S56NLENRQJRQZJ","","","<img src=""img/flower4.png"" style=""width:200px;border:14px solid red;"">","null","","","","","",""
"780.6000000014901","","image-keyboard-response","401","435753","0.0-401.0","3F6HPJW4JEMBIRLA691HFBRUZH7W2I","A1BJFYHXK6YDX1","3T5ZXGO9DEAUILU6S56NLENRQJRQZJ","","","img/flower4.png","75","781.9000000059605","2","1","2","1,0.5,0.5,0.5,1,0.5,0.5,0.5,1",""
"null","","html-keyboard-response","402","436059","0.0-402.0","3F6HPJW4JEMBIRLA691HFBRUZH7W2I","A1BJFYHXK6YDX1","3T5ZXGO9DEAUILU6S56NLENRQJRQZJ","","","<img src=""img/flower4.png"" style=""width:200px; border:14px solid green;"">","null","","","","","",""
"913.7000000029802","","image-keyboard-response","403","436974","0.0-403.0","3F6HPJW4JEMBIRLA691HFBRUZH7W2I","A1BJFYHXK6YDX1","3T5ZXGO9DEAUILU6S56NLENRQJRQZJ","","","img/flower2.png","76","915","3","1","3","1,0.5,0.5,0.5,1,0.5,0.5,0.5,1",""
"null","","html-keyboard-response","404","437281","0.0-404.0","3F6HPJW4JEMBIRLA691HFBRUZH7W2I","A1BJFYHXK6YDX1","3T5ZXGO9DEAUILU6S56NLENRQJRQZJ","","","<img src=""img/flower2.png"" style=""width:200px; border:14px solid green;"">","null","","","","","",""
"728.2000000029802","","image-keyboard-response","405","438011","0.0-405.0","3F6HPJW4JEMBIRLA691HFBRUZH7W2I","A1BJFYHXK6YDX1","3T5ZXGO9DEAUILU6S56NLENRQJRQZJ","","","img/flower6.png","75","729.5","2","1","1","1,0.5,0.5,0.5,1,0.5,0.5,0.5,1",""
