"success","trial_type","trial_index","time_elapsed","internal_node_id","assignmentID","mturkID","hitID","view_history","rt","stimulus","key_press","reactionTime","a","r","s","cond","reward_cond","reward_cond_actual","reward_matrix_idx","responses"
"true","fullscreen","0","2677","0.0-0.0","3Q5C1WP23NNAGNOUR4EUKS4CPOW15I","A1BM57TUNAQIXM","3UDTAB6HH6LRO17U79I9TKUGYFV09C","","","","","","","","","","","","",""
"","instructions","1","11336","0.0-1.0","3Q5C1WP23NNAGNOUR4EUKS4CPOW15I","A1BM57TUNAQIXM","3UDTAB6HH6LRO17U79I9TKUGYFV09C","[{""page_index"":0,""viewing_time"":1083.0999999940395},{""page_index"":1,""viewing_time"":1136.9000000059605},{""page_index"":2,""viewing_time"":760.5},{""page_index"":3,""viewing_time"":1775},{""page_index"":4,""viewing_time"":762.2999999970198},{""page_index"":5,""viewing_time"":1113.2999999970198},{""page_index"":6,""viewing_time"":925.9000000059605},{""page_index"":7,""viewing_time"":1100}]","8657.40000000596","","","","","","","","","","",""
"","image-keyboard-response","2","12649","0.0-2.0","3Q5C1WP23NNAGNOUR4EUKS4CPOW15I","A1BM57TUNAQIXM","3UDTAB6HH6LRO17U79I9TKUGYFV09C","","1311.300000011921","img/flower5.png","75","1312.5","2","0","1","1","1,0.333,0.333,0.333,1,0.333,0.333,0.333,1","1,0.333,0.333,0.333,1,0.333,0.333,0.333,1","1",""
"","html-keyboard-response","3","12961","0.0-3.0","3Q5C1WP23NNAGNOUR4EUKS4CPOW15I","A1BM57TUNAQIXM","3UDTAB6HH6LRO17U79I9TKUGYFV09C","","null","<img src=""img/flower5.png"" style=""width:200px;border:14px solid red;"">","null","","","","","","","","",""
"","image-keyboard-response","4","14266","0.0-4.0","3Q5C1WP23NNAGNOUR4EUKS4CPOW15I","A1BM57TUNAQIXM","3UDTAB6HH6LRO17U79I9TKUGYFV09C","","1301.6000000089407","img/flower1.png","74","1304","1","0","2","1","1,0.333,0.333,0.333,1,0.333,0.333,0.333,1","1,0.333,0.333,0.333,1,0.333,0.333,0.333,1","1",""
"","html-keyboard-response","5","14580","0.0-5.0","3Q5C1WP23NNAGNOUR4EUKS4CPOW15I","A1BM57TUNAQIXM","3UDTAB6HH6LRO17U79I9TKUGYFV09C","","null","<img src=""img/flower1.png"" style=""width:200px;border:14px solid red;"">","null","","","","","","","","",""
"","image-keyboard-response","6","15045","0.0-6.0","3Q5C1WP23NNAGNOUR4EUKS4CPOW15I","A1BM57TUNAQIXM","3UDTAB6HH6LRO17U79I9TKUGYFV09C","","462.40000000596046","img/flower6.png","74","464.20000000298023","1","1","3","1","1,0.333,0.333,0.333,1,0.333,0.333,0.333,1","1,0.333,0.333,0.333,1,0.333,0.333,0.333,1","1",""
"","html-keyboard-response","7","15359","0.0-7.0","3Q5C1WP23NNAGNOUR4EUKS4CPOW15I","A1BM57TUNAQIXM","3UDTAB6HH6LRO17U79I9TKUGYFV09C","","null","<img src=""img/flower6.png"" style=""width:200px; border:14px solid green;"">","null","","","","","","","","",""
"","image-keyboard-response","8","16537","0.0-8.0","3Q5C1WP23NNAGNOUR4EUKS4CPOW15I","A1BM57TUNAQIXM","3UDTAB6HH6LRO17U79I9TKUGYFV09C","","1175.7999999970198","img/flower1.png","74","1177.4000000059605","1","0","2","1","1,0.333,0.333,0.333,1,0.333,0.333,0.333,1","1,0.333,0.333,0.333,1,0.333,0.333,0.333,1","1",""
"","html-keyboard-response","9","16850","0.0-9.0","3Q5C1WP23NNAGNOUR4EUKS4CPOW15I","A1BM57TUNAQIXM","3UDTAB6HH6LRO17U79I9TKUGYFV09C","","null","<img src=""img/flower1.png"" style=""width:200px;border:14px solid red;"">","null","","","","","","","","",""
"","image-keyboard-response","10","17528","0.0-10.0","3Q5C1WP23NNAGNOUR4EUKS4CPOW15I","A1BM57TUNAQIXM","3UDTAB6HH6LRO17U79I9TKUGYFV09C","","676.2000000029802","img/flower1.png","75","677.6000000089407","2","1","2","1","1,0.333,0.333,0.333,1,0.333,0.333,0.333,1","1,0.333,0.333,0.333,1,0.333,0.333,0.333,1","1",""
"","html-keyboard-response","11","17844","0.0-11.0","3Q5C1WP23NNAGNOUR4EUKS4CPOW15I","A1BM57TUNAQIXM","3UDTAB6HH6LRO17U79I9TKUGYFV09C","","null","<img src=""img/flower1.png"" style=""width:200px; border:14px solid green;"">","null","","","","","","","","",""
"","image-keyboard-response","12","18173","0.0-12.0","3Q5C1WP23NNAGNOUR4EUKS4CPOW15I","A1BM57TUNAQIXM","3UDTAB6HH6LRO17U79I9TKUGYFV09C","","326.90000000596046","img/flower1.png","75","328.79999999701977","2","1","2","1","1,0.333,0.333,0.333,1,0.333,0.333,0.333,1","1,0.333,0.333,0.333,1,0.333,0.333,0.333,1","1",""
"","html-keyboard-response","13","18482","0.0-13.0","3Q5C1WP23NNAGNOUR4EUKS4CPOW15I","A1BM57TUNAQIXM","3UDTAB6HH6LRO17U79I9TKUGYFV09C","","null","<img src=""img/flower1.png"" style=""width:200px; border:14px solid green;"">","null","","","","","","","","",""
"","image-keyboard-response","14","19228","0.0-14.0","3Q5C1WP23NNAGNOUR4EUKS4CPOW15I","A1BM57TUNAQIXM","3UDTAB6HH6LRO17U79I9TKUGYFV09C","","745.1000000089407","img/flower5.png","76","746.0999999940395","3","0","1","1","1,0.333,0.333,0.333,1,0.333,0.333,0.333,1","1,0.333,0.333,0.333,1,0.333,0.333,0.333,1","1",""
"","html-keyboard-response","15","19540","0.0-15.0","3Q5C1WP23NNAGNOUR4EUKS4CPOW15I","A1BM57TUNAQIXM","3UDTAB6HH6LRO17U79I9TKUGYFV09C","","null","<img src=""img/flower5.png"" style=""width:200px;border:14px solid red;"">","null","","","","","","","","",""
"","image-keyboard-response","16","20055","0.0-16.0","3Q5C1WP23NNAGNOUR4EUKS4CPOW15I","A1BM57TUNAQIXM","3UDTAB6HH6LRO17U79I9TKUGYFV09C","","514.2000000029802","img/flower1.png","75","515.2999999970198","2","1","2","1","1,0.333,0.333,0.333,1,0.333,0.333,0.333,1","1,0.333,0.333,0.333,1,0.333,0.333,0.333,1","1",""
"","html-keyboard-response","17","20371","0.0-17.0","3Q5C1WP23NNAGNOUR4EUKS4CPOW15I","A1BM57TUNAQIXM","3UDTAB6HH6LRO17U79I9TKUGYFV09C","","null","<img src=""img/flower1.png"" style=""width:200px; border:14px solid green;"">","null","","","","","","","","",""
"","image-keyboard-response","18","20843","0.0-18.0","3Q5C1WP23NNAGNOUR4EUKS4CPOW15I","A1BM57TUNAQIXM","3UDTAB6HH6LRO17U79I9TKUGYFV09C","","470.1000000089407","img/flower5.png","76","471.90000000596046","3","0","1","1","1,0.333,0.333,0.333,1,0.333,0.333,0.333,1","1,0.333,0.333,0.333,1,0.333,0.333,0.333,1","1",""
"","html-keyboard-response","19","21161","0.0-19.0","3Q5C1WP23NNAGNOUR4EUKS4CPOW15I","A1BM57TUNAQIXM","3UDTAB6HH6LRO17U79I9TKUGYFV09C","","null","<img src=""img/flower5.png"" style=""width:200px;border:14px solid red;"">","null","","","","","","","","",""
"","image-keyboard-response","20","21735","0.0-20.0","3Q5C1WP23NNAGNOUR4EUKS4CPOW15I","A1BM57TUNAQIXM","3UDTAB6HH6LRO17U79I9TKUGYFV09C","","573.4000000059605","img/flower1.png","75","574.2999999970198","2","1","2","1","1,0.333,0.333,0.333,1,0.333,0.333,0.333,1","1,0.333,0.333,0.333,1,0.333,0.333,0.333,1","1",""
"","html-keyboard-response","21","22047","0.0-21.0","3Q5C1WP23NNAGNOUR4EUKS4CPOW15I","A1BM57TUNAQIXM","3UDTAB6HH6LRO17U79I9TKUGYFV09C","","null","<img src=""img/flower1.png"" style=""width:200px; border:14px solid green;"">","null","","","","","","","","",""
"","image-keyboard-response","22","22468","0.0-22.0","3Q5C1WP23NNAGNOUR4EUKS4CPOW15I","A1BM57TUNAQIXM","3UDTAB6HH6LRO17U79I9TKUGYFV09C","","418.8999999910593","img/flower1.png","75","420.5","2","1","2","1","1,0.333,0.333,0.333,1,0.333,0.333,0.333,1","1,0.333,0.333,0.333,1,0.333,0.333,0.333,1","1",""
"","html-keyboard-response","23","22778","0.0-23.0","3Q5C1WP23NNAGNOUR4EUKS4CPOW15I","A1BM57TUNAQIXM","3UDTAB6HH6LRO17U79I9TKUGYFV09C","","null","<img src=""img/flower1.png"" style=""width:200px; border:14px solid green;"">","null","","","","","","","","",""
"","image-keyboard-response","24","23109","0.0-24.0","3Q5C1WP23NNAGNOUR4EUKS4CPOW15I","A1BM57TUNAQIXM","3UDTAB6HH6LRO17U79I9TKUGYFV09C","","328.29999999701977","img/flower1.png","75","329.70000000298023","2","1","2","1","1,0.333,0.333,0.333,1,0.333,0.333,0.333,1","1,0.333,0.333,0.333,1,0.333,0.333,0.333,1","1",""
"","html-keyboard-response","25","23414","0.0-25.0","3Q5C1WP23NNAGNOUR4EUKS4CPOW15I","A1BM57TUNAQIXM","3UDTAB6HH6LRO17U79I9TKUGYFV09C","","null","<img src=""img/flower1.png"" style=""width:200px; border:14px solid green;"">","null","","","","","","","","",""
"","image-keyboard-response","26","23898","0.0-26.0","3Q5C1WP23NNAGNOUR4EUKS4CPOW15I","A1BM57TUNAQIXM","3UDTAB6HH6LRO17U79I9TKUGYFV09C","","482.40000000596046","img/flower6.png","74","483.79999999701977","1","1","3","1","1,0.333,0.333,0.333,1,0.333,0.333,0.333,1","1,0.333,0.333,0.333,1,0.333,0.333,0.333,1","1",""
"","html-keyboard-response","27","24207","0.0-27.0","3Q5C1WP23NNAGNOUR4EUKS4CPOW15I","A1BM57TUNAQIXM","3UDTAB6HH6LRO17U79I9TKUGYFV09C","","null","<img src=""img/flower6.png"" style=""width:200px; border:14px solid green;"">","null","","","","","","","","",""
"","image-keyboard-response","28","24592","0.0-28.0","3Q5C1WP23NNAGNOUR4EUKS4CPOW15I","A1BM57TUNAQIXM","3UDTAB6HH6LRO17U79I9TKUGYFV09C","","383.5","img/flower6.png","74","385.09999999403954","1","0","3","1","1,0.333,0.333,0.333,1,0.333,0.333,0.333,1","1,0.333,0.333,0.333,1,0.333,0.333,0.333,1","1",""
"","html-keyboard-response","29","24905","0.0-29.0","3Q5C1WP23NNAGNOUR4EUKS4CPOW15I","A1BM57TUNAQIXM","3UDTAB6HH6LRO17U79I9TKUGYFV09C","","null","<img src=""img/flower6.png"" style=""width:200px;border:14px solid red;"">","null","","","","","","","","",""
"","image-keyboard-response","30","25564","0.0-30.0","3Q5C1WP23NNAGNOUR4EUKS4CPOW15I","A1BM57TUNAQIXM","3UDTAB6HH6LRO17U79I9TKUGYFV09C","","656.7000000029802","img/flower1.png","75","658","2","1","2","1","1,0.333,0.333,0.333,1,0.333,0.333,0.333,1","1,0.333,0.333,0.333,1,0.333,0.333,0.333,1","1",""
"","html-keyboard-response","31","25877","0.0-31.0","3Q5C1WP23NNAGNOUR4EUKS4CPOW15I","A1BM57TUNAQIXM","3UDTAB6HH6LRO17U79I9TKUGYFV09C","","null","<img src=""img/flower1.png"" style=""width:200px; border:14px solid green;"">","null","","","","","","","","",""
"","image-keyboard-response","32","26267","0.0-32.0","3Q5C1WP23NNAGNOUR4EUKS4CPOW15I","A1BM57TUNAQIXM","3UDTAB6HH6LRO17U79I9TKUGYFV09C","","388.30000001192093","img/flower1.png","75","389.20000000298023","2","1","2","1","1,0.333,0.333,0.333,1,0.333,0.333,0.333,1","1,0.333,0.333,0.333,1,0.333,0.333,0.333,1","1",""
"","html-keyboard-response","33","26577","0.0-33.0","3Q5C1WP23NNAGNOUR4EUKS4CPOW15I","A1BM57TUNAQIXM","3UDTAB6HH6LRO17U79I9TKUGYFV09C","","null","<img src=""img/flower1.png"" style=""width:200px; border:14px solid green;"">","null","","","","","","","","",""
"","image-keyboard-response","34","27211","0.0-34.0","3Q5C1WP23NNAGNOUR4EUKS4CPOW15I","A1BM57TUNAQIXM","3UDTAB6HH6LRO17U79I9TKUGYFV09C","","631","img/flower6.png","74","632.7000000029802","1","0","3","1","1,0.333,0.333,0.333,1,0.333,0.333,0.333,1","1,0.333,0.333,0.333,1,0.333,0.333,0.333,1","1",""
"","html-keyboard-response","35","27526","0.0-35.0","3Q5C1WP23NNAGNOUR4EUKS4CPOW15I","A1BM57TUNAQIXM","3UDTAB6HH6LRO17U79I9TKUGYFV09C","","null","<img src=""img/flower6.png"" style=""width:200px;border:14px solid red;"">","null","","","","","","","","",""
"","image-keyboard-response","36","27882","0.0-36.0","3Q5C1WP23NNAGNOUR4EUKS4CPOW15I","A1BM57TUNAQIXM","3UDTAB6HH6LRO17U79I9TKUGYFV09C","","354.70000000298023","img/flower6.png","74","355.70000000298023","1","1","3","1","1,0.333,0.333,0.333,1,0.333,0.333,0.333,1","1,0.333,0.333,0.333,1,0.333,0.333,0.333,1","1",""
"","html-keyboard-response","37","28196","0.0-37.0","3Q5C1WP23NNAGNOUR4EUKS4CPOW15I","A1BM57TUNAQIXM","3UDTAB6HH6LRO17U79I9TKUGYFV09C","","null","<img src=""img/flower6.png"" style=""width:200px; border:14px solid green;"">","null","","","","","","","","",""
"","image-keyboard-response","38","29266","0.0-38.0","3Q5C1WP23NNAGNOUR4EUKS4CPOW15I","A1BM57TUNAQIXM","3UDTAB6HH6LRO17U79I9TKUGYFV09C","","1068.4000000059605","img/flower5.png","74","1070","1","1","1","1","1,0.333,0.333,0.333,1,0.333,0.333,0.333,1","1,0.333,0.333,0.333,1,0.333,0.333,0.333,1","1",""
"","html-keyboard-response","39","29573","0.0-39.0","3Q5C1WP23NNAGNOUR4EUKS4CPOW15I","A1BM57TUNAQIXM","3UDTAB6HH6LRO17U79I9TKUGYFV09C","","null","<img src=""img/flower5.png"" style=""width:200px; border:14px solid green;"">","null","","","","","","","","",""
"","image-keyboard-response","40","30498","0.0-40.0","3Q5C1WP23NNAGNOUR4EUKS4CPOW15I","A1BM57TUNAQIXM","3UDTAB6HH6LRO17U79I9TKUGYFV09C","","923.7000000029802","img/flower6.png","74","924.9000000059605","1","0","3","1","1,0.333,0.333,0.333,1,0.333,0.333,0.333,1","1,0.333,0.333,0.333,1,0.333,0.333,0.333,1","1",""
"","html-keyboard-response","41","30800","0.0-41.0","3Q5C1WP23NNAGNOUR4EUKS4CPOW15I","A1BM57TUNAQIXM","3UDTAB6HH6LRO17U79I9TKUGYFV09C","","null","<img src=""img/flower6.png"" style=""width:200px;border:14px solid red;"">","null","","","","","","","","",""
"","image-keyboard-response","42","31996","0.0-42.0","3Q5C1WP23NNAGNOUR4EUKS4CPOW15I","A1BM57TUNAQIXM","3UDTAB6HH6LRO17U79I9TKUGYFV09C","","1194","img/flower5.png","75","1195.5999999940395","2","0","1","1","1,0.333,0.333,0.333,1,0.333,0.333,0.333,1","1,0.333,0.333,0.333,1,0.333,0.333,0.333,1","1",""
"","html-keyboard-response","43","32300","0.0-43.0","3Q5C1WP23NNAGNOUR4EUKS4CPOW15I","A1BM57TUNAQIXM","3UDTAB6HH6LRO17U79I9TKUGYFV09C","","null","<img src=""img/flower5.png"" style=""width:200px;border:14px solid red;"">","null","","","","","","","","",""
"","image-keyboard-response","44","32895","0.0-44.0","3Q5C1WP23NNAGNOUR4EUKS4CPOW15I","A1BM57TUNAQIXM","3UDTAB6HH6LRO17U79I9TKUGYFV09C","","594.7000000029802","img/flower5.png","74","595.5999999940395","1","1","1","1","1,0.333,0.333,0.333,1,0.333,0.333,0.333,1","1,0.333,0.333,0.333,1,0.333,0.333,0.333,1","1",""
"","html-keyboard-response","45","33198","0.0-45.0","3Q5C1WP23NNAGNOUR4EUKS4CPOW15I","A1BM57TUNAQIXM","3UDTAB6HH6LRO17U79I9TKUGYFV09C","","null","<img src=""img/flower5.png"" style=""width:200px; border:14px solid green;"">","null","","","","","","","","",""
"","image-keyboard-response","46","33638","0.0-46.0","3Q5C1WP23NNAGNOUR4EUKS4CPOW15I","A1BM57TUNAQIXM","3UDTAB6HH6LRO17U79I9TKUGYFV09C","","437.5","img/flower5.png","74","438.80000001192093","1","1","1","1","1,0.333,0.333,0.333,1,0.333,0.333,0.333,1","1,0.333,0.333,0.333,1,0.333,0.333,0.333,1","1",""
"","html-keyboard-response","47","33940","0.0-47.0","3Q5C1WP23NNAGNOUR4EUKS4CPOW15I","A1BM57TUNAQIXM","3UDTAB6HH6LRO17U79I9TKUGYFV09C","","null","<img src=""img/flower5.png"" style=""width:200px; border:14px solid green;"">","null","","","","","","","","",""
"","image-keyboard-response","48","34532","0.0-48.0","3Q5C1WP23NNAGNOUR4EUKS4CPOW15I","A1BM57TUNAQIXM","3UDTAB6HH6LRO17U79I9TKUGYFV09C","","590.5","img/flower6.png","74","592.1999999880791","1","1","3","1","1,0.333,0.333,0.333,1,0.333,0.333,0.333,1","1,0.333,0.333,0.333,1,0.333,0.333,0.333,1","1",""
"","html-keyboard-response","49","34835","0.0-49.0","3Q5C1WP23NNAGNOUR4EUKS4CPOW15I","A1BM57TUNAQIXM","3UDTAB6HH6LRO17U79I9TKUGYFV09C","","null","<img src=""img/flower6.png"" style=""width:200px; border:14px solid green;"">","null","","","","","","","","",""
"","image-keyboard-response","50","35742","0.0-50.0","3Q5C1WP23NNAGNOUR4EUKS4CPOW15I","A1BM57TUNAQIXM","3UDTAB6HH6LRO17U79I9TKUGYFV09C","","906","img/flower5.png","74","906.7000000029802","1","1","1","1","1,0.333,0.333,0.333,1,0.333,0.333,0.333,1","1,0.333,0.333,0.333,1,0.333,0.333,0.333,1","1",""
"","html-keyboard-response","51","36044","0.0-51.0","3Q5C1WP23NNAGNOUR4EUKS4CPOW15I","A1BM57TUNAQIXM","3UDTAB6HH6LRO17U79I9TKUGYFV09C","","null","<img src=""img/flower5.png"" style=""width:200px; border:14px solid green;"">","null","","","","","","","","",""
"","image-keyboard-response","52","36657","0.0-52.0","3Q5C1WP23NNAGNOUR4EUKS4CPOW15I","A1BM57TUNAQIXM","3UDTAB6HH6LRO17U79I9TKUGYFV09C","","611.3999999910593","img/flower6.png","74","612.6000000089407","1","0","3","1","1,0.333,0.333,0.333,1,0.333,0.333,0.333,1","1,0.333,0.333,0.333,1,0.333,0.333,0.333,1","1",""
"","html-keyboard-response","53","36958","0.0-53.0","3Q5C1WP23NNAGNOUR4EUKS4CPOW15I","A1BM57TUNAQIXM","3UDTAB6HH6LRO17U79I9TKUGYFV09C","","null","<img src=""img/flower6.png"" style=""width:200px;border:14px solid red;"">","null","","","","","","","","",""
"","image-keyboard-response","54","37387","0.0-54.0","3Q5C1WP23NNAGNOUR4EUKS4CPOW15I","A1BM57TUNAQIXM","3UDTAB6HH6LRO17U79I9TKUGYFV09C","","427","img/flower6.png","76","428.70000000298023","3","1","3","1","1,0.333,0.333,0.333,1,0.333,0.333,0.333,1","1,0.333,0.333,0.333,1,0.333,0.333,0.333,1","1",""
"","html-keyboard-response","55","37690","0.0-55.0","3Q5C1WP23NNAGNOUR4EUKS4CPOW15I","A1BM57TUNAQIXM","3UDTAB6HH6LRO17U79I9TKUGYFV09C","","null","<img src=""img/flower6.png"" style=""width:200px; border:14px solid green;"">","null","","","","","","","","",""
"","image-keyboard-response","56","38412","0.0-56.0","3Q5C1WP23NNAGNOUR4EUKS4CPOW15I","A1BM57TUNAQIXM","3UDTAB6HH6LRO17U79I9TKUGYFV09C","","721","img/flower1.png","75","721.5","2","1","2","1","1,0.333,0.333,0.333,1,0.333,0.333,0.333,1","1,0.333,0.333,0.333,1,0.333,0.333,0.333,1","1",""
"","html-keyboard-response","57","38713","0.0-57.0","3Q5C1WP23NNAGNOUR4EUKS4CPOW15I","A1BM57TUNAQIXM","3UDTAB6HH6LRO17U79I9TKUGYFV09C","","null","<img src=""img/flower1.png"" style=""width:200px; border:14px solid green;"">","null","","","","","","","","",""
"","image-keyboard-response","58","39091","0.0-58.0","3Q5C1WP23NNAGNOUR4EUKS4CPOW15I","A1BM57TUNAQIXM","3UDTAB6HH6LRO17U79I9TKUGYFV09C","","377.20000000298023","img/flower1.png","75","378","2","1","2","1","1,0.333,0.333,0.333,1,0.333,0.333,0.333,1","1,0.333,0.333,0.333,1,0.333,0.333,0.333,1","1",""
"","html-keyboard-response","59","39392","0.0-59.0","3Q5C1WP23NNAGNOUR4EUKS4CPOW15I","A1BM57TUNAQIXM","3UDTAB6HH6LRO17U79I9TKUGYFV09C","","null","<img src=""img/flower1.png"" style=""width:200px; border:14px solid green;"">","null","","","","","","","","",""
"","image-keyboard-response","60","39748","0.0-60.0","3Q5C1WP23NNAGNOUR4EUKS4CPOW15I","A1BM57TUNAQIXM","3UDTAB6HH6LRO17U79I9TKUGYFV09C","","355.5","img/flower1.png","75","356.29999999701977","2","1","2","1","1,0.333,0.333,0.333,1,0.333,0.333,0.333,1","1,0.333,0.333,0.333,1,0.333,0.333,0.333,1","1",""
"","html-keyboard-response","61","40056","0.0-61.0","3Q5C1WP23NNAGNOUR4EUKS4CPOW15I","A1BM57TUNAQIXM","3UDTAB6HH6LRO17U79I9TKUGYFV09C","","null","<img src=""img/flower1.png"" style=""width:200px; border:14px solid green;"">","null","","","","","","","","",""
"","image-keyboard-response","62","40533","0.0-62.0","3Q5C1WP23NNAGNOUR4EUKS4CPOW15I","A1BM57TUNAQIXM","3UDTAB6HH6LRO17U79I9TKUGYFV09C","","474.90000000596046","img/flower6.png","76","476.29999999701977","3","1","3","1","1,0.333,0.333,0.333,1,0.333,0.333,0.333,1","1,0.333,0.333,0.333,1,0.333,0.333,0.333,1","1",""
"","html-keyboard-response","63","40834","0.0-63.0","3Q5C1WP23NNAGNOUR4EUKS4CPOW15I","A1BM57TUNAQIXM","3UDTAB6HH6LRO17U79I9TKUGYFV09C","","null","<img src=""img/flower6.png"" style=""width:200px; border:14px solid green;"">","null","","","","","","","","",""
"","image-keyboard-response","64","41409","0.0-64.0","3Q5C1WP23NNAGNOUR4EUKS4CPOW15I","A1BM57TUNAQIXM","3UDTAB6HH6LRO17U79I9TKUGYFV09C","","573.5999999940395","img/flower5.png","75","574.8999999910593","2","0","1","1","1,0.333,0.333,0.333,1,0.333,0.333,0.333,1","1,0.333,0.333,0.333,1,0.333,0.333,0.333,1","1",""
"","html-keyboard-response","65","41711","0.0-65.0","3Q5C1WP23NNAGNOUR4EUKS4CPOW15I","A1BM57TUNAQIXM","3UDTAB6HH6LRO17U79I9TKUGYFV09C","","null","<img src=""img/flower5.png"" style=""width:200px;border:14px solid red;"">","null","","","","","","","","",""
"","image-keyboard-response","66","42249","0.0-66.0","3Q5C1WP23NNAGNOUR4EUKS4CPOW15I","A1BM57TUNAQIXM","3UDTAB6HH6LRO17U79I9TKUGYFV09C","","536.6000000089407","img/flower1.png","75","537.6000000089407","2","1","2","1","1,0.333,0.333,0.333,1,0.333,0.333,0.333,1","1,0.333,0.333,0.333,1,0.333,0.333,0.333,1","1",""
"","html-keyboard-response","67","42550","0.0-67.0","3Q5C1WP23NNAGNOUR4EUKS4CPOW15I","A1BM57TUNAQIXM","3UDTAB6HH6LRO17U79I9TKUGYFV09C","","null","<img src=""img/flower1.png"" style=""width:200px; border:14px solid green;"">","null","","","","","","","","",""
"","image-keyboard-response","68","43274","0.0-68.0","3Q5C1WP23NNAGNOUR4EUKS4CPOW15I","A1BM57TUNAQIXM","3UDTAB6HH6LRO17U79I9TKUGYFV09C","","723.7000000029802","img/flower5.png","74","724.1999999880791","1","1","1","1","1,0.333,0.333,0.333,1,0.333,0.333,0.333,1","1,0.333,0.333,0.333,1,0.333,0.333,0.333,1","1",""
"","html-keyboard-response","69","43576","0.0-69.0","3Q5C1WP23NNAGNOUR4EUKS4CPOW15I","A1BM57TUNAQIXM","3UDTAB6HH6LRO17U79I9TKUGYFV09C","","null","<img src=""img/flower5.png"" style=""width:200px; border:14px solid green;"">","null","","","","","","","","",""
"","image-keyboard-response","70","44264","0.0-70.0","3Q5C1WP23NNAGNOUR4EUKS4CPOW15I","A1BM57TUNAQIXM","3UDTAB6HH6LRO17U79I9TKUGYFV09C","","685.6000000089407","img/flower6.png","74","687.3000000119209","1","1","3","1","1,0.333,0.333,0.333,1,0.333,0.333,0.333,1","1,0.333,0.333,0.333,1,0.333,0.333,0.333,1","1",""
"","html-keyboard-response","71","44566","0.0-71.0","3Q5C1WP23NNAGNOUR4EUKS4CPOW15I","A1BM57TUNAQIXM","3UDTAB6HH6LRO17U79I9TKUGYFV09C","","null","<img src=""img/flower6.png"" style=""width:200px; border:14px solid green;"">","null","","","","","","","","",""
"","image-keyboard-response","72","45130","0.0-72.0","3Q5C1WP23NNAGNOUR4EUKS4CPOW15I","A1BM57TUNAQIXM","3UDTAB6HH6LRO17U79I9TKUGYFV09C","","561.5","img/flower6.png","76","563.2999999970198","3","1","3","1","1,0.333,0.333,0.333,1,0.333,0.333,0.333,1","1,0.333,0.333,0.333,1,0.333,0.333,0.333,1","1",""
"","html-keyboard-response","73","45433","0.0-73.0","3Q5C1WP23NNAGNOUR4EUKS4CPOW15I","A1BM57TUNAQIXM","3UDTAB6HH6LRO17U79I9TKUGYFV09C","","null","<img src=""img/flower6.png"" style=""width:200px; border:14px solid green;"">","null","","","","","","","","",""
"","image-keyboard-response","74","46343","0.0-74.0","3Q5C1WP23NNAGNOUR4EUKS4CPOW15I","A1BM57TUNAQIXM","3UDTAB6HH6LRO17U79I9TKUGYFV09C","","908.5999999940395","img/flower5.png","75","909.3999999910593","2","0","1","1","1,0.333,0.333,0.333,1,0.333,0.333,0.333,1","1,0.333,0.333,0.333,1,0.333,0.333,0.333,1","1",""
"","html-keyboard-response","75","46645","0.0-75.0","3Q5C1WP23NNAGNOUR4EUKS4CPOW15I","A1BM57TUNAQIXM","3UDTAB6HH6LRO17U79I9TKUGYFV09C","","null","<img src=""img/flower5.png"" style=""width:200px;border:14px solid red;"">","null","","","","","","","","",""
"","image-keyboard-response","76","47332","0.0-76.0","3Q5C1WP23NNAGNOUR4EUKS4CPOW15I","A1BM57TUNAQIXM","3UDTAB6HH6LRO17U79I9TKUGYFV09C","","685.7000000029802","img/flower6.png","76","686.7000000029802","3","1","3","1","1,0.333,0.333,0.333,1,0.333,0.333,0.333,1","1,0.333,0.333,0.333,1,0.333,0.333,0.333,1","1",""
"","html-keyboard-response","77","47635","0.0-77.0","3Q5C1WP23NNAGNOUR4EUKS4CPOW15I","A1BM57TUNAQIXM","3UDTAB6HH6LRO17U79I9TKUGYFV09C","","null","<img src=""img/flower6.png"" style=""width:200px; border:14px solid green;"">","null","","","","","","","","",""
"","image-keyboard-response","78","48035","0.0-78.0","3Q5C1WP23NNAGNOUR4EUKS4CPOW15I","A1BM57TUNAQIXM","3UDTAB6HH6LRO17U79I9TKUGYFV09C","","399.30000001192093","img/flower6.png","76","400.20000000298023","3","1","3","1","1,0.333,0.333,0.333,1,0.333,0.333,0.333,1","1,0.333,0.333,0.333,1,0.333,0.333,0.333,1","1",""
"","html-keyboard-response","79","48338","0.0-79.0","3Q5C1WP23NNAGNOUR4EUKS4CPOW15I","A1BM57TUNAQIXM","3UDTAB6HH6LRO17U79I9TKUGYFV09C","","null","<img src=""img/flower6.png"" style=""width:200px; border:14px solid green;"">","null","","","","","","","","",""
"","image-keyboard-response","80","48985","0.0-80.0","3Q5C1WP23NNAGNOUR4EUKS4CPOW15I","A1BM57TUNAQIXM","3UDTAB6HH6LRO17U79I9TKUGYFV09C","","645.4000000059605","img/flower1.png","75","646.9000000059605","2","1","2","1","1,0.333,0.333,0.333,1,0.333,0.333,0.333,1","1,0.333,0.333,0.333,1,0.333,0.333,0.333,1","1",""
"","html-keyboard-response","81","49287","0.0-81.0","3Q5C1WP23NNAGNOUR4EUKS4CPOW15I","A1BM57TUNAQIXM","3UDTAB6HH6LRO17U79I9TKUGYFV09C","","null","<img src=""img/flower1.png"" style=""width:200px; border:14px solid green;"">","null","","","","","","","","",""
"","image-keyboard-response","82","49953","0.0-82.0","3Q5C1WP23NNAGNOUR4EUKS4CPOW15I","A1BM57TUNAQIXM","3UDTAB6HH6LRO17U79I9TKUGYFV09C","","664.0999999940395","img/flower6.png","76","665.8000000119209","3","1","3","1","1,0.333,0.333,0.333,1,0.333,0.333,0.333,1","1,0.333,0.333,0.333,1,0.333,0.333,0.333,1","1",""
"","html-keyboard-response","83","50256","0.0-83.0","3Q5C1WP23NNAGNOUR4EUKS4CPOW15I","A1BM57TUNAQIXM","3UDTAB6HH6LRO17U79I9TKUGYFV09C","","null","<img src=""img/flower6.png"" style=""width:200px; border:14px solid green;"">","null","","","","","","","","",""
"","image-keyboard-response","84","51010","0.0-84.0","3Q5C1WP23NNAGNOUR4EUKS4CPOW15I","A1BM57TUNAQIXM","3UDTAB6HH6LRO17U79I9TKUGYFV09C","","751.2999999970198","img/flower1.png","75","753.1000000089407","2","1","2","1","1,0.333,0.333,0.333,1,0.333,0.333,0.333,1","1,0.333,0.333,0.333,1,0.333,0.333,0.333,1","1",""
"","html-keyboard-response","85","51312","0.0-85.0","3Q5C1WP23NNAGNOUR4EUKS4CPOW15I","A1BM57TUNAQIXM","3UDTAB6HH6LRO17U79I9TKUGYFV09C","","null","<img src=""img/flower1.png"" style=""width:200px; border:14px solid green;"">","null","","","","","","","","",""
"","image-keyboard-response","86","52058","0.0-86.0","3Q5C1WP23NNAGNOUR4EUKS4CPOW15I","A1BM57TUNAQIXM","3UDTAB6HH6LRO17U79I9TKUGYFV09C","","744.2999999970198","img/flower5.png","74","746.2000000029802","1","1","1","1","1,0.333,0.333,0.333,1,0.333,0.333,0.333,1","1,0.333,0.333,0.333,1,0.333,0.333,0.333,1","1",""
"","html-keyboard-response","87","52361","0.0-87.0","3Q5C1WP23NNAGNOUR4EUKS4CPOW15I","A1BM57TUNAQIXM","3UDTAB6HH6LRO17U79I9TKUGYFV09C","","null","<img src=""img/flower5.png"" style=""width:200px; border:14px solid green;"">","null","","","","","","","","",""
"","image-keyboard-response","88","52864","0.0-88.0","3Q5C1WP23NNAGNOUR4EUKS4CPOW15I","A1BM57TUNAQIXM","3UDTAB6HH6LRO17U79I9TKUGYFV09C","","501.40000000596046","img/flower1.png","75","503.70000000298023","2","1","2","1","1,0.333,0.333,0.333,1,0.333,0.333,0.333,1","1,0.333,0.333,0.333,1,0.333,0.333,0.333,1","1",""
"","html-keyboard-response","89","53169","0.0-89.0","3Q5C1WP23NNAGNOUR4EUKS4CPOW15I","A1BM57TUNAQIXM","3UDTAB6HH6LRO17U79I9TKUGYFV09C","","null","<img src=""img/flower1.png"" style=""width:200px; border:14px solid green;"">","null","","","","","","","","",""
"","image-keyboard-response","90","53988","0.0-90.0","3Q5C1WP23NNAGNOUR4EUKS4CPOW15I","A1BM57TUNAQIXM","3UDTAB6HH6LRO17U79I9TKUGYFV09C","","817","img/flower6.png","76","818.6999999880791","3","1","3","1","1,0.333,0.333,0.333,1,0.333,0.333,0.333,1","1,0.333,0.333,0.333,1,0.333,0.333,0.333,1","1",""
"","html-keyboard-response","91","54305","0.0-91.0","3Q5C1WP23NNAGNOUR4EUKS4CPOW15I","A1BM57TUNAQIXM","3UDTAB6HH6LRO17U79I9TKUGYFV09C","","null","<img src=""img/flower6.png"" style=""width:200px; border:14px solid green;"">","null","","","","","","","","",""
"","image-keyboard-response","92","54919","0.0-92.0","3Q5C1WP23NNAGNOUR4EUKS4CPOW15I","A1BM57TUNAQIXM","3UDTAB6HH6LRO17U79I9TKUGYFV09C","","611.4000000059605","img/flower5.png","75","613.0999999940395","2","1","1","1","1,0.333,0.333,0.333,1,0.333,0.333,0.333,1","1,0.333,0.333,0.333,1,0.333,0.333,0.333,1","1",""
"","html-keyboard-response","93","55222","0.0-93.0","3Q5C1WP23NNAGNOUR4EUKS4CPOW15I","A1BM57TUNAQIXM","3UDTAB6HH6LRO17U79I9TKUGYFV09C","","null","<img src=""img/flower5.png"" style=""width:200px; border:14px solid green;"">","null","","","","","","","","",""
"","image-keyboard-response","94","55802","0.0-94.0","3Q5C1WP23NNAGNOUR4EUKS4CPOW15I","A1BM57TUNAQIXM","3UDTAB6HH6LRO17U79I9TKUGYFV09C","","578.2000000029802","img/flower5.png","74","580.2000000029802","1","1","1","1","1,0.333,0.333,0.333,1,0.333,0.333,0.333,1","1,0.333,0.333,0.333,1,0.333,0.333,0.333,1","1",""
"","html-keyboard-response","95","56105","0.0-95.0","3Q5C1WP23NNAGNOUR4EUKS4CPOW15I","A1BM57TUNAQIXM","3UDTAB6HH6LRO17U79I9TKUGYFV09C","","null","<img src=""img/flower5.png"" style=""width:200px; border:14px solid green;"">","null","","","","","","","","",""
"","image-keyboard-response","96","56706","0.0-96.0","3Q5C1WP23NNAGNOUR4EUKS4CPOW15I","A1BM57TUNAQIXM","3UDTAB6HH6LRO17U79I9TKUGYFV09C","","599.0999999940395","img/flower1.png","75","600.5","2","1","2","1","1,0.333,0.333,0.333,1,0.333,0.333,0.333,1","1,0.333,0.333,0.333,1,0.333,0.333,0.333,1","1",""
"","html-keyboard-response","97","57008","0.0-97.0","3Q5C1WP23NNAGNOUR4EUKS4CPOW15I","A1BM57TUNAQIXM","3UDTAB6HH6LRO17U79I9TKUGYFV09C","","null","<img src=""img/flower1.png"" style=""width:200px; border:14px solid green;"">","null","","","","","","","","",""
"","image-keyboard-response","98","57685","0.0-98.0","3Q5C1WP23NNAGNOUR4EUKS4CPOW15I","A1BM57TUNAQIXM","3UDTAB6HH6LRO17U79I9TKUGYFV09C","","675.5999999940395","img/flower6.png","76","677","3","1","3","1","1,0.333,0.333,0.333,1,0.333,0.333,0.333,1","1,0.333,0.333,0.333,1,0.333,0.333,0.333,1","1",""
"","html-keyboard-response","99","57986","0.0-99.0","3Q5C1WP23NNAGNOUR4EUKS4CPOW15I","A1BM57TUNAQIXM","3UDTAB6HH6LRO17U79I9TKUGYFV09C","","null","<img src=""img/flower6.png"" style=""width:200px; border:14px solid green;"">","null","","","","","","","","",""
"","image-keyboard-response","100","58833","0.0-100.0","3Q5C1WP23NNAGNOUR4EUKS4CPOW15I","A1BM57TUNAQIXM","3UDTAB6HH6LRO17U79I9TKUGYFV09C","","845","img/flower5.png","74","846.7000000029802","1","1","1","1","1,0.333,0.333,0.333,1,0.333,0.333,0.333,1","1,0.333,0.333,0.333,1,0.333,0.333,0.333,1","1",""
"","html-keyboard-response","101","59137","0.0-101.0","3Q5C1WP23NNAGNOUR4EUKS4CPOW15I","A1BM57TUNAQIXM","3UDTAB6HH6LRO17U79I9TKUGYFV09C","","null","<img src=""img/flower5.png"" style=""width:200px; border:14px solid green;"">","null","","","","","","","","",""
"","image-keyboard-response","102","60046","0.0-102.0","3Q5C1WP23NNAGNOUR4EUKS4CPOW15I","A1BM57TUNAQIXM","3UDTAB6HH6LRO17U79I9TKUGYFV09C","","908","img/flower6.png","74","909.4000000059605","1","1","3","1","1,0.333,0.333,0.333,1,0.333,0.333,0.333,1","1,0.333,0.333,0.333,1,0.333,0.333,0.333,1","1",""
"","html-keyboard-response","103","60348","0.0-103.0","3Q5C1WP23NNAGNOUR4EUKS4CPOW15I","A1BM57TUNAQIXM","3UDTAB6HH6LRO17U79I9TKUGYFV09C","","null","<img src=""img/flower6.png"" style=""width:200px; border:14px solid green;"">","null","","","","","","","","",""
"","image-keyboard-response","104","61125","0.0-104.0","3Q5C1WP23NNAGNOUR4EUKS4CPOW15I","A1BM57TUNAQIXM","3UDTAB6HH6LRO17U79I9TKUGYFV09C","","774.7999999970198","img/flower1.png","75","776.5999999940395","2","1","2","1","1,0.333,0.333,0.333,1,0.333,0.333,0.333,1","1,0.333,0.333,0.333,1,0.333,0.333,0.333,1","1",""
"","html-keyboard-response","105","61428","0.0-105.0","3Q5C1WP23NNAGNOUR4EUKS4CPOW15I","A1BM57TUNAQIXM","3UDTAB6HH6LRO17U79I9TKUGYFV09C","","null","<img src=""img/flower1.png"" style=""width:200px; border:14px solid green;"">","null","","","","","","","","",""
"","image-keyboard-response","106","61992","0.0-106.0","3Q5C1WP23NNAGNOUR4EUKS4CPOW15I","A1BM57TUNAQIXM","3UDTAB6HH6LRO17U79I9TKUGYFV09C","","563.1000000089407","img/flower6.png","75","564.0999999940395","2","0","3","1","1,0.333,0.333,0.333,1,0.333,0.333,0.333,1","1,0.333,0.333,0.333,1,0.333,0.333,0.333,1","1",""
"","html-keyboard-response","107","62295","0.0-107.0","3Q5C1WP23NNAGNOUR4EUKS4CPOW15I","A1BM57TUNAQIXM","3UDTAB6HH6LRO17U79I9TKUGYFV09C","","null","<img src=""img/flower6.png"" style=""width:200px;border:14px solid red;"">","null","","","","","","","","",""
"","image-keyboard-response","108","62746","0.0-108.0","3Q5C1WP23NNAGNOUR4EUKS4CPOW15I","A1BM57TUNAQIXM","3UDTAB6HH6LRO17U79I9TKUGYFV09C","","448.90000000596046","img/flower6.png","76","450.5","3","1","3","1","1,0.333,0.333,0.333,1,0.333,0.333,0.333,1","1,0.333,0.333,0.333,1,0.333,0.333,0.333,1","1",""
"","html-keyboard-response","109","63049","0.0-109.0","3Q5C1WP23NNAGNOUR4EUKS4CPOW15I","A1BM57TUNAQIXM","3UDTAB6HH6LRO17U79I9TKUGYFV09C","","null","<img src=""img/flower6.png"" style=""width:200px; border:14px solid green;"">","null","","","","","","","","",""
"","image-keyboard-response","110","63385","0.0-110.0","3Q5C1WP23NNAGNOUR4EUKS4CPOW15I","A1BM57TUNAQIXM","3UDTAB6HH6LRO17U79I9TKUGYFV09C","","335.29999999701977","img/flower6.png","76","336.40000000596046","3","1","3","1","1,0.333,0.333,0.333,1,0.333,0.333,0.333,1","1,0.333,0.333,0.333,1,0.333,0.333,0.333,1","1",""
"","html-keyboard-response","111","63689","0.0-111.0","3Q5C1WP23NNAGNOUR4EUKS4CPOW15I","A1BM57TUNAQIXM","3UDTAB6HH6LRO17U79I9TKUGYFV09C","","null","<img src=""img/flower6.png"" style=""width:200px; border:14px solid green;"">","null","","","","","","","","",""
"","image-keyboard-response","112","64278","0.0-112.0","3Q5C1WP23NNAGNOUR4EUKS4CPOW15I","A1BM57TUNAQIXM","3UDTAB6HH6LRO17U79I9TKUGYFV09C","","588.0999999940395","img/flower1.png","75","589.2000000029802","2","1","2","1","1,0.333,0.333,0.333,1,0.333,0.333,0.333,1","1,0.333,0.333,0.333,1,0.333,0.333,0.333,1","1",""
"","html-keyboard-response","113","64580","0.0-113.0","3Q5C1WP23NNAGNOUR4EUKS4CPOW15I","A1BM57TUNAQIXM","3UDTAB6HH6LRO17U79I9TKUGYFV09C","","null","<img src=""img/flower1.png"" style=""width:200px; border:14px solid green;"">","null","","","","","","","","",""
"","image-keyboard-response","114","65210","0.0-114.0","3Q5C1WP23NNAGNOUR4EUKS4CPOW15I","A1BM57TUNAQIXM","3UDTAB6HH6LRO17U79I9TKUGYFV09C","","628.2999999970198","img/flower1.png","76","629.8999999910593","3","1","2","1","1,0.333,0.333,0.333,1,0.333,0.333,0.333,1","1,0.333,0.333,0.333,1,0.333,0.333,0.333,1","1",""
"","html-keyboard-response","115","65517","0.0-115.0","3Q5C1WP23NNAGNOUR4EUKS4CPOW15I","A1BM57TUNAQIXM","3UDTAB6HH6LRO17U79I9TKUGYFV09C","","null","<img src=""img/flower1.png"" style=""width:200px; border:14px solid green;"">","null","","","","","","","","",""
"","image-keyboard-response","116","66231","0.0-116.0","3Q5C1WP23NNAGNOUR4EUKS4CPOW15I","A1BM57TUNAQIXM","3UDTAB6HH6LRO17U79I9TKUGYFV09C","","713.1000000089407","img/flower6.png","76","714","3","1","3","1","1,0.333,0.333,0.333,1,0.333,0.333,0.333,1","1,0.333,0.333,0.333,1,0.333,0.333,0.333,1","1",""
"","html-keyboard-response","117","66542","0.0-117.0","3Q5C1WP23NNAGNOUR4EUKS4CPOW15I","A1BM57TUNAQIXM","3UDTAB6HH6LRO17U79I9TKUGYFV09C","","null","<img src=""img/flower6.png"" style=""width:200px; border:14px solid green;"">","null","","","","","","","","",""
"","image-keyboard-response","118","67076","0.0-118.0","3Q5C1WP23NNAGNOUR4EUKS4CPOW15I","A1BM57TUNAQIXM","3UDTAB6HH6LRO17U79I9TKUGYFV09C","","531.5999999940395","img/flower6.png","76","533.3000000119209","3","1","3","1","1,0.333,0.333,0.333,1,0.333,0.333,0.333,1","1,0.333,0.333,0.333,1,0.333,0.333,0.333,1","1",""
"","html-keyboard-response","119","67380","0.0-119.0","3Q5C1WP23NNAGNOUR4EUKS4CPOW15I","A1BM57TUNAQIXM","3UDTAB6HH6LRO17U79I9TKUGYFV09C","","null","<img src=""img/flower6.png"" style=""width:200px; border:14px solid green;"">","null","","","","","","","","",""
"","image-keyboard-response","120","68288","0.0-120.0","3Q5C1WP23NNAGNOUR4EUKS4CPOW15I","A1BM57TUNAQIXM","3UDTAB6HH6LRO17U79I9TKUGYFV09C","","907","img/flower5.png","74","907.8000000119209","1","1","1","1","1,0.333,0.333,0.333,1,0.333,0.333,0.333,1","1,0.333,0.333,0.333,1,0.333,0.333,0.333,1","1",""
"","html-keyboard-response","121","68589","0.0-121.0","3Q5C1WP23NNAGNOUR4EUKS4CPOW15I","A1BM57TUNAQIXM","3UDTAB6HH6LRO17U79I9TKUGYFV09C","","null","<img src=""img/flower5.png"" style=""width:200px; border:14px solid green;"">","null","","","","","","","","",""
"","image-keyboard-response","122","69133","0.0-122.0","3Q5C1WP23NNAGNOUR4EUKS4CPOW15I","A1BM57TUNAQIXM","3UDTAB6HH6LRO17U79I9TKUGYFV09C","","542.4000000059605","img/flower5.png","74","543.6999999880791","1","1","1","1","1,0.333,0.333,0.333,1,0.333,0.333,0.333,1","1,0.333,0.333,0.333,1,0.333,0.333,0.333,1","1",""
"","html-keyboard-response","123","69435","0.0-123.0","3Q5C1WP23NNAGNOUR4EUKS4CPOW15I","A1BM57TUNAQIXM","3UDTAB6HH6LRO17U79I9TKUGYFV09C","","null","<img src=""img/flower5.png"" style=""width:200px; border:14px solid green;"">","null","","","","","","","","",""
"","image-keyboard-response","124","69851","0.0-124.0","3Q5C1WP23NNAGNOUR4EUKS4CPOW15I","A1BM57TUNAQIXM","3UDTAB6HH6LRO17U79I9TKUGYFV09C","","414.40000000596046","img/flower5.png","74","416.19999998807907","1","1","1","1","1,0.333,0.333,0.333,1,0.333,0.333,0.333,1","1,0.333,0.333,0.333,1,0.333,0.333,0.333,1","1",""
"","html-keyboard-response","125","70153","0.0-125.0","3Q5C1WP23NNAGNOUR4EUKS4CPOW15I","A1BM57TUNAQIXM","3UDTAB6HH6LRO17U79I9TKUGYFV09C","","null","<img src=""img/flower5.png"" style=""width:200px; border:14px solid green;"">","null","","","","","","","","",""
"","image-keyboard-response","126","70734","0.0-126.0","3Q5C1WP23NNAGNOUR4EUKS4CPOW15I","A1BM57TUNAQIXM","3UDTAB6HH6LRO17U79I9TKUGYFV09C","","579.5","img/flower1.png","75","580.4000000059605","2","1","2","1","1,0.333,0.333,0.333,1,0.333,0.333,0.333,1","1,0.333,0.333,0.333,1,0.333,0.333,0.333,1","1",""
"","html-keyboard-response","127","71036","0.0-127.0","3Q5C1WP23NNAGNOUR4EUKS4CPOW15I","A1BM57TUNAQIXM","3UDTAB6HH6LRO17U79I9TKUGYFV09C","","null","<img src=""img/flower1.png"" style=""width:200px; border:14px solid green;"">","null","","","","","","","","",""
"","image-keyboard-response","128","72061","0.0-128.0","3Q5C1WP23NNAGNOUR4EUKS4CPOW15I","A1BM57TUNAQIXM","3UDTAB6HH6LRO17U79I9TKUGYFV09C","","1022.7000000029802","img/flower5.png","74","1024.2999999970198","1","1","1","1","1,0.333,0.333,0.333,1,0.333,0.333,0.333,1","1,0.333,0.333,0.333,1,0.333,0.333,0.333,1","1",""
"","html-keyboard-response","129","72363","0.0-129.0","3Q5C1WP23NNAGNOUR4EUKS4CPOW15I","A1BM57TUNAQIXM","3UDTAB6HH6LRO17U79I9TKUGYFV09C","","null","<img src=""img/flower5.png"" style=""width:200px; border:14px solid green;"">","null","","","","","","","","",""
"","image-keyboard-response","130","72798","0.0-130.0","3Q5C1WP23NNAGNOUR4EUKS4CPOW15I","A1BM57TUNAQIXM","3UDTAB6HH6LRO17U79I9TKUGYFV09C","","432.5","img/flower5.png","74","434.09999999403954","1","1","1","1","1,0.333,0.333,0.333,1,0.333,0.333,0.333,1","1,0.333,0.333,0.333,1,0.333,0.333,0.333,1","1",""
"","html-keyboard-response","131","73100","0.0-131.0","3Q5C1WP23NNAGNOUR4EUKS4CPOW15I","A1BM57TUNAQIXM","3UDTAB6HH6LRO17U79I9TKUGYFV09C","","null","<img src=""img/flower5.png"" style=""width:200px; border:14px solid green;"">","null","","","","","","","","",""
"","image-keyboard-response","132","73978","0.0-132.0","3Q5C1WP23NNAGNOUR4EUKS4CPOW15I","A1BM57TUNAQIXM","3UDTAB6HH6LRO17U79I9TKUGYFV09C","","875.6000000089407","img/flower6.png","76","877.3000000119209","3","1","3","1","1,0.333,0.333,0.333,1,0.333,0.333,0.333,1","1,0.333,0.333,0.333,1,0.333,0.333,0.333,1","1",""
"","html-keyboard-response","133","74280","0.0-133.0","3Q5C1WP23NNAGNOUR4EUKS4CPOW15I","A1BM57TUNAQIXM","3UDTAB6HH6LRO17U79I9TKUGYFV09C","","null","<img src=""img/flower6.png"" style=""width:200px; border:14px solid green;"">","null","","","","","","","","",""
"","image-keyboard-response","134","74789","0.0-134.0","3Q5C1WP23NNAGNOUR4EUKS4CPOW15I","A1BM57TUNAQIXM","3UDTAB6HH6LRO17U79I9TKUGYFV09C","","506.79999999701977","img/flower6.png","76","508.5","3","1","3","1","1,0.333,0.333,0.333,1,0.333,0.333,0.333,1","1,0.333,0.333,0.333,1,0.333,0.333,0.333,1","1",""
"","html-keyboard-response","135","75091","0.0-135.0","3Q5C1WP23NNAGNOUR4EUKS4CPOW15I","A1BM57TUNAQIXM","3UDTAB6HH6LRO17U79I9TKUGYFV09C","","null","<img src=""img/flower6.png"" style=""width:200px; border:14px solid green;"">","null","","","","","","","","",""
"","image-keyboard-response","136","75391","0.0-136.0","3Q5C1WP23NNAGNOUR4EUKS4CPOW15I","A1BM57TUNAQIXM","3UDTAB6HH6LRO17U79I9TKUGYFV09C","","297.79999999701977","img/flower6.png","76","299.5","3","1","3","1","1,0.333,0.333,0.333,1,0.333,0.333,0.333,1","1,0.333,0.333,0.333,1,0.333,0.333,0.333,1","1",""
"","html-keyboard-response","137","75699","0.0-137.0","3Q5C1WP23NNAGNOUR4EUKS4CPOW15I","A1BM57TUNAQIXM","3UDTAB6HH6LRO17U79I9TKUGYFV09C","","null","<img src=""img/flower6.png"" style=""width:200px; border:14px solid green;"">","null","","","","","","","","",""
"","image-keyboard-response","138","76510","0.0-138.0","3Q5C1WP23NNAGNOUR4EUKS4CPOW15I","A1BM57TUNAQIXM","3UDTAB6HH6LRO17U79I9TKUGYFV09C","","810.1000000089407","img/flower5.png","74","810.8999999910593","1","1","1","1","1,0.333,0.333,0.333,1,0.333,0.333,0.333,1","1,0.333,0.333,0.333,1,0.333,0.333,0.333,1","1",""
"","html-keyboard-response","139","76812","0.0-139.0","3Q5C1WP23NNAGNOUR4EUKS4CPOW15I","A1BM57TUNAQIXM","3UDTAB6HH6LRO17U79I9TKUGYFV09C","","null","<img src=""img/flower5.png"" style=""width:200px; border:14px solid green;"">","null","","","","","","","","",""
"","image-keyboard-response","140","77171","0.0-140.0","3Q5C1WP23NNAGNOUR4EUKS4CPOW15I","A1BM57TUNAQIXM","3UDTAB6HH6LRO17U79I9TKUGYFV09C","","356.79999999701977","img/flower5.png","74","358.59999999403954","1","1","1","1","1,0.333,0.333,0.333,1,0.333,0.333,0.333,1","1,0.333,0.333,0.333,1,0.333,0.333,0.333,1","1",""
"","html-keyboard-response","141","77473","0.0-141.0","3Q5C1WP23NNAGNOUR4EUKS4CPOW15I","A1BM57TUNAQIXM","3UDTAB6HH6LRO17U79I9TKUGYFV09C","","null","<img src=""img/flower5.png"" style=""width:200px; border:14px solid green;"">","null","","","","","","","","",""
"","image-keyboard-response","142","77990","0.0-142.0","3Q5C1WP23NNAGNOUR4EUKS4CPOW15I","A1BM57TUNAQIXM","3UDTAB6HH6LRO17U79I9TKUGYFV09C","","516.3000000119209","img/flower1.png","75","517.0999999940395","2","1","2","1","1,0.333,0.333,0.333,1,0.333,0.333,0.333,1","1,0.333,0.333,0.333,1,0.333,0.333,0.333,1","1",""
"","html-keyboard-response","143","78293","0.0-143.0","3Q5C1WP23NNAGNOUR4EUKS4CPOW15I","A1BM57TUNAQIXM","3UDTAB6HH6LRO17U79I9TKUGYFV09C","","null","<img src=""img/flower1.png"" style=""width:200px; border:14px solid green;"">","null","","","","","","","","",""
"","image-keyboard-response","144","78906","0.0-144.0","3Q5C1WP23NNAGNOUR4EUKS4CPOW15I","A1BM57TUNAQIXM","3UDTAB6HH6LRO17U79I9TKUGYFV09C","","611.7999999970198","img/flower6.png","76","613.4000000059605","3","1","3","1","1,0.333,0.333,0.333,1,0.333,0.333,0.333,1","1,0.333,0.333,0.333,1,0.333,0.333,0.333,1","1",""
"","html-keyboard-response","145","79209","0.0-145.0","3Q5C1WP23NNAGNOUR4EUKS4CPOW15I","A1BM57TUNAQIXM","3UDTAB6HH6LRO17U79I9TKUGYFV09C","","null","<img src=""img/flower6.png"" style=""width:200px; border:14px solid green;"">","null","","","","","","","","",""
"","image-keyboard-response","146","79970","0.0-146.0","3Q5C1WP23NNAGNOUR4EUKS4CPOW15I","A1BM57TUNAQIXM","3UDTAB6HH6LRO17U79I9TKUGYFV09C","","758.8000000119209","img/flower5.png","74","760.5","1","1","1","1","1,0.333,0.333,0.333,1,0.333,0.333,0.333,1","1,0.333,0.333,0.333,1,0.333,0.333,0.333,1","1",""
"","html-keyboard-response","147","80272","0.0-147.0","3Q5C1WP23NNAGNOUR4EUKS4CPOW15I","A1BM57TUNAQIXM","3UDTAB6HH6LRO17U79I9TKUGYFV09C","","null","<img src=""img/flower5.png"" style=""width:200px; border:14px solid green;"">","null","","","","","","","","",""
"","image-keyboard-response","148","80584","0.0-148.0","3Q5C1WP23NNAGNOUR4EUKS4CPOW15I","A1BM57TUNAQIXM","3UDTAB6HH6LRO17U79I9TKUGYFV09C","","310.70000000298023","img/flower5.png","74","311.8999999910593","1","1","1","1","1,0.333,0.333,0.333,1,0.333,0.333,0.333,1","1,0.333,0.333,0.333,1,0.333,0.333,0.333,1","1",""
"","html-keyboard-response","149","80887","0.0-149.0","3Q5C1WP23NNAGNOUR4EUKS4CPOW15I","A1BM57TUNAQIXM","3UDTAB6HH6LRO17U79I9TKUGYFV09C","","null","<img src=""img/flower5.png"" style=""width:200px; border:14px solid green;"">","null","","","","","","","","",""
"","image-keyboard-response","150","81228","0.0-150.0","3Q5C1WP23NNAGNOUR4EUKS4CPOW15I","A1BM57TUNAQIXM","3UDTAB6HH6LRO17U79I9TKUGYFV09C","","339.79999999701977","img/flower5.png","74","341.09999999403954","1","1","1","1","1,0.333,0.333,0.333,1,0.333,0.333,0.333,1","1,0.333,0.333,0.333,1,0.333,0.333,0.333,1","1",""
"","html-keyboard-response","151","81531","0.0-151.0","3Q5C1WP23NNAGNOUR4EUKS4CPOW15I","A1BM57TUNAQIXM","3UDTAB6HH6LRO17U79I9TKUGYFV09C","","null","<img src=""img/flower5.png"" style=""width:200px; border:14px solid green;"">","null","","","","","","","","",""
"","image-keyboard-response","152","81778","0.0-152.0","3Q5C1WP23NNAGNOUR4EUKS4CPOW15I","A1BM57TUNAQIXM","3UDTAB6HH6LRO17U79I9TKUGYFV09C","","244.79999999701977","img/flower5.png","74","246.6000000089407","1","1","1","1","1,0.333,0.333,0.333,1,0.333,0.333,0.333,1","1,0.333,0.333,0.333,1,0.333,0.333,0.333,1","1",""
"","html-keyboard-response","153","82081","0.0-153.0","3Q5C1WP23NNAGNOUR4EUKS4CPOW15I","A1BM57TUNAQIXM","3UDTAB6HH6LRO17U79I9TKUGYFV09C","","null","<img src=""img/flower5.png"" style=""width:200px; border:14px solid green;"">","null","","","","","","","","",""
"","image-keyboard-response","154","82812","0.0-154.0","3Q5C1WP23NNAGNOUR4EUKS4CPOW15I","A1BM57TUNAQIXM","3UDTAB6HH6LRO17U79I9TKUGYFV09C","","729","img/flower6.png","76","730.7000000029802","3","1","3","1","1,0.333,0.333,0.333,1,0.333,0.333,0.333,1","1,0.333,0.333,0.333,1,0.333,0.333,0.333,1","1",""
"","html-keyboard-response","155","83114","0.0-155.0","3Q5C1WP23NNAGNOUR4EUKS4CPOW15I","A1BM57TUNAQIXM","3UDTAB6HH6LRO17U79I9TKUGYFV09C","","null","<img src=""img/flower6.png"" style=""width:200px; border:14px solid green;"">","null","","","","","","","","",""
"","image-keyboard-response","156","83633","0.0-156.0","3Q5C1WP23NNAGNOUR4EUKS4CPOW15I","A1BM57TUNAQIXM","3UDTAB6HH6LRO17U79I9TKUGYFV09C","","518.2000000029802","img/flower1.png","75","518.9000000059605","2","1","2","1","1,0.333,0.333,0.333,1,0.333,0.333,0.333,1","1,0.333,0.333,0.333,1,0.333,0.333,0.333,1","1",""
"","html-keyboard-response","157","83935","0.0-157.0","3Q5C1WP23NNAGNOUR4EUKS4CPOW15I","A1BM57TUNAQIXM","3UDTAB6HH6LRO17U79I9TKUGYFV09C","","null","<img src=""img/flower1.png"" style=""width:200px; border:14px solid green;"">","null","","","","","","","","",""
"","image-keyboard-response","158","84264","0.0-158.0","3Q5C1WP23NNAGNOUR4EUKS4CPOW15I","A1BM57TUNAQIXM","3UDTAB6HH6LRO17U79I9TKUGYFV09C","","326.59999999403954","img/flower1.png","75","328.30000001192093","2","1","2","1","1,0.333,0.333,0.333,1,0.333,0.333,0.333,1","1,0.333,0.333,0.333,1,0.333,0.333,0.333,1","1",""
"","html-keyboard-response","159","84566","0.0-159.0","3Q5C1WP23NNAGNOUR4EUKS4CPOW15I","A1BM57TUNAQIXM","3UDTAB6HH6LRO17U79I9TKUGYFV09C","","null","<img src=""img/flower1.png"" style=""width:200px; border:14px solid green;"">","null","","","","","","","","",""
"","image-keyboard-response","160","84910","0.0-160.0","3Q5C1WP23NNAGNOUR4EUKS4CPOW15I","A1BM57TUNAQIXM","3UDTAB6HH6LRO17U79I9TKUGYFV09C","","342.59999999403954","img/flower1.png","75","343.79999999701977","2","1","2","1","1,0.333,0.333,0.333,1,0.333,0.333,0.333,1","1,0.333,0.333,0.333,1,0.333,0.333,0.333,1","1",""
"","html-keyboard-response","161","85212","0.0-161.0","3Q5C1WP23NNAGNOUR4EUKS4CPOW15I","A1BM57TUNAQIXM","3UDTAB6HH6LRO17U79I9TKUGYFV09C","","null","<img src=""img/flower1.png"" style=""width:200px; border:14px solid green;"">","null","","","","","","","","",""
"","image-keyboard-response","162","85825","0.0-162.0","3Q5C1WP23NNAGNOUR4EUKS4CPOW15I","A1BM57TUNAQIXM","3UDTAB6HH6LRO17U79I9TKUGYFV09C","","610.5999999940395","img/flower5.png","74","612.2000000029802","1","1","1","1","1,0.333,0.333,0.333,1,0.333,0.333,0.333,1","1,0.333,0.333,0.333,1,0.333,0.333,0.333,1","1",""
"","html-keyboard-response","163","86128","0.0-163.0","3Q5C1WP23NNAGNOUR4EUKS4CPOW15I","A1BM57TUNAQIXM","3UDTAB6HH6LRO17U79I9TKUGYFV09C","","null","<img src=""img/flower5.png"" style=""width:200px; border:14px solid green;"">","null","","","","","","","","",""
"","image-keyboard-response","164","86506","0.0-164.0","3Q5C1WP23NNAGNOUR4EUKS4CPOW15I","A1BM57TUNAQIXM","3UDTAB6HH6LRO17U79I9TKUGYFV09C","","376.5","img/flower5.png","74","377.90000000596046","1","1","1","1","1,0.333,0.333,0.333,1,0.333,0.333,0.333,1","1,0.333,0.333,0.333,1,0.333,0.333,0.333,1","1",""
"","html-keyboard-response","165","86809","0.0-165.0","3Q5C1WP23NNAGNOUR4EUKS4CPOW15I","A1BM57TUNAQIXM","3UDTAB6HH6LRO17U79I9TKUGYFV09C","","null","<img src=""img/flower5.png"" style=""width:200px; border:14px solid green;"">","null","","","","","","","","",""
"","image-keyboard-response","166","87281","0.0-166.0","3Q5C1WP23NNAGNOUR4EUKS4CPOW15I","A1BM57TUNAQIXM","3UDTAB6HH6LRO17U79I9TKUGYFV09C","","470","img/flower6.png","76","471.79999999701977","3","1","3","1","1,0.333,0.333,0.333,1,0.333,0.333,0.333,1","1,0.333,0.333,0.333,1,0.333,0.333,0.333,1","1",""
"","html-keyboard-response","167","87584","0.0-167.0","3Q5C1WP23NNAGNOUR4EUKS4CPOW15I","A1BM57TUNAQIXM","3UDTAB6HH6LRO17U79I9TKUGYFV09C","","null","<img src=""img/flower6.png"" style=""width:200px; border:14px solid green;"">","null","","","","","","","","",""
"","image-keyboard-response","168","88187","0.0-168.0","3Q5C1WP23NNAGNOUR4EUKS4CPOW15I","A1BM57TUNAQIXM","3UDTAB6HH6LRO17U79I9TKUGYFV09C","","602.7999999970198","img/flower1.png","75","603.5","2","1","2","1","1,0.333,0.333,0.333,1,0.333,0.333,0.333,1","1,0.333,0.333,0.333,1,0.333,0.333,0.333,1","1",""
"","html-keyboard-response","169","88490","0.0-169.0","3Q5C1WP23NNAGNOUR4EUKS4CPOW15I","A1BM57TUNAQIXM","3UDTAB6HH6LRO17U79I9TKUGYFV09C","","null","<img src=""img/flower1.png"" style=""width:200px; border:14px solid green;"">","null","","","","","","","","",""
"","image-keyboard-response","170","89759","0.0-170.0","3Q5C1WP23NNAGNOUR4EUKS4CPOW15I","A1BM57TUNAQIXM","3UDTAB6HH6LRO17U79I9TKUGYFV09C","","1267","img/flower5.png","75","1268.2000000029802","2","1","1","1","1,0.333,0.333,0.333,1,0.333,0.333,0.333,1","1,0.333,0.333,0.333,1,0.333,0.333,0.333,1","1",""
"","html-keyboard-response","171","90060","0.0-171.0","3Q5C1WP23NNAGNOUR4EUKS4CPOW15I","A1BM57TUNAQIXM","3UDTAB6HH6LRO17U79I9TKUGYFV09C","","null","<img src=""img/flower5.png"" style=""width:200px; border:14px solid green;"">","null","","","","","","","","",""
"","image-keyboard-response","172","90733","0.0-172.0","3Q5C1WP23NNAGNOUR4EUKS4CPOW15I","A1BM57TUNAQIXM","3UDTAB6HH6LRO17U79I9TKUGYFV09C","","671","img/flower6.png","76","672.9000000059605","3","1","3","1","1,0.333,0.333,0.333,1,0.333,0.333,0.333,1","1,0.333,0.333,0.333,1,0.333,0.333,0.333,1","1",""
"","html-keyboard-response","173","91036","0.0-173.0","3Q5C1WP23NNAGNOUR4EUKS4CPOW15I","A1BM57TUNAQIXM","3UDTAB6HH6LRO17U79I9TKUGYFV09C","","null","<img src=""img/flower6.png"" style=""width:200px; border:14px solid green;"">","null","","","","","","","","",""
"","image-keyboard-response","174","92051","0.0-174.0","3Q5C1WP23NNAGNOUR4EUKS4CPOW15I","A1BM57TUNAQIXM","3UDTAB6HH6LRO17U79I9TKUGYFV09C","","1013.3000000119209","img/flower1.png","75","1014.9000000059605","2","1","2","1","1,0.333,0.333,0.333,1,0.333,0.333,0.333,1","1,0.333,0.333,0.333,1,0.333,0.333,0.333,1","1",""
"","html-keyboard-response","175","92354","0.0-175.0","3Q5C1WP23NNAGNOUR4EUKS4CPOW15I","A1BM57TUNAQIXM","3UDTAB6HH6LRO17U79I9TKUGYFV09C","","null","<img src=""img/flower1.png"" style=""width:200px; border:14px solid green;"">","null","","","","","","","","",""
"","image-keyboard-response","176","92679","0.0-176.0","3Q5C1WP23NNAGNOUR4EUKS4CPOW15I","A1BM57TUNAQIXM","3UDTAB6HH6LRO17U79I9TKUGYFV09C","","324","img/flower1.png","75","324.59999999403954","2","1","2","1","1,0.333,0.333,0.333,1,0.333,0.333,0.333,1","1,0.333,0.333,0.333,1,0.333,0.333,0.333,1","1",""
"","html-keyboard-response","177","92980","0.0-177.0","3Q5C1WP23NNAGNOUR4EUKS4CPOW15I","A1BM57TUNAQIXM","3UDTAB6HH6LRO17U79I9TKUGYFV09C","","null","<img src=""img/flower1.png"" style=""width:200px; border:14px solid green;"">","null","","","","","","","","",""
"","image-keyboard-response","178","93330","0.0-178.0","3Q5C1WP23NNAGNOUR4EUKS4CPOW15I","A1BM57TUNAQIXM","3UDTAB6HH6LRO17U79I9TKUGYFV09C","","347.79999999701977","img/flower1.png","75","349.5","2","1","2","1","1,0.333,0.333,0.333,1,0.333,0.333,0.333,1","1,0.333,0.333,0.333,1,0.333,0.333,0.333,1","1",""
"","html-keyboard-response","179","93633","0.0-179.0","3Q5C1WP23NNAGNOUR4EUKS4CPOW15I","A1BM57TUNAQIXM","3UDTAB6HH6LRO17U79I9TKUGYFV09C","","null","<img src=""img/flower1.png"" style=""width:200px; border:14px solid green;"">","null","","","","","","","","",""
"","image-keyboard-response","180","94320","0.0-180.0","3Q5C1WP23NNAGNOUR4EUKS4CPOW15I","A1BM57TUNAQIXM","3UDTAB6HH6LRO17U79I9TKUGYFV09C","","686.3000000119209","img/flower5.png","76","687.2000000029802","3","0","1","1","1,0.333,0.333,0.333,1,0.333,0.333,0.333,1","1,0.333,0.333,0.333,1,0.333,0.333,0.333,1","1",""
"","html-keyboard-response","181","94627","0.0-181.0","3Q5C1WP23NNAGNOUR4EUKS4CPOW15I","A1BM57TUNAQIXM","3UDTAB6HH6LRO17U79I9TKUGYFV09C","","null","<img src=""img/flower5.png"" style=""width:200px;border:14px solid red;"">","null","","","","","","","","",""
"","html-keyboard-response","182","97243","0.0-182.0","3Q5C1WP23NNAGNOUR4EUKS4CPOW15I","A1BM57TUNAQIXM","3UDTAB6HH6LRO17U79I9TKUGYFV09C","","","","","","","","","","","","",""
"","image-keyboard-response","183","98331","0.0-183.0","3Q5C1WP23NNAGNOUR4EUKS4CPOW15I","A1BM57TUNAQIXM","3UDTAB6HH6LRO17U79I9TKUGYFV09C","","1086.4000000059605","img/flower3.png","76","1087.6000000089407","3","1","2","2","1,0,0,1,1,0,1,0,1","0,0,1,1,0,1,0,1,1","2",""
"","html-keyboard-response","184","98633","0.0-184.0","3Q5C1WP23NNAGNOUR4EUKS4CPOW15I","A1BM57TUNAQIXM","3UDTAB6HH6LRO17U79I9TKUGYFV09C","","null","<img src=""img/flower3.png"" style=""width:200px; border:14px solid green;"">","null","","","","","","","","",""
"","image-keyboard-response","185","99334","0.0-185.0","3Q5C1WP23NNAGNOUR4EUKS4CPOW15I","A1BM57TUNAQIXM","3UDTAB6HH6LRO17U79I9TKUGYFV09C","","699.1000000089407","img/flower2.png","75","700.5","2","0","1","2","1,0,0,1,1,0,1,0,1","0,0,1,1,0,1,0,1,1","2",""
"","html-keyboard-response","186","99637","0.0-186.0","3Q5C1WP23NNAGNOUR4EUKS4CPOW15I","A1BM57TUNAQIXM","3UDTAB6HH6LRO17U79I9TKUGYFV09C","","null","<img src=""img/flower2.png"" style=""width:200px;border:14px solid red;"">","null","","","","","","","","",""
"","image-keyboard-response","187","100169","0.0-187.0","3Q5C1WP23NNAGNOUR4EUKS4CPOW15I","A1BM57TUNAQIXM","3UDTAB6HH6LRO17U79I9TKUGYFV09C","","530.6000000089407","img/flower3.png","76","531.5","3","1","2","2","1,0,0,1,1,0,1,0,1","0,0,1,1,0,1,0,1,1","2",""
"","html-keyboard-response","188","100472","0.0-188.0","3Q5C1WP23NNAGNOUR4EUKS4CPOW15I","A1BM57TUNAQIXM","3UDTAB6HH6LRO17U79I9TKUGYFV09C","","null","<img src=""img/flower3.png"" style=""width:200px; border:14px solid green;"">","null","","","","","","","","",""
"","image-keyboard-response","189","101273","0.0-189.0","3Q5C1WP23NNAGNOUR4EUKS4CPOW15I","A1BM57TUNAQIXM","3UDTAB6HH6LRO17U79I9TKUGYFV09C","","798.5999999940395","img/flower4.png","74","800.5999999940395","1","0","3","2","1,0,0,1,1,0,1,0,1","0,0,1,1,0,1,0,1,1","2",""
"","html-keyboard-response","190","101576","0.0-190.0","3Q5C1WP23NNAGNOUR4EUKS4CPOW15I","A1BM57TUNAQIXM","3UDTAB6HH6LRO17U79I9TKUGYFV09C","","null","<img src=""img/flower4.png"" style=""width:200px;border:14px solid red;"">","null","","","","","","","","",""
"","image-keyboard-response","191","102285","0.0-191.0","3Q5C1WP23NNAGNOUR4EUKS4CPOW15I","A1BM57TUNAQIXM","3UDTAB6HH6LRO17U79I9TKUGYFV09C","","707","img/flower2.png","74","708.5","1","0","1","2","1,0,0,1,1,0,1,0,1","0,0,1,1,0,1,0,1,1","2",""
"","html-keyboard-response","192","102592","0.0-192.0","3Q5C1WP23NNAGNOUR4EUKS4CPOW15I","A1BM57TUNAQIXM","3UDTAB6HH6LRO17U79I9TKUGYFV09C","","null","<img src=""img/flower2.png"" style=""width:200px;border:14px solid red;"">","null","","","","","","","","",""
"","image-keyboard-response","193","103391","0.0-193.0","3Q5C1WP23NNAGNOUR4EUKS4CPOW15I","A1BM57TUNAQIXM","3UDTAB6HH6LRO17U79I9TKUGYFV09C","","798.4000000059605","img/flower4.png","74","799.2999999970198","1","0","3","2","1,0,0,1,1,0,1,0,1","0,0,1,1,0,1,0,1,1","2",""
"","html-keyboard-response","194","103694","0.0-194.0","3Q5C1WP23NNAGNOUR4EUKS4CPOW15I","A1BM57TUNAQIXM","3UDTAB6HH6LRO17U79I9TKUGYFV09C","","null","<img src=""img/flower4.png"" style=""width:200px;border:14px solid red;"">","null","","","","","","","","",""
"","image-keyboard-response","195","104246","0.0-195.0","3Q5C1WP23NNAGNOUR4EUKS4CPOW15I","A1BM57TUNAQIXM","3UDTAB6HH6LRO17U79I9TKUGYFV09C","","550.7000000029802","img/flower2.png","74","551.7999999970198","1","0","1","2","1,0,0,1,1,0,1,0,1","0,0,1,1,0,1,0,1,1","2",""
"","html-keyboard-response","196","104549","0.0-196.0","3Q5C1WP23NNAGNOUR4EUKS4CPOW15I","A1BM57TUNAQIXM","3UDTAB6HH6LRO17U79I9TKUGYFV09C","","null","<img src=""img/flower2.png"" style=""width:200px;border:14px solid red;"">","null","","","","","","","","",""
"","image-keyboard-response","197","105053","0.0-197.0","3Q5C1WP23NNAGNOUR4EUKS4CPOW15I","A1BM57TUNAQIXM","3UDTAB6HH6LRO17U79I9TKUGYFV09C","","502.90000000596046","img/flower3.png","74","503.59999999403954","1","1","2","2","1,0,0,1,1,0,1,0,1","0,0,1,1,0,1,0,1,1","2",""
"","html-keyboard-response","198","105354","0.0-198.0","3Q5C1WP23NNAGNOUR4EUKS4CPOW15I","A1BM57TUNAQIXM","3UDTAB6HH6LRO17U79I9TKUGYFV09C","","null","<img src=""img/flower3.png"" style=""width:200px; border:14px solid green;"">","null","","","","","","","","",""
"","image-keyboard-response","199","105648","0.0-199.0","3Q5C1WP23NNAGNOUR4EUKS4CPOW15I","A1BM57TUNAQIXM","3UDTAB6HH6LRO17U79I9TKUGYFV09C","","293.20000000298023","img/flower3.png","74","294","1","1","2","2","1,0,0,1,1,0,1,0,1","0,0,1,1,0,1,0,1,1","2",""
"","html-keyboard-response","200","105950","0.0-200.0","3Q5C1WP23NNAGNOUR4EUKS4CPOW15I","A1BM57TUNAQIXM","3UDTAB6HH6LRO17U79I9TKUGYFV09C","","null","<img src=""img/flower3.png"" style=""width:200px; border:14px solid green;"">","null","","","","","","","","",""
"","image-keyboard-response","201","106574","0.0-201.0","3Q5C1WP23NNAGNOUR4EUKS4CPOW15I","A1BM57TUNAQIXM","3UDTAB6HH6LRO17U79I9TKUGYFV09C","","621.7999999970198","img/flower4.png","75","623.6000000089407","2","1","3","2","1,0,0,1,1,0,1,0,1","0,0,1,1,0,1,0,1,1","2",""
"","html-keyboard-response","202","106877","0.0-202.0","3Q5C1WP23NNAGNOUR4EUKS4CPOW15I","A1BM57TUNAQIXM","3UDTAB6HH6LRO17U79I9TKUGYFV09C","","null","<img src=""img/flower4.png"" style=""width:200px; border:14px solid green;"">","null","","","","","","","","",""
"","image-keyboard-response","203","107383","0.0-203.0","3Q5C1WP23NNAGNOUR4EUKS4CPOW15I","A1BM57TUNAQIXM","3UDTAB6HH6LRO17U79I9TKUGYFV09C","","504.70000000298023","img/flower3.png","74","506.1000000089407","1","1","2","2","1,0,0,1,1,0,1,0,1","0,0,1,1,0,1,0,1,1","2",""
"","html-keyboard-response","204","107686","0.0-204.0","3Q5C1WP23NNAGNOUR4EUKS4CPOW15I","A1BM57TUNAQIXM","3UDTAB6HH6LRO17U79I9TKUGYFV09C","","null","<img src=""img/flower3.png"" style=""width:200px; border:14px solid green;"">","null","","","","","","","","",""
"","image-keyboard-response","205","108104","0.0-205.0","3Q5C1WP23NNAGNOUR4EUKS4CPOW15I","A1BM57TUNAQIXM","3UDTAB6HH6LRO17U79I9TKUGYFV09C","","417.20000000298023","img/flower4.png","75","418.1000000089407","2","1","3","2","1,0,0,1,1,0,1,0,1","0,0,1,1,0,1,0,1,1","2",""
"","html-keyboard-response","206","108407","0.0-206.0","3Q5C1WP23NNAGNOUR4EUKS4CPOW15I","A1BM57TUNAQIXM","3UDTAB6HH6LRO17U79I9TKUGYFV09C","","null","<img src=""img/flower4.png"" style=""width:200px; border:14px solid green;"">","null","","","","","","","","",""
"","image-keyboard-response","207","108816","0.0-207.0","3Q5C1WP23NNAGNOUR4EUKS4CPOW15I","A1BM57TUNAQIXM","3UDTAB6HH6LRO17U79I9TKUGYFV09C","","407.59999999403954","img/flower4.png","75","409.1000000089407","2","1","3","2","1,0,0,1,1,0,1,0,1","0,0,1,1,0,1,0,1,1","2",""
"","html-keyboard-response","208","109132","0.0-208.0","3Q5C1WP23NNAGNOUR4EUKS4CPOW15I","A1BM57TUNAQIXM","3UDTAB6HH6LRO17U79I9TKUGYFV09C","","null","<img src=""img/flower4.png"" style=""width:200px; border:14px solid green;"">","null","","","","","","","","",""
"","image-keyboard-response","209","109535","0.0-209.0","3Q5C1WP23NNAGNOUR4EUKS4CPOW15I","A1BM57TUNAQIXM","3UDTAB6HH6LRO17U79I9TKUGYFV09C","","400.5","img/flower2.png","76","402.8999999910593","3","1","1","2","1,0,0,1,1,0,1,0,1","0,0,1,1,0,1,0,1,1","2",""
"","html-keyboard-response","210","109838","0.0-210.0","3Q5C1WP23NNAGNOUR4EUKS4CPOW15I","A1BM57TUNAQIXM","3UDTAB6HH6LRO17U79I9TKUGYFV09C","","null","<img src=""img/flower2.png"" style=""width:200px; border:14px solid green;"">","null","","","","","","","","",""
"","image-keyboard-response","211","110563","0.0-211.0","3Q5C1WP23NNAGNOUR4EUKS4CPOW15I","A1BM57TUNAQIXM","3UDTAB6HH6LRO17U79I9TKUGYFV09C","","724.8000000119209","img/flower4.png","75","725.7999999970198","2","1","3","2","1,0,0,1,1,0,1,0,1","0,0,1,1,0,1,0,1,1","2",""
"","html-keyboard-response","212","110866","0.0-212.0","3Q5C1WP23NNAGNOUR4EUKS4CPOW15I","A1BM57TUNAQIXM","3UDTAB6HH6LRO17U79I9TKUGYFV09C","","null","<img src=""img/flower4.png"" style=""width:200px; border:14px solid green;"">","null","","","","","","","","",""
"","image-keyboard-response","213","111202","0.0-213.0","3Q5C1WP23NNAGNOUR4EUKS4CPOW15I","A1BM57TUNAQIXM","3UDTAB6HH6LRO17U79I9TKUGYFV09C","","333.29999999701977","img/flower4.png","75","335","2","1","3","2","1,0,0,1,1,0,1,0,1","0,0,1,1,0,1,0,1,1","2",""
"","html-keyboard-response","214","111505","0.0-214.0","3Q5C1WP23NNAGNOUR4EUKS4CPOW15I","A1BM57TUNAQIXM","3UDTAB6HH6LRO17U79I9TKUGYFV09C","","null","<img src=""img/flower4.png"" style=""width:200px; border:14px solid green;"">","null","","","","","","","","",""
"","image-keyboard-response","215","111994","0.0-215.0","3Q5C1WP23NNAGNOUR4EUKS4CPOW15I","A1BM57TUNAQIXM","3UDTAB6HH6LRO17U79I9TKUGYFV09C","","487.90000000596046","img/flower2.png","76","488.90000000596046","3","1","1","2","1,0,0,1,1,0,1,0,1","0,0,1,1,0,1,0,1,1","2",""
"","html-keyboard-response","216","112297","0.0-216.0","3Q5C1WP23NNAGNOUR4EUKS4CPOW15I","A1BM57TUNAQIXM","3UDTAB6HH6LRO17U79I9TKUGYFV09C","","null","<img src=""img/flower2.png"" style=""width:200px; border:14px solid green;"">","null","","","","","","","","",""
"","image-keyboard-response","217","112798","0.0-217.0","3Q5C1WP23NNAGNOUR4EUKS4CPOW15I","A1BM57TUNAQIXM","3UDTAB6HH6LRO17U79I9TKUGYFV09C","","499.40000000596046","img/flower3.png","74","503.20000000298023","1","1","2","2","1,0,0,1,1,0,1,0,1","0,0,1,1,0,1,0,1,1","2",""
"","html-keyboard-response","218","113104","0.0-218.0","3Q5C1WP23NNAGNOUR4EUKS4CPOW15I","A1BM57TUNAQIXM","3UDTAB6HH6LRO17U79I9TKUGYFV09C","","null","<img src=""img/flower3.png"" style=""width:200px; border:14px solid green;"">","null","","","","","","","","",""
"","image-keyboard-response","219","113398","0.0-219.0","3Q5C1WP23NNAGNOUR4EUKS4CPOW15I","A1BM57TUNAQIXM","3UDTAB6HH6LRO17U79I9TKUGYFV09C","","291.79999999701977","img/flower3.png","74","293.40000000596046","1","1","2","2","1,0,0,1,1,0,1,0,1","0,0,1,1,0,1,0,1,1","2",""
"","html-keyboard-response","220","113700","0.0-220.0","3Q5C1WP23NNAGNOUR4EUKS4CPOW15I","A1BM57TUNAQIXM","3UDTAB6HH6LRO17U79I9TKUGYFV09C","","null","<img src=""img/flower3.png"" style=""width:200px; border:14px solid green;"">","null","","","","","","","","",""
"","image-keyboard-response","221","114212","0.0-221.0","3Q5C1WP23NNAGNOUR4EUKS4CPOW15I","A1BM57TUNAQIXM","3UDTAB6HH6LRO17U79I9TKUGYFV09C","","511.59999999403954","img/flower4.png","75","512.8000000119209","2","1","3","2","1,0,0,1,1,0,1,0,1","0,0,1,1,0,1,0,1,1","2",""
"","html-keyboard-response","222","114516","0.0-222.0","3Q5C1WP23NNAGNOUR4EUKS4CPOW15I","A1BM57TUNAQIXM","3UDTAB6HH6LRO17U79I9TKUGYFV09C","","null","<img src=""img/flower4.png"" style=""width:200px; border:14px solid green;"">","null","","","","","","","","",""
"","image-keyboard-response","223","114946","0.0-223.0","3Q5C1WP23NNAGNOUR4EUKS4CPOW15I","A1BM57TUNAQIXM","3UDTAB6HH6LRO17U79I9TKUGYFV09C","","428.79999999701977","img/flower2.png","76","430.20000000298023","3","1","1","2","1,0,0,1,1,0,1,0,1","0,0,1,1,0,1,0,1,1","2",""
"","html-keyboard-response","224","115249","0.0-224.0","3Q5C1WP23NNAGNOUR4EUKS4CPOW15I","A1BM57TUNAQIXM","3UDTAB6HH6LRO17U79I9TKUGYFV09C","","null","<img src=""img/flower2.png"" style=""width:200px; border:14px solid green;"">","null","","","","","","","","",""
"","image-keyboard-response","225","115738","0.0-225.0","3Q5C1WP23NNAGNOUR4EUKS4CPOW15I","A1BM57TUNAQIXM","3UDTAB6HH6LRO17U79I9TKUGYFV09C","","487.5","img/flower4.png","75","489.09999999403954","2","1","3","2","1,0,0,1,1,0,1,0,1","0,0,1,1,0,1,0,1,1","2",""
"","html-keyboard-response","226","116041","0.0-226.0","3Q5C1WP23NNAGNOUR4EUKS4CPOW15I","A1BM57TUNAQIXM","3UDTAB6HH6LRO17U79I9TKUGYFV09C","","null","<img src=""img/flower4.png"" style=""width:200px; border:14px solid green;"">","null","","","","","","","","",""
"","image-keyboard-response","227","116373","0.0-227.0","3Q5C1WP23NNAGNOUR4EUKS4CPOW15I","A1BM57TUNAQIXM","3UDTAB6HH6LRO17U79I9TKUGYFV09C","","329.90000000596046","img/flower4.png","75","331.70000000298023","2","1","3","2","1,0,0,1,1,0,1,0,1","0,0,1,1,0,1,0,1,1","2",""
"","html-keyboard-response","228","116676","0.0-228.0","3Q5C1WP23NNAGNOUR4EUKS4CPOW15I","A1BM57TUNAQIXM","3UDTAB6HH6LRO17U79I9TKUGYFV09C","","null","<img src=""img/flower4.png"" style=""width:200px; border:14px solid green;"">","null","","","","","","","","",""
"","image-keyboard-response","229","117145","0.0-229.0","3Q5C1WP23NNAGNOUR4EUKS4CPOW15I","A1BM57TUNAQIXM","3UDTAB6HH6LRO17U79I9TKUGYFV09C","","468.3999999910593","img/flower3.png","76","469","3","1","2","2","1,0,0,1,1,0,1,0,1","0,0,1,1,0,1,0,1,1","2",""
"","html-keyboard-response","230","117447","0.0-230.0","3Q5C1WP23NNAGNOUR4EUKS4CPOW15I","A1BM57TUNAQIXM","3UDTAB6HH6LRO17U79I9TKUGYFV09C","","null","<img src=""img/flower3.png"" style=""width:200px; border:14px solid green;"">","null","","","","","","","","",""
"","image-keyboard-response","231","117950","0.0-231.0","3Q5C1WP23NNAGNOUR4EUKS4CPOW15I","A1BM57TUNAQIXM","3UDTAB6HH6LRO17U79I9TKUGYFV09C","","500.3999999910593","img/flower4.png","75","502.59999999403954","2","1","3","2","1,0,0,1,1,0,1,0,1","0,0,1,1,0,1,0,1,1","2",""
"","html-keyboard-response","232","118252","0.0-232.0","3Q5C1WP23NNAGNOUR4EUKS4CPOW15I","A1BM57TUNAQIXM","3UDTAB6HH6LRO17U79I9TKUGYFV09C","","null","<img src=""img/flower4.png"" style=""width:200px; border:14px solid green;"">","null","","","","","","","","",""
"","image-keyboard-response","233","118774","0.0-233.0","3Q5C1WP23NNAGNOUR4EUKS4CPOW15I","A1BM57TUNAQIXM","3UDTAB6HH6LRO17U79I9TKUGYFV09C","","519.8000000119209","img/flower3.png","76","521.2999999970198","3","1","2","2","1,0,0,1,1,0,1,0,1","0,0,1,1,0,1,0,1,1","2",""
"","html-keyboard-response","234","119074","0.0-234.0","3Q5C1WP23NNAGNOUR4EUKS4CPOW15I","A1BM57TUNAQIXM","3UDTAB6HH6LRO17U79I9TKUGYFV09C","","null","<img src=""img/flower3.png"" style=""width:200px; border:14px solid green;"">","null","","","","","","","","",""
"","image-keyboard-response","235","119421","0.0-235.0","3Q5C1WP23NNAGNOUR4EUKS4CPOW15I","A1BM57TUNAQIXM","3UDTAB6HH6LRO17U79I9TKUGYFV09C","","346.29999999701977","img/flower3.png","76","346.79999999701977","3","1","2","2","1,0,0,1,1,0,1,0,1","0,0,1,1,0,1,0,1,1","2",""
"","html-keyboard-response","236","119723","0.0-236.0","3Q5C1WP23NNAGNOUR4EUKS4CPOW15I","A1BM57TUNAQIXM","3UDTAB6HH6LRO17U79I9TKUGYFV09C","","null","<img src=""img/flower3.png"" style=""width:200px; border:14px solid green;"">","null","","","","","","","","",""
"","image-keyboard-response","237","120124","0.0-237.0","3Q5C1WP23NNAGNOUR4EUKS4CPOW15I","A1BM57TUNAQIXM","3UDTAB6HH6LRO17U79I9TKUGYFV09C","","399.09999999403954","img/flower2.png","74","400.8999999910593","1","0","1","2","1,0,0,1,1,0,1,0,1","0,0,1,1,0,1,0,1,1","2",""
"","html-keyboard-response","238","120427","0.0-238.0","3Q5C1WP23NNAGNOUR4EUKS4CPOW15I","A1BM57TUNAQIXM","3UDTAB6HH6LRO17U79I9TKUGYFV09C","","null","<img src=""img/flower2.png"" style=""width:200px;border:14px solid red;"">","null","","","","","","","","",""
"","image-keyboard-response","239","120686","0.0-239.0","3Q5C1WP23NNAGNOUR4EUKS4CPOW15I","A1BM57TUNAQIXM","3UDTAB6HH6LRO17U79I9TKUGYFV09C","","256.90000000596046","img/flower2.png","74","258.20000000298023","1","0","1","2","1,0,0,1,1,0,1,0,1","0,0,1,1,0,1,0,1,1","2",""
"","html-keyboard-response","240","120988","0.0-240.0","3Q5C1WP23NNAGNOUR4EUKS4CPOW15I","A1BM57TUNAQIXM","3UDTAB6HH6LRO17U79I9TKUGYFV09C","","null","<img src=""img/flower2.png"" style=""width:200px;border:14px solid red;"">","null","","","","","","","","",""
"","image-keyboard-response","241","121615","0.0-241.0","3Q5C1WP23NNAGNOUR4EUKS4CPOW15I","A1BM57TUNAQIXM","3UDTAB6HH6LRO17U79I9TKUGYFV09C","","624.2999999970198","img/flower4.png","75","626.1000000089407","2","1","3","2","1,0,0,1,1,0,1,0,1","0,0,1,1,0,1,0,1,1","2",""
"","html-keyboard-response","242","121918","0.0-242.0","3Q5C1WP23NNAGNOUR4EUKS4CPOW15I","A1BM57TUNAQIXM","3UDTAB6HH6LRO17U79I9TKUGYFV09C","","null","<img src=""img/flower4.png"" style=""width:200px; border:14px solid green;"">","null","","","","","","","","",""
"","image-keyboard-response","243","122672","0.0-243.0","3Q5C1WP23NNAGNOUR4EUKS4CPOW15I","A1BM57TUNAQIXM","3UDTAB6HH6LRO17U79I9TKUGYFV09C","","751.6999999880791","img/flower3.png","75","753","2","0","2","2","1,0,0,1,1,0,1,0,1","0,0,1,1,0,1,0,1,1","2",""
"","html-keyboard-response","244","122974","0.0-244.0","3Q5C1WP23NNAGNOUR4EUKS4CPOW15I","A1BM57TUNAQIXM","3UDTAB6HH6LRO17U79I9TKUGYFV09C","","null","<img src=""img/flower3.png"" style=""width:200px;border:14px solid red;"">","null","","","","","","","","",""
"","image-keyboard-response","245","123577","0.0-245.0","3Q5C1WP23NNAGNOUR4EUKS4CPOW15I","A1BM57TUNAQIXM","3UDTAB6HH6LRO17U79I9TKUGYFV09C","","600.5999999940395","img/flower2.png","74","602.5","1","0","1","2","1,0,0,1,1,0,1,0,1","0,0,1,1,0,1,0,1,1","2",""
"","html-keyboard-response","246","123879","0.0-246.0","3Q5C1WP23NNAGNOUR4EUKS4CPOW15I","A1BM57TUNAQIXM","3UDTAB6HH6LRO17U79I9TKUGYFV09C","","null","<img src=""img/flower2.png"" style=""width:200px;border:14px solid red;"">","null","","","","","","","","",""
"","image-keyboard-response","247","124844","0.0-247.0","3Q5C1WP23NNAGNOUR4EUKS4CPOW15I","A1BM57TUNAQIXM","3UDTAB6HH6LRO17U79I9TKUGYFV09C","","963.3999999910593","img/flower4.png","76","964.8000000119209","3","1","3","2","1,0,0,1,1,0,1,0,1","0,0,1,1,0,1,0,1,1","2",""
"","html-keyboard-response","248","125146","0.0-248.0","3Q5C1WP23NNAGNOUR4EUKS4CPOW15I","A1BM57TUNAQIXM","3UDTAB6HH6LRO17U79I9TKUGYFV09C","","null","<img src=""img/flower4.png"" style=""width:200px; border:14px solid green;"">","null","","","","","","","","",""
"","image-keyboard-response","249","125785","0.0-249.0","3Q5C1WP23NNAGNOUR4EUKS4CPOW15I","A1BM57TUNAQIXM","3UDTAB6HH6LRO17U79I9TKUGYFV09C","","637.2999999970198","img/flower3.png","76","638.2000000029802","3","1","2","2","1,0,0,1,1,0,1,0,1","0,0,1,1,0,1,0,1,1","2",""
"","html-keyboard-response","250","126087","0.0-250.0","3Q5C1WP23NNAGNOUR4EUKS4CPOW15I","A1BM57TUNAQIXM","3UDTAB6HH6LRO17U79I9TKUGYFV09C","","null","<img src=""img/flower3.png"" style=""width:200px; border:14px solid green;"">","null","","","","","","","","",""
"","image-keyboard-response","251","126633","0.0-251.0","3Q5C1WP23NNAGNOUR4EUKS4CPOW15I","A1BM57TUNAQIXM","3UDTAB6HH6LRO17U79I9TKUGYFV09C","","544.2999999970198","img/flower2.png","76","546.1000000089407","3","1","1","2","1,0,0,1,1,0,1,0,1","0,0,1,1,0,1,0,1,1","2",""
"","html-keyboard-response","252","126936","0.0-252.0","3Q5C1WP23NNAGNOUR4EUKS4CPOW15I","A1BM57TUNAQIXM","3UDTAB6HH6LRO17U79I9TKUGYFV09C","","null","<img src=""img/flower2.png"" style=""width:200px; border:14px solid green;"">","null","","","","","","","","",""
"","image-keyboard-response","253","127290","0.0-253.0","3Q5C1WP23NNAGNOUR4EUKS4CPOW15I","A1BM57TUNAQIXM","3UDTAB6HH6LRO17U79I9TKUGYFV09C","","351.5","img/flower2.png","76","353.40000000596046","3","1","1","2","1,0,0,1,1,0,1,0,1","0,0,1,1,0,1,0,1,1","2",""
"","html-keyboard-response","254","127594","0.0-254.0","3Q5C1WP23NNAGNOUR4EUKS4CPOW15I","A1BM57TUNAQIXM","3UDTAB6HH6LRO17U79I9TKUGYFV09C","","null","<img src=""img/flower2.png"" style=""width:200px; border:14px solid green;"">","null","","","","","","","","",""
"","image-keyboard-response","255","127896","0.0-255.0","3Q5C1WP23NNAGNOUR4EUKS4CPOW15I","A1BM57TUNAQIXM","3UDTAB6HH6LRO17U79I9TKUGYFV09C","","299.90000000596046","img/flower2.png","76","301.59999999403954","3","1","1","2","1,0,0,1,1,0,1,0,1","0,0,1,1,0,1,0,1,1","2",""
"","html-keyboard-response","256","128200","0.0-256.0","3Q5C1WP23NNAGNOUR4EUKS4CPOW15I","A1BM57TUNAQIXM","3UDTAB6HH6LRO17U79I9TKUGYFV09C","","null","<img src=""img/flower2.png"" style=""width:200px; border:14px solid green;"">","null","","","","","","","","",""
"","image-keyboard-response","257","128750","0.0-257.0","3Q5C1WP23NNAGNOUR4EUKS4CPOW15I","A1BM57TUNAQIXM","3UDTAB6HH6LRO17U79I9TKUGYFV09C","","548.2999999970198","img/flower4.png","75","549.5999999940395","2","1","3","2","1,0,0,1,1,0,1,0,1","0,0,1,1,0,1,0,1,1","2",""
"","html-keyboard-response","258","129051","0.0-258.0","3Q5C1WP23NNAGNOUR4EUKS4CPOW15I","A1BM57TUNAQIXM","3UDTAB6HH6LRO17U79I9TKUGYFV09C","","null","<img src=""img/flower4.png"" style=""width:200px; border:14px solid green;"">","null","","","","","","","","",""
"","image-keyboard-response","259","129634","0.0-259.0","3Q5C1WP23NNAGNOUR4EUKS4CPOW15I","A1BM57TUNAQIXM","3UDTAB6HH6LRO17U79I9TKUGYFV09C","","581.0999999940395","img/flower3.png","76","582.5","3","1","2","2","1,0,0,1,1,0,1,0,1","0,0,1,1,0,1,0,1,1","2",""
"","html-keyboard-response","260","129937","0.0-260.0","3Q5C1WP23NNAGNOUR4EUKS4CPOW15I","A1BM57TUNAQIXM","3UDTAB6HH6LRO17U79I9TKUGYFV09C","","null","<img src=""img/flower3.png"" style=""width:200px; border:14px solid green;"">","null","","","","","","","","",""
"","image-keyboard-response","261","130438","0.0-261.0","3Q5C1WP23NNAGNOUR4EUKS4CPOW15I","A1BM57TUNAQIXM","3UDTAB6HH6LRO17U79I9TKUGYFV09C","","499.20000000298023","img/flower4.png","75","500.5","2","1","3","2","1,0,0,1,1,0,1,0,1","0,0,1,1,0,1,0,1,1","2",""
"","html-keyboard-response","262","130740","0.0-262.0","3Q5C1WP23NNAGNOUR4EUKS4CPOW15I","A1BM57TUNAQIXM","3UDTAB6HH6LRO17U79I9TKUGYFV09C","","null","<img src=""img/flower4.png"" style=""width:200px; border:14px solid green;"">","null","","","","","","","","",""
"","image-keyboard-response","263","131154","0.0-263.0","3Q5C1WP23NNAGNOUR4EUKS4CPOW15I","A1BM57TUNAQIXM","3UDTAB6HH6LRO17U79I9TKUGYFV09C","","411.70000000298023","img/flower4.png","75","413.20000000298023","2","1","3","2","1,0,0,1,1,0,1,0,1","0,0,1,1,0,1,0,1,1","2",""
"","html-keyboard-response","264","131456","0.0-264.0","3Q5C1WP23NNAGNOUR4EUKS4CPOW15I","A1BM57TUNAQIXM","3UDTAB6HH6LRO17U79I9TKUGYFV09C","","null","<img src=""img/flower4.png"" style=""width:200px; border:14px solid green;"">","null","","","","","","","","",""
"","image-keyboard-response","265","131895","0.0-265.0","3Q5C1WP23NNAGNOUR4EUKS4CPOW15I","A1BM57TUNAQIXM","3UDTAB6HH6LRO17U79I9TKUGYFV09C","","438.29999999701977","img/flower2.png","76","439.3999999910593","3","1","1","2","1,0,0,1,1,0,1,0,1","0,0,1,1,0,1,0,1,1","2",""
"","html-keyboard-response","266","132198","0.0-266.0","3Q5C1WP23NNAGNOUR4EUKS4CPOW15I","A1BM57TUNAQIXM","3UDTAB6HH6LRO17U79I9TKUGYFV09C","","null","<img src=""img/flower2.png"" style=""width:200px; border:14px solid green;"">","null","","","","","","","","",""
"","image-keyboard-response","267","132529","0.0-267.0","3Q5C1WP23NNAGNOUR4EUKS4CPOW15I","A1BM57TUNAQIXM","3UDTAB6HH6LRO17U79I9TKUGYFV09C","","329.5","img/flower2.png","76","330.90000000596046","3","1","1","2","1,0,0,1,1,0,1,0,1","0,0,1,1,0,1,0,1,1","2",""
"","html-keyboard-response","268","132832","0.0-268.0","3Q5C1WP23NNAGNOUR4EUKS4CPOW15I","A1BM57TUNAQIXM","3UDTAB6HH6LRO17U79I9TKUGYFV09C","","null","<img src=""img/flower2.png"" style=""width:200px; border:14px solid green;"">","null","","","","","","","","",""
"","image-keyboard-response","269","133078","0.0-269.0","3Q5C1WP23NNAGNOUR4EUKS4CPOW15I","A1BM57TUNAQIXM","3UDTAB6HH6LRO17U79I9TKUGYFV09C","","244","img/flower3.png","76","245.6000000089407","3","1","2","2","1,0,0,1,1,0,1,0,1","0,0,1,1,0,1,0,1,1","2",""
"","html-keyboard-response","270","133380","0.0-270.0","3Q5C1WP23NNAGNOUR4EUKS4CPOW15I","A1BM57TUNAQIXM","3UDTAB6HH6LRO17U79I9TKUGYFV09C","","null","<img src=""img/flower3.png"" style=""width:200px; border:14px solid green;"">","null","","","","","","","","",""
"","image-keyboard-response","271","133765","0.0-271.0","3Q5C1WP23NNAGNOUR4EUKS4CPOW15I","A1BM57TUNAQIXM","3UDTAB6HH6LRO17U79I9TKUGYFV09C","","383.6000000089407","img/flower3.png","75","385.29999999701977","2","0","2","2","1,0,0,1,1,0,1,0,1","0,0,1,1,0,1,0,1,1","2",""
"","html-keyboard-response","272","134067","0.0-272.0","3Q5C1WP23NNAGNOUR4EUKS4CPOW15I","A1BM57TUNAQIXM","3UDTAB6HH6LRO17U79I9TKUGYFV09C","","null","<img src=""img/flower3.png"" style=""width:200px;border:14px solid red;"">","null","","","","","","","","",""
"","image-keyboard-response","273","134678","0.0-273.0","3Q5C1WP23NNAGNOUR4EUKS4CPOW15I","A1BM57TUNAQIXM","3UDTAB6HH6LRO17U79I9TKUGYFV09C","","609.1999999880791","img/flower4.png","75","610","2","1","3","2","1,0,0,1,1,0,1,0,1","0,0,1,1,0,1,0,1,1","2",""
"","html-keyboard-response","274","134979","0.0-274.0","3Q5C1WP23NNAGNOUR4EUKS4CPOW15I","A1BM57TUNAQIXM","3UDTAB6HH6LRO17U79I9TKUGYFV09C","","null","<img src=""img/flower4.png"" style=""width:200px; border:14px solid green;"">","null","","","","","","","","",""
"","image-keyboard-response","275","135242","0.0-275.0","3Q5C1WP23NNAGNOUR4EUKS4CPOW15I","A1BM57TUNAQIXM","3UDTAB6HH6LRO17U79I9TKUGYFV09C","","261.40000000596046","img/flower4.png","75","262.70000000298023","2","1","3","2","1,0,0,1,1,0,1,0,1","0,0,1,1,0,1,0,1,1","2",""
"","html-keyboard-response","276","135545","0.0-276.0","3Q5C1WP23NNAGNOUR4EUKS4CPOW15I","A1BM57TUNAQIXM","3UDTAB6HH6LRO17U79I9TKUGYFV09C","","null","<img src=""img/flower4.png"" style=""width:200px; border:14px solid green;"">","null","","","","","","","","",""
"","image-keyboard-response","277","135760","0.0-277.0","3Q5C1WP23NNAGNOUR4EUKS4CPOW15I","A1BM57TUNAQIXM","3UDTAB6HH6LRO17U79I9TKUGYFV09C","","214.29999999701977","img/flower2.png","75","215.59999999403954","2","0","1","2","1,0,0,1,1,0,1,0,1","0,0,1,1,0,1,0,1,1","2",""
"","html-keyboard-response","278","136063","0.0-278.0","3Q5C1WP23NNAGNOUR4EUKS4CPOW15I","A1BM57TUNAQIXM","3UDTAB6HH6LRO17U79I9TKUGYFV09C","","null","<img src=""img/flower2.png"" style=""width:200px;border:14px solid red;"">","null","","","","","","","","",""
"","image-keyboard-response","279","136757","0.0-279.0","3Q5C1WP23NNAGNOUR4EUKS4CPOW15I","A1BM57TUNAQIXM","3UDTAB6HH6LRO17U79I9TKUGYFV09C","","691.7999999970198","img/flower3.png","74","694","1","1","2","2","1,0,0,1,1,0,1,0,1","0,0,1,1,0,1,0,1,1","2",""
"","html-keyboard-response","280","137060","0.0-280.0","3Q5C1WP23NNAGNOUR4EUKS4CPOW15I","A1BM57TUNAQIXM","3UDTAB6HH6LRO17U79I9TKUGYFV09C","","null","<img src=""img/flower3.png"" style=""width:200px; border:14px solid green;"">","null","","","","","","","","",""
"","image-keyboard-response","281","137661","0.0-281.0","3Q5C1WP23NNAGNOUR4EUKS4CPOW15I","A1BM57TUNAQIXM","3UDTAB6HH6LRO17U79I9TKUGYFV09C","","598.4000000059605","img/flower2.png","76","600.5","3","1","1","2","1,0,0,1,1,0,1,0,1","0,0,1,1,0,1,0,1,1","2",""
"","html-keyboard-response","282","137963","0.0-282.0","3Q5C1WP23NNAGNOUR4EUKS4CPOW15I","A1BM57TUNAQIXM","3UDTAB6HH6LRO17U79I9TKUGYFV09C","","null","<img src=""img/flower2.png"" style=""width:200px; border:14px solid green;"">","null","","","","","","","","",""
"","image-keyboard-response","283","138456","0.0-283.0","3Q5C1WP23NNAGNOUR4EUKS4CPOW15I","A1BM57TUNAQIXM","3UDTAB6HH6LRO17U79I9TKUGYFV09C","","490.90000000596046","img/flower3.png","75","492.29999999701977","2","0","2","2","1,0,0,1,1,0,1,0,1","0,0,1,1,0,1,0,1,1","2",""
"","html-keyboard-response","284","138757","0.0-284.0","3Q5C1WP23NNAGNOUR4EUKS4CPOW15I","A1BM57TUNAQIXM","3UDTAB6HH6LRO17U79I9TKUGYFV09C","","null","<img src=""img/flower3.png"" style=""width:200px;border:14px solid red;"">","null","","","","","","","","",""
"","image-keyboard-response","285","139254","0.0-285.0","3Q5C1WP23NNAGNOUR4EUKS4CPOW15I","A1BM57TUNAQIXM","3UDTAB6HH6LRO17U79I9TKUGYFV09C","","495.59999999403954","img/flower2.png","76","496.5","3","1","1","2","1,0,0,1,1,0,1,0,1","0,0,1,1,0,1,0,1,1","2",""
"","html-keyboard-response","286","139557","0.0-286.0","3Q5C1WP23NNAGNOUR4EUKS4CPOW15I","A1BM57TUNAQIXM","3UDTAB6HH6LRO17U79I9TKUGYFV09C","","null","<img src=""img/flower2.png"" style=""width:200px; border:14px solid green;"">","null","","","","","","","","",""
"","image-keyboard-response","287","140092","0.0-287.0","3Q5C1WP23NNAGNOUR4EUKS4CPOW15I","A1BM57TUNAQIXM","3UDTAB6HH6LRO17U79I9TKUGYFV09C","","532.8999999910593","img/flower4.png","75","534.2999999970198","2","1","3","2","1,0,0,1,1,0,1,0,1","0,0,1,1,0,1,0,1,1","2",""
"","html-keyboard-response","288","140394","0.0-288.0","3Q5C1WP23NNAGNOUR4EUKS4CPOW15I","A1BM57TUNAQIXM","3UDTAB6HH6LRO17U79I9TKUGYFV09C","","null","<img src=""img/flower4.png"" style=""width:200px; border:14px solid green;"">","null","","","","","","","","",""
"","image-keyboard-response","289","140806","0.0-289.0","3Q5C1WP23NNAGNOUR4EUKS4CPOW15I","A1BM57TUNAQIXM","3UDTAB6HH6LRO17U79I9TKUGYFV09C","","410.6000000089407","img/flower3.png","74","411.90000000596046","1","1","2","2","1,0,0,1,1,0,1,0,1","0,0,1,1,0,1,0,1,1","2",""
"","html-keyboard-response","290","141108","0.0-290.0","3Q5C1WP23NNAGNOUR4EUKS4CPOW15I","A1BM57TUNAQIXM","3UDTAB6HH6LRO17U79I9TKUGYFV09C","","null","<img src=""img/flower3.png"" style=""width:200px; border:14px solid green;"">","null","","","","","","","","",""
"","image-keyboard-response","291","141630","0.0-291.0","3Q5C1WP23NNAGNOUR4EUKS4CPOW15I","A1BM57TUNAQIXM","3UDTAB6HH6LRO17U79I9TKUGYFV09C","","519.5","img/flower4.png","75","521.3999999910593","2","1","3","2","1,0,0,1,1,0,1,0,1","0,0,1,1,0,1,0,1,1","2",""
"","html-keyboard-response","292","141933","0.0-292.0","3Q5C1WP23NNAGNOUR4EUKS4CPOW15I","A1BM57TUNAQIXM","3UDTAB6HH6LRO17U79I9TKUGYFV09C","","null","<img src=""img/flower4.png"" style=""width:200px; border:14px solid green;"">","null","","","","","","","","",""
"","image-keyboard-response","293","142307","0.0-293.0","3Q5C1WP23NNAGNOUR4EUKS4CPOW15I","A1BM57TUNAQIXM","3UDTAB6HH6LRO17U79I9TKUGYFV09C","","372.70000000298023","img/flower4.png","75","374.40000000596046","2","1","3","2","1,0,0,1,1,0,1,0,1","0,0,1,1,0,1,0,1,1","2",""
"","html-keyboard-response","294","142610","0.0-294.0","3Q5C1WP23NNAGNOUR4EUKS4CPOW15I","A1BM57TUNAQIXM","3UDTAB6HH6LRO17U79I9TKUGYFV09C","","null","<img src=""img/flower4.png"" style=""width:200px; border:14px solid green;"">","null","","","","","","","","",""
"","image-keyboard-response","295","143153","0.0-295.0","3Q5C1WP23NNAGNOUR4EUKS4CPOW15I","A1BM57TUNAQIXM","3UDTAB6HH6LRO17U79I9TKUGYFV09C","","542","img/flower2.png","76","543.5","3","1","1","2","1,0,0,1,1,0,1,0,1","0,0,1,1,0,1,0,1,1","2",""
"","html-keyboard-response","296","143455","0.0-296.0","3Q5C1WP23NNAGNOUR4EUKS4CPOW15I","A1BM57TUNAQIXM","3UDTAB6HH6LRO17U79I9TKUGYFV09C","","null","<img src=""img/flower2.png"" style=""width:200px; border:14px solid green;"">","null","","","","","","","","",""
"","image-keyboard-response","297","143830","0.0-297.0","3Q5C1WP23NNAGNOUR4EUKS4CPOW15I","A1BM57TUNAQIXM","3UDTAB6HH6LRO17U79I9TKUGYFV09C","","373.8999999910593","img/flower2.png","76","374.8999999910593","3","1","1","2","1,0,0,1,1,0,1,0,1","0,0,1,1,0,1,0,1,1","2",""
"","html-keyboard-response","298","144132","0.0-298.0","3Q5C1WP23NNAGNOUR4EUKS4CPOW15I","A1BM57TUNAQIXM","3UDTAB6HH6LRO17U79I9TKUGYFV09C","","null","<img src=""img/flower2.png"" style=""width:200px; border:14px solid green;"">","null","","","","","","","","",""
"","image-keyboard-response","299","144778","0.0-299.0","3Q5C1WP23NNAGNOUR4EUKS4CPOW15I","A1BM57TUNAQIXM","3UDTAB6HH6LRO17U79I9TKUGYFV09C","","645.0999999940395","img/flower4.png","75","646.1999999880791","2","1","3","2","1,0,0,1,1,0,1,0,1","0,0,1,1,0,1,0,1,1","2",""
"","html-keyboard-response","300","145086","0.0-300.0","3Q5C1WP23NNAGNOUR4EUKS4CPOW15I","A1BM57TUNAQIXM","3UDTAB6HH6LRO17U79I9TKUGYFV09C","","null","<img src=""img/flower4.png"" style=""width:200px; border:14px solid green;"">","null","","","","","","","","",""
"","image-keyboard-response","301","145296","0.0-301.0","3Q5C1WP23NNAGNOUR4EUKS4CPOW15I","A1BM57TUNAQIXM","3UDTAB6HH6LRO17U79I9TKUGYFV09C","","208","img/flower4.png","75","209.79999999701977","2","1","3","2","1,0,0,1,1,0,1,0,1","0,0,1,1,0,1,0,1,1","2",""
"","html-keyboard-response","302","145600","0.0-302.0","3Q5C1WP23NNAGNOUR4EUKS4CPOW15I","A1BM57TUNAQIXM","3UDTAB6HH6LRO17U79I9TKUGYFV09C","","null","<img src=""img/flower4.png"" style=""width:200px; border:14px solid green;"">","null","","","","","","","","",""
"","image-keyboard-response","303","146096","0.0-303.0","3Q5C1WP23NNAGNOUR4EUKS4CPOW15I","A1BM57TUNAQIXM","3UDTAB6HH6LRO17U79I9TKUGYFV09C","","494.70000000298023","img/flower2.png","76","495.79999999701977","3","1","1","2","1,0,0,1,1,0,1,0,1","0,0,1,1,0,1,0,1,1","2",""
"","html-keyboard-response","304","146399","0.0-304.0","3Q5C1WP23NNAGNOUR4EUKS4CPOW15I","A1BM57TUNAQIXM","3UDTAB6HH6LRO17U79I9TKUGYFV09C","","null","<img src=""img/flower2.png"" style=""width:200px; border:14px solid green;"">","null","","","","","","","","",""
"","image-keyboard-response","305","146991","0.0-305.0","3Q5C1WP23NNAGNOUR4EUKS4CPOW15I","A1BM57TUNAQIXM","3UDTAB6HH6LRO17U79I9TKUGYFV09C","","591.2999999970198","img/flower3.png","74","592.1999999880791","1","1","2","2","1,0,0,1,1,0,1,0,1","0,0,1,1,0,1,0,1,1","2",""
"","html-keyboard-response","306","147294","0.0-306.0","3Q5C1WP23NNAGNOUR4EUKS4CPOW15I","A1BM57TUNAQIXM","3UDTAB6HH6LRO17U79I9TKUGYFV09C","","null","<img src=""img/flower3.png"" style=""width:200px; border:14px solid green;"">","null","","","","","","","","",""
"","image-keyboard-response","307","147538","0.0-307.0","3Q5C1WP23NNAGNOUR4EUKS4CPOW15I","A1BM57TUNAQIXM","3UDTAB6HH6LRO17U79I9TKUGYFV09C","","242.8999999910593","img/flower2.png","74","244.1000000089407","1","0","1","2","1,0,0,1,1,0,1,0,1","0,0,1,1,0,1,0,1,1","2",""
"","html-keyboard-response","308","147841","0.0-308.0","3Q5C1WP23NNAGNOUR4EUKS4CPOW15I","A1BM57TUNAQIXM","3UDTAB6HH6LRO17U79I9TKUGYFV09C","","null","<img src=""img/flower2.png"" style=""width:200px;border:14px solid red;"">","null","","","","","","","","",""
"","image-keyboard-response","309","148630","0.0-309.0","3Q5C1WP23NNAGNOUR4EUKS4CPOW15I","A1BM57TUNAQIXM","3UDTAB6HH6LRO17U79I9TKUGYFV09C","","788","img/flower3.png","74","789.2999999970198","1","1","2","2","1,0,0,1,1,0,1,0,1","0,0,1,1,0,1,0,1,1","2",""
"","html-keyboard-response","310","148933","0.0-310.0","3Q5C1WP23NNAGNOUR4EUKS4CPOW15I","A1BM57TUNAQIXM","3UDTAB6HH6LRO17U79I9TKUGYFV09C","","null","<img src=""img/flower3.png"" style=""width:200px; border:14px solid green;"">","null","","","","","","","","",""
"","image-keyboard-response","311","149417","0.0-311.0","3Q5C1WP23NNAGNOUR4EUKS4CPOW15I","A1BM57TUNAQIXM","3UDTAB6HH6LRO17U79I9TKUGYFV09C","","482.90000000596046","img/flower3.png","74","484.09999999403954","1","1","2","2","1,0,0,1,1,0,1,0,1","0,0,1,1,0,1,0,1,1","2",""
"","html-keyboard-response","312","149720","0.0-312.0","3Q5C1WP23NNAGNOUR4EUKS4CPOW15I","A1BM57TUNAQIXM","3UDTAB6HH6LRO17U79I9TKUGYFV09C","","null","<img src=""img/flower3.png"" style=""width:200px; border:14px solid green;"">","null","","","","","","","","",""
"","image-keyboard-response","313","150012","0.0-313.0","3Q5C1WP23NNAGNOUR4EUKS4CPOW15I","A1BM57TUNAQIXM","3UDTAB6HH6LRO17U79I9TKUGYFV09C","","290","img/flower3.png","74","291.3999999910593","1","1","2","2","1,0,0,1,1,0,1,0,1","0,0,1,1,0,1,0,1,1","2",""
"","html-keyboard-response","314","150321","0.0-314.0","3Q5C1WP23NNAGNOUR4EUKS4CPOW15I","A1BM57TUNAQIXM","3UDTAB6HH6LRO17U79I9TKUGYFV09C","","null","<img src=""img/flower3.png"" style=""width:200px; border:14px solid green;"">","null","","","","","","","","",""
"","image-keyboard-response","315","150658","0.0-315.0","3Q5C1WP23NNAGNOUR4EUKS4CPOW15I","A1BM57TUNAQIXM","3UDTAB6HH6LRO17U79I9TKUGYFV09C","","335.6000000089407","img/flower3.png","74","336.90000000596046","1","1","2","2","1,0,0,1,1,0,1,0,1","0,0,1,1,0,1,0,1,1","2",""
"","html-keyboard-response","316","150960","0.0-316.0","3Q5C1WP23NNAGNOUR4EUKS4CPOW15I","A1BM57TUNAQIXM","3UDTAB6HH6LRO17U79I9TKUGYFV09C","","null","<img src=""img/flower3.png"" style=""width:200px; border:14px solid green;"">","null","","","","","","","","",""
"","image-keyboard-response","317","151499","0.0-317.0","3Q5C1WP23NNAGNOUR4EUKS4CPOW15I","A1BM57TUNAQIXM","3UDTAB6HH6LRO17U79I9TKUGYFV09C","","536.8999999910593","img/flower2.png","76","538.5","3","1","1","2","1,0,0,1,1,0,1,0,1","0,0,1,1,0,1,0,1,1","2",""
"","html-keyboard-response","318","151801","0.0-318.0","3Q5C1WP23NNAGNOUR4EUKS4CPOW15I","A1BM57TUNAQIXM","3UDTAB6HH6LRO17U79I9TKUGYFV09C","","null","<img src=""img/flower2.png"" style=""width:200px; border:14px solid green;"">","null","","","","","","","","",""
"","image-keyboard-response","319","152199","0.0-319.0","3Q5C1WP23NNAGNOUR4EUKS4CPOW15I","A1BM57TUNAQIXM","3UDTAB6HH6LRO17U79I9TKUGYFV09C","","396.90000000596046","img/flower2.png","76","398.20000000298023","3","1","1","2","1,0,0,1,1,0,1,0,1","0,0,1,1,0,1,0,1,1","2",""
"","html-keyboard-response","320","152501","0.0-320.0","3Q5C1WP23NNAGNOUR4EUKS4CPOW15I","A1BM57TUNAQIXM","3UDTAB6HH6LRO17U79I9TKUGYFV09C","","null","<img src=""img/flower2.png"" style=""width:200px; border:14px solid green;"">","null","","","","","","","","",""
"","image-keyboard-response","321","152852","0.0-321.0","3Q5C1WP23NNAGNOUR4EUKS4CPOW15I","A1BM57TUNAQIXM","3UDTAB6HH6LRO17U79I9TKUGYFV09C","","349.79999999701977","img/flower2.png","76","351","3","1","1","2","1,0,0,1,1,0,1,0,1","0,0,1,1,0,1,0,1,1","2",""
"","html-keyboard-response","322","153154","0.0-322.0","3Q5C1WP23NNAGNOUR4EUKS4CPOW15I","A1BM57TUNAQIXM","3UDTAB6HH6LRO17U79I9TKUGYFV09C","","null","<img src=""img/flower2.png"" style=""width:200px; border:14px solid green;"">","null","","","","","","","","",""
"","image-keyboard-response","323","153581","0.0-323.0","3Q5C1WP23NNAGNOUR4EUKS4CPOW15I","A1BM57TUNAQIXM","3UDTAB6HH6LRO17U79I9TKUGYFV09C","","425.40000000596046","img/flower4.png","75","426.90000000596046","2","1","3","2","1,0,0,1,1,0,1,0,1","0,0,1,1,0,1,0,1,1","2",""
"","html-keyboard-response","324","153884","0.0-324.0","3Q5C1WP23NNAGNOUR4EUKS4CPOW15I","A1BM57TUNAQIXM","3UDTAB6HH6LRO17U79I9TKUGYFV09C","","null","<img src=""img/flower4.png"" style=""width:200px; border:14px solid green;"">","null","","","","","","","","",""
"","image-keyboard-response","325","154361","0.0-325.0","3Q5C1WP23NNAGNOUR4EUKS4CPOW15I","A1BM57TUNAQIXM","3UDTAB6HH6LRO17U79I9TKUGYFV09C","","475.29999999701977","img/flower2.png","76","477.59999999403954","3","1","1","2","1,0,0,1,1,0,1,0,1","0,0,1,1,0,1,0,1,1","2",""
"","html-keyboard-response","326","154664","0.0-326.0","3Q5C1WP23NNAGNOUR4EUKS4CPOW15I","A1BM57TUNAQIXM","3UDTAB6HH6LRO17U79I9TKUGYFV09C","","null","<img src=""img/flower2.png"" style=""width:200px; border:14px solid green;"">","null","","","","","","","","",""
"","image-keyboard-response","327","155260","0.0-327.0","3Q5C1WP23NNAGNOUR4EUKS4CPOW15I","A1BM57TUNAQIXM","3UDTAB6HH6LRO17U79I9TKUGYFV09C","","595.7000000029802","img/flower3.png","74","596.9000000059605","1","1","2","2","1,0,0,1,1,0,1,0,1","0,0,1,1,0,1,0,1,1","2",""
"","html-keyboard-response","328","155563","0.0-328.0","3Q5C1WP23NNAGNOUR4EUKS4CPOW15I","A1BM57TUNAQIXM","3UDTAB6HH6LRO17U79I9TKUGYFV09C","","null","<img src=""img/flower3.png"" style=""width:200px; border:14px solid green;"">","null","","","","","","","","",""
"","image-keyboard-response","329","155900","0.0-329.0","3Q5C1WP23NNAGNOUR4EUKS4CPOW15I","A1BM57TUNAQIXM","3UDTAB6HH6LRO17U79I9TKUGYFV09C","","335.79999999701977","img/flower3.png","74","337.1000000089407","1","1","2","2","1,0,0,1,1,0,1,0,1","0,0,1,1,0,1,0,1,1","2",""
"","html-keyboard-response","330","156203","0.0-330.0","3Q5C1WP23NNAGNOUR4EUKS4CPOW15I","A1BM57TUNAQIXM","3UDTAB6HH6LRO17U79I9TKUGYFV09C","","null","<img src=""img/flower3.png"" style=""width:200px; border:14px solid green;"">","null","","","","","","","","",""
"","image-keyboard-response","331","156516","0.0-331.0","3Q5C1WP23NNAGNOUR4EUKS4CPOW15I","A1BM57TUNAQIXM","3UDTAB6HH6LRO17U79I9TKUGYFV09C","","310.8999999910593","img/flower3.png","74","313","1","1","2","2","1,0,0,1,1,0,1,0,1","0,0,1,1,0,1,0,1,1","2",""
"","html-keyboard-response","332","156819","0.0-332.0","3Q5C1WP23NNAGNOUR4EUKS4CPOW15I","A1BM57TUNAQIXM","3UDTAB6HH6LRO17U79I9TKUGYFV09C","","null","<img src=""img/flower3.png"" style=""width:200px; border:14px solid green;"">","null","","","","","","","","",""
"","image-keyboard-response","333","157374","0.0-333.0","3Q5C1WP23NNAGNOUR4EUKS4CPOW15I","A1BM57TUNAQIXM","3UDTAB6HH6LRO17U79I9TKUGYFV09C","","553.1999999880791","img/flower2.png","76","555","3","1","1","2","1,0,0,1,1,0,1,0,1","0,0,1,1,0,1,0,1,1","2",""
"","html-keyboard-response","334","157676","0.0-334.0","3Q5C1WP23NNAGNOUR4EUKS4CPOW15I","A1BM57TUNAQIXM","3UDTAB6HH6LRO17U79I9TKUGYFV09C","","null","<img src=""img/flower2.png"" style=""width:200px; border:14px solid green;"">","null","","","","","","","","",""
"","image-keyboard-response","335","158096","0.0-335.0","3Q5C1WP23NNAGNOUR4EUKS4CPOW15I","A1BM57TUNAQIXM","3UDTAB6HH6LRO17U79I9TKUGYFV09C","","418.29999999701977","img/flower2.png","76","419.40000000596046","3","1","1","2","1,0,0,1,1,0,1,0,1","0,0,1,1,0,1,0,1,1","2",""
"","html-keyboard-response","336","158398","0.0-336.0","3Q5C1WP23NNAGNOUR4EUKS4CPOW15I","A1BM57TUNAQIXM","3UDTAB6HH6LRO17U79I9TKUGYFV09C","","null","<img src=""img/flower2.png"" style=""width:200px; border:14px solid green;"">","null","","","","","","","","",""
"","image-keyboard-response","337","158974","0.0-337.0","3Q5C1WP23NNAGNOUR4EUKS4CPOW15I","A1BM57TUNAQIXM","3UDTAB6HH6LRO17U79I9TKUGYFV09C","","573.6000000089407","img/flower4.png","75","575.3999999910593","2","1","3","2","1,0,0,1,1,0,1,0,1","0,0,1,1,0,1,0,1,1","2",""
"","html-keyboard-response","338","159277","0.0-338.0","3Q5C1WP23NNAGNOUR4EUKS4CPOW15I","A1BM57TUNAQIXM","3UDTAB6HH6LRO17U79I9TKUGYFV09C","","null","<img src=""img/flower4.png"" style=""width:200px; border:14px solid green;"">","null","","","","","","","","",""
"","image-keyboard-response","339","159739","0.0-339.0","3Q5C1WP23NNAGNOUR4EUKS4CPOW15I","A1BM57TUNAQIXM","3UDTAB6HH6LRO17U79I9TKUGYFV09C","","460.6000000089407","img/flower2.png","76","461.70000000298023","3","1","1","2","1,0,0,1,1,0,1,0,1","0,0,1,1,0,1,0,1,1","2",""
"","html-keyboard-response","340","160041","0.0-340.0","3Q5C1WP23NNAGNOUR4EUKS4CPOW15I","A1BM57TUNAQIXM","3UDTAB6HH6LRO17U79I9TKUGYFV09C","","null","<img src=""img/flower2.png"" style=""width:200px; border:14px solid green;"">","null","","","","","","","","",""
"","image-keyboard-response","341","160583","0.0-341.0","3Q5C1WP23NNAGNOUR4EUKS4CPOW15I","A1BM57TUNAQIXM","3UDTAB6HH6LRO17U79I9TKUGYFV09C","","539.7000000029802","img/flower3.png","74","541.4000000059605","1","1","2","2","1,0,0,1,1,0,1,0,1","0,0,1,1,0,1,0,1,1","2",""
"","html-keyboard-response","342","160886","0.0-342.0","3Q5C1WP23NNAGNOUR4EUKS4CPOW15I","A1BM57TUNAQIXM","3UDTAB6HH6LRO17U79I9TKUGYFV09C","","null","<img src=""img/flower3.png"" style=""width:200px; border:14px solid green;"">","null","","","","","","","","",""
"","image-keyboard-response","343","161388","0.0-343.0","3Q5C1WP23NNAGNOUR4EUKS4CPOW15I","A1BM57TUNAQIXM","3UDTAB6HH6LRO17U79I9TKUGYFV09C","","500.59999999403954","img/flower4.png","76","501.80000001192093","3","1","3","2","1,0,0,1,1,0,1,0,1","0,0,1,1,0,1,0,1,1","2",""
"","html-keyboard-response","344","161691","0.0-344.0","3Q5C1WP23NNAGNOUR4EUKS4CPOW15I","A1BM57TUNAQIXM","3UDTAB6HH6LRO17U79I9TKUGYFV09C","","null","<img src=""img/flower4.png"" style=""width:200px; border:14px solid green;"">","null","","","","","","","","",""
"","image-keyboard-response","345","161951","0.0-345.0","3Q5C1WP23NNAGNOUR4EUKS4CPOW15I","A1BM57TUNAQIXM","3UDTAB6HH6LRO17U79I9TKUGYFV09C","","258.79999999701977","img/flower3.png","75","259.90000000596046","2","0","2","2","1,0,0,1,1,0,1,0,1","0,0,1,1,0,1,0,1,1","2",""
"","html-keyboard-response","346","162255","0.0-346.0","3Q5C1WP23NNAGNOUR4EUKS4CPOW15I","A1BM57TUNAQIXM","3UDTAB6HH6LRO17U79I9TKUGYFV09C","","null","<img src=""img/flower3.png"" style=""width:200px;border:14px solid red;"">","null","","","","","","","","",""
"","image-keyboard-response","347","162486","0.0-347.0","3Q5C1WP23NNAGNOUR4EUKS4CPOW15I","A1BM57TUNAQIXM","3UDTAB6HH6LRO17U79I9TKUGYFV09C","","230.70000000298023","img/flower2.png","74","231.19999998807907","1","0","1","2","1,0,0,1,1,0,1,0,1","0,0,1,1,0,1,0,1,1","2",""
"","html-keyboard-response","348","162788","0.0-348.0","3Q5C1WP23NNAGNOUR4EUKS4CPOW15I","A1BM57TUNAQIXM","3UDTAB6HH6LRO17U79I9TKUGYFV09C","","null","<img src=""img/flower2.png"" style=""width:200px;border:14px solid red;"">","null","","","","","","","","",""
"","image-keyboard-response","349","162988","0.0-349.0","3Q5C1WP23NNAGNOUR4EUKS4CPOW15I","A1BM57TUNAQIXM","3UDTAB6HH6LRO17U79I9TKUGYFV09C","","197.6000000089407","img/flower4.png","76","199.1000000089407","3","1","3","2","1,0,0,1,1,0,1,0,1","0,0,1,1,0,1,0,1,1","2",""
"","html-keyboard-response","350","163290","0.0-350.0","3Q5C1WP23NNAGNOUR4EUKS4CPOW15I","A1BM57TUNAQIXM","3UDTAB6HH6LRO17U79I9TKUGYFV09C","","null","<img src=""img/flower4.png"" style=""width:200px; border:14px solid green;"">","null","","","","","","","","",""
"","image-keyboard-response","351","163848","0.0-351.0","3Q5C1WP23NNAGNOUR4EUKS4CPOW15I","A1BM57TUNAQIXM","3UDTAB6HH6LRO17U79I9TKUGYFV09C","","555.3999999910593","img/flower4.png","75","557.4000000059605","2","1","3","2","1,0,0,1,1,0,1,0,1","0,0,1,1,0,1,0,1,1","2",""
"","html-keyboard-response","352","164150","0.0-352.0","3Q5C1WP23NNAGNOUR4EUKS4CPOW15I","A1BM57TUNAQIXM","3UDTAB6HH6LRO17U79I9TKUGYFV09C","","null","<img src=""img/flower4.png"" style=""width:200px; border:14px solid green;"">","null","","","","","","","","",""
"","image-keyboard-response","353","164370","0.0-353.0","3Q5C1WP23NNAGNOUR4EUKS4CPOW15I","A1BM57TUNAQIXM","3UDTAB6HH6LRO17U79I9TKUGYFV09C","","219","img/flower3.png","75","220.20000000298023","2","0","2","2","1,0,0,1,1,0,1,0,1","0,0,1,1,0,1,0,1,1","2",""
"","html-keyboard-response","354","164673","0.0-354.0","3Q5C1WP23NNAGNOUR4EUKS4CPOW15I","A1BM57TUNAQIXM","3UDTAB6HH6LRO17U79I9TKUGYFV09C","","null","<img src=""img/flower3.png"" style=""width:200px;border:14px solid red;"">","null","","","","","","","","",""
"","image-keyboard-response","355","165280","0.0-355.0","3Q5C1WP23NNAGNOUR4EUKS4CPOW15I","A1BM57TUNAQIXM","3UDTAB6HH6LRO17U79I9TKUGYFV09C","","606","img/flower4.png","75","607.1000000089407","2","1","3","2","1,0,0,1,1,0,1,0,1","0,0,1,1,0,1,0,1,1","2",""
"","html-keyboard-response","356","165583","0.0-356.0","3Q5C1WP23NNAGNOUR4EUKS4CPOW15I","A1BM57TUNAQIXM","3UDTAB6HH6LRO17U79I9TKUGYFV09C","","null","<img src=""img/flower4.png"" style=""width:200px; border:14px solid green;"">","null","","","","","","","","",""
"","image-keyboard-response","357","166152","0.0-357.0","3Q5C1WP23NNAGNOUR4EUKS4CPOW15I","A1BM57TUNAQIXM","3UDTAB6HH6LRO17U79I9TKUGYFV09C","","568.2999999970198","img/flower2.png","76","569.2999999970198","3","1","1","2","1,0,0,1,1,0,1,0,1","0,0,1,1,0,1,0,1,1","2",""
"","html-keyboard-response","358","166456","0.0-358.0","3Q5C1WP23NNAGNOUR4EUKS4CPOW15I","A1BM57TUNAQIXM","3UDTAB6HH6LRO17U79I9TKUGYFV09C","","null","<img src=""img/flower2.png"" style=""width:200px; border:14px solid green;"">","null","","","","","","","","",""
"","image-keyboard-response","359","166933","0.0-359.0","3Q5C1WP23NNAGNOUR4EUKS4CPOW15I","A1BM57TUNAQIXM","3UDTAB6HH6LRO17U79I9TKUGYFV09C","","476.70000000298023","img/flower4.png","75","477.79999999701977","2","1","3","2","1,0,0,1,1,0,1,0,1","0,0,1,1,0,1,0,1,1","2",""
"","html-keyboard-response","360","167236","0.0-360.0","3Q5C1WP23NNAGNOUR4EUKS4CPOW15I","A1BM57TUNAQIXM","3UDTAB6HH6LRO17U79I9TKUGYFV09C","","null","<img src=""img/flower4.png"" style=""width:200px; border:14px solid green;"">","null","","","","","","","","",""
"","image-keyboard-response","361","167922","0.0-361.0","3Q5C1WP23NNAGNOUR4EUKS4CPOW15I","A1BM57TUNAQIXM","3UDTAB6HH6LRO17U79I9TKUGYFV09C","","683.6000000089407","img/flower3.png","74","685.2000000029802","1","1","2","2","1,0,0,1,1,0,1,0,1","0,0,1,1,0,1,0,1,1","2",""
"","html-keyboard-response","362","168224","0.0-362.0","3Q5C1WP23NNAGNOUR4EUKS4CPOW15I","A1BM57TUNAQIXM","3UDTAB6HH6LRO17U79I9TKUGYFV09C","","null","<img src=""img/flower3.png"" style=""width:200px; border:14px solid green;"">","null","","","","","","","","",""
"","instructions","363","170011","0.0-363.0","3Q5C1WP23NNAGNOUR4EUKS4CPOW15I","A1BM57TUNAQIXM","3UDTAB6HH6LRO17U79I9TKUGYFV09C","[{""page_index"":0,""viewing_time"":1785.0999999940395}]","1785.3999999910593","","","","","","","","","","",""
