"success","trial_type","trial_index","time_elapsed","internal_node_id","assignmentID","mturkID","hitID","view_history","rt","stimulus","key_press","reactionTime","a","r","s","cond","reward_cond","reward_cond_actual","reward_matrix_idx","responses"
"true","fullscreen","0","2407","0.0-0.0","3QRYMNZ7FZ3FFW69XNUQKFNT8Y2NTU","A1DKVUTOBPQH11","3FVBZG9CLJ0K37PD5L6161S4HTM0HN","","","","","","","","","","","","",""
"","instructions","1","32952","0.0-1.0","3QRYMNZ7FZ3FFW69XNUQKFNT8Y2NTU","A1DKVUTOBPQH11","3FVBZG9CLJ0K37PD5L6161S4HTM0HN","[{""page_index"":0,""viewing_time"":3662.7000000029802},{""page_index"":1,""viewing_time"":3078.1999999955297},{""page_index"":2,""viewing_time"":2082.39999999851},{""page_index"":1,""viewing_time"":957},{""page_index"":2,""viewing_time"":575.1000000014901},{""page_index"":3,""viewing_time"":3149.89999999851},{""page_index"":4,""viewing_time"":2618.8000000044703},{""page_index"":5,""viewing_time"":4146.69999999553},{""page_index"":6,""viewing_time"":4357.4000000059605},{""page_index"":7,""viewing_time"":5915.39999999851}]","30544","","","","","","","","","","",""
"","image-keyboard-response","2","34198","0.0-2.0","3QRYMNZ7FZ3FFW69XNUQKFNT8Y2NTU","A1DKVUTOBPQH11","3FVBZG9CLJ0K37PD5L6161S4HTM0HN","","1244.7999999970198","img/flower6.png","74","1245.8999999985099","1","0","3","1","1,0.333,0.333,0.333,1,0.333,0.333,0.333,1","1,0.333,0.333,0.333,1,0.333,0.333,0.333,1","1",""
"","html-keyboard-response","3","34499","0.0-3.0","3QRYMNZ7FZ3FFW69XNUQKFNT8Y2NTU","A1DKVUTOBPQH11","3FVBZG9CLJ0K37PD5L6161S4HTM0HN","","null","<img src=""img/flower6.png"" style=""width:200px;border:14px solid red;"">","null","","","","","","","","",""
"","image-keyboard-response","4","35128","0.0-4.0","3QRYMNZ7FZ3FFW69XNUQKFNT8Y2NTU","A1DKVUTOBPQH11","3FVBZG9CLJ0K37PD5L6161S4HTM0HN","","627.8000000044703","img/flower6.png","74","628.1999999955297","1","0","3","1","1,0.333,0.333,0.333,1,0.333,0.333,0.333,1","1,0.333,0.333,0.333,1,0.333,0.333,0.333,1","1",""
"","html-keyboard-response","5","35429","0.0-5.0","3QRYMNZ7FZ3FFW69XNUQKFNT8Y2NTU","A1DKVUTOBPQH11","3FVBZG9CLJ0K37PD5L6161S4HTM0HN","","null","<img src=""img/flower6.png"" style=""width:200px;border:14px solid red;"">","null","","","","","","","","",""
"","image-keyboard-response","6","35744","0.0-6.0","3QRYMNZ7FZ3FFW69XNUQKFNT8Y2NTU","A1DKVUTOBPQH11","3FVBZG9CLJ0K37PD5L6161S4HTM0HN","","314.5","img/flower6.png","75","315.1000000014901","2","1","3","1","1,0.333,0.333,0.333,1,0.333,0.333,0.333,1","1,0.333,0.333,0.333,1,0.333,0.333,0.333,1","1",""
"","html-keyboard-response","7","36046","0.0-7.0","3QRYMNZ7FZ3FFW69XNUQKFNT8Y2NTU","A1DKVUTOBPQH11","3FVBZG9CLJ0K37PD5L6161S4HTM0HN","","null","<img src=""img/flower6.png"" style=""width:200px; border:14px solid green;"">","null","","","","","","","","",""
"","image-keyboard-response","8","36886","0.0-8.0","3QRYMNZ7FZ3FFW69XNUQKFNT8Y2NTU","A1DKVUTOBPQH11","3FVBZG9CLJ0K37PD5L6161S4HTM0HN","","839.5999999940395","img/flower5.png","76","840.3000000044703","3","1","2","1","1,0.333,0.333,0.333,1,0.333,0.333,0.333,1","1,0.333,0.333,0.333,1,0.333,0.333,0.333,1","1",""
"","html-keyboard-response","9","37187","0.0-9.0","3QRYMNZ7FZ3FFW69XNUQKFNT8Y2NTU","A1DKVUTOBPQH11","3FVBZG9CLJ0K37PD5L6161S4HTM0HN","","null","<img src=""img/flower5.png"" style=""width:200px; border:14px solid green;"">","null","","","","","","","","",""
"","image-keyboard-response","10","38221","0.0-10.0","3QRYMNZ7FZ3FFW69XNUQKFNT8Y2NTU","A1DKVUTOBPQH11","3FVBZG9CLJ0K37PD5L6161S4HTM0HN","","1033","img/flower6.png","74","1033.7000000029802","1","1","3","1","1,0.333,0.333,0.333,1,0.333,0.333,0.333,1","1,0.333,0.333,0.333,1,0.333,0.333,0.333,1","1",""
"","html-keyboard-response","11","38522","0.0-11.0","3QRYMNZ7FZ3FFW69XNUQKFNT8Y2NTU","A1DKVUTOBPQH11","3FVBZG9CLJ0K37PD5L6161S4HTM0HN","","null","<img src=""img/flower6.png"" style=""width:200px; border:14px solid green;"">","null","","","","","","","","",""
"","image-keyboard-response","12","39023","0.0-12.0","3QRYMNZ7FZ3FFW69XNUQKFNT8Y2NTU","A1DKVUTOBPQH11","3FVBZG9CLJ0K37PD5L6161S4HTM0HN","","499.80000000447035","img/flower6.png","74","500.5","1","0","3","1","1,0.333,0.333,0.333,1,0.333,0.333,0.333,1","1,0.333,0.333,0.333,1,0.333,0.333,0.333,1","1",""
"","html-keyboard-response","13","39325","0.0-13.0","3QRYMNZ7FZ3FFW69XNUQKFNT8Y2NTU","A1DKVUTOBPQH11","3FVBZG9CLJ0K37PD5L6161S4HTM0HN","","null","<img src=""img/flower6.png"" style=""width:200px;border:14px solid red;"">","null","","","","","","","","",""
"","image-keyboard-response","14","40227","0.0-14.0","3QRYMNZ7FZ3FFW69XNUQKFNT8Y2NTU","A1DKVUTOBPQH11","3FVBZG9CLJ0K37PD5L6161S4HTM0HN","","901.6000000014901","img/flower3.png","76","902.2000000029802","3","0","1","1","1,0.333,0.333,0.333,1,0.333,0.333,0.333,1","1,0.333,0.333,0.333,1,0.333,0.333,0.333,1","1",""
"","html-keyboard-response","15","40528","0.0-15.0","3QRYMNZ7FZ3FFW69XNUQKFNT8Y2NTU","A1DKVUTOBPQH11","3FVBZG9CLJ0K37PD5L6161S4HTM0HN","","null","<img src=""img/flower3.png"" style=""width:200px;border:14px solid red;"">","null","","","","","","","","",""
"","image-keyboard-response","16","41343","0.0-16.0","3QRYMNZ7FZ3FFW69XNUQKFNT8Y2NTU","A1DKVUTOBPQH11","3FVBZG9CLJ0K37PD5L6161S4HTM0HN","","814","img/flower5.png","76","814.6999999955297","3","0","2","1","1,0.333,0.333,0.333,1,0.333,0.333,0.333,1","1,0.333,0.333,0.333,1,0.333,0.333,0.333,1","1",""
"","html-keyboard-response","17","41644","0.0-17.0","3QRYMNZ7FZ3FFW69XNUQKFNT8Y2NTU","A1DKVUTOBPQH11","3FVBZG9CLJ0K37PD5L6161S4HTM0HN","","null","<img src=""img/flower5.png"" style=""width:200px;border:14px solid red;"">","null","","","","","","","","",""
"","image-keyboard-response","18","42495","0.0-18.0","3QRYMNZ7FZ3FFW69XNUQKFNT8Y2NTU","A1DKVUTOBPQH11","3FVBZG9CLJ0K37PD5L6161S4HTM0HN","","850.6000000014901","img/flower3.png","75","851","2","0","1","1","1,0.333,0.333,0.333,1,0.333,0.333,0.333,1","1,0.333,0.333,0.333,1,0.333,0.333,0.333,1","1",""
"","html-keyboard-response","19","42796","0.0-19.0","3QRYMNZ7FZ3FFW69XNUQKFNT8Y2NTU","A1DKVUTOBPQH11","3FVBZG9CLJ0K37PD5L6161S4HTM0HN","","null","<img src=""img/flower3.png"" style=""width:200px;border:14px solid red;"">","null","","","","","","","","",""
"","image-keyboard-response","20","43623","0.0-20.0","3QRYMNZ7FZ3FFW69XNUQKFNT8Y2NTU","A1DKVUTOBPQH11","3FVBZG9CLJ0K37PD5L6161S4HTM0HN","","826.5","img/flower5.png","74","827.1999999955297","1","0","2","1","1,0.333,0.333,0.333,1,0.333,0.333,0.333,1","1,0.333,0.333,0.333,1,0.333,0.333,0.333,1","1",""
"","html-keyboard-response","21","43924","0.0-21.0","3QRYMNZ7FZ3FFW69XNUQKFNT8Y2NTU","A1DKVUTOBPQH11","3FVBZG9CLJ0K37PD5L6161S4HTM0HN","","null","<img src=""img/flower5.png"" style=""width:200px;border:14px solid red;"">","null","","","","","","","","",""
"","image-keyboard-response","22","44514","0.0-22.0","3QRYMNZ7FZ3FFW69XNUQKFNT8Y2NTU","A1DKVUTOBPQH11","3FVBZG9CLJ0K37PD5L6161S4HTM0HN","","589.1999999955297","img/flower3.png","76","589.6999999955297","3","0","1","1","1,0.333,0.333,0.333,1,0.333,0.333,0.333,1","1,0.333,0.333,0.333,1,0.333,0.333,0.333,1","1",""
"","html-keyboard-response","23","44816","0.0-23.0","3QRYMNZ7FZ3FFW69XNUQKFNT8Y2NTU","A1DKVUTOBPQH11","3FVBZG9CLJ0K37PD5L6161S4HTM0HN","","null","<img src=""img/flower3.png"" style=""width:200px;border:14px solid red;"">","null","","","","","","","","",""
"","image-keyboard-response","24","45191","0.0-24.0","3QRYMNZ7FZ3FFW69XNUQKFNT8Y2NTU","A1DKVUTOBPQH11","3FVBZG9CLJ0K37PD5L6161S4HTM0HN","","375","img/flower3.png","75","375.5","2","0","1","1","1,0.333,0.333,0.333,1,0.333,0.333,0.333,1","1,0.333,0.333,0.333,1,0.333,0.333,0.333,1","1",""
"","html-keyboard-response","25","45492","0.0-25.0","3QRYMNZ7FZ3FFW69XNUQKFNT8Y2NTU","A1DKVUTOBPQH11","3FVBZG9CLJ0K37PD5L6161S4HTM0HN","","null","<img src=""img/flower3.png"" style=""width:200px;border:14px solid red;"">","null","","","","","","","","",""
"","image-keyboard-response","26","45647","0.0-26.0","3QRYMNZ7FZ3FFW69XNUQKFNT8Y2NTU","A1DKVUTOBPQH11","3FVBZG9CLJ0K37PD5L6161S4HTM0HN","","153.80000000447035","img/flower6.png","74","154.5","1","0","3","1","1,0.333,0.333,0.333,1,0.333,0.333,0.333,1","1,0.333,0.333,0.333,1,0.333,0.333,0.333,1","1",""
"","html-keyboard-response","27","45949","0.0-27.0","3QRYMNZ7FZ3FFW69XNUQKFNT8Y2NTU","A1DKVUTOBPQH11","3FVBZG9CLJ0K37PD5L6161S4HTM0HN","","null","<img src=""img/flower6.png"" style=""width:200px;border:14px solid red;"">","null","","","","","","","","",""
"","image-keyboard-response","28","46623","0.0-28.0","3QRYMNZ7FZ3FFW69XNUQKFNT8Y2NTU","A1DKVUTOBPQH11","3FVBZG9CLJ0K37PD5L6161S4HTM0HN","","673.7999999970198","img/flower5.png","74","674.3999999985099","1","0","2","1","1,0.333,0.333,0.333,1,0.333,0.333,0.333,1","1,0.333,0.333,0.333,1,0.333,0.333,0.333,1","1",""
"","html-keyboard-response","29","46925","0.0-29.0","3QRYMNZ7FZ3FFW69XNUQKFNT8Y2NTU","A1DKVUTOBPQH11","3FVBZG9CLJ0K37PD5L6161S4HTM0HN","","null","<img src=""img/flower5.png"" style=""width:200px;border:14px solid red;"">","null","","","","","","","","",""
"","image-keyboard-response","30","47431","0.0-30.0","3QRYMNZ7FZ3FFW69XNUQKFNT8Y2NTU","A1DKVUTOBPQH11","3FVBZG9CLJ0K37PD5L6161S4HTM0HN","","505.5","img/flower5.png","75","505.8999999985099","2","1","2","1","1,0.333,0.333,0.333,1,0.333,0.333,0.333,1","1,0.333,0.333,0.333,1,0.333,0.333,0.333,1","1",""
"","html-keyboard-response","31","47732","0.0-31.0","3QRYMNZ7FZ3FFW69XNUQKFNT8Y2NTU","A1DKVUTOBPQH11","3FVBZG9CLJ0K37PD5L6161S4HTM0HN","","null","<img src=""img/flower5.png"" style=""width:200px; border:14px solid green;"">","null","","","","","","","","",""
"","image-keyboard-response","32","48522","0.0-32.0","3QRYMNZ7FZ3FFW69XNUQKFNT8Y2NTU","A1DKVUTOBPQH11","3FVBZG9CLJ0K37PD5L6161S4HTM0HN","","789.2000000029802","img/flower5.png","75","789.7000000029802","2","1","2","1","1,0.333,0.333,0.333,1,0.333,0.333,0.333,1","1,0.333,0.333,0.333,1,0.333,0.333,0.333,1","1",""
"","html-keyboard-response","33","48823","0.0-33.0","3QRYMNZ7FZ3FFW69XNUQKFNT8Y2NTU","A1DKVUTOBPQH11","3FVBZG9CLJ0K37PD5L6161S4HTM0HN","","null","<img src=""img/flower5.png"" style=""width:200px; border:14px solid green;"">","null","","","","","","","","",""
"","image-keyboard-response","34","49279","0.0-34.0","3QRYMNZ7FZ3FFW69XNUQKFNT8Y2NTU","A1DKVUTOBPQH11","3FVBZG9CLJ0K37PD5L6161S4HTM0HN","","454.8999999985099","img/flower5.png","75","455.3999999985099","2","1","2","1","1,0.333,0.333,0.333,1,0.333,0.333,0.333,1","1,0.333,0.333,0.333,1,0.333,0.333,0.333,1","1",""
"","html-keyboard-response","35","49580","0.0-35.0","3QRYMNZ7FZ3FFW69XNUQKFNT8Y2NTU","A1DKVUTOBPQH11","3FVBZG9CLJ0K37PD5L6161S4HTM0HN","","null","<img src=""img/flower5.png"" style=""width:200px; border:14px solid green;"">","null","","","","","","","","",""
"","image-keyboard-response","36","50346","0.0-36.0","3QRYMNZ7FZ3FFW69XNUQKFNT8Y2NTU","A1DKVUTOBPQH11","3FVBZG9CLJ0K37PD5L6161S4HTM0HN","","765.6000000014901","img/flower3.png","76","766.0999999940395","3","0","1","1","1,0.333,0.333,0.333,1,0.333,0.333,0.333,1","1,0.333,0.333,0.333,1,0.333,0.333,0.333,1","1",""
"","html-keyboard-response","37","50648","0.0-37.0","3QRYMNZ7FZ3FFW69XNUQKFNT8Y2NTU","A1DKVUTOBPQH11","3FVBZG9CLJ0K37PD5L6161S4HTM0HN","","null","<img src=""img/flower3.png"" style=""width:200px;border:14px solid red;"">","null","","","","","","","","",""
"","image-keyboard-response","38","51616","0.0-38.0","3QRYMNZ7FZ3FFW69XNUQKFNT8Y2NTU","A1DKVUTOBPQH11","3FVBZG9CLJ0K37PD5L6161S4HTM0HN","","967.6000000014901","img/flower6.png","74","968.1000000014901","1","0","3","1","1,0.333,0.333,0.333,1,0.333,0.333,0.333,1","1,0.333,0.333,0.333,1,0.333,0.333,0.333,1","1",""
"","html-keyboard-response","39","51917","0.0-39.0","3QRYMNZ7FZ3FFW69XNUQKFNT8Y2NTU","A1DKVUTOBPQH11","3FVBZG9CLJ0K37PD5L6161S4HTM0HN","","null","<img src=""img/flower6.png"" style=""width:200px;border:14px solid red;"">","null","","","","","","","","",""
"","image-keyboard-response","40","52836","0.0-40.0","3QRYMNZ7FZ3FFW69XNUQKFNT8Y2NTU","A1DKVUTOBPQH11","3FVBZG9CLJ0K37PD5L6161S4HTM0HN","","918.2000000029802","img/flower3.png","75","918.6999999955297","2","0","1","1","1,0.333,0.333,0.333,1,0.333,0.333,0.333,1","1,0.333,0.333,0.333,1,0.333,0.333,0.333,1","1",""
"","html-keyboard-response","41","53137","0.0-41.0","3QRYMNZ7FZ3FFW69XNUQKFNT8Y2NTU","A1DKVUTOBPQH11","3FVBZG9CLJ0K37PD5L6161S4HTM0HN","","null","<img src=""img/flower3.png"" style=""width:200px;border:14px solid red;"">","null","","","","","","","","",""
"","image-keyboard-response","42","53504","0.0-42.0","3QRYMNZ7FZ3FFW69XNUQKFNT8Y2NTU","A1DKVUTOBPQH11","3FVBZG9CLJ0K37PD5L6161S4HTM0HN","","366","img/flower3.png","74","366.69999999552965","1","1","1","1","1,0.333,0.333,0.333,1,0.333,0.333,0.333,1","1,0.333,0.333,0.333,1,0.333,0.333,0.333,1","1",""
"","html-keyboard-response","43","53805","0.0-43.0","3QRYMNZ7FZ3FFW69XNUQKFNT8Y2NTU","A1DKVUTOBPQH11","3FVBZG9CLJ0K37PD5L6161S4HTM0HN","","null","<img src=""img/flower3.png"" style=""width:200px; border:14px solid green;"">","null","","","","","","","","",""
"","image-keyboard-response","44","54823","0.0-44.0","3QRYMNZ7FZ3FFW69XNUQKFNT8Y2NTU","A1DKVUTOBPQH11","3FVBZG9CLJ0K37PD5L6161S4HTM0HN","","1017.5999999940395","img/flower6.png","74","1018.2000000029802","1","0","3","1","1,0.333,0.333,0.333,1,0.333,0.333,0.333,1","1,0.333,0.333,0.333,1,0.333,0.333,0.333,1","1",""
"","html-keyboard-response","45","55125","0.0-45.0","3QRYMNZ7FZ3FFW69XNUQKFNT8Y2NTU","A1DKVUTOBPQH11","3FVBZG9CLJ0K37PD5L6161S4HTM0HN","","null","<img src=""img/flower6.png"" style=""width:200px;border:14px solid red;"">","null","","","","","","","","",""
"","image-keyboard-response","46","56527","0.0-46.0","3QRYMNZ7FZ3FFW69XNUQKFNT8Y2NTU","A1DKVUTOBPQH11","3FVBZG9CLJ0K37PD5L6161S4HTM0HN","","1401.6000000014901","img/flower3.png","74","1402.1999999955297","1","1","1","1","1,0.333,0.333,0.333,1,0.333,0.333,0.333,1","1,0.333,0.333,0.333,1,0.333,0.333,0.333,1","1",""
"","html-keyboard-response","47","56829","0.0-47.0","3QRYMNZ7FZ3FFW69XNUQKFNT8Y2NTU","A1DKVUTOBPQH11","3FVBZG9CLJ0K37PD5L6161S4HTM0HN","","null","<img src=""img/flower3.png"" style=""width:200px; border:14px solid green;"">","null","","","","","","","","",""
"","image-keyboard-response","48","57432","0.0-48.0","3QRYMNZ7FZ3FFW69XNUQKFNT8Y2NTU","A1DKVUTOBPQH11","3FVBZG9CLJ0K37PD5L6161S4HTM0HN","","602.3999999985099","img/flower5.png","75","602.8999999985099","2","1","2","1","1,0.333,0.333,0.333,1,0.333,0.333,0.333,1","1,0.333,0.333,0.333,1,0.333,0.333,0.333,1","1",""
"","html-keyboard-response","49","57734","0.0-49.0","3QRYMNZ7FZ3FFW69XNUQKFNT8Y2NTU","A1DKVUTOBPQH11","3FVBZG9CLJ0K37PD5L6161S4HTM0HN","","null","<img src=""img/flower5.png"" style=""width:200px; border:14px solid green;"">","null","","","","","","","","",""
"","image-keyboard-response","50","58344","0.0-50.0","3QRYMNZ7FZ3FFW69XNUQKFNT8Y2NTU","A1DKVUTOBPQH11","3FVBZG9CLJ0K37PD5L6161S4HTM0HN","","610.3000000044703","img/flower5.png","75","610.7999999970198","2","1","2","1","1,0.333,0.333,0.333,1,0.333,0.333,0.333,1","1,0.333,0.333,0.333,1,0.333,0.333,0.333,1","1",""
"","html-keyboard-response","51","58646","0.0-51.0","3QRYMNZ7FZ3FFW69XNUQKFNT8Y2NTU","A1DKVUTOBPQH11","3FVBZG9CLJ0K37PD5L6161S4HTM0HN","","null","<img src=""img/flower5.png"" style=""width:200px; border:14px solid green;"">","null","","","","","","","","",""
"","image-keyboard-response","52","59525","0.0-52.0","3QRYMNZ7FZ3FFW69XNUQKFNT8Y2NTU","A1DKVUTOBPQH11","3FVBZG9CLJ0K37PD5L6161S4HTM0HN","","878.5","img/flower6.png","76","879","3","1","3","1","1,0.333,0.333,0.333,1,0.333,0.333,0.333,1","1,0.333,0.333,0.333,1,0.333,0.333,0.333,1","1",""
"","html-keyboard-response","53","59826","0.0-53.0","3QRYMNZ7FZ3FFW69XNUQKFNT8Y2NTU","A1DKVUTOBPQH11","3FVBZG9CLJ0K37PD5L6161S4HTM0HN","","null","<img src=""img/flower6.png"" style=""width:200px; border:14px solid green;"">","null","","","","","","","","",""
"","image-keyboard-response","54","61127","0.0-54.0","3QRYMNZ7FZ3FFW69XNUQKFNT8Y2NTU","A1DKVUTOBPQH11","3FVBZG9CLJ0K37PD5L6161S4HTM0HN","","1300.3999999985099","img/flower3.png","74","1300.8000000044703","1","1","1","1","1,0.333,0.333,0.333,1,0.333,0.333,0.333,1","1,0.333,0.333,0.333,1,0.333,0.333,0.333,1","1",""
"","html-keyboard-response","55","61429","0.0-55.0","3QRYMNZ7FZ3FFW69XNUQKFNT8Y2NTU","A1DKVUTOBPQH11","3FVBZG9CLJ0K37PD5L6161S4HTM0HN","","null","<img src=""img/flower3.png"" style=""width:200px; border:14px solid green;"">","null","","","","","","","","",""
"","image-keyboard-response","56","62159","0.0-56.0","3QRYMNZ7FZ3FFW69XNUQKFNT8Y2NTU","A1DKVUTOBPQH11","3FVBZG9CLJ0K37PD5L6161S4HTM0HN","","730","img/flower5.png","75","730.5","2","1","2","1","1,0.333,0.333,0.333,1,0.333,0.333,0.333,1","1,0.333,0.333,0.333,1,0.333,0.333,0.333,1","1",""
"","html-keyboard-response","57","62467","0.0-57.0","3QRYMNZ7FZ3FFW69XNUQKFNT8Y2NTU","A1DKVUTOBPQH11","3FVBZG9CLJ0K37PD5L6161S4HTM0HN","","null","<img src=""img/flower5.png"" style=""width:200px; border:14px solid green;"">","null","","","","","","","","",""
"","image-keyboard-response","58","63379","0.0-58.0","3QRYMNZ7FZ3FFW69XNUQKFNT8Y2NTU","A1DKVUTOBPQH11","3FVBZG9CLJ0K37PD5L6161S4HTM0HN","","911.5999999940395","img/flower6.png","76","912","3","1","3","1","1,0.333,0.333,0.333,1,0.333,0.333,0.333,1","1,0.333,0.333,0.333,1,0.333,0.333,0.333,1","1",""
"","html-keyboard-response","59","63680","0.0-59.0","3QRYMNZ7FZ3FFW69XNUQKFNT8Y2NTU","A1DKVUTOBPQH11","3FVBZG9CLJ0K37PD5L6161S4HTM0HN","","null","<img src=""img/flower6.png"" style=""width:200px; border:14px solid green;"">","null","","","","","","","","",""
"","image-keyboard-response","60","64512","0.0-60.0","3QRYMNZ7FZ3FFW69XNUQKFNT8Y2NTU","A1DKVUTOBPQH11","3FVBZG9CLJ0K37PD5L6161S4HTM0HN","","830.2000000029802","img/flower5.png","75","830.8999999985099","2","1","2","1","1,0.333,0.333,0.333,1,0.333,0.333,0.333,1","1,0.333,0.333,0.333,1,0.333,0.333,0.333,1","1",""
"","html-keyboard-response","61","64813","0.0-61.0","3QRYMNZ7FZ3FFW69XNUQKFNT8Y2NTU","A1DKVUTOBPQH11","3FVBZG9CLJ0K37PD5L6161S4HTM0HN","","null","<img src=""img/flower5.png"" style=""width:200px; border:14px solid green;"">","null","","","","","","","","",""
"","image-keyboard-response","62","66098","0.0-62.0","3QRYMNZ7FZ3FFW69XNUQKFNT8Y2NTU","A1DKVUTOBPQH11","3FVBZG9CLJ0K37PD5L6161S4HTM0HN","","1284.2999999970198","img/flower6.png","76","1284.6999999955297","3","1","3","1","1,0.333,0.333,0.333,1,0.333,0.333,0.333,1","1,0.333,0.333,0.333,1,0.333,0.333,0.333,1","1",""
"","html-keyboard-response","63","66399","0.0-63.0","3QRYMNZ7FZ3FFW69XNUQKFNT8Y2NTU","A1DKVUTOBPQH11","3FVBZG9CLJ0K37PD5L6161S4HTM0HN","","null","<img src=""img/flower6.png"" style=""width:200px; border:14px solid green;"">","null","","","","","","","","",""
"","image-keyboard-response","64","67593","0.0-64.0","3QRYMNZ7FZ3FFW69XNUQKFNT8Y2NTU","A1DKVUTOBPQH11","3FVBZG9CLJ0K37PD5L6161S4HTM0HN","","1194","img/flower5.png","75","1194.5","2","1","2","1","1,0.333,0.333,0.333,1,0.333,0.333,0.333,1","1,0.333,0.333,0.333,1,0.333,0.333,0.333,1","1",""
"","html-keyboard-response","65","67895","0.0-65.0","3QRYMNZ7FZ3FFW69XNUQKFNT8Y2NTU","A1DKVUTOBPQH11","3FVBZG9CLJ0K37PD5L6161S4HTM0HN","","null","<img src=""img/flower5.png"" style=""width:200px; border:14px solid green;"">","null","","","","","","","","",""
"","image-keyboard-response","66","68429","0.0-66.0","3QRYMNZ7FZ3FFW69XNUQKFNT8Y2NTU","A1DKVUTOBPQH11","3FVBZG9CLJ0K37PD5L6161S4HTM0HN","","533.6999999955297","img/flower5.png","75","534.1000000014901","2","1","2","1","1,0.333,0.333,0.333,1,0.333,0.333,0.333,1","1,0.333,0.333,0.333,1,0.333,0.333,0.333,1","1",""
"","html-keyboard-response","67","68730","0.0-67.0","3QRYMNZ7FZ3FFW69XNUQKFNT8Y2NTU","A1DKVUTOBPQH11","3FVBZG9CLJ0K37PD5L6161S4HTM0HN","","null","<img src=""img/flower5.png"" style=""width:200px; border:14px solid green;"">","null","","","","","","","","",""
"","image-keyboard-response","68","69333","0.0-68.0","3QRYMNZ7FZ3FFW69XNUQKFNT8Y2NTU","A1DKVUTOBPQH11","3FVBZG9CLJ0K37PD5L6161S4HTM0HN","","602","img/flower6.png","76","602.5","3","1","3","1","1,0.333,0.333,0.333,1,0.333,0.333,0.333,1","1,0.333,0.333,0.333,1,0.333,0.333,0.333,1","1",""
"","html-keyboard-response","69","69635","0.0-69.0","3QRYMNZ7FZ3FFW69XNUQKFNT8Y2NTU","A1DKVUTOBPQH11","3FVBZG9CLJ0K37PD5L6161S4HTM0HN","","null","<img src=""img/flower6.png"" style=""width:200px; border:14px solid green;"">","null","","","","","","","","",""
"","image-keyboard-response","70","70179","0.0-70.0","3QRYMNZ7FZ3FFW69XNUQKFNT8Y2NTU","A1DKVUTOBPQH11","3FVBZG9CLJ0K37PD5L6161S4HTM0HN","","544","img/flower6.png","76","544.5","3","1","3","1","1,0.333,0.333,0.333,1,0.333,0.333,0.333,1","1,0.333,0.333,0.333,1,0.333,0.333,0.333,1","1",""
"","html-keyboard-response","71","70480","0.0-71.0","3QRYMNZ7FZ3FFW69XNUQKFNT8Y2NTU","A1DKVUTOBPQH11","3FVBZG9CLJ0K37PD5L6161S4HTM0HN","","null","<img src=""img/flower6.png"" style=""width:200px; border:14px solid green;"">","null","","","","","","","","",""
"","image-keyboard-response","72","71483","0.0-72.0","3QRYMNZ7FZ3FFW69XNUQKFNT8Y2NTU","A1DKVUTOBPQH11","3FVBZG9CLJ0K37PD5L6161S4HTM0HN","","1002.2999999970198","img/flower3.png","74","1002.7999999970198","1","1","1","1","1,0.333,0.333,0.333,1,0.333,0.333,0.333,1","1,0.333,0.333,0.333,1,0.333,0.333,0.333,1","1",""
"","html-keyboard-response","73","71784","0.0-73.0","3QRYMNZ7FZ3FFW69XNUQKFNT8Y2NTU","A1DKVUTOBPQH11","3FVBZG9CLJ0K37PD5L6161S4HTM0HN","","null","<img src=""img/flower3.png"" style=""width:200px; border:14px solid green;"">","null","","","","","","","","",""
"","image-keyboard-response","74","72522","0.0-74.0","3QRYMNZ7FZ3FFW69XNUQKFNT8Y2NTU","A1DKVUTOBPQH11","3FVBZG9CLJ0K37PD5L6161S4HTM0HN","","737.5999999940395","img/flower6.png","76","738.1000000014901","3","1","3","1","1,0.333,0.333,0.333,1,0.333,0.333,0.333,1","1,0.333,0.333,0.333,1,0.333,0.333,0.333,1","1",""
"","html-keyboard-response","75","72823","0.0-75.0","3QRYMNZ7FZ3FFW69XNUQKFNT8Y2NTU","A1DKVUTOBPQH11","3FVBZG9CLJ0K37PD5L6161S4HTM0HN","","null","<img src=""img/flower6.png"" style=""width:200px; border:14px solid green;"">","null","","","","","","","","",""
"","image-keyboard-response","76","73563","0.0-76.0","3QRYMNZ7FZ3FFW69XNUQKFNT8Y2NTU","A1DKVUTOBPQH11","3FVBZG9CLJ0K37PD5L6161S4HTM0HN","","738.7000000029802","img/flower5.png","75","739.0999999940395","2","1","2","1","1,0.333,0.333,0.333,1,0.333,0.333,0.333,1","1,0.333,0.333,0.333,1,0.333,0.333,0.333,1","1",""
"","html-keyboard-response","77","73864","0.0-77.0","3QRYMNZ7FZ3FFW69XNUQKFNT8Y2NTU","A1DKVUTOBPQH11","3FVBZG9CLJ0K37PD5L6161S4HTM0HN","","null","<img src=""img/flower5.png"" style=""width:200px; border:14px solid green;"">","null","","","","","","","","",""
"","image-keyboard-response","78","74291","0.0-78.0","3QRYMNZ7FZ3FFW69XNUQKFNT8Y2NTU","A1DKVUTOBPQH11","3FVBZG9CLJ0K37PD5L6161S4HTM0HN","","425.79999999701977","img/flower5.png","75","426.30000000447035","2","1","2","1","1,0.333,0.333,0.333,1,0.333,0.333,0.333,1","1,0.333,0.333,0.333,1,0.333,0.333,0.333,1","1",""
"","html-keyboard-response","79","74592","0.0-79.0","3QRYMNZ7FZ3FFW69XNUQKFNT8Y2NTU","A1DKVUTOBPQH11","3FVBZG9CLJ0K37PD5L6161S4HTM0HN","","null","<img src=""img/flower5.png"" style=""width:200px; border:14px solid green;"">","null","","","","","","","","",""
"","image-keyboard-response","80","74978","0.0-80.0","3QRYMNZ7FZ3FFW69XNUQKFNT8Y2NTU","A1DKVUTOBPQH11","3FVBZG9CLJ0K37PD5L6161S4HTM0HN","","385.20000000298023","img/flower5.png","75","385.79999999701977","2","1","2","1","1,0.333,0.333,0.333,1,0.333,0.333,0.333,1","1,0.333,0.333,0.333,1,0.333,0.333,0.333,1","1",""
"","html-keyboard-response","81","75279","0.0-81.0","3QRYMNZ7FZ3FFW69XNUQKFNT8Y2NTU","A1DKVUTOBPQH11","3FVBZG9CLJ0K37PD5L6161S4HTM0HN","","null","<img src=""img/flower5.png"" style=""width:200px; border:14px solid green;"">","null","","","","","","","","",""
"","image-keyboard-response","82","76155","0.0-82.0","3QRYMNZ7FZ3FFW69XNUQKFNT8Y2NTU","A1DKVUTOBPQH11","3FVBZG9CLJ0K37PD5L6161S4HTM0HN","","875.5","img/flower6.png","76","876","3","1","3","1","1,0.333,0.333,0.333,1,0.333,0.333,0.333,1","1,0.333,0.333,0.333,1,0.333,0.333,0.333,1","1",""
"","html-keyboard-response","83","76457","0.0-83.0","3QRYMNZ7FZ3FFW69XNUQKFNT8Y2NTU","A1DKVUTOBPQH11","3FVBZG9CLJ0K37PD5L6161S4HTM0HN","","null","<img src=""img/flower6.png"" style=""width:200px; border:14px solid green;"">","null","","","","","","","","",""
"","image-keyboard-response","84","76888","0.0-84.0","3QRYMNZ7FZ3FFW69XNUQKFNT8Y2NTU","A1DKVUTOBPQH11","3FVBZG9CLJ0K37PD5L6161S4HTM0HN","","430.69999999552965","img/flower6.png","76","431.20000000298023","3","1","3","1","1,0.333,0.333,0.333,1,0.333,0.333,0.333,1","1,0.333,0.333,0.333,1,0.333,0.333,0.333,1","1",""
"","html-keyboard-response","85","77190","0.0-85.0","3QRYMNZ7FZ3FFW69XNUQKFNT8Y2NTU","A1DKVUTOBPQH11","3FVBZG9CLJ0K37PD5L6161S4HTM0HN","","null","<img src=""img/flower6.png"" style=""width:200px; border:14px solid green;"">","null","","","","","","","","",""
"","image-keyboard-response","86","78082","0.0-86.0","3QRYMNZ7FZ3FFW69XNUQKFNT8Y2NTU","A1DKVUTOBPQH11","3FVBZG9CLJ0K37PD5L6161S4HTM0HN","","891.7999999970198","img/flower3.png","74","892.2999999970198","1","1","1","1","1,0.333,0.333,0.333,1,0.333,0.333,0.333,1","1,0.333,0.333,0.333,1,0.333,0.333,0.333,1","1",""
"","html-keyboard-response","87","78384","0.0-87.0","3QRYMNZ7FZ3FFW69XNUQKFNT8Y2NTU","A1DKVUTOBPQH11","3FVBZG9CLJ0K37PD5L6161S4HTM0HN","","null","<img src=""img/flower3.png"" style=""width:200px; border:14px solid green;"">","null","","","","","","","","",""
"","image-keyboard-response","88","78834","0.0-88.0","3QRYMNZ7FZ3FFW69XNUQKFNT8Y2NTU","A1DKVUTOBPQH11","3FVBZG9CLJ0K37PD5L6161S4HTM0HN","","449.69999999552965","img/flower3.png","74","450.30000000447035","1","1","1","1","1,0.333,0.333,0.333,1,0.333,0.333,0.333,1","1,0.333,0.333,0.333,1,0.333,0.333,0.333,1","1",""
"","html-keyboard-response","89","79135","0.0-89.0","3QRYMNZ7FZ3FFW69XNUQKFNT8Y2NTU","A1DKVUTOBPQH11","3FVBZG9CLJ0K37PD5L6161S4HTM0HN","","null","<img src=""img/flower3.png"" style=""width:200px; border:14px solid green;"">","null","","","","","","","","",""
"","image-keyboard-response","90","79928","0.0-90.0","3QRYMNZ7FZ3FFW69XNUQKFNT8Y2NTU","A1DKVUTOBPQH11","3FVBZG9CLJ0K37PD5L6161S4HTM0HN","","792.2999999970198","img/flower5.png","75","792.7999999970198","2","1","2","1","1,0.333,0.333,0.333,1,0.333,0.333,0.333,1","1,0.333,0.333,0.333,1,0.333,0.333,0.333,1","1",""
"","html-keyboard-response","91","80230","0.0-91.0","3QRYMNZ7FZ3FFW69XNUQKFNT8Y2NTU","A1DKVUTOBPQH11","3FVBZG9CLJ0K37PD5L6161S4HTM0HN","","null","<img src=""img/flower5.png"" style=""width:200px; border:14px solid green;"">","null","","","","","","","","",""
"","image-keyboard-response","92","80645","0.0-92.0","3QRYMNZ7FZ3FFW69XNUQKFNT8Y2NTU","A1DKVUTOBPQH11","3FVBZG9CLJ0K37PD5L6161S4HTM0HN","","414.5","img/flower5.png","75","414.8999999985099","2","1","2","1","1,0.333,0.333,0.333,1,0.333,0.333,0.333,1","1,0.333,0.333,0.333,1,0.333,0.333,0.333,1","1",""
"","html-keyboard-response","93","80946","0.0-93.0","3QRYMNZ7FZ3FFW69XNUQKFNT8Y2NTU","A1DKVUTOBPQH11","3FVBZG9CLJ0K37PD5L6161S4HTM0HN","","null","<img src=""img/flower5.png"" style=""width:200px; border:14px solid green;"">","null","","","","","","","","",""
"","image-keyboard-response","94","81916","0.0-94.0","3QRYMNZ7FZ3FFW69XNUQKFNT8Y2NTU","A1DKVUTOBPQH11","3FVBZG9CLJ0K37PD5L6161S4HTM0HN","","969.8999999985099","img/flower3.png","74","970.3999999985099","1","1","1","1","1,0.333,0.333,0.333,1,0.333,0.333,0.333,1","1,0.333,0.333,0.333,1,0.333,0.333,0.333,1","1",""
"","html-keyboard-response","95","82217","0.0-95.0","3QRYMNZ7FZ3FFW69XNUQKFNT8Y2NTU","A1DKVUTOBPQH11","3FVBZG9CLJ0K37PD5L6161S4HTM0HN","","null","<img src=""img/flower3.png"" style=""width:200px; border:14px solid green;"">","null","","","","","","","","",""
"","image-keyboard-response","96","82664","0.0-96.0","3QRYMNZ7FZ3FFW69XNUQKFNT8Y2NTU","A1DKVUTOBPQH11","3FVBZG9CLJ0K37PD5L6161S4HTM0HN","","447","img/flower3.png","74","447.40000000596046","1","1","1","1","1,0.333,0.333,0.333,1,0.333,0.333,0.333,1","1,0.333,0.333,0.333,1,0.333,0.333,0.333,1","1",""
"","html-keyboard-response","97","82966","0.0-97.0","3QRYMNZ7FZ3FFW69XNUQKFNT8Y2NTU","A1DKVUTOBPQH11","3FVBZG9CLJ0K37PD5L6161S4HTM0HN","","null","<img src=""img/flower3.png"" style=""width:200px; border:14px solid green;"">","null","","","","","","","","",""
"","image-keyboard-response","98","83606","0.0-98.0","3QRYMNZ7FZ3FFW69XNUQKFNT8Y2NTU","A1DKVUTOBPQH11","3FVBZG9CLJ0K37PD5L6161S4HTM0HN","","639.8999999985099","img/flower3.png","74","640.3999999985099","1","1","1","1","1,0.333,0.333,0.333,1,0.333,0.333,0.333,1","1,0.333,0.333,0.333,1,0.333,0.333,0.333,1","1",""
"","html-keyboard-response","99","83907","0.0-99.0","3QRYMNZ7FZ3FFW69XNUQKFNT8Y2NTU","A1DKVUTOBPQH11","3FVBZG9CLJ0K37PD5L6161S4HTM0HN","","null","<img src=""img/flower3.png"" style=""width:200px; border:14px solid green;"">","null","","","","","","","","",""
"","image-keyboard-response","100","84486","0.0-100.0","3QRYMNZ7FZ3FFW69XNUQKFNT8Y2NTU","A1DKVUTOBPQH11","3FVBZG9CLJ0K37PD5L6161S4HTM0HN","","578.5999999940395","img/flower5.png","75","579.1000000014901","2","1","2","1","1,0.333,0.333,0.333,1,0.333,0.333,0.333,1","1,0.333,0.333,0.333,1,0.333,0.333,0.333,1","1",""
"","html-keyboard-response","101","84787","0.0-101.0","3QRYMNZ7FZ3FFW69XNUQKFNT8Y2NTU","A1DKVUTOBPQH11","3FVBZG9CLJ0K37PD5L6161S4HTM0HN","","null","<img src=""img/flower5.png"" style=""width:200px; border:14px solid green;"">","null","","","","","","","","",""
"","image-keyboard-response","102","85398","0.0-102.0","3QRYMNZ7FZ3FFW69XNUQKFNT8Y2NTU","A1DKVUTOBPQH11","3FVBZG9CLJ0K37PD5L6161S4HTM0HN","","610.6000000014901","img/flower6.png","76","611","3","1","3","1","1,0.333,0.333,0.333,1,0.333,0.333,0.333,1","1,0.333,0.333,0.333,1,0.333,0.333,0.333,1","1",""
"","html-keyboard-response","103","85699","0.0-103.0","3QRYMNZ7FZ3FFW69XNUQKFNT8Y2NTU","A1DKVUTOBPQH11","3FVBZG9CLJ0K37PD5L6161S4HTM0HN","","null","<img src=""img/flower6.png"" style=""width:200px; border:14px solid green;"">","null","","","","","","","","",""
"","image-keyboard-response","104","86340","0.0-104.0","3QRYMNZ7FZ3FFW69XNUQKFNT8Y2NTU","A1DKVUTOBPQH11","3FVBZG9CLJ0K37PD5L6161S4HTM0HN","","640.5","img/flower5.png","75","641","2","1","2","1","1,0.333,0.333,0.333,1,0.333,0.333,0.333,1","1,0.333,0.333,0.333,1,0.333,0.333,0.333,1","1",""
"","html-keyboard-response","105","86642","0.0-105.0","3QRYMNZ7FZ3FFW69XNUQKFNT8Y2NTU","A1DKVUTOBPQH11","3FVBZG9CLJ0K37PD5L6161S4HTM0HN","","null","<img src=""img/flower5.png"" style=""width:200px; border:14px solid green;"">","null","","","","","","","","",""
"","image-keyboard-response","106","87076","0.0-106.0","3QRYMNZ7FZ3FFW69XNUQKFNT8Y2NTU","A1DKVUTOBPQH11","3FVBZG9CLJ0K37PD5L6161S4HTM0HN","","434","img/flower5.png","75","434.5","2","1","2","1","1,0.333,0.333,0.333,1,0.333,0.333,0.333,1","1,0.333,0.333,0.333,1,0.333,0.333,0.333,1","1",""
"","html-keyboard-response","107","87377","0.0-107.0","3QRYMNZ7FZ3FFW69XNUQKFNT8Y2NTU","A1DKVUTOBPQH11","3FVBZG9CLJ0K37PD5L6161S4HTM0HN","","null","<img src=""img/flower5.png"" style=""width:200px; border:14px solid green;"">","null","","","","","","","","",""
"","image-keyboard-response","108","88284","0.0-108.0","3QRYMNZ7FZ3FFW69XNUQKFNT8Y2NTU","A1DKVUTOBPQH11","3FVBZG9CLJ0K37PD5L6161S4HTM0HN","","906.5","img/flower3.png","74","906.9000000059605","1","1","1","1","1,0.333,0.333,0.333,1,0.333,0.333,0.333,1","1,0.333,0.333,0.333,1,0.333,0.333,0.333,1","1",""
"","html-keyboard-response","109","88586","0.0-109.0","3QRYMNZ7FZ3FFW69XNUQKFNT8Y2NTU","A1DKVUTOBPQH11","3FVBZG9CLJ0K37PD5L6161S4HTM0HN","","null","<img src=""img/flower3.png"" style=""width:200px; border:14px solid green;"">","null","","","","","","","","",""
"","image-keyboard-response","110","89266","0.0-110.0","3QRYMNZ7FZ3FFW69XNUQKFNT8Y2NTU","A1DKVUTOBPQH11","3FVBZG9CLJ0K37PD5L6161S4HTM0HN","","680.1999999955297","img/flower6.png","76","680.7000000029802","3","1","3","1","1,0.333,0.333,0.333,1,0.333,0.333,0.333,1","1,0.333,0.333,0.333,1,0.333,0.333,0.333,1","1",""
"","html-keyboard-response","111","89567","0.0-111.0","3QRYMNZ7FZ3FFW69XNUQKFNT8Y2NTU","A1DKVUTOBPQH11","3FVBZG9CLJ0K37PD5L6161S4HTM0HN","","null","<img src=""img/flower6.png"" style=""width:200px; border:14px solid green;"">","null","","","","","","","","",""
"","image-keyboard-response","112","90432","0.0-112.0","3QRYMNZ7FZ3FFW69XNUQKFNT8Y2NTU","A1DKVUTOBPQH11","3FVBZG9CLJ0K37PD5L6161S4HTM0HN","","864.5","img/flower3.png","74","864.7999999970198","1","1","1","1","1,0.333,0.333,0.333,1,0.333,0.333,0.333,1","1,0.333,0.333,0.333,1,0.333,0.333,0.333,1","1",""
"","html-keyboard-response","113","90733","0.0-113.0","3QRYMNZ7FZ3FFW69XNUQKFNT8Y2NTU","A1DKVUTOBPQH11","3FVBZG9CLJ0K37PD5L6161S4HTM0HN","","null","<img src=""img/flower3.png"" style=""width:200px; border:14px solid green;"">","null","","","","","","","","",""
"","image-keyboard-response","114","91364","0.0-114.0","3QRYMNZ7FZ3FFW69XNUQKFNT8Y2NTU","A1DKVUTOBPQH11","3FVBZG9CLJ0K37PD5L6161S4HTM0HN","","630.3999999985099","img/flower6.png","76","630.7999999970198","3","1","3","1","1,0.333,0.333,0.333,1,0.333,0.333,0.333,1","1,0.333,0.333,0.333,1,0.333,0.333,0.333,1","1",""
"","html-keyboard-response","115","91665","0.0-115.0","3QRYMNZ7FZ3FFW69XNUQKFNT8Y2NTU","A1DKVUTOBPQH11","3FVBZG9CLJ0K37PD5L6161S4HTM0HN","","null","<img src=""img/flower6.png"" style=""width:200px; border:14px solid green;"">","null","","","","","","","","",""
"","image-keyboard-response","116","92114","0.0-116.0","3QRYMNZ7FZ3FFW69XNUQKFNT8Y2NTU","A1DKVUTOBPQH11","3FVBZG9CLJ0K37PD5L6161S4HTM0HN","","447.70000000298023","img/flower6.png","76","448.3999999985099","3","1","3","1","1,0.333,0.333,0.333,1,0.333,0.333,0.333,1","1,0.333,0.333,0.333,1,0.333,0.333,0.333,1","1",""
"","html-keyboard-response","117","92416","0.0-117.0","3QRYMNZ7FZ3FFW69XNUQKFNT8Y2NTU","A1DKVUTOBPQH11","3FVBZG9CLJ0K37PD5L6161S4HTM0HN","","null","<img src=""img/flower6.png"" style=""width:200px; border:14px solid green;"">","null","","","","","","","","",""
"","image-keyboard-response","118","93030","0.0-118.0","3QRYMNZ7FZ3FFW69XNUQKFNT8Y2NTU","A1DKVUTOBPQH11","3FVBZG9CLJ0K37PD5L6161S4HTM0HN","","613.7999999970198","img/flower5.png","75","614.2999999970198","2","1","2","1","1,0.333,0.333,0.333,1,0.333,0.333,0.333,1","1,0.333,0.333,0.333,1,0.333,0.333,0.333,1","1",""
"","html-keyboard-response","119","93331","0.0-119.0","3QRYMNZ7FZ3FFW69XNUQKFNT8Y2NTU","A1DKVUTOBPQH11","3FVBZG9CLJ0K37PD5L6161S4HTM0HN","","null","<img src=""img/flower5.png"" style=""width:200px; border:14px solid green;"">","null","","","","","","","","",""
"","image-keyboard-response","120","93928","0.0-120.0","3QRYMNZ7FZ3FFW69XNUQKFNT8Y2NTU","A1DKVUTOBPQH11","3FVBZG9CLJ0K37PD5L6161S4HTM0HN","","596.1999999955297","img/flower6.png","76","596.7000000029802","3","1","3","1","1,0.333,0.333,0.333,1,0.333,0.333,0.333,1","1,0.333,0.333,0.333,1,0.333,0.333,0.333,1","1",""
"","html-keyboard-response","121","94230","0.0-121.0","3QRYMNZ7FZ3FFW69XNUQKFNT8Y2NTU","A1DKVUTOBPQH11","3FVBZG9CLJ0K37PD5L6161S4HTM0HN","","null","<img src=""img/flower6.png"" style=""width:200px; border:14px solid green;"">","null","","","","","","","","",""
"","image-keyboard-response","122","94692","0.0-122.0","3QRYMNZ7FZ3FFW69XNUQKFNT8Y2NTU","A1DKVUTOBPQH11","3FVBZG9CLJ0K37PD5L6161S4HTM0HN","","461.30000000447035","img/flower6.png","76","461.69999999552965","3","1","3","1","1,0.333,0.333,0.333,1,0.333,0.333,0.333,1","1,0.333,0.333,0.333,1,0.333,0.333,0.333,1","1",""
"","html-keyboard-response","123","94993","0.0-123.0","3QRYMNZ7FZ3FFW69XNUQKFNT8Y2NTU","A1DKVUTOBPQH11","3FVBZG9CLJ0K37PD5L6161S4HTM0HN","","null","<img src=""img/flower6.png"" style=""width:200px; border:14px solid green;"">","null","","","","","","","","",""
"","image-keyboard-response","124","95626","0.0-124.0","3QRYMNZ7FZ3FFW69XNUQKFNT8Y2NTU","A1DKVUTOBPQH11","3FVBZG9CLJ0K37PD5L6161S4HTM0HN","","632.2999999970198","img/flower3.png","74","632.6000000014901","1","1","1","1","1,0.333,0.333,0.333,1,0.333,0.333,0.333,1","1,0.333,0.333,0.333,1,0.333,0.333,0.333,1","1",""
"","html-keyboard-response","125","95932","0.0-125.0","3QRYMNZ7FZ3FFW69XNUQKFNT8Y2NTU","A1DKVUTOBPQH11","3FVBZG9CLJ0K37PD5L6161S4HTM0HN","","null","<img src=""img/flower3.png"" style=""width:200px; border:14px solid green;"">","null","","","","","","","","",""
"","image-keyboard-response","126","96352","0.0-126.0","3QRYMNZ7FZ3FFW69XNUQKFNT8Y2NTU","A1DKVUTOBPQH11","3FVBZG9CLJ0K37PD5L6161S4HTM0HN","","419.59999999403954","img/flower3.png","74","420.1000000014901","1","1","1","1","1,0.333,0.333,0.333,1,0.333,0.333,0.333,1","1,0.333,0.333,0.333,1,0.333,0.333,0.333,1","1",""
"","html-keyboard-response","127","96654","0.0-127.0","3QRYMNZ7FZ3FFW69XNUQKFNT8Y2NTU","A1DKVUTOBPQH11","3FVBZG9CLJ0K37PD5L6161S4HTM0HN","","null","<img src=""img/flower3.png"" style=""width:200px; border:14px solid green;"">","null","","","","","","","","",""
"","image-keyboard-response","128","97103","0.0-128.0","3QRYMNZ7FZ3FFW69XNUQKFNT8Y2NTU","A1DKVUTOBPQH11","3FVBZG9CLJ0K37PD5L6161S4HTM0HN","","448.40000000596046","img/flower3.png","74","448.79999999701977","1","1","1","1","1,0.333,0.333,0.333,1,0.333,0.333,0.333,1","1,0.333,0.333,0.333,1,0.333,0.333,0.333,1","1",""
"","html-keyboard-response","129","97404","0.0-129.0","3QRYMNZ7FZ3FFW69XNUQKFNT8Y2NTU","A1DKVUTOBPQH11","3FVBZG9CLJ0K37PD5L6161S4HTM0HN","","null","<img src=""img/flower3.png"" style=""width:200px; border:14px solid green;"">","null","","","","","","","","",""
"","image-keyboard-response","130","98159","0.0-130.0","3QRYMNZ7FZ3FFW69XNUQKFNT8Y2NTU","A1DKVUTOBPQH11","3FVBZG9CLJ0K37PD5L6161S4HTM0HN","","754.1999999955297","img/flower6.png","76","754.7000000029802","3","1","3","1","1,0.333,0.333,0.333,1,0.333,0.333,0.333,1","1,0.333,0.333,0.333,1,0.333,0.333,0.333,1","1",""
"","html-keyboard-response","131","98461","0.0-131.0","3QRYMNZ7FZ3FFW69XNUQKFNT8Y2NTU","A1DKVUTOBPQH11","3FVBZG9CLJ0K37PD5L6161S4HTM0HN","","null","<img src=""img/flower6.png"" style=""width:200px; border:14px solid green;"">","null","","","","","","","","",""
"","image-keyboard-response","132","99107","0.0-132.0","3QRYMNZ7FZ3FFW69XNUQKFNT8Y2NTU","A1DKVUTOBPQH11","3FVBZG9CLJ0K37PD5L6161S4HTM0HN","","645.3999999985099","img/flower3.png","74","646.1000000014901","1","1","1","1","1,0.333,0.333,0.333,1,0.333,0.333,0.333,1","1,0.333,0.333,0.333,1,0.333,0.333,0.333,1","1",""
"","html-keyboard-response","133","99409","0.0-133.0","3QRYMNZ7FZ3FFW69XNUQKFNT8Y2NTU","A1DKVUTOBPQH11","3FVBZG9CLJ0K37PD5L6161S4HTM0HN","","null","<img src=""img/flower3.png"" style=""width:200px; border:14px solid green;"">","null","","","","","","","","",""
"","image-keyboard-response","134","99848","0.0-134.0","3QRYMNZ7FZ3FFW69XNUQKFNT8Y2NTU","A1DKVUTOBPQH11","3FVBZG9CLJ0K37PD5L6161S4HTM0HN","","438","img/flower3.png","74","438.5","1","1","1","1","1,0.333,0.333,0.333,1,0.333,0.333,0.333,1","1,0.333,0.333,0.333,1,0.333,0.333,0.333,1","1",""
"","html-keyboard-response","135","100149","0.0-135.0","3QRYMNZ7FZ3FFW69XNUQKFNT8Y2NTU","A1DKVUTOBPQH11","3FVBZG9CLJ0K37PD5L6161S4HTM0HN","","null","<img src=""img/flower3.png"" style=""width:200px; border:14px solid green;"">","null","","","","","","","","",""
"","image-keyboard-response","136","100781","0.0-136.0","3QRYMNZ7FZ3FFW69XNUQKFNT8Y2NTU","A1DKVUTOBPQH11","3FVBZG9CLJ0K37PD5L6161S4HTM0HN","","631.5","img/flower6.png","76","632","3","1","3","1","1,0.333,0.333,0.333,1,0.333,0.333,0.333,1","1,0.333,0.333,0.333,1,0.333,0.333,0.333,1","1",""
"","html-keyboard-response","137","101083","0.0-137.0","3QRYMNZ7FZ3FFW69XNUQKFNT8Y2NTU","A1DKVUTOBPQH11","3FVBZG9CLJ0K37PD5L6161S4HTM0HN","","null","<img src=""img/flower6.png"" style=""width:200px; border:14px solid green;"">","null","","","","","","","","",""
"","image-keyboard-response","138","101811","0.0-138.0","3QRYMNZ7FZ3FFW69XNUQKFNT8Y2NTU","A1DKVUTOBPQH11","3FVBZG9CLJ0K37PD5L6161S4HTM0HN","","727.2999999970198","img/flower5.png","75","727.8999999985099","2","1","2","1","1,0.333,0.333,0.333,1,0.333,0.333,0.333,1","1,0.333,0.333,0.333,1,0.333,0.333,0.333,1","1",""
"","html-keyboard-response","139","102113","0.0-139.0","3QRYMNZ7FZ3FFW69XNUQKFNT8Y2NTU","A1DKVUTOBPQH11","3FVBZG9CLJ0K37PD5L6161S4HTM0HN","","null","<img src=""img/flower5.png"" style=""width:200px; border:14px solid green;"">","null","","","","","","","","",""
"","image-keyboard-response","140","102593","0.0-140.0","3QRYMNZ7FZ3FFW69XNUQKFNT8Y2NTU","A1DKVUTOBPQH11","3FVBZG9CLJ0K37PD5L6161S4HTM0HN","","479.6000000014901","img/flower5.png","75","480.1000000014901","2","1","2","1","1,0.333,0.333,0.333,1,0.333,0.333,0.333,1","1,0.333,0.333,0.333,1,0.333,0.333,0.333,1","1",""
"","html-keyboard-response","141","102895","0.0-141.0","3QRYMNZ7FZ3FFW69XNUQKFNT8Y2NTU","A1DKVUTOBPQH11","3FVBZG9CLJ0K37PD5L6161S4HTM0HN","","null","<img src=""img/flower5.png"" style=""width:200px; border:14px solid green;"">","null","","","","","","","","",""
"","image-keyboard-response","142","103549","0.0-142.0","3QRYMNZ7FZ3FFW69XNUQKFNT8Y2NTU","A1DKVUTOBPQH11","3FVBZG9CLJ0K37PD5L6161S4HTM0HN","","653.8000000044703","img/flower6.png","76","654.2999999970198","3","1","3","1","1,0.333,0.333,0.333,1,0.333,0.333,0.333,1","1,0.333,0.333,0.333,1,0.333,0.333,0.333,1","1",""
"","html-keyboard-response","143","103851","0.0-143.0","3QRYMNZ7FZ3FFW69XNUQKFNT8Y2NTU","A1DKVUTOBPQH11","3FVBZG9CLJ0K37PD5L6161S4HTM0HN","","null","<img src=""img/flower6.png"" style=""width:200px; border:14px solid green;"">","null","","","","","","","","",""
"","image-keyboard-response","144","104365","0.0-144.0","3QRYMNZ7FZ3FFW69XNUQKFNT8Y2NTU","A1DKVUTOBPQH11","3FVBZG9CLJ0K37PD5L6161S4HTM0HN","","514.1999999955297","img/flower6.png","76","514.7000000029802","3","1","3","1","1,0.333,0.333,0.333,1,0.333,0.333,0.333,1","1,0.333,0.333,0.333,1,0.333,0.333,0.333,1","1",""
"","html-keyboard-response","145","104666","0.0-145.0","3QRYMNZ7FZ3FFW69XNUQKFNT8Y2NTU","A1DKVUTOBPQH11","3FVBZG9CLJ0K37PD5L6161S4HTM0HN","","null","<img src=""img/flower6.png"" style=""width:200px; border:14px solid green;"">","null","","","","","","","","",""
"","image-keyboard-response","146","105362","0.0-146.0","3QRYMNZ7FZ3FFW69XNUQKFNT8Y2NTU","A1DKVUTOBPQH11","3FVBZG9CLJ0K37PD5L6161S4HTM0HN","","695.2000000029802","img/flower3.png","74","695.6999999955297","1","1","1","1","1,0.333,0.333,0.333,1,0.333,0.333,0.333,1","1,0.333,0.333,0.333,1,0.333,0.333,0.333,1","1",""
"","html-keyboard-response","147","105664","0.0-147.0","3QRYMNZ7FZ3FFW69XNUQKFNT8Y2NTU","A1DKVUTOBPQH11","3FVBZG9CLJ0K37PD5L6161S4HTM0HN","","null","<img src=""img/flower3.png"" style=""width:200px; border:14px solid green;"">","null","","","","","","","","",""
"","image-keyboard-response","148","106429","0.0-148.0","3QRYMNZ7FZ3FFW69XNUQKFNT8Y2NTU","A1DKVUTOBPQH11","3FVBZG9CLJ0K37PD5L6161S4HTM0HN","","764.4000000059605","img/flower6.png","76","765","3","1","3","1","1,0.333,0.333,0.333,1,0.333,0.333,0.333,1","1,0.333,0.333,0.333,1,0.333,0.333,0.333,1","1",""
"","html-keyboard-response","149","106730","0.0-149.0","3QRYMNZ7FZ3FFW69XNUQKFNT8Y2NTU","A1DKVUTOBPQH11","3FVBZG9CLJ0K37PD5L6161S4HTM0HN","","null","<img src=""img/flower6.png"" style=""width:200px; border:14px solid green;"">","null","","","","","","","","",""
"","image-keyboard-response","150","107574","0.0-150.0","3QRYMNZ7FZ3FFW69XNUQKFNT8Y2NTU","A1DKVUTOBPQH11","3FVBZG9CLJ0K37PD5L6161S4HTM0HN","","844.3000000044703","img/flower3.png","74","844.7999999970198","1","1","1","1","1,0.333,0.333,0.333,1,0.333,0.333,0.333,1","1,0.333,0.333,0.333,1,0.333,0.333,0.333,1","1",""
"","html-keyboard-response","151","107876","0.0-151.0","3QRYMNZ7FZ3FFW69XNUQKFNT8Y2NTU","A1DKVUTOBPQH11","3FVBZG9CLJ0K37PD5L6161S4HTM0HN","","null","<img src=""img/flower3.png"" style=""width:200px; border:14px solid green;"">","null","","","","","","","","",""
"","image-keyboard-response","152","108335","0.0-152.0","3QRYMNZ7FZ3FFW69XNUQKFNT8Y2NTU","A1DKVUTOBPQH11","3FVBZG9CLJ0K37PD5L6161S4HTM0HN","","458.6000000014901","img/flower3.png","74","459","1","1","1","1","1,0.333,0.333,0.333,1,0.333,0.333,0.333,1","1,0.333,0.333,0.333,1,0.333,0.333,0.333,1","1",""
"","html-keyboard-response","153","108637","0.0-153.0","3QRYMNZ7FZ3FFW69XNUQKFNT8Y2NTU","A1DKVUTOBPQH11","3FVBZG9CLJ0K37PD5L6161S4HTM0HN","","null","<img src=""img/flower3.png"" style=""width:200px; border:14px solid green;"">","null","","","","","","","","",""
"","image-keyboard-response","154","109360","0.0-154.0","3QRYMNZ7FZ3FFW69XNUQKFNT8Y2NTU","A1DKVUTOBPQH11","3FVBZG9CLJ0K37PD5L6161S4HTM0HN","","722.6000000014901","img/flower5.png","75","723.2000000029802","2","1","2","1","1,0.333,0.333,0.333,1,0.333,0.333,0.333,1","1,0.333,0.333,0.333,1,0.333,0.333,0.333,1","1",""
"","html-keyboard-response","155","109661","0.0-155.0","3QRYMNZ7FZ3FFW69XNUQKFNT8Y2NTU","A1DKVUTOBPQH11","3FVBZG9CLJ0K37PD5L6161S4HTM0HN","","null","<img src=""img/flower5.png"" style=""width:200px; border:14px solid green;"">","null","","","","","","","","",""
"","image-keyboard-response","156","110107","0.0-156.0","3QRYMNZ7FZ3FFW69XNUQKFNT8Y2NTU","A1DKVUTOBPQH11","3FVBZG9CLJ0K37PD5L6161S4HTM0HN","","445.69999999552965","img/flower5.png","75","446.20000000298023","2","1","2","1","1,0.333,0.333,0.333,1,0.333,0.333,0.333,1","1,0.333,0.333,0.333,1,0.333,0.333,0.333,1","1",""
"","html-keyboard-response","157","110408","0.0-157.0","3QRYMNZ7FZ3FFW69XNUQKFNT8Y2NTU","A1DKVUTOBPQH11","3FVBZG9CLJ0K37PD5L6161S4HTM0HN","","null","<img src=""img/flower5.png"" style=""width:200px; border:14px solid green;"">","null","","","","","","","","",""
"","image-keyboard-response","158","111233","0.0-158.0","3QRYMNZ7FZ3FFW69XNUQKFNT8Y2NTU","A1DKVUTOBPQH11","3FVBZG9CLJ0K37PD5L6161S4HTM0HN","","824","img/flower3.png","74","824.6000000014901","1","1","1","1","1,0.333,0.333,0.333,1,0.333,0.333,0.333,1","1,0.333,0.333,0.333,1,0.333,0.333,0.333,1","1",""
"","html-keyboard-response","159","111534","0.0-159.0","3QRYMNZ7FZ3FFW69XNUQKFNT8Y2NTU","A1DKVUTOBPQH11","3FVBZG9CLJ0K37PD5L6161S4HTM0HN","","null","<img src=""img/flower3.png"" style=""width:200px; border:14px solid green;"">","null","","","","","","","","",""
"","image-keyboard-response","160","112204","0.0-160.0","3QRYMNZ7FZ3FFW69XNUQKFNT8Y2NTU","A1DKVUTOBPQH11","3FVBZG9CLJ0K37PD5L6161S4HTM0HN","","669.3999999985099","img/flower5.png","75","669.8999999985099","2","1","2","1","1,0.333,0.333,0.333,1,0.333,0.333,0.333,1","1,0.333,0.333,0.333,1,0.333,0.333,0.333,1","1",""
"","html-keyboard-response","161","112505","0.0-161.0","3QRYMNZ7FZ3FFW69XNUQKFNT8Y2NTU","A1DKVUTOBPQH11","3FVBZG9CLJ0K37PD5L6161S4HTM0HN","","null","<img src=""img/flower5.png"" style=""width:200px; border:14px solid green;"">","null","","","","","","","","",""
"","image-keyboard-response","162","113289","0.0-162.0","3QRYMNZ7FZ3FFW69XNUQKFNT8Y2NTU","A1DKVUTOBPQH11","3FVBZG9CLJ0K37PD5L6161S4HTM0HN","","783.2999999970198","img/flower3.png","74","783.8999999985099","1","1","1","1","1,0.333,0.333,0.333,1,0.333,0.333,0.333,1","1,0.333,0.333,0.333,1,0.333,0.333,0.333,1","1",""
"","html-keyboard-response","163","113590","0.0-163.0","3QRYMNZ7FZ3FFW69XNUQKFNT8Y2NTU","A1DKVUTOBPQH11","3FVBZG9CLJ0K37PD5L6161S4HTM0HN","","null","<img src=""img/flower3.png"" style=""width:200px; border:14px solid green;"">","null","","","","","","","","",""
"","image-keyboard-response","164","114243","0.0-164.0","3QRYMNZ7FZ3FFW69XNUQKFNT8Y2NTU","A1DKVUTOBPQH11","3FVBZG9CLJ0K37PD5L6161S4HTM0HN","","652.6000000014901","img/flower6.png","76","653.2000000029802","3","1","3","1","1,0.333,0.333,0.333,1,0.333,0.333,0.333,1","1,0.333,0.333,0.333,1,0.333,0.333,0.333,1","1",""
"","html-keyboard-response","165","114545","0.0-165.0","3QRYMNZ7FZ3FFW69XNUQKFNT8Y2NTU","A1DKVUTOBPQH11","3FVBZG9CLJ0K37PD5L6161S4HTM0HN","","null","<img src=""img/flower6.png"" style=""width:200px; border:14px solid green;"">","null","","","","","","","","",""
"","image-keyboard-response","166","115273","0.0-166.0","3QRYMNZ7FZ3FFW69XNUQKFNT8Y2NTU","A1DKVUTOBPQH11","3FVBZG9CLJ0K37PD5L6161S4HTM0HN","","727.7999999970198","img/flower3.png","74","728.2000000029802","1","1","1","1","1,0.333,0.333,0.333,1,0.333,0.333,0.333,1","1,0.333,0.333,0.333,1,0.333,0.333,0.333,1","1",""
"","html-keyboard-response","167","115575","0.0-167.0","3QRYMNZ7FZ3FFW69XNUQKFNT8Y2NTU","A1DKVUTOBPQH11","3FVBZG9CLJ0K37PD5L6161S4HTM0HN","","null","<img src=""img/flower3.png"" style=""width:200px; border:14px solid green;"">","null","","","","","","","","",""
"","image-keyboard-response","168","116295","0.0-168.0","3QRYMNZ7FZ3FFW69XNUQKFNT8Y2NTU","A1DKVUTOBPQH11","3FVBZG9CLJ0K37PD5L6161S4HTM0HN","","719.7000000029802","img/flower6.png","76","720.2000000029802","3","1","3","1","1,0.333,0.333,0.333,1,0.333,0.333,0.333,1","1,0.333,0.333,0.333,1,0.333,0.333,0.333,1","1",""
"","html-keyboard-response","169","116597","0.0-169.0","3QRYMNZ7FZ3FFW69XNUQKFNT8Y2NTU","A1DKVUTOBPQH11","3FVBZG9CLJ0K37PD5L6161S4HTM0HN","","null","<img src=""img/flower6.png"" style=""width:200px; border:14px solid green;"">","null","","","","","","","","",""
"","image-keyboard-response","170","117571","0.0-170.0","3QRYMNZ7FZ3FFW69XNUQKFNT8Y2NTU","A1DKVUTOBPQH11","3FVBZG9CLJ0K37PD5L6161S4HTM0HN","","974.3000000044703","img/flower3.png","74","974.7999999970198","1","1","1","1","1,0.333,0.333,0.333,1,0.333,0.333,0.333,1","1,0.333,0.333,0.333,1,0.333,0.333,0.333,1","1",""
"","html-keyboard-response","171","117872","0.0-171.0","3QRYMNZ7FZ3FFW69XNUQKFNT8Y2NTU","A1DKVUTOBPQH11","3FVBZG9CLJ0K37PD5L6161S4HTM0HN","","null","<img src=""img/flower3.png"" style=""width:200px; border:14px solid green;"">","null","","","","","","","","",""
"","image-keyboard-response","172","118515","0.0-172.0","3QRYMNZ7FZ3FFW69XNUQKFNT8Y2NTU","A1DKVUTOBPQH11","3FVBZG9CLJ0K37PD5L6161S4HTM0HN","","642.3000000044703","img/flower3.png","74","643","1","1","1","1","1,0.333,0.333,0.333,1,0.333,0.333,0.333,1","1,0.333,0.333,0.333,1,0.333,0.333,0.333,1","1",""
"","html-keyboard-response","173","118817","0.0-173.0","3QRYMNZ7FZ3FFW69XNUQKFNT8Y2NTU","A1DKVUTOBPQH11","3FVBZG9CLJ0K37PD5L6161S4HTM0HN","","null","<img src=""img/flower3.png"" style=""width:200px; border:14px solid green;"">","null","","","","","","","","",""
"","image-keyboard-response","174","119460","0.0-174.0","3QRYMNZ7FZ3FFW69XNUQKFNT8Y2NTU","A1DKVUTOBPQH11","3FVBZG9CLJ0K37PD5L6161S4HTM0HN","","642.6000000014901","img/flower5.png","75","643.1000000014901","2","1","2","1","1,0.333,0.333,0.333,1,0.333,0.333,0.333,1","1,0.333,0.333,0.333,1,0.333,0.333,0.333,1","1",""
"","html-keyboard-response","175","119761","0.0-175.0","3QRYMNZ7FZ3FFW69XNUQKFNT8Y2NTU","A1DKVUTOBPQH11","3FVBZG9CLJ0K37PD5L6161S4HTM0HN","","null","<img src=""img/flower5.png"" style=""width:200px; border:14px solid green;"">","null","","","","","","","","",""
"","image-keyboard-response","176","120204","0.0-176.0","3QRYMNZ7FZ3FFW69XNUQKFNT8Y2NTU","A1DKVUTOBPQH11","3FVBZG9CLJ0K37PD5L6161S4HTM0HN","","442.1000000014901","img/flower5.png","75","442.6000000014901","2","1","2","1","1,0.333,0.333,0.333,1,0.333,0.333,0.333,1","1,0.333,0.333,0.333,1,0.333,0.333,0.333,1","1",""
"","html-keyboard-response","177","120506","0.0-177.0","3QRYMNZ7FZ3FFW69XNUQKFNT8Y2NTU","A1DKVUTOBPQH11","3FVBZG9CLJ0K37PD5L6161S4HTM0HN","","null","<img src=""img/flower5.png"" style=""width:200px; border:14px solid green;"">","null","","","","","","","","",""
"","image-keyboard-response","178","120951","0.0-178.0","3QRYMNZ7FZ3FFW69XNUQKFNT8Y2NTU","A1DKVUTOBPQH11","3FVBZG9CLJ0K37PD5L6161S4HTM0HN","","444.40000000596046","img/flower5.png","75","444.8999999985099","2","1","2","1","1,0.333,0.333,0.333,1,0.333,0.333,0.333,1","1,0.333,0.333,0.333,1,0.333,0.333,0.333,1","1",""
"","html-keyboard-response","179","121252","0.0-179.0","3QRYMNZ7FZ3FFW69XNUQKFNT8Y2NTU","A1DKVUTOBPQH11","3FVBZG9CLJ0K37PD5L6161S4HTM0HN","","null","<img src=""img/flower5.png"" style=""width:200px; border:14px solid green;"">","null","","","","","","","","",""
"","image-keyboard-response","180","121803","0.0-180.0","3QRYMNZ7FZ3FFW69XNUQKFNT8Y2NTU","A1DKVUTOBPQH11","3FVBZG9CLJ0K37PD5L6161S4HTM0HN","","550.2000000029802","img/flower6.png","76","550.6999999955297","3","1","3","1","1,0.333,0.333,0.333,1,0.333,0.333,0.333,1","1,0.333,0.333,0.333,1,0.333,0.333,0.333,1","1",""
"","html-keyboard-response","181","122105","0.0-181.0","3QRYMNZ7FZ3FFW69XNUQKFNT8Y2NTU","A1DKVUTOBPQH11","3FVBZG9CLJ0K37PD5L6161S4HTM0HN","","null","<img src=""img/flower6.png"" style=""width:200px; border:14px solid green;"">","null","","","","","","","","",""
"","html-keyboard-response","182","126526","0.0-182.0","3QRYMNZ7FZ3FFW69XNUQKFNT8Y2NTU","A1DKVUTOBPQH11","3FVBZG9CLJ0K37PD5L6161S4HTM0HN","","","","","","","","","","","","",""
"","image-keyboard-response","183","127870","0.0-183.0","3QRYMNZ7FZ3FFW69XNUQKFNT8Y2NTU","A1DKVUTOBPQH11","3FVBZG9CLJ0K37PD5L6161S4HTM0HN","","1343.3999999985099","img/flower4.png","74","1344.1000000014901","1","1","2","2","1,0,0,1,1,0,1,0,1","1,0,0,1,1,0,1,0,1","1",""
"","html-keyboard-response","184","128172","0.0-184.0","3QRYMNZ7FZ3FFW69XNUQKFNT8Y2NTU","A1DKVUTOBPQH11","3FVBZG9CLJ0K37PD5L6161S4HTM0HN","","null","<img src=""img/flower4.png"" style=""width:200px; border:14px solid green;"">","null","","","","","","","","",""
"","image-keyboard-response","185","129083","0.0-185.0","3QRYMNZ7FZ3FFW69XNUQKFNT8Y2NTU","A1DKVUTOBPQH11","3FVBZG9CLJ0K37PD5L6161S4HTM0HN","","910.6999999955297","img/flower1.png","75","911.2000000029802","2","0","3","2","1,0,0,1,1,0,1,0,1","1,0,0,1,1,0,1,0,1","1",""
"","html-keyboard-response","186","129384","0.0-186.0","3QRYMNZ7FZ3FFW69XNUQKFNT8Y2NTU","A1DKVUTOBPQH11","3FVBZG9CLJ0K37PD5L6161S4HTM0HN","","null","<img src=""img/flower1.png"" style=""width:200px;border:14px solid red;"">","null","","","","","","","","",""
"","image-keyboard-response","187","130231","0.0-187.0","3QRYMNZ7FZ3FFW69XNUQKFNT8Y2NTU","A1DKVUTOBPQH11","3FVBZG9CLJ0K37PD5L6161S4HTM0HN","","846.5","img/flower4.png","74","846.8999999985099","1","1","2","2","1,0,0,1,1,0,1,0,1","1,0,0,1,1,0,1,0,1","1",""
"","html-keyboard-response","188","130533","0.0-188.0","3QRYMNZ7FZ3FFW69XNUQKFNT8Y2NTU","A1DKVUTOBPQH11","3FVBZG9CLJ0K37PD5L6161S4HTM0HN","","null","<img src=""img/flower4.png"" style=""width:200px; border:14px solid green;"">","null","","","","","","","","",""
"","image-keyboard-response","189","131313","0.0-189.0","3QRYMNZ7FZ3FFW69XNUQKFNT8Y2NTU","A1DKVUTOBPQH11","3FVBZG9CLJ0K37PD5L6161S4HTM0HN","","779.2000000029802","img/flower2.png","76","779.8999999985099","3","0","1","2","1,0,0,1,1,0,1,0,1","1,0,0,1,1,0,1,0,1","1",""
"","html-keyboard-response","190","131615","0.0-190.0","3QRYMNZ7FZ3FFW69XNUQKFNT8Y2NTU","A1DKVUTOBPQH11","3FVBZG9CLJ0K37PD5L6161S4HTM0HN","","null","<img src=""img/flower2.png"" style=""width:200px;border:14px solid red;"">","null","","","","","","","","",""
"","image-keyboard-response","191","132704","0.0-191.0","3QRYMNZ7FZ3FFW69XNUQKFNT8Y2NTU","A1DKVUTOBPQH11","3FVBZG9CLJ0K37PD5L6161S4HTM0HN","","1088.7999999970198","img/flower1.png","74","1089.3000000044703","1","1","3","2","1,0,0,1,1,0,1,0,1","1,0,0,1,1,0,1,0,1","1",""
"","html-keyboard-response","192","133005","0.0-192.0","3QRYMNZ7FZ3FFW69XNUQKFNT8Y2NTU","A1DKVUTOBPQH11","3FVBZG9CLJ0K37PD5L6161S4HTM0HN","","null","<img src=""img/flower1.png"" style=""width:200px; border:14px solid green;"">","null","","","","","","","","",""
"","image-keyboard-response","193","133704","0.0-193.0","3QRYMNZ7FZ3FFW69XNUQKFNT8Y2NTU","A1DKVUTOBPQH11","3FVBZG9CLJ0K37PD5L6161S4HTM0HN","","698.2999999970198","img/flower2.png","74","698.8000000044703","1","1","1","2","1,0,0,1,1,0,1,0,1","1,0,0,1,1,0,1,0,1","1",""
"","html-keyboard-response","194","134006","0.0-194.0","3QRYMNZ7FZ3FFW69XNUQKFNT8Y2NTU","A1DKVUTOBPQH11","3FVBZG9CLJ0K37PD5L6161S4HTM0HN","","null","<img src=""img/flower2.png"" style=""width:200px; border:14px solid green;"">","null","","","","","","","","",""
"","image-keyboard-response","195","134556","0.0-195.0","3QRYMNZ7FZ3FFW69XNUQKFNT8Y2NTU","A1DKVUTOBPQH11","3FVBZG9CLJ0K37PD5L6161S4HTM0HN","","549.2000000029802","img/flower1.png","74","549.8000000044703","1","1","3","2","1,0,0,1,1,0,1,0,1","1,0,0,1,1,0,1,0,1","1",""
"","html-keyboard-response","196","134857","0.0-196.0","3QRYMNZ7FZ3FFW69XNUQKFNT8Y2NTU","A1DKVUTOBPQH11","3FVBZG9CLJ0K37PD5L6161S4HTM0HN","","null","<img src=""img/flower1.png"" style=""width:200px; border:14px solid green;"">","null","","","","","","","","",""
"","image-keyboard-response","197","135328","0.0-197.0","3QRYMNZ7FZ3FFW69XNUQKFNT8Y2NTU","A1DKVUTOBPQH11","3FVBZG9CLJ0K37PD5L6161S4HTM0HN","","470.3999999985099","img/flower1.png","74","470.8999999985099","1","1","3","2","1,0,0,1,1,0,1,0,1","1,0,0,1,1,0,1,0,1","1",""
"","html-keyboard-response","198","135629","0.0-198.0","3QRYMNZ7FZ3FFW69XNUQKFNT8Y2NTU","A1DKVUTOBPQH11","3FVBZG9CLJ0K37PD5L6161S4HTM0HN","","null","<img src=""img/flower1.png"" style=""width:200px; border:14px solid green;"">","null","","","","","","","","",""
"","image-keyboard-response","199","136099","0.0-199.0","3QRYMNZ7FZ3FFW69XNUQKFNT8Y2NTU","A1DKVUTOBPQH11","3FVBZG9CLJ0K37PD5L6161S4HTM0HN","","469.20000000298023","img/flower2.png","74","469.69999999552965","1","1","1","2","1,0,0,1,1,0,1,0,1","1,0,0,1,1,0,1,0,1","1",""
"","html-keyboard-response","200","136400","0.0-200.0","3QRYMNZ7FZ3FFW69XNUQKFNT8Y2NTU","A1DKVUTOBPQH11","3FVBZG9CLJ0K37PD5L6161S4HTM0HN","","null","<img src=""img/flower2.png"" style=""width:200px; border:14px solid green;"">","null","","","","","","","","",""
"","image-keyboard-response","201","136765","0.0-201.0","3QRYMNZ7FZ3FFW69XNUQKFNT8Y2NTU","A1DKVUTOBPQH11","3FVBZG9CLJ0K37PD5L6161S4HTM0HN","","364.5","img/flower2.png","74","365.1000000014901","1","1","1","2","1,0,0,1,1,0,1,0,1","1,0,0,1,1,0,1,0,1","1",""
"","html-keyboard-response","202","137067","0.0-202.0","3QRYMNZ7FZ3FFW69XNUQKFNT8Y2NTU","A1DKVUTOBPQH11","3FVBZG9CLJ0K37PD5L6161S4HTM0HN","","null","<img src=""img/flower2.png"" style=""width:200px; border:14px solid green;"">","null","","","","","","","","",""
"","image-keyboard-response","203","137355","0.0-203.0","3QRYMNZ7FZ3FFW69XNUQKFNT8Y2NTU","A1DKVUTOBPQH11","3FVBZG9CLJ0K37PD5L6161S4HTM0HN","","287.79999999701977","img/flower2.png","74","288.30000000447035","1","1","1","2","1,0,0,1,1,0,1,0,1","1,0,0,1,1,0,1,0,1","1",""
"","html-keyboard-response","204","137656","0.0-204.0","3QRYMNZ7FZ3FFW69XNUQKFNT8Y2NTU","A1DKVUTOBPQH11","3FVBZG9CLJ0K37PD5L6161S4HTM0HN","","null","<img src=""img/flower2.png"" style=""width:200px; border:14px solid green;"">","null","","","","","","","","",""
"","image-keyboard-response","205","138225","0.0-205.0","3QRYMNZ7FZ3FFW69XNUQKFNT8Y2NTU","A1DKVUTOBPQH11","3FVBZG9CLJ0K37PD5L6161S4HTM0HN","","568.5","img/flower4.png","74","569","1","1","2","2","1,0,0,1,1,0,1,0,1","1,0,0,1,1,0,1,0,1","1",""
"","html-keyboard-response","206","138527","0.0-206.0","3QRYMNZ7FZ3FFW69XNUQKFNT8Y2NTU","A1DKVUTOBPQH11","3FVBZG9CLJ0K37PD5L6161S4HTM0HN","","null","<img src=""img/flower4.png"" style=""width:200px; border:14px solid green;"">","null","","","","","","","","",""
"","image-keyboard-response","207","138796","0.0-207.0","3QRYMNZ7FZ3FFW69XNUQKFNT8Y2NTU","A1DKVUTOBPQH11","3FVBZG9CLJ0K37PD5L6161S4HTM0HN","","268.6000000014901","img/flower2.png","74","269.1000000014901","1","1","1","2","1,0,0,1,1,0,1,0,1","1,0,0,1,1,0,1,0,1","1",""
"","html-keyboard-response","208","139097","0.0-208.0","3QRYMNZ7FZ3FFW69XNUQKFNT8Y2NTU","A1DKVUTOBPQH11","3FVBZG9CLJ0K37PD5L6161S4HTM0HN","","null","<img src=""img/flower2.png"" style=""width:200px; border:14px solid green;"">","null","","","","","","","","",""
"","image-keyboard-response","209","139386","0.0-209.0","3QRYMNZ7FZ3FFW69XNUQKFNT8Y2NTU","A1DKVUTOBPQH11","3FVBZG9CLJ0K37PD5L6161S4HTM0HN","","288.59999999403954","img/flower2.png","74","289.20000000298023","1","1","1","2","1,0,0,1,1,0,1,0,1","1,0,0,1,1,0,1,0,1","1",""
"","html-keyboard-response","210","139687","0.0-210.0","3QRYMNZ7FZ3FFW69XNUQKFNT8Y2NTU","A1DKVUTOBPQH11","3FVBZG9CLJ0K37PD5L6161S4HTM0HN","","null","<img src=""img/flower2.png"" style=""width:200px; border:14px solid green;"">","null","","","","","","","","",""
"","image-keyboard-response","211","139957","0.0-211.0","3QRYMNZ7FZ3FFW69XNUQKFNT8Y2NTU","A1DKVUTOBPQH11","3FVBZG9CLJ0K37PD5L6161S4HTM0HN","","269.5","img/flower1.png","74","270.09999999403954","1","1","3","2","1,0,0,1,1,0,1,0,1","1,0,0,1,1,0,1,0,1","1",""
"","html-keyboard-response","212","140259","0.0-212.0","3QRYMNZ7FZ3FFW69XNUQKFNT8Y2NTU","A1DKVUTOBPQH11","3FVBZG9CLJ0K37PD5L6161S4HTM0HN","","null","<img src=""img/flower1.png"" style=""width:200px; border:14px solid green;"">","null","","","","","","","","",""
"","image-keyboard-response","213","140764","0.0-213.0","3QRYMNZ7FZ3FFW69XNUQKFNT8Y2NTU","A1DKVUTOBPQH11","3FVBZG9CLJ0K37PD5L6161S4HTM0HN","","504.79999999701977","img/flower1.png","74","505.40000000596046","1","1","3","2","1,0,0,1,1,0,1,0,1","1,0,0,1,1,0,1,0,1","1",""
"","html-keyboard-response","214","141065","0.0-214.0","3QRYMNZ7FZ3FFW69XNUQKFNT8Y2NTU","A1DKVUTOBPQH11","3FVBZG9CLJ0K37PD5L6161S4HTM0HN","","null","<img src=""img/flower1.png"" style=""width:200px; border:14px solid green;"">","null","","","","","","","","",""
"","image-keyboard-response","215","141331","0.0-215.0","3QRYMNZ7FZ3FFW69XNUQKFNT8Y2NTU","A1DKVUTOBPQH11","3FVBZG9CLJ0K37PD5L6161S4HTM0HN","","264.80000000447035","img/flower2.png","74","265.29999999701977","1","1","1","2","1,0,0,1,1,0,1,0,1","1,0,0,1,1,0,1,0,1","1",""
"","html-keyboard-response","216","141632","0.0-216.0","3QRYMNZ7FZ3FFW69XNUQKFNT8Y2NTU","A1DKVUTOBPQH11","3FVBZG9CLJ0K37PD5L6161S4HTM0HN","","null","<img src=""img/flower2.png"" style=""width:200px; border:14px solid green;"">","null","","","","","","","","",""
"","image-keyboard-response","217","141975","0.0-217.0","3QRYMNZ7FZ3FFW69XNUQKFNT8Y2NTU","A1DKVUTOBPQH11","3FVBZG9CLJ0K37PD5L6161S4HTM0HN","","342.79999999701977","img/flower1.png","74","343.30000000447035","1","1","3","2","1,0,0,1,1,0,1,0,1","1,0,0,1,1,0,1,0,1","1",""
"","html-keyboard-response","218","142277","0.0-218.0","3QRYMNZ7FZ3FFW69XNUQKFNT8Y2NTU","A1DKVUTOBPQH11","3FVBZG9CLJ0K37PD5L6161S4HTM0HN","","null","<img src=""img/flower1.png"" style=""width:200px; border:14px solid green;"">","null","","","","","","","","",""
"","image-keyboard-response","219","142569","0.0-219.0","3QRYMNZ7FZ3FFW69XNUQKFNT8Y2NTU","A1DKVUTOBPQH11","3FVBZG9CLJ0K37PD5L6161S4HTM0HN","","291.5","img/flower1.png","74","292.1000000014901","1","1","3","2","1,0,0,1,1,0,1,0,1","1,0,0,1,1,0,1,0,1","1",""
"","html-keyboard-response","220","142870","0.0-220.0","3QRYMNZ7FZ3FFW69XNUQKFNT8Y2NTU","A1DKVUTOBPQH11","3FVBZG9CLJ0K37PD5L6161S4HTM0HN","","null","<img src=""img/flower1.png"" style=""width:200px; border:14px solid green;"">","null","","","","","","","","",""
"","image-keyboard-response","221","143178","0.0-221.0","3QRYMNZ7FZ3FFW69XNUQKFNT8Y2NTU","A1DKVUTOBPQH11","3FVBZG9CLJ0K37PD5L6161S4HTM0HN","","307.5","img/flower2.png","74","308.30000000447035","1","1","1","2","1,0,0,1,1,0,1,0,1","1,0,0,1,1,0,1,0,1","1",""
"","html-keyboard-response","222","143484","0.0-222.0","3QRYMNZ7FZ3FFW69XNUQKFNT8Y2NTU","A1DKVUTOBPQH11","3FVBZG9CLJ0K37PD5L6161S4HTM0HN","","null","<img src=""img/flower2.png"" style=""width:200px; border:14px solid green;"">","null","","","","","","","","",""
"","image-keyboard-response","223","143757","0.0-223.0","3QRYMNZ7FZ3FFW69XNUQKFNT8Y2NTU","A1DKVUTOBPQH11","3FVBZG9CLJ0K37PD5L6161S4HTM0HN","","272.5","img/flower4.png","74","273.1000000014901","1","1","2","2","1,0,0,1,1,0,1,0,1","1,0,0,1,1,0,1,0,1","1",""
"","html-keyboard-response","224","144058","0.0-224.0","3QRYMNZ7FZ3FFW69XNUQKFNT8Y2NTU","A1DKVUTOBPQH11","3FVBZG9CLJ0K37PD5L6161S4HTM0HN","","null","<img src=""img/flower4.png"" style=""width:200px; border:14px solid green;"">","null","","","","","","","","",""
"","image-keyboard-response","225","144387","0.0-225.0","3QRYMNZ7FZ3FFW69XNUQKFNT8Y2NTU","A1DKVUTOBPQH11","3FVBZG9CLJ0K37PD5L6161S4HTM0HN","","328.6000000014901","img/flower1.png","74","329.09999999403954","1","1","3","2","1,0,0,1,1,0,1,0,1","1,0,0,1,1,0,1,0,1","1",""
"","html-keyboard-response","226","144689","0.0-226.0","3QRYMNZ7FZ3FFW69XNUQKFNT8Y2NTU","A1DKVUTOBPQH11","3FVBZG9CLJ0K37PD5L6161S4HTM0HN","","null","<img src=""img/flower1.png"" style=""width:200px; border:14px solid green;"">","null","","","","","","","","",""
"","image-keyboard-response","227","144995","0.0-227.0","3QRYMNZ7FZ3FFW69XNUQKFNT8Y2NTU","A1DKVUTOBPQH11","3FVBZG9CLJ0K37PD5L6161S4HTM0HN","","305.6000000014901","img/flower4.png","74","306.20000000298023","1","1","2","2","1,0,0,1,1,0,1,0,1","1,0,0,1,1,0,1,0,1","1",""
"","html-keyboard-response","228","145297","0.0-228.0","3QRYMNZ7FZ3FFW69XNUQKFNT8Y2NTU","A1DKVUTOBPQH11","3FVBZG9CLJ0K37PD5L6161S4HTM0HN","","null","<img src=""img/flower4.png"" style=""width:200px; border:14px solid green;"">","null","","","","","","","","",""
"","image-keyboard-response","229","145570","0.0-229.0","3QRYMNZ7FZ3FFW69XNUQKFNT8Y2NTU","A1DKVUTOBPQH11","3FVBZG9CLJ0K37PD5L6161S4HTM0HN","","272.69999999552965","img/flower2.png","74","273.1000000014901","1","1","1","2","1,0,0,1,1,0,1,0,1","1,0,0,1,1,0,1,0,1","1",""
"","html-keyboard-response","230","145871","0.0-230.0","3QRYMNZ7FZ3FFW69XNUQKFNT8Y2NTU","A1DKVUTOBPQH11","3FVBZG9CLJ0K37PD5L6161S4HTM0HN","","null","<img src=""img/flower2.png"" style=""width:200px; border:14px solid green;"">","null","","","","","","","","",""
"","image-keyboard-response","231","146135","0.0-231.0","3QRYMNZ7FZ3FFW69XNUQKFNT8Y2NTU","A1DKVUTOBPQH11","3FVBZG9CLJ0K37PD5L6161S4HTM0HN","","263","img/flower2.png","74","263.6000000014901","1","1","1","2","1,0,0,1,1,0,1,0,1","1,0,0,1,1,0,1,0,1","1",""
"","html-keyboard-response","232","146437","0.0-232.0","3QRYMNZ7FZ3FFW69XNUQKFNT8Y2NTU","A1DKVUTOBPQH11","3FVBZG9CLJ0K37PD5L6161S4HTM0HN","","null","<img src=""img/flower2.png"" style=""width:200px; border:14px solid green;"">","null","","","","","","","","",""
"","image-keyboard-response","233","146698","0.0-233.0","3QRYMNZ7FZ3FFW69XNUQKFNT8Y2NTU","A1DKVUTOBPQH11","3FVBZG9CLJ0K37PD5L6161S4HTM0HN","","260.29999999701977","img/flower4.png","74","260.80000000447035","1","1","2","2","1,0,0,1,1,0,1,0,1","1,0,0,1,1,0,1,0,1","1",""
"","html-keyboard-response","234","147000","0.0-234.0","3QRYMNZ7FZ3FFW69XNUQKFNT8Y2NTU","A1DKVUTOBPQH11","3FVBZG9CLJ0K37PD5L6161S4HTM0HN","","null","<img src=""img/flower4.png"" style=""width:200px; border:14px solid green;"">","null","","","","","","","","",""
"","image-keyboard-response","235","147295","0.0-235.0","3QRYMNZ7FZ3FFW69XNUQKFNT8Y2NTU","A1DKVUTOBPQH11","3FVBZG9CLJ0K37PD5L6161S4HTM0HN","","294.5","img/flower4.png","74","295","1","1","2","2","1,0,0,1,1,0,1,0,1","1,0,0,1,1,0,1,0,1","1",""
"","html-keyboard-response","236","147597","0.0-236.0","3QRYMNZ7FZ3FFW69XNUQKFNT8Y2NTU","A1DKVUTOBPQH11","3FVBZG9CLJ0K37PD5L6161S4HTM0HN","","null","<img src=""img/flower4.png"" style=""width:200px; border:14px solid green;"">","null","","","","","","","","",""
"","image-keyboard-response","237","147923","0.0-237.0","3QRYMNZ7FZ3FFW69XNUQKFNT8Y2NTU","A1DKVUTOBPQH11","3FVBZG9CLJ0K37PD5L6161S4HTM0HN","","325.79999999701977","img/flower1.png","74","326.30000000447035","1","1","3","2","1,0,0,1,1,0,1,0,1","1,0,0,1,1,0,1,0,1","1",""
"","html-keyboard-response","238","148225","0.0-238.0","3QRYMNZ7FZ3FFW69XNUQKFNT8Y2NTU","A1DKVUTOBPQH11","3FVBZG9CLJ0K37PD5L6161S4HTM0HN","","null","<img src=""img/flower1.png"" style=""width:200px; border:14px solid green;"">","null","","","","","","","","",""
"","image-keyboard-response","239","148500","0.0-239.0","3QRYMNZ7FZ3FFW69XNUQKFNT8Y2NTU","A1DKVUTOBPQH11","3FVBZG9CLJ0K37PD5L6161S4HTM0HN","","274.20000000298023","img/flower1.png","74","274.69999999552965","1","1","3","2","1,0,0,1,1,0,1,0,1","1,0,0,1,1,0,1,0,1","1",""
"","html-keyboard-response","240","148801","0.0-240.0","3QRYMNZ7FZ3FFW69XNUQKFNT8Y2NTU","A1DKVUTOBPQH11","3FVBZG9CLJ0K37PD5L6161S4HTM0HN","","null","<img src=""img/flower1.png"" style=""width:200px; border:14px solid green;"">","null","","","","","","","","",""
"","image-keyboard-response","241","149208","0.0-241.0","3QRYMNZ7FZ3FFW69XNUQKFNT8Y2NTU","A1DKVUTOBPQH11","3FVBZG9CLJ0K37PD5L6161S4HTM0HN","","406.1000000014901","img/flower1.png","74","406.70000000298023","1","1","3","2","1,0,0,1,1,0,1,0,1","1,0,0,1,1,0,1,0,1","1",""
"","html-keyboard-response","242","149509","0.0-242.0","3QRYMNZ7FZ3FFW69XNUQKFNT8Y2NTU","A1DKVUTOBPQH11","3FVBZG9CLJ0K37PD5L6161S4HTM0HN","","null","<img src=""img/flower1.png"" style=""width:200px; border:14px solid green;"">","null","","","","","","","","",""
"","image-keyboard-response","243","149798","0.0-243.0","3QRYMNZ7FZ3FFW69XNUQKFNT8Y2NTU","A1DKVUTOBPQH11","3FVBZG9CLJ0K37PD5L6161S4HTM0HN","","287.8999999985099","img/flower1.png","74","288.5","1","1","3","2","1,0,0,1,1,0,1,0,1","1,0,0,1,1,0,1,0,1","1",""
"","html-keyboard-response","244","150099","0.0-244.0","3QRYMNZ7FZ3FFW69XNUQKFNT8Y2NTU","A1DKVUTOBPQH11","3FVBZG9CLJ0K37PD5L6161S4HTM0HN","","null","<img src=""img/flower1.png"" style=""width:200px; border:14px solid green;"">","null","","","","","","","","",""
"","image-keyboard-response","245","150405","0.0-245.0","3QRYMNZ7FZ3FFW69XNUQKFNT8Y2NTU","A1DKVUTOBPQH11","3FVBZG9CLJ0K37PD5L6161S4HTM0HN","","305.20000000298023","img/flower2.png","74","305.80000000447035","1","1","1","2","1,0,0,1,1,0,1,0,1","1,0,0,1,1,0,1,0,1","1",""
"","html-keyboard-response","246","150707","0.0-246.0","3QRYMNZ7FZ3FFW69XNUQKFNT8Y2NTU","A1DKVUTOBPQH11","3FVBZG9CLJ0K37PD5L6161S4HTM0HN","","null","<img src=""img/flower2.png"" style=""width:200px; border:14px solid green;"">","null","","","","","","","","",""
"","image-keyboard-response","247","150985","0.0-247.0","3QRYMNZ7FZ3FFW69XNUQKFNT8Y2NTU","A1DKVUTOBPQH11","3FVBZG9CLJ0K37PD5L6161S4HTM0HN","","278","img/flower4.png","74","278.40000000596046","1","1","2","2","1,0,0,1,1,0,1,0,1","1,0,0,1,1,0,1,0,1","1",""
"","html-keyboard-response","248","151287","0.0-248.0","3QRYMNZ7FZ3FFW69XNUQKFNT8Y2NTU","A1DKVUTOBPQH11","3FVBZG9CLJ0K37PD5L6161S4HTM0HN","","null","<img src=""img/flower4.png"" style=""width:200px; border:14px solid green;"">","null","","","","","","","","",""
"","image-keyboard-response","249","151579","0.0-249.0","3QRYMNZ7FZ3FFW69XNUQKFNT8Y2NTU","A1DKVUTOBPQH11","3FVBZG9CLJ0K37PD5L6161S4HTM0HN","","291.79999999701977","img/flower1.png","74","292.20000000298023","1","1","3","2","1,0,0,1,1,0,1,0,1","1,0,0,1,1,0,1,0,1","1",""
"","html-keyboard-response","250","151881","0.0-250.0","3QRYMNZ7FZ3FFW69XNUQKFNT8Y2NTU","A1DKVUTOBPQH11","3FVBZG9CLJ0K37PD5L6161S4HTM0HN","","null","<img src=""img/flower1.png"" style=""width:200px; border:14px solid green;"">","null","","","","","","","","",""
"","image-keyboard-response","251","152137","0.0-251.0","3QRYMNZ7FZ3FFW69XNUQKFNT8Y2NTU","A1DKVUTOBPQH11","3FVBZG9CLJ0K37PD5L6161S4HTM0HN","","255.5","img/flower4.png","74","256.19999999552965","1","1","2","2","1,0,0,1,1,0,1,0,1","1,0,0,1,1,0,1,0,1","1",""
"","html-keyboard-response","252","152439","0.0-252.0","3QRYMNZ7FZ3FFW69XNUQKFNT8Y2NTU","A1DKVUTOBPQH11","3FVBZG9CLJ0K37PD5L6161S4HTM0HN","","null","<img src=""img/flower4.png"" style=""width:200px; border:14px solid green;"">","null","","","","","","","","",""
"","image-keyboard-response","253","152811","0.0-253.0","3QRYMNZ7FZ3FFW69XNUQKFNT8Y2NTU","A1DKVUTOBPQH11","3FVBZG9CLJ0K37PD5L6161S4HTM0HN","","371.8999999985099","img/flower4.png","74","372.3999999985099","1","1","2","2","1,0,0,1,1,0,1,0,1","1,0,0,1,1,0,1,0,1","1",""
"","html-keyboard-response","254","153112","0.0-254.0","3QRYMNZ7FZ3FFW69XNUQKFNT8Y2NTU","A1DKVUTOBPQH11","3FVBZG9CLJ0K37PD5L6161S4HTM0HN","","null","<img src=""img/flower4.png"" style=""width:200px; border:14px solid green;"">","null","","","","","","","","",""
"","image-keyboard-response","255","153385","0.0-255.0","3QRYMNZ7FZ3FFW69XNUQKFNT8Y2NTU","A1DKVUTOBPQH11","3FVBZG9CLJ0K37PD5L6161S4HTM0HN","","271.70000000298023","img/flower2.png","74","272.29999999701977","1","1","1","2","1,0,0,1,1,0,1,0,1","1,0,0,1,1,0,1,0,1","1",""
"","html-keyboard-response","256","153686","0.0-256.0","3QRYMNZ7FZ3FFW69XNUQKFNT8Y2NTU","A1DKVUTOBPQH11","3FVBZG9CLJ0K37PD5L6161S4HTM0HN","","null","<img src=""img/flower2.png"" style=""width:200px; border:14px solid green;"">","null","","","","","","","","",""
"","image-keyboard-response","257","153944","0.0-257.0","3QRYMNZ7FZ3FFW69XNUQKFNT8Y2NTU","A1DKVUTOBPQH11","3FVBZG9CLJ0K37PD5L6161S4HTM0HN","","257.5","img/flower2.png","74","258","1","1","1","2","1,0,0,1,1,0,1,0,1","1,0,0,1,1,0,1,0,1","1",""
"","html-keyboard-response","258","154246","0.0-258.0","3QRYMNZ7FZ3FFW69XNUQKFNT8Y2NTU","A1DKVUTOBPQH11","3FVBZG9CLJ0K37PD5L6161S4HTM0HN","","null","<img src=""img/flower2.png"" style=""width:200px; border:14px solid green;"">","null","","","","","","","","",""
"","image-keyboard-response","259","154531","0.0-259.0","3QRYMNZ7FZ3FFW69XNUQKFNT8Y2NTU","A1DKVUTOBPQH11","3FVBZG9CLJ0K37PD5L6161S4HTM0HN","","284.80000000447035","img/flower4.png","74","285.29999999701977","1","1","2","2","1,0,0,1,1,0,1,0,1","1,0,0,1,1,0,1,0,1","1",""
"","html-keyboard-response","260","154832","0.0-260.0","3QRYMNZ7FZ3FFW69XNUQKFNT8Y2NTU","A1DKVUTOBPQH11","3FVBZG9CLJ0K37PD5L6161S4HTM0HN","","null","<img src=""img/flower4.png"" style=""width:200px; border:14px solid green;"">","null","","","","","","","","",""
"","image-keyboard-response","261","155106","0.0-261.0","3QRYMNZ7FZ3FFW69XNUQKFNT8Y2NTU","A1DKVUTOBPQH11","3FVBZG9CLJ0K37PD5L6161S4HTM0HN","","273.20000000298023","img/flower2.png","74","273.69999999552965","1","1","1","2","1,0,0,1,1,0,1,0,1","1,0,0,1,1,0,1,0,1","1",""
"","html-keyboard-response","262","155407","0.0-262.0","3QRYMNZ7FZ3FFW69XNUQKFNT8Y2NTU","A1DKVUTOBPQH11","3FVBZG9CLJ0K37PD5L6161S4HTM0HN","","null","<img src=""img/flower2.png"" style=""width:200px; border:14px solid green;"">","null","","","","","","","","",""
"","image-keyboard-response","263","155652","0.0-263.0","3QRYMNZ7FZ3FFW69XNUQKFNT8Y2NTU","A1DKVUTOBPQH11","3FVBZG9CLJ0K37PD5L6161S4HTM0HN","","244","img/flower1.png","74","244.40000000596046","1","1","3","2","1,0,0,1,1,0,1,0,1","1,0,0,1,1,0,1,0,1","1",""
"","html-keyboard-response","264","155953","0.0-264.0","3QRYMNZ7FZ3FFW69XNUQKFNT8Y2NTU","A1DKVUTOBPQH11","3FVBZG9CLJ0K37PD5L6161S4HTM0HN","","null","<img src=""img/flower1.png"" style=""width:200px; border:14px solid green;"">","null","","","","","","","","",""
"","image-keyboard-response","265","156233","0.0-265.0","3QRYMNZ7FZ3FFW69XNUQKFNT8Y2NTU","A1DKVUTOBPQH11","3FVBZG9CLJ0K37PD5L6161S4HTM0HN","","278.90000000596046","img/flower2.png","74","279.3999999985099","1","1","1","2","1,0,0,1,1,0,1,0,1","1,0,0,1,1,0,1,0,1","1",""
"","html-keyboard-response","266","156534","0.0-266.0","3QRYMNZ7FZ3FFW69XNUQKFNT8Y2NTU","A1DKVUTOBPQH11","3FVBZG9CLJ0K37PD5L6161S4HTM0HN","","null","<img src=""img/flower2.png"" style=""width:200px; border:14px solid green;"">","null","","","","","","","","",""
"","image-keyboard-response","267","156793","0.0-267.0","3QRYMNZ7FZ3FFW69XNUQKFNT8Y2NTU","A1DKVUTOBPQH11","3FVBZG9CLJ0K37PD5L6161S4HTM0HN","","258.5","img/flower1.png","74","259","1","1","3","2","1,0,0,1,1,0,1,0,1","1,0,0,1,1,0,1,0,1","1",""
"","html-keyboard-response","268","157095","0.0-268.0","3QRYMNZ7FZ3FFW69XNUQKFNT8Y2NTU","A1DKVUTOBPQH11","3FVBZG9CLJ0K37PD5L6161S4HTM0HN","","null","<img src=""img/flower1.png"" style=""width:200px; border:14px solid green;"">","null","","","","","","","","",""
"","image-keyboard-response","269","157375","0.0-269.0","3QRYMNZ7FZ3FFW69XNUQKFNT8Y2NTU","A1DKVUTOBPQH11","3FVBZG9CLJ0K37PD5L6161S4HTM0HN","","279.5","img/flower2.png","74","279.8999999985099","1","1","1","2","1,0,0,1,1,0,1,0,1","1,0,0,1,1,0,1,0,1","1",""
"","html-keyboard-response","270","157677","0.0-270.0","3QRYMNZ7FZ3FFW69XNUQKFNT8Y2NTU","A1DKVUTOBPQH11","3FVBZG9CLJ0K37PD5L6161S4HTM0HN","","null","<img src=""img/flower2.png"" style=""width:200px; border:14px solid green;"">","null","","","","","","","","",""
"","image-keyboard-response","271","157964","0.0-271.0","3QRYMNZ7FZ3FFW69XNUQKFNT8Y2NTU","A1DKVUTOBPQH11","3FVBZG9CLJ0K37PD5L6161S4HTM0HN","","287.1000000014901","img/flower4.png","74","287.5","1","1","2","2","1,0,0,1,1,0,1,0,1","1,0,0,1,1,0,1,0,1","1",""
"","html-keyboard-response","272","158266","0.0-272.0","3QRYMNZ7FZ3FFW69XNUQKFNT8Y2NTU","A1DKVUTOBPQH11","3FVBZG9CLJ0K37PD5L6161S4HTM0HN","","null","<img src=""img/flower4.png"" style=""width:200px; border:14px solid green;"">","null","","","","","","","","",""
"","image-keyboard-response","273","158537","0.0-273.0","3QRYMNZ7FZ3FFW69XNUQKFNT8Y2NTU","A1DKVUTOBPQH11","3FVBZG9CLJ0K37PD5L6161S4HTM0HN","","270.79999999701977","img/flower1.png","74","271.3999999985099","1","1","3","2","1,0,0,1,1,0,1,0,1","1,0,0,1,1,0,1,0,1","1",""
"","html-keyboard-response","274","158839","0.0-274.0","3QRYMNZ7FZ3FFW69XNUQKFNT8Y2NTU","A1DKVUTOBPQH11","3FVBZG9CLJ0K37PD5L6161S4HTM0HN","","null","<img src=""img/flower1.png"" style=""width:200px; border:14px solid green;"">","null","","","","","","","","",""
"","image-keyboard-response","275","159109","0.0-275.0","3QRYMNZ7FZ3FFW69XNUQKFNT8Y2NTU","A1DKVUTOBPQH11","3FVBZG9CLJ0K37PD5L6161S4HTM0HN","","269.5","img/flower1.png","74","270.20000000298023","1","1","3","2","1,0,0,1,1,0,1,0,1","1,0,0,1,1,0,1,0,1","1",""
"","html-keyboard-response","276","159410","0.0-276.0","3QRYMNZ7FZ3FFW69XNUQKFNT8Y2NTU","A1DKVUTOBPQH11","3FVBZG9CLJ0K37PD5L6161S4HTM0HN","","null","<img src=""img/flower1.png"" style=""width:200px; border:14px solid green;"">","null","","","","","","","","",""
"","image-keyboard-response","277","159702","0.0-277.0","3QRYMNZ7FZ3FFW69XNUQKFNT8Y2NTU","A1DKVUTOBPQH11","3FVBZG9CLJ0K37PD5L6161S4HTM0HN","","291","img/flower4.png","74","291.5","1","1","2","2","1,0,0,1,1,0,1,0,1","1,0,0,1,1,0,1,0,1","1",""
"","html-keyboard-response","278","160003","0.0-278.0","3QRYMNZ7FZ3FFW69XNUQKFNT8Y2NTU","A1DKVUTOBPQH11","3FVBZG9CLJ0K37PD5L6161S4HTM0HN","","null","<img src=""img/flower4.png"" style=""width:200px; border:14px solid green;"">","null","","","","","","","","",""
"","image-keyboard-response","279","160248","0.0-279.0","3QRYMNZ7FZ3FFW69XNUQKFNT8Y2NTU","A1DKVUTOBPQH11","3FVBZG9CLJ0K37PD5L6161S4HTM0HN","","244.39999999850988","img/flower4.png","74","245","1","1","2","2","1,0,0,1,1,0,1,0,1","1,0,0,1,1,0,1,0,1","1",""
"","html-keyboard-response","280","160549","0.0-280.0","3QRYMNZ7FZ3FFW69XNUQKFNT8Y2NTU","A1DKVUTOBPQH11","3FVBZG9CLJ0K37PD5L6161S4HTM0HN","","null","<img src=""img/flower4.png"" style=""width:200px; border:14px solid green;"">","null","","","","","","","","",""
"","image-keyboard-response","281","160853","0.0-281.0","3QRYMNZ7FZ3FFW69XNUQKFNT8Y2NTU","A1DKVUTOBPQH11","3FVBZG9CLJ0K37PD5L6161S4HTM0HN","","303.1000000014901","img/flower1.png","74","303.70000000298023","1","1","3","2","1,0,0,1,1,0,1,0,1","1,0,0,1,1,0,1,0,1","1",""
"","html-keyboard-response","282","161154","0.0-282.0","3QRYMNZ7FZ3FFW69XNUQKFNT8Y2NTU","A1DKVUTOBPQH11","3FVBZG9CLJ0K37PD5L6161S4HTM0HN","","null","<img src=""img/flower1.png"" style=""width:200px; border:14px solid green;"">","null","","","","","","","","",""
"","image-keyboard-response","283","161430","0.0-283.0","3QRYMNZ7FZ3FFW69XNUQKFNT8Y2NTU","A1DKVUTOBPQH11","3FVBZG9CLJ0K37PD5L6161S4HTM0HN","","274.80000000447035","img/flower4.png","74","275.5","1","1","2","2","1,0,0,1,1,0,1,0,1","1,0,0,1,1,0,1,0,1","1",""
"","html-keyboard-response","284","161731","0.0-284.0","3QRYMNZ7FZ3FFW69XNUQKFNT8Y2NTU","A1DKVUTOBPQH11","3FVBZG9CLJ0K37PD5L6161S4HTM0HN","","null","<img src=""img/flower4.png"" style=""width:200px; border:14px solid green;"">","null","","","","","","","","",""
"","image-keyboard-response","285","162027","0.0-285.0","3QRYMNZ7FZ3FFW69XNUQKFNT8Y2NTU","A1DKVUTOBPQH11","3FVBZG9CLJ0K37PD5L6161S4HTM0HN","","295.20000000298023","img/flower1.png","74","295.69999999552965","1","1","3","2","1,0,0,1,1,0,1,0,1","1,0,0,1,1,0,1,0,1","1",""
"","html-keyboard-response","286","162329","0.0-286.0","3QRYMNZ7FZ3FFW69XNUQKFNT8Y2NTU","A1DKVUTOBPQH11","3FVBZG9CLJ0K37PD5L6161S4HTM0HN","","null","<img src=""img/flower1.png"" style=""width:200px; border:14px solid green;"">","null","","","","","","","","",""
"","image-keyboard-response","287","162562","0.0-287.0","3QRYMNZ7FZ3FFW69XNUQKFNT8Y2NTU","A1DKVUTOBPQH11","3FVBZG9CLJ0K37PD5L6161S4HTM0HN","","232.10000000149012","img/flower2.png","74","232.60000000149012","1","1","1","2","1,0,0,1,1,0,1,0,1","1,0,0,1,1,0,1,0,1","1",""
"","html-keyboard-response","288","162863","0.0-288.0","3QRYMNZ7FZ3FFW69XNUQKFNT8Y2NTU","A1DKVUTOBPQH11","3FVBZG9CLJ0K37PD5L6161S4HTM0HN","","null","<img src=""img/flower2.png"" style=""width:200px; border:14px solid green;"">","null","","","","","","","","",""
"","image-keyboard-response","289","163161","0.0-289.0","3QRYMNZ7FZ3FFW69XNUQKFNT8Y2NTU","A1DKVUTOBPQH11","3FVBZG9CLJ0K37PD5L6161S4HTM0HN","","297","img/flower4.png","74","297.80000000447035","1","1","2","2","1,0,0,1,1,0,1,0,1","1,0,0,1,1,0,1,0,1","1",""
"","html-keyboard-response","290","163463","0.0-290.0","3QRYMNZ7FZ3FFW69XNUQKFNT8Y2NTU","A1DKVUTOBPQH11","3FVBZG9CLJ0K37PD5L6161S4HTM0HN","","null","<img src=""img/flower4.png"" style=""width:200px; border:14px solid green;"">","null","","","","","","","","",""
"","image-keyboard-response","291","163695","0.0-291.0","3QRYMNZ7FZ3FFW69XNUQKFNT8Y2NTU","A1DKVUTOBPQH11","3FVBZG9CLJ0K37PD5L6161S4HTM0HN","","231.20000000298023","img/flower2.png","74","231.60000000149012","1","1","1","2","1,0,0,1,1,0,1,0,1","1,0,0,1,1,0,1,0,1","1",""
"","html-keyboard-response","292","163996","0.0-292.0","3QRYMNZ7FZ3FFW69XNUQKFNT8Y2NTU","A1DKVUTOBPQH11","3FVBZG9CLJ0K37PD5L6161S4HTM0HN","","null","<img src=""img/flower2.png"" style=""width:200px; border:14px solid green;"">","null","","","","","","","","",""
"","image-keyboard-response","293","164278","0.0-293.0","3QRYMNZ7FZ3FFW69XNUQKFNT8Y2NTU","A1DKVUTOBPQH11","3FVBZG9CLJ0K37PD5L6161S4HTM0HN","","281","img/flower2.png","74","281.70000000298023","1","1","1","2","1,0,0,1,1,0,1,0,1","1,0,0,1,1,0,1,0,1","1",""
"","html-keyboard-response","294","164580","0.0-294.0","3QRYMNZ7FZ3FFW69XNUQKFNT8Y2NTU","A1DKVUTOBPQH11","3FVBZG9CLJ0K37PD5L6161S4HTM0HN","","null","<img src=""img/flower2.png"" style=""width:200px; border:14px solid green;"">","null","","","","","","","","",""
"","image-keyboard-response","295","164838","0.0-295.0","3QRYMNZ7FZ3FFW69XNUQKFNT8Y2NTU","A1DKVUTOBPQH11","3FVBZG9CLJ0K37PD5L6161S4HTM0HN","","257.29999999701977","img/flower2.png","74","257.69999999552965","1","1","1","2","1,0,0,1,1,0,1,0,1","1,0,0,1,1,0,1,0,1","1",""
"","html-keyboard-response","296","165139","0.0-296.0","3QRYMNZ7FZ3FFW69XNUQKFNT8Y2NTU","A1DKVUTOBPQH11","3FVBZG9CLJ0K37PD5L6161S4HTM0HN","","null","<img src=""img/flower2.png"" style=""width:200px; border:14px solid green;"">","null","","","","","","","","",""
"","image-keyboard-response","297","165418","0.0-297.0","3QRYMNZ7FZ3FFW69XNUQKFNT8Y2NTU","A1DKVUTOBPQH11","3FVBZG9CLJ0K37PD5L6161S4HTM0HN","","278.19999999552965","img/flower4.png","74","278.80000000447035","1","1","2","2","1,0,0,1,1,0,1,0,1","1,0,0,1,1,0,1,0,1","1",""
"","html-keyboard-response","298","165719","0.0-298.0","3QRYMNZ7FZ3FFW69XNUQKFNT8Y2NTU","A1DKVUTOBPQH11","3FVBZG9CLJ0K37PD5L6161S4HTM0HN","","null","<img src=""img/flower4.png"" style=""width:200px; border:14px solid green;"">","null","","","","","","","","",""
"","image-keyboard-response","299","165970","0.0-299.0","3QRYMNZ7FZ3FFW69XNUQKFNT8Y2NTU","A1DKVUTOBPQH11","3FVBZG9CLJ0K37PD5L6161S4HTM0HN","","249.60000000149012","img/flower1.png","74","250.10000000149012","1","1","3","2","1,0,0,1,1,0,1,0,1","1,0,0,1,1,0,1,0,1","1",""
"","html-keyboard-response","300","166271","0.0-300.0","3QRYMNZ7FZ3FFW69XNUQKFNT8Y2NTU","A1DKVUTOBPQH11","3FVBZG9CLJ0K37PD5L6161S4HTM0HN","","null","<img src=""img/flower1.png"" style=""width:200px; border:14px solid green;"">","null","","","","","","","","",""
"","image-keyboard-response","301","166531","0.0-301.0","3QRYMNZ7FZ3FFW69XNUQKFNT8Y2NTU","A1DKVUTOBPQH11","3FVBZG9CLJ0K37PD5L6161S4HTM0HN","","259.1000000014901","img/flower1.png","74","259.5","1","1","3","2","1,0,0,1,1,0,1,0,1","1,0,0,1,1,0,1,0,1","1",""
"","html-keyboard-response","302","166832","0.0-302.0","3QRYMNZ7FZ3FFW69XNUQKFNT8Y2NTU","A1DKVUTOBPQH11","3FVBZG9CLJ0K37PD5L6161S4HTM0HN","","null","<img src=""img/flower1.png"" style=""width:200px; border:14px solid green;"">","null","","","","","","","","",""
"","image-keyboard-response","303","167102","0.0-303.0","3QRYMNZ7FZ3FFW69XNUQKFNT8Y2NTU","A1DKVUTOBPQH11","3FVBZG9CLJ0K37PD5L6161S4HTM0HN","","269.19999999552965","img/flower1.png","74","269.80000000447035","1","1","3","2","1,0,0,1,1,0,1,0,1","1,0,0,1,1,0,1,0,1","1",""
"","html-keyboard-response","304","167404","0.0-304.0","3QRYMNZ7FZ3FFW69XNUQKFNT8Y2NTU","A1DKVUTOBPQH11","3FVBZG9CLJ0K37PD5L6161S4HTM0HN","","null","<img src=""img/flower1.png"" style=""width:200px; border:14px solid green;"">","null","","","","","","","","",""
"","image-keyboard-response","305","167680","0.0-305.0","3QRYMNZ7FZ3FFW69XNUQKFNT8Y2NTU","A1DKVUTOBPQH11","3FVBZG9CLJ0K37PD5L6161S4HTM0HN","","275.40000000596046","img/flower2.png","74","275.8999999985099","1","1","1","2","1,0,0,1,1,0,1,0,1","1,0,0,1,1,0,1,0,1","1",""
"","html-keyboard-response","306","167981","0.0-306.0","3QRYMNZ7FZ3FFW69XNUQKFNT8Y2NTU","A1DKVUTOBPQH11","3FVBZG9CLJ0K37PD5L6161S4HTM0HN","","null","<img src=""img/flower2.png"" style=""width:200px; border:14px solid green;"">","null","","","","","","","","",""
"","image-keyboard-response","307","168253","0.0-307.0","3QRYMNZ7FZ3FFW69XNUQKFNT8Y2NTU","A1DKVUTOBPQH11","3FVBZG9CLJ0K37PD5L6161S4HTM0HN","","271.20000000298023","img/flower2.png","74","271.69999999552965","1","1","1","2","1,0,0,1,1,0,1,0,1","1,0,0,1,1,0,1,0,1","1",""
"","html-keyboard-response","308","168554","0.0-308.0","3QRYMNZ7FZ3FFW69XNUQKFNT8Y2NTU","A1DKVUTOBPQH11","3FVBZG9CLJ0K37PD5L6161S4HTM0HN","","null","<img src=""img/flower2.png"" style=""width:200px; border:14px solid green;"">","null","","","","","","","","",""
"","image-keyboard-response","309","168870","0.0-309.0","3QRYMNZ7FZ3FFW69XNUQKFNT8Y2NTU","A1DKVUTOBPQH11","3FVBZG9CLJ0K37PD5L6161S4HTM0HN","","315.3999999985099","img/flower4.png","74","316.1000000014901","1","1","2","2","1,0,0,1,1,0,1,0,1","1,0,0,1,1,0,1,0,1","1",""
"","html-keyboard-response","310","169172","0.0-310.0","3QRYMNZ7FZ3FFW69XNUQKFNT8Y2NTU","A1DKVUTOBPQH11","3FVBZG9CLJ0K37PD5L6161S4HTM0HN","","null","<img src=""img/flower4.png"" style=""width:200px; border:14px solid green;"">","null","","","","","","","","",""
"","image-keyboard-response","311","169491","0.0-311.0","3QRYMNZ7FZ3FFW69XNUQKFNT8Y2NTU","A1DKVUTOBPQH11","3FVBZG9CLJ0K37PD5L6161S4HTM0HN","","318","img/flower4.png","74","318.6000000014901","1","1","2","2","1,0,0,1,1,0,1,0,1","1,0,0,1,1,0,1,0,1","1",""
"","html-keyboard-response","312","169792","0.0-312.0","3QRYMNZ7FZ3FFW69XNUQKFNT8Y2NTU","A1DKVUTOBPQH11","3FVBZG9CLJ0K37PD5L6161S4HTM0HN","","null","<img src=""img/flower4.png"" style=""width:200px; border:14px solid green;"">","null","","","","","","","","",""
"","image-keyboard-response","313","170088","0.0-313.0","3QRYMNZ7FZ3FFW69XNUQKFNT8Y2NTU","A1DKVUTOBPQH11","3FVBZG9CLJ0K37PD5L6161S4HTM0HN","","294.8999999985099","img/flower2.png","74","295.5","1","1","1","2","1,0,0,1,1,0,1,0,1","1,0,0,1,1,0,1,0,1","1",""
"","html-keyboard-response","314","170389","0.0-314.0","3QRYMNZ7FZ3FFW69XNUQKFNT8Y2NTU","A1DKVUTOBPQH11","3FVBZG9CLJ0K37PD5L6161S4HTM0HN","","null","<img src=""img/flower2.png"" style=""width:200px; border:14px solid green;"">","null","","","","","","","","",""
"","image-keyboard-response","315","170774","0.0-315.0","3QRYMNZ7FZ3FFW69XNUQKFNT8Y2NTU","A1DKVUTOBPQH11","3FVBZG9CLJ0K37PD5L6161S4HTM0HN","","384","img/flower4.png","74","384.6000000014901","1","1","2","2","1,0,0,1,1,0,1,0,1","1,0,0,1,1,0,1,0,1","1",""
"","html-keyboard-response","316","171075","0.0-316.0","3QRYMNZ7FZ3FFW69XNUQKFNT8Y2NTU","A1DKVUTOBPQH11","3FVBZG9CLJ0K37PD5L6161S4HTM0HN","","null","<img src=""img/flower4.png"" style=""width:200px; border:14px solid green;"">","null","","","","","","","","",""
"","image-keyboard-response","317","171367","0.0-317.0","3QRYMNZ7FZ3FFW69XNUQKFNT8Y2NTU","A1DKVUTOBPQH11","3FVBZG9CLJ0K37PD5L6161S4HTM0HN","","291.20000000298023","img/flower1.png","74","291.69999999552965","1","1","3","2","1,0,0,1,1,0,1,0,1","1,0,0,1,1,0,1,0,1","1",""
"","html-keyboard-response","318","171669","0.0-318.0","3QRYMNZ7FZ3FFW69XNUQKFNT8Y2NTU","A1DKVUTOBPQH11","3FVBZG9CLJ0K37PD5L6161S4HTM0HN","","null","<img src=""img/flower1.png"" style=""width:200px; border:14px solid green;"">","null","","","","","","","","",""
"","image-keyboard-response","319","171960","0.0-319.0","3QRYMNZ7FZ3FFW69XNUQKFNT8Y2NTU","A1DKVUTOBPQH11","3FVBZG9CLJ0K37PD5L6161S4HTM0HN","","291","img/flower2.png","74","291.5","1","1","1","2","1,0,0,1,1,0,1,0,1","1,0,0,1,1,0,1,0,1","1",""
"","html-keyboard-response","320","172262","0.0-320.0","3QRYMNZ7FZ3FFW69XNUQKFNT8Y2NTU","A1DKVUTOBPQH11","3FVBZG9CLJ0K37PD5L6161S4HTM0HN","","null","<img src=""img/flower2.png"" style=""width:200px; border:14px solid green;"">","null","","","","","","","","",""
"","image-keyboard-response","321","172566","0.0-321.0","3QRYMNZ7FZ3FFW69XNUQKFNT8Y2NTU","A1DKVUTOBPQH11","3FVBZG9CLJ0K37PD5L6161S4HTM0HN","","303.6000000014901","img/flower2.png","74","304.09999999403954","1","1","1","2","1,0,0,1,1,0,1,0,1","1,0,0,1,1,0,1,0,1","1",""
"","html-keyboard-response","322","172868","0.0-322.0","3QRYMNZ7FZ3FFW69XNUQKFNT8Y2NTU","A1DKVUTOBPQH11","3FVBZG9CLJ0K37PD5L6161S4HTM0HN","","null","<img src=""img/flower2.png"" style=""width:200px; border:14px solid green;"">","null","","","","","","","","",""
"","image-keyboard-response","323","173188","0.0-323.0","3QRYMNZ7FZ3FFW69XNUQKFNT8Y2NTU","A1DKVUTOBPQH11","3FVBZG9CLJ0K37PD5L6161S4HTM0HN","","319.5","img/flower4.png","74","320","1","1","2","2","1,0,0,1,1,0,1,0,1","1,0,0,1,1,0,1,0,1","1",""
"","html-keyboard-response","324","173490","0.0-324.0","3QRYMNZ7FZ3FFW69XNUQKFNT8Y2NTU","A1DKVUTOBPQH11","3FVBZG9CLJ0K37PD5L6161S4HTM0HN","","null","<img src=""img/flower4.png"" style=""width:200px; border:14px solid green;"">","null","","","","","","","","",""
"","image-keyboard-response","325","173749","0.0-325.0","3QRYMNZ7FZ3FFW69XNUQKFNT8Y2NTU","A1DKVUTOBPQH11","3FVBZG9CLJ0K37PD5L6161S4HTM0HN","","258.69999999552965","img/flower1.png","74","259.30000000447035","1","1","3","2","1,0,0,1,1,0,1,0,1","1,0,0,1,1,0,1,0,1","1",""
"","html-keyboard-response","326","174050","0.0-326.0","3QRYMNZ7FZ3FFW69XNUQKFNT8Y2NTU","A1DKVUTOBPQH11","3FVBZG9CLJ0K37PD5L6161S4HTM0HN","","null","<img src=""img/flower1.png"" style=""width:200px; border:14px solid green;"">","null","","","","","","","","",""
"","image-keyboard-response","327","174379","0.0-327.0","3QRYMNZ7FZ3FFW69XNUQKFNT8Y2NTU","A1DKVUTOBPQH11","3FVBZG9CLJ0K37PD5L6161S4HTM0HN","","328.1000000014901","img/flower1.png","74","328.70000000298023","1","1","3","2","1,0,0,1,1,0,1,0,1","1,0,0,1,1,0,1,0,1","1",""
"","html-keyboard-response","328","174680","0.0-328.0","3QRYMNZ7FZ3FFW69XNUQKFNT8Y2NTU","A1DKVUTOBPQH11","3FVBZG9CLJ0K37PD5L6161S4HTM0HN","","null","<img src=""img/flower1.png"" style=""width:200px; border:14px solid green;"">","null","","","","","","","","",""
"","image-keyboard-response","329","174968","0.0-329.0","3QRYMNZ7FZ3FFW69XNUQKFNT8Y2NTU","A1DKVUTOBPQH11","3FVBZG9CLJ0K37PD5L6161S4HTM0HN","","287.1000000014901","img/flower2.png","74","287.70000000298023","1","1","1","2","1,0,0,1,1,0,1,0,1","1,0,0,1,1,0,1,0,1","1",""
"","html-keyboard-response","330","175282","0.0-330.0","3QRYMNZ7FZ3FFW69XNUQKFNT8Y2NTU","A1DKVUTOBPQH11","3FVBZG9CLJ0K37PD5L6161S4HTM0HN","","null","<img src=""img/flower2.png"" style=""width:200px; border:14px solid green;"">","null","","","","","","","","",""
"","image-keyboard-response","331","175513","0.0-331.0","3QRYMNZ7FZ3FFW69XNUQKFNT8Y2NTU","A1DKVUTOBPQH11","3FVBZG9CLJ0K37PD5L6161S4HTM0HN","","230.20000000298023","img/flower4.png","74","230.69999999552965","1","1","2","2","1,0,0,1,1,0,1,0,1","1,0,0,1,1,0,1,0,1","1",""
"","html-keyboard-response","332","175815","0.0-332.0","3QRYMNZ7FZ3FFW69XNUQKFNT8Y2NTU","A1DKVUTOBPQH11","3FVBZG9CLJ0K37PD5L6161S4HTM0HN","","null","<img src=""img/flower4.png"" style=""width:200px; border:14px solid green;"">","null","","","","","","","","",""
"","image-keyboard-response","333","176066","0.0-333.0","3QRYMNZ7FZ3FFW69XNUQKFNT8Y2NTU","A1DKVUTOBPQH11","3FVBZG9CLJ0K37PD5L6161S4HTM0HN","","250.40000000596046","img/flower2.png","74","251","1","1","1","2","1,0,0,1,1,0,1,0,1","1,0,0,1,1,0,1,0,1","1",""
"","html-keyboard-response","334","176367","0.0-334.0","3QRYMNZ7FZ3FFW69XNUQKFNT8Y2NTU","A1DKVUTOBPQH11","3FVBZG9CLJ0K37PD5L6161S4HTM0HN","","null","<img src=""img/flower2.png"" style=""width:200px; border:14px solid green;"">","null","","","","","","","","",""
"","image-keyboard-response","335","176656","0.0-335.0","3QRYMNZ7FZ3FFW69XNUQKFNT8Y2NTU","A1DKVUTOBPQH11","3FVBZG9CLJ0K37PD5L6161S4HTM0HN","","287.70000000298023","img/flower4.png","74","288.19999999552965","1","1","2","2","1,0,0,1,1,0,1,0,1","1,0,0,1,1,0,1,0,1","1",""
"","html-keyboard-response","336","176957","0.0-336.0","3QRYMNZ7FZ3FFW69XNUQKFNT8Y2NTU","A1DKVUTOBPQH11","3FVBZG9CLJ0K37PD5L6161S4HTM0HN","","null","<img src=""img/flower4.png"" style=""width:200px; border:14px solid green;"">","null","","","","","","","","",""
"","image-keyboard-response","337","177203","0.0-337.0","3QRYMNZ7FZ3FFW69XNUQKFNT8Y2NTU","A1DKVUTOBPQH11","3FVBZG9CLJ0K37PD5L6161S4HTM0HN","","245.70000000298023","img/flower4.png","74","246.20000000298023","1","1","2","2","1,0,0,1,1,0,1,0,1","1,0,0,1,1,0,1,0,1","1",""
"","html-keyboard-response","338","177505","0.0-338.0","3QRYMNZ7FZ3FFW69XNUQKFNT8Y2NTU","A1DKVUTOBPQH11","3FVBZG9CLJ0K37PD5L6161S4HTM0HN","","null","<img src=""img/flower4.png"" style=""width:200px; border:14px solid green;"">","null","","","","","","","","",""
"","image-keyboard-response","339","177865","0.0-339.0","3QRYMNZ7FZ3FFW69XNUQKFNT8Y2NTU","A1DKVUTOBPQH11","3FVBZG9CLJ0K37PD5L6161S4HTM0HN","","359.30000000447035","img/flower4.png","74","359.79999999701977","1","1","2","2","1,0,0,1,1,0,1,0,1","1,0,0,1,1,0,1,0,1","1",""
"","html-keyboard-response","340","178167","0.0-340.0","3QRYMNZ7FZ3FFW69XNUQKFNT8Y2NTU","A1DKVUTOBPQH11","3FVBZG9CLJ0K37PD5L6161S4HTM0HN","","null","<img src=""img/flower4.png"" style=""width:200px; border:14px solid green;"">","null","","","","","","","","",""
"","image-keyboard-response","341","178473","0.0-341.0","3QRYMNZ7FZ3FFW69XNUQKFNT8Y2NTU","A1DKVUTOBPQH11","3FVBZG9CLJ0K37PD5L6161S4HTM0HN","","306","img/flower4.png","74","306.69999999552965","1","1","2","2","1,0,0,1,1,0,1,0,1","1,0,0,1,1,0,1,0,1","1",""
"","html-keyboard-response","342","178775","0.0-342.0","3QRYMNZ7FZ3FFW69XNUQKFNT8Y2NTU","A1DKVUTOBPQH11","3FVBZG9CLJ0K37PD5L6161S4HTM0HN","","null","<img src=""img/flower4.png"" style=""width:200px; border:14px solid green;"">","null","","","","","","","","",""
"","image-keyboard-response","343","179075","0.0-343.0","3QRYMNZ7FZ3FFW69XNUQKFNT8Y2NTU","A1DKVUTOBPQH11","3FVBZG9CLJ0K37PD5L6161S4HTM0HN","","299.79999999701977","img/flower4.png","74","300.5","1","1","2","2","1,0,0,1,1,0,1,0,1","1,0,0,1,1,0,1,0,1","1",""
"","html-keyboard-response","344","179376","0.0-344.0","3QRYMNZ7FZ3FFW69XNUQKFNT8Y2NTU","A1DKVUTOBPQH11","3FVBZG9CLJ0K37PD5L6161S4HTM0HN","","null","<img src=""img/flower4.png"" style=""width:200px; border:14px solid green;"">","null","","","","","","","","",""
"","image-keyboard-response","345","179627","0.0-345.0","3QRYMNZ7FZ3FFW69XNUQKFNT8Y2NTU","A1DKVUTOBPQH11","3FVBZG9CLJ0K37PD5L6161S4HTM0HN","","250.10000000149012","img/flower4.png","74","250.60000000149012","1","1","2","2","1,0,0,1,1,0,1,0,1","1,0,0,1,1,0,1,0,1","1",""
"","html-keyboard-response","346","179928","0.0-346.0","3QRYMNZ7FZ3FFW69XNUQKFNT8Y2NTU","A1DKVUTOBPQH11","3FVBZG9CLJ0K37PD5L6161S4HTM0HN","","null","<img src=""img/flower4.png"" style=""width:200px; border:14px solid green;"">","null","","","","","","","","",""
"","image-keyboard-response","347","180275","0.0-347.0","3QRYMNZ7FZ3FFW69XNUQKFNT8Y2NTU","A1DKVUTOBPQH11","3FVBZG9CLJ0K37PD5L6161S4HTM0HN","","346.30000000447035","img/flower4.png","74","346.8999999985099","1","1","2","2","1,0,0,1,1,0,1,0,1","1,0,0,1,1,0,1,0,1","1",""
"","html-keyboard-response","348","180577","0.0-348.0","3QRYMNZ7FZ3FFW69XNUQKFNT8Y2NTU","A1DKVUTOBPQH11","3FVBZG9CLJ0K37PD5L6161S4HTM0HN","","null","<img src=""img/flower4.png"" style=""width:200px; border:14px solid green;"">","null","","","","","","","","",""
"","image-keyboard-response","349","180810","0.0-349.0","3QRYMNZ7FZ3FFW69XNUQKFNT8Y2NTU","A1DKVUTOBPQH11","3FVBZG9CLJ0K37PD5L6161S4HTM0HN","","232.40000000596046","img/flower2.png","74","233","1","1","1","2","1,0,0,1,1,0,1,0,1","1,0,0,1,1,0,1,0,1","1",""
"","html-keyboard-response","350","181111","0.0-350.0","3QRYMNZ7FZ3FFW69XNUQKFNT8Y2NTU","A1DKVUTOBPQH11","3FVBZG9CLJ0K37PD5L6161S4HTM0HN","","null","<img src=""img/flower2.png"" style=""width:200px; border:14px solid green;"">","null","","","","","","","","",""
"","image-keyboard-response","351","181450","0.0-351.0","3QRYMNZ7FZ3FFW69XNUQKFNT8Y2NTU","A1DKVUTOBPQH11","3FVBZG9CLJ0K37PD5L6161S4HTM0HN","","338.29999999701977","img/flower1.png","74","338.8999999985099","1","1","3","2","1,0,0,1,1,0,1,0,1","1,0,0,1,1,0,1,0,1","1",""
"","html-keyboard-response","352","181752","0.0-352.0","3QRYMNZ7FZ3FFW69XNUQKFNT8Y2NTU","A1DKVUTOBPQH11","3FVBZG9CLJ0K37PD5L6161S4HTM0HN","","null","<img src=""img/flower1.png"" style=""width:200px; border:14px solid green;"">","null","","","","","","","","",""
"","image-keyboard-response","353","182044","0.0-353.0","3QRYMNZ7FZ3FFW69XNUQKFNT8Y2NTU","A1DKVUTOBPQH11","3FVBZG9CLJ0K37PD5L6161S4HTM0HN","","291.6000000014901","img/flower1.png","74","292.19999999552965","1","1","3","2","1,0,0,1,1,0,1,0,1","1,0,0,1,1,0,1,0,1","1",""
"","html-keyboard-response","354","182345","0.0-354.0","3QRYMNZ7FZ3FFW69XNUQKFNT8Y2NTU","A1DKVUTOBPQH11","3FVBZG9CLJ0K37PD5L6161S4HTM0HN","","null","<img src=""img/flower1.png"" style=""width:200px; border:14px solid green;"">","null","","","","","","","","",""
"","image-keyboard-response","355","182576","0.0-355.0","3QRYMNZ7FZ3FFW69XNUQKFNT8Y2NTU","A1DKVUTOBPQH11","3FVBZG9CLJ0K37PD5L6161S4HTM0HN","","230.19999999552965","img/flower1.png","74","230.60000000149012","1","1","3","2","1,0,0,1,1,0,1,0,1","1,0,0,1,1,0,1,0,1","1",""
"","html-keyboard-response","356","182877","0.0-356.0","3QRYMNZ7FZ3FFW69XNUQKFNT8Y2NTU","A1DKVUTOBPQH11","3FVBZG9CLJ0K37PD5L6161S4HTM0HN","","null","<img src=""img/flower1.png"" style=""width:200px; border:14px solid green;"">","null","","","","","","","","",""
"","image-keyboard-response","357","183170","0.0-357.0","3QRYMNZ7FZ3FFW69XNUQKFNT8Y2NTU","A1DKVUTOBPQH11","3FVBZG9CLJ0K37PD5L6161S4HTM0HN","","292.19999999552965","img/flower1.png","74","292.70000000298023","1","1","3","2","1,0,0,1,1,0,1,0,1","1,0,0,1,1,0,1,0,1","1",""
"","html-keyboard-response","358","183471","0.0-358.0","3QRYMNZ7FZ3FFW69XNUQKFNT8Y2NTU","A1DKVUTOBPQH11","3FVBZG9CLJ0K37PD5L6161S4HTM0HN","","null","<img src=""img/flower1.png"" style=""width:200px; border:14px solid green;"">","null","","","","","","","","",""
"","image-keyboard-response","359","183711","0.0-359.0","3QRYMNZ7FZ3FFW69XNUQKFNT8Y2NTU","A1DKVUTOBPQH11","3FVBZG9CLJ0K37PD5L6161S4HTM0HN","","238.70000000298023","img/flower2.png","74","239.29999999701977","1","1","1","2","1,0,0,1,1,0,1,0,1","1,0,0,1,1,0,1,0,1","1",""
"","html-keyboard-response","360","184012","0.0-360.0","3QRYMNZ7FZ3FFW69XNUQKFNT8Y2NTU","A1DKVUTOBPQH11","3FVBZG9CLJ0K37PD5L6161S4HTM0HN","","null","<img src=""img/flower2.png"" style=""width:200px; border:14px solid green;"">","null","","","","","","","","",""
"","image-keyboard-response","361","184266","0.0-361.0","3QRYMNZ7FZ3FFW69XNUQKFNT8Y2NTU","A1DKVUTOBPQH11","3FVBZG9CLJ0K37PD5L6161S4HTM0HN","","253.70000000298023","img/flower4.png","74","254.10000000149012","1","1","2","2","1,0,0,1,1,0,1,0,1","1,0,0,1,1,0,1,0,1","1",""
"","html-keyboard-response","362","184567","0.0-362.0","3QRYMNZ7FZ3FFW69XNUQKFNT8Y2NTU","A1DKVUTOBPQH11","3FVBZG9CLJ0K37PD5L6161S4HTM0HN","","null","<img src=""img/flower4.png"" style=""width:200px; border:14px solid green;"">","null","","","","","","","","",""
"","instructions","363","187047","0.0-363.0","3QRYMNZ7FZ3FFW69XNUQKFNT8Y2NTU","A1DKVUTOBPQH11","3FVBZG9CLJ0K37PD5L6161S4HTM0HN","[{""page_index"":0,""viewing_time"":2479.5}]","2479.6999999955297","","","","","","","","","","",""
