"success","trial_type","trial_index","time_elapsed","internal_node_id","assignmentID","mturkID","hitID","view_history","rt","stimulus","key_press","reactionTime","a","r","s","cond","reward_cond","reward_cond_actual","reward_matrix_idx","responses"
"true","fullscreen","0","5237","0.0-0.0","3A7Y0R2P2PAQDNO8NZ3VGBRIC9IJX0","A1E3N1Y6XG1898","3I7KR83SNAZT1REYB2SRC49PCEEK9H","","","","","","","","","","","","",""
"","instructions","1","39433","0.0-1.0","3A7Y0R2P2PAQDNO8NZ3VGBRIC9IJX0","A1E3N1Y6XG1898","3I7KR83SNAZT1REYB2SRC49PCEEK9H","[{""page_index"":0,""viewing_time"":2504.6000000089407},{""page_index"":1,""viewing_time"":3352.199999988079},{""page_index"":2,""viewing_time"":3779.6000000089407},{""page_index"":3,""viewing_time"":3037.7999999970198},{""page_index"":4,""viewing_time"":4713.0999999940395},{""page_index"":5,""viewing_time"":4432.5},{""page_index"":6,""viewing_time"":8066.600000008941},{""page_index"":7,""viewing_time"":4308.5999999940395}]","34195.29999999702","","","","","","","","","","",""
"","image-keyboard-response","2","40696","0.0-2.0","3A7Y0R2P2PAQDNO8NZ3VGBRIC9IJX0","A1E3N1Y6XG1898","3I7KR83SNAZT1REYB2SRC49PCEEK9H","","1261.3999999910593","img/flower4.png","74","1262.2999999970198","1","1","3","2","1,0,0,1,1,0,1,0,1","0,1,0,0,1,1,1,1,0","3",""
"","html-keyboard-response","3","41000","0.0-3.0","3A7Y0R2P2PAQDNO8NZ3VGBRIC9IJX0","A1E3N1Y6XG1898","3I7KR83SNAZT1REYB2SRC49PCEEK9H","","null","<img src=""img/flower4.png"" style=""width:200px; border:14px solid green;"">","null","","","","","","","","",""
"","image-keyboard-response","4","41608","0.0-4.0","3A7Y0R2P2PAQDNO8NZ3VGBRIC9IJX0","A1E3N1Y6XG1898","3I7KR83SNAZT1REYB2SRC49PCEEK9H","","606.9000000059605","img/flower4.png","74","607.6000000089407","1","1","3","2","1,0,0,1,1,0,1,0,1","0,1,0,0,1,1,1,1,0","3",""
"","html-keyboard-response","5","41910","0.0-5.0","3A7Y0R2P2PAQDNO8NZ3VGBRIC9IJX0","A1E3N1Y6XG1898","3I7KR83SNAZT1REYB2SRC49PCEEK9H","","null","<img src=""img/flower4.png"" style=""width:200px; border:14px solid green;"">","null","","","","","","","","",""
"","image-keyboard-response","6","42509","0.0-6.0","3A7Y0R2P2PAQDNO8NZ3VGBRIC9IJX0","A1E3N1Y6XG1898","3I7KR83SNAZT1REYB2SRC49PCEEK9H","","597.7000000029802","img/flower2.png","75","598.5","2","1","2","2","1,0,0,1,1,0,1,0,1","0,1,0,0,1,1,1,1,0","3",""
"","html-keyboard-response","7","42811","0.0-7.0","3A7Y0R2P2PAQDNO8NZ3VGBRIC9IJX0","A1E3N1Y6XG1898","3I7KR83SNAZT1REYB2SRC49PCEEK9H","","null","<img src=""img/flower2.png"" style=""width:200px; border:14px solid green;"">","null","","","","","","","","",""
"","image-keyboard-response","8","43449","0.0-8.0","3A7Y0R2P2PAQDNO8NZ3VGBRIC9IJX0","A1E3N1Y6XG1898","3I7KR83SNAZT1REYB2SRC49PCEEK9H","","636.6000000089407","img/flower2.png","75","637.3000000119209","2","1","2","2","1,0,0,1,1,0,1,0,1","0,1,0,0,1,1,1,1,0","3",""
"","html-keyboard-response","9","43750","0.0-9.0","3A7Y0R2P2PAQDNO8NZ3VGBRIC9IJX0","A1E3N1Y6XG1898","3I7KR83SNAZT1REYB2SRC49PCEEK9H","","null","<img src=""img/flower2.png"" style=""width:200px; border:14px solid green;"">","null","","","","","","","","",""
"","image-keyboard-response","10","44379","0.0-10.0","3A7Y0R2P2PAQDNO8NZ3VGBRIC9IJX0","A1E3N1Y6XG1898","3I7KR83SNAZT1REYB2SRC49PCEEK9H","","627.4000000059605","img/flower6.png","76","628.1000000089407","3","0","1","2","1,0,0,1,1,0,1,0,1","0,1,0,0,1,1,1,1,0","3",""
"","html-keyboard-response","11","44680","0.0-11.0","3A7Y0R2P2PAQDNO8NZ3VGBRIC9IJX0","A1E3N1Y6XG1898","3I7KR83SNAZT1REYB2SRC49PCEEK9H","","null","<img src=""img/flower6.png"" style=""width:200px;border:14px solid red;"">","null","","","","","","","","",""
"","image-keyboard-response","12","45563","0.0-12.0","3A7Y0R2P2PAQDNO8NZ3VGBRIC9IJX0","A1E3N1Y6XG1898","3I7KR83SNAZT1REYB2SRC49PCEEK9H","","881.6000000089407","img/flower2.png","75","882.2999999970198","2","1","2","2","1,0,0,1,1,0,1,0,1","0,1,0,0,1,1,1,1,0","3",""
"","html-keyboard-response","13","45865","0.0-13.0","3A7Y0R2P2PAQDNO8NZ3VGBRIC9IJX0","A1E3N1Y6XG1898","3I7KR83SNAZT1REYB2SRC49PCEEK9H","","null","<img src=""img/flower2.png"" style=""width:200px; border:14px solid green;"">","null","","","","","","","","",""
"","image-keyboard-response","14","46695","0.0-14.0","3A7Y0R2P2PAQDNO8NZ3VGBRIC9IJX0","A1E3N1Y6XG1898","3I7KR83SNAZT1REYB2SRC49PCEEK9H","","828.8999999910593","img/flower4.png","74","829.5","1","1","3","2","1,0,0,1,1,0,1,0,1","0,1,0,0,1,1,1,1,0","3",""
"","html-keyboard-response","15","46999","0.0-15.0","3A7Y0R2P2PAQDNO8NZ3VGBRIC9IJX0","A1E3N1Y6XG1898","3I7KR83SNAZT1REYB2SRC49PCEEK9H","","null","<img src=""img/flower4.png"" style=""width:200px; border:14px solid green;"">","null","","","","","","","","",""
"","image-keyboard-response","16","47904","0.0-16.0","3A7Y0R2P2PAQDNO8NZ3VGBRIC9IJX0","A1E3N1Y6XG1898","3I7KR83SNAZT1REYB2SRC49PCEEK9H","","904.2999999970198","img/flower6.png","76","904.7000000029802","3","0","1","2","1,0,0,1,1,0,1,0,1","0,1,0,0,1,1,1,1,0","3",""
"","html-keyboard-response","17","48210","0.0-17.0","3A7Y0R2P2PAQDNO8NZ3VGBRIC9IJX0","A1E3N1Y6XG1898","3I7KR83SNAZT1REYB2SRC49PCEEK9H","","null","<img src=""img/flower6.png"" style=""width:200px;border:14px solid red;"">","null","","","","","","","","",""
"","image-keyboard-response","18","49062","0.0-18.0","3A7Y0R2P2PAQDNO8NZ3VGBRIC9IJX0","A1E3N1Y6XG1898","3I7KR83SNAZT1REYB2SRC49PCEEK9H","","849.7999999970198","img/flower6.png","75","850.7000000029802","2","1","1","2","1,0,0,1,1,0,1,0,1","0,1,0,0,1,1,1,1,0","3",""
"","html-keyboard-response","19","49366","0.0-19.0","3A7Y0R2P2PAQDNO8NZ3VGBRIC9IJX0","A1E3N1Y6XG1898","3I7KR83SNAZT1REYB2SRC49PCEEK9H","","null","<img src=""img/flower6.png"" style=""width:200px; border:14px solid green;"">","null","","","","","","","","",""
"","image-keyboard-response","20","50325","0.0-20.0","3A7Y0R2P2PAQDNO8NZ3VGBRIC9IJX0","A1E3N1Y6XG1898","3I7KR83SNAZT1REYB2SRC49PCEEK9H","","957.8000000119209","img/flower2.png","74","958.2999999970198","1","0","2","2","1,0,0,1,1,0,1,0,1","0,1,0,0,1,1,1,1,0","3",""
"","html-keyboard-response","21","50631","0.0-21.0","3A7Y0R2P2PAQDNO8NZ3VGBRIC9IJX0","A1E3N1Y6XG1898","3I7KR83SNAZT1REYB2SRC49PCEEK9H","","null","<img src=""img/flower2.png"" style=""width:200px;border:14px solid red;"">","null","","","","","","","","",""
"","image-keyboard-response","22","51393","0.0-22.0","3A7Y0R2P2PAQDNO8NZ3VGBRIC9IJX0","A1E3N1Y6XG1898","3I7KR83SNAZT1REYB2SRC49PCEEK9H","","761","img/flower6.png","75","762","2","1","1","2","1,0,0,1,1,0,1,0,1","0,1,0,0,1,1,1,1,0","3",""
"","html-keyboard-response","23","51694","0.0-23.0","3A7Y0R2P2PAQDNO8NZ3VGBRIC9IJX0","A1E3N1Y6XG1898","3I7KR83SNAZT1REYB2SRC49PCEEK9H","","null","<img src=""img/flower6.png"" style=""width:200px; border:14px solid green;"">","null","","","","","","","","",""
"","image-keyboard-response","24","52511","0.0-24.0","3A7Y0R2P2PAQDNO8NZ3VGBRIC9IJX0","A1E3N1Y6XG1898","3I7KR83SNAZT1REYB2SRC49PCEEK9H","","816.2999999970198","img/flower2.png","76","816.9000000059605","3","1","2","2","1,0,0,1,1,0,1,0,1","0,1,0,0,1,1,1,1,0","3",""
"","html-keyboard-response","25","52816","0.0-25.0","3A7Y0R2P2PAQDNO8NZ3VGBRIC9IJX0","A1E3N1Y6XG1898","3I7KR83SNAZT1REYB2SRC49PCEEK9H","","null","<img src=""img/flower2.png"" style=""width:200px; border:14px solid green;"">","null","","","","","","","","",""
"","image-keyboard-response","26","53494","0.0-26.0","3A7Y0R2P2PAQDNO8NZ3VGBRIC9IJX0","A1E3N1Y6XG1898","3I7KR83SNAZT1REYB2SRC49PCEEK9H","","677.4000000059605","img/flower6.png","75","678.0999999940395","2","1","1","2","1,0,0,1,1,0,1,0,1","0,1,0,0,1,1,1,1,0","3",""
"","html-keyboard-response","27","53800","0.0-27.0","3A7Y0R2P2PAQDNO8NZ3VGBRIC9IJX0","A1E3N1Y6XG1898","3I7KR83SNAZT1REYB2SRC49PCEEK9H","","null","<img src=""img/flower6.png"" style=""width:200px; border:14px solid green;"">","null","","","","","","","","",""
"","image-keyboard-response","28","54487","0.0-28.0","3A7Y0R2P2PAQDNO8NZ3VGBRIC9IJX0","A1E3N1Y6XG1898","3I7KR83SNAZT1REYB2SRC49PCEEK9H","","685.5","img/flower6.png","75","686.4000000059605","2","1","1","2","1,0,0,1,1,0,1,0,1","0,1,0,0,1,1,1,1,0","3",""
"","html-keyboard-response","29","54788","0.0-29.0","3A7Y0R2P2PAQDNO8NZ3VGBRIC9IJX0","A1E3N1Y6XG1898","3I7KR83SNAZT1REYB2SRC49PCEEK9H","","null","<img src=""img/flower6.png"" style=""width:200px; border:14px solid green;"">","null","","","","","","","","",""
"","image-keyboard-response","30","55514","0.0-30.0","3A7Y0R2P2PAQDNO8NZ3VGBRIC9IJX0","A1E3N1Y6XG1898","3I7KR83SNAZT1REYB2SRC49PCEEK9H","","726.0999999940395","img/flower4.png","74","726.5","1","1","3","2","1,0,0,1,1,0,1,0,1","0,1,0,0,1,1,1,1,0","3",""
"","html-keyboard-response","31","55819","0.0-31.0","3A7Y0R2P2PAQDNO8NZ3VGBRIC9IJX0","A1E3N1Y6XG1898","3I7KR83SNAZT1REYB2SRC49PCEEK9H","","null","<img src=""img/flower4.png"" style=""width:200px; border:14px solid green;"">","null","","","","","","","","",""
"","image-keyboard-response","32","56453","0.0-32.0","3A7Y0R2P2PAQDNO8NZ3VGBRIC9IJX0","A1E3N1Y6XG1898","3I7KR83SNAZT1REYB2SRC49PCEEK9H","","632.5","img/flower6.png","75","633.2999999970198","2","1","1","2","1,0,0,1,1,0,1,0,1","0,1,0,0,1,1,1,1,0","3",""
"","html-keyboard-response","33","56755","0.0-33.0","3A7Y0R2P2PAQDNO8NZ3VGBRIC9IJX0","A1E3N1Y6XG1898","3I7KR83SNAZT1REYB2SRC49PCEEK9H","","null","<img src=""img/flower6.png"" style=""width:200px; border:14px solid green;"">","null","","","","","","","","",""
"","image-keyboard-response","34","57420","0.0-34.0","3A7Y0R2P2PAQDNO8NZ3VGBRIC9IJX0","A1E3N1Y6XG1898","3I7KR83SNAZT1REYB2SRC49PCEEK9H","","664.5","img/flower2.png","76","665.0999999940395","3","1","2","2","1,0,0,1,1,0,1,0,1","0,1,0,0,1,1,1,1,0","3",""
"","html-keyboard-response","35","57726","0.0-35.0","3A7Y0R2P2PAQDNO8NZ3VGBRIC9IJX0","A1E3N1Y6XG1898","3I7KR83SNAZT1REYB2SRC49PCEEK9H","","null","<img src=""img/flower2.png"" style=""width:200px; border:14px solid green;"">","null","","","","","","","","",""
"","image-keyboard-response","36","58691","0.0-36.0","3A7Y0R2P2PAQDNO8NZ3VGBRIC9IJX0","A1E3N1Y6XG1898","3I7KR83SNAZT1REYB2SRC49PCEEK9H","","964.7999999970198","img/flower4.png","74","965.2999999970198","1","1","3","2","1,0,0,1,1,0,1,0,1","0,1,0,0,1,1,1,1,0","3",""
"","html-keyboard-response","37","58996","0.0-37.0","3A7Y0R2P2PAQDNO8NZ3VGBRIC9IJX0","A1E3N1Y6XG1898","3I7KR83SNAZT1REYB2SRC49PCEEK9H","","null","<img src=""img/flower4.png"" style=""width:200px; border:14px solid green;"">","null","","","","","","","","",""
"","image-keyboard-response","38","59924","0.0-38.0","3A7Y0R2P2PAQDNO8NZ3VGBRIC9IJX0","A1E3N1Y6XG1898","3I7KR83SNAZT1REYB2SRC49PCEEK9H","","926.0999999940395","img/flower6.png","75","926.9000000059605","2","1","1","2","1,0,0,1,1,0,1,0,1","0,1,0,0,1,1,1,1,0","3",""
"","html-keyboard-response","39","60228","0.0-39.0","3A7Y0R2P2PAQDNO8NZ3VGBRIC9IJX0","A1E3N1Y6XG1898","3I7KR83SNAZT1REYB2SRC49PCEEK9H","","null","<img src=""img/flower6.png"" style=""width:200px; border:14px solid green;"">","null","","","","","","","","",""
"","image-keyboard-response","40","60866","0.0-40.0","3A7Y0R2P2PAQDNO8NZ3VGBRIC9IJX0","A1E3N1Y6XG1898","3I7KR83SNAZT1REYB2SRC49PCEEK9H","","636.8999999910593","img/flower6.png","75","637.5","2","1","1","2","1,0,0,1,1,0,1,0,1","0,1,0,0,1,1,1,1,0","3",""
"","html-keyboard-response","41","61168","0.0-41.0","3A7Y0R2P2PAQDNO8NZ3VGBRIC9IJX0","A1E3N1Y6XG1898","3I7KR83SNAZT1REYB2SRC49PCEEK9H","","null","<img src=""img/flower6.png"" style=""width:200px; border:14px solid green;"">","null","","","","","","","","",""
"","image-keyboard-response","42","61860","0.0-42.0","3A7Y0R2P2PAQDNO8NZ3VGBRIC9IJX0","A1E3N1Y6XG1898","3I7KR83SNAZT1REYB2SRC49PCEEK9H","","691.6000000089407","img/flower4.png","74","692.3000000119209","1","1","3","2","1,0,0,1,1,0,1,0,1","0,1,0,0,1,1,1,1,0","3",""
"","html-keyboard-response","43","62162","0.0-43.0","3A7Y0R2P2PAQDNO8NZ3VGBRIC9IJX0","A1E3N1Y6XG1898","3I7KR83SNAZT1REYB2SRC49PCEEK9H","","null","<img src=""img/flower4.png"" style=""width:200px; border:14px solid green;"">","null","","","","","","","","",""
"","image-keyboard-response","44","62899","0.0-44.0","3A7Y0R2P2PAQDNO8NZ3VGBRIC9IJX0","A1E3N1Y6XG1898","3I7KR83SNAZT1REYB2SRC49PCEEK9H","","736","img/flower4.png","74","736.5","1","1","3","2","1,0,0,1,1,0,1,0,1","0,1,0,0,1,1,1,1,0","3",""
"","html-keyboard-response","45","63201","0.0-45.0","3A7Y0R2P2PAQDNO8NZ3VGBRIC9IJX0","A1E3N1Y6XG1898","3I7KR83SNAZT1REYB2SRC49PCEEK9H","","null","<img src=""img/flower4.png"" style=""width:200px; border:14px solid green;"">","null","","","","","","","","",""
"","image-keyboard-response","46","63717","0.0-46.0","3A7Y0R2P2PAQDNO8NZ3VGBRIC9IJX0","A1E3N1Y6XG1898","3I7KR83SNAZT1REYB2SRC49PCEEK9H","","514","img/flower6.png","75","514.5","2","1","1","2","1,0,0,1,1,0,1,0,1","0,1,0,0,1,1,1,1,0","3",""
"","html-keyboard-response","47","64018","0.0-47.0","3A7Y0R2P2PAQDNO8NZ3VGBRIC9IJX0","A1E3N1Y6XG1898","3I7KR83SNAZT1REYB2SRC49PCEEK9H","","null","<img src=""img/flower6.png"" style=""width:200px; border:14px solid green;"">","null","","","","","","","","",""
"","image-keyboard-response","48","64645","0.0-48.0","3A7Y0R2P2PAQDNO8NZ3VGBRIC9IJX0","A1E3N1Y6XG1898","3I7KR83SNAZT1REYB2SRC49PCEEK9H","","625.7000000029802","img/flower6.png","75","626.4000000059605","2","1","1","2","1,0,0,1,1,0,1,0,1","0,1,0,0,1,1,1,1,0","3",""
"","html-keyboard-response","49","64947","0.0-49.0","3A7Y0R2P2PAQDNO8NZ3VGBRIC9IJX0","A1E3N1Y6XG1898","3I7KR83SNAZT1REYB2SRC49PCEEK9H","","null","<img src=""img/flower6.png"" style=""width:200px; border:14px solid green;"">","null","","","","","","","","",""
"","image-keyboard-response","50","65602","0.0-50.0","3A7Y0R2P2PAQDNO8NZ3VGBRIC9IJX0","A1E3N1Y6XG1898","3I7KR83SNAZT1REYB2SRC49PCEEK9H","","654.1000000089407","img/flower2.png","76","654.6999999880791","3","1","2","2","1,0,0,1,1,0,1,0,1","0,1,0,0,1,1,1,1,0","3",""
"","html-keyboard-response","51","65903","0.0-51.0","3A7Y0R2P2PAQDNO8NZ3VGBRIC9IJX0","A1E3N1Y6XG1898","3I7KR83SNAZT1REYB2SRC49PCEEK9H","","null","<img src=""img/flower2.png"" style=""width:200px; border:14px solid green;"">","null","","","","","","","","",""
"","image-keyboard-response","52","66670","0.0-52.0","3A7Y0R2P2PAQDNO8NZ3VGBRIC9IJX0","A1E3N1Y6XG1898","3I7KR83SNAZT1REYB2SRC49PCEEK9H","","766.5","img/flower4.png","74","767","1","1","3","2","1,0,0,1,1,0,1,0,1","0,1,0,0,1,1,1,1,0","3",""
"","html-keyboard-response","53","66975","0.0-53.0","3A7Y0R2P2PAQDNO8NZ3VGBRIC9IJX0","A1E3N1Y6XG1898","3I7KR83SNAZT1REYB2SRC49PCEEK9H","","null","<img src=""img/flower4.png"" style=""width:200px; border:14px solid green;"">","null","","","","","","","","",""
"","image-keyboard-response","54","67686","0.0-54.0","3A7Y0R2P2PAQDNO8NZ3VGBRIC9IJX0","A1E3N1Y6XG1898","3I7KR83SNAZT1REYB2SRC49PCEEK9H","","709.8999999910593","img/flower6.png","75","710.2999999970198","2","1","1","2","1,0,0,1,1,0,1,0,1","0,1,0,0,1,1,1,1,0","3",""
"","html-keyboard-response","55","67987","0.0-55.0","3A7Y0R2P2PAQDNO8NZ3VGBRIC9IJX0","A1E3N1Y6XG1898","3I7KR83SNAZT1REYB2SRC49PCEEK9H","","null","<img src=""img/flower6.png"" style=""width:200px; border:14px solid green;"">","null","","","","","","","","",""
"","image-keyboard-response","56","68571","0.0-56.0","3A7Y0R2P2PAQDNO8NZ3VGBRIC9IJX0","A1E3N1Y6XG1898","3I7KR83SNAZT1REYB2SRC49PCEEK9H","","583","img/flower6.png","75","583.4000000059605","2","1","1","2","1,0,0,1,1,0,1,0,1","0,1,0,0,1,1,1,1,0","3",""
"","html-keyboard-response","57","68873","0.0-57.0","3A7Y0R2P2PAQDNO8NZ3VGBRIC9IJX0","A1E3N1Y6XG1898","3I7KR83SNAZT1REYB2SRC49PCEEK9H","","null","<img src=""img/flower6.png"" style=""width:200px; border:14px solid green;"">","null","","","","","","","","",""
"","image-keyboard-response","58","69519","0.0-58.0","3A7Y0R2P2PAQDNO8NZ3VGBRIC9IJX0","A1E3N1Y6XG1898","3I7KR83SNAZT1REYB2SRC49PCEEK9H","","645.6000000089407","img/flower2.png","76","646.2000000029802","3","1","2","2","1,0,0,1,1,0,1,0,1","0,1,0,0,1,1,1,1,0","3",""
"","html-keyboard-response","59","69824","0.0-59.0","3A7Y0R2P2PAQDNO8NZ3VGBRIC9IJX0","A1E3N1Y6XG1898","3I7KR83SNAZT1REYB2SRC49PCEEK9H","","null","<img src=""img/flower2.png"" style=""width:200px; border:14px solid green;"">","null","","","","","","","","",""
"","image-keyboard-response","60","70388","0.0-60.0","3A7Y0R2P2PAQDNO8NZ3VGBRIC9IJX0","A1E3N1Y6XG1898","3I7KR83SNAZT1REYB2SRC49PCEEK9H","","563.8000000119209","img/flower2.png","76","564.5","3","1","2","2","1,0,0,1,1,0,1,0,1","0,1,0,0,1,1,1,1,0","3",""
"","html-keyboard-response","61","70693","0.0-61.0","3A7Y0R2P2PAQDNO8NZ3VGBRIC9IJX0","A1E3N1Y6XG1898","3I7KR83SNAZT1REYB2SRC49PCEEK9H","","null","<img src=""img/flower2.png"" style=""width:200px; border:14px solid green;"">","null","","","","","","","","",""
"","image-keyboard-response","62","71233","0.0-62.0","3A7Y0R2P2PAQDNO8NZ3VGBRIC9IJX0","A1E3N1Y6XG1898","3I7KR83SNAZT1REYB2SRC49PCEEK9H","","538.9000000059605","img/flower4.png","74","539.5","1","1","3","2","1,0,0,1,1,0,1,0,1","0,1,0,0,1,1,1,1,0","3",""
"","html-keyboard-response","63","71538","0.0-63.0","3A7Y0R2P2PAQDNO8NZ3VGBRIC9IJX0","A1E3N1Y6XG1898","3I7KR83SNAZT1REYB2SRC49PCEEK9H","","null","<img src=""img/flower4.png"" style=""width:200px; border:14px solid green;"">","null","","","","","","","","",""
"","image-keyboard-response","64","72177","0.0-64.0","3A7Y0R2P2PAQDNO8NZ3VGBRIC9IJX0","A1E3N1Y6XG1898","3I7KR83SNAZT1REYB2SRC49PCEEK9H","","638.2000000029802","img/flower6.png","75","638.7000000029802","2","1","1","2","1,0,0,1,1,0,1,0,1","0,1,0,0,1,1,1,1,0","3",""
"","html-keyboard-response","65","72480","0.0-65.0","3A7Y0R2P2PAQDNO8NZ3VGBRIC9IJX0","A1E3N1Y6XG1898","3I7KR83SNAZT1REYB2SRC49PCEEK9H","","null","<img src=""img/flower6.png"" style=""width:200px; border:14px solid green;"">","null","","","","","","","","",""
"","image-keyboard-response","66","73093","0.0-66.0","3A7Y0R2P2PAQDNO8NZ3VGBRIC9IJX0","A1E3N1Y6XG1898","3I7KR83SNAZT1REYB2SRC49PCEEK9H","","611.7999999970198","img/flower4.png","74","612.6000000089407","1","1","3","2","1,0,0,1,1,0,1,0,1","0,1,0,0,1,1,1,1,0","3",""
"","html-keyboard-response","67","73395","0.0-67.0","3A7Y0R2P2PAQDNO8NZ3VGBRIC9IJX0","A1E3N1Y6XG1898","3I7KR83SNAZT1REYB2SRC49PCEEK9H","","null","<img src=""img/flower4.png"" style=""width:200px; border:14px solid green;"">","null","","","","","","","","",""
"","image-keyboard-response","68","73997","0.0-68.0","3A7Y0R2P2PAQDNO8NZ3VGBRIC9IJX0","A1E3N1Y6XG1898","3I7KR83SNAZT1REYB2SRC49PCEEK9H","","601.2000000029802","img/flower2.png","76","601.7999999970198","3","1","2","2","1,0,0,1,1,0,1,0,1","0,1,0,0,1,1,1,1,0","3",""
"","html-keyboard-response","69","74302","0.0-69.0","3A7Y0R2P2PAQDNO8NZ3VGBRIC9IJX0","A1E3N1Y6XG1898","3I7KR83SNAZT1REYB2SRC49PCEEK9H","","null","<img src=""img/flower2.png"" style=""width:200px; border:14px solid green;"">","null","","","","","","","","",""
"","image-keyboard-response","70","74797","0.0-70.0","3A7Y0R2P2PAQDNO8NZ3VGBRIC9IJX0","A1E3N1Y6XG1898","3I7KR83SNAZT1REYB2SRC49PCEEK9H","","494.29999999701977","img/flower2.png","76","495","3","1","2","2","1,0,0,1,1,0,1,0,1","0,1,0,0,1,1,1,1,0","3",""
"","html-keyboard-response","71","75102","0.0-71.0","3A7Y0R2P2PAQDNO8NZ3VGBRIC9IJX0","A1E3N1Y6XG1898","3I7KR83SNAZT1REYB2SRC49PCEEK9H","","null","<img src=""img/flower2.png"" style=""width:200px; border:14px solid green;"">","null","","","","","","","","",""
"","image-keyboard-response","72","75723","0.0-72.0","3A7Y0R2P2PAQDNO8NZ3VGBRIC9IJX0","A1E3N1Y6XG1898","3I7KR83SNAZT1REYB2SRC49PCEEK9H","","620.0999999940395","img/flower4.png","74","620.8999999910593","1","1","3","2","1,0,0,1,1,0,1,0,1","0,1,0,0,1,1,1,1,0","3",""
"","html-keyboard-response","73","76028","0.0-73.0","3A7Y0R2P2PAQDNO8NZ3VGBRIC9IJX0","A1E3N1Y6XG1898","3I7KR83SNAZT1REYB2SRC49PCEEK9H","","null","<img src=""img/flower4.png"" style=""width:200px; border:14px solid green;"">","null","","","","","","","","",""
"","image-keyboard-response","74","76609","0.0-74.0","3A7Y0R2P2PAQDNO8NZ3VGBRIC9IJX0","A1E3N1Y6XG1898","3I7KR83SNAZT1REYB2SRC49PCEEK9H","","580.5999999940395","img/flower4.png","74","581.2999999970198","1","1","3","2","1,0,0,1,1,0,1,0,1","0,1,0,0,1,1,1,1,0","3",""
"","html-keyboard-response","75","76913","0.0-75.0","3A7Y0R2P2PAQDNO8NZ3VGBRIC9IJX0","A1E3N1Y6XG1898","3I7KR83SNAZT1REYB2SRC49PCEEK9H","","null","<img src=""img/flower4.png"" style=""width:200px; border:14px solid green;"">","null","","","","","","","","",""
"","image-keyboard-response","76","77765","0.0-76.0","3A7Y0R2P2PAQDNO8NZ3VGBRIC9IJX0","A1E3N1Y6XG1898","3I7KR83SNAZT1REYB2SRC49PCEEK9H","","851.8000000119209","img/flower2.png","76","852.2999999970198","3","1","2","2","1,0,0,1,1,0,1,0,1","0,1,0,0,1,1,1,1,0","3",""
"","html-keyboard-response","77","78067","0.0-77.0","3A7Y0R2P2PAQDNO8NZ3VGBRIC9IJX0","A1E3N1Y6XG1898","3I7KR83SNAZT1REYB2SRC49PCEEK9H","","null","<img src=""img/flower2.png"" style=""width:200px; border:14px solid green;"">","null","","","","","","","","",""
"","image-keyboard-response","78","78588","0.0-78.0","3A7Y0R2P2PAQDNO8NZ3VGBRIC9IJX0","A1E3N1Y6XG1898","3I7KR83SNAZT1REYB2SRC49PCEEK9H","","519.7000000029802","img/flower2.png","76","520.2999999970198","3","1","2","2","1,0,0,1,1,0,1,0,1","0,1,0,0,1,1,1,1,0","3",""
"","html-keyboard-response","79","78890","0.0-79.0","3A7Y0R2P2PAQDNO8NZ3VGBRIC9IJX0","A1E3N1Y6XG1898","3I7KR83SNAZT1REYB2SRC49PCEEK9H","","null","<img src=""img/flower2.png"" style=""width:200px; border:14px solid green;"">","null","","","","","","","","",""
"","image-keyboard-response","80","79500","0.0-80.0","3A7Y0R2P2PAQDNO8NZ3VGBRIC9IJX0","A1E3N1Y6XG1898","3I7KR83SNAZT1REYB2SRC49PCEEK9H","","609.7999999970198","img/flower6.png","75","610.4000000059605","2","1","1","2","1,0,0,1,1,0,1,0,1","0,1,0,0,1,1,1,1,0","3",""
"","html-keyboard-response","81","79801","0.0-81.0","3A7Y0R2P2PAQDNO8NZ3VGBRIC9IJX0","A1E3N1Y6XG1898","3I7KR83SNAZT1REYB2SRC49PCEEK9H","","null","<img src=""img/flower6.png"" style=""width:200px; border:14px solid green;"">","null","","","","","","","","",""
"","image-keyboard-response","82","80404","0.0-82.0","3A7Y0R2P2PAQDNO8NZ3VGBRIC9IJX0","A1E3N1Y6XG1898","3I7KR83SNAZT1REYB2SRC49PCEEK9H","","601.7999999970198","img/flower4.png","74","602.5","1","1","3","2","1,0,0,1,1,0,1,0,1","0,1,0,0,1,1,1,1,0","3",""
"","html-keyboard-response","83","80706","0.0-83.0","3A7Y0R2P2PAQDNO8NZ3VGBRIC9IJX0","A1E3N1Y6XG1898","3I7KR83SNAZT1REYB2SRC49PCEEK9H","","null","<img src=""img/flower4.png"" style=""width:200px; border:14px solid green;"">","null","","","","","","","","",""
"","image-keyboard-response","84","81274","0.0-84.0","3A7Y0R2P2PAQDNO8NZ3VGBRIC9IJX0","A1E3N1Y6XG1898","3I7KR83SNAZT1REYB2SRC49PCEEK9H","","566.9000000059605","img/flower6.png","75","567.5999999940395","2","1","1","2","1,0,0,1,1,0,1,0,1","0,1,0,0,1,1,1,1,0","3",""
"","html-keyboard-response","85","81578","0.0-85.0","3A7Y0R2P2PAQDNO8NZ3VGBRIC9IJX0","A1E3N1Y6XG1898","3I7KR83SNAZT1REYB2SRC49PCEEK9H","","null","<img src=""img/flower6.png"" style=""width:200px; border:14px solid green;"">","null","","","","","","","","",""
"","image-keyboard-response","86","82114","0.0-86.0","3A7Y0R2P2PAQDNO8NZ3VGBRIC9IJX0","A1E3N1Y6XG1898","3I7KR83SNAZT1REYB2SRC49PCEEK9H","","534.3999999910593","img/flower6.png","75","535.0999999940395","2","1","1","2","1,0,0,1,1,0,1,0,1","0,1,0,0,1,1,1,1,0","3",""
"","html-keyboard-response","87","82416","0.0-87.0","3A7Y0R2P2PAQDNO8NZ3VGBRIC9IJX0","A1E3N1Y6XG1898","3I7KR83SNAZT1REYB2SRC49PCEEK9H","","null","<img src=""img/flower6.png"" style=""width:200px; border:14px solid green;"">","null","","","","","","","","",""
"","image-keyboard-response","88","82900","0.0-88.0","3A7Y0R2P2PAQDNO8NZ3VGBRIC9IJX0","A1E3N1Y6XG1898","3I7KR83SNAZT1REYB2SRC49PCEEK9H","","482.1000000089407","img/flower6.png","75","483","2","1","1","2","1,0,0,1,1,0,1,0,1","0,1,0,0,1,1,1,1,0","3",""
"","html-keyboard-response","89","83204","0.0-89.0","3A7Y0R2P2PAQDNO8NZ3VGBRIC9IJX0","A1E3N1Y6XG1898","3I7KR83SNAZT1REYB2SRC49PCEEK9H","","null","<img src=""img/flower6.png"" style=""width:200px; border:14px solid green;"">","null","","","","","","","","",""
"","image-keyboard-response","90","83773","0.0-90.0","3A7Y0R2P2PAQDNO8NZ3VGBRIC9IJX0","A1E3N1Y6XG1898","3I7KR83SNAZT1REYB2SRC49PCEEK9H","","567.2999999970198","img/flower2.png","76","568.0999999940395","3","1","2","2","1,0,0,1,1,0,1,0,1","0,1,0,0,1,1,1,1,0","3",""
"","html-keyboard-response","91","84075","0.0-91.0","3A7Y0R2P2PAQDNO8NZ3VGBRIC9IJX0","A1E3N1Y6XG1898","3I7KR83SNAZT1REYB2SRC49PCEEK9H","","null","<img src=""img/flower2.png"" style=""width:200px; border:14px solid green;"">","null","","","","","","","","",""
"","image-keyboard-response","92","84641","0.0-92.0","3A7Y0R2P2PAQDNO8NZ3VGBRIC9IJX0","A1E3N1Y6XG1898","3I7KR83SNAZT1REYB2SRC49PCEEK9H","","565.4000000059605","img/flower2.png","76","565.8999999910593","3","1","2","2","1,0,0,1,1,0,1,0,1","0,1,0,0,1,1,1,1,0","3",""
"","html-keyboard-response","93","84946","0.0-93.0","3A7Y0R2P2PAQDNO8NZ3VGBRIC9IJX0","A1E3N1Y6XG1898","3I7KR83SNAZT1REYB2SRC49PCEEK9H","","null","<img src=""img/flower2.png"" style=""width:200px; border:14px solid green;"">","null","","","","","","","","",""
"","image-keyboard-response","94","85501","0.0-94.0","3A7Y0R2P2PAQDNO8NZ3VGBRIC9IJX0","A1E3N1Y6XG1898","3I7KR83SNAZT1REYB2SRC49PCEEK9H","","554.5999999940395","img/flower2.png","76","555.1000000089407","3","1","2","2","1,0,0,1,1,0,1,0,1","0,1,0,0,1,1,1,1,0","3",""
"","html-keyboard-response","95","85802","0.0-95.0","3A7Y0R2P2PAQDNO8NZ3VGBRIC9IJX0","A1E3N1Y6XG1898","3I7KR83SNAZT1REYB2SRC49PCEEK9H","","null","<img src=""img/flower2.png"" style=""width:200px; border:14px solid green;"">","null","","","","","","","","",""
"","image-keyboard-response","96","86332","0.0-96.0","3A7Y0R2P2PAQDNO8NZ3VGBRIC9IJX0","A1E3N1Y6XG1898","3I7KR83SNAZT1REYB2SRC49PCEEK9H","","529.7000000029802","img/flower4.png","74","530.1000000089407","1","1","3","2","1,0,0,1,1,0,1,0,1","0,1,0,0,1,1,1,1,0","3",""
"","html-keyboard-response","97","86634","0.0-97.0","3A7Y0R2P2PAQDNO8NZ3VGBRIC9IJX0","A1E3N1Y6XG1898","3I7KR83SNAZT1REYB2SRC49PCEEK9H","","null","<img src=""img/flower4.png"" style=""width:200px; border:14px solid green;"">","null","","","","","","","","",""
"","image-keyboard-response","98","87197","0.0-98.0","3A7Y0R2P2PAQDNO8NZ3VGBRIC9IJX0","A1E3N1Y6XG1898","3I7KR83SNAZT1REYB2SRC49PCEEK9H","","561.5","img/flower4.png","74","562.2000000029802","1","1","3","2","1,0,0,1,1,0,1,0,1","0,1,0,0,1,1,1,1,0","3",""
"","html-keyboard-response","99","87498","0.0-99.0","3A7Y0R2P2PAQDNO8NZ3VGBRIC9IJX0","A1E3N1Y6XG1898","3I7KR83SNAZT1REYB2SRC49PCEEK9H","","null","<img src=""img/flower4.png"" style=""width:200px; border:14px solid green;"">","null","","","","","","","","",""
"","image-keyboard-response","100","88142","0.0-100.0","3A7Y0R2P2PAQDNO8NZ3VGBRIC9IJX0","A1E3N1Y6XG1898","3I7KR83SNAZT1REYB2SRC49PCEEK9H","","643.4000000059605","img/flower2.png","76","644","3","1","2","2","1,0,0,1,1,0,1,0,1","0,1,0,0,1,1,1,1,0","3",""
"","html-keyboard-response","101","88444","0.0-101.0","3A7Y0R2P2PAQDNO8NZ3VGBRIC9IJX0","A1E3N1Y6XG1898","3I7KR83SNAZT1REYB2SRC49PCEEK9H","","null","<img src=""img/flower2.png"" style=""width:200px; border:14px solid green;"">","null","","","","","","","","",""
"","image-keyboard-response","102","89034","0.0-102.0","3A7Y0R2P2PAQDNO8NZ3VGBRIC9IJX0","A1E3N1Y6XG1898","3I7KR83SNAZT1REYB2SRC49PCEEK9H","","588.7999999970198","img/flower6.png","75","589.2999999970198","2","1","1","2","1,0,0,1,1,0,1,0,1","0,1,0,0,1,1,1,1,0","3",""
"","html-keyboard-response","103","89336","0.0-103.0","3A7Y0R2P2PAQDNO8NZ3VGBRIC9IJX0","A1E3N1Y6XG1898","3I7KR83SNAZT1REYB2SRC49PCEEK9H","","null","<img src=""img/flower6.png"" style=""width:200px; border:14px solid green;"">","null","","","","","","","","",""
"","image-keyboard-response","104","90129","0.0-104.0","3A7Y0R2P2PAQDNO8NZ3VGBRIC9IJX0","A1E3N1Y6XG1898","3I7KR83SNAZT1REYB2SRC49PCEEK9H","","792.4000000059605","img/flower2.png","76","793.0999999940395","3","1","2","2","1,0,0,1,1,0,1,0,1","0,1,0,0,1,1,1,1,0","3",""
"","html-keyboard-response","105","90431","0.0-105.0","3A7Y0R2P2PAQDNO8NZ3VGBRIC9IJX0","A1E3N1Y6XG1898","3I7KR83SNAZT1REYB2SRC49PCEEK9H","","null","<img src=""img/flower2.png"" style=""width:200px; border:14px solid green;"">","null","","","","","","","","",""
"","image-keyboard-response","106","91021","0.0-106.0","3A7Y0R2P2PAQDNO8NZ3VGBRIC9IJX0","A1E3N1Y6XG1898","3I7KR83SNAZT1REYB2SRC49PCEEK9H","","589.6000000089407","img/flower6.png","75","591.0999999940395","2","1","1","2","1,0,0,1,1,0,1,0,1","0,1,0,0,1,1,1,1,0","3",""
"","html-keyboard-response","107","91324","0.0-107.0","3A7Y0R2P2PAQDNO8NZ3VGBRIC9IJX0","A1E3N1Y6XG1898","3I7KR83SNAZT1REYB2SRC49PCEEK9H","","null","<img src=""img/flower6.png"" style=""width:200px; border:14px solid green;"">","null","","","","","","","","",""
"","image-keyboard-response","108","91865","0.0-108.0","3A7Y0R2P2PAQDNO8NZ3VGBRIC9IJX0","A1E3N1Y6XG1898","3I7KR83SNAZT1REYB2SRC49PCEEK9H","","539.1000000089407","img/flower4.png","74","539.7999999970198","1","1","3","2","1,0,0,1,1,0,1,0,1","0,1,0,0,1,1,1,1,0","3",""
"","html-keyboard-response","109","92166","0.0-109.0","3A7Y0R2P2PAQDNO8NZ3VGBRIC9IJX0","A1E3N1Y6XG1898","3I7KR83SNAZT1REYB2SRC49PCEEK9H","","null","<img src=""img/flower4.png"" style=""width:200px; border:14px solid green;"">","null","","","","","","","","",""
"","image-keyboard-response","110","92728","0.0-110.0","3A7Y0R2P2PAQDNO8NZ3VGBRIC9IJX0","A1E3N1Y6XG1898","3I7KR83SNAZT1REYB2SRC49PCEEK9H","","561","img/flower4.png","74","561.7000000029802","1","1","3","2","1,0,0,1,1,0,1,0,1","0,1,0,0,1,1,1,1,0","3",""
"","html-keyboard-response","111","93032","0.0-111.0","3A7Y0R2P2PAQDNO8NZ3VGBRIC9IJX0","A1E3N1Y6XG1898","3I7KR83SNAZT1REYB2SRC49PCEEK9H","","null","<img src=""img/flower4.png"" style=""width:200px; border:14px solid green;"">","null","","","","","","","","",""
"","image-keyboard-response","112","93573","0.0-112.0","3A7Y0R2P2PAQDNO8NZ3VGBRIC9IJX0","A1E3N1Y6XG1898","3I7KR83SNAZT1REYB2SRC49PCEEK9H","","540.0999999940395","img/flower4.png","74","540.7999999970198","1","1","3","2","1,0,0,1,1,0,1,0,1","0,1,0,0,1,1,1,1,0","3",""
"","html-keyboard-response","113","93874","0.0-113.0","3A7Y0R2P2PAQDNO8NZ3VGBRIC9IJX0","A1E3N1Y6XG1898","3I7KR83SNAZT1REYB2SRC49PCEEK9H","","null","<img src=""img/flower4.png"" style=""width:200px; border:14px solid green;"">","null","","","","","","","","",""
"","image-keyboard-response","114","94455","0.0-114.0","3A7Y0R2P2PAQDNO8NZ3VGBRIC9IJX0","A1E3N1Y6XG1898","3I7KR83SNAZT1REYB2SRC49PCEEK9H","","580.2000000029802","img/flower6.png","75","580.7999999970198","2","1","1","2","1,0,0,1,1,0,1,0,1","0,1,0,0,1,1,1,1,0","3",""
"","html-keyboard-response","115","94758","0.0-115.0","3A7Y0R2P2PAQDNO8NZ3VGBRIC9IJX0","A1E3N1Y6XG1898","3I7KR83SNAZT1REYB2SRC49PCEEK9H","","null","<img src=""img/flower6.png"" style=""width:200px; border:14px solid green;"">","null","","","","","","","","",""
"","image-keyboard-response","116","95360","0.0-116.0","3A7Y0R2P2PAQDNO8NZ3VGBRIC9IJX0","A1E3N1Y6XG1898","3I7KR83SNAZT1REYB2SRC49PCEEK9H","","600.7999999970198","img/flower2.png","76","601.7000000029802","3","1","2","2","1,0,0,1,1,0,1,0,1","0,1,0,0,1,1,1,1,0","3",""
"","html-keyboard-response","117","95661","0.0-117.0","3A7Y0R2P2PAQDNO8NZ3VGBRIC9IJX0","A1E3N1Y6XG1898","3I7KR83SNAZT1REYB2SRC49PCEEK9H","","null","<img src=""img/flower2.png"" style=""width:200px; border:14px solid green;"">","null","","","","","","","","",""
"","image-keyboard-response","118","96273","0.0-118.0","3A7Y0R2P2PAQDNO8NZ3VGBRIC9IJX0","A1E3N1Y6XG1898","3I7KR83SNAZT1REYB2SRC49PCEEK9H","","610.7999999970198","img/flower2.png","76","611.4000000059605","3","1","2","2","1,0,0,1,1,0,1,0,1","0,1,0,0,1,1,1,1,0","3",""
"","html-keyboard-response","119","96574","0.0-119.0","3A7Y0R2P2PAQDNO8NZ3VGBRIC9IJX0","A1E3N1Y6XG1898","3I7KR83SNAZT1REYB2SRC49PCEEK9H","","null","<img src=""img/flower2.png"" style=""width:200px; border:14px solid green;"">","null","","","","","","","","",""
"","image-keyboard-response","120","97405","0.0-120.0","3A7Y0R2P2PAQDNO8NZ3VGBRIC9IJX0","A1E3N1Y6XG1898","3I7KR83SNAZT1REYB2SRC49PCEEK9H","","829.5999999940395","img/flower6.png","75","830.1000000089407","2","1","1","2","1,0,0,1,1,0,1,0,1","0,1,0,0,1,1,1,1,0","3",""
"","html-keyboard-response","121","97707","0.0-121.0","3A7Y0R2P2PAQDNO8NZ3VGBRIC9IJX0","A1E3N1Y6XG1898","3I7KR83SNAZT1REYB2SRC49PCEEK9H","","null","<img src=""img/flower6.png"" style=""width:200px; border:14px solid green;"">","null","","","","","","","","",""
"","image-keyboard-response","122","98288","0.0-122.0","3A7Y0R2P2PAQDNO8NZ3VGBRIC9IJX0","A1E3N1Y6XG1898","3I7KR83SNAZT1REYB2SRC49PCEEK9H","","579.3999999910593","img/flower6.png","75","580","2","1","1","2","1,0,0,1,1,0,1,0,1","0,1,0,0,1,1,1,1,0","3",""
"","html-keyboard-response","123","98591","0.0-123.0","3A7Y0R2P2PAQDNO8NZ3VGBRIC9IJX0","A1E3N1Y6XG1898","3I7KR83SNAZT1REYB2SRC49PCEEK9H","","null","<img src=""img/flower6.png"" style=""width:200px; border:14px solid green;"">","null","","","","","","","","",""
"","image-keyboard-response","124","99045","0.0-124.0","3A7Y0R2P2PAQDNO8NZ3VGBRIC9IJX0","A1E3N1Y6XG1898","3I7KR83SNAZT1REYB2SRC49PCEEK9H","","452.70000000298023","img/flower4.png","74","453.19999998807907","1","1","3","2","1,0,0,1,1,0,1,0,1","0,1,0,0,1,1,1,1,0","3",""
"","html-keyboard-response","125","99349","0.0-125.0","3A7Y0R2P2PAQDNO8NZ3VGBRIC9IJX0","A1E3N1Y6XG1898","3I7KR83SNAZT1REYB2SRC49PCEEK9H","","null","<img src=""img/flower4.png"" style=""width:200px; border:14px solid green;"">","null","","","","","","","","",""
"","image-keyboard-response","126","99987","0.0-126.0","3A7Y0R2P2PAQDNO8NZ3VGBRIC9IJX0","A1E3N1Y6XG1898","3I7KR83SNAZT1REYB2SRC49PCEEK9H","","637.2000000029802","img/flower6.png","75","637.9000000059605","2","1","1","2","1,0,0,1,1,0,1,0,1","0,1,0,0,1,1,1,1,0","3",""
"","html-keyboard-response","127","100289","0.0-127.0","3A7Y0R2P2PAQDNO8NZ3VGBRIC9IJX0","A1E3N1Y6XG1898","3I7KR83SNAZT1REYB2SRC49PCEEK9H","","null","<img src=""img/flower6.png"" style=""width:200px; border:14px solid green;"">","null","","","","","","","","",""
"","image-keyboard-response","128","100757","0.0-128.0","3A7Y0R2P2PAQDNO8NZ3VGBRIC9IJX0","A1E3N1Y6XG1898","3I7KR83SNAZT1REYB2SRC49PCEEK9H","","466.6000000089407","img/flower2.png","76","467.5","3","1","2","2","1,0,0,1,1,0,1,0,1","0,1,0,0,1,1,1,1,0","3",""
"","html-keyboard-response","129","101058","0.0-129.0","3A7Y0R2P2PAQDNO8NZ3VGBRIC9IJX0","A1E3N1Y6XG1898","3I7KR83SNAZT1REYB2SRC49PCEEK9H","","null","<img src=""img/flower2.png"" style=""width:200px; border:14px solid green;"">","null","","","","","","","","",""
"","image-keyboard-response","130","101555","0.0-130.0","3A7Y0R2P2PAQDNO8NZ3VGBRIC9IJX0","A1E3N1Y6XG1898","3I7KR83SNAZT1REYB2SRC49PCEEK9H","","495.29999999701977","img/flower6.png","75","495.8999999910593","2","1","1","2","1,0,0,1,1,0,1,0,1","0,1,0,0,1,1,1,1,0","3",""
"","html-keyboard-response","131","101860","0.0-131.0","3A7Y0R2P2PAQDNO8NZ3VGBRIC9IJX0","A1E3N1Y6XG1898","3I7KR83SNAZT1REYB2SRC49PCEEK9H","","null","<img src=""img/flower6.png"" style=""width:200px; border:14px solid green;"">","null","","","","","","","","",""
"","image-keyboard-response","132","102557","0.0-132.0","3A7Y0R2P2PAQDNO8NZ3VGBRIC9IJX0","A1E3N1Y6XG1898","3I7KR83SNAZT1REYB2SRC49PCEEK9H","","695.9000000059605","img/flower2.png","76","696.4000000059605","3","1","2","2","1,0,0,1,1,0,1,0,1","0,1,0,0,1,1,1,1,0","3",""
"","html-keyboard-response","133","102858","0.0-133.0","3A7Y0R2P2PAQDNO8NZ3VGBRIC9IJX0","A1E3N1Y6XG1898","3I7KR83SNAZT1REYB2SRC49PCEEK9H","","null","<img src=""img/flower2.png"" style=""width:200px; border:14px solid green;"">","null","","","","","","","","",""
"","image-keyboard-response","134","103390","0.0-134.0","3A7Y0R2P2PAQDNO8NZ3VGBRIC9IJX0","A1E3N1Y6XG1898","3I7KR83SNAZT1REYB2SRC49PCEEK9H","","530.5999999940395","img/flower4.png","74","531.3999999910593","1","1","3","2","1,0,0,1,1,0,1,0,1","0,1,0,0,1,1,1,1,0","3",""
"","html-keyboard-response","135","103694","0.0-135.0","3A7Y0R2P2PAQDNO8NZ3VGBRIC9IJX0","A1E3N1Y6XG1898","3I7KR83SNAZT1REYB2SRC49PCEEK9H","","null","<img src=""img/flower4.png"" style=""width:200px; border:14px solid green;"">","null","","","","","","","","",""
"","image-keyboard-response","136","104436","0.0-136.0","3A7Y0R2P2PAQDNO8NZ3VGBRIC9IJX0","A1E3N1Y6XG1898","3I7KR83SNAZT1REYB2SRC49PCEEK9H","","741.5999999940395","img/flower2.png","76","742","3","1","2","2","1,0,0,1,1,0,1,0,1","0,1,0,0,1,1,1,1,0","3",""
"","html-keyboard-response","137","104738","0.0-137.0","3A7Y0R2P2PAQDNO8NZ3VGBRIC9IJX0","A1E3N1Y6XG1898","3I7KR83SNAZT1REYB2SRC49PCEEK9H","","null","<img src=""img/flower2.png"" style=""width:200px; border:14px solid green;"">","null","","","","","","","","",""
"","image-keyboard-response","138","105322","0.0-138.0","3A7Y0R2P2PAQDNO8NZ3VGBRIC9IJX0","A1E3N1Y6XG1898","3I7KR83SNAZT1REYB2SRC49PCEEK9H","","584","img/flower4.png","74","584.5","1","1","3","2","1,0,0,1,1,0,1,0,1","0,1,0,0,1,1,1,1,0","3",""
"","html-keyboard-response","139","105626","0.0-139.0","3A7Y0R2P2PAQDNO8NZ3VGBRIC9IJX0","A1E3N1Y6XG1898","3I7KR83SNAZT1REYB2SRC49PCEEK9H","","null","<img src=""img/flower4.png"" style=""width:200px; border:14px solid green;"">","null","","","","","","","","",""
"","image-keyboard-response","140","106196","0.0-140.0","3A7Y0R2P2PAQDNO8NZ3VGBRIC9IJX0","A1E3N1Y6XG1898","3I7KR83SNAZT1REYB2SRC49PCEEK9H","","569.5999999940395","img/flower2.png","76","570.2000000029802","3","1","2","2","1,0,0,1,1,0,1,0,1","0,1,0,0,1,1,1,1,0","3",""
"","html-keyboard-response","141","106497","0.0-141.0","3A7Y0R2P2PAQDNO8NZ3VGBRIC9IJX0","A1E3N1Y6XG1898","3I7KR83SNAZT1REYB2SRC49PCEEK9H","","null","<img src=""img/flower2.png"" style=""width:200px; border:14px solid green;"">","null","","","","","","","","",""
"","image-keyboard-response","142","107165","0.0-142.0","3A7Y0R2P2PAQDNO8NZ3VGBRIC9IJX0","A1E3N1Y6XG1898","3I7KR83SNAZT1REYB2SRC49PCEEK9H","","667.1000000089407","img/flower6.png","75","667.6000000089407","2","1","1","2","1,0,0,1,1,0,1,0,1","0,1,0,0,1,1,1,1,0","3",""
"","html-keyboard-response","143","107468","0.0-143.0","3A7Y0R2P2PAQDNO8NZ3VGBRIC9IJX0","A1E3N1Y6XG1898","3I7KR83SNAZT1REYB2SRC49PCEEK9H","","null","<img src=""img/flower6.png"" style=""width:200px; border:14px solid green;"">","null","","","","","","","","",""
"","image-keyboard-response","144","108293","0.0-144.0","3A7Y0R2P2PAQDNO8NZ3VGBRIC9IJX0","A1E3N1Y6XG1898","3I7KR83SNAZT1REYB2SRC49PCEEK9H","","824.4000000059605","img/flower2.png","76","825","3","1","2","2","1,0,0,1,1,0,1,0,1","0,1,0,0,1,1,1,1,0","3",""
"","html-keyboard-response","145","108595","0.0-145.0","3A7Y0R2P2PAQDNO8NZ3VGBRIC9IJX0","A1E3N1Y6XG1898","3I7KR83SNAZT1REYB2SRC49PCEEK9H","","null","<img src=""img/flower2.png"" style=""width:200px; border:14px solid green;"">","null","","","","","","","","",""
"","image-keyboard-response","146","109135","0.0-146.0","3A7Y0R2P2PAQDNO8NZ3VGBRIC9IJX0","A1E3N1Y6XG1898","3I7KR83SNAZT1REYB2SRC49PCEEK9H","","538.7999999970198","img/flower4.png","74","539.7000000029802","1","1","3","2","1,0,0,1,1,0,1,0,1","0,1,0,0,1,1,1,1,0","3",""
"","html-keyboard-response","147","109436","0.0-147.0","3A7Y0R2P2PAQDNO8NZ3VGBRIC9IJX0","A1E3N1Y6XG1898","3I7KR83SNAZT1REYB2SRC49PCEEK9H","","null","<img src=""img/flower4.png"" style=""width:200px; border:14px solid green;"">","null","","","","","","","","",""
"","image-keyboard-response","148","109909","0.0-148.0","3A7Y0R2P2PAQDNO8NZ3VGBRIC9IJX0","A1E3N1Y6XG1898","3I7KR83SNAZT1REYB2SRC49PCEEK9H","","472.09999999403954","img/flower4.png","74","472.70000000298023","1","1","3","2","1,0,0,1,1,0,1,0,1","0,1,0,0,1,1,1,1,0","3",""
"","html-keyboard-response","149","110211","0.0-149.0","3A7Y0R2P2PAQDNO8NZ3VGBRIC9IJX0","A1E3N1Y6XG1898","3I7KR83SNAZT1REYB2SRC49PCEEK9H","","null","<img src=""img/flower4.png"" style=""width:200px; border:14px solid green;"">","null","","","","","","","","",""
"","image-keyboard-response","150","110857","0.0-150.0","3A7Y0R2P2PAQDNO8NZ3VGBRIC9IJX0","A1E3N1Y6XG1898","3I7KR83SNAZT1REYB2SRC49PCEEK9H","","645.2999999970198","img/flower6.png","75","646.1000000089407","2","1","1","2","1,0,0,1,1,0,1,0,1","0,1,0,0,1,1,1,1,0","3",""
"","html-keyboard-response","151","111159","0.0-151.0","3A7Y0R2P2PAQDNO8NZ3VGBRIC9IJX0","A1E3N1Y6XG1898","3I7KR83SNAZT1REYB2SRC49PCEEK9H","","null","<img src=""img/flower6.png"" style=""width:200px; border:14px solid green;"">","null","","","","","","","","",""
"","image-keyboard-response","152","111819","0.0-152.0","3A7Y0R2P2PAQDNO8NZ3VGBRIC9IJX0","A1E3N1Y6XG1898","3I7KR83SNAZT1REYB2SRC49PCEEK9H","","658.4000000059605","img/flower4.png","74","659.2000000029802","1","1","3","2","1,0,0,1,1,0,1,0,1","0,1,0,0,1,1,1,1,0","3",""
"","html-keyboard-response","153","112120","0.0-153.0","3A7Y0R2P2PAQDNO8NZ3VGBRIC9IJX0","A1E3N1Y6XG1898","3I7KR83SNAZT1REYB2SRC49PCEEK9H","","null","<img src=""img/flower4.png"" style=""width:200px; border:14px solid green;"">","null","","","","","","","","",""
"","image-keyboard-response","154","112776","0.0-154.0","3A7Y0R2P2PAQDNO8NZ3VGBRIC9IJX0","A1E3N1Y6XG1898","3I7KR83SNAZT1REYB2SRC49PCEEK9H","","655.0999999940395","img/flower4.png","74","655.6000000089407","1","1","3","2","1,0,0,1,1,0,1,0,1","0,1,0,0,1,1,1,1,0","3",""
"","html-keyboard-response","155","113077","0.0-155.0","3A7Y0R2P2PAQDNO8NZ3VGBRIC9IJX0","A1E3N1Y6XG1898","3I7KR83SNAZT1REYB2SRC49PCEEK9H","","null","<img src=""img/flower4.png"" style=""width:200px; border:14px solid green;"">","null","","","","","","","","",""
"","image-keyboard-response","156","113680","0.0-156.0","3A7Y0R2P2PAQDNO8NZ3VGBRIC9IJX0","A1E3N1Y6XG1898","3I7KR83SNAZT1REYB2SRC49PCEEK9H","","602.5999999940395","img/flower6.png","75","603.2000000029802","2","1","1","2","1,0,0,1,1,0,1,0,1","0,1,0,0,1,1,1,1,0","3",""
"","html-keyboard-response","157","113981","0.0-157.0","3A7Y0R2P2PAQDNO8NZ3VGBRIC9IJX0","A1E3N1Y6XG1898","3I7KR83SNAZT1REYB2SRC49PCEEK9H","","null","<img src=""img/flower6.png"" style=""width:200px; border:14px solid green;"">","null","","","","","","","","",""
"","image-keyboard-response","158","114915","0.0-158.0","3A7Y0R2P2PAQDNO8NZ3VGBRIC9IJX0","A1E3N1Y6XG1898","3I7KR83SNAZT1REYB2SRC49PCEEK9H","","932","img/flower2.png","76","932.7999999970198","3","1","2","2","1,0,0,1,1,0,1,0,1","0,1,0,0,1,1,1,1,0","3",""
"","html-keyboard-response","159","115219","0.0-159.0","3A7Y0R2P2PAQDNO8NZ3VGBRIC9IJX0","A1E3N1Y6XG1898","3I7KR83SNAZT1REYB2SRC49PCEEK9H","","null","<img src=""img/flower2.png"" style=""width:200px; border:14px solid green;"">","null","","","","","","","","",""
"","image-keyboard-response","160","115890","0.0-160.0","3A7Y0R2P2PAQDNO8NZ3VGBRIC9IJX0","A1E3N1Y6XG1898","3I7KR83SNAZT1REYB2SRC49PCEEK9H","","670.1000000089407","img/flower4.png","74","670.7999999970198","1","1","3","2","1,0,0,1,1,0,1,0,1","0,1,0,0,1,1,1,1,0","3",""
"","html-keyboard-response","161","116194","0.0-161.0","3A7Y0R2P2PAQDNO8NZ3VGBRIC9IJX0","A1E3N1Y6XG1898","3I7KR83SNAZT1REYB2SRC49PCEEK9H","","null","<img src=""img/flower4.png"" style=""width:200px; border:14px solid green;"">","null","","","","","","","","",""
"","image-keyboard-response","162","116738","0.0-162.0","3A7Y0R2P2PAQDNO8NZ3VGBRIC9IJX0","A1E3N1Y6XG1898","3I7KR83SNAZT1REYB2SRC49PCEEK9H","","543","img/flower6.png","75","543.8000000119209","2","1","1","2","1,0,0,1,1,0,1,0,1","0,1,0,0,1,1,1,1,0","3",""
"","html-keyboard-response","163","117039","0.0-163.0","3A7Y0R2P2PAQDNO8NZ3VGBRIC9IJX0","A1E3N1Y6XG1898","3I7KR83SNAZT1REYB2SRC49PCEEK9H","","null","<img src=""img/flower6.png"" style=""width:200px; border:14px solid green;"">","null","","","","","","","","",""
"","image-keyboard-response","164","117583","0.0-164.0","3A7Y0R2P2PAQDNO8NZ3VGBRIC9IJX0","A1E3N1Y6XG1898","3I7KR83SNAZT1REYB2SRC49PCEEK9H","","542.7000000029802","img/flower6.png","75","543.2000000029802","2","1","1","2","1,0,0,1,1,0,1,0,1","0,1,0,0,1,1,1,1,0","3",""
"","html-keyboard-response","165","117887","0.0-165.0","3A7Y0R2P2PAQDNO8NZ3VGBRIC9IJX0","A1E3N1Y6XG1898","3I7KR83SNAZT1REYB2SRC49PCEEK9H","","null","<img src=""img/flower6.png"" style=""width:200px; border:14px solid green;"">","null","","","","","","","","",""
"","image-keyboard-response","166","118476","0.0-166.0","3A7Y0R2P2PAQDNO8NZ3VGBRIC9IJX0","A1E3N1Y6XG1898","3I7KR83SNAZT1REYB2SRC49PCEEK9H","","587.7999999970198","img/flower4.png","74","588.5","1","1","3","2","1,0,0,1,1,0,1,0,1","0,1,0,0,1,1,1,1,0","3",""
"","html-keyboard-response","167","118781","0.0-167.0","3A7Y0R2P2PAQDNO8NZ3VGBRIC9IJX0","A1E3N1Y6XG1898","3I7KR83SNAZT1REYB2SRC49PCEEK9H","","null","<img src=""img/flower4.png"" style=""width:200px; border:14px solid green;"">","null","","","","","","","","",""
"","image-keyboard-response","168","119284","0.0-168.0","3A7Y0R2P2PAQDNO8NZ3VGBRIC9IJX0","A1E3N1Y6XG1898","3I7KR83SNAZT1REYB2SRC49PCEEK9H","","502","img/flower4.png","74","502.70000000298023","1","1","3","2","1,0,0,1,1,0,1,0,1","0,1,0,0,1,1,1,1,0","3",""
"","html-keyboard-response","169","119589","0.0-169.0","3A7Y0R2P2PAQDNO8NZ3VGBRIC9IJX0","A1E3N1Y6XG1898","3I7KR83SNAZT1REYB2SRC49PCEEK9H","","null","<img src=""img/flower4.png"" style=""width:200px; border:14px solid green;"">","null","","","","","","","","",""
"","image-keyboard-response","170","120246","0.0-170.0","3A7Y0R2P2PAQDNO8NZ3VGBRIC9IJX0","A1E3N1Y6XG1898","3I7KR83SNAZT1REYB2SRC49PCEEK9H","","655.9000000059605","img/flower2.png","76","656.7000000029802","3","1","2","2","1,0,0,1,1,0,1,0,1","0,1,0,0,1,1,1,1,0","3",""
"","html-keyboard-response","171","120552","0.0-171.0","3A7Y0R2P2PAQDNO8NZ3VGBRIC9IJX0","A1E3N1Y6XG1898","3I7KR83SNAZT1REYB2SRC49PCEEK9H","","null","<img src=""img/flower2.png"" style=""width:200px; border:14px solid green;"">","null","","","","","","","","",""
"","image-keyboard-response","172","121113","0.0-172.0","3A7Y0R2P2PAQDNO8NZ3VGBRIC9IJX0","A1E3N1Y6XG1898","3I7KR83SNAZT1REYB2SRC49PCEEK9H","","560.0999999940395","img/flower2.png","76","560.7999999970198","3","1","2","2","1,0,0,1,1,0,1,0,1","0,1,0,0,1,1,1,1,0","3",""
"","html-keyboard-response","173","121415","0.0-173.0","3A7Y0R2P2PAQDNO8NZ3VGBRIC9IJX0","A1E3N1Y6XG1898","3I7KR83SNAZT1REYB2SRC49PCEEK9H","","null","<img src=""img/flower2.png"" style=""width:200px; border:14px solid green;"">","null","","","","","","","","",""
"","image-keyboard-response","174","121987","0.0-174.0","3A7Y0R2P2PAQDNO8NZ3VGBRIC9IJX0","A1E3N1Y6XG1898","3I7KR83SNAZT1REYB2SRC49PCEEK9H","","570.8999999910593","img/flower2.png","76","571.5","3","1","2","2","1,0,0,1,1,0,1,0,1","0,1,0,0,1,1,1,1,0","3",""
"","html-keyboard-response","175","122290","0.0-175.0","3A7Y0R2P2PAQDNO8NZ3VGBRIC9IJX0","A1E3N1Y6XG1898","3I7KR83SNAZT1REYB2SRC49PCEEK9H","","null","<img src=""img/flower2.png"" style=""width:200px; border:14px solid green;"">","null","","","","","","","","",""
"","image-keyboard-response","176","122830","0.0-176.0","3A7Y0R2P2PAQDNO8NZ3VGBRIC9IJX0","A1E3N1Y6XG1898","3I7KR83SNAZT1REYB2SRC49PCEEK9H","","538.7999999970198","img/flower4.png","74","539.2999999970198","1","1","3","2","1,0,0,1,1,0,1,0,1","0,1,0,0,1,1,1,1,0","3",""
"","html-keyboard-response","177","123133","0.0-177.0","3A7Y0R2P2PAQDNO8NZ3VGBRIC9IJX0","A1E3N1Y6XG1898","3I7KR83SNAZT1REYB2SRC49PCEEK9H","","null","<img src=""img/flower4.png"" style=""width:200px; border:14px solid green;"">","null","","","","","","","","",""
"","image-keyboard-response","178","123658","0.0-178.0","3A7Y0R2P2PAQDNO8NZ3VGBRIC9IJX0","A1E3N1Y6XG1898","3I7KR83SNAZT1REYB2SRC49PCEEK9H","","524.1000000089407","img/flower4.png","74","524.5","1","1","3","2","1,0,0,1,1,0,1,0,1","0,1,0,0,1,1,1,1,0","3",""
"","html-keyboard-response","179","123962","0.0-179.0","3A7Y0R2P2PAQDNO8NZ3VGBRIC9IJX0","A1E3N1Y6XG1898","3I7KR83SNAZT1REYB2SRC49PCEEK9H","","null","<img src=""img/flower4.png"" style=""width:200px; border:14px solid green;"">","null","","","","","","","","",""
"","image-keyboard-response","180","124526","0.0-180.0","3A7Y0R2P2PAQDNO8NZ3VGBRIC9IJX0","A1E3N1Y6XG1898","3I7KR83SNAZT1REYB2SRC49PCEEK9H","","563.0999999940395","img/flower2.png","76","563.9000000059605","3","1","2","2","1,0,0,1,1,0,1,0,1","0,1,0,0,1,1,1,1,0","3",""
"","html-keyboard-response","181","124828","0.0-181.0","3A7Y0R2P2PAQDNO8NZ3VGBRIC9IJX0","A1E3N1Y6XG1898","3I7KR83SNAZT1REYB2SRC49PCEEK9H","","null","<img src=""img/flower2.png"" style=""width:200px; border:14px solid green;"">","null","","","","","","","","",""
"","image-keyboard-response","182","125657","0.0-182.0","3A7Y0R2P2PAQDNO8NZ3VGBRIC9IJX0","A1E3N1Y6XG1898","3I7KR83SNAZT1REYB2SRC49PCEEK9H","","828.1000000089407","img/flower1.png","75","828.8000000119209","2","1","2","1","1,0.333,0.333,0.333,1,0.333,0.333,0.333,1","1,0.333,0.333,0.333,1,0.333,0.333,0.333,1","1",""
"","html-keyboard-response","183","125959","0.0-183.0","3A7Y0R2P2PAQDNO8NZ3VGBRIC9IJX0","A1E3N1Y6XG1898","3I7KR83SNAZT1REYB2SRC49PCEEK9H","","null","<img src=""img/flower1.png"" style=""width:200px; border:14px solid green;"">","null","","","","","","","","",""
"","image-keyboard-response","184","127035","0.0-184.0","3A7Y0R2P2PAQDNO8NZ3VGBRIC9IJX0","A1E3N1Y6XG1898","3I7KR83SNAZT1REYB2SRC49PCEEK9H","","1074.7000000029802","img/flower3.png","74","1075.4000000059605","1","1","1","1","1,0.333,0.333,0.333,1,0.333,0.333,0.333,1","1,0.333,0.333,0.333,1,0.333,0.333,0.333,1","1",""
"","html-keyboard-response","185","127336","0.0-185.0","3A7Y0R2P2PAQDNO8NZ3VGBRIC9IJX0","A1E3N1Y6XG1898","3I7KR83SNAZT1REYB2SRC49PCEEK9H","","null","<img src=""img/flower3.png"" style=""width:200px; border:14px solid green;"">","null","","","","","","","","",""
"","image-keyboard-response","186","129094","0.0-186.0","3A7Y0R2P2PAQDNO8NZ3VGBRIC9IJX0","A1E3N1Y6XG1898","3I7KR83SNAZT1REYB2SRC49PCEEK9H","","1757","img/flower5.png","76","1757.5","3","1","3","1","1,0.333,0.333,0.333,1,0.333,0.333,0.333,1","1,0.333,0.333,0.333,1,0.333,0.333,0.333,1","1",""
"","html-keyboard-response","187","129399","0.0-187.0","3A7Y0R2P2PAQDNO8NZ3VGBRIC9IJX0","A1E3N1Y6XG1898","3I7KR83SNAZT1REYB2SRC49PCEEK9H","","null","<img src=""img/flower5.png"" style=""width:200px; border:14px solid green;"">","null","","","","","","","","",""
"","image-keyboard-response","188","130332","0.0-188.0","3A7Y0R2P2PAQDNO8NZ3VGBRIC9IJX0","A1E3N1Y6XG1898","3I7KR83SNAZT1REYB2SRC49PCEEK9H","","932","img/flower1.png","75","932.5999999940395","2","1","2","1","1,0.333,0.333,0.333,1,0.333,0.333,0.333,1","1,0.333,0.333,0.333,1,0.333,0.333,0.333,1","1",""
"","html-keyboard-response","189","130633","0.0-189.0","3A7Y0R2P2PAQDNO8NZ3VGBRIC9IJX0","A1E3N1Y6XG1898","3I7KR83SNAZT1REYB2SRC49PCEEK9H","","null","<img src=""img/flower1.png"" style=""width:200px; border:14px solid green;"">","null","","","","","","","","",""
"","image-keyboard-response","190","131291","0.0-190.0","3A7Y0R2P2PAQDNO8NZ3VGBRIC9IJX0","A1E3N1Y6XG1898","3I7KR83SNAZT1REYB2SRC49PCEEK9H","","656.7999999970198","img/flower1.png","75","657.5","2","1","2","1","1,0.333,0.333,0.333,1,0.333,0.333,0.333,1","1,0.333,0.333,0.333,1,0.333,0.333,0.333,1","1",""
"","html-keyboard-response","191","131597","0.0-191.0","3A7Y0R2P2PAQDNO8NZ3VGBRIC9IJX0","A1E3N1Y6XG1898","3I7KR83SNAZT1REYB2SRC49PCEEK9H","","null","<img src=""img/flower1.png"" style=""width:200px; border:14px solid green;"">","null","","","","","","","","",""
"","image-keyboard-response","192","132211","0.0-192.0","3A7Y0R2P2PAQDNO8NZ3VGBRIC9IJX0","A1E3N1Y6XG1898","3I7KR83SNAZT1REYB2SRC49PCEEK9H","","612.5999999940395","img/flower1.png","75","613.4000000059605","2","1","2","1","1,0.333,0.333,0.333,1,0.333,0.333,0.333,1","1,0.333,0.333,0.333,1,0.333,0.333,0.333,1","1",""
"","html-keyboard-response","193","132513","0.0-193.0","3A7Y0R2P2PAQDNO8NZ3VGBRIC9IJX0","A1E3N1Y6XG1898","3I7KR83SNAZT1REYB2SRC49PCEEK9H","","null","<img src=""img/flower1.png"" style=""width:200px; border:14px solid green;"">","null","","","","","","","","",""
"","image-keyboard-response","194","133303","0.0-194.0","3A7Y0R2P2PAQDNO8NZ3VGBRIC9IJX0","A1E3N1Y6XG1898","3I7KR83SNAZT1REYB2SRC49PCEEK9H","","789.2999999970198","img/flower3.png","74","790","1","1","1","1","1,0.333,0.333,0.333,1,0.333,0.333,0.333,1","1,0.333,0.333,0.333,1,0.333,0.333,0.333,1","1",""
"","html-keyboard-response","195","133605","0.0-195.0","3A7Y0R2P2PAQDNO8NZ3VGBRIC9IJX0","A1E3N1Y6XG1898","3I7KR83SNAZT1REYB2SRC49PCEEK9H","","null","<img src=""img/flower3.png"" style=""width:200px; border:14px solid green;"">","null","","","","","","","","",""
"","image-keyboard-response","196","134331","0.0-196.0","3A7Y0R2P2PAQDNO8NZ3VGBRIC9IJX0","A1E3N1Y6XG1898","3I7KR83SNAZT1REYB2SRC49PCEEK9H","","725","img/flower1.png","75","725.7000000029802","2","1","2","1","1,0.333,0.333,0.333,1,0.333,0.333,0.333,1","1,0.333,0.333,0.333,1,0.333,0.333,0.333,1","1",""
"","html-keyboard-response","197","134635","0.0-197.0","3A7Y0R2P2PAQDNO8NZ3VGBRIC9IJX0","A1E3N1Y6XG1898","3I7KR83SNAZT1REYB2SRC49PCEEK9H","","null","<img src=""img/flower1.png"" style=""width:200px; border:14px solid green;"">","null","","","","","","","","",""
"","image-keyboard-response","198","135937","0.0-198.0","3A7Y0R2P2PAQDNO8NZ3VGBRIC9IJX0","A1E3N1Y6XG1898","3I7KR83SNAZT1REYB2SRC49PCEEK9H","","1301.4000000059605","img/flower5.png","75","1301.8999999910593","2","1","3","1","1,0.333,0.333,0.333,1,0.333,0.333,0.333,1","1,0.333,0.333,0.333,1,0.333,0.333,0.333,1","1",""
"","html-keyboard-response","199","136243","0.0-199.0","3A7Y0R2P2PAQDNO8NZ3VGBRIC9IJX0","A1E3N1Y6XG1898","3I7KR83SNAZT1REYB2SRC49PCEEK9H","","null","<img src=""img/flower5.png"" style=""width:200px; border:14px solid green;"">","null","","","","","","","","",""
"","image-keyboard-response","200","136991","0.0-200.0","3A7Y0R2P2PAQDNO8NZ3VGBRIC9IJX0","A1E3N1Y6XG1898","3I7KR83SNAZT1REYB2SRC49PCEEK9H","","747.2000000029802","img/flower1.png","75","747.9000000059605","2","1","2","1","1,0.333,0.333,0.333,1,0.333,0.333,0.333,1","1,0.333,0.333,0.333,1,0.333,0.333,0.333,1","1",""
"","html-keyboard-response","201","137296","0.0-201.0","3A7Y0R2P2PAQDNO8NZ3VGBRIC9IJX0","A1E3N1Y6XG1898","3I7KR83SNAZT1REYB2SRC49PCEEK9H","","null","<img src=""img/flower1.png"" style=""width:200px; border:14px solid green;"">","null","","","","","","","","",""
"","image-keyboard-response","202","137862","0.0-202.0","3A7Y0R2P2PAQDNO8NZ3VGBRIC9IJX0","A1E3N1Y6XG1898","3I7KR83SNAZT1REYB2SRC49PCEEK9H","","566","img/flower1.png","75","566.5999999940395","2","1","2","1","1,0.333,0.333,0.333,1,0.333,0.333,0.333,1","1,0.333,0.333,0.333,1,0.333,0.333,0.333,1","1",""
"","html-keyboard-response","203","138164","0.0-203.0","3A7Y0R2P2PAQDNO8NZ3VGBRIC9IJX0","A1E3N1Y6XG1898","3I7KR83SNAZT1REYB2SRC49PCEEK9H","","null","<img src=""img/flower1.png"" style=""width:200px; border:14px solid green;"">","null","","","","","","","","",""
"","image-keyboard-response","204","138739","0.0-204.0","3A7Y0R2P2PAQDNO8NZ3VGBRIC9IJX0","A1E3N1Y6XG1898","3I7KR83SNAZT1REYB2SRC49PCEEK9H","","573.3000000119209","img/flower5.png","75","574","2","0","3","1","1,0.333,0.333,0.333,1,0.333,0.333,0.333,1","1,0.333,0.333,0.333,1,0.333,0.333,0.333,1","1",""
"","html-keyboard-response","205","139042","0.0-205.0","3A7Y0R2P2PAQDNO8NZ3VGBRIC9IJX0","A1E3N1Y6XG1898","3I7KR83SNAZT1REYB2SRC49PCEEK9H","","null","<img src=""img/flower5.png"" style=""width:200px;border:14px solid red;"">","null","","","","","","","","",""
"","image-keyboard-response","206","139630","0.0-206.0","3A7Y0R2P2PAQDNO8NZ3VGBRIC9IJX0","A1E3N1Y6XG1898","3I7KR83SNAZT1REYB2SRC49PCEEK9H","","587.5999999940395","img/flower5.png","75","588.1000000089407","2","0","3","1","1,0.333,0.333,0.333,1,0.333,0.333,0.333,1","1,0.333,0.333,0.333,1,0.333,0.333,0.333,1","1",""
"","html-keyboard-response","207","139932","0.0-207.0","3A7Y0R2P2PAQDNO8NZ3VGBRIC9IJX0","A1E3N1Y6XG1898","3I7KR83SNAZT1REYB2SRC49PCEEK9H","","null","<img src=""img/flower5.png"" style=""width:200px;border:14px solid red;"">","null","","","","","","","","",""
"","image-keyboard-response","208","140548","0.0-208.0","3A7Y0R2P2PAQDNO8NZ3VGBRIC9IJX0","A1E3N1Y6XG1898","3I7KR83SNAZT1REYB2SRC49PCEEK9H","","614.7000000029802","img/flower5.png","74","615.4000000059605","1","1","3","1","1,0.333,0.333,0.333,1,0.333,0.333,0.333,1","1,0.333,0.333,0.333,1,0.333,0.333,0.333,1","1",""
"","html-keyboard-response","209","140850","0.0-209.0","3A7Y0R2P2PAQDNO8NZ3VGBRIC9IJX0","A1E3N1Y6XG1898","3I7KR83SNAZT1REYB2SRC49PCEEK9H","","null","<img src=""img/flower5.png"" style=""width:200px; border:14px solid green;"">","null","","","","","","","","",""
"","image-keyboard-response","210","141547","0.0-210.0","3A7Y0R2P2PAQDNO8NZ3VGBRIC9IJX0","A1E3N1Y6XG1898","3I7KR83SNAZT1REYB2SRC49PCEEK9H","","695.9000000059605","img/flower5.png","74","696.3999999910593","1","1","3","1","1,0.333,0.333,0.333,1,0.333,0.333,0.333,1","1,0.333,0.333,0.333,1,0.333,0.333,0.333,1","1",""
"","html-keyboard-response","211","141848","0.0-211.0","3A7Y0R2P2PAQDNO8NZ3VGBRIC9IJX0","A1E3N1Y6XG1898","3I7KR83SNAZT1REYB2SRC49PCEEK9H","","null","<img src=""img/flower5.png"" style=""width:200px; border:14px solid green;"">","null","","","","","","","","",""
"","image-keyboard-response","212","142501","0.0-212.0","3A7Y0R2P2PAQDNO8NZ3VGBRIC9IJX0","A1E3N1Y6XG1898","3I7KR83SNAZT1REYB2SRC49PCEEK9H","","652.6000000089407","img/flower1.png","75","653.2000000029802","2","1","2","1","1,0.333,0.333,0.333,1,0.333,0.333,0.333,1","1,0.333,0.333,0.333,1,0.333,0.333,0.333,1","1",""
"","html-keyboard-response","213","142805","0.0-213.0","3A7Y0R2P2PAQDNO8NZ3VGBRIC9IJX0","A1E3N1Y6XG1898","3I7KR83SNAZT1REYB2SRC49PCEEK9H","","null","<img src=""img/flower1.png"" style=""width:200px; border:14px solid green;"">","null","","","","","","","","",""
"","image-keyboard-response","214","143708","0.0-214.0","3A7Y0R2P2PAQDNO8NZ3VGBRIC9IJX0","A1E3N1Y6XG1898","3I7KR83SNAZT1REYB2SRC49PCEEK9H","","902.7999999970198","img/flower5.png","74","903.2000000029802","1","0","3","1","1,0.333,0.333,0.333,1,0.333,0.333,0.333,1","1,0.333,0.333,0.333,1,0.333,0.333,0.333,1","1",""
"","html-keyboard-response","215","144010","0.0-215.0","3A7Y0R2P2PAQDNO8NZ3VGBRIC9IJX0","A1E3N1Y6XG1898","3I7KR83SNAZT1REYB2SRC49PCEEK9H","","null","<img src=""img/flower5.png"" style=""width:200px;border:14px solid red;"">","null","","","","","","","","",""
"","image-keyboard-response","216","144816","0.0-216.0","3A7Y0R2P2PAQDNO8NZ3VGBRIC9IJX0","A1E3N1Y6XG1898","3I7KR83SNAZT1REYB2SRC49PCEEK9H","","805.7999999970198","img/flower5.png","75","806.5999999940395","2","0","3","1","1,0.333,0.333,0.333,1,0.333,0.333,0.333,1","1,0.333,0.333,0.333,1,0.333,0.333,0.333,1","1",""
"","html-keyboard-response","217","145118","0.0-217.0","3A7Y0R2P2PAQDNO8NZ3VGBRIC9IJX0","A1E3N1Y6XG1898","3I7KR83SNAZT1REYB2SRC49PCEEK9H","","null","<img src=""img/flower5.png"" style=""width:200px;border:14px solid red;"">","null","","","","","","","","",""
"","image-keyboard-response","218","146163","0.0-218.0","3A7Y0R2P2PAQDNO8NZ3VGBRIC9IJX0","A1E3N1Y6XG1898","3I7KR83SNAZT1REYB2SRC49PCEEK9H","","1044.9000000059605","img/flower3.png","74","1045.5","1","1","1","1","1,0.333,0.333,0.333,1,0.333,0.333,0.333,1","1,0.333,0.333,0.333,1,0.333,0.333,0.333,1","1",""
"","html-keyboard-response","219","146466","0.0-219.0","3A7Y0R2P2PAQDNO8NZ3VGBRIC9IJX0","A1E3N1Y6XG1898","3I7KR83SNAZT1REYB2SRC49PCEEK9H","","null","<img src=""img/flower3.png"" style=""width:200px; border:14px solid green;"">","null","","","","","","","","",""
"","image-keyboard-response","220","147376","0.0-220.0","3A7Y0R2P2PAQDNO8NZ3VGBRIC9IJX0","A1E3N1Y6XG1898","3I7KR83SNAZT1REYB2SRC49PCEEK9H","","908.1000000089407","img/flower5.png","75","908.7999999970198","2","1","3","1","1,0.333,0.333,0.333,1,0.333,0.333,0.333,1","1,0.333,0.333,0.333,1,0.333,0.333,0.333,1","1",""
"","html-keyboard-response","221","147680","0.0-221.0","3A7Y0R2P2PAQDNO8NZ3VGBRIC9IJX0","A1E3N1Y6XG1898","3I7KR83SNAZT1REYB2SRC49PCEEK9H","","null","<img src=""img/flower5.png"" style=""width:200px; border:14px solid green;"">","null","","","","","","","","",""
"","image-keyboard-response","222","148189","0.0-222.0","3A7Y0R2P2PAQDNO8NZ3VGBRIC9IJX0","A1E3N1Y6XG1898","3I7KR83SNAZT1REYB2SRC49PCEEK9H","","508.20000000298023","img/flower5.png","75","508.90000000596046","2","0","3","1","1,0.333,0.333,0.333,1,0.333,0.333,0.333,1","1,0.333,0.333,0.333,1,0.333,0.333,0.333,1","1",""
"","html-keyboard-response","223","148493","0.0-223.0","3A7Y0R2P2PAQDNO8NZ3VGBRIC9IJX0","A1E3N1Y6XG1898","3I7KR83SNAZT1REYB2SRC49PCEEK9H","","null","<img src=""img/flower5.png"" style=""width:200px;border:14px solid red;"">","null","","","","","","","","",""
"","image-keyboard-response","224","149336","0.0-224.0","3A7Y0R2P2PAQDNO8NZ3VGBRIC9IJX0","A1E3N1Y6XG1898","3I7KR83SNAZT1REYB2SRC49PCEEK9H","","842.4000000059605","img/flower1.png","75","843","2","1","2","1","1,0.333,0.333,0.333,1,0.333,0.333,0.333,1","1,0.333,0.333,0.333,1,0.333,0.333,0.333,1","1",""
"","html-keyboard-response","225","149639","0.0-225.0","3A7Y0R2P2PAQDNO8NZ3VGBRIC9IJX0","A1E3N1Y6XG1898","3I7KR83SNAZT1REYB2SRC49PCEEK9H","","null","<img src=""img/flower1.png"" style=""width:200px; border:14px solid green;"">","null","","","","","","","","",""
"","image-keyboard-response","226","150387","0.0-226.0","3A7Y0R2P2PAQDNO8NZ3VGBRIC9IJX0","A1E3N1Y6XG1898","3I7KR83SNAZT1REYB2SRC49PCEEK9H","","746.4000000059605","img/flower3.png","74","747","1","1","1","1","1,0.333,0.333,0.333,1,0.333,0.333,0.333,1","1,0.333,0.333,0.333,1,0.333,0.333,0.333,1","1",""
"","html-keyboard-response","227","150689","0.0-227.0","3A7Y0R2P2PAQDNO8NZ3VGBRIC9IJX0","A1E3N1Y6XG1898","3I7KR83SNAZT1REYB2SRC49PCEEK9H","","null","<img src=""img/flower3.png"" style=""width:200px; border:14px solid green;"">","null","","","","","","","","",""
"","image-keyboard-response","228","151274","0.0-228.0","3A7Y0R2P2PAQDNO8NZ3VGBRIC9IJX0","A1E3N1Y6XG1898","3I7KR83SNAZT1REYB2SRC49PCEEK9H","","584.0999999940395","img/flower5.png","75","584.5","2","1","3","1","1,0.333,0.333,0.333,1,0.333,0.333,0.333,1","1,0.333,0.333,0.333,1,0.333,0.333,0.333,1","1",""
"","html-keyboard-response","229","151578","0.0-229.0","3A7Y0R2P2PAQDNO8NZ3VGBRIC9IJX0","A1E3N1Y6XG1898","3I7KR83SNAZT1REYB2SRC49PCEEK9H","","null","<img src=""img/flower5.png"" style=""width:200px; border:14px solid green;"">","null","","","","","","","","",""
"","image-keyboard-response","230","152131","0.0-230.0","3A7Y0R2P2PAQDNO8NZ3VGBRIC9IJX0","A1E3N1Y6XG1898","3I7KR83SNAZT1REYB2SRC49PCEEK9H","","552","img/flower3.png","74","552.5999999940395","1","1","1","1","1,0.333,0.333,0.333,1,0.333,0.333,0.333,1","1,0.333,0.333,0.333,1,0.333,0.333,0.333,1","1",""
"","html-keyboard-response","231","152433","0.0-231.0","3A7Y0R2P2PAQDNO8NZ3VGBRIC9IJX0","A1E3N1Y6XG1898","3I7KR83SNAZT1REYB2SRC49PCEEK9H","","null","<img src=""img/flower3.png"" style=""width:200px; border:14px solid green;"">","null","","","","","","","","",""
"","image-keyboard-response","232","153272","0.0-232.0","3A7Y0R2P2PAQDNO8NZ3VGBRIC9IJX0","A1E3N1Y6XG1898","3I7KR83SNAZT1REYB2SRC49PCEEK9H","","837.6000000089407","img/flower1.png","75","838.2999999970198","2","1","2","1","1,0.333,0.333,0.333,1,0.333,0.333,0.333,1","1,0.333,0.333,0.333,1,0.333,0.333,0.333,1","1",""
"","html-keyboard-response","233","153573","0.0-233.0","3A7Y0R2P2PAQDNO8NZ3VGBRIC9IJX0","A1E3N1Y6XG1898","3I7KR83SNAZT1REYB2SRC49PCEEK9H","","null","<img src=""img/flower1.png"" style=""width:200px; border:14px solid green;"">","null","","","","","","","","",""
"","image-keyboard-response","234","154240","0.0-234.0","3A7Y0R2P2PAQDNO8NZ3VGBRIC9IJX0","A1E3N1Y6XG1898","3I7KR83SNAZT1REYB2SRC49PCEEK9H","","666","img/flower5.png","74","666.5","1","0","3","1","1,0.333,0.333,0.333,1,0.333,0.333,0.333,1","1,0.333,0.333,0.333,1,0.333,0.333,0.333,1","1",""
"","html-keyboard-response","235","154546","0.0-235.0","3A7Y0R2P2PAQDNO8NZ3VGBRIC9IJX0","A1E3N1Y6XG1898","3I7KR83SNAZT1REYB2SRC49PCEEK9H","","null","<img src=""img/flower5.png"" style=""width:200px;border:14px solid red;"">","null","","","","","","","","",""
"","image-keyboard-response","236","155723","0.0-236.0","3A7Y0R2P2PAQDNO8NZ3VGBRIC9IJX0","A1E3N1Y6XG1898","3I7KR83SNAZT1REYB2SRC49PCEEK9H","","1176.0999999940395","img/flower3.png","74","1176.7000000029802","1","1","1","1","1,0.333,0.333,0.333,1,0.333,0.333,0.333,1","1,0.333,0.333,0.333,1,0.333,0.333,0.333,1","1",""
"","html-keyboard-response","237","156024","0.0-237.0","3A7Y0R2P2PAQDNO8NZ3VGBRIC9IJX0","A1E3N1Y6XG1898","3I7KR83SNAZT1REYB2SRC49PCEEK9H","","null","<img src=""img/flower3.png"" style=""width:200px; border:14px solid green;"">","null","","","","","","","","",""
"","image-keyboard-response","238","156689","0.0-238.0","3A7Y0R2P2PAQDNO8NZ3VGBRIC9IJX0","A1E3N1Y6XG1898","3I7KR83SNAZT1REYB2SRC49PCEEK9H","","663.9000000059605","img/flower1.png","75","664.4000000059605","2","1","2","1","1,0.333,0.333,0.333,1,0.333,0.333,0.333,1","1,0.333,0.333,0.333,1,0.333,0.333,0.333,1","1",""
"","html-keyboard-response","239","156992","0.0-239.0","3A7Y0R2P2PAQDNO8NZ3VGBRIC9IJX0","A1E3N1Y6XG1898","3I7KR83SNAZT1REYB2SRC49PCEEK9H","","null","<img src=""img/flower1.png"" style=""width:200px; border:14px solid green;"">","null","","","","","","","","",""
"","image-keyboard-response","240","157651","0.0-240.0","3A7Y0R2P2PAQDNO8NZ3VGBRIC9IJX0","A1E3N1Y6XG1898","3I7KR83SNAZT1REYB2SRC49PCEEK9H","","657.9000000059605","img/flower1.png","75","658.5","2","1","2","1","1,0.333,0.333,0.333,1,0.333,0.333,0.333,1","1,0.333,0.333,0.333,1,0.333,0.333,0.333,1","1",""
"","html-keyboard-response","241","157955","0.0-241.0","3A7Y0R2P2PAQDNO8NZ3VGBRIC9IJX0","A1E3N1Y6XG1898","3I7KR83SNAZT1REYB2SRC49PCEEK9H","","null","<img src=""img/flower1.png"" style=""width:200px; border:14px solid green;"">","null","","","","","","","","",""
"","image-keyboard-response","242","158596","0.0-242.0","3A7Y0R2P2PAQDNO8NZ3VGBRIC9IJX0","A1E3N1Y6XG1898","3I7KR83SNAZT1REYB2SRC49PCEEK9H","","639.7000000029802","img/flower1.png","75","640.4000000059605","2","1","2","1","1,0.333,0.333,0.333,1,0.333,0.333,0.333,1","1,0.333,0.333,0.333,1,0.333,0.333,0.333,1","1",""
"","html-keyboard-response","243","158898","0.0-243.0","3A7Y0R2P2PAQDNO8NZ3VGBRIC9IJX0","A1E3N1Y6XG1898","3I7KR83SNAZT1REYB2SRC49PCEEK9H","","null","<img src=""img/flower1.png"" style=""width:200px; border:14px solid green;"">","null","","","","","","","","",""
"","image-keyboard-response","244","159697","0.0-244.0","3A7Y0R2P2PAQDNO8NZ3VGBRIC9IJX0","A1E3N1Y6XG1898","3I7KR83SNAZT1REYB2SRC49PCEEK9H","","798.2999999970198","img/flower3.png","74","799","1","1","1","1","1,0.333,0.333,0.333,1,0.333,0.333,0.333,1","1,0.333,0.333,0.333,1,0.333,0.333,0.333,1","1",""
"","html-keyboard-response","245","160002","0.0-245.0","3A7Y0R2P2PAQDNO8NZ3VGBRIC9IJX0","A1E3N1Y6XG1898","3I7KR83SNAZT1REYB2SRC49PCEEK9H","","null","<img src=""img/flower3.png"" style=""width:200px; border:14px solid green;"">","null","","","","","","","","",""
"","image-keyboard-response","246","161076","0.0-246.0","3A7Y0R2P2PAQDNO8NZ3VGBRIC9IJX0","A1E3N1Y6XG1898","3I7KR83SNAZT1REYB2SRC49PCEEK9H","","1072.5","img/flower5.png","75","1073.2000000029802","2","0","3","1","1,0.333,0.333,0.333,1,0.333,0.333,0.333,1","1,0.333,0.333,0.333,1,0.333,0.333,0.333,1","1",""
"","html-keyboard-response","247","161378","0.0-247.0","3A7Y0R2P2PAQDNO8NZ3VGBRIC9IJX0","A1E3N1Y6XG1898","3I7KR83SNAZT1REYB2SRC49PCEEK9H","","null","<img src=""img/flower5.png"" style=""width:200px;border:14px solid red;"">","null","","","","","","","","",""
"","image-keyboard-response","248","161769","0.0-248.0","3A7Y0R2P2PAQDNO8NZ3VGBRIC9IJX0","A1E3N1Y6XG1898","3I7KR83SNAZT1REYB2SRC49PCEEK9H","","389.79999999701977","img/flower5.png","74","390.5","1","1","3","1","1,0.333,0.333,0.333,1,0.333,0.333,0.333,1","1,0.333,0.333,0.333,1,0.333,0.333,0.333,1","1",""
"","html-keyboard-response","249","162071","0.0-249.0","3A7Y0R2P2PAQDNO8NZ3VGBRIC9IJX0","A1E3N1Y6XG1898","3I7KR83SNAZT1REYB2SRC49PCEEK9H","","null","<img src=""img/flower5.png"" style=""width:200px; border:14px solid green;"">","null","","","","","","","","",""
"","image-keyboard-response","250","162744","0.0-250.0","3A7Y0R2P2PAQDNO8NZ3VGBRIC9IJX0","A1E3N1Y6XG1898","3I7KR83SNAZT1REYB2SRC49PCEEK9H","","672.2000000029802","img/flower5.png","74","672.6999999880791","1","0","3","1","1,0.333,0.333,0.333,1,0.333,0.333,0.333,1","1,0.333,0.333,0.333,1,0.333,0.333,0.333,1","1",""
"","html-keyboard-response","251","163045","0.0-251.0","3A7Y0R2P2PAQDNO8NZ3VGBRIC9IJX0","A1E3N1Y6XG1898","3I7KR83SNAZT1REYB2SRC49PCEEK9H","","null","<img src=""img/flower5.png"" style=""width:200px;border:14px solid red;"">","null","","","","","","","","",""
"","image-keyboard-response","252","163823","0.0-252.0","3A7Y0R2P2PAQDNO8NZ3VGBRIC9IJX0","A1E3N1Y6XG1898","3I7KR83SNAZT1REYB2SRC49PCEEK9H","","777.2999999970198","img/flower1.png","75","777.9000000059605","2","1","2","1","1,0.333,0.333,0.333,1,0.333,0.333,0.333,1","1,0.333,0.333,0.333,1,0.333,0.333,0.333,1","1",""
"","html-keyboard-response","253","164128","0.0-253.0","3A7Y0R2P2PAQDNO8NZ3VGBRIC9IJX0","A1E3N1Y6XG1898","3I7KR83SNAZT1REYB2SRC49PCEEK9H","","null","<img src=""img/flower1.png"" style=""width:200px; border:14px solid green;"">","null","","","","","","","","",""
"","image-keyboard-response","254","164664","0.0-254.0","3A7Y0R2P2PAQDNO8NZ3VGBRIC9IJX0","A1E3N1Y6XG1898","3I7KR83SNAZT1REYB2SRC49PCEEK9H","","535.3999999910593","img/flower1.png","75","535.8000000119209","2","1","2","1","1,0.333,0.333,0.333,1,0.333,0.333,0.333,1","1,0.333,0.333,0.333,1,0.333,0.333,0.333,1","1",""
"","html-keyboard-response","255","164967","0.0-255.0","3A7Y0R2P2PAQDNO8NZ3VGBRIC9IJX0","A1E3N1Y6XG1898","3I7KR83SNAZT1REYB2SRC49PCEEK9H","","null","<img src=""img/flower1.png"" style=""width:200px; border:14px solid green;"">","null","","","","","","","","",""
"","image-keyboard-response","256","165611","0.0-256.0","3A7Y0R2P2PAQDNO8NZ3VGBRIC9IJX0","A1E3N1Y6XG1898","3I7KR83SNAZT1REYB2SRC49PCEEK9H","","643.2000000029802","img/flower3.png","74","643.9000000059605","1","1","1","1","1,0.333,0.333,0.333,1,0.333,0.333,0.333,1","1,0.333,0.333,0.333,1,0.333,0.333,0.333,1","1",""
"","html-keyboard-response","257","165915","0.0-257.0","3A7Y0R2P2PAQDNO8NZ3VGBRIC9IJX0","A1E3N1Y6XG1898","3I7KR83SNAZT1REYB2SRC49PCEEK9H","","null","<img src=""img/flower3.png"" style=""width:200px; border:14px solid green;"">","null","","","","","","","","",""
"","image-keyboard-response","258","166841","0.0-258.0","3A7Y0R2P2PAQDNO8NZ3VGBRIC9IJX0","A1E3N1Y6XG1898","3I7KR83SNAZT1REYB2SRC49PCEEK9H","","925","img/flower5.png","75","925.5999999940395","2","0","3","1","1,0.333,0.333,0.333,1,0.333,0.333,0.333,1","1,0.333,0.333,0.333,1,0.333,0.333,0.333,1","1",""
"","html-keyboard-response","259","167146","0.0-259.0","3A7Y0R2P2PAQDNO8NZ3VGBRIC9IJX0","A1E3N1Y6XG1898","3I7KR83SNAZT1REYB2SRC49PCEEK9H","","null","<img src=""img/flower5.png"" style=""width:200px;border:14px solid red;"">","null","","","","","","","","",""
"","image-keyboard-response","260","168043","0.0-260.0","3A7Y0R2P2PAQDNO8NZ3VGBRIC9IJX0","A1E3N1Y6XG1898","3I7KR83SNAZT1REYB2SRC49PCEEK9H","","896.1999999880791","img/flower1.png","75","896.7999999970198","2","1","2","1","1,0.333,0.333,0.333,1,0.333,0.333,0.333,1","1,0.333,0.333,0.333,1,0.333,0.333,0.333,1","1",""
"","html-keyboard-response","261","168347","0.0-261.0","3A7Y0R2P2PAQDNO8NZ3VGBRIC9IJX0","A1E3N1Y6XG1898","3I7KR83SNAZT1REYB2SRC49PCEEK9H","","null","<img src=""img/flower1.png"" style=""width:200px; border:14px solid green;"">","null","","","","","","","","",""
"","image-keyboard-response","262","168998","0.0-262.0","3A7Y0R2P2PAQDNO8NZ3VGBRIC9IJX0","A1E3N1Y6XG1898","3I7KR83SNAZT1REYB2SRC49PCEEK9H","","651.0999999940395","img/flower3.png","74","651.5999999940395","1","1","1","1","1,0.333,0.333,0.333,1,0.333,0.333,0.333,1","1,0.333,0.333,0.333,1,0.333,0.333,0.333,1","1",""
"","html-keyboard-response","263","169300","0.0-263.0","3A7Y0R2P2PAQDNO8NZ3VGBRIC9IJX0","A1E3N1Y6XG1898","3I7KR83SNAZT1REYB2SRC49PCEEK9H","","null","<img src=""img/flower3.png"" style=""width:200px; border:14px solid green;"">","null","","","","","","","","",""
"","image-keyboard-response","264","169952","0.0-264.0","3A7Y0R2P2PAQDNO8NZ3VGBRIC9IJX0","A1E3N1Y6XG1898","3I7KR83SNAZT1REYB2SRC49PCEEK9H","","651.8999999910593","img/flower1.png","75","652.5","2","1","2","1","1,0.333,0.333,0.333,1,0.333,0.333,0.333,1","1,0.333,0.333,0.333,1,0.333,0.333,0.333,1","1",""
"","html-keyboard-response","265","170256","0.0-265.0","3A7Y0R2P2PAQDNO8NZ3VGBRIC9IJX0","A1E3N1Y6XG1898","3I7KR83SNAZT1REYB2SRC49PCEEK9H","","null","<img src=""img/flower1.png"" style=""width:200px; border:14px solid green;"">","null","","","","","","","","",""
"","image-keyboard-response","266","171053","0.0-266.0","3A7Y0R2P2PAQDNO8NZ3VGBRIC9IJX0","A1E3N1Y6XG1898","3I7KR83SNAZT1REYB2SRC49PCEEK9H","","795.1000000089407","img/flower5.png","74","795.7999999970198","1","1","3","1","1,0.333,0.333,0.333,1,0.333,0.333,0.333,1","1,0.333,0.333,0.333,1,0.333,0.333,0.333,1","1",""
"","html-keyboard-response","267","171355","0.0-267.0","3A7Y0R2P2PAQDNO8NZ3VGBRIC9IJX0","A1E3N1Y6XG1898","3I7KR83SNAZT1REYB2SRC49PCEEK9H","","null","<img src=""img/flower5.png"" style=""width:200px; border:14px solid green;"">","null","","","","","","","","",""
"","image-keyboard-response","268","172510","0.0-268.0","3A7Y0R2P2PAQDNO8NZ3VGBRIC9IJX0","A1E3N1Y6XG1898","3I7KR83SNAZT1REYB2SRC49PCEEK9H","","1153.0999999940395","img/flower1.png","75","1153.7999999970198","2","1","2","1","1,0.333,0.333,0.333,1,0.333,0.333,0.333,1","1,0.333,0.333,0.333,1,0.333,0.333,0.333,1","1",""
"","html-keyboard-response","269","172816","0.0-269.0","3A7Y0R2P2PAQDNO8NZ3VGBRIC9IJX0","A1E3N1Y6XG1898","3I7KR83SNAZT1REYB2SRC49PCEEK9H","","null","<img src=""img/flower1.png"" style=""width:200px; border:14px solid green;"">","null","","","","","","","","",""
"","image-keyboard-response","270","173551","0.0-270.0","3A7Y0R2P2PAQDNO8NZ3VGBRIC9IJX0","A1E3N1Y6XG1898","3I7KR83SNAZT1REYB2SRC49PCEEK9H","","733.2000000029802","img/flower3.png","74","733.9000000059605","1","1","1","1","1,0.333,0.333,0.333,1,0.333,0.333,0.333,1","1,0.333,0.333,0.333,1,0.333,0.333,0.333,1","1",""
"","html-keyboard-response","271","173857","0.0-271.0","3A7Y0R2P2PAQDNO8NZ3VGBRIC9IJX0","A1E3N1Y6XG1898","3I7KR83SNAZT1REYB2SRC49PCEEK9H","","null","<img src=""img/flower3.png"" style=""width:200px; border:14px solid green;"">","null","","","","","","","","",""
"","image-keyboard-response","272","174367","0.0-272.0","3A7Y0R2P2PAQDNO8NZ3VGBRIC9IJX0","A1E3N1Y6XG1898","3I7KR83SNAZT1REYB2SRC49PCEEK9H","","508.30000001192093","img/flower3.png","74","509.1000000089407","1","1","1","1","1,0.333,0.333,0.333,1,0.333,0.333,0.333,1","1,0.333,0.333,0.333,1,0.333,0.333,0.333,1","1",""
"","html-keyboard-response","273","174669","0.0-273.0","3A7Y0R2P2PAQDNO8NZ3VGBRIC9IJX0","A1E3N1Y6XG1898","3I7KR83SNAZT1REYB2SRC49PCEEK9H","","null","<img src=""img/flower3.png"" style=""width:200px; border:14px solid green;"">","null","","","","","","","","",""
"","image-keyboard-response","274","175206","0.0-274.0","3A7Y0R2P2PAQDNO8NZ3VGBRIC9IJX0","A1E3N1Y6XG1898","3I7KR83SNAZT1REYB2SRC49PCEEK9H","","535.5","img/flower3.png","74","536.2999999970198","1","1","1","1","1,0.333,0.333,0.333,1,0.333,0.333,0.333,1","1,0.333,0.333,0.333,1,0.333,0.333,0.333,1","1",""
"","html-keyboard-response","275","175507","0.0-275.0","3A7Y0R2P2PAQDNO8NZ3VGBRIC9IJX0","A1E3N1Y6XG1898","3I7KR83SNAZT1REYB2SRC49PCEEK9H","","null","<img src=""img/flower3.png"" style=""width:200px; border:14px solid green;"">","null","","","","","","","","",""
"","image-keyboard-response","276","176092","0.0-276.0","3A7Y0R2P2PAQDNO8NZ3VGBRIC9IJX0","A1E3N1Y6XG1898","3I7KR83SNAZT1REYB2SRC49PCEEK9H","","583.9000000059605","img/flower3.png","74","584.5","1","1","1","1","1,0.333,0.333,0.333,1,0.333,0.333,0.333,1","1,0.333,0.333,0.333,1,0.333,0.333,0.333,1","1",""
"","html-keyboard-response","277","176394","0.0-277.0","3A7Y0R2P2PAQDNO8NZ3VGBRIC9IJX0","A1E3N1Y6XG1898","3I7KR83SNAZT1REYB2SRC49PCEEK9H","","null","<img src=""img/flower3.png"" style=""width:200px; border:14px solid green;"">","null","","","","","","","","",""
"","image-keyboard-response","278","177153","0.0-278.0","3A7Y0R2P2PAQDNO8NZ3VGBRIC9IJX0","A1E3N1Y6XG1898","3I7KR83SNAZT1REYB2SRC49PCEEK9H","","756.7999999970198","img/flower5.png","75","757.5","2","1","3","1","1,0.333,0.333,0.333,1,0.333,0.333,0.333,1","1,0.333,0.333,0.333,1,0.333,0.333,0.333,1","1",""
"","html-keyboard-response","279","177455","0.0-279.0","3A7Y0R2P2PAQDNO8NZ3VGBRIC9IJX0","A1E3N1Y6XG1898","3I7KR83SNAZT1REYB2SRC49PCEEK9H","","null","<img src=""img/flower5.png"" style=""width:200px; border:14px solid green;"">","null","","","","","","","","",""
"","image-keyboard-response","280","178055","0.0-280.0","3A7Y0R2P2PAQDNO8NZ3VGBRIC9IJX0","A1E3N1Y6XG1898","3I7KR83SNAZT1REYB2SRC49PCEEK9H","","599","img/flower1.png","74","599.7999999970198","1","0","2","1","1,0.333,0.333,0.333,1,0.333,0.333,0.333,1","1,0.333,0.333,0.333,1,0.333,0.333,0.333,1","1",""
"","html-keyboard-response","281","178361","0.0-281.0","3A7Y0R2P2PAQDNO8NZ3VGBRIC9IJX0","A1E3N1Y6XG1898","3I7KR83SNAZT1REYB2SRC49PCEEK9H","","null","<img src=""img/flower1.png"" style=""width:200px;border:14px solid red;"">","null","","","","","","","","",""
"","image-keyboard-response","282","179408","0.0-282.0","3A7Y0R2P2PAQDNO8NZ3VGBRIC9IJX0","A1E3N1Y6XG1898","3I7KR83SNAZT1REYB2SRC49PCEEK9H","","1045","img/flower3.png","74","1045.6000000089407","1","1","1","1","1,0.333,0.333,0.333,1,0.333,0.333,0.333,1","1,0.333,0.333,0.333,1,0.333,0.333,0.333,1","1",""
"","html-keyboard-response","283","179710","0.0-283.0","3A7Y0R2P2PAQDNO8NZ3VGBRIC9IJX0","A1E3N1Y6XG1898","3I7KR83SNAZT1REYB2SRC49PCEEK9H","","null","<img src=""img/flower3.png"" style=""width:200px; border:14px solid green;"">","null","","","","","","","","",""
"","image-keyboard-response","284","180354","0.0-284.0","3A7Y0R2P2PAQDNO8NZ3VGBRIC9IJX0","A1E3N1Y6XG1898","3I7KR83SNAZT1REYB2SRC49PCEEK9H","","642.6999999880791","img/flower1.png","75","643.5","2","1","2","1","1,0.333,0.333,0.333,1,0.333,0.333,0.333,1","1,0.333,0.333,0.333,1,0.333,0.333,0.333,1","1",""
"","html-keyboard-response","285","180655","0.0-285.0","3A7Y0R2P2PAQDNO8NZ3VGBRIC9IJX0","A1E3N1Y6XG1898","3I7KR83SNAZT1REYB2SRC49PCEEK9H","","null","<img src=""img/flower1.png"" style=""width:200px; border:14px solid green;"">","null","","","","","","","","",""
"","image-keyboard-response","286","181376","0.0-286.0","3A7Y0R2P2PAQDNO8NZ3VGBRIC9IJX0","A1E3N1Y6XG1898","3I7KR83SNAZT1REYB2SRC49PCEEK9H","","718.6999999880791","img/flower5.png","74","719.4000000059605","1","0","3","1","1,0.333,0.333,0.333,1,0.333,0.333,0.333,1","1,0.333,0.333,0.333,1,0.333,0.333,0.333,1","1",""
"","html-keyboard-response","287","181678","0.0-287.0","3A7Y0R2P2PAQDNO8NZ3VGBRIC9IJX0","A1E3N1Y6XG1898","3I7KR83SNAZT1REYB2SRC49PCEEK9H","","null","<img src=""img/flower5.png"" style=""width:200px;border:14px solid red;"">","null","","","","","","","","",""
"","image-keyboard-response","288","182427","0.0-288.0","3A7Y0R2P2PAQDNO8NZ3VGBRIC9IJX0","A1E3N1Y6XG1898","3I7KR83SNAZT1REYB2SRC49PCEEK9H","","748.1000000089407","img/flower1.png","75","748.8999999910593","2","1","2","1","1,0.333,0.333,0.333,1,0.333,0.333,0.333,1","1,0.333,0.333,0.333,1,0.333,0.333,0.333,1","1",""
"","html-keyboard-response","289","182729","0.0-289.0","3A7Y0R2P2PAQDNO8NZ3VGBRIC9IJX0","A1E3N1Y6XG1898","3I7KR83SNAZT1REYB2SRC49PCEEK9H","","null","<img src=""img/flower1.png"" style=""width:200px; border:14px solid green;"">","null","","","","","","","","",""
"","image-keyboard-response","290","183622","0.0-290.0","3A7Y0R2P2PAQDNO8NZ3VGBRIC9IJX0","A1E3N1Y6XG1898","3I7KR83SNAZT1REYB2SRC49PCEEK9H","","891.9000000059605","img/flower3.png","74","892.2999999970198","1","1","1","1","1,0.333,0.333,0.333,1,0.333,0.333,0.333,1","1,0.333,0.333,0.333,1,0.333,0.333,0.333,1","1",""
"","html-keyboard-response","291","183927","0.0-291.0","3A7Y0R2P2PAQDNO8NZ3VGBRIC9IJX0","A1E3N1Y6XG1898","3I7KR83SNAZT1REYB2SRC49PCEEK9H","","null","<img src=""img/flower3.png"" style=""width:200px; border:14px solid green;"">","null","","","","","","","","",""
"","image-keyboard-response","292","184493","0.0-292.0","3A7Y0R2P2PAQDNO8NZ3VGBRIC9IJX0","A1E3N1Y6XG1898","3I7KR83SNAZT1REYB2SRC49PCEEK9H","","564.5","img/flower3.png","74","565","1","1","1","1","1,0.333,0.333,0.333,1,0.333,0.333,0.333,1","1,0.333,0.333,0.333,1,0.333,0.333,0.333,1","1",""
"","html-keyboard-response","293","184795","0.0-293.0","3A7Y0R2P2PAQDNO8NZ3VGBRIC9IJX0","A1E3N1Y6XG1898","3I7KR83SNAZT1REYB2SRC49PCEEK9H","","null","<img src=""img/flower3.png"" style=""width:200px; border:14px solid green;"">","null","","","","","","","","",""
"","image-keyboard-response","294","185495","0.0-294.0","3A7Y0R2P2PAQDNO8NZ3VGBRIC9IJX0","A1E3N1Y6XG1898","3I7KR83SNAZT1REYB2SRC49PCEEK9H","","699.2999999970198","img/flower1.png","75","700.1000000089407","2","1","2","1","1,0.333,0.333,0.333,1,0.333,0.333,0.333,1","1,0.333,0.333,0.333,1,0.333,0.333,0.333,1","1",""
"","html-keyboard-response","295","185800","0.0-295.0","3A7Y0R2P2PAQDNO8NZ3VGBRIC9IJX0","A1E3N1Y6XG1898","3I7KR83SNAZT1REYB2SRC49PCEEK9H","","null","<img src=""img/flower1.png"" style=""width:200px; border:14px solid green;"">","null","","","","","","","","",""
"","image-keyboard-response","296","186392","0.0-296.0","3A7Y0R2P2PAQDNO8NZ3VGBRIC9IJX0","A1E3N1Y6XG1898","3I7KR83SNAZT1REYB2SRC49PCEEK9H","","591.2999999970198","img/flower3.png","74","592","1","1","1","1","1,0.333,0.333,0.333,1,0.333,0.333,0.333,1","1,0.333,0.333,0.333,1,0.333,0.333,0.333,1","1",""
"","html-keyboard-response","297","186693","0.0-297.0","3A7Y0R2P2PAQDNO8NZ3VGBRIC9IJX0","A1E3N1Y6XG1898","3I7KR83SNAZT1REYB2SRC49PCEEK9H","","null","<img src=""img/flower3.png"" style=""width:200px; border:14px solid green;"">","null","","","","","","","","",""
"","image-keyboard-response","298","187529","0.0-298.0","3A7Y0R2P2PAQDNO8NZ3VGBRIC9IJX0","A1E3N1Y6XG1898","3I7KR83SNAZT1REYB2SRC49PCEEK9H","","834.8999999910593","img/flower5.png","75","835.4000000059605","2","0","3","1","1,0.333,0.333,0.333,1,0.333,0.333,0.333,1","1,0.333,0.333,0.333,1,0.333,0.333,0.333,1","1",""
"","html-keyboard-response","299","187834","0.0-299.0","3A7Y0R2P2PAQDNO8NZ3VGBRIC9IJX0","A1E3N1Y6XG1898","3I7KR83SNAZT1REYB2SRC49PCEEK9H","","null","<img src=""img/flower5.png"" style=""width:200px;border:14px solid red;"">","null","","","","","","","","",""
"","image-keyboard-response","300","189105","0.0-300.0","3A7Y0R2P2PAQDNO8NZ3VGBRIC9IJX0","A1E3N1Y6XG1898","3I7KR83SNAZT1REYB2SRC49PCEEK9H","","1269.5","img/flower3.png","74","1270.1000000089407","1","1","1","1","1,0.333,0.333,0.333,1,0.333,0.333,0.333,1","1,0.333,0.333,0.333,1,0.333,0.333,0.333,1","1",""
"","html-keyboard-response","301","189406","0.0-301.0","3A7Y0R2P2PAQDNO8NZ3VGBRIC9IJX0","A1E3N1Y6XG1898","3I7KR83SNAZT1REYB2SRC49PCEEK9H","","null","<img src=""img/flower3.png"" style=""width:200px; border:14px solid green;"">","null","","","","","","","","",""
"","image-keyboard-response","302","190253","0.0-302.0","3A7Y0R2P2PAQDNO8NZ3VGBRIC9IJX0","A1E3N1Y6XG1898","3I7KR83SNAZT1REYB2SRC49PCEEK9H","","846.5","img/flower3.png","74","846.8999999910593","1","1","1","1","1,0.333,0.333,0.333,1,0.333,0.333,0.333,1","1,0.333,0.333,0.333,1,0.333,0.333,0.333,1","1",""
"","html-keyboard-response","303","190558","0.0-303.0","3A7Y0R2P2PAQDNO8NZ3VGBRIC9IJX0","A1E3N1Y6XG1898","3I7KR83SNAZT1REYB2SRC49PCEEK9H","","null","<img src=""img/flower3.png"" style=""width:200px; border:14px solid green;"">","null","","","","","","","","",""
"","image-keyboard-response","304","191327","0.0-304.0","3A7Y0R2P2PAQDNO8NZ3VGBRIC9IJX0","A1E3N1Y6XG1898","3I7KR83SNAZT1REYB2SRC49PCEEK9H","","767.5","img/flower1.png","75","768.2000000029802","2","1","2","1","1,0.333,0.333,0.333,1,0.333,0.333,0.333,1","1,0.333,0.333,0.333,1,0.333,0.333,0.333,1","1",""
"","html-keyboard-response","305","191628","0.0-305.0","3A7Y0R2P2PAQDNO8NZ3VGBRIC9IJX0","A1E3N1Y6XG1898","3I7KR83SNAZT1REYB2SRC49PCEEK9H","","null","<img src=""img/flower1.png"" style=""width:200px; border:14px solid green;"">","null","","","","","","","","",""
"","image-keyboard-response","306","192279","0.0-306.0","3A7Y0R2P2PAQDNO8NZ3VGBRIC9IJX0","A1E3N1Y6XG1898","3I7KR83SNAZT1REYB2SRC49PCEEK9H","","649.7000000029802","img/flower5.png","74","650.5","1","0","3","1","1,0.333,0.333,0.333,1,0.333,0.333,0.333,1","1,0.333,0.333,0.333,1,0.333,0.333,0.333,1","1",""
"","html-keyboard-response","307","192582","0.0-307.0","3A7Y0R2P2PAQDNO8NZ3VGBRIC9IJX0","A1E3N1Y6XG1898","3I7KR83SNAZT1REYB2SRC49PCEEK9H","","null","<img src=""img/flower5.png"" style=""width:200px;border:14px solid red;"">","null","","","","","","","","",""
"","image-keyboard-response","308","193262","0.0-308.0","3A7Y0R2P2PAQDNO8NZ3VGBRIC9IJX0","A1E3N1Y6XG1898","3I7KR83SNAZT1REYB2SRC49PCEEK9H","","679.7000000029802","img/flower5.png","75","680.3000000119209","2","1","3","1","1,0.333,0.333,0.333,1,0.333,0.333,0.333,1","1,0.333,0.333,0.333,1,0.333,0.333,0.333,1","1",""
"","html-keyboard-response","309","193564","0.0-309.0","3A7Y0R2P2PAQDNO8NZ3VGBRIC9IJX0","A1E3N1Y6XG1898","3I7KR83SNAZT1REYB2SRC49PCEEK9H","","null","<img src=""img/flower5.png"" style=""width:200px; border:14px solid green;"">","null","","","","","","","","",""
"","image-keyboard-response","310","194305","0.0-310.0","3A7Y0R2P2PAQDNO8NZ3VGBRIC9IJX0","A1E3N1Y6XG1898","3I7KR83SNAZT1REYB2SRC49PCEEK9H","","739.5999999940395","img/flower5.png","75","740.4000000059605","2","0","3","1","1,0.333,0.333,0.333,1,0.333,0.333,0.333,1","1,0.333,0.333,0.333,1,0.333,0.333,0.333,1","1",""
"","html-keyboard-response","311","194610","0.0-311.0","3A7Y0R2P2PAQDNO8NZ3VGBRIC9IJX0","A1E3N1Y6XG1898","3I7KR83SNAZT1REYB2SRC49PCEEK9H","","null","<img src=""img/flower5.png"" style=""width:200px;border:14px solid red;"">","null","","","","","","","","",""
"","image-keyboard-response","312","195806","0.0-312.0","3A7Y0R2P2PAQDNO8NZ3VGBRIC9IJX0","A1E3N1Y6XG1898","3I7KR83SNAZT1REYB2SRC49PCEEK9H","","1194.9000000059605","img/flower1.png","75","1195.5999999940395","2","1","2","1","1,0.333,0.333,0.333,1,0.333,0.333,0.333,1","1,0.333,0.333,0.333,1,0.333,0.333,0.333,1","1",""
"","html-keyboard-response","313","196112","0.0-313.0","3A7Y0R2P2PAQDNO8NZ3VGBRIC9IJX0","A1E3N1Y6XG1898","3I7KR83SNAZT1REYB2SRC49PCEEK9H","","null","<img src=""img/flower1.png"" style=""width:200px; border:14px solid green;"">","null","","","","","","","","",""
"","image-keyboard-response","314","196889","0.0-314.0","3A7Y0R2P2PAQDNO8NZ3VGBRIC9IJX0","A1E3N1Y6XG1898","3I7KR83SNAZT1REYB2SRC49PCEEK9H","","776","img/flower5.png","75","776.9000000059605","2","1","3","1","1,0.333,0.333,0.333,1,0.333,0.333,0.333,1","1,0.333,0.333,0.333,1,0.333,0.333,0.333,1","1",""
"","html-keyboard-response","315","197191","0.0-315.0","3A7Y0R2P2PAQDNO8NZ3VGBRIC9IJX0","A1E3N1Y6XG1898","3I7KR83SNAZT1REYB2SRC49PCEEK9H","","null","<img src=""img/flower5.png"" style=""width:200px; border:14px solid green;"">","null","","","","","","","","",""
"","image-keyboard-response","316","197817","0.0-316.0","3A7Y0R2P2PAQDNO8NZ3VGBRIC9IJX0","A1E3N1Y6XG1898","3I7KR83SNAZT1REYB2SRC49PCEEK9H","","625.3999999910593","img/flower3.png","74","626.0999999940395","1","1","1","1","1,0.333,0.333,0.333,1,0.333,0.333,0.333,1","1,0.333,0.333,0.333,1,0.333,0.333,0.333,1","1",""
"","html-keyboard-response","317","198120","0.0-317.0","3A7Y0R2P2PAQDNO8NZ3VGBRIC9IJX0","A1E3N1Y6XG1898","3I7KR83SNAZT1REYB2SRC49PCEEK9H","","null","<img src=""img/flower3.png"" style=""width:200px; border:14px solid green;"">","null","","","","","","","","",""
"","image-keyboard-response","318","198703","0.0-318.0","3A7Y0R2P2PAQDNO8NZ3VGBRIC9IJX0","A1E3N1Y6XG1898","3I7KR83SNAZT1REYB2SRC49PCEEK9H","","581.5","img/flower3.png","74","582.2000000029802","1","1","1","1","1,0.333,0.333,0.333,1,0.333,0.333,0.333,1","1,0.333,0.333,0.333,1,0.333,0.333,0.333,1","1",""
"","html-keyboard-response","319","199008","0.0-319.0","3A7Y0R2P2PAQDNO8NZ3VGBRIC9IJX0","A1E3N1Y6XG1898","3I7KR83SNAZT1REYB2SRC49PCEEK9H","","null","<img src=""img/flower3.png"" style=""width:200px; border:14px solid green;"">","null","","","","","","","","",""
"","image-keyboard-response","320","199580","0.0-320.0","3A7Y0R2P2PAQDNO8NZ3VGBRIC9IJX0","A1E3N1Y6XG1898","3I7KR83SNAZT1REYB2SRC49PCEEK9H","","569.9000000059605","img/flower5.png","75","570.5","2","1","3","1","1,0.333,0.333,0.333,1,0.333,0.333,0.333,1","1,0.333,0.333,0.333,1,0.333,0.333,0.333,1","1",""
"","html-keyboard-response","321","199881","0.0-321.0","3A7Y0R2P2PAQDNO8NZ3VGBRIC9IJX0","A1E3N1Y6XG1898","3I7KR83SNAZT1REYB2SRC49PCEEK9H","","null","<img src=""img/flower5.png"" style=""width:200px; border:14px solid green;"">","null","","","","","","","","",""
"","image-keyboard-response","322","200540","0.0-322.0","3A7Y0R2P2PAQDNO8NZ3VGBRIC9IJX0","A1E3N1Y6XG1898","3I7KR83SNAZT1REYB2SRC49PCEEK9H","","657.9000000059605","img/flower3.png","74","658.5","1","1","1","1","1,0.333,0.333,0.333,1,0.333,0.333,0.333,1","1,0.333,0.333,0.333,1,0.333,0.333,0.333,1","1",""
"","html-keyboard-response","323","200842","0.0-323.0","3A7Y0R2P2PAQDNO8NZ3VGBRIC9IJX0","A1E3N1Y6XG1898","3I7KR83SNAZT1REYB2SRC49PCEEK9H","","null","<img src=""img/flower3.png"" style=""width:200px; border:14px solid green;"">","null","","","","","","","","",""
"","image-keyboard-response","324","201601","0.0-324.0","3A7Y0R2P2PAQDNO8NZ3VGBRIC9IJX0","A1E3N1Y6XG1898","3I7KR83SNAZT1REYB2SRC49PCEEK9H","","758.5","img/flower3.png","74","758.8999999910593","1","1","1","1","1,0.333,0.333,0.333,1,0.333,0.333,0.333,1","1,0.333,0.333,0.333,1,0.333,0.333,0.333,1","1",""
"","html-keyboard-response","325","201904","0.0-325.0","3A7Y0R2P2PAQDNO8NZ3VGBRIC9IJX0","A1E3N1Y6XG1898","3I7KR83SNAZT1REYB2SRC49PCEEK9H","","null","<img src=""img/flower3.png"" style=""width:200px; border:14px solid green;"">","null","","","","","","","","",""
"","image-keyboard-response","326","202611","0.0-326.0","3A7Y0R2P2PAQDNO8NZ3VGBRIC9IJX0","A1E3N1Y6XG1898","3I7KR83SNAZT1REYB2SRC49PCEEK9H","","706.9000000059605","img/flower1.png","75","707.3999999910593","2","1","2","1","1,0.333,0.333,0.333,1,0.333,0.333,0.333,1","1,0.333,0.333,0.333,1,0.333,0.333,0.333,1","1",""
"","html-keyboard-response","327","202915","0.0-327.0","3A7Y0R2P2PAQDNO8NZ3VGBRIC9IJX0","A1E3N1Y6XG1898","3I7KR83SNAZT1REYB2SRC49PCEEK9H","","null","<img src=""img/flower1.png"" style=""width:200px; border:14px solid green;"">","null","","","","","","","","",""
"","image-keyboard-response","328","203716","0.0-328.0","3A7Y0R2P2PAQDNO8NZ3VGBRIC9IJX0","A1E3N1Y6XG1898","3I7KR83SNAZT1REYB2SRC49PCEEK9H","","800.1999999880791","img/flower5.png","75","800.5999999940395","2","1","3","1","1,0.333,0.333,0.333,1,0.333,0.333,0.333,1","1,0.333,0.333,0.333,1,0.333,0.333,0.333,1","1",""
"","html-keyboard-response","329","204021","0.0-329.0","3A7Y0R2P2PAQDNO8NZ3VGBRIC9IJX0","A1E3N1Y6XG1898","3I7KR83SNAZT1REYB2SRC49PCEEK9H","","null","<img src=""img/flower5.png"" style=""width:200px; border:14px solid green;"">","null","","","","","","","","",""
"","image-keyboard-response","330","204678","0.0-330.0","3A7Y0R2P2PAQDNO8NZ3VGBRIC9IJX0","A1E3N1Y6XG1898","3I7KR83SNAZT1REYB2SRC49PCEEK9H","","655.9000000059605","img/flower3.png","74","656.7000000029802","1","1","1","1","1,0.333,0.333,0.333,1,0.333,0.333,0.333,1","1,0.333,0.333,0.333,1,0.333,0.333,0.333,1","1",""
"","html-keyboard-response","331","204981","0.0-331.0","3A7Y0R2P2PAQDNO8NZ3VGBRIC9IJX0","A1E3N1Y6XG1898","3I7KR83SNAZT1REYB2SRC49PCEEK9H","","null","<img src=""img/flower3.png"" style=""width:200px; border:14px solid green;"">","null","","","","","","","","",""
"","image-keyboard-response","332","205570","0.0-332.0","3A7Y0R2P2PAQDNO8NZ3VGBRIC9IJX0","A1E3N1Y6XG1898","3I7KR83SNAZT1REYB2SRC49PCEEK9H","","587.7000000029802","img/flower5.png","75","588.2999999970198","2","0","3","1","1,0.333,0.333,0.333,1,0.333,0.333,0.333,1","1,0.333,0.333,0.333,1,0.333,0.333,0.333,1","1",""
"","html-keyboard-response","333","205875","0.0-333.0","3A7Y0R2P2PAQDNO8NZ3VGBRIC9IJX0","A1E3N1Y6XG1898","3I7KR83SNAZT1REYB2SRC49PCEEK9H","","null","<img src=""img/flower5.png"" style=""width:200px;border:14px solid red;"">","null","","","","","","","","",""
"","image-keyboard-response","334","206896","0.0-334.0","3A7Y0R2P2PAQDNO8NZ3VGBRIC9IJX0","A1E3N1Y6XG1898","3I7KR83SNAZT1REYB2SRC49PCEEK9H","","1019.6000000089407","img/flower1.png","75","1020.2000000029802","2","1","2","1","1,0.333,0.333,0.333,1,0.333,0.333,0.333,1","1,0.333,0.333,0.333,1,0.333,0.333,0.333,1","1",""
"","html-keyboard-response","335","207197","0.0-335.0","3A7Y0R2P2PAQDNO8NZ3VGBRIC9IJX0","A1E3N1Y6XG1898","3I7KR83SNAZT1REYB2SRC49PCEEK9H","","null","<img src=""img/flower1.png"" style=""width:200px; border:14px solid green;"">","null","","","","","","","","",""
"","image-keyboard-response","336","207787","0.0-336.0","3A7Y0R2P2PAQDNO8NZ3VGBRIC9IJX0","A1E3N1Y6XG1898","3I7KR83SNAZT1REYB2SRC49PCEEK9H","","588.5","img/flower3.png","74","589","1","1","1","1","1,0.333,0.333,0.333,1,0.333,0.333,0.333,1","1,0.333,0.333,0.333,1,0.333,0.333,0.333,1","1",""
"","html-keyboard-response","337","208088","0.0-337.0","3A7Y0R2P2PAQDNO8NZ3VGBRIC9IJX0","A1E3N1Y6XG1898","3I7KR83SNAZT1REYB2SRC49PCEEK9H","","null","<img src=""img/flower3.png"" style=""width:200px; border:14px solid green;"">","null","","","","","","","","",""
"","image-keyboard-response","338","208641","0.0-338.0","3A7Y0R2P2PAQDNO8NZ3VGBRIC9IJX0","A1E3N1Y6XG1898","3I7KR83SNAZT1REYB2SRC49PCEEK9H","","551.6999999880791","img/flower1.png","75","552.5","2","1","2","1","1,0.333,0.333,0.333,1,0.333,0.333,0.333,1","1,0.333,0.333,0.333,1,0.333,0.333,0.333,1","1",""
"","html-keyboard-response","339","208943","0.0-339.0","3A7Y0R2P2PAQDNO8NZ3VGBRIC9IJX0","A1E3N1Y6XG1898","3I7KR83SNAZT1REYB2SRC49PCEEK9H","","null","<img src=""img/flower1.png"" style=""width:200px; border:14px solid green;"">","null","","","","","","","","",""
"","image-keyboard-response","340","209538","0.0-340.0","3A7Y0R2P2PAQDNO8NZ3VGBRIC9IJX0","A1E3N1Y6XG1898","3I7KR83SNAZT1REYB2SRC49PCEEK9H","","594.5","img/flower1.png","75","595.2999999970198","2","1","2","1","1,0.333,0.333,0.333,1,0.333,0.333,0.333,1","1,0.333,0.333,0.333,1,0.333,0.333,0.333,1","1",""
"","html-keyboard-response","341","209840","0.0-341.0","3A7Y0R2P2PAQDNO8NZ3VGBRIC9IJX0","A1E3N1Y6XG1898","3I7KR83SNAZT1REYB2SRC49PCEEK9H","","null","<img src=""img/flower1.png"" style=""width:200px; border:14px solid green;"">","null","","","","","","","","",""
"","image-keyboard-response","342","210522","0.0-342.0","3A7Y0R2P2PAQDNO8NZ3VGBRIC9IJX0","A1E3N1Y6XG1898","3I7KR83SNAZT1REYB2SRC49PCEEK9H","","680.3999999910593","img/flower1.png","75","681.0999999940395","2","1","2","1","1,0.333,0.333,0.333,1,0.333,0.333,0.333,1","1,0.333,0.333,0.333,1,0.333,0.333,0.333,1","1",""
"","html-keyboard-response","343","210824","0.0-343.0","3A7Y0R2P2PAQDNO8NZ3VGBRIC9IJX0","A1E3N1Y6XG1898","3I7KR83SNAZT1REYB2SRC49PCEEK9H","","null","<img src=""img/flower1.png"" style=""width:200px; border:14px solid green;"">","null","","","","","","","","",""
"","image-keyboard-response","344","211420","0.0-344.0","3A7Y0R2P2PAQDNO8NZ3VGBRIC9IJX0","A1E3N1Y6XG1898","3I7KR83SNAZT1REYB2SRC49PCEEK9H","","594.7999999970198","img/flower3.png","74","595.3999999910593","1","1","1","1","1,0.333,0.333,0.333,1,0.333,0.333,0.333,1","1,0.333,0.333,0.333,1,0.333,0.333,0.333,1","1",""
"","html-keyboard-response","345","211722","0.0-345.0","3A7Y0R2P2PAQDNO8NZ3VGBRIC9IJX0","A1E3N1Y6XG1898","3I7KR83SNAZT1REYB2SRC49PCEEK9H","","null","<img src=""img/flower3.png"" style=""width:200px; border:14px solid green;"">","null","","","","","","","","",""
"","image-keyboard-response","346","212465","0.0-346.0","3A7Y0R2P2PAQDNO8NZ3VGBRIC9IJX0","A1E3N1Y6XG1898","3I7KR83SNAZT1REYB2SRC49PCEEK9H","","741.7999999970198","img/flower3.png","74","742.2000000029802","1","1","1","1","1,0.333,0.333,0.333,1,0.333,0.333,0.333,1","1,0.333,0.333,0.333,1,0.333,0.333,0.333,1","1",""
"","html-keyboard-response","347","212767","0.0-347.0","3A7Y0R2P2PAQDNO8NZ3VGBRIC9IJX0","A1E3N1Y6XG1898","3I7KR83SNAZT1REYB2SRC49PCEEK9H","","null","<img src=""img/flower3.png"" style=""width:200px; border:14px solid green;"">","null","","","","","","","","",""
"","image-keyboard-response","348","213314","0.0-348.0","3A7Y0R2P2PAQDNO8NZ3VGBRIC9IJX0","A1E3N1Y6XG1898","3I7KR83SNAZT1REYB2SRC49PCEEK9H","","545.1000000089407","img/flower5.png","75","545.7999999970198","2","0","3","1","1,0.333,0.333,0.333,1,0.333,0.333,0.333,1","1,0.333,0.333,0.333,1,0.333,0.333,0.333,1","1",""
"","html-keyboard-response","349","213616","0.0-349.0","3A7Y0R2P2PAQDNO8NZ3VGBRIC9IJX0","A1E3N1Y6XG1898","3I7KR83SNAZT1REYB2SRC49PCEEK9H","","null","<img src=""img/flower5.png"" style=""width:200px;border:14px solid red;"">","null","","","","","","","","",""
"","image-keyboard-response","350","214414","0.0-350.0","3A7Y0R2P2PAQDNO8NZ3VGBRIC9IJX0","A1E3N1Y6XG1898","3I7KR83SNAZT1REYB2SRC49PCEEK9H","","796.5999999940395","img/flower5.png","75","797.5","2","0","3","1","1,0.333,0.333,0.333,1,0.333,0.333,0.333,1","1,0.333,0.333,0.333,1,0.333,0.333,0.333,1","1",""
"","html-keyboard-response","351","214717","0.0-351.0","3A7Y0R2P2PAQDNO8NZ3VGBRIC9IJX0","A1E3N1Y6XG1898","3I7KR83SNAZT1REYB2SRC49PCEEK9H","","null","<img src=""img/flower5.png"" style=""width:200px;border:14px solid red;"">","null","","","","","","","","",""
"","image-keyboard-response","352","215380","0.0-352.0","3A7Y0R2P2PAQDNO8NZ3VGBRIC9IJX0","A1E3N1Y6XG1898","3I7KR83SNAZT1REYB2SRC49PCEEK9H","","661.8999999910593","img/flower3.png","74","662.6000000089407","1","1","1","1","1,0.333,0.333,0.333,1,0.333,0.333,0.333,1","1,0.333,0.333,0.333,1,0.333,0.333,0.333,1","1",""
"","html-keyboard-response","353","215681","0.0-353.0","3A7Y0R2P2PAQDNO8NZ3VGBRIC9IJX0","A1E3N1Y6XG1898","3I7KR83SNAZT1REYB2SRC49PCEEK9H","","null","<img src=""img/flower3.png"" style=""width:200px; border:14px solid green;"">","null","","","","","","","","",""
"","image-keyboard-response","354","216469","0.0-354.0","3A7Y0R2P2PAQDNO8NZ3VGBRIC9IJX0","A1E3N1Y6XG1898","3I7KR83SNAZT1REYB2SRC49PCEEK9H","","787","img/flower3.png","74","787.5999999940395","1","1","1","1","1,0.333,0.333,0.333,1,0.333,0.333,0.333,1","1,0.333,0.333,0.333,1,0.333,0.333,0.333,1","1",""
"","html-keyboard-response","355","216775","0.0-355.0","3A7Y0R2P2PAQDNO8NZ3VGBRIC9IJX0","A1E3N1Y6XG1898","3I7KR83SNAZT1REYB2SRC49PCEEK9H","","null","<img src=""img/flower3.png"" style=""width:200px; border:14px solid green;"">","null","","","","","","","","",""
"","image-keyboard-response","356","217444","0.0-356.0","3A7Y0R2P2PAQDNO8NZ3VGBRIC9IJX0","A1E3N1Y6XG1898","3I7KR83SNAZT1REYB2SRC49PCEEK9H","","667","img/flower3.png","74","667.8000000119209","1","1","1","1","1,0.333,0.333,0.333,1,0.333,0.333,0.333,1","1,0.333,0.333,0.333,1,0.333,0.333,0.333,1","1",""
"","html-keyboard-response","357","217748","0.0-357.0","3A7Y0R2P2PAQDNO8NZ3VGBRIC9IJX0","A1E3N1Y6XG1898","3I7KR83SNAZT1REYB2SRC49PCEEK9H","","null","<img src=""img/flower3.png"" style=""width:200px; border:14px solid green;"">","null","","","","","","","","",""
"","image-keyboard-response","358","218351","0.0-358.0","3A7Y0R2P2PAQDNO8NZ3VGBRIC9IJX0","A1E3N1Y6XG1898","3I7KR83SNAZT1REYB2SRC49PCEEK9H","","600.7000000029802","img/flower1.png","75","601.2000000029802","2","1","2","1","1,0.333,0.333,0.333,1,0.333,0.333,0.333,1","1,0.333,0.333,0.333,1,0.333,0.333,0.333,1","1",""
"","html-keyboard-response","359","218655","0.0-359.0","3A7Y0R2P2PAQDNO8NZ3VGBRIC9IJX0","A1E3N1Y6XG1898","3I7KR83SNAZT1REYB2SRC49PCEEK9H","","null","<img src=""img/flower1.png"" style=""width:200px; border:14px solid green;"">","null","","","","","","","","",""
"","image-keyboard-response","360","219376","0.0-360.0","3A7Y0R2P2PAQDNO8NZ3VGBRIC9IJX0","A1E3N1Y6XG1898","3I7KR83SNAZT1REYB2SRC49PCEEK9H","","720.2999999970198","img/flower5.png","75","720.7000000029802","2","1","3","1","1,0.333,0.333,0.333,1,0.333,0.333,0.333,1","1,0.333,0.333,0.333,1,0.333,0.333,0.333,1","1",""
"","html-keyboard-response","361","219679","0.0-361.0","3A7Y0R2P2PAQDNO8NZ3VGBRIC9IJX0","A1E3N1Y6XG1898","3I7KR83SNAZT1REYB2SRC49PCEEK9H","","null","<img src=""img/flower5.png"" style=""width:200px; border:14px solid green;"">","null","","","","","","","","",""
"","html-keyboard-response","362","224981","0.0-362.0","3A7Y0R2P2PAQDNO8NZ3VGBRIC9IJX0","A1E3N1Y6XG1898","3I7KR83SNAZT1REYB2SRC49PCEEK9H","","","","","","","","","","","","",""
"","instructions","363","228604","0.0-363.0","3A7Y0R2P2PAQDNO8NZ3VGBRIC9IJX0","A1E3N1Y6XG1898","3I7KR83SNAZT1REYB2SRC49PCEEK9H","[{""page_index"":0,""viewing_time"":3621.199999988079}]","3621.3999999910593","","","","","","","","","","",""
"","survey-text","364","232102","0.0-364.0","3A7Y0R2P2PAQDNO8NZ3VGBRIC9IJX0","A1E3N1Y6XG1898","3I7KR83SNAZT1REYB2SRC49PCEEK9H","","3494.9000000059605","","","","","","","","","","","{""Q0"":""A1E3N1Y6XG1898""}"
