"success","trial_type","trial_index","time_elapsed","internal_node_id","assignmentID","mturkID","hitID","view_history","rt","stimulus","key_press","reactionTime","a","r","s","cond","reward_cond","reward_cond_actual","reward_matrix_idx","responses"
"true","fullscreen","0","4101","0.0-0.0","36W0OB37HX0JRCTX0HOV1JRE7JSHZA","A1EIKIHK12UDP0","3RBI0I35XEP26UEZY8S8UZLEA1IY3E","","","","","","","","","","","","",""
"","instructions","1","102507","0.0-1.0","36W0OB37HX0JRCTX0HOV1JRE7JSHZA","A1EIKIHK12UDP0","3RBI0I35XEP26UEZY8S8UZLEA1IY3E","[{""page_index"":0,""viewing_time"":5559.29999999702},{""page_index"":1,""viewing_time"":5597},{""page_index"":2,""viewing_time"":1541.8999999985099},{""page_index"":3,""viewing_time"":9213.5},{""page_index"":4,""viewing_time"":20690.10000000149},{""page_index"":5,""viewing_time"":14677.70000000298},{""page_index"":6,""viewing_time"":13883.5},{""page_index"":7,""viewing_time"":27237.60000000149}]","98402","","","","","","","","","","",""
"","image-keyboard-response","2","103510","0.0-2.0","36W0OB37HX0JRCTX0HOV1JRE7JSHZA","A1EIKIHK12UDP0","3RBI0I35XEP26UEZY8S8UZLEA1IY3E","","998.6000000014901","img/flower6.png","76","1001.8000000044703","3","1","3","2","1,0,0,1,1,0,1,0,1","0,0,1,1,0,1,0,1,1","2",""
"","html-keyboard-response","3","103814","0.0-3.0","36W0OB37HX0JRCTX0HOV1JRE7JSHZA","A1EIKIHK12UDP0","3RBI0I35XEP26UEZY8S8UZLEA1IY3E","","null","<img src=""img/flower6.png"" style=""width:200px; border:14px solid green;"">","null","","","","","","","","",""
"","image-keyboard-response","4","105203","0.0-4.0","36W0OB37HX0JRCTX0HOV1JRE7JSHZA","A1EIKIHK12UDP0","3RBI0I35XEP26UEZY8S8UZLEA1IY3E","","1385.0999999940395","img/flower2.png","74","1388.1000000014901","1","1","2","2","1,0,0,1,1,0,1,0,1","0,0,1,1,0,1,0,1,1","2",""
"","html-keyboard-response","5","105507","0.0-5.0","36W0OB37HX0JRCTX0HOV1JRE7JSHZA","A1EIKIHK12UDP0","3RBI0I35XEP26UEZY8S8UZLEA1IY3E","","null","<img src=""img/flower2.png"" style=""width:200px; border:14px solid green;"">","null","","","","","","","","",""
"","image-keyboard-response","6","106918","0.0-6.0","36W0OB37HX0JRCTX0HOV1JRE7JSHZA","A1EIKIHK12UDP0","3RBI0I35XEP26UEZY8S8UZLEA1IY3E","","1408.1000000014901","img/flower4.png","76","1410.5","3","1","1","2","1,0,0,1,1,0,1,0,1","0,0,1,1,0,1,0,1,1","2",""
"","html-keyboard-response","7","107221","0.0-7.0","36W0OB37HX0JRCTX0HOV1JRE7JSHZA","A1EIKIHK12UDP0","3RBI0I35XEP26UEZY8S8UZLEA1IY3E","","null","<img src=""img/flower4.png"" style=""width:200px; border:14px solid green;"">","null","","","","","","","","",""
"","image-keyboard-response","8","108564","0.0-8.0","36W0OB37HX0JRCTX0HOV1JRE7JSHZA","A1EIKIHK12UDP0","3RBI0I35XEP26UEZY8S8UZLEA1IY3E","","1339.7999999970198","img/flower6.png","74","1342.5","1","0","3","2","1,0,0,1,1,0,1,0,1","0,0,1,1,0,1,0,1,1","2",""
"","html-keyboard-response","9","108867","0.0-9.0","36W0OB37HX0JRCTX0HOV1JRE7JSHZA","A1EIKIHK12UDP0","3RBI0I35XEP26UEZY8S8UZLEA1IY3E","","null","<img src=""img/flower6.png"" style=""width:200px;border:14px solid red;"">","null","","","","","","","","",""
"","image-keyboard-response","10","109575","0.0-10.0","36W0OB37HX0JRCTX0HOV1JRE7JSHZA","A1EIKIHK12UDP0","3RBI0I35XEP26UEZY8S8UZLEA1IY3E","","704.1999999955297","img/flower6.png","76","707","3","1","3","2","1,0,0,1,1,0,1,0,1","0,0,1,1,0,1,0,1,1","2",""
"","html-keyboard-response","11","109878","0.0-11.0","36W0OB37HX0JRCTX0HOV1JRE7JSHZA","A1EIKIHK12UDP0","3RBI0I35XEP26UEZY8S8UZLEA1IY3E","","null","<img src=""img/flower6.png"" style=""width:200px; border:14px solid green;"">","null","","","","","","","","",""
"","image-keyboard-response","12","110905","0.0-12.0","36W0OB37HX0JRCTX0HOV1JRE7JSHZA","A1EIKIHK12UDP0","3RBI0I35XEP26UEZY8S8UZLEA1IY3E","","1024.6000000014901","img/flower6.png","76","1026.7000000029802","3","1","3","2","1,0,0,1,1,0,1,0,1","0,0,1,1,0,1,0,1,1","2",""
"","html-keyboard-response","13","111209","0.0-13.0","36W0OB37HX0JRCTX0HOV1JRE7JSHZA","A1EIKIHK12UDP0","3RBI0I35XEP26UEZY8S8UZLEA1IY3E","","null","<img src=""img/flower6.png"" style=""width:200px; border:14px solid green;"">","null","","","","","","","","",""
"","image-keyboard-response","14","112242","0.0-14.0","36W0OB37HX0JRCTX0HOV1JRE7JSHZA","A1EIKIHK12UDP0","3RBI0I35XEP26UEZY8S8UZLEA1IY3E","","1029.2000000029802","img/flower2.png","74","1032.5","1","1","2","2","1,0,0,1,1,0,1,0,1","0,0,1,1,0,1,0,1,1","2",""
"","html-keyboard-response","15","112546","0.0-15.0","36W0OB37HX0JRCTX0HOV1JRE7JSHZA","A1EIKIHK12UDP0","3RBI0I35XEP26UEZY8S8UZLEA1IY3E","","null","<img src=""img/flower2.png"" style=""width:200px; border:14px solid green;"">","null","","","","","","","","",""
"","image-keyboard-response","16","113414","0.0-16.0","36W0OB37HX0JRCTX0HOV1JRE7JSHZA","A1EIKIHK12UDP0","3RBI0I35XEP26UEZY8S8UZLEA1IY3E","","865.7000000029802","img/flower6.png","76","868","3","1","3","2","1,0,0,1,1,0,1,0,1","0,0,1,1,0,1,0,1,1","2",""
"","html-keyboard-response","17","113717","0.0-17.0","36W0OB37HX0JRCTX0HOV1JRE7JSHZA","A1EIKIHK12UDP0","3RBI0I35XEP26UEZY8S8UZLEA1IY3E","","null","<img src=""img/flower6.png"" style=""width:200px; border:14px solid green;"">","null","","","","","","","","",""
"","image-keyboard-response","18","114622","0.0-18.0","36W0OB37HX0JRCTX0HOV1JRE7JSHZA","A1EIKIHK12UDP0","3RBI0I35XEP26UEZY8S8UZLEA1IY3E","","902.5","img/flower2.png","74","905","1","1","2","2","1,0,0,1,1,0,1,0,1","0,0,1,1,0,1,0,1,1","2",""
"","html-keyboard-response","19","114925","0.0-19.0","36W0OB37HX0JRCTX0HOV1JRE7JSHZA","A1EIKIHK12UDP0","3RBI0I35XEP26UEZY8S8UZLEA1IY3E","","null","<img src=""img/flower2.png"" style=""width:200px; border:14px solid green;"">","null","","","","","","","","",""
"","image-keyboard-response","20","115759","0.0-20.0","36W0OB37HX0JRCTX0HOV1JRE7JSHZA","A1EIKIHK12UDP0","3RBI0I35XEP26UEZY8S8UZLEA1IY3E","","831","img/flower4.png","75","833.2000000029802","2","0","1","2","1,0,0,1,1,0,1,0,1","0,0,1,1,0,1,0,1,1","2",""
"","html-keyboard-response","21","116062","0.0-21.0","36W0OB37HX0JRCTX0HOV1JRE7JSHZA","A1EIKIHK12UDP0","3RBI0I35XEP26UEZY8S8UZLEA1IY3E","","null","<img src=""img/flower4.png"" style=""width:200px;border:14px solid red;"">","null","","","","","","","","",""
"","image-keyboard-response","22","116888","0.0-22.0","36W0OB37HX0JRCTX0HOV1JRE7JSHZA","A1EIKIHK12UDP0","3RBI0I35XEP26UEZY8S8UZLEA1IY3E","","823.8999999985099","img/flower2.png","76","825.8999999985099","3","1","2","2","1,0,0,1,1,0,1,0,1","0,0,1,1,0,1,0,1,1","2",""
"","html-keyboard-response","23","117191","0.0-23.0","36W0OB37HX0JRCTX0HOV1JRE7JSHZA","A1EIKIHK12UDP0","3RBI0I35XEP26UEZY8S8UZLEA1IY3E","","null","<img src=""img/flower2.png"" style=""width:200px; border:14px solid green;"">","null","","","","","","","","",""
"","image-keyboard-response","24","118400","0.0-24.0","36W0OB37HX0JRCTX0HOV1JRE7JSHZA","A1EIKIHK12UDP0","3RBI0I35XEP26UEZY8S8UZLEA1IY3E","","1205.7999999970198","img/flower4.png","74","1207.5","1","0","1","2","1,0,0,1,1,0,1,0,1","0,0,1,1,0,1,0,1,1","2",""
"","html-keyboard-response","25","118703","0.0-25.0","36W0OB37HX0JRCTX0HOV1JRE7JSHZA","A1EIKIHK12UDP0","3RBI0I35XEP26UEZY8S8UZLEA1IY3E","","null","<img src=""img/flower4.png"" style=""width:200px;border:14px solid red;"">","null","","","","","","","","",""
"","image-keyboard-response","26","119960","0.0-26.0","36W0OB37HX0JRCTX0HOV1JRE7JSHZA","A1EIKIHK12UDP0","3RBI0I35XEP26UEZY8S8UZLEA1IY3E","","1253.1000000014901","img/flower2.png","74","1255.8999999985099","1","1","2","2","1,0,0,1,1,0,1,0,1","0,0,1,1,0,1,0,1,1","2",""
"","html-keyboard-response","27","120263","0.0-27.0","36W0OB37HX0JRCTX0HOV1JRE7JSHZA","A1EIKIHK12UDP0","3RBI0I35XEP26UEZY8S8UZLEA1IY3E","","null","<img src=""img/flower2.png"" style=""width:200px; border:14px solid green;"">","null","","","","","","","","",""
"","image-keyboard-response","28","121020","0.0-28.0","36W0OB37HX0JRCTX0HOV1JRE7JSHZA","A1EIKIHK12UDP0","3RBI0I35XEP26UEZY8S8UZLEA1IY3E","","753.9000000059605","img/flower6.png","76","755.7000000029802","3","1","3","2","1,0,0,1,1,0,1,0,1","0,0,1,1,0,1,0,1,1","2",""
"","html-keyboard-response","29","121322","0.0-29.0","36W0OB37HX0JRCTX0HOV1JRE7JSHZA","A1EIKIHK12UDP0","3RBI0I35XEP26UEZY8S8UZLEA1IY3E","","null","<img src=""img/flower6.png"" style=""width:200px; border:14px solid green;"">","null","","","","","","","","",""
"","image-keyboard-response","30","122175","0.0-30.0","36W0OB37HX0JRCTX0HOV1JRE7JSHZA","A1EIKIHK12UDP0","3RBI0I35XEP26UEZY8S8UZLEA1IY3E","","851.3000000044703","img/flower6.png","76","853.1999999955297","3","1","3","2","1,0,0,1,1,0,1,0,1","0,0,1,1,0,1,0,1,1","2",""
"","html-keyboard-response","31","122477","0.0-31.0","36W0OB37HX0JRCTX0HOV1JRE7JSHZA","A1EIKIHK12UDP0","3RBI0I35XEP26UEZY8S8UZLEA1IY3E","","null","<img src=""img/flower6.png"" style=""width:200px; border:14px solid green;"">","null","","","","","","","","",""
"","image-keyboard-response","32","123297","0.0-32.0","36W0OB37HX0JRCTX0HOV1JRE7JSHZA","A1EIKIHK12UDP0","3RBI0I35XEP26UEZY8S8UZLEA1IY3E","","817.6000000014901","img/flower6.png","76","819.6000000014901","3","1","3","2","1,0,0,1,1,0,1,0,1","0,0,1,1,0,1,0,1,1","2",""
"","html-keyboard-response","33","123601","0.0-33.0","36W0OB37HX0JRCTX0HOV1JRE7JSHZA","A1EIKIHK12UDP0","3RBI0I35XEP26UEZY8S8UZLEA1IY3E","","null","<img src=""img/flower6.png"" style=""width:200px; border:14px solid green;"">","null","","","","","","","","",""
"","image-keyboard-response","34","124573","0.0-34.0","36W0OB37HX0JRCTX0HOV1JRE7JSHZA","A1EIKIHK12UDP0","3RBI0I35XEP26UEZY8S8UZLEA1IY3E","","970.1000000014901","img/flower2.png","76","972.0999999940395","3","1","2","2","1,0,0,1,1,0,1,0,1","0,0,1,1,0,1,0,1,1","2",""
"","html-keyboard-response","35","124875","0.0-35.0","36W0OB37HX0JRCTX0HOV1JRE7JSHZA","A1EIKIHK12UDP0","3RBI0I35XEP26UEZY8S8UZLEA1IY3E","","null","<img src=""img/flower2.png"" style=""width:200px; border:14px solid green;"">","null","","","","","","","","",""
"","image-keyboard-response","36","125683","0.0-36.0","36W0OB37HX0JRCTX0HOV1JRE7JSHZA","A1EIKIHK12UDP0","3RBI0I35XEP26UEZY8S8UZLEA1IY3E","","804.9000000059605","img/flower2.png","76","806.6000000014901","3","1","2","2","1,0,0,1,1,0,1,0,1","0,0,1,1,0,1,0,1,1","2",""
"","html-keyboard-response","37","125986","0.0-37.0","36W0OB37HX0JRCTX0HOV1JRE7JSHZA","A1EIKIHK12UDP0","3RBI0I35XEP26UEZY8S8UZLEA1IY3E","","null","<img src=""img/flower2.png"" style=""width:200px; border:14px solid green;"">","null","","","","","","","","",""
"","image-keyboard-response","38","127129","0.0-38.0","36W0OB37HX0JRCTX0HOV1JRE7JSHZA","A1EIKIHK12UDP0","3RBI0I35XEP26UEZY8S8UZLEA1IY3E","","1140.7000000029802","img/flower4.png","76","1142.5","3","1","1","2","1,0,0,1,1,0,1,0,1","0,0,1,1,0,1,0,1,1","2",""
"","html-keyboard-response","39","127432","0.0-39.0","36W0OB37HX0JRCTX0HOV1JRE7JSHZA","A1EIKIHK12UDP0","3RBI0I35XEP26UEZY8S8UZLEA1IY3E","","null","<img src=""img/flower4.png"" style=""width:200px; border:14px solid green;"">","null","","","","","","","","",""
"","image-keyboard-response","40","128178","0.0-40.0","36W0OB37HX0JRCTX0HOV1JRE7JSHZA","A1EIKIHK12UDP0","3RBI0I35XEP26UEZY8S8UZLEA1IY3E","","743.2000000029802","img/flower4.png","76","744.9000000059605","3","1","1","2","1,0,0,1,1,0,1,0,1","0,0,1,1,0,1,0,1,1","2",""
"","html-keyboard-response","41","128481","0.0-41.0","36W0OB37HX0JRCTX0HOV1JRE7JSHZA","A1EIKIHK12UDP0","3RBI0I35XEP26UEZY8S8UZLEA1IY3E","","null","<img src=""img/flower4.png"" style=""width:200px; border:14px solid green;"">","null","","","","","","","","",""
"","image-keyboard-response","42","129293","0.0-42.0","36W0OB37HX0JRCTX0HOV1JRE7JSHZA","A1EIKIHK12UDP0","3RBI0I35XEP26UEZY8S8UZLEA1IY3E","","808.8000000044703","img/flower6.png","76","810.6000000014901","3","1","3","2","1,0,0,1,1,0,1,0,1","0,0,1,1,0,1,0,1,1","2",""
"","html-keyboard-response","43","129595","0.0-43.0","36W0OB37HX0JRCTX0HOV1JRE7JSHZA","A1EIKIHK12UDP0","3RBI0I35XEP26UEZY8S8UZLEA1IY3E","","null","<img src=""img/flower6.png"" style=""width:200px; border:14px solid green;"">","null","","","","","","","","",""
"","image-keyboard-response","44","130546","0.0-44.0","36W0OB37HX0JRCTX0HOV1JRE7JSHZA","A1EIKIHK12UDP0","3RBI0I35XEP26UEZY8S8UZLEA1IY3E","","949.1000000014901","img/flower6.png","76","950.7999999970198","3","1","3","2","1,0,0,1,1,0,1,0,1","0,0,1,1,0,1,0,1,1","2",""
"","html-keyboard-response","45","130850","0.0-45.0","36W0OB37HX0JRCTX0HOV1JRE7JSHZA","A1EIKIHK12UDP0","3RBI0I35XEP26UEZY8S8UZLEA1IY3E","","null","<img src=""img/flower6.png"" style=""width:200px; border:14px solid green;"">","null","","","","","","","","",""
"","image-keyboard-response","46","131938","0.0-46.0","36W0OB37HX0JRCTX0HOV1JRE7JSHZA","A1EIKIHK12UDP0","3RBI0I35XEP26UEZY8S8UZLEA1IY3E","","1085.7000000029802","img/flower2.png","74","1087.8999999985099","1","1","2","2","1,0,0,1,1,0,1,0,1","0,0,1,1,0,1,0,1,1","2",""
"","html-keyboard-response","47","132241","0.0-47.0","36W0OB37HX0JRCTX0HOV1JRE7JSHZA","A1EIKIHK12UDP0","3RBI0I35XEP26UEZY8S8UZLEA1IY3E","","null","<img src=""img/flower2.png"" style=""width:200px; border:14px solid green;"">","null","","","","","","","","",""
"","image-keyboard-response","48","133100","0.0-48.0","36W0OB37HX0JRCTX0HOV1JRE7JSHZA","A1EIKIHK12UDP0","3RBI0I35XEP26UEZY8S8UZLEA1IY3E","","857.3999999985099","img/flower6.png","76","859.1000000014901","3","1","3","2","1,0,0,1,1,0,1,0,1","0,0,1,1,0,1,0,1,1","2",""
"","html-keyboard-response","49","133402","0.0-49.0","36W0OB37HX0JRCTX0HOV1JRE7JSHZA","A1EIKIHK12UDP0","3RBI0I35XEP26UEZY8S8UZLEA1IY3E","","null","<img src=""img/flower6.png"" style=""width:200px; border:14px solid green;"">","null","","","","","","","","",""
"","image-keyboard-response","50","134409","0.0-50.0","36W0OB37HX0JRCTX0HOV1JRE7JSHZA","A1EIKIHK12UDP0","3RBI0I35XEP26UEZY8S8UZLEA1IY3E","","1004.6999999955297","img/flower4.png","76","1006.5","3","1","1","2","1,0,0,1,1,0,1,0,1","0,0,1,1,0,1,0,1,1","2",""
"","html-keyboard-response","51","134712","0.0-51.0","36W0OB37HX0JRCTX0HOV1JRE7JSHZA","A1EIKIHK12UDP0","3RBI0I35XEP26UEZY8S8UZLEA1IY3E","","null","<img src=""img/flower4.png"" style=""width:200px; border:14px solid green;"">","null","","","","","","","","",""
"","image-keyboard-response","52","135519","0.0-52.0","36W0OB37HX0JRCTX0HOV1JRE7JSHZA","A1EIKIHK12UDP0","3RBI0I35XEP26UEZY8S8UZLEA1IY3E","","804.8999999985099","img/flower4.png","76","806.9000000059605","3","1","1","2","1,0,0,1,1,0,1,0,1","0,0,1,1,0,1,0,1,1","2",""
"","html-keyboard-response","53","135823","0.0-53.0","36W0OB37HX0JRCTX0HOV1JRE7JSHZA","A1EIKIHK12UDP0","3RBI0I35XEP26UEZY8S8UZLEA1IY3E","","null","<img src=""img/flower4.png"" style=""width:200px; border:14px solid green;"">","null","","","","","","","","",""
"","image-keyboard-response","54","136596","0.0-54.0","36W0OB37HX0JRCTX0HOV1JRE7JSHZA","A1EIKIHK12UDP0","3RBI0I35XEP26UEZY8S8UZLEA1IY3E","","770","img/flower4.png","76","772.1000000014901","3","1","1","2","1,0,0,1,1,0,1,0,1","0,0,1,1,0,1,0,1,1","2",""
"","html-keyboard-response","55","136898","0.0-55.0","36W0OB37HX0JRCTX0HOV1JRE7JSHZA","A1EIKIHK12UDP0","3RBI0I35XEP26UEZY8S8UZLEA1IY3E","","null","<img src=""img/flower4.png"" style=""width:200px; border:14px solid green;"">","null","","","","","","","","",""
"","image-keyboard-response","56","137708","0.0-56.0","36W0OB37HX0JRCTX0HOV1JRE7JSHZA","A1EIKIHK12UDP0","3RBI0I35XEP26UEZY8S8UZLEA1IY3E","","806.3999999985099","img/flower4.png","76","808.8999999985099","3","1","1","2","1,0,0,1,1,0,1,0,1","0,0,1,1,0,1,0,1,1","2",""
"","html-keyboard-response","57","138010","0.0-57.0","36W0OB37HX0JRCTX0HOV1JRE7JSHZA","A1EIKIHK12UDP0","3RBI0I35XEP26UEZY8S8UZLEA1IY3E","","null","<img src=""img/flower4.png"" style=""width:200px; border:14px solid green;"">","null","","","","","","","","",""
"","image-keyboard-response","58","138811","0.0-58.0","36W0OB37HX0JRCTX0HOV1JRE7JSHZA","A1EIKIHK12UDP0","3RBI0I35XEP26UEZY8S8UZLEA1IY3E","","798.3000000044703","img/flower4.png","76","800.0999999940395","3","1","1","2","1,0,0,1,1,0,1,0,1","0,0,1,1,0,1,0,1,1","2",""
"","html-keyboard-response","59","139113","0.0-59.0","36W0OB37HX0JRCTX0HOV1JRE7JSHZA","A1EIKIHK12UDP0","3RBI0I35XEP26UEZY8S8UZLEA1IY3E","","null","<img src=""img/flower4.png"" style=""width:200px; border:14px solid green;"">","null","","","","","","","","",""
"","image-keyboard-response","60","140271","0.0-60.0","36W0OB37HX0JRCTX0HOV1JRE7JSHZA","A1EIKIHK12UDP0","3RBI0I35XEP26UEZY8S8UZLEA1IY3E","","1154.5","img/flower2.png","76","1156.8999999985099","3","1","2","2","1,0,0,1,1,0,1,0,1","0,0,1,1,0,1,0,1,1","2",""
"","html-keyboard-response","61","140573","0.0-61.0","36W0OB37HX0JRCTX0HOV1JRE7JSHZA","A1EIKIHK12UDP0","3RBI0I35XEP26UEZY8S8UZLEA1IY3E","","null","<img src=""img/flower2.png"" style=""width:200px; border:14px solid green;"">","null","","","","","","","","",""
"","image-keyboard-response","62","141407","0.0-62.0","36W0OB37HX0JRCTX0HOV1JRE7JSHZA","A1EIKIHK12UDP0","3RBI0I35XEP26UEZY8S8UZLEA1IY3E","","831.8999999985099","img/flower6.png","76","833.8999999985099","3","1","3","2","1,0,0,1,1,0,1,0,1","0,0,1,1,0,1,0,1,1","2",""
"","html-keyboard-response","63","141709","0.0-63.0","36W0OB37HX0JRCTX0HOV1JRE7JSHZA","A1EIKIHK12UDP0","3RBI0I35XEP26UEZY8S8UZLEA1IY3E","","null","<img src=""img/flower6.png"" style=""width:200px; border:14px solid green;"">","null","","","","","","","","",""
"","image-keyboard-response","64","143588","0.0-64.0","36W0OB37HX0JRCTX0HOV1JRE7JSHZA","A1EIKIHK12UDP0","3RBI0I35XEP26UEZY8S8UZLEA1IY3E","","1875.2000000029802","img/flower4.png","74","1877.7000000029802","1","0","1","2","1,0,0,1,1,0,1,0,1","0,0,1,1,0,1,0,1,1","2",""
"","html-keyboard-response","65","143890","0.0-65.0","36W0OB37HX0JRCTX0HOV1JRE7JSHZA","A1EIKIHK12UDP0","3RBI0I35XEP26UEZY8S8UZLEA1IY3E","","null","<img src=""img/flower4.png"" style=""width:200px;border:14px solid red;"">","null","","","","","","","","",""
"","image-keyboard-response","66","144384","0.0-66.0","36W0OB37HX0JRCTX0HOV1JRE7JSHZA","A1EIKIHK12UDP0","3RBI0I35XEP26UEZY8S8UZLEA1IY3E","","490.69999999552965","img/flower4.png","76","492.80000000447035","3","1","1","2","1,0,0,1,1,0,1,0,1","0,0,1,1,0,1,0,1,1","2",""
"","html-keyboard-response","67","144686","0.0-67.0","36W0OB37HX0JRCTX0HOV1JRE7JSHZA","A1EIKIHK12UDP0","3RBI0I35XEP26UEZY8S8UZLEA1IY3E","","null","<img src=""img/flower4.png"" style=""width:200px; border:14px solid green;"">","null","","","","","","","","",""
"","image-keyboard-response","68","146124","0.0-68.0","36W0OB37HX0JRCTX0HOV1JRE7JSHZA","A1EIKIHK12UDP0","3RBI0I35XEP26UEZY8S8UZLEA1IY3E","","1435.1000000014901","img/flower2.png","76","1437.1000000014901","3","1","2","2","1,0,0,1,1,0,1,0,1","0,0,1,1,0,1,0,1,1","2",""
"","html-keyboard-response","69","146426","0.0-69.0","36W0OB37HX0JRCTX0HOV1JRE7JSHZA","A1EIKIHK12UDP0","3RBI0I35XEP26UEZY8S8UZLEA1IY3E","","null","<img src=""img/flower2.png"" style=""width:200px; border:14px solid green;"">","null","","","","","","","","",""
"","image-keyboard-response","70","147389","0.0-70.0","36W0OB37HX0JRCTX0HOV1JRE7JSHZA","A1EIKIHK12UDP0","3RBI0I35XEP26UEZY8S8UZLEA1IY3E","","960.7999999970198","img/flower4.png","76","962.6000000014901","3","1","1","2","1,0,0,1,1,0,1,0,1","0,0,1,1,0,1,0,1,1","2",""
"","html-keyboard-response","71","147691","0.0-71.0","36W0OB37HX0JRCTX0HOV1JRE7JSHZA","A1EIKIHK12UDP0","3RBI0I35XEP26UEZY8S8UZLEA1IY3E","","null","<img src=""img/flower4.png"" style=""width:200px; border:14px solid green;"">","null","","","","","","","","",""
"","image-keyboard-response","72","148524","0.0-72.0","36W0OB37HX0JRCTX0HOV1JRE7JSHZA","A1EIKIHK12UDP0","3RBI0I35XEP26UEZY8S8UZLEA1IY3E","","829.8000000044703","img/flower2.png","76","832.1000000014901","3","1","2","2","1,0,0,1,1,0,1,0,1","0,0,1,1,0,1,0,1,1","2",""
"","html-keyboard-response","73","148827","0.0-73.0","36W0OB37HX0JRCTX0HOV1JRE7JSHZA","A1EIKIHK12UDP0","3RBI0I35XEP26UEZY8S8UZLEA1IY3E","","null","<img src=""img/flower2.png"" style=""width:200px; border:14px solid green;"">","null","","","","","","","","",""
"","image-keyboard-response","74","149661","0.0-74.0","36W0OB37HX0JRCTX0HOV1JRE7JSHZA","A1EIKIHK12UDP0","3RBI0I35XEP26UEZY8S8UZLEA1IY3E","","832.0999999940395","img/flower6.png","76","834.1000000014901","3","1","3","2","1,0,0,1,1,0,1,0,1","0,0,1,1,0,1,0,1,1","2",""
"","html-keyboard-response","75","149963","0.0-75.0","36W0OB37HX0JRCTX0HOV1JRE7JSHZA","A1EIKIHK12UDP0","3RBI0I35XEP26UEZY8S8UZLEA1IY3E","","null","<img src=""img/flower6.png"" style=""width:200px; border:14px solid green;"">","null","","","","","","","","",""
"","image-keyboard-response","76","150754","0.0-76.0","36W0OB37HX0JRCTX0HOV1JRE7JSHZA","A1EIKIHK12UDP0","3RBI0I35XEP26UEZY8S8UZLEA1IY3E","","787.6999999955297","img/flower6.png","76","789.7000000029802","3","1","3","2","1,0,0,1,1,0,1,0,1","0,0,1,1,0,1,0,1,1","2",""
"","html-keyboard-response","77","151057","0.0-77.0","36W0OB37HX0JRCTX0HOV1JRE7JSHZA","A1EIKIHK12UDP0","3RBI0I35XEP26UEZY8S8UZLEA1IY3E","","null","<img src=""img/flower6.png"" style=""width:200px; border:14px solid green;"">","null","","","","","","","","",""
"","image-keyboard-response","78","151832","0.0-78.0","36W0OB37HX0JRCTX0HOV1JRE7JSHZA","A1EIKIHK12UDP0","3RBI0I35XEP26UEZY8S8UZLEA1IY3E","","771.7000000029802","img/flower6.png","76","774.6000000014901","3","1","3","2","1,0,0,1,1,0,1,0,1","0,0,1,1,0,1,0,1,1","2",""
"","html-keyboard-response","79","152135","0.0-79.0","36W0OB37HX0JRCTX0HOV1JRE7JSHZA","A1EIKIHK12UDP0","3RBI0I35XEP26UEZY8S8UZLEA1IY3E","","null","<img src=""img/flower6.png"" style=""width:200px; border:14px solid green;"">","null","","","","","","","","",""
"","image-keyboard-response","80","153195","0.0-80.0","36W0OB37HX0JRCTX0HOV1JRE7JSHZA","A1EIKIHK12UDP0","3RBI0I35XEP26UEZY8S8UZLEA1IY3E","","1057.5","img/flower4.png","76","1059.6000000014901","3","1","1","2","1,0,0,1,1,0,1,0,1","0,0,1,1,0,1,0,1,1","2",""
"","html-keyboard-response","81","153497","0.0-81.0","36W0OB37HX0JRCTX0HOV1JRE7JSHZA","A1EIKIHK12UDP0","3RBI0I35XEP26UEZY8S8UZLEA1IY3E","","null","<img src=""img/flower4.png"" style=""width:200px; border:14px solid green;"">","null","","","","","","","","",""
"","image-keyboard-response","82","154330","0.0-82.0","36W0OB37HX0JRCTX0HOV1JRE7JSHZA","A1EIKIHK12UDP0","3RBI0I35XEP26UEZY8S8UZLEA1IY3E","","830","img/flower6.png","76","832.5999999940395","3","1","3","2","1,0,0,1,1,0,1,0,1","0,0,1,1,0,1,0,1,1","2",""
"","html-keyboard-response","83","154633","0.0-83.0","36W0OB37HX0JRCTX0HOV1JRE7JSHZA","A1EIKIHK12UDP0","3RBI0I35XEP26UEZY8S8UZLEA1IY3E","","null","<img src=""img/flower6.png"" style=""width:200px; border:14px solid green;"">","null","","","","","","","","",""
"","image-keyboard-response","84","155835","0.0-84.0","36W0OB37HX0JRCTX0HOV1JRE7JSHZA","A1EIKIHK12UDP0","3RBI0I35XEP26UEZY8S8UZLEA1IY3E","","1200.3000000044703","img/flower2.png","74","1202.1999999955297","1","1","2","2","1,0,0,1,1,0,1,0,1","0,0,1,1,0,1,0,1,1","2",""
"","html-keyboard-response","85","156138","0.0-85.0","36W0OB37HX0JRCTX0HOV1JRE7JSHZA","A1EIKIHK12UDP0","3RBI0I35XEP26UEZY8S8UZLEA1IY3E","","null","<img src=""img/flower2.png"" style=""width:200px; border:14px solid green;"">","null","","","","","","","","",""
"","image-keyboard-response","86","156919","0.0-86.0","36W0OB37HX0JRCTX0HOV1JRE7JSHZA","A1EIKIHK12UDP0","3RBI0I35XEP26UEZY8S8UZLEA1IY3E","","778.5","img/flower4.png","76","780.1999999955297","3","1","1","2","1,0,0,1,1,0,1,0,1","0,0,1,1,0,1,0,1,1","2",""
"","html-keyboard-response","87","157222","0.0-87.0","36W0OB37HX0JRCTX0HOV1JRE7JSHZA","A1EIKIHK12UDP0","3RBI0I35XEP26UEZY8S8UZLEA1IY3E","","null","<img src=""img/flower4.png"" style=""width:200px; border:14px solid green;"">","null","","","","","","","","",""
"","image-keyboard-response","88","157993","0.0-88.0","36W0OB37HX0JRCTX0HOV1JRE7JSHZA","A1EIKIHK12UDP0","3RBI0I35XEP26UEZY8S8UZLEA1IY3E","","768.8999999985099","img/flower6.png","76","771.0999999940395","3","1","3","2","1,0,0,1,1,0,1,0,1","0,0,1,1,0,1,0,1,1","2",""
"","html-keyboard-response","89","158297","0.0-89.0","36W0OB37HX0JRCTX0HOV1JRE7JSHZA","A1EIKIHK12UDP0","3RBI0I35XEP26UEZY8S8UZLEA1IY3E","","null","<img src=""img/flower6.png"" style=""width:200px; border:14px solid green;"">","null","","","","","","","","",""
"","image-keyboard-response","90","159055","0.0-90.0","36W0OB37HX0JRCTX0HOV1JRE7JSHZA","A1EIKIHK12UDP0","3RBI0I35XEP26UEZY8S8UZLEA1IY3E","","755.6000000014901","img/flower6.png","76","757.4000000059605","3","1","3","2","1,0,0,1,1,0,1,0,1","0,0,1,1,0,1,0,1,1","2",""
"","html-keyboard-response","91","159357","0.0-91.0","36W0OB37HX0JRCTX0HOV1JRE7JSHZA","A1EIKIHK12UDP0","3RBI0I35XEP26UEZY8S8UZLEA1IY3E","","null","<img src=""img/flower6.png"" style=""width:200px; border:14px solid green;"">","null","","","","","","","","",""
"","image-keyboard-response","92","160127","0.0-92.0","36W0OB37HX0JRCTX0HOV1JRE7JSHZA","A1EIKIHK12UDP0","3RBI0I35XEP26UEZY8S8UZLEA1IY3E","","767.9000000059605","img/flower6.png","76","769.6999999955297","3","1","3","2","1,0,0,1,1,0,1,0,1","0,0,1,1,0,1,0,1,1","2",""
"","html-keyboard-response","93","160429","0.0-93.0","36W0OB37HX0JRCTX0HOV1JRE7JSHZA","A1EIKIHK12UDP0","3RBI0I35XEP26UEZY8S8UZLEA1IY3E","","null","<img src=""img/flower6.png"" style=""width:200px; border:14px solid green;"">","null","","","","","","","","",""
"","image-keyboard-response","94","161132","0.0-94.0","36W0OB37HX0JRCTX0HOV1JRE7JSHZA","A1EIKIHK12UDP0","3RBI0I35XEP26UEZY8S8UZLEA1IY3E","","699.8999999985099","img/flower6.png","76","701.8000000044703","3","1","3","2","1,0,0,1,1,0,1,0,1","0,0,1,1,0,1,0,1,1","2",""
"","html-keyboard-response","95","161435","0.0-95.0","36W0OB37HX0JRCTX0HOV1JRE7JSHZA","A1EIKIHK12UDP0","3RBI0I35XEP26UEZY8S8UZLEA1IY3E","","null","<img src=""img/flower6.png"" style=""width:200px; border:14px solid green;"">","null","","","","","","","","",""
"","image-keyboard-response","96","162480","0.0-96.0","36W0OB37HX0JRCTX0HOV1JRE7JSHZA","A1EIKIHK12UDP0","3RBI0I35XEP26UEZY8S8UZLEA1IY3E","","1042.5","img/flower4.png","76","1044.6000000014901","3","1","1","2","1,0,0,1,1,0,1,0,1","0,0,1,1,0,1,0,1,1","2",""
"","html-keyboard-response","97","162783","0.0-97.0","36W0OB37HX0JRCTX0HOV1JRE7JSHZA","A1EIKIHK12UDP0","3RBI0I35XEP26UEZY8S8UZLEA1IY3E","","null","<img src=""img/flower4.png"" style=""width:200px; border:14px solid green;"">","null","","","","","","","","",""
"","image-keyboard-response","98","163519","0.0-98.0","36W0OB37HX0JRCTX0HOV1JRE7JSHZA","A1EIKIHK12UDP0","3RBI0I35XEP26UEZY8S8UZLEA1IY3E","","733.7000000029802","img/flower6.png","76","735.2000000029802","3","1","3","2","1,0,0,1,1,0,1,0,1","0,0,1,1,0,1,0,1,1","2",""
"","html-keyboard-response","99","163821","0.0-99.0","36W0OB37HX0JRCTX0HOV1JRE7JSHZA","A1EIKIHK12UDP0","3RBI0I35XEP26UEZY8S8UZLEA1IY3E","","null","<img src=""img/flower6.png"" style=""width:200px; border:14px solid green;"">","null","","","","","","","","",""
"","image-keyboard-response","100","164647","0.0-100.0","36W0OB37HX0JRCTX0HOV1JRE7JSHZA","A1EIKIHK12UDP0","3RBI0I35XEP26UEZY8S8UZLEA1IY3E","","823.4000000059605","img/flower2.png","74","826.3000000044703","1","1","2","2","1,0,0,1,1,0,1,0,1","0,0,1,1,0,1,0,1,1","2",""
"","html-keyboard-response","101","164950","0.0-101.0","36W0OB37HX0JRCTX0HOV1JRE7JSHZA","A1EIKIHK12UDP0","3RBI0I35XEP26UEZY8S8UZLEA1IY3E","","null","<img src=""img/flower2.png"" style=""width:200px; border:14px solid green;"">","null","","","","","","","","",""
"","image-keyboard-response","102","165759","0.0-102.0","36W0OB37HX0JRCTX0HOV1JRE7JSHZA","A1EIKIHK12UDP0","3RBI0I35XEP26UEZY8S8UZLEA1IY3E","","806.7000000029802","img/flower4.png","76","808.7000000029802","3","1","1","2","1,0,0,1,1,0,1,0,1","0,0,1,1,0,1,0,1,1","2",""
"","html-keyboard-response","103","166062","0.0-103.0","36W0OB37HX0JRCTX0HOV1JRE7JSHZA","A1EIKIHK12UDP0","3RBI0I35XEP26UEZY8S8UZLEA1IY3E","","null","<img src=""img/flower4.png"" style=""width:200px; border:14px solid green;"">","null","","","","","","","","",""
"","image-keyboard-response","104","166834","0.0-104.0","36W0OB37HX0JRCTX0HOV1JRE7JSHZA","A1EIKIHK12UDP0","3RBI0I35XEP26UEZY8S8UZLEA1IY3E","","769.2999999970198","img/flower6.png","76","771.5","3","1","3","2","1,0,0,1,1,0,1,0,1","0,0,1,1,0,1,0,1,1","2",""
"","html-keyboard-response","105","167136","0.0-105.0","36W0OB37HX0JRCTX0HOV1JRE7JSHZA","A1EIKIHK12UDP0","3RBI0I35XEP26UEZY8S8UZLEA1IY3E","","null","<img src=""img/flower6.png"" style=""width:200px; border:14px solid green;"">","null","","","","","","","","",""
"","image-keyboard-response","106","167898","0.0-106.0","36W0OB37HX0JRCTX0HOV1JRE7JSHZA","A1EIKIHK12UDP0","3RBI0I35XEP26UEZY8S8UZLEA1IY3E","","759.5","img/flower6.png","76","761.6000000014901","3","1","3","2","1,0,0,1,1,0,1,0,1","0,0,1,1,0,1,0,1,1","2",""
"","html-keyboard-response","107","168200","0.0-107.0","36W0OB37HX0JRCTX0HOV1JRE7JSHZA","A1EIKIHK12UDP0","3RBI0I35XEP26UEZY8S8UZLEA1IY3E","","null","<img src=""img/flower6.png"" style=""width:200px; border:14px solid green;"">","null","","","","","","","","",""
"","image-keyboard-response","108","169200","0.0-108.0","36W0OB37HX0JRCTX0HOV1JRE7JSHZA","A1EIKIHK12UDP0","3RBI0I35XEP26UEZY8S8UZLEA1IY3E","","997.2000000029802","img/flower4.png","76","999.3999999985099","3","1","1","2","1,0,0,1,1,0,1,0,1","0,0,1,1,0,1,0,1,1","2",""
"","html-keyboard-response","109","169503","0.0-109.0","36W0OB37HX0JRCTX0HOV1JRE7JSHZA","A1EIKIHK12UDP0","3RBI0I35XEP26UEZY8S8UZLEA1IY3E","","null","<img src=""img/flower4.png"" style=""width:200px; border:14px solid green;"">","null","","","","","","","","",""
"","image-keyboard-response","110","170245","0.0-110.0","36W0OB37HX0JRCTX0HOV1JRE7JSHZA","A1EIKIHK12UDP0","3RBI0I35XEP26UEZY8S8UZLEA1IY3E","","740","img/flower4.png","76","741.6000000014901","3","1","1","2","1,0,0,1,1,0,1,0,1","0,0,1,1,0,1,0,1,1","2",""
"","html-keyboard-response","111","170547","0.0-111.0","36W0OB37HX0JRCTX0HOV1JRE7JSHZA","A1EIKIHK12UDP0","3RBI0I35XEP26UEZY8S8UZLEA1IY3E","","null","<img src=""img/flower4.png"" style=""width:200px; border:14px solid green;"">","null","","","","","","","","",""
"","image-keyboard-response","112","171339","0.0-112.0","36W0OB37HX0JRCTX0HOV1JRE7JSHZA","A1EIKIHK12UDP0","3RBI0I35XEP26UEZY8S8UZLEA1IY3E","","789.3999999985099","img/flower2.png","74","791.6000000014901","1","1","2","2","1,0,0,1,1,0,1,0,1","0,0,1,1,0,1,0,1,1","2",""
"","html-keyboard-response","113","171641","0.0-113.0","36W0OB37HX0JRCTX0HOV1JRE7JSHZA","A1EIKIHK12UDP0","3RBI0I35XEP26UEZY8S8UZLEA1IY3E","","null","<img src=""img/flower2.png"" style=""width:200px; border:14px solid green;"">","null","","","","","","","","",""
"","image-keyboard-response","114","172413","0.0-114.0","36W0OB37HX0JRCTX0HOV1JRE7JSHZA","A1EIKIHK12UDP0","3RBI0I35XEP26UEZY8S8UZLEA1IY3E","","769.1999999955297","img/flower6.png","76","771.3000000044703","3","1","3","2","1,0,0,1,1,0,1,0,1","0,0,1,1,0,1,0,1,1","2",""
"","html-keyboard-response","115","172716","0.0-115.0","36W0OB37HX0JRCTX0HOV1JRE7JSHZA","A1EIKIHK12UDP0","3RBI0I35XEP26UEZY8S8UZLEA1IY3E","","null","<img src=""img/flower6.png"" style=""width:200px; border:14px solid green;"">","null","","","","","","","","",""
"","image-keyboard-response","116","173404","0.0-116.0","36W0OB37HX0JRCTX0HOV1JRE7JSHZA","A1EIKIHK12UDP0","3RBI0I35XEP26UEZY8S8UZLEA1IY3E","","685.3999999985099","img/flower2.png","74","687.1000000014901","1","1","2","2","1,0,0,1,1,0,1,0,1","0,0,1,1,0,1,0,1,1","2",""
"","html-keyboard-response","117","173705","0.0-117.0","36W0OB37HX0JRCTX0HOV1JRE7JSHZA","A1EIKIHK12UDP0","3RBI0I35XEP26UEZY8S8UZLEA1IY3E","","null","<img src=""img/flower2.png"" style=""width:200px; border:14px solid green;"">","null","","","","","","","","",""
"","image-keyboard-response","118","174504","0.0-118.0","36W0OB37HX0JRCTX0HOV1JRE7JSHZA","A1EIKIHK12UDP0","3RBI0I35XEP26UEZY8S8UZLEA1IY3E","","795.6000000014901","img/flower2.png","74","797.8000000044703","1","1","2","2","1,0,0,1,1,0,1,0,1","0,0,1,1,0,1,0,1,1","2",""
"","html-keyboard-response","119","174806","0.0-119.0","36W0OB37HX0JRCTX0HOV1JRE7JSHZA","A1EIKIHK12UDP0","3RBI0I35XEP26UEZY8S8UZLEA1IY3E","","null","<img src=""img/flower2.png"" style=""width:200px; border:14px solid green;"">","null","","","","","","","","",""
"","image-keyboard-response","120","175447","0.0-120.0","36W0OB37HX0JRCTX0HOV1JRE7JSHZA","A1EIKIHK12UDP0","3RBI0I35XEP26UEZY8S8UZLEA1IY3E","","639.3999999985099","img/flower6.png","76","641.2000000029802","3","1","3","2","1,0,0,1,1,0,1,0,1","0,0,1,1,0,1,0,1,1","2",""
"","html-keyboard-response","121","175750","0.0-121.0","36W0OB37HX0JRCTX0HOV1JRE7JSHZA","A1EIKIHK12UDP0","3RBI0I35XEP26UEZY8S8UZLEA1IY3E","","null","<img src=""img/flower6.png"" style=""width:200px; border:14px solid green;"">","null","","","","","","","","",""
"","image-keyboard-response","122","176589","0.0-122.0","36W0OB37HX0JRCTX0HOV1JRE7JSHZA","A1EIKIHK12UDP0","3RBI0I35XEP26UEZY8S8UZLEA1IY3E","","836.6999999955297","img/flower4.png","76","838.7999999970198","3","1","1","2","1,0,0,1,1,0,1,0,1","0,0,1,1,0,1,0,1,1","2",""
"","html-keyboard-response","123","176892","0.0-123.0","36W0OB37HX0JRCTX0HOV1JRE7JSHZA","A1EIKIHK12UDP0","3RBI0I35XEP26UEZY8S8UZLEA1IY3E","","null","<img src=""img/flower4.png"" style=""width:200px; border:14px solid green;"">","null","","","","","","","","",""
"","image-keyboard-response","124","177679","0.0-124.0","36W0OB37HX0JRCTX0HOV1JRE7JSHZA","A1EIKIHK12UDP0","3RBI0I35XEP26UEZY8S8UZLEA1IY3E","","784.8000000044703","img/flower2.png","74","786.6999999955297","1","1","2","2","1,0,0,1,1,0,1,0,1","0,0,1,1,0,1,0,1,1","2",""
"","html-keyboard-response","125","177982","0.0-125.0","36W0OB37HX0JRCTX0HOV1JRE7JSHZA","A1EIKIHK12UDP0","3RBI0I35XEP26UEZY8S8UZLEA1IY3E","","null","<img src=""img/flower2.png"" style=""width:200px; border:14px solid green;"">","null","","","","","","","","",""
"","image-keyboard-response","126","178724","0.0-126.0","36W0OB37HX0JRCTX0HOV1JRE7JSHZA","A1EIKIHK12UDP0","3RBI0I35XEP26UEZY8S8UZLEA1IY3E","","740.1999999955297","img/flower4.png","76","742","3","1","1","2","1,0,0,1,1,0,1,0,1","0,0,1,1,0,1,0,1,1","2",""
"","html-keyboard-response","127","179027","0.0-127.0","36W0OB37HX0JRCTX0HOV1JRE7JSHZA","A1EIKIHK12UDP0","3RBI0I35XEP26UEZY8S8UZLEA1IY3E","","null","<img src=""img/flower4.png"" style=""width:200px; border:14px solid green;"">","null","","","","","","","","",""
"","image-keyboard-response","128","179774","0.0-128.0","36W0OB37HX0JRCTX0HOV1JRE7JSHZA","A1EIKIHK12UDP0","3RBI0I35XEP26UEZY8S8UZLEA1IY3E","","745.8999999985099","img/flower4.png","76","747.7000000029802","3","1","1","2","1,0,0,1,1,0,1,0,1","0,0,1,1,0,1,0,1,1","2",""
"","html-keyboard-response","129","180077","0.0-129.0","36W0OB37HX0JRCTX0HOV1JRE7JSHZA","A1EIKIHK12UDP0","3RBI0I35XEP26UEZY8S8UZLEA1IY3E","","null","<img src=""img/flower4.png"" style=""width:200px; border:14px solid green;"">","null","","","","","","","","",""
"","image-keyboard-response","130","180843","0.0-130.0","36W0OB37HX0JRCTX0HOV1JRE7JSHZA","A1EIKIHK12UDP0","3RBI0I35XEP26UEZY8S8UZLEA1IY3E","","762.4000000059605","img/flower2.png","74","765.2000000029802","1","1","2","2","1,0,0,1,1,0,1,0,1","0,0,1,1,0,1,0,1,1","2",""
"","html-keyboard-response","131","181145","0.0-131.0","36W0OB37HX0JRCTX0HOV1JRE7JSHZA","A1EIKIHK12UDP0","3RBI0I35XEP26UEZY8S8UZLEA1IY3E","","null","<img src=""img/flower2.png"" style=""width:200px; border:14px solid green;"">","null","","","","","","","","",""
"","image-keyboard-response","132","181853","0.0-132.0","36W0OB37HX0JRCTX0HOV1JRE7JSHZA","A1EIKIHK12UDP0","3RBI0I35XEP26UEZY8S8UZLEA1IY3E","","705.5","img/flower4.png","76","709.1999999955297","3","1","1","2","1,0,0,1,1,0,1,0,1","0,0,1,1,0,1,0,1,1","2",""
"","html-keyboard-response","133","182157","0.0-133.0","36W0OB37HX0JRCTX0HOV1JRE7JSHZA","A1EIKIHK12UDP0","3RBI0I35XEP26UEZY8S8UZLEA1IY3E","","null","<img src=""img/flower4.png"" style=""width:200px; border:14px solid green;"">","null","","","","","","","","",""
"","image-keyboard-response","134","182869","0.0-134.0","36W0OB37HX0JRCTX0HOV1JRE7JSHZA","A1EIKIHK12UDP0","3RBI0I35XEP26UEZY8S8UZLEA1IY3E","","708.7000000029802","img/flower4.png","76","711.2000000029802","3","1","1","2","1,0,0,1,1,0,1,0,1","0,0,1,1,0,1,0,1,1","2",""
"","html-keyboard-response","135","183171","0.0-135.0","36W0OB37HX0JRCTX0HOV1JRE7JSHZA","A1EIKIHK12UDP0","3RBI0I35XEP26UEZY8S8UZLEA1IY3E","","null","<img src=""img/flower4.png"" style=""width:200px; border:14px solid green;"">","null","","","","","","","","",""
"","image-keyboard-response","136","183902","0.0-136.0","36W0OB37HX0JRCTX0HOV1JRE7JSHZA","A1EIKIHK12UDP0","3RBI0I35XEP26UEZY8S8UZLEA1IY3E","","728.6999999955297","img/flower6.png","76","730.5","3","1","3","2","1,0,0,1,1,0,1,0,1","0,0,1,1,0,1,0,1,1","2",""
"","html-keyboard-response","137","184205","0.0-137.0","36W0OB37HX0JRCTX0HOV1JRE7JSHZA","A1EIKIHK12UDP0","3RBI0I35XEP26UEZY8S8UZLEA1IY3E","","null","<img src=""img/flower6.png"" style=""width:200px; border:14px solid green;"">","null","","","","","","","","",""
"","image-keyboard-response","138","184925","0.0-138.0","36W0OB37HX0JRCTX0HOV1JRE7JSHZA","A1EIKIHK12UDP0","3RBI0I35XEP26UEZY8S8UZLEA1IY3E","","718.5","img/flower6.png","76","720.2000000029802","3","1","3","2","1,0,0,1,1,0,1,0,1","0,0,1,1,0,1,0,1,1","2",""
"","html-keyboard-response","139","185228","0.0-139.0","36W0OB37HX0JRCTX0HOV1JRE7JSHZA","A1EIKIHK12UDP0","3RBI0I35XEP26UEZY8S8UZLEA1IY3E","","null","<img src=""img/flower6.png"" style=""width:200px; border:14px solid green;"">","null","","","","","","","","",""
"","image-keyboard-response","140","185909","0.0-140.0","36W0OB37HX0JRCTX0HOV1JRE7JSHZA","A1EIKIHK12UDP0","3RBI0I35XEP26UEZY8S8UZLEA1IY3E","","678.6000000014901","img/flower6.png","76","680.6999999955297","3","1","3","2","1,0,0,1,1,0,1,0,1","0,0,1,1,0,1,0,1,1","2",""
"","html-keyboard-response","141","186212","0.0-141.0","36W0OB37HX0JRCTX0HOV1JRE7JSHZA","A1EIKIHK12UDP0","3RBI0I35XEP26UEZY8S8UZLEA1IY3E","","null","<img src=""img/flower6.png"" style=""width:200px; border:14px solid green;"">","null","","","","","","","","",""
"","image-keyboard-response","142","187334","0.0-142.0","36W0OB37HX0JRCTX0HOV1JRE7JSHZA","A1EIKIHK12UDP0","3RBI0I35XEP26UEZY8S8UZLEA1IY3E","","1119.2999999970198","img/flower4.png","76","1121.3000000044703","3","1","1","2","1,0,0,1,1,0,1,0,1","0,0,1,1,0,1,0,1,1","2",""
"","html-keyboard-response","143","187636","0.0-143.0","36W0OB37HX0JRCTX0HOV1JRE7JSHZA","A1EIKIHK12UDP0","3RBI0I35XEP26UEZY8S8UZLEA1IY3E","","null","<img src=""img/flower4.png"" style=""width:200px; border:14px solid green;"">","null","","","","","","","","",""
"","image-keyboard-response","144","188537","0.0-144.0","36W0OB37HX0JRCTX0HOV1JRE7JSHZA","A1EIKIHK12UDP0","3RBI0I35XEP26UEZY8S8UZLEA1IY3E","","897.7999999970198","img/flower2.png","76","900.0999999940395","3","1","2","2","1,0,0,1,1,0,1,0,1","0,0,1,1,0,1,0,1,1","2",""
"","html-keyboard-response","145","188839","0.0-145.0","36W0OB37HX0JRCTX0HOV1JRE7JSHZA","A1EIKIHK12UDP0","3RBI0I35XEP26UEZY8S8UZLEA1IY3E","","null","<img src=""img/flower2.png"" style=""width:200px; border:14px solid green;"">","null","","","","","","","","",""
"","image-keyboard-response","146","189494","0.0-146.0","36W0OB37HX0JRCTX0HOV1JRE7JSHZA","A1EIKIHK12UDP0","3RBI0I35XEP26UEZY8S8UZLEA1IY3E","","651.2999999970198","img/flower2.png","76","653.8000000044703","3","1","2","2","1,0,0,1,1,0,1,0,1","0,0,1,1,0,1,0,1,1","2",""
"","html-keyboard-response","147","189796","0.0-147.0","36W0OB37HX0JRCTX0HOV1JRE7JSHZA","A1EIKIHK12UDP0","3RBI0I35XEP26UEZY8S8UZLEA1IY3E","","null","<img src=""img/flower2.png"" style=""width:200px; border:14px solid green;"">","null","","","","","","","","",""
"","image-keyboard-response","148","190753","0.0-148.0","36W0OB37HX0JRCTX0HOV1JRE7JSHZA","A1EIKIHK12UDP0","3RBI0I35XEP26UEZY8S8UZLEA1IY3E","","954.2999999970198","img/flower2.png","74","956.3000000044703","1","1","2","2","1,0,0,1,1,0,1,0,1","0,0,1,1,0,1,0,1,1","2",""
"","html-keyboard-response","149","191055","0.0-149.0","36W0OB37HX0JRCTX0HOV1JRE7JSHZA","A1EIKIHK12UDP0","3RBI0I35XEP26UEZY8S8UZLEA1IY3E","","null","<img src=""img/flower2.png"" style=""width:200px; border:14px solid green;"">","null","","","","","","","","",""
"","image-keyboard-response","150","191937","0.0-150.0","36W0OB37HX0JRCTX0HOV1JRE7JSHZA","A1EIKIHK12UDP0","3RBI0I35XEP26UEZY8S8UZLEA1IY3E","","879.6999999955297","img/flower4.png","76","882.3000000044703","3","1","1","2","1,0,0,1,1,0,1,0,1","0,0,1,1,0,1,0,1,1","2",""
"","html-keyboard-response","151","192241","0.0-151.0","36W0OB37HX0JRCTX0HOV1JRE7JSHZA","A1EIKIHK12UDP0","3RBI0I35XEP26UEZY8S8UZLEA1IY3E","","null","<img src=""img/flower4.png"" style=""width:200px; border:14px solid green;"">","null","","","","","","","","",""
"","image-keyboard-response","152","193065","0.0-152.0","36W0OB37HX0JRCTX0HOV1JRE7JSHZA","A1EIKIHK12UDP0","3RBI0I35XEP26UEZY8S8UZLEA1IY3E","","821.7000000029802","img/flower2.png","74","823.7000000029802","1","1","2","2","1,0,0,1,1,0,1,0,1","0,0,1,1,0,1,0,1,1","2",""
"","html-keyboard-response","153","193368","0.0-153.0","36W0OB37HX0JRCTX0HOV1JRE7JSHZA","A1EIKIHK12UDP0","3RBI0I35XEP26UEZY8S8UZLEA1IY3E","","null","<img src=""img/flower2.png"" style=""width:200px; border:14px solid green;"">","null","","","","","","","","",""
"","image-keyboard-response","154","194111","0.0-154.0","36W0OB37HX0JRCTX0HOV1JRE7JSHZA","A1EIKIHK12UDP0","3RBI0I35XEP26UEZY8S8UZLEA1IY3E","","741","img/flower2.png","74","743.1000000014901","1","1","2","2","1,0,0,1,1,0,1,0,1","0,0,1,1,0,1,0,1,1","2",""
"","html-keyboard-response","155","194413","0.0-155.0","36W0OB37HX0JRCTX0HOV1JRE7JSHZA","A1EIKIHK12UDP0","3RBI0I35XEP26UEZY8S8UZLEA1IY3E","","null","<img src=""img/flower2.png"" style=""width:200px; border:14px solid green;"">","null","","","","","","","","",""
"","image-keyboard-response","156","195163","0.0-156.0","36W0OB37HX0JRCTX0HOV1JRE7JSHZA","A1EIKIHK12UDP0","3RBI0I35XEP26UEZY8S8UZLEA1IY3E","","747.3999999985099","img/flower2.png","74","749.1000000014901","1","1","2","2","1,0,0,1,1,0,1,0,1","0,0,1,1,0,1,0,1,1","2",""
"","html-keyboard-response","157","195466","0.0-157.0","36W0OB37HX0JRCTX0HOV1JRE7JSHZA","A1EIKIHK12UDP0","3RBI0I35XEP26UEZY8S8UZLEA1IY3E","","null","<img src=""img/flower2.png"" style=""width:200px; border:14px solid green;"">","null","","","","","","","","",""
"","image-keyboard-response","158","196160","0.0-158.0","36W0OB37HX0JRCTX0HOV1JRE7JSHZA","A1EIKIHK12UDP0","3RBI0I35XEP26UEZY8S8UZLEA1IY3E","","691.3000000044703","img/flower4.png","76","694.2000000029802","3","1","1","2","1,0,0,1,1,0,1,0,1","0,0,1,1,0,1,0,1,1","2",""
"","html-keyboard-response","159","196462","0.0-159.0","36W0OB37HX0JRCTX0HOV1JRE7JSHZA","A1EIKIHK12UDP0","3RBI0I35XEP26UEZY8S8UZLEA1IY3E","","null","<img src=""img/flower4.png"" style=""width:200px; border:14px solid green;"">","null","","","","","","","","",""
"","image-keyboard-response","160","197254","0.0-160.0","36W0OB37HX0JRCTX0HOV1JRE7JSHZA","A1EIKIHK12UDP0","3RBI0I35XEP26UEZY8S8UZLEA1IY3E","","790","img/flower2.png","74","791.6999999955297","1","1","2","2","1,0,0,1,1,0,1,0,1","0,0,1,1,0,1,0,1,1","2",""
"","html-keyboard-response","161","197557","0.0-161.0","36W0OB37HX0JRCTX0HOV1JRE7JSHZA","A1EIKIHK12UDP0","3RBI0I35XEP26UEZY8S8UZLEA1IY3E","","null","<img src=""img/flower2.png"" style=""width:200px; border:14px solid green;"">","null","","","","","","","","",""
"","image-keyboard-response","162","198201","0.0-162.0","36W0OB37HX0JRCTX0HOV1JRE7JSHZA","A1EIKIHK12UDP0","3RBI0I35XEP26UEZY8S8UZLEA1IY3E","","640.2999999970198","img/flower2.png","74","643","1","1","2","2","1,0,0,1,1,0,1,0,1","0,0,1,1,0,1,0,1,1","2",""
"","html-keyboard-response","163","198503","0.0-163.0","36W0OB37HX0JRCTX0HOV1JRE7JSHZA","A1EIKIHK12UDP0","3RBI0I35XEP26UEZY8S8UZLEA1IY3E","","null","<img src=""img/flower2.png"" style=""width:200px; border:14px solid green;"">","null","","","","","","","","",""
"","image-keyboard-response","164","199198","0.0-164.0","36W0OB37HX0JRCTX0HOV1JRE7JSHZA","A1EIKIHK12UDP0","3RBI0I35XEP26UEZY8S8UZLEA1IY3E","","692.5","img/flower2.png","74","694.3999999985099","1","1","2","2","1,0,0,1,1,0,1,0,1","0,0,1,1,0,1,0,1,1","2",""
"","html-keyboard-response","165","199500","0.0-165.0","36W0OB37HX0JRCTX0HOV1JRE7JSHZA","A1EIKIHK12UDP0","3RBI0I35XEP26UEZY8S8UZLEA1IY3E","","null","<img src=""img/flower2.png"" style=""width:200px; border:14px solid green;"">","null","","","","","","","","",""
"","image-keyboard-response","166","200180","0.0-166.0","36W0OB37HX0JRCTX0HOV1JRE7JSHZA","A1EIKIHK12UDP0","3RBI0I35XEP26UEZY8S8UZLEA1IY3E","","677.7999999970198","img/flower6.png","76","679.7000000029802","3","1","3","2","1,0,0,1,1,0,1,0,1","0,0,1,1,0,1,0,1,1","2",""
"","html-keyboard-response","167","200483","0.0-167.0","36W0OB37HX0JRCTX0HOV1JRE7JSHZA","A1EIKIHK12UDP0","3RBI0I35XEP26UEZY8S8UZLEA1IY3E","","null","<img src=""img/flower6.png"" style=""width:200px; border:14px solid green;"">","null","","","","","","","","",""
"","image-keyboard-response","168","201286","0.0-168.0","36W0OB37HX0JRCTX0HOV1JRE7JSHZA","A1EIKIHK12UDP0","3RBI0I35XEP26UEZY8S8UZLEA1IY3E","","801.6000000014901","img/flower4.png","76","803.1000000014901","3","1","1","2","1,0,0,1,1,0,1,0,1","0,0,1,1,0,1,0,1,1","2",""
"","html-keyboard-response","169","201590","0.0-169.0","36W0OB37HX0JRCTX0HOV1JRE7JSHZA","A1EIKIHK12UDP0","3RBI0I35XEP26UEZY8S8UZLEA1IY3E","","null","<img src=""img/flower4.png"" style=""width:200px; border:14px solid green;"">","null","","","","","","","","",""
"","image-keyboard-response","170","202477","0.0-170.0","36W0OB37HX0JRCTX0HOV1JRE7JSHZA","A1EIKIHK12UDP0","3RBI0I35XEP26UEZY8S8UZLEA1IY3E","","885.7000000029802","img/flower6.png","76","887.5","3","1","3","2","1,0,0,1,1,0,1,0,1","0,0,1,1,0,1,0,1,1","2",""
"","html-keyboard-response","171","202780","0.0-171.0","36W0OB37HX0JRCTX0HOV1JRE7JSHZA","A1EIKIHK12UDP0","3RBI0I35XEP26UEZY8S8UZLEA1IY3E","","null","<img src=""img/flower6.png"" style=""width:200px; border:14px solid green;"">","null","","","","","","","","",""
"","image-keyboard-response","172","203798","0.0-172.0","36W0OB37HX0JRCTX0HOV1JRE7JSHZA","A1EIKIHK12UDP0","3RBI0I35XEP26UEZY8S8UZLEA1IY3E","","1014.6000000014901","img/flower2.png","74","1017","1","1","2","2","1,0,0,1,1,0,1,0,1","0,0,1,1,0,1,0,1,1","2",""
"","html-keyboard-response","173","204100","0.0-173.0","36W0OB37HX0JRCTX0HOV1JRE7JSHZA","A1EIKIHK12UDP0","3RBI0I35XEP26UEZY8S8UZLEA1IY3E","","null","<img src=""img/flower2.png"" style=""width:200px; border:14px solid green;"">","null","","","","","","","","",""
"","image-keyboard-response","174","204928","0.0-174.0","36W0OB37HX0JRCTX0HOV1JRE7JSHZA","A1EIKIHK12UDP0","3RBI0I35XEP26UEZY8S8UZLEA1IY3E","","825.5","img/flower4.png","76","827.3999999985099","3","1","1","2","1,0,0,1,1,0,1,0,1","0,0,1,1,0,1,0,1,1","2",""
"","html-keyboard-response","175","205231","0.0-175.0","36W0OB37HX0JRCTX0HOV1JRE7JSHZA","A1EIKIHK12UDP0","3RBI0I35XEP26UEZY8S8UZLEA1IY3E","","null","<img src=""img/flower4.png"" style=""width:200px; border:14px solid green;"">","null","","","","","","","","",""
"","image-keyboard-response","176","205893","0.0-176.0","36W0OB37HX0JRCTX0HOV1JRE7JSHZA","A1EIKIHK12UDP0","3RBI0I35XEP26UEZY8S8UZLEA1IY3E","","658.8999999985099","img/flower4.png","76","661.1999999955297","3","1","1","2","1,0,0,1,1,0,1,0,1","0,0,1,1,0,1,0,1,1","2",""
"","html-keyboard-response","177","206195","0.0-177.0","36W0OB37HX0JRCTX0HOV1JRE7JSHZA","A1EIKIHK12UDP0","3RBI0I35XEP26UEZY8S8UZLEA1IY3E","","null","<img src=""img/flower4.png"" style=""width:200px; border:14px solid green;"">","null","","","","","","","","",""
"","image-keyboard-response","178","206901","0.0-178.0","36W0OB37HX0JRCTX0HOV1JRE7JSHZA","A1EIKIHK12UDP0","3RBI0I35XEP26UEZY8S8UZLEA1IY3E","","703.1000000014901","img/flower2.png","74","704.8999999985099","1","1","2","2","1,0,0,1,1,0,1,0,1","0,0,1,1,0,1,0,1,1","2",""
"","html-keyboard-response","179","207203","0.0-179.0","36W0OB37HX0JRCTX0HOV1JRE7JSHZA","A1EIKIHK12UDP0","3RBI0I35XEP26UEZY8S8UZLEA1IY3E","","null","<img src=""img/flower2.png"" style=""width:200px; border:14px solid green;"">","null","","","","","","","","",""
"","image-keyboard-response","180","207896","0.0-180.0","36W0OB37HX0JRCTX0HOV1JRE7JSHZA","A1EIKIHK12UDP0","3RBI0I35XEP26UEZY8S8UZLEA1IY3E","","690.5","img/flower2.png","74","692.2999999970198","1","1","2","2","1,0,0,1,1,0,1,0,1","0,0,1,1,0,1,0,1,1","2",""
"","html-keyboard-response","181","208199","0.0-181.0","36W0OB37HX0JRCTX0HOV1JRE7JSHZA","A1EIKIHK12UDP0","3RBI0I35XEP26UEZY8S8UZLEA1IY3E","","null","<img src=""img/flower2.png"" style=""width:200px; border:14px solid green;"">","null","","","","","","","","",""
"","image-keyboard-response","182","209382","0.0-182.0","36W0OB37HX0JRCTX0HOV1JRE7JSHZA","A1EIKIHK12UDP0","3RBI0I35XEP26UEZY8S8UZLEA1IY3E","","1181.2999999970198","img/flower5.png","75","1183.1999999955297","2","1","2","1","1,0.333,0.333,0.333,1,0.333,0.333,0.333,1","1,0.333,0.333,0.333,1,0.333,0.333,0.333,1","1",""
"","html-keyboard-response","183","209685","0.0-183.0","36W0OB37HX0JRCTX0HOV1JRE7JSHZA","A1EIKIHK12UDP0","3RBI0I35XEP26UEZY8S8UZLEA1IY3E","","null","<img src=""img/flower5.png"" style=""width:200px; border:14px solid green;"">","null","","","","","","","","",""
"","image-keyboard-response","184","210474","0.0-184.0","36W0OB37HX0JRCTX0HOV1JRE7JSHZA","A1EIKIHK12UDP0","3RBI0I35XEP26UEZY8S8UZLEA1IY3E","","786.8999999985099","img/flower5.png","75","788.6000000014901","2","1","2","1","1,0.333,0.333,0.333,1,0.333,0.333,0.333,1","1,0.333,0.333,0.333,1,0.333,0.333,0.333,1","1",""
"","html-keyboard-response","185","210777","0.0-185.0","36W0OB37HX0JRCTX0HOV1JRE7JSHZA","A1EIKIHK12UDP0","3RBI0I35XEP26UEZY8S8UZLEA1IY3E","","null","<img src=""img/flower5.png"" style=""width:200px; border:14px solid green;"">","null","","","","","","","","",""
"","image-keyboard-response","186","211705","0.0-186.0","36W0OB37HX0JRCTX0HOV1JRE7JSHZA","A1EIKIHK12UDP0","3RBI0I35XEP26UEZY8S8UZLEA1IY3E","","926","img/flower1.png","75","928","2","0","1","1","1,0.333,0.333,0.333,1,0.333,0.333,0.333,1","1,0.333,0.333,0.333,1,0.333,0.333,0.333,1","1",""
"","html-keyboard-response","187","212009","0.0-187.0","36W0OB37HX0JRCTX0HOV1JRE7JSHZA","A1EIKIHK12UDP0","3RBI0I35XEP26UEZY8S8UZLEA1IY3E","","null","<img src=""img/flower1.png"" style=""width:200px;border:14px solid red;"">","null","","","","","","","","",""
"","image-keyboard-response","188","213296","0.0-188.0","36W0OB37HX0JRCTX0HOV1JRE7JSHZA","A1EIKIHK12UDP0","3RBI0I35XEP26UEZY8S8UZLEA1IY3E","","1285.6000000014901","img/flower3.png","76","1287.3999999985099","3","1","3","1","1,0.333,0.333,0.333,1,0.333,0.333,0.333,1","1,0.333,0.333,0.333,1,0.333,0.333,0.333,1","1",""
"","html-keyboard-response","189","213599","0.0-189.0","36W0OB37HX0JRCTX0HOV1JRE7JSHZA","A1EIKIHK12UDP0","3RBI0I35XEP26UEZY8S8UZLEA1IY3E","","null","<img src=""img/flower3.png"" style=""width:200px; border:14px solid green;"">","null","","","","","","","","",""
"","image-keyboard-response","190","214578","0.0-190.0","36W0OB37HX0JRCTX0HOV1JRE7JSHZA","A1EIKIHK12UDP0","3RBI0I35XEP26UEZY8S8UZLEA1IY3E","","977.1000000014901","img/flower5.png","75","979","2","1","2","1","1,0.333,0.333,0.333,1,0.333,0.333,0.333,1","1,0.333,0.333,0.333,1,0.333,0.333,0.333,1","1",""
"","html-keyboard-response","191","214881","0.0-191.0","36W0OB37HX0JRCTX0HOV1JRE7JSHZA","A1EIKIHK12UDP0","3RBI0I35XEP26UEZY8S8UZLEA1IY3E","","null","<img src=""img/flower5.png"" style=""width:200px; border:14px solid green;"">","null","","","","","","","","",""
"","image-keyboard-response","192","215943","0.0-192.0","36W0OB37HX0JRCTX0HOV1JRE7JSHZA","A1EIKIHK12UDP0","3RBI0I35XEP26UEZY8S8UZLEA1IY3E","","1059.2999999970198","img/flower1.png","74","1061.1999999955297","1","1","1","1","1,0.333,0.333,0.333,1,0.333,0.333,0.333,1","1,0.333,0.333,0.333,1,0.333,0.333,0.333,1","1",""
"","html-keyboard-response","193","216246","0.0-193.0","36W0OB37HX0JRCTX0HOV1JRE7JSHZA","A1EIKIHK12UDP0","3RBI0I35XEP26UEZY8S8UZLEA1IY3E","","null","<img src=""img/flower1.png"" style=""width:200px; border:14px solid green;"">","null","","","","","","","","",""
"","image-keyboard-response","194","217174","0.0-194.0","36W0OB37HX0JRCTX0HOV1JRE7JSHZA","A1EIKIHK12UDP0","3RBI0I35XEP26UEZY8S8UZLEA1IY3E","","925.7999999970198","img/flower3.png","76","928.1000000014901","3","1","3","1","1,0.333,0.333,0.333,1,0.333,0.333,0.333,1","1,0.333,0.333,0.333,1,0.333,0.333,0.333,1","1",""
"","html-keyboard-response","195","217477","0.0-195.0","36W0OB37HX0JRCTX0HOV1JRE7JSHZA","A1EIKIHK12UDP0","3RBI0I35XEP26UEZY8S8UZLEA1IY3E","","null","<img src=""img/flower3.png"" style=""width:200px; border:14px solid green;"">","null","","","","","","","","",""
"","image-keyboard-response","196","218270","0.0-196.0","36W0OB37HX0JRCTX0HOV1JRE7JSHZA","A1EIKIHK12UDP0","3RBI0I35XEP26UEZY8S8UZLEA1IY3E","","790.1000000014901","img/flower3.png","76","792.5","3","1","3","1","1,0.333,0.333,0.333,1,0.333,0.333,0.333,1","1,0.333,0.333,0.333,1,0.333,0.333,0.333,1","1",""
"","html-keyboard-response","197","218572","0.0-197.0","36W0OB37HX0JRCTX0HOV1JRE7JSHZA","A1EIKIHK12UDP0","3RBI0I35XEP26UEZY8S8UZLEA1IY3E","","null","<img src=""img/flower3.png"" style=""width:200px; border:14px solid green;"">","null","","","","","","","","",""
"","image-keyboard-response","198","219259","0.0-198.0","36W0OB37HX0JRCTX0HOV1JRE7JSHZA","A1EIKIHK12UDP0","3RBI0I35XEP26UEZY8S8UZLEA1IY3E","","684.3999999985099","img/flower3.png","76","686.6000000014901","3","1","3","1","1,0.333,0.333,0.333,1,0.333,0.333,0.333,1","1,0.333,0.333,0.333,1,0.333,0.333,0.333,1","1",""
"","html-keyboard-response","199","219562","0.0-199.0","36W0OB37HX0JRCTX0HOV1JRE7JSHZA","A1EIKIHK12UDP0","3RBI0I35XEP26UEZY8S8UZLEA1IY3E","","null","<img src=""img/flower3.png"" style=""width:200px; border:14px solid green;"">","null","","","","","","","","",""
"","image-keyboard-response","200","220403","0.0-200.0","36W0OB37HX0JRCTX0HOV1JRE7JSHZA","A1EIKIHK12UDP0","3RBI0I35XEP26UEZY8S8UZLEA1IY3E","","838.0999999940395","img/flower1.png","74","840.5","1","1","1","1","1,0.333,0.333,0.333,1,0.333,0.333,0.333,1","1,0.333,0.333,0.333,1,0.333,0.333,0.333,1","1",""
"","html-keyboard-response","201","220705","0.0-201.0","36W0OB37HX0JRCTX0HOV1JRE7JSHZA","A1EIKIHK12UDP0","3RBI0I35XEP26UEZY8S8UZLEA1IY3E","","null","<img src=""img/flower1.png"" style=""width:200px; border:14px solid green;"">","null","","","","","","","","",""
"","image-keyboard-response","202","221487","0.0-202.0","36W0OB37HX0JRCTX0HOV1JRE7JSHZA","A1EIKIHK12UDP0","3RBI0I35XEP26UEZY8S8UZLEA1IY3E","","779.5","img/flower1.png","74","781.1000000014901","1","1","1","1","1,0.333,0.333,0.333,1,0.333,0.333,0.333,1","1,0.333,0.333,0.333,1,0.333,0.333,0.333,1","1",""
"","html-keyboard-response","203","221789","0.0-203.0","36W0OB37HX0JRCTX0HOV1JRE7JSHZA","A1EIKIHK12UDP0","3RBI0I35XEP26UEZY8S8UZLEA1IY3E","","null","<img src=""img/flower1.png"" style=""width:200px; border:14px solid green;"">","null","","","","","","","","",""
"","image-keyboard-response","204","222627","0.0-204.0","36W0OB37HX0JRCTX0HOV1JRE7JSHZA","A1EIKIHK12UDP0","3RBI0I35XEP26UEZY8S8UZLEA1IY3E","","835.8000000044703","img/flower5.png","75","837.6999999955297","2","1","2","1","1,0.333,0.333,0.333,1,0.333,0.333,0.333,1","1,0.333,0.333,0.333,1,0.333,0.333,0.333,1","1",""
"","html-keyboard-response","205","222930","0.0-205.0","36W0OB37HX0JRCTX0HOV1JRE7JSHZA","A1EIKIHK12UDP0","3RBI0I35XEP26UEZY8S8UZLEA1IY3E","","null","<img src=""img/flower5.png"" style=""width:200px; border:14px solid green;"">","null","","","","","","","","",""
"","image-keyboard-response","206","223651","0.0-206.0","36W0OB37HX0JRCTX0HOV1JRE7JSHZA","A1EIKIHK12UDP0","3RBI0I35XEP26UEZY8S8UZLEA1IY3E","","718.2999999970198","img/flower5.png","75","720.5","2","1","2","1","1,0.333,0.333,0.333,1,0.333,0.333,0.333,1","1,0.333,0.333,0.333,1,0.333,0.333,0.333,1","1",""
"","html-keyboard-response","207","223954","0.0-207.0","36W0OB37HX0JRCTX0HOV1JRE7JSHZA","A1EIKIHK12UDP0","3RBI0I35XEP26UEZY8S8UZLEA1IY3E","","null","<img src=""img/flower5.png"" style=""width:200px; border:14px solid green;"">","null","","","","","","","","",""
"","image-keyboard-response","208","224721","0.0-208.0","36W0OB37HX0JRCTX0HOV1JRE7JSHZA","A1EIKIHK12UDP0","3RBI0I35XEP26UEZY8S8UZLEA1IY3E","","764.2000000029802","img/flower5.png","75","766.3999999985099","2","1","2","1","1,0.333,0.333,0.333,1,0.333,0.333,0.333,1","1,0.333,0.333,0.333,1,0.333,0.333,0.333,1","1",""
"","html-keyboard-response","209","225024","0.0-209.0","36W0OB37HX0JRCTX0HOV1JRE7JSHZA","A1EIKIHK12UDP0","3RBI0I35XEP26UEZY8S8UZLEA1IY3E","","null","<img src=""img/flower5.png"" style=""width:200px; border:14px solid green;"">","null","","","","","","","","",""
"","image-keyboard-response","210","225775","0.0-210.0","36W0OB37HX0JRCTX0HOV1JRE7JSHZA","A1EIKIHK12UDP0","3RBI0I35XEP26UEZY8S8UZLEA1IY3E","","749.3999999985099","img/flower5.png","75","751.7999999970198","2","1","2","1","1,0.333,0.333,0.333,1,0.333,0.333,0.333,1","1,0.333,0.333,0.333,1,0.333,0.333,0.333,1","1",""
"","html-keyboard-response","211","226078","0.0-211.0","36W0OB37HX0JRCTX0HOV1JRE7JSHZA","A1EIKIHK12UDP0","3RBI0I35XEP26UEZY8S8UZLEA1IY3E","","null","<img src=""img/flower5.png"" style=""width:200px; border:14px solid green;"">","null","","","","","","","","",""
"","image-keyboard-response","212","226755","0.0-212.0","36W0OB37HX0JRCTX0HOV1JRE7JSHZA","A1EIKIHK12UDP0","3RBI0I35XEP26UEZY8S8UZLEA1IY3E","","673.8999999985099","img/flower5.png","75","676.1000000014901","2","1","2","1","1,0.333,0.333,0.333,1,0.333,0.333,0.333,1","1,0.333,0.333,0.333,1,0.333,0.333,0.333,1","1",""
"","html-keyboard-response","213","227058","0.0-213.0","36W0OB37HX0JRCTX0HOV1JRE7JSHZA","A1EIKIHK12UDP0","3RBI0I35XEP26UEZY8S8UZLEA1IY3E","","null","<img src=""img/flower5.png"" style=""width:200px; border:14px solid green;"">","null","","","","","","","","",""
"","image-keyboard-response","214","228174","0.0-214.0","36W0OB37HX0JRCTX0HOV1JRE7JSHZA","A1EIKIHK12UDP0","3RBI0I35XEP26UEZY8S8UZLEA1IY3E","","1113.5","img/flower1.png","74","1116","1","1","1","1","1,0.333,0.333,0.333,1,0.333,0.333,0.333,1","1,0.333,0.333,0.333,1,0.333,0.333,0.333,1","1",""
"","html-keyboard-response","215","228476","0.0-215.0","36W0OB37HX0JRCTX0HOV1JRE7JSHZA","A1EIKIHK12UDP0","3RBI0I35XEP26UEZY8S8UZLEA1IY3E","","null","<img src=""img/flower1.png"" style=""width:200px; border:14px solid green;"">","null","","","","","","","","",""
"","image-keyboard-response","216","229258","0.0-216.0","36W0OB37HX0JRCTX0HOV1JRE7JSHZA","A1EIKIHK12UDP0","3RBI0I35XEP26UEZY8S8UZLEA1IY3E","","779","img/flower3.png","76","781","3","1","3","1","1,0.333,0.333,0.333,1,0.333,0.333,0.333,1","1,0.333,0.333,0.333,1,0.333,0.333,0.333,1","1",""
"","html-keyboard-response","217","229561","0.0-217.0","36W0OB37HX0JRCTX0HOV1JRE7JSHZA","A1EIKIHK12UDP0","3RBI0I35XEP26UEZY8S8UZLEA1IY3E","","null","<img src=""img/flower3.png"" style=""width:200px; border:14px solid green;"">","null","","","","","","","","",""
"","image-keyboard-response","218","230402","0.0-218.0","36W0OB37HX0JRCTX0HOV1JRE7JSHZA","A1EIKIHK12UDP0","3RBI0I35XEP26UEZY8S8UZLEA1IY3E","","839.3999999985099","img/flower1.png","74","841.3999999985099","1","1","1","1","1,0.333,0.333,0.333,1,0.333,0.333,0.333,1","1,0.333,0.333,0.333,1,0.333,0.333,0.333,1","1",""
"","html-keyboard-response","219","230705","0.0-219.0","36W0OB37HX0JRCTX0HOV1JRE7JSHZA","A1EIKIHK12UDP0","3RBI0I35XEP26UEZY8S8UZLEA1IY3E","","null","<img src=""img/flower1.png"" style=""width:200px; border:14px solid green;"">","null","","","","","","","","",""
"","image-keyboard-response","220","231479","0.0-220.0","36W0OB37HX0JRCTX0HOV1JRE7JSHZA","A1EIKIHK12UDP0","3RBI0I35XEP26UEZY8S8UZLEA1IY3E","","771.3000000044703","img/flower1.png","74","773.5","1","1","1","1","1,0.333,0.333,0.333,1,0.333,0.333,0.333,1","1,0.333,0.333,0.333,1,0.333,0.333,0.333,1","1",""
"","html-keyboard-response","221","231782","0.0-221.0","36W0OB37HX0JRCTX0HOV1JRE7JSHZA","A1EIKIHK12UDP0","3RBI0I35XEP26UEZY8S8UZLEA1IY3E","","null","<img src=""img/flower1.png"" style=""width:200px; border:14px solid green;"">","null","","","","","","","","",""
"","image-keyboard-response","222","232512","0.0-222.0","36W0OB37HX0JRCTX0HOV1JRE7JSHZA","A1EIKIHK12UDP0","3RBI0I35XEP26UEZY8S8UZLEA1IY3E","","727.7999999970198","img/flower5.png","75","729.8999999985099","2","1","2","1","1,0.333,0.333,0.333,1,0.333,0.333,0.333,1","1,0.333,0.333,0.333,1,0.333,0.333,0.333,1","1",""
"","html-keyboard-response","223","232814","0.0-223.0","36W0OB37HX0JRCTX0HOV1JRE7JSHZA","A1EIKIHK12UDP0","3RBI0I35XEP26UEZY8S8UZLEA1IY3E","","null","<img src=""img/flower5.png"" style=""width:200px; border:14px solid green;"">","null","","","","","","","","",""
"","image-keyboard-response","224","233611","0.0-224.0","36W0OB37HX0JRCTX0HOV1JRE7JSHZA","A1EIKIHK12UDP0","3RBI0I35XEP26UEZY8S8UZLEA1IY3E","","795.2000000029802","img/flower1.png","74","797","1","1","1","1","1,0.333,0.333,0.333,1,0.333,0.333,0.333,1","1,0.333,0.333,0.333,1,0.333,0.333,0.333,1","1",""
"","html-keyboard-response","225","233914","0.0-225.0","36W0OB37HX0JRCTX0HOV1JRE7JSHZA","A1EIKIHK12UDP0","3RBI0I35XEP26UEZY8S8UZLEA1IY3E","","null","<img src=""img/flower1.png"" style=""width:200px; border:14px solid green;"">","null","","","","","","","","",""
"","image-keyboard-response","226","234655","0.0-226.0","36W0OB37HX0JRCTX0HOV1JRE7JSHZA","A1EIKIHK12UDP0","3RBI0I35XEP26UEZY8S8UZLEA1IY3E","","739.2000000029802","img/flower5.png","75","741","2","1","2","1","1,0.333,0.333,0.333,1,0.333,0.333,0.333,1","1,0.333,0.333,0.333,1,0.333,0.333,0.333,1","1",""
"","html-keyboard-response","227","234958","0.0-227.0","36W0OB37HX0JRCTX0HOV1JRE7JSHZA","A1EIKIHK12UDP0","3RBI0I35XEP26UEZY8S8UZLEA1IY3E","","null","<img src=""img/flower5.png"" style=""width:200px; border:14px solid green;"">","null","","","","","","","","",""
"","image-keyboard-response","228","235668","0.0-228.0","36W0OB37HX0JRCTX0HOV1JRE7JSHZA","A1EIKIHK12UDP0","3RBI0I35XEP26UEZY8S8UZLEA1IY3E","","706.7999999970198","img/flower3.png","76","709.3000000044703","3","1","3","1","1,0.333,0.333,0.333,1,0.333,0.333,0.333,1","1,0.333,0.333,0.333,1,0.333,0.333,0.333,1","1",""
"","html-keyboard-response","229","235970","0.0-229.0","36W0OB37HX0JRCTX0HOV1JRE7JSHZA","A1EIKIHK12UDP0","3RBI0I35XEP26UEZY8S8UZLEA1IY3E","","null","<img src=""img/flower3.png"" style=""width:200px; border:14px solid green;"">","null","","","","","","","","",""
"","image-keyboard-response","230","236758","0.0-230.0","36W0OB37HX0JRCTX0HOV1JRE7JSHZA","A1EIKIHK12UDP0","3RBI0I35XEP26UEZY8S8UZLEA1IY3E","","785.5999999940395","img/flower5.png","75","787.3999999985099","2","1","2","1","1,0.333,0.333,0.333,1,0.333,0.333,0.333,1","1,0.333,0.333,0.333,1,0.333,0.333,0.333,1","1",""
"","html-keyboard-response","231","237060","0.0-231.0","36W0OB37HX0JRCTX0HOV1JRE7JSHZA","A1EIKIHK12UDP0","3RBI0I35XEP26UEZY8S8UZLEA1IY3E","","null","<img src=""img/flower5.png"" style=""width:200px; border:14px solid green;"">","null","","","","","","","","",""
"","image-keyboard-response","232","237783","0.0-232.0","36W0OB37HX0JRCTX0HOV1JRE7JSHZA","A1EIKIHK12UDP0","3RBI0I35XEP26UEZY8S8UZLEA1IY3E","","721","img/flower3.png","76","722.7999999970198","3","1","3","1","1,0.333,0.333,0.333,1,0.333,0.333,0.333,1","1,0.333,0.333,0.333,1,0.333,0.333,0.333,1","1",""
"","html-keyboard-response","233","238086","0.0-233.0","36W0OB37HX0JRCTX0HOV1JRE7JSHZA","A1EIKIHK12UDP0","3RBI0I35XEP26UEZY8S8UZLEA1IY3E","","null","<img src=""img/flower3.png"" style=""width:200px; border:14px solid green;"">","null","","","","","","","","",""
"","image-keyboard-response","234","239099","0.0-234.0","36W0OB37HX0JRCTX0HOV1JRE7JSHZA","A1EIKIHK12UDP0","3RBI0I35XEP26UEZY8S8UZLEA1IY3E","","1010.8999999985099","img/flower1.png","74","1012.8999999985099","1","1","1","1","1,0.333,0.333,0.333,1,0.333,0.333,0.333,1","1,0.333,0.333,0.333,1,0.333,0.333,0.333,1","1",""
"","html-keyboard-response","235","239402","0.0-235.0","36W0OB37HX0JRCTX0HOV1JRE7JSHZA","A1EIKIHK12UDP0","3RBI0I35XEP26UEZY8S8UZLEA1IY3E","","null","<img src=""img/flower1.png"" style=""width:200px; border:14px solid green;"">","null","","","","","","","","",""
"","image-keyboard-response","236","240101","0.0-236.0","36W0OB37HX0JRCTX0HOV1JRE7JSHZA","A1EIKIHK12UDP0","3RBI0I35XEP26UEZY8S8UZLEA1IY3E","","696.7999999970198","img/flower3.png","76","698.8000000044703","3","1","3","1","1,0.333,0.333,0.333,1,0.333,0.333,0.333,1","1,0.333,0.333,0.333,1,0.333,0.333,0.333,1","1",""
"","html-keyboard-response","237","240404","0.0-237.0","36W0OB37HX0JRCTX0HOV1JRE7JSHZA","A1EIKIHK12UDP0","3RBI0I35XEP26UEZY8S8UZLEA1IY3E","","null","<img src=""img/flower3.png"" style=""width:200px; border:14px solid green;"">","null","","","","","","","","",""
"","image-keyboard-response","238","241151","0.0-238.0","36W0OB37HX0JRCTX0HOV1JRE7JSHZA","A1EIKIHK12UDP0","3RBI0I35XEP26UEZY8S8UZLEA1IY3E","","744.7999999970198","img/flower1.png","74","746.6999999955297","1","1","1","1","1,0.333,0.333,0.333,1,0.333,0.333,0.333,1","1,0.333,0.333,0.333,1,0.333,0.333,0.333,1","1",""
"","html-keyboard-response","239","241453","0.0-239.0","36W0OB37HX0JRCTX0HOV1JRE7JSHZA","A1EIKIHK12UDP0","3RBI0I35XEP26UEZY8S8UZLEA1IY3E","","null","<img src=""img/flower1.png"" style=""width:200px; border:14px solid green;"">","null","","","","","","","","",""
"","image-keyboard-response","240","242124","0.0-240.0","36W0OB37HX0JRCTX0HOV1JRE7JSHZA","A1EIKIHK12UDP0","3RBI0I35XEP26UEZY8S8UZLEA1IY3E","","667.1999999955297","img/flower3.png","76","670.6000000014901","3","1","3","1","1,0.333,0.333,0.333,1,0.333,0.333,0.333,1","1,0.333,0.333,0.333,1,0.333,0.333,0.333,1","1",""
"","html-keyboard-response","241","242427","0.0-241.0","36W0OB37HX0JRCTX0HOV1JRE7JSHZA","A1EIKIHK12UDP0","3RBI0I35XEP26UEZY8S8UZLEA1IY3E","","null","<img src=""img/flower3.png"" style=""width:200px; border:14px solid green;"">","null","","","","","","","","",""
"","image-keyboard-response","242","243714","0.0-242.0","36W0OB37HX0JRCTX0HOV1JRE7JSHZA","A1EIKIHK12UDP0","3RBI0I35XEP26UEZY8S8UZLEA1IY3E","","1283.7999999970198","img/flower1.png","74","1286.6000000014901","1","1","1","1","1,0.333,0.333,0.333,1,0.333,0.333,0.333,1","1,0.333,0.333,0.333,1,0.333,0.333,0.333,1","1",""
"","html-keyboard-response","243","244016","0.0-243.0","36W0OB37HX0JRCTX0HOV1JRE7JSHZA","A1EIKIHK12UDP0","3RBI0I35XEP26UEZY8S8UZLEA1IY3E","","null","<img src=""img/flower1.png"" style=""width:200px; border:14px solid green;"">","null","","","","","","","","",""
"","image-keyboard-response","244","244745","0.0-244.0","36W0OB37HX0JRCTX0HOV1JRE7JSHZA","A1EIKIHK12UDP0","3RBI0I35XEP26UEZY8S8UZLEA1IY3E","","727","img/flower3.png","76","728.6999999955297","3","1","3","1","1,0.333,0.333,0.333,1,0.333,0.333,0.333,1","1,0.333,0.333,0.333,1,0.333,0.333,0.333,1","1",""
"","html-keyboard-response","245","245048","0.0-245.0","36W0OB37HX0JRCTX0HOV1JRE7JSHZA","A1EIKIHK12UDP0","3RBI0I35XEP26UEZY8S8UZLEA1IY3E","","null","<img src=""img/flower3.png"" style=""width:200px; border:14px solid green;"">","null","","","","","","","","",""
"","image-keyboard-response","246","245736","0.0-246.0","36W0OB37HX0JRCTX0HOV1JRE7JSHZA","A1EIKIHK12UDP0","3RBI0I35XEP26UEZY8S8UZLEA1IY3E","","685.5","img/flower3.png","76","687.5","3","1","3","1","1,0.333,0.333,0.333,1,0.333,0.333,0.333,1","1,0.333,0.333,0.333,1,0.333,0.333,0.333,1","1",""
"","html-keyboard-response","247","246039","0.0-247.0","36W0OB37HX0JRCTX0HOV1JRE7JSHZA","A1EIKIHK12UDP0","3RBI0I35XEP26UEZY8S8UZLEA1IY3E","","null","<img src=""img/flower3.png"" style=""width:200px; border:14px solid green;"">","null","","","","","","","","",""
"","image-keyboard-response","248","246774","0.0-248.0","36W0OB37HX0JRCTX0HOV1JRE7JSHZA","A1EIKIHK12UDP0","3RBI0I35XEP26UEZY8S8UZLEA1IY3E","","732","img/flower1.png","74","734.1000000014901","1","1","1","1","1,0.333,0.333,0.333,1,0.333,0.333,0.333,1","1,0.333,0.333,0.333,1,0.333,0.333,0.333,1","1",""
"","html-keyboard-response","249","247077","0.0-249.0","36W0OB37HX0JRCTX0HOV1JRE7JSHZA","A1EIKIHK12UDP0","3RBI0I35XEP26UEZY8S8UZLEA1IY3E","","null","<img src=""img/flower1.png"" style=""width:200px; border:14px solid green;"">","null","","","","","","","","",""
"","image-keyboard-response","250","247688","0.0-250.0","36W0OB37HX0JRCTX0HOV1JRE7JSHZA","A1EIKIHK12UDP0","3RBI0I35XEP26UEZY8S8UZLEA1IY3E","","608","img/flower3.png","76","610.1999999955297","3","1","3","1","1,0.333,0.333,0.333,1,0.333,0.333,0.333,1","1,0.333,0.333,0.333,1,0.333,0.333,0.333,1","1",""
"","html-keyboard-response","251","247992","0.0-251.0","36W0OB37HX0JRCTX0HOV1JRE7JSHZA","A1EIKIHK12UDP0","3RBI0I35XEP26UEZY8S8UZLEA1IY3E","","null","<img src=""img/flower3.png"" style=""width:200px; border:14px solid green;"">","null","","","","","","","","",""
"","image-keyboard-response","252","248630","0.0-252.0","36W0OB37HX0JRCTX0HOV1JRE7JSHZA","A1EIKIHK12UDP0","3RBI0I35XEP26UEZY8S8UZLEA1IY3E","","636.2000000029802","img/flower5.png","75","638.0999999940395","2","1","2","1","1,0.333,0.333,0.333,1,0.333,0.333,0.333,1","1,0.333,0.333,0.333,1,0.333,0.333,0.333,1","1",""
"","html-keyboard-response","253","248933","0.0-253.0","36W0OB37HX0JRCTX0HOV1JRE7JSHZA","A1EIKIHK12UDP0","3RBI0I35XEP26UEZY8S8UZLEA1IY3E","","null","<img src=""img/flower5.png"" style=""width:200px; border:14px solid green;"">","null","","","","","","","","",""
"","image-keyboard-response","254","249716","0.0-254.0","36W0OB37HX0JRCTX0HOV1JRE7JSHZA","A1EIKIHK12UDP0","3RBI0I35XEP26UEZY8S8UZLEA1IY3E","","780.8999999985099","img/flower3.png","76","782.7999999970198","3","1","3","1","1,0.333,0.333,0.333,1,0.333,0.333,0.333,1","1,0.333,0.333,0.333,1,0.333,0.333,0.333,1","1",""
"","html-keyboard-response","255","250019","0.0-255.0","36W0OB37HX0JRCTX0HOV1JRE7JSHZA","A1EIKIHK12UDP0","3RBI0I35XEP26UEZY8S8UZLEA1IY3E","","null","<img src=""img/flower3.png"" style=""width:200px; border:14px solid green;"">","null","","","","","","","","",""
"","image-keyboard-response","256","250635","0.0-256.0","36W0OB37HX0JRCTX0HOV1JRE7JSHZA","A1EIKIHK12UDP0","3RBI0I35XEP26UEZY8S8UZLEA1IY3E","","613.3999999985099","img/flower5.png","75","615.8000000044703","2","1","2","1","1,0.333,0.333,0.333,1,0.333,0.333,0.333,1","1,0.333,0.333,0.333,1,0.333,0.333,0.333,1","1",""
"","html-keyboard-response","257","250939","0.0-257.0","36W0OB37HX0JRCTX0HOV1JRE7JSHZA","A1EIKIHK12UDP0","3RBI0I35XEP26UEZY8S8UZLEA1IY3E","","null","<img src=""img/flower5.png"" style=""width:200px; border:14px solid green;"">","null","","","","","","","","",""
"","image-keyboard-response","258","251645","0.0-258.0","36W0OB37HX0JRCTX0HOV1JRE7JSHZA","A1EIKIHK12UDP0","3RBI0I35XEP26UEZY8S8UZLEA1IY3E","","704.2999999970198","img/flower3.png","76","706.6000000014901","3","1","3","1","1,0.333,0.333,0.333,1,0.333,0.333,0.333,1","1,0.333,0.333,0.333,1,0.333,0.333,0.333,1","1",""
"","html-keyboard-response","259","251948","0.0-259.0","36W0OB37HX0JRCTX0HOV1JRE7JSHZA","A1EIKIHK12UDP0","3RBI0I35XEP26UEZY8S8UZLEA1IY3E","","null","<img src=""img/flower3.png"" style=""width:200px; border:14px solid green;"">","null","","","","","","","","",""
"","image-keyboard-response","260","252728","0.0-260.0","36W0OB37HX0JRCTX0HOV1JRE7JSHZA","A1EIKIHK12UDP0","3RBI0I35XEP26UEZY8S8UZLEA1IY3E","","778.2000000029802","img/flower1.png","74","780.2000000029802","1","1","1","1","1,0.333,0.333,0.333,1,0.333,0.333,0.333,1","1,0.333,0.333,0.333,1,0.333,0.333,0.333,1","1",""
"","html-keyboard-response","261","253032","0.0-261.0","36W0OB37HX0JRCTX0HOV1JRE7JSHZA","A1EIKIHK12UDP0","3RBI0I35XEP26UEZY8S8UZLEA1IY3E","","null","<img src=""img/flower1.png"" style=""width:200px; border:14px solid green;"">","null","","","","","","","","",""
"","image-keyboard-response","262","253796","0.0-262.0","36W0OB37HX0JRCTX0HOV1JRE7JSHZA","A1EIKIHK12UDP0","3RBI0I35XEP26UEZY8S8UZLEA1IY3E","","762.5","img/flower3.png","76","764.3999999985099","3","1","3","1","1,0.333,0.333,0.333,1,0.333,0.333,0.333,1","1,0.333,0.333,0.333,1,0.333,0.333,0.333,1","1",""
"","html-keyboard-response","263","254099","0.0-263.0","36W0OB37HX0JRCTX0HOV1JRE7JSHZA","A1EIKIHK12UDP0","3RBI0I35XEP26UEZY8S8UZLEA1IY3E","","null","<img src=""img/flower3.png"" style=""width:200px; border:14px solid green;"">","null","","","","","","","","",""
"","image-keyboard-response","264","254707","0.0-264.0","36W0OB37HX0JRCTX0HOV1JRE7JSHZA","A1EIKIHK12UDP0","3RBI0I35XEP26UEZY8S8UZLEA1IY3E","","606.1999999955297","img/flower5.png","75","608","2","1","2","1","1,0.333,0.333,0.333,1,0.333,0.333,0.333,1","1,0.333,0.333,0.333,1,0.333,0.333,0.333,1","1",""
"","html-keyboard-response","265","255010","0.0-265.0","36W0OB37HX0JRCTX0HOV1JRE7JSHZA","A1EIKIHK12UDP0","3RBI0I35XEP26UEZY8S8UZLEA1IY3E","","null","<img src=""img/flower5.png"" style=""width:200px; border:14px solid green;"">","null","","","","","","","","",""
"","image-keyboard-response","266","256108","0.0-266.0","36W0OB37HX0JRCTX0HOV1JRE7JSHZA","A1EIKIHK12UDP0","3RBI0I35XEP26UEZY8S8UZLEA1IY3E","","1095.7999999970198","img/flower1.png","74","1098.2000000029802","1","1","1","1","1,0.333,0.333,0.333,1,0.333,0.333,0.333,1","1,0.333,0.333,0.333,1,0.333,0.333,0.333,1","1",""
"","html-keyboard-response","267","256411","0.0-267.0","36W0OB37HX0JRCTX0HOV1JRE7JSHZA","A1EIKIHK12UDP0","3RBI0I35XEP26UEZY8S8UZLEA1IY3E","","null","<img src=""img/flower1.png"" style=""width:200px; border:14px solid green;"">","null","","","","","","","","",""
"","image-keyboard-response","268","257176","0.0-268.0","36W0OB37HX0JRCTX0HOV1JRE7JSHZA","A1EIKIHK12UDP0","3RBI0I35XEP26UEZY8S8UZLEA1IY3E","","763","img/flower5.png","75","764.9000000059605","2","1","2","1","1,0.333,0.333,0.333,1,0.333,0.333,0.333,1","1,0.333,0.333,0.333,1,0.333,0.333,0.333,1","1",""
"","html-keyboard-response","269","257479","0.0-269.0","36W0OB37HX0JRCTX0HOV1JRE7JSHZA","A1EIKIHK12UDP0","3RBI0I35XEP26UEZY8S8UZLEA1IY3E","","null","<img src=""img/flower5.png"" style=""width:200px; border:14px solid green;"">","null","","","","","","","","",""
"","image-keyboard-response","270","258183","0.0-270.0","36W0OB37HX0JRCTX0HOV1JRE7JSHZA","A1EIKIHK12UDP0","3RBI0I35XEP26UEZY8S8UZLEA1IY3E","","701.2000000029802","img/flower3.png","76","703.1000000014901","3","1","3","1","1,0.333,0.333,0.333,1,0.333,0.333,0.333,1","1,0.333,0.333,0.333,1,0.333,0.333,0.333,1","1",""
"","html-keyboard-response","271","258485","0.0-271.0","36W0OB37HX0JRCTX0HOV1JRE7JSHZA","A1EIKIHK12UDP0","3RBI0I35XEP26UEZY8S8UZLEA1IY3E","","null","<img src=""img/flower3.png"" style=""width:200px; border:14px solid green;"">","null","","","","","","","","",""
"","image-keyboard-response","272","259198","0.0-272.0","36W0OB37HX0JRCTX0HOV1JRE7JSHZA","A1EIKIHK12UDP0","3RBI0I35XEP26UEZY8S8UZLEA1IY3E","","709.6000000014901","img/flower1.png","74","712.3999999985099","1","1","1","1","1,0.333,0.333,0.333,1,0.333,0.333,0.333,1","1,0.333,0.333,0.333,1,0.333,0.333,0.333,1","1",""
"","html-keyboard-response","273","259502","0.0-273.0","36W0OB37HX0JRCTX0HOV1JRE7JSHZA","A1EIKIHK12UDP0","3RBI0I35XEP26UEZY8S8UZLEA1IY3E","","null","<img src=""img/flower1.png"" style=""width:200px; border:14px solid green;"">","null","","","","","","","","",""
"","image-keyboard-response","274","260173","0.0-274.0","36W0OB37HX0JRCTX0HOV1JRE7JSHZA","A1EIKIHK12UDP0","3RBI0I35XEP26UEZY8S8UZLEA1IY3E","","668.3000000044703","img/flower1.png","74","670.8999999985099","1","1","1","1","1,0.333,0.333,0.333,1,0.333,0.333,0.333,1","1,0.333,0.333,0.333,1,0.333,0.333,0.333,1","1",""
"","html-keyboard-response","275","260475","0.0-275.0","36W0OB37HX0JRCTX0HOV1JRE7JSHZA","A1EIKIHK12UDP0","3RBI0I35XEP26UEZY8S8UZLEA1IY3E","","null","<img src=""img/flower1.png"" style=""width:200px; border:14px solid green;"">","null","","","","","","","","",""
"","image-keyboard-response","276","261153","0.0-276.0","36W0OB37HX0JRCTX0HOV1JRE7JSHZA","A1EIKIHK12UDP0","3RBI0I35XEP26UEZY8S8UZLEA1IY3E","","673.3999999985099","img/flower5.png","75","676.5","2","1","2","1","1,0.333,0.333,0.333,1,0.333,0.333,0.333,1","1,0.333,0.333,0.333,1,0.333,0.333,0.333,1","1",""
"","html-keyboard-response","277","261456","0.0-277.0","36W0OB37HX0JRCTX0HOV1JRE7JSHZA","A1EIKIHK12UDP0","3RBI0I35XEP26UEZY8S8UZLEA1IY3E","","null","<img src=""img/flower5.png"" style=""width:200px; border:14px solid green;"">","null","","","","","","","","",""
"","image-keyboard-response","278","262065","0.0-278.0","36W0OB37HX0JRCTX0HOV1JRE7JSHZA","A1EIKIHK12UDP0","3RBI0I35XEP26UEZY8S8UZLEA1IY3E","","606.6000000014901","img/flower3.png","76","609.0999999940395","3","1","3","1","1,0.333,0.333,0.333,1,0.333,0.333,0.333,1","1,0.333,0.333,0.333,1,0.333,0.333,0.333,1","1",""
"","html-keyboard-response","279","262368","0.0-279.0","36W0OB37HX0JRCTX0HOV1JRE7JSHZA","A1EIKIHK12UDP0","3RBI0I35XEP26UEZY8S8UZLEA1IY3E","","null","<img src=""img/flower3.png"" style=""width:200px; border:14px solid green;"">","null","","","","","","","","",""
"","image-keyboard-response","280","263021","0.0-280.0","36W0OB37HX0JRCTX0HOV1JRE7JSHZA","A1EIKIHK12UDP0","3RBI0I35XEP26UEZY8S8UZLEA1IY3E","","650.8000000044703","img/flower3.png","76","655.1999999955297","3","1","3","1","1,0.333,0.333,0.333,1,0.333,0.333,0.333,1","1,0.333,0.333,0.333,1,0.333,0.333,0.333,1","1",""
"","html-keyboard-response","281","263325","0.0-281.0","36W0OB37HX0JRCTX0HOV1JRE7JSHZA","A1EIKIHK12UDP0","3RBI0I35XEP26UEZY8S8UZLEA1IY3E","","null","<img src=""img/flower3.png"" style=""width:200px; border:14px solid green;"">","null","","","","","","","","",""
"","image-keyboard-response","282","263996","0.0-282.0","36W0OB37HX0JRCTX0HOV1JRE7JSHZA","A1EIKIHK12UDP0","3RBI0I35XEP26UEZY8S8UZLEA1IY3E","","667.7000000029802","img/flower5.png","75","670.8999999985099","2","1","2","1","1,0.333,0.333,0.333,1,0.333,0.333,0.333,1","1,0.333,0.333,0.333,1,0.333,0.333,0.333,1","1",""
"","html-keyboard-response","283","264299","0.0-283.0","36W0OB37HX0JRCTX0HOV1JRE7JSHZA","A1EIKIHK12UDP0","3RBI0I35XEP26UEZY8S8UZLEA1IY3E","","null","<img src=""img/flower5.png"" style=""width:200px; border:14px solid green;"">","null","","","","","","","","",""
"","image-keyboard-response","284","264999","0.0-284.0","36W0OB37HX0JRCTX0HOV1JRE7JSHZA","A1EIKIHK12UDP0","3RBI0I35XEP26UEZY8S8UZLEA1IY3E","","697.0999999940395","img/flower1.png","74","699.6000000014901","1","1","1","1","1,0.333,0.333,0.333,1,0.333,0.333,0.333,1","1,0.333,0.333,0.333,1,0.333,0.333,0.333,1","1",""
"","html-keyboard-response","285","265301","0.0-285.0","36W0OB37HX0JRCTX0HOV1JRE7JSHZA","A1EIKIHK12UDP0","3RBI0I35XEP26UEZY8S8UZLEA1IY3E","","null","<img src=""img/flower1.png"" style=""width:200px; border:14px solid green;"">","null","","","","","","","","",""
"","image-keyboard-response","286","266041","0.0-286.0","36W0OB37HX0JRCTX0HOV1JRE7JSHZA","A1EIKIHK12UDP0","3RBI0I35XEP26UEZY8S8UZLEA1IY3E","","737.7999999970198","img/flower3.png","76","739.5","3","1","3","1","1,0.333,0.333,0.333,1,0.333,0.333,0.333,1","1,0.333,0.333,0.333,1,0.333,0.333,0.333,1","1",""
"","html-keyboard-response","287","266344","0.0-287.0","36W0OB37HX0JRCTX0HOV1JRE7JSHZA","A1EIKIHK12UDP0","3RBI0I35XEP26UEZY8S8UZLEA1IY3E","","null","<img src=""img/flower3.png"" style=""width:200px; border:14px solid green;"">","null","","","","","","","","",""
"","image-keyboard-response","288","267004","0.0-288.0","36W0OB37HX0JRCTX0HOV1JRE7JSHZA","A1EIKIHK12UDP0","3RBI0I35XEP26UEZY8S8UZLEA1IY3E","","652","img/flower1.png","74","653.8999999985099","1","1","1","1","1,0.333,0.333,0.333,1,0.333,0.333,0.333,1","1,0.333,0.333,0.333,1,0.333,0.333,0.333,1","1",""
"","html-keyboard-response","289","267307","0.0-289.0","36W0OB37HX0JRCTX0HOV1JRE7JSHZA","A1EIKIHK12UDP0","3RBI0I35XEP26UEZY8S8UZLEA1IY3E","","null","<img src=""img/flower1.png"" style=""width:200px; border:14px solid green;"">","null","","","","","","","","",""
"","image-keyboard-response","290","267979","0.0-290.0","36W0OB37HX0JRCTX0HOV1JRE7JSHZA","A1EIKIHK12UDP0","3RBI0I35XEP26UEZY8S8UZLEA1IY3E","","670","img/flower1.png","74","672.3999999985099","1","1","1","1","1,0.333,0.333,0.333,1,0.333,0.333,0.333,1","1,0.333,0.333,0.333,1,0.333,0.333,0.333,1","1",""
"","html-keyboard-response","291","268282","0.0-291.0","36W0OB37HX0JRCTX0HOV1JRE7JSHZA","A1EIKIHK12UDP0","3RBI0I35XEP26UEZY8S8UZLEA1IY3E","","null","<img src=""img/flower1.png"" style=""width:200px; border:14px solid green;"">","null","","","","","","","","",""
"","image-keyboard-response","292","268920","0.0-292.0","36W0OB37HX0JRCTX0HOV1JRE7JSHZA","A1EIKIHK12UDP0","3RBI0I35XEP26UEZY8S8UZLEA1IY3E","","635.8000000044703","img/flower3.png","76","637.8999999985099","3","1","3","1","1,0.333,0.333,0.333,1,0.333,0.333,0.333,1","1,0.333,0.333,0.333,1,0.333,0.333,0.333,1","1",""
"","html-keyboard-response","293","269224","0.0-293.0","36W0OB37HX0JRCTX0HOV1JRE7JSHZA","A1EIKIHK12UDP0","3RBI0I35XEP26UEZY8S8UZLEA1IY3E","","null","<img src=""img/flower3.png"" style=""width:200px; border:14px solid green;"">","null","","","","","","","","",""
"","image-keyboard-response","294","269878","0.0-294.0","36W0OB37HX0JRCTX0HOV1JRE7JSHZA","A1EIKIHK12UDP0","3RBI0I35XEP26UEZY8S8UZLEA1IY3E","","651.8999999985099","img/flower1.png","74","653.9000000059605","1","1","1","1","1,0.333,0.333,0.333,1,0.333,0.333,0.333,1","1,0.333,0.333,0.333,1,0.333,0.333,0.333,1","1",""
"","html-keyboard-response","295","270181","0.0-295.0","36W0OB37HX0JRCTX0HOV1JRE7JSHZA","A1EIKIHK12UDP0","3RBI0I35XEP26UEZY8S8UZLEA1IY3E","","null","<img src=""img/flower1.png"" style=""width:200px; border:14px solid green;"">","null","","","","","","","","",""
"","image-keyboard-response","296","270833","0.0-296.0","36W0OB37HX0JRCTX0HOV1JRE7JSHZA","A1EIKIHK12UDP0","3RBI0I35XEP26UEZY8S8UZLEA1IY3E","","649.5","img/flower5.png","75","652.1000000014901","2","1","2","1","1,0.333,0.333,0.333,1,0.333,0.333,0.333,1","1,0.333,0.333,0.333,1,0.333,0.333,0.333,1","1",""
"","html-keyboard-response","297","271136","0.0-297.0","36W0OB37HX0JRCTX0HOV1JRE7JSHZA","A1EIKIHK12UDP0","3RBI0I35XEP26UEZY8S8UZLEA1IY3E","","null","<img src=""img/flower5.png"" style=""width:200px; border:14px solid green;"">","null","","","","","","","","",""
"","image-keyboard-response","298","271784","0.0-298.0","36W0OB37HX0JRCTX0HOV1JRE7JSHZA","A1EIKIHK12UDP0","3RBI0I35XEP26UEZY8S8UZLEA1IY3E","","644.3999999985099","img/flower3.png","76","646.8999999985099","3","1","3","1","1,0.333,0.333,0.333,1,0.333,0.333,0.333,1","1,0.333,0.333,0.333,1,0.333,0.333,0.333,1","1",""
"","html-keyboard-response","299","272086","0.0-299.0","36W0OB37HX0JRCTX0HOV1JRE7JSHZA","A1EIKIHK12UDP0","3RBI0I35XEP26UEZY8S8UZLEA1IY3E","","null","<img src=""img/flower3.png"" style=""width:200px; border:14px solid green;"">","null","","","","","","","","",""
"","image-keyboard-response","300","272645","0.0-300.0","36W0OB37HX0JRCTX0HOV1JRE7JSHZA","A1EIKIHK12UDP0","3RBI0I35XEP26UEZY8S8UZLEA1IY3E","","556.5","img/flower5.png","76","558.7999999970198","3","0","2","1","1,0.333,0.333,0.333,1,0.333,0.333,0.333,1","1,0.333,0.333,0.333,1,0.333,0.333,0.333,1","1",""
"","html-keyboard-response","301","272948","0.0-301.0","36W0OB37HX0JRCTX0HOV1JRE7JSHZA","A1EIKIHK12UDP0","3RBI0I35XEP26UEZY8S8UZLEA1IY3E","","null","<img src=""img/flower5.png"" style=""width:200px;border:14px solid red;"">","null","","","","","","","","",""
"","image-keyboard-response","302","273775","0.0-302.0","36W0OB37HX0JRCTX0HOV1JRE7JSHZA","A1EIKIHK12UDP0","3RBI0I35XEP26UEZY8S8UZLEA1IY3E","","824.5","img/flower3.png","76","827","3","1","3","1","1,0.333,0.333,0.333,1,0.333,0.333,0.333,1","1,0.333,0.333,0.333,1,0.333,0.333,0.333,1","1",""
"","html-keyboard-response","303","274078","0.0-303.0","36W0OB37HX0JRCTX0HOV1JRE7JSHZA","A1EIKIHK12UDP0","3RBI0I35XEP26UEZY8S8UZLEA1IY3E","","null","<img src=""img/flower3.png"" style=""width:200px; border:14px solid green;"">","null","","","","","","","","",""
"","image-keyboard-response","304","274795","0.0-304.0","36W0OB37HX0JRCTX0HOV1JRE7JSHZA","A1EIKIHK12UDP0","3RBI0I35XEP26UEZY8S8UZLEA1IY3E","","714.7000000029802","img/flower1.png","74","717.2000000029802","1","1","1","1","1,0.333,0.333,0.333,1,0.333,0.333,0.333,1","1,0.333,0.333,0.333,1,0.333,0.333,0.333,1","1",""
"","html-keyboard-response","305","275098","0.0-305.0","36W0OB37HX0JRCTX0HOV1JRE7JSHZA","A1EIKIHK12UDP0","3RBI0I35XEP26UEZY8S8UZLEA1IY3E","","null","<img src=""img/flower1.png"" style=""width:200px; border:14px solid green;"">","null","","","","","","","","",""
"","image-keyboard-response","306","275823","0.0-306.0","36W0OB37HX0JRCTX0HOV1JRE7JSHZA","A1EIKIHK12UDP0","3RBI0I35XEP26UEZY8S8UZLEA1IY3E","","721.5","img/flower5.png","75","724","2","1","2","1","1,0.333,0.333,0.333,1,0.333,0.333,0.333,1","1,0.333,0.333,0.333,1,0.333,0.333,0.333,1","1",""
"","html-keyboard-response","307","276125","0.0-307.0","36W0OB37HX0JRCTX0HOV1JRE7JSHZA","A1EIKIHK12UDP0","3RBI0I35XEP26UEZY8S8UZLEA1IY3E","","null","<img src=""img/flower5.png"" style=""width:200px; border:14px solid green;"">","null","","","","","","","","",""
"","image-keyboard-response","308","276991","0.0-308.0","36W0OB37HX0JRCTX0HOV1JRE7JSHZA","A1EIKIHK12UDP0","3RBI0I35XEP26UEZY8S8UZLEA1IY3E","","863.2999999970198","img/flower3.png","76","865.5","3","1","3","1","1,0.333,0.333,0.333,1,0.333,0.333,0.333,1","1,0.333,0.333,0.333,1,0.333,0.333,0.333,1","1",""
"","html-keyboard-response","309","277293","0.0-309.0","36W0OB37HX0JRCTX0HOV1JRE7JSHZA","A1EIKIHK12UDP0","3RBI0I35XEP26UEZY8S8UZLEA1IY3E","","null","<img src=""img/flower3.png"" style=""width:200px; border:14px solid green;"">","null","","","","","","","","",""
"","image-keyboard-response","310","278045","0.0-310.0","36W0OB37HX0JRCTX0HOV1JRE7JSHZA","A1EIKIHK12UDP0","3RBI0I35XEP26UEZY8S8UZLEA1IY3E","","749.8000000044703","img/flower3.png","76","751.8000000044703","3","1","3","1","1,0.333,0.333,0.333,1,0.333,0.333,0.333,1","1,0.333,0.333,0.333,1,0.333,0.333,0.333,1","1",""
"","html-keyboard-response","311","278349","0.0-311.0","36W0OB37HX0JRCTX0HOV1JRE7JSHZA","A1EIKIHK12UDP0","3RBI0I35XEP26UEZY8S8UZLEA1IY3E","","null","<img src=""img/flower3.png"" style=""width:200px; border:14px solid green;"">","null","","","","","","","","",""
"","image-keyboard-response","312","279038","0.0-312.0","36W0OB37HX0JRCTX0HOV1JRE7JSHZA","A1EIKIHK12UDP0","3RBI0I35XEP26UEZY8S8UZLEA1IY3E","","686.4000000059605","img/flower1.png","74","688.7999999970198","1","1","1","1","1,0.333,0.333,0.333,1,0.333,0.333,0.333,1","1,0.333,0.333,0.333,1,0.333,0.333,0.333,1","1",""
"","html-keyboard-response","313","279340","0.0-313.0","36W0OB37HX0JRCTX0HOV1JRE7JSHZA","A1EIKIHK12UDP0","3RBI0I35XEP26UEZY8S8UZLEA1IY3E","","null","<img src=""img/flower1.png"" style=""width:200px; border:14px solid green;"">","null","","","","","","","","",""
"","image-keyboard-response","314","279979","0.0-314.0","36W0OB37HX0JRCTX0HOV1JRE7JSHZA","A1EIKIHK12UDP0","3RBI0I35XEP26UEZY8S8UZLEA1IY3E","","637.1999999955297","img/flower1.png","74","639.7000000029802","1","1","1","1","1,0.333,0.333,0.333,1,0.333,0.333,0.333,1","1,0.333,0.333,0.333,1,0.333,0.333,0.333,1","1",""
"","html-keyboard-response","315","280283","0.0-315.0","36W0OB37HX0JRCTX0HOV1JRE7JSHZA","A1EIKIHK12UDP0","3RBI0I35XEP26UEZY8S8UZLEA1IY3E","","null","<img src=""img/flower1.png"" style=""width:200px; border:14px solid green;"">","null","","","","","","","","",""
"","image-keyboard-response","316","281009","0.0-316.0","36W0OB37HX0JRCTX0HOV1JRE7JSHZA","A1EIKIHK12UDP0","3RBI0I35XEP26UEZY8S8UZLEA1IY3E","","722.7000000029802","img/flower3.png","76","725.6999999955297","3","1","3","1","1,0.333,0.333,0.333,1,0.333,0.333,0.333,1","1,0.333,0.333,0.333,1,0.333,0.333,0.333,1","1",""
"","html-keyboard-response","317","281313","0.0-317.0","36W0OB37HX0JRCTX0HOV1JRE7JSHZA","A1EIKIHK12UDP0","3RBI0I35XEP26UEZY8S8UZLEA1IY3E","","null","<img src=""img/flower3.png"" style=""width:200px; border:14px solid green;"">","null","","","","","","","","",""
"","image-keyboard-response","318","282033","0.0-318.0","36W0OB37HX0JRCTX0HOV1JRE7JSHZA","A1EIKIHK12UDP0","3RBI0I35XEP26UEZY8S8UZLEA1IY3E","","716.8999999985099","img/flower3.png","76","719.1999999955297","3","1","3","1","1,0.333,0.333,0.333,1,0.333,0.333,0.333,1","1,0.333,0.333,0.333,1,0.333,0.333,0.333,1","1",""
"","html-keyboard-response","319","282335","0.0-319.0","36W0OB37HX0JRCTX0HOV1JRE7JSHZA","A1EIKIHK12UDP0","3RBI0I35XEP26UEZY8S8UZLEA1IY3E","","null","<img src=""img/flower3.png"" style=""width:200px; border:14px solid green;"">","null","","","","","","","","",""
"","image-keyboard-response","320","282912","0.0-320.0","36W0OB37HX0JRCTX0HOV1JRE7JSHZA","A1EIKIHK12UDP0","3RBI0I35XEP26UEZY8S8UZLEA1IY3E","","573.6999999955297","img/flower3.png","76","576","3","1","3","1","1,0.333,0.333,0.333,1,0.333,0.333,0.333,1","1,0.333,0.333,0.333,1,0.333,0.333,0.333,1","1",""
"","html-keyboard-response","321","283214","0.0-321.0","36W0OB37HX0JRCTX0HOV1JRE7JSHZA","A1EIKIHK12UDP0","3RBI0I35XEP26UEZY8S8UZLEA1IY3E","","null","<img src=""img/flower3.png"" style=""width:200px; border:14px solid green;"">","null","","","","","","","","",""
"","image-keyboard-response","322","283911","0.0-322.0","36W0OB37HX0JRCTX0HOV1JRE7JSHZA","A1EIKIHK12UDP0","3RBI0I35XEP26UEZY8S8UZLEA1IY3E","","694.5","img/flower5.png","75","696.5","2","1","2","1","1,0.333,0.333,0.333,1,0.333,0.333,0.333,1","1,0.333,0.333,0.333,1,0.333,0.333,0.333,1","1",""
"","html-keyboard-response","323","284214","0.0-323.0","36W0OB37HX0JRCTX0HOV1JRE7JSHZA","A1EIKIHK12UDP0","3RBI0I35XEP26UEZY8S8UZLEA1IY3E","","null","<img src=""img/flower5.png"" style=""width:200px; border:14px solid green;"">","null","","","","","","","","",""
"","image-keyboard-response","324","284883","0.0-324.0","36W0OB37HX0JRCTX0HOV1JRE7JSHZA","A1EIKIHK12UDP0","3RBI0I35XEP26UEZY8S8UZLEA1IY3E","","666.1000000014901","img/flower3.png","76","668.3000000044703","3","1","3","1","1,0.333,0.333,0.333,1,0.333,0.333,0.333,1","1,0.333,0.333,0.333,1,0.333,0.333,0.333,1","1",""
"","html-keyboard-response","325","285185","0.0-325.0","36W0OB37HX0JRCTX0HOV1JRE7JSHZA","A1EIKIHK12UDP0","3RBI0I35XEP26UEZY8S8UZLEA1IY3E","","null","<img src=""img/flower3.png"" style=""width:200px; border:14px solid green;"">","null","","","","","","","","",""
"","image-keyboard-response","326","286009","0.0-326.0","36W0OB37HX0JRCTX0HOV1JRE7JSHZA","A1EIKIHK12UDP0","3RBI0I35XEP26UEZY8S8UZLEA1IY3E","","821.0999999940395","img/flower5.png","75","823.5","2","1","2","1","1,0.333,0.333,0.333,1,0.333,0.333,0.333,1","1,0.333,0.333,0.333,1,0.333,0.333,0.333,1","1",""
"","html-keyboard-response","327","286312","0.0-327.0","36W0OB37HX0JRCTX0HOV1JRE7JSHZA","A1EIKIHK12UDP0","3RBI0I35XEP26UEZY8S8UZLEA1IY3E","","null","<img src=""img/flower5.png"" style=""width:200px; border:14px solid green;"">","null","","","","","","","","",""
"","image-keyboard-response","328","286999","0.0-328.0","36W0OB37HX0JRCTX0HOV1JRE7JSHZA","A1EIKIHK12UDP0","3RBI0I35XEP26UEZY8S8UZLEA1IY3E","","684.3999999985099","img/flower5.png","75","686.8000000044703","2","1","2","1","1,0.333,0.333,0.333,1,0.333,0.333,0.333,1","1,0.333,0.333,0.333,1,0.333,0.333,0.333,1","1",""
"","html-keyboard-response","329","287302","0.0-329.0","36W0OB37HX0JRCTX0HOV1JRE7JSHZA","A1EIKIHK12UDP0","3RBI0I35XEP26UEZY8S8UZLEA1IY3E","","null","<img src=""img/flower5.png"" style=""width:200px; border:14px solid green;"">","null","","","","","","","","",""
"","image-keyboard-response","330","288051","0.0-330.0","36W0OB37HX0JRCTX0HOV1JRE7JSHZA","A1EIKIHK12UDP0","3RBI0I35XEP26UEZY8S8UZLEA1IY3E","","746.7999999970198","img/flower3.png","76","749","3","1","3","1","1,0.333,0.333,0.333,1,0.333,0.333,0.333,1","1,0.333,0.333,0.333,1,0.333,0.333,0.333,1","1",""
"","html-keyboard-response","331","288354","0.0-331.0","36W0OB37HX0JRCTX0HOV1JRE7JSHZA","A1EIKIHK12UDP0","3RBI0I35XEP26UEZY8S8UZLEA1IY3E","","null","<img src=""img/flower3.png"" style=""width:200px; border:14px solid green;"">","null","","","","","","","","",""
"","image-keyboard-response","332","289059","0.0-332.0","36W0OB37HX0JRCTX0HOV1JRE7JSHZA","A1EIKIHK12UDP0","3RBI0I35XEP26UEZY8S8UZLEA1IY3E","","701.8999999985099","img/flower1.png","74","704.2000000029802","1","1","1","1","1,0.333,0.333,0.333,1,0.333,0.333,0.333,1","1,0.333,0.333,0.333,1,0.333,0.333,0.333,1","1",""
"","html-keyboard-response","333","289361","0.0-333.0","36W0OB37HX0JRCTX0HOV1JRE7JSHZA","A1EIKIHK12UDP0","3RBI0I35XEP26UEZY8S8UZLEA1IY3E","","null","<img src=""img/flower1.png"" style=""width:200px; border:14px solid green;"">","null","","","","","","","","",""
"","image-keyboard-response","334","290039","0.0-334.0","36W0OB37HX0JRCTX0HOV1JRE7JSHZA","A1EIKIHK12UDP0","3RBI0I35XEP26UEZY8S8UZLEA1IY3E","","675","img/flower5.png","75","677.2999999970198","2","1","2","1","1,0.333,0.333,0.333,1,0.333,0.333,0.333,1","1,0.333,0.333,0.333,1,0.333,0.333,0.333,1","1",""
"","html-keyboard-response","335","290342","0.0-335.0","36W0OB37HX0JRCTX0HOV1JRE7JSHZA","A1EIKIHK12UDP0","3RBI0I35XEP26UEZY8S8UZLEA1IY3E","","null","<img src=""img/flower5.png"" style=""width:200px; border:14px solid green;"">","null","","","","","","","","",""
"","image-keyboard-response","336","291115","0.0-336.0","36W0OB37HX0JRCTX0HOV1JRE7JSHZA","A1EIKIHK12UDP0","3RBI0I35XEP26UEZY8S8UZLEA1IY3E","","770.6999999955297","img/flower1.png","74","773","1","1","1","1","1,0.333,0.333,0.333,1,0.333,0.333,0.333,1","1,0.333,0.333,0.333,1,0.333,0.333,0.333,1","1",""
"","html-keyboard-response","337","291417","0.0-337.0","36W0OB37HX0JRCTX0HOV1JRE7JSHZA","A1EIKIHK12UDP0","3RBI0I35XEP26UEZY8S8UZLEA1IY3E","","null","<img src=""img/flower1.png"" style=""width:200px; border:14px solid green;"">","null","","","","","","","","",""
"","image-keyboard-response","338","292064","0.0-338.0","36W0OB37HX0JRCTX0HOV1JRE7JSHZA","A1EIKIHK12UDP0","3RBI0I35XEP26UEZY8S8UZLEA1IY3E","","644.6999999955297","img/flower1.png","74","646.5","1","1","1","1","1,0.333,0.333,0.333,1,0.333,0.333,0.333,1","1,0.333,0.333,0.333,1,0.333,0.333,0.333,1","1",""
"","html-keyboard-response","339","292367","0.0-339.0","36W0OB37HX0JRCTX0HOV1JRE7JSHZA","A1EIKIHK12UDP0","3RBI0I35XEP26UEZY8S8UZLEA1IY3E","","null","<img src=""img/flower1.png"" style=""width:200px; border:14px solid green;"">","null","","","","","","","","",""
"","image-keyboard-response","340","293086","0.0-340.0","36W0OB37HX0JRCTX0HOV1JRE7JSHZA","A1EIKIHK12UDP0","3RBI0I35XEP26UEZY8S8UZLEA1IY3E","","716.5","img/flower5.png","75","719","2","1","2","1","1,0.333,0.333,0.333,1,0.333,0.333,0.333,1","1,0.333,0.333,0.333,1,0.333,0.333,0.333,1","1",""
"","html-keyboard-response","341","293389","0.0-341.0","36W0OB37HX0JRCTX0HOV1JRE7JSHZA","A1EIKIHK12UDP0","3RBI0I35XEP26UEZY8S8UZLEA1IY3E","","null","<img src=""img/flower5.png"" style=""width:200px; border:14px solid green;"">","null","","","","","","","","",""
"","image-keyboard-response","342","294136","0.0-342.0","36W0OB37HX0JRCTX0HOV1JRE7JSHZA","A1EIKIHK12UDP0","3RBI0I35XEP26UEZY8S8UZLEA1IY3E","","744.6000000014901","img/flower1.png","74","746.5","1","1","1","1","1,0.333,0.333,0.333,1,0.333,0.333,0.333,1","1,0.333,0.333,0.333,1,0.333,0.333,0.333,1","1",""
"","html-keyboard-response","343","294439","0.0-343.0","36W0OB37HX0JRCTX0HOV1JRE7JSHZA","A1EIKIHK12UDP0","3RBI0I35XEP26UEZY8S8UZLEA1IY3E","","null","<img src=""img/flower1.png"" style=""width:200px; border:14px solid green;"">","null","","","","","","","","",""
"","image-keyboard-response","344","295119","0.0-344.0","36W0OB37HX0JRCTX0HOV1JRE7JSHZA","A1EIKIHK12UDP0","3RBI0I35XEP26UEZY8S8UZLEA1IY3E","","677.5999999940395","img/flower5.png","75","679.3999999985099","2","1","2","1","1,0.333,0.333,0.333,1,0.333,0.333,0.333,1","1,0.333,0.333,0.333,1,0.333,0.333,0.333,1","1",""
"","html-keyboard-response","345","295422","0.0-345.0","36W0OB37HX0JRCTX0HOV1JRE7JSHZA","A1EIKIHK12UDP0","3RBI0I35XEP26UEZY8S8UZLEA1IY3E","","null","<img src=""img/flower5.png"" style=""width:200px; border:14px solid green;"">","null","","","","","","","","",""
"","image-keyboard-response","346","295957","0.0-346.0","36W0OB37HX0JRCTX0HOV1JRE7JSHZA","A1EIKIHK12UDP0","3RBI0I35XEP26UEZY8S8UZLEA1IY3E","","531.5","img/flower1.png","74","534","1","1","1","1","1,0.333,0.333,0.333,1,0.333,0.333,0.333,1","1,0.333,0.333,0.333,1,0.333,0.333,0.333,1","1",""
"","html-keyboard-response","347","296259","0.0-347.0","36W0OB37HX0JRCTX0HOV1JRE7JSHZA","A1EIKIHK12UDP0","3RBI0I35XEP26UEZY8S8UZLEA1IY3E","","null","<img src=""img/flower1.png"" style=""width:200px; border:14px solid green;"">","null","","","","","","","","",""
"","image-keyboard-response","348","297029","0.0-348.0","36W0OB37HX0JRCTX0HOV1JRE7JSHZA","A1EIKIHK12UDP0","3RBI0I35XEP26UEZY8S8UZLEA1IY3E","","768.1999999955297","img/flower1.png","74","770.2000000029802","1","1","1","1","1,0.333,0.333,0.333,1,0.333,0.333,0.333,1","1,0.333,0.333,0.333,1,0.333,0.333,0.333,1","1",""
"","html-keyboard-response","349","297333","0.0-349.0","36W0OB37HX0JRCTX0HOV1JRE7JSHZA","A1EIKIHK12UDP0","3RBI0I35XEP26UEZY8S8UZLEA1IY3E","","null","<img src=""img/flower1.png"" style=""width:200px; border:14px solid green;"">","null","","","","","","","","",""
"","image-keyboard-response","350","298095","0.0-350.0","36W0OB37HX0JRCTX0HOV1JRE7JSHZA","A1EIKIHK12UDP0","3RBI0I35XEP26UEZY8S8UZLEA1IY3E","","760","img/flower1.png","74","762.1000000014901","1","1","1","1","1,0.333,0.333,0.333,1,0.333,0.333,0.333,1","1,0.333,0.333,0.333,1,0.333,0.333,0.333,1","1",""
"","html-keyboard-response","351","298398","0.0-351.0","36W0OB37HX0JRCTX0HOV1JRE7JSHZA","A1EIKIHK12UDP0","3RBI0I35XEP26UEZY8S8UZLEA1IY3E","","null","<img src=""img/flower1.png"" style=""width:200px; border:14px solid green;"">","null","","","","","","","","",""
"","image-keyboard-response","352","299033","0.0-352.0","36W0OB37HX0JRCTX0HOV1JRE7JSHZA","A1EIKIHK12UDP0","3RBI0I35XEP26UEZY8S8UZLEA1IY3E","","631.5","img/flower5.png","75","633.6000000014901","2","1","2","1","1,0.333,0.333,0.333,1,0.333,0.333,0.333,1","1,0.333,0.333,0.333,1,0.333,0.333,0.333,1","1",""
"","html-keyboard-response","353","299335","0.0-353.0","36W0OB37HX0JRCTX0HOV1JRE7JSHZA","A1EIKIHK12UDP0","3RBI0I35XEP26UEZY8S8UZLEA1IY3E","","null","<img src=""img/flower5.png"" style=""width:200px; border:14px solid green;"">","null","","","","","","","","",""
"","image-keyboard-response","354","300026","0.0-354.0","36W0OB37HX0JRCTX0HOV1JRE7JSHZA","A1EIKIHK12UDP0","3RBI0I35XEP26UEZY8S8UZLEA1IY3E","","689","img/flower5.png","75","690.7999999970198","2","1","2","1","1,0.333,0.333,0.333,1,0.333,0.333,0.333,1","1,0.333,0.333,0.333,1,0.333,0.333,0.333,1","1",""
"","html-keyboard-response","355","300328","0.0-355.0","36W0OB37HX0JRCTX0HOV1JRE7JSHZA","A1EIKIHK12UDP0","3RBI0I35XEP26UEZY8S8UZLEA1IY3E","","null","<img src=""img/flower5.png"" style=""width:200px; border:14px solid green;"">","null","","","","","","","","",""
"","image-keyboard-response","356","301008","0.0-356.0","36W0OB37HX0JRCTX0HOV1JRE7JSHZA","A1EIKIHK12UDP0","3RBI0I35XEP26UEZY8S8UZLEA1IY3E","","677.9000000059605","img/flower3.png","76","679.3000000044703","3","1","3","1","1,0.333,0.333,0.333,1,0.333,0.333,0.333,1","1,0.333,0.333,0.333,1,0.333,0.333,0.333,1","1",""
"","html-keyboard-response","357","301310","0.0-357.0","36W0OB37HX0JRCTX0HOV1JRE7JSHZA","A1EIKIHK12UDP0","3RBI0I35XEP26UEZY8S8UZLEA1IY3E","","null","<img src=""img/flower3.png"" style=""width:200px; border:14px solid green;"">","null","","","","","","","","",""
"","image-keyboard-response","358","301974","0.0-358.0","36W0OB37HX0JRCTX0HOV1JRE7JSHZA","A1EIKIHK12UDP0","3RBI0I35XEP26UEZY8S8UZLEA1IY3E","","657.8999999985099","img/flower5.png","75","661.7999999970198","2","1","2","1","1,0.333,0.333,0.333,1,0.333,0.333,0.333,1","1,0.333,0.333,0.333,1,0.333,0.333,0.333,1","1",""
"","html-keyboard-response","359","302278","0.0-359.0","36W0OB37HX0JRCTX0HOV1JRE7JSHZA","A1EIKIHK12UDP0","3RBI0I35XEP26UEZY8S8UZLEA1IY3E","","null","<img src=""img/flower5.png"" style=""width:200px; border:14px solid green;"">","null","","","","","","","","",""
"","image-keyboard-response","360","302987","0.0-360.0","36W0OB37HX0JRCTX0HOV1JRE7JSHZA","A1EIKIHK12UDP0","3RBI0I35XEP26UEZY8S8UZLEA1IY3E","","707.6000000014901","img/flower5.png","75","709.6000000014901","2","1","2","1","1,0.333,0.333,0.333,1,0.333,0.333,0.333,1","1,0.333,0.333,0.333,1,0.333,0.333,0.333,1","1",""
"","html-keyboard-response","361","303291","0.0-361.0","36W0OB37HX0JRCTX0HOV1JRE7JSHZA","A1EIKIHK12UDP0","3RBI0I35XEP26UEZY8S8UZLEA1IY3E","","null","<img src=""img/flower5.png"" style=""width:200px; border:14px solid green;"">","null","","","","","","","","",""
"","html-keyboard-response","362","329867","0.0-362.0","36W0OB37HX0JRCTX0HOV1JRE7JSHZA","A1EIKIHK12UDP0","3RBI0I35XEP26UEZY8S8UZLEA1IY3E","","","","","","","","","","","","",""
"","instructions","363","332707","0.0-363.0","36W0OB37HX0JRCTX0HOV1JRE7JSHZA","A1EIKIHK12UDP0","3RBI0I35XEP26UEZY8S8UZLEA1IY3E","[{""page_index"":0,""viewing_time"":2836.6999999955297}]","2837.39999999851","","","","","","","","","","",""
