"success","trial_type","trial_index","time_elapsed","internal_node_id","assignmentID","mturkID","hitID","view_history","rt","stimulus","key_press","reactionTime","a","r","s","cond","reward_cond","reward_cond_actual","reward_matrix_idx","responses"
"true","fullscreen","0","8427","0.0-0.0","3TAYZSBPLMUIBA41M4RGIMO9VOQ2SU","A1F8MH33EFT5VQ","3L1EFR8WWTRIL5MKAR1UWRHK4IC9FJ","","","","","","","","","","","","",""
"","instructions","1","130926","0.0-1.0","3TAYZSBPLMUIBA41M4RGIMO9VOQ2SU","A1F8MH33EFT5VQ","3L1EFR8WWTRIL5MKAR1UWRHK4IC9FJ","[{""page_index"":0,""viewing_time"":16149.300000000745},{""page_index"":1,""viewing_time"":11864.699999999255},{""page_index"":2,""viewing_time"":11387.39999999851},{""page_index"":3,""viewing_time"":17732},{""page_index"":4,""viewing_time"":15320.60000000149},{""page_index"":5,""viewing_time"":14663.39999999851},{""page_index"":6,""viewing_time"":25527.900000002235},{""page_index"":7,""viewing_time"":9852.099999997765}]","122498","","","","","","","","","","",""
"","image-keyboard-response","2","132928","0.0-2.0","3TAYZSBPLMUIBA41M4RGIMO9VOQ2SU","A1F8MH33EFT5VQ","3L1EFR8WWTRIL5MKAR1UWRHK4IC9FJ","","","img/flower6.png","","2002.199999999255","-1","0","1","1","1,0.333,0.333,0.333,1,0.333,0.333,0.333,1","1,0.333,0.333,0.333,1,0.333,0.333,0.333,1","1",""
"","html-keyboard-response","3","133231","0.0-3.0","3TAYZSBPLMUIBA41M4RGIMO9VOQ2SU","A1F8MH33EFT5VQ","3L1EFR8WWTRIL5MKAR1UWRHK4IC9FJ","","null","<img src=""img/flower6.png"" style=""width:200px;border:14px solid red;"">","null","","","","","","","","",""
"","image-keyboard-response","4","135234","0.0-4.0","3TAYZSBPLMUIBA41M4RGIMO9VOQ2SU","A1F8MH33EFT5VQ","3L1EFR8WWTRIL5MKAR1UWRHK4IC9FJ","","","img/flower6.png","","2001.8999999985099","-1","0","1","1","1,0.333,0.333,0.333,1,0.333,0.333,0.333,1","1,0.333,0.333,0.333,1,0.333,0.333,0.333,1","1",""
"","html-keyboard-response","5","135537","0.0-5.0","3TAYZSBPLMUIBA41M4RGIMO9VOQ2SU","A1F8MH33EFT5VQ","3L1EFR8WWTRIL5MKAR1UWRHK4IC9FJ","","null","<img src=""img/flower6.png"" style=""width:200px;border:14px solid red;"">","null","","","","","","","","",""
"","image-keyboard-response","6","137540","0.0-6.0","3TAYZSBPLMUIBA41M4RGIMO9VOQ2SU","A1F8MH33EFT5VQ","3L1EFR8WWTRIL5MKAR1UWRHK4IC9FJ","","","img/flower6.png","","2002.5","-1","0","1","1","1,0.333,0.333,0.333,1,0.333,0.333,0.333,1","1,0.333,0.333,0.333,1,0.333,0.333,0.333,1","1",""
"","html-keyboard-response","7","137841","0.0-7.0","3TAYZSBPLMUIBA41M4RGIMO9VOQ2SU","A1F8MH33EFT5VQ","3L1EFR8WWTRIL5MKAR1UWRHK4IC9FJ","","null","<img src=""img/flower6.png"" style=""width:200px;border:14px solid red;"">","null","","","","","","","","",""
"","image-keyboard-response","8","138682","0.0-8.0","3TAYZSBPLMUIBA41M4RGIMO9VOQ2SU","A1F8MH33EFT5VQ","3L1EFR8WWTRIL5MKAR1UWRHK4IC9FJ","","839","img/flower6.png","75","840.1999999992549","2","0","1","1","1,0.333,0.333,0.333,1,0.333,0.333,0.333,1","1,0.333,0.333,0.333,1,0.333,0.333,0.333,1","1",""
"","html-keyboard-response","9","138984","0.0-9.0","3TAYZSBPLMUIBA41M4RGIMO9VOQ2SU","A1F8MH33EFT5VQ","3L1EFR8WWTRIL5MKAR1UWRHK4IC9FJ","","null","<img src=""img/flower6.png"" style=""width:200px;border:14px solid red;"">","null","","","","","","","","",""
"","image-keyboard-response","10","140149","0.0-10.0","3TAYZSBPLMUIBA41M4RGIMO9VOQ2SU","A1F8MH33EFT5VQ","3L1EFR8WWTRIL5MKAR1UWRHK4IC9FJ","","1163.300000000745","img/flower1.png","74","1164.6000000014901","1","1","3","1","1,0.333,0.333,0.333,1,0.333,0.333,0.333,1","1,0.333,0.333,0.333,1,0.333,0.333,0.333,1","1",""
"","html-keyboard-response","11","140451","0.0-11.0","3TAYZSBPLMUIBA41M4RGIMO9VOQ2SU","A1F8MH33EFT5VQ","3L1EFR8WWTRIL5MKAR1UWRHK4IC9FJ","","null","<img src=""img/flower1.png"" style=""width:200px; border:14px solid green;"">","null","","","","","","","","",""
"","image-keyboard-response","12","141842","0.0-12.0","3TAYZSBPLMUIBA41M4RGIMO9VOQ2SU","A1F8MH33EFT5VQ","3L1EFR8WWTRIL5MKAR1UWRHK4IC9FJ","","1389.5","img/flower1.png","74","1390.6000000014901","1","1","3","1","1,0.333,0.333,0.333,1,0.333,0.333,0.333,1","1,0.333,0.333,0.333,1,0.333,0.333,0.333,1","1",""
"","html-keyboard-response","13","142143","0.0-13.0","3TAYZSBPLMUIBA41M4RGIMO9VOQ2SU","A1F8MH33EFT5VQ","3L1EFR8WWTRIL5MKAR1UWRHK4IC9FJ","","null","<img src=""img/flower1.png"" style=""width:200px; border:14px solid green;"">","null","","","","","","","","",""
"","image-keyboard-response","14","143470","0.0-14.0","3TAYZSBPLMUIBA41M4RGIMO9VOQ2SU","A1F8MH33EFT5VQ","3L1EFR8WWTRIL5MKAR1UWRHK4IC9FJ","","1325.3999999985099","img/flower3.png","74","1326.699999999255","1","1","2","1","1,0.333,0.333,0.333,1,0.333,0.333,0.333,1","1,0.333,0.333,0.333,1,0.333,0.333,0.333,1","1",""
"","html-keyboard-response","15","143773","0.0-15.0","3TAYZSBPLMUIBA41M4RGIMO9VOQ2SU","A1F8MH33EFT5VQ","3L1EFR8WWTRIL5MKAR1UWRHK4IC9FJ","","null","<img src=""img/flower3.png"" style=""width:200px; border:14px solid green;"">","null","","","","","","","","",""
"","image-keyboard-response","16","145292","0.0-16.0","3TAYZSBPLMUIBA41M4RGIMO9VOQ2SU","A1F8MH33EFT5VQ","3L1EFR8WWTRIL5MKAR1UWRHK4IC9FJ","","1518.4000000022352","img/flower3.png","74","1519.4000000022352","1","0","2","1","1,0.333,0.333,0.333,1,0.333,0.333,0.333,1","1,0.333,0.333,0.333,1,0.333,0.333,0.333,1","1",""
"","html-keyboard-response","17","145594","0.0-17.0","3TAYZSBPLMUIBA41M4RGIMO9VOQ2SU","A1F8MH33EFT5VQ","3L1EFR8WWTRIL5MKAR1UWRHK4IC9FJ","","null","<img src=""img/flower3.png"" style=""width:200px;border:14px solid red;"">","null","","","","","","","","",""
"","image-keyboard-response","18","146980","0.0-18.0","3TAYZSBPLMUIBA41M4RGIMO9VOQ2SU","A1F8MH33EFT5VQ","3L1EFR8WWTRIL5MKAR1UWRHK4IC9FJ","","1384.3999999985099","img/flower3.png","74","1386.300000000745","1","0","2","1","1,0.333,0.333,0.333,1,0.333,0.333,0.333,1","1,0.333,0.333,0.333,1,0.333,0.333,0.333,1","1",""
"","html-keyboard-response","19","147282","0.0-19.0","3TAYZSBPLMUIBA41M4RGIMO9VOQ2SU","A1F8MH33EFT5VQ","3L1EFR8WWTRIL5MKAR1UWRHK4IC9FJ","","null","<img src=""img/flower3.png"" style=""width:200px;border:14px solid red;"">","null","","","","","","","","",""
"","image-keyboard-response","20","148199","0.0-20.0","3TAYZSBPLMUIBA41M4RGIMO9VOQ2SU","A1F8MH33EFT5VQ","3L1EFR8WWTRIL5MKAR1UWRHK4IC9FJ","","915.3000000007451","img/flower3.png","75","916.6000000014901","2","1","2","1","1,0.333,0.333,0.333,1,0.333,0.333,0.333,1","1,0.333,0.333,0.333,1,0.333,0.333,0.333,1","1",""
"","html-keyboard-response","21","148501","0.0-21.0","3TAYZSBPLMUIBA41M4RGIMO9VOQ2SU","A1F8MH33EFT5VQ","3L1EFR8WWTRIL5MKAR1UWRHK4IC9FJ","","null","<img src=""img/flower3.png"" style=""width:200px; border:14px solid green;"">","null","","","","","","","","",""
"","image-keyboard-response","22","150431","0.0-22.0","3TAYZSBPLMUIBA41M4RGIMO9VOQ2SU","A1F8MH33EFT5VQ","3L1EFR8WWTRIL5MKAR1UWRHK4IC9FJ","","1929.300000000745","img/flower1.png","76","1930.3999999985099","3","1","3","1","1,0.333,0.333,0.333,1,0.333,0.333,0.333,1","1,0.333,0.333,0.333,1,0.333,0.333,0.333,1","1",""
"","html-keyboard-response","23","150733","0.0-23.0","3TAYZSBPLMUIBA41M4RGIMO9VOQ2SU","A1F8MH33EFT5VQ","3L1EFR8WWTRIL5MKAR1UWRHK4IC9FJ","","null","<img src=""img/flower1.png"" style=""width:200px; border:14px solid green;"">","null","","","","","","","","",""
"","image-keyboard-response","24","152179","0.0-24.0","3TAYZSBPLMUIBA41M4RGIMO9VOQ2SU","A1F8MH33EFT5VQ","3L1EFR8WWTRIL5MKAR1UWRHK4IC9FJ","","1444.3999999985099","img/flower3.png","75","1445.5","2","1","2","1","1,0.333,0.333,0.333,1,0.333,0.333,0.333,1","1,0.333,0.333,0.333,1,0.333,0.333,0.333,1","1",""
"","html-keyboard-response","25","152481","0.0-25.0","3TAYZSBPLMUIBA41M4RGIMO9VOQ2SU","A1F8MH33EFT5VQ","3L1EFR8WWTRIL5MKAR1UWRHK4IC9FJ","","null","<img src=""img/flower3.png"" style=""width:200px; border:14px solid green;"">","null","","","","","","","","",""
"","image-keyboard-response","26","153288","0.0-26.0","3TAYZSBPLMUIBA41M4RGIMO9VOQ2SU","A1F8MH33EFT5VQ","3L1EFR8WWTRIL5MKAR1UWRHK4IC9FJ","","805.3000000007451","img/flower6.png","74","806.6000000014901","1","1","1","1","1,0.333,0.333,0.333,1,0.333,0.333,0.333,1","1,0.333,0.333,0.333,1,0.333,0.333,0.333,1","1",""
"","html-keyboard-response","27","153590","0.0-27.0","3TAYZSBPLMUIBA41M4RGIMO9VOQ2SU","A1F8MH33EFT5VQ","3L1EFR8WWTRIL5MKAR1UWRHK4IC9FJ","","null","<img src=""img/flower6.png"" style=""width:200px; border:14px solid green;"">","null","","","","","","","","",""
"","image-keyboard-response","28","154541","0.0-28.0","3TAYZSBPLMUIBA41M4RGIMO9VOQ2SU","A1F8MH33EFT5VQ","3L1EFR8WWTRIL5MKAR1UWRHK4IC9FJ","","950","img/flower1.png","75","950.9000000022352","2","0","3","1","1,0.333,0.333,0.333,1,0.333,0.333,0.333,1","1,0.333,0.333,0.333,1,0.333,0.333,0.333,1","1",""
"","html-keyboard-response","29","154843","0.0-29.0","3TAYZSBPLMUIBA41M4RGIMO9VOQ2SU","A1F8MH33EFT5VQ","3L1EFR8WWTRIL5MKAR1UWRHK4IC9FJ","","null","<img src=""img/flower1.png"" style=""width:200px;border:14px solid red;"">","null","","","","","","","","",""
"","image-keyboard-response","30","156094","0.0-30.0","3TAYZSBPLMUIBA41M4RGIMO9VOQ2SU","A1F8MH33EFT5VQ","3L1EFR8WWTRIL5MKAR1UWRHK4IC9FJ","","1249.699999999255","img/flower3.png","76","1250.8999999985099","3","1","2","1","1,0.333,0.333,0.333,1,0.333,0.333,0.333,1","1,0.333,0.333,0.333,1,0.333,0.333,0.333,1","1",""
"","html-keyboard-response","31","156396","0.0-31.0","3TAYZSBPLMUIBA41M4RGIMO9VOQ2SU","A1F8MH33EFT5VQ","3L1EFR8WWTRIL5MKAR1UWRHK4IC9FJ","","null","<img src=""img/flower3.png"" style=""width:200px; border:14px solid green;"">","null","","","","","","","","",""
"","image-keyboard-response","32","158187","0.0-32.0","3TAYZSBPLMUIBA41M4RGIMO9VOQ2SU","A1F8MH33EFT5VQ","3L1EFR8WWTRIL5MKAR1UWRHK4IC9FJ","","1789.800000000745","img/flower6.png","75","1791","2","0","1","1","1,0.333,0.333,0.333,1,0.333,0.333,0.333,1","1,0.333,0.333,0.333,1,0.333,0.333,0.333,1","1",""
"","html-keyboard-response","33","158489","0.0-33.0","3TAYZSBPLMUIBA41M4RGIMO9VOQ2SU","A1F8MH33EFT5VQ","3L1EFR8WWTRIL5MKAR1UWRHK4IC9FJ","","null","<img src=""img/flower6.png"" style=""width:200px;border:14px solid red;"">","null","","","","","","","","",""
"","image-keyboard-response","34","159894","0.0-34.0","3TAYZSBPLMUIBA41M4RGIMO9VOQ2SU","A1F8MH33EFT5VQ","3L1EFR8WWTRIL5MKAR1UWRHK4IC9FJ","","1403.6000000014901","img/flower1.png","75","1404.800000000745","2","1","3","1","1,0.333,0.333,0.333,1,0.333,0.333,0.333,1","1,0.333,0.333,0.333,1,0.333,0.333,0.333,1","1",""
"","html-keyboard-response","35","160196","0.0-35.0","3TAYZSBPLMUIBA41M4RGIMO9VOQ2SU","A1F8MH33EFT5VQ","3L1EFR8WWTRIL5MKAR1UWRHK4IC9FJ","","null","<img src=""img/flower1.png"" style=""width:200px; border:14px solid green;"">","null","","","","","","","","",""
"","image-keyboard-response","36","161313","0.0-36.0","3TAYZSBPLMUIBA41M4RGIMO9VOQ2SU","A1F8MH33EFT5VQ","3L1EFR8WWTRIL5MKAR1UWRHK4IC9FJ","","1115.800000000745","img/flower1.png","75","1117.1000000014901","2","1","3","1","1,0.333,0.333,0.333,1,0.333,0.333,0.333,1","1,0.333,0.333,0.333,1,0.333,0.333,0.333,1","1",""
"","html-keyboard-response","37","161615","0.0-37.0","3TAYZSBPLMUIBA41M4RGIMO9VOQ2SU","A1F8MH33EFT5VQ","3L1EFR8WWTRIL5MKAR1UWRHK4IC9FJ","","null","<img src=""img/flower1.png"" style=""width:200px; border:14px solid green;"">","null","","","","","","","","",""
"","image-keyboard-response","38","163146","0.0-38.0","3TAYZSBPLMUIBA41M4RGIMO9VOQ2SU","A1F8MH33EFT5VQ","3L1EFR8WWTRIL5MKAR1UWRHK4IC9FJ","","1529.300000000745","img/flower1.png","75","1530.3999999985099","2","0","3","1","1,0.333,0.333,0.333,1,0.333,0.333,0.333,1","1,0.333,0.333,0.333,1,0.333,0.333,0.333,1","1",""
"","html-keyboard-response","39","163447","0.0-39.0","3TAYZSBPLMUIBA41M4RGIMO9VOQ2SU","A1F8MH33EFT5VQ","3L1EFR8WWTRIL5MKAR1UWRHK4IC9FJ","","null","<img src=""img/flower1.png"" style=""width:200px;border:14px solid red;"">","null","","","","","","","","",""
"","image-keyboard-response","40","164768","0.0-40.0","3TAYZSBPLMUIBA41M4RGIMO9VOQ2SU","A1F8MH33EFT5VQ","3L1EFR8WWTRIL5MKAR1UWRHK4IC9FJ","","1319.5","img/flower3.png","74","1320.5","1","1","2","1","1,0.333,0.333,0.333,1,0.333,0.333,0.333,1","1,0.333,0.333,0.333,1,0.333,0.333,0.333,1","1",""
"","html-keyboard-response","41","165070","0.0-41.0","3TAYZSBPLMUIBA41M4RGIMO9VOQ2SU","A1F8MH33EFT5VQ","3L1EFR8WWTRIL5MKAR1UWRHK4IC9FJ","","null","<img src=""img/flower3.png"" style=""width:200px; border:14px solid green;"">","null","","","","","","","","",""
"","image-keyboard-response","42","165977","0.0-42.0","3TAYZSBPLMUIBA41M4RGIMO9VOQ2SU","A1F8MH33EFT5VQ","3L1EFR8WWTRIL5MKAR1UWRHK4IC9FJ","","904.8999999985099","img/flower6.png","74","906.1999999992549","1","1","1","1","1,0.333,0.333,0.333,1,0.333,0.333,0.333,1","1,0.333,0.333,0.333,1,0.333,0.333,0.333,1","1",""
"","html-keyboard-response","43","166279","0.0-43.0","3TAYZSBPLMUIBA41M4RGIMO9VOQ2SU","A1F8MH33EFT5VQ","3L1EFR8WWTRIL5MKAR1UWRHK4IC9FJ","","null","<img src=""img/flower6.png"" style=""width:200px; border:14px solid green;"">","null","","","","","","","","",""
"","image-keyboard-response","44","167341","0.0-44.0","3TAYZSBPLMUIBA41M4RGIMO9VOQ2SU","A1F8MH33EFT5VQ","3L1EFR8WWTRIL5MKAR1UWRHK4IC9FJ","","1059.5","img/flower1.png","75","1061","2","0","3","1","1,0.333,0.333,0.333,1,0.333,0.333,0.333,1","1,0.333,0.333,0.333,1,0.333,0.333,0.333,1","1",""
"","html-keyboard-response","45","167643","0.0-45.0","3TAYZSBPLMUIBA41M4RGIMO9VOQ2SU","A1F8MH33EFT5VQ","3L1EFR8WWTRIL5MKAR1UWRHK4IC9FJ","","null","<img src=""img/flower1.png"" style=""width:200px;border:14px solid red;"">","null","","","","","","","","",""
"","image-keyboard-response","46","168614","0.0-46.0","3TAYZSBPLMUIBA41M4RGIMO9VOQ2SU","A1F8MH33EFT5VQ","3L1EFR8WWTRIL5MKAR1UWRHK4IC9FJ","","969.6000000014901","img/flower6.png","74","971","1","1","1","1","1,0.333,0.333,0.333,1,0.333,0.333,0.333,1","1,0.333,0.333,0.333,1,0.333,0.333,0.333,1","1",""
"","html-keyboard-response","47","168916","0.0-47.0","3TAYZSBPLMUIBA41M4RGIMO9VOQ2SU","A1F8MH33EFT5VQ","3L1EFR8WWTRIL5MKAR1UWRHK4IC9FJ","","null","<img src=""img/flower6.png"" style=""width:200px; border:14px solid green;"">","null","","","","","","","","",""
"","image-keyboard-response","48","169923","0.0-48.0","3TAYZSBPLMUIBA41M4RGIMO9VOQ2SU","A1F8MH33EFT5VQ","3L1EFR8WWTRIL5MKAR1UWRHK4IC9FJ","","1005.3999999985099","img/flower3.png","76","1006.5999999977648","3","0","2","1","1,0.333,0.333,0.333,1,0.333,0.333,0.333,1","1,0.333,0.333,0.333,1,0.333,0.333,0.333,1","1",""
"","html-keyboard-response","49","170224","0.0-49.0","3TAYZSBPLMUIBA41M4RGIMO9VOQ2SU","A1F8MH33EFT5VQ","3L1EFR8WWTRIL5MKAR1UWRHK4IC9FJ","","null","<img src=""img/flower3.png"" style=""width:200px;border:14px solid red;"">","null","","","","","","","","",""
"","image-keyboard-response","50","171016","0.0-50.0","3TAYZSBPLMUIBA41M4RGIMO9VOQ2SU","A1F8MH33EFT5VQ","3L1EFR8WWTRIL5MKAR1UWRHK4IC9FJ","","791","img/flower6.png","75","792.1000000014901","2","1","1","1","1,0.333,0.333,0.333,1,0.333,0.333,0.333,1","1,0.333,0.333,0.333,1,0.333,0.333,0.333,1","1",""
"","html-keyboard-response","51","171318","0.0-51.0","3TAYZSBPLMUIBA41M4RGIMO9VOQ2SU","A1F8MH33EFT5VQ","3L1EFR8WWTRIL5MKAR1UWRHK4IC9FJ","","null","<img src=""img/flower6.png"" style=""width:200px; border:14px solid green;"">","null","","","","","","","","",""
"","image-keyboard-response","52","172360","0.0-52.0","3TAYZSBPLMUIBA41M4RGIMO9VOQ2SU","A1F8MH33EFT5VQ","3L1EFR8WWTRIL5MKAR1UWRHK4IC9FJ","","1039.800000000745","img/flower1.png","75","1041.4000000022352","2","0","3","1","1,0.333,0.333,0.333,1,0.333,0.333,0.333,1","1,0.333,0.333,0.333,1,0.333,0.333,0.333,1","1",""
"","html-keyboard-response","53","172662","0.0-53.0","3TAYZSBPLMUIBA41M4RGIMO9VOQ2SU","A1F8MH33EFT5VQ","3L1EFR8WWTRIL5MKAR1UWRHK4IC9FJ","","null","<img src=""img/flower1.png"" style=""width:200px;border:14px solid red;"">","null","","","","","","","","",""
"","image-keyboard-response","54","173365","0.0-54.0","3TAYZSBPLMUIBA41M4RGIMO9VOQ2SU","A1F8MH33EFT5VQ","3L1EFR8WWTRIL5MKAR1UWRHK4IC9FJ","","701.6999999992549","img/flower3.png","74","702.8000000007451","1","0","2","1","1,0.333,0.333,0.333,1,0.333,0.333,0.333,1","1,0.333,0.333,0.333,1,0.333,0.333,0.333,1","1",""
"","html-keyboard-response","55","173667","0.0-55.0","3TAYZSBPLMUIBA41M4RGIMO9VOQ2SU","A1F8MH33EFT5VQ","3L1EFR8WWTRIL5MKAR1UWRHK4IC9FJ","","null","<img src=""img/flower3.png"" style=""width:200px;border:14px solid red;"">","null","","","","","","","","",""
"","image-keyboard-response","56","175669","0.0-56.0","3TAYZSBPLMUIBA41M4RGIMO9VOQ2SU","A1F8MH33EFT5VQ","3L1EFR8WWTRIL5MKAR1UWRHK4IC9FJ","","","img/flower1.png","","2001.0999999977648","-1","0","3","1","1,0.333,0.333,0.333,1,0.333,0.333,0.333,1","1,0.333,0.333,0.333,1,0.333,0.333,0.333,1","1",""
"","html-keyboard-response","57","175971","0.0-57.0","3TAYZSBPLMUIBA41M4RGIMO9VOQ2SU","A1F8MH33EFT5VQ","3L1EFR8WWTRIL5MKAR1UWRHK4IC9FJ","","null","<img src=""img/flower1.png"" style=""width:200px;border:14px solid red;"">","null","","","","","","","","",""
"","image-keyboard-response","58","176890","0.0-58.0","3TAYZSBPLMUIBA41M4RGIMO9VOQ2SU","A1F8MH33EFT5VQ","3L1EFR8WWTRIL5MKAR1UWRHK4IC9FJ","","916.8000000007451","img/flower6.png","75","918.0999999977648","2","0","1","1","1,0.333,0.333,0.333,1,0.333,0.333,0.333,1","1,0.333,0.333,0.333,1,0.333,0.333,0.333,1","1",""
"","html-keyboard-response","59","177192","0.0-59.0","3TAYZSBPLMUIBA41M4RGIMO9VOQ2SU","A1F8MH33EFT5VQ","3L1EFR8WWTRIL5MKAR1UWRHK4IC9FJ","","null","<img src=""img/flower6.png"" style=""width:200px;border:14px solid red;"">","null","","","","","","","","",""
"","image-keyboard-response","60","177753","0.0-60.0","3TAYZSBPLMUIBA41M4RGIMO9VOQ2SU","A1F8MH33EFT5VQ","3L1EFR8WWTRIL5MKAR1UWRHK4IC9FJ","","558.8000000007451","img/flower1.png","74","560.0999999977648","1","0","3","1","1,0.333,0.333,0.333,1,0.333,0.333,0.333,1","1,0.333,0.333,0.333,1,0.333,0.333,0.333,1","1",""
"","html-keyboard-response","61","178054","0.0-61.0","3TAYZSBPLMUIBA41M4RGIMO9VOQ2SU","A1F8MH33EFT5VQ","3L1EFR8WWTRIL5MKAR1UWRHK4IC9FJ","","null","<img src=""img/flower1.png"" style=""width:200px;border:14px solid red;"">","null","","","","","","","","",""
"","image-keyboard-response","62","179191","0.0-62.0","3TAYZSBPLMUIBA41M4RGIMO9VOQ2SU","A1F8MH33EFT5VQ","3L1EFR8WWTRIL5MKAR1UWRHK4IC9FJ","","1135.5","img/flower3.png","74","1136.699999999255","1","0","2","1","1,0.333,0.333,0.333,1,0.333,0.333,0.333,1","1,0.333,0.333,0.333,1,0.333,0.333,0.333,1","1",""
"","html-keyboard-response","63","179493","0.0-63.0","3TAYZSBPLMUIBA41M4RGIMO9VOQ2SU","A1F8MH33EFT5VQ","3L1EFR8WWTRIL5MKAR1UWRHK4IC9FJ","","null","<img src=""img/flower3.png"" style=""width:200px;border:14px solid red;"">","null","","","","","","","","",""
"","image-keyboard-response","64","179930","0.0-64.0","3TAYZSBPLMUIBA41M4RGIMO9VOQ2SU","A1F8MH33EFT5VQ","3L1EFR8WWTRIL5MKAR1UWRHK4IC9FJ","","435.70000000298023","img/flower3.png","76","436.69999999925494","3","0","2","1","1,0.333,0.333,0.333,1,0.333,0.333,0.333,1","1,0.333,0.333,0.333,1,0.333,0.333,0.333,1","1",""
"","html-keyboard-response","65","180233","0.0-65.0","3TAYZSBPLMUIBA41M4RGIMO9VOQ2SU","A1F8MH33EFT5VQ","3L1EFR8WWTRIL5MKAR1UWRHK4IC9FJ","","null","<img src=""img/flower3.png"" style=""width:200px;border:14px solid red;"">","null","","","","","","","","",""
"","image-keyboard-response","66","181210","0.0-66.0","3TAYZSBPLMUIBA41M4RGIMO9VOQ2SU","A1F8MH33EFT5VQ","3L1EFR8WWTRIL5MKAR1UWRHK4IC9FJ","","975.8000000007451","img/flower1.png","74","977","1","0","3","1","1,0.333,0.333,0.333,1,0.333,0.333,0.333,1","1,0.333,0.333,0.333,1,0.333,0.333,0.333,1","1",""
"","html-keyboard-response","67","181512","0.0-67.0","3TAYZSBPLMUIBA41M4RGIMO9VOQ2SU","A1F8MH33EFT5VQ","3L1EFR8WWTRIL5MKAR1UWRHK4IC9FJ","","null","<img src=""img/flower1.png"" style=""width:200px;border:14px solid red;"">","null","","","","","","","","",""
"","image-keyboard-response","68","182254","0.0-68.0","3TAYZSBPLMUIBA41M4RGIMO9VOQ2SU","A1F8MH33EFT5VQ","3L1EFR8WWTRIL5MKAR1UWRHK4IC9FJ","","740.8999999985099","img/flower3.png","76","742.1000000014901","3","0","2","1","1,0.333,0.333,0.333,1,0.333,0.333,0.333,1","1,0.333,0.333,0.333,1,0.333,0.333,0.333,1","1",""
"","html-keyboard-response","69","182556","0.0-69.0","3TAYZSBPLMUIBA41M4RGIMO9VOQ2SU","A1F8MH33EFT5VQ","3L1EFR8WWTRIL5MKAR1UWRHK4IC9FJ","","null","<img src=""img/flower3.png"" style=""width:200px;border:14px solid red;"">","null","","","","","","","","",""
"","image-keyboard-response","70","183361","0.0-70.0","3TAYZSBPLMUIBA41M4RGIMO9VOQ2SU","A1F8MH33EFT5VQ","3L1EFR8WWTRIL5MKAR1UWRHK4IC9FJ","","804","img/flower1.png","75","805.4000000022352","2","0","3","1","1,0.333,0.333,0.333,1,0.333,0.333,0.333,1","1,0.333,0.333,0.333,1,0.333,0.333,0.333,1","1",""
"","html-keyboard-response","71","183663","0.0-71.0","3TAYZSBPLMUIBA41M4RGIMO9VOQ2SU","A1F8MH33EFT5VQ","3L1EFR8WWTRIL5MKAR1UWRHK4IC9FJ","","null","<img src=""img/flower1.png"" style=""width:200px;border:14px solid red;"">","null","","","","","","","","",""
"","image-keyboard-response","72","184421","0.0-72.0","3TAYZSBPLMUIBA41M4RGIMO9VOQ2SU","A1F8MH33EFT5VQ","3L1EFR8WWTRIL5MKAR1UWRHK4IC9FJ","","757.1000000014901","img/flower1.png","74","758.3999999985099","1","0","3","1","1,0.333,0.333,0.333,1,0.333,0.333,0.333,1","1,0.333,0.333,0.333,1,0.333,0.333,0.333,1","1",""
"","html-keyboard-response","73","184723","0.0-73.0","3TAYZSBPLMUIBA41M4RGIMO9VOQ2SU","A1F8MH33EFT5VQ","3L1EFR8WWTRIL5MKAR1UWRHK4IC9FJ","","null","<img src=""img/flower1.png"" style=""width:200px;border:14px solid red;"">","null","","","","","","","","",""
"","image-keyboard-response","74","185564","0.0-74.0","3TAYZSBPLMUIBA41M4RGIMO9VOQ2SU","A1F8MH33EFT5VQ","3L1EFR8WWTRIL5MKAR1UWRHK4IC9FJ","","839.1999999992549","img/flower1.png","74","840.5","1","1","3","1","1,0.333,0.333,0.333,1,0.333,0.333,0.333,1","1,0.333,0.333,0.333,1,0.333,0.333,0.333,1","1",""
"","html-keyboard-response","75","185866","0.0-75.0","3TAYZSBPLMUIBA41M4RGIMO9VOQ2SU","A1F8MH33EFT5VQ","3L1EFR8WWTRIL5MKAR1UWRHK4IC9FJ","","null","<img src=""img/flower1.png"" style=""width:200px; border:14px solid green;"">","null","","","","","","","","",""
"","image-keyboard-response","76","186493","0.0-76.0","3TAYZSBPLMUIBA41M4RGIMO9VOQ2SU","A1F8MH33EFT5VQ","3L1EFR8WWTRIL5MKAR1UWRHK4IC9FJ","","625.3999999985099","img/flower3.png","75","626.6999999992549","2","1","2","1","1,0.333,0.333,0.333,1,0.333,0.333,0.333,1","1,0.333,0.333,0.333,1,0.333,0.333,0.333,1","1",""
"","html-keyboard-response","77","186794","0.0-77.0","3TAYZSBPLMUIBA41M4RGIMO9VOQ2SU","A1F8MH33EFT5VQ","3L1EFR8WWTRIL5MKAR1UWRHK4IC9FJ","","null","<img src=""img/flower3.png"" style=""width:200px; border:14px solid green;"">","null","","","","","","","","",""
"","image-keyboard-response","78","187491","0.0-78.0","3TAYZSBPLMUIBA41M4RGIMO9VOQ2SU","A1F8MH33EFT5VQ","3L1EFR8WWTRIL5MKAR1UWRHK4IC9FJ","","695.6999999992549","img/flower6.png","74","697","1","1","1","1","1,0.333,0.333,0.333,1,0.333,0.333,0.333,1","1,0.333,0.333,0.333,1,0.333,0.333,0.333,1","1",""
"","html-keyboard-response","79","187793","0.0-79.0","3TAYZSBPLMUIBA41M4RGIMO9VOQ2SU","A1F8MH33EFT5VQ","3L1EFR8WWTRIL5MKAR1UWRHK4IC9FJ","","null","<img src=""img/flower6.png"" style=""width:200px; border:14px solid green;"">","null","","","","","","","","",""
"","image-keyboard-response","80","188664","0.0-80.0","3TAYZSBPLMUIBA41M4RGIMO9VOQ2SU","A1F8MH33EFT5VQ","3L1EFR8WWTRIL5MKAR1UWRHK4IC9FJ","","869.5","img/flower6.png","74","870.3000000007451","1","1","1","1","1,0.333,0.333,0.333,1,0.333,0.333,0.333,1","1,0.333,0.333,0.333,1,0.333,0.333,0.333,1","1",""
"","html-keyboard-response","81","188965","0.0-81.0","3TAYZSBPLMUIBA41M4RGIMO9VOQ2SU","A1F8MH33EFT5VQ","3L1EFR8WWTRIL5MKAR1UWRHK4IC9FJ","","null","<img src=""img/flower6.png"" style=""width:200px; border:14px solid green;"">","null","","","","","","","","",""
"","image-keyboard-response","82","189549","0.0-82.0","3TAYZSBPLMUIBA41M4RGIMO9VOQ2SU","A1F8MH33EFT5VQ","3L1EFR8WWTRIL5MKAR1UWRHK4IC9FJ","","582.1000000014901","img/flower1.png","75","583.3999999985099","2","1","3","1","1,0.333,0.333,0.333,1,0.333,0.333,0.333,1","1,0.333,0.333,0.333,1,0.333,0.333,0.333,1","1",""
"","html-keyboard-response","83","189850","0.0-83.0","3TAYZSBPLMUIBA41M4RGIMO9VOQ2SU","A1F8MH33EFT5VQ","3L1EFR8WWTRIL5MKAR1UWRHK4IC9FJ","","null","<img src=""img/flower1.png"" style=""width:200px; border:14px solid green;"">","null","","","","","","","","",""
"","image-keyboard-response","84","190528","0.0-84.0","3TAYZSBPLMUIBA41M4RGIMO9VOQ2SU","A1F8MH33EFT5VQ","3L1EFR8WWTRIL5MKAR1UWRHK4IC9FJ","","675.6000000014901","img/flower1.png","75","677","2","0","3","1","1,0.333,0.333,0.333,1,0.333,0.333,0.333,1","1,0.333,0.333,0.333,1,0.333,0.333,0.333,1","1",""
"","html-keyboard-response","85","190830","0.0-85.0","3TAYZSBPLMUIBA41M4RGIMO9VOQ2SU","A1F8MH33EFT5VQ","3L1EFR8WWTRIL5MKAR1UWRHK4IC9FJ","","null","<img src=""img/flower1.png"" style=""width:200px;border:14px solid red;"">","null","","","","","","","","",""
"","image-keyboard-response","86","191612","0.0-86.0","3TAYZSBPLMUIBA41M4RGIMO9VOQ2SU","A1F8MH33EFT5VQ","3L1EFR8WWTRIL5MKAR1UWRHK4IC9FJ","","780.4000000022352","img/flower6.png","74","781.6000000014901","1","1","1","1","1,0.333,0.333,0.333,1,0.333,0.333,0.333,1","1,0.333,0.333,0.333,1,0.333,0.333,0.333,1","1",""
"","html-keyboard-response","87","191914","0.0-87.0","3TAYZSBPLMUIBA41M4RGIMO9VOQ2SU","A1F8MH33EFT5VQ","3L1EFR8WWTRIL5MKAR1UWRHK4IC9FJ","","null","<img src=""img/flower6.png"" style=""width:200px; border:14px solid green;"">","null","","","","","","","","",""
"","image-keyboard-response","88","192710","0.0-88.0","3TAYZSBPLMUIBA41M4RGIMO9VOQ2SU","A1F8MH33EFT5VQ","3L1EFR8WWTRIL5MKAR1UWRHK4IC9FJ","","794.3000000007451","img/flower6.png","74","795.6999999992549","1","1","1","1","1,0.333,0.333,0.333,1,0.333,0.333,0.333,1","1,0.333,0.333,0.333,1,0.333,0.333,0.333,1","1",""
"","html-keyboard-response","89","193013","0.0-89.0","3TAYZSBPLMUIBA41M4RGIMO9VOQ2SU","A1F8MH33EFT5VQ","3L1EFR8WWTRIL5MKAR1UWRHK4IC9FJ","","null","<img src=""img/flower6.png"" style=""width:200px; border:14px solid green;"">","null","","","","","","","","",""
"","image-keyboard-response","90","193730","0.0-90.0","3TAYZSBPLMUIBA41M4RGIMO9VOQ2SU","A1F8MH33EFT5VQ","3L1EFR8WWTRIL5MKAR1UWRHK4IC9FJ","","715","img/flower1.png","75","716.1999999992549","2","0","3","1","1,0.333,0.333,0.333,1,0.333,0.333,0.333,1","1,0.333,0.333,0.333,1,0.333,0.333,0.333,1","1",""
"","html-keyboard-response","91","194032","0.0-91.0","3TAYZSBPLMUIBA41M4RGIMO9VOQ2SU","A1F8MH33EFT5VQ","3L1EFR8WWTRIL5MKAR1UWRHK4IC9FJ","","null","<img src=""img/flower1.png"" style=""width:200px;border:14px solid red;"">","null","","","","","","","","",""
"","image-keyboard-response","92","194698","0.0-92.0","3TAYZSBPLMUIBA41M4RGIMO9VOQ2SU","A1F8MH33EFT5VQ","3L1EFR8WWTRIL5MKAR1UWRHK4IC9FJ","","663.7999999970198","img/flower1.png","74","665","1","0","3","1","1,0.333,0.333,0.333,1,0.333,0.333,0.333,1","1,0.333,0.333,0.333,1,0.333,0.333,0.333,1","1",""
"","html-keyboard-response","93","195000","0.0-93.0","3TAYZSBPLMUIBA41M4RGIMO9VOQ2SU","A1F8MH33EFT5VQ","3L1EFR8WWTRIL5MKAR1UWRHK4IC9FJ","","null","<img src=""img/flower1.png"" style=""width:200px;border:14px solid red;"">","null","","","","","","","","",""
"","image-keyboard-response","94","195842","0.0-94.0","3TAYZSBPLMUIBA41M4RGIMO9VOQ2SU","A1F8MH33EFT5VQ","3L1EFR8WWTRIL5MKAR1UWRHK4IC9FJ","","840.1999999992549","img/flower6.png","74","841.3999999985099","1","1","1","1","1,0.333,0.333,0.333,1,0.333,0.333,0.333,1","1,0.333,0.333,0.333,1,0.333,0.333,0.333,1","1",""
"","html-keyboard-response","95","196145","0.0-95.0","3TAYZSBPLMUIBA41M4RGIMO9VOQ2SU","A1F8MH33EFT5VQ","3L1EFR8WWTRIL5MKAR1UWRHK4IC9FJ","","null","<img src=""img/flower6.png"" style=""width:200px; border:14px solid green;"">","null","","","","","","","","",""
"","image-keyboard-response","96","196705","0.0-96.0","3TAYZSBPLMUIBA41M4RGIMO9VOQ2SU","A1F8MH33EFT5VQ","3L1EFR8WWTRIL5MKAR1UWRHK4IC9FJ","","559.2000000029802","img/flower6.png","75","560.3000000007451","2","1","1","1","1,0.333,0.333,0.333,1,0.333,0.333,0.333,1","1,0.333,0.333,0.333,1,0.333,0.333,0.333,1","1",""
"","html-keyboard-response","97","197014","0.0-97.0","3TAYZSBPLMUIBA41M4RGIMO9VOQ2SU","A1F8MH33EFT5VQ","3L1EFR8WWTRIL5MKAR1UWRHK4IC9FJ","","null","<img src=""img/flower6.png"" style=""width:200px; border:14px solid green;"">","null","","","","","","","","",""
"","image-keyboard-response","98","198074","0.0-98.0","3TAYZSBPLMUIBA41M4RGIMO9VOQ2SU","A1F8MH33EFT5VQ","3L1EFR8WWTRIL5MKAR1UWRHK4IC9FJ","","1058.5","img/flower3.png","74","1060","1","0","2","1","1,0.333,0.333,0.333,1,0.333,0.333,0.333,1","1,0.333,0.333,0.333,1,0.333,0.333,0.333,1","1",""
"","html-keyboard-response","99","198376","0.0-99.0","3TAYZSBPLMUIBA41M4RGIMO9VOQ2SU","A1F8MH33EFT5VQ","3L1EFR8WWTRIL5MKAR1UWRHK4IC9FJ","","null","<img src=""img/flower3.png"" style=""width:200px;border:14px solid red;"">","null","","","","","","","","",""
"","image-keyboard-response","100","198978","0.0-100.0","3TAYZSBPLMUIBA41M4RGIMO9VOQ2SU","A1F8MH33EFT5VQ","3L1EFR8WWTRIL5MKAR1UWRHK4IC9FJ","","599.7000000029802","img/flower3.png","74","601","1","1","2","1","1,0.333,0.333,0.333,1,0.333,0.333,0.333,1","1,0.333,0.333,0.333,1,0.333,0.333,0.333,1","1",""
"","html-keyboard-response","101","199280","0.0-101.0","3TAYZSBPLMUIBA41M4RGIMO9VOQ2SU","A1F8MH33EFT5VQ","3L1EFR8WWTRIL5MKAR1UWRHK4IC9FJ","","null","<img src=""img/flower3.png"" style=""width:200px; border:14px solid green;"">","null","","","","","","","","",""
"","image-keyboard-response","102","200007","0.0-102.0","3TAYZSBPLMUIBA41M4RGIMO9VOQ2SU","A1F8MH33EFT5VQ","3L1EFR8WWTRIL5MKAR1UWRHK4IC9FJ","","725.1999999992549","img/flower6.png","74","726.3000000007451","1","1","1","1","1,0.333,0.333,0.333,1,0.333,0.333,0.333,1","1,0.333,0.333,0.333,1,0.333,0.333,0.333,1","1",""
"","html-keyboard-response","103","200309","0.0-103.0","3TAYZSBPLMUIBA41M4RGIMO9VOQ2SU","A1F8MH33EFT5VQ","3L1EFR8WWTRIL5MKAR1UWRHK4IC9FJ","","null","<img src=""img/flower6.png"" style=""width:200px; border:14px solid green;"">","null","","","","","","","","",""
"","image-keyboard-response","104","200950","0.0-104.0","3TAYZSBPLMUIBA41M4RGIMO9VOQ2SU","A1F8MH33EFT5VQ","3L1EFR8WWTRIL5MKAR1UWRHK4IC9FJ","","639.8000000007451","img/flower6.png","75","640.8000000007451","2","1","1","1","1,0.333,0.333,0.333,1,0.333,0.333,0.333,1","1,0.333,0.333,0.333,1,0.333,0.333,0.333,1","1",""
"","html-keyboard-response","105","201252","0.0-105.0","3TAYZSBPLMUIBA41M4RGIMO9VOQ2SU","A1F8MH33EFT5VQ","3L1EFR8WWTRIL5MKAR1UWRHK4IC9FJ","","null","<img src=""img/flower6.png"" style=""width:200px; border:14px solid green;"">","null","","","","","","","","",""
"","image-keyboard-response","106","202034","0.0-106.0","3TAYZSBPLMUIBA41M4RGIMO9VOQ2SU","A1F8MH33EFT5VQ","3L1EFR8WWTRIL5MKAR1UWRHK4IC9FJ","","780.3000000007451","img/flower1.png","74","782","1","0","3","1","1,0.333,0.333,0.333,1,0.333,0.333,0.333,1","1,0.333,0.333,0.333,1,0.333,0.333,0.333,1","1",""
"","html-keyboard-response","107","202335","0.0-107.0","3TAYZSBPLMUIBA41M4RGIMO9VOQ2SU","A1F8MH33EFT5VQ","3L1EFR8WWTRIL5MKAR1UWRHK4IC9FJ","","null","<img src=""img/flower1.png"" style=""width:200px;border:14px solid red;"">","null","","","","","","","","",""
"","image-keyboard-response","108","203037","0.0-108.0","3TAYZSBPLMUIBA41M4RGIMO9VOQ2SU","A1F8MH33EFT5VQ","3L1EFR8WWTRIL5MKAR1UWRHK4IC9FJ","","701","img/flower3.png","74","702.1000000014901","1","0","2","1","1,0.333,0.333,0.333,1,0.333,0.333,0.333,1","1,0.333,0.333,0.333,1,0.333,0.333,0.333,1","1",""
"","html-keyboard-response","109","203339","0.0-109.0","3TAYZSBPLMUIBA41M4RGIMO9VOQ2SU","A1F8MH33EFT5VQ","3L1EFR8WWTRIL5MKAR1UWRHK4IC9FJ","","null","<img src=""img/flower3.png"" style=""width:200px;border:14px solid red;"">","null","","","","","","","","",""
"","image-keyboard-response","110","203887","0.0-110.0","3TAYZSBPLMUIBA41M4RGIMO9VOQ2SU","A1F8MH33EFT5VQ","3L1EFR8WWTRIL5MKAR1UWRHK4IC9FJ","","546.0999999977648","img/flower6.png","75","547.3000000007451","2","0","1","1","1,0.333,0.333,0.333,1,0.333,0.333,0.333,1","1,0.333,0.333,0.333,1,0.333,0.333,0.333,1","1",""
"","html-keyboard-response","111","204189","0.0-111.0","3TAYZSBPLMUIBA41M4RGIMO9VOQ2SU","A1F8MH33EFT5VQ","3L1EFR8WWTRIL5MKAR1UWRHK4IC9FJ","","null","<img src=""img/flower6.png"" style=""width:200px;border:14px solid red;"">","null","","","","","","","","",""
"","image-keyboard-response","112","204820","0.0-112.0","3TAYZSBPLMUIBA41M4RGIMO9VOQ2SU","A1F8MH33EFT5VQ","3L1EFR8WWTRIL5MKAR1UWRHK4IC9FJ","","629.5999999977648","img/flower1.png","76","630.6999999992549","3","1","3","1","1,0.333,0.333,0.333,1,0.333,0.333,0.333,1","1,0.333,0.333,0.333,1,0.333,0.333,0.333,1","1",""
"","html-keyboard-response","113","205122","0.0-113.0","3TAYZSBPLMUIBA41M4RGIMO9VOQ2SU","A1F8MH33EFT5VQ","3L1EFR8WWTRIL5MKAR1UWRHK4IC9FJ","","null","<img src=""img/flower1.png"" style=""width:200px; border:14px solid green;"">","null","","","","","","","","",""
"","image-keyboard-response","114","206039","0.0-114.0","3TAYZSBPLMUIBA41M4RGIMO9VOQ2SU","A1F8MH33EFT5VQ","3L1EFR8WWTRIL5MKAR1UWRHK4IC9FJ","","916.3000000007451","img/flower6.png","75","917.4000000022352","2","0","1","1","1,0.333,0.333,0.333,1,0.333,0.333,0.333,1","1,0.333,0.333,0.333,1,0.333,0.333,0.333,1","1",""
"","html-keyboard-response","115","206341","0.0-115.0","3TAYZSBPLMUIBA41M4RGIMO9VOQ2SU","A1F8MH33EFT5VQ","3L1EFR8WWTRIL5MKAR1UWRHK4IC9FJ","","null","<img src=""img/flower6.png"" style=""width:200px;border:14px solid red;"">","null","","","","","","","","",""
"","image-keyboard-response","116","206852","0.0-116.0","3TAYZSBPLMUIBA41M4RGIMO9VOQ2SU","A1F8MH33EFT5VQ","3L1EFR8WWTRIL5MKAR1UWRHK4IC9FJ","","509.3999999985099","img/flower3.png","74","510.5","1","1","2","1","1,0.333,0.333,0.333,1,0.333,0.333,0.333,1","1,0.333,0.333,0.333,1,0.333,0.333,0.333,1","1",""
"","html-keyboard-response","117","207154","0.0-117.0","3TAYZSBPLMUIBA41M4RGIMO9VOQ2SU","A1F8MH33EFT5VQ","3L1EFR8WWTRIL5MKAR1UWRHK4IC9FJ","","null","<img src=""img/flower3.png"" style=""width:200px; border:14px solid green;"">","null","","","","","","","","",""
"","image-keyboard-response","118","207831","0.0-118.0","3TAYZSBPLMUIBA41M4RGIMO9VOQ2SU","A1F8MH33EFT5VQ","3L1EFR8WWTRIL5MKAR1UWRHK4IC9FJ","","676.6000000014901","img/flower6.png","74","677.6000000014901","1","1","1","1","1,0.333,0.333,0.333,1,0.333,0.333,0.333,1","1,0.333,0.333,0.333,1,0.333,0.333,0.333,1","1",""
"","html-keyboard-response","119","208133","0.0-119.0","3TAYZSBPLMUIBA41M4RGIMO9VOQ2SU","A1F8MH33EFT5VQ","3L1EFR8WWTRIL5MKAR1UWRHK4IC9FJ","","null","<img src=""img/flower6.png"" style=""width:200px; border:14px solid green;"">","null","","","","","","","","",""
"","image-keyboard-response","120","208915","0.0-120.0","3TAYZSBPLMUIBA41M4RGIMO9VOQ2SU","A1F8MH33EFT5VQ","3L1EFR8WWTRIL5MKAR1UWRHK4IC9FJ","","781.3000000007451","img/flower3.png","75","782.5","2","1","2","1","1,0.333,0.333,0.333,1,0.333,0.333,0.333,1","1,0.333,0.333,0.333,1,0.333,0.333,0.333,1","1",""
"","html-keyboard-response","121","209217","0.0-121.0","3TAYZSBPLMUIBA41M4RGIMO9VOQ2SU","A1F8MH33EFT5VQ","3L1EFR8WWTRIL5MKAR1UWRHK4IC9FJ","","null","<img src=""img/flower3.png"" style=""width:200px; border:14px solid green;"">","null","","","","","","","","",""
"","image-keyboard-response","122","210039","0.0-122.0","3TAYZSBPLMUIBA41M4RGIMO9VOQ2SU","A1F8MH33EFT5VQ","3L1EFR8WWTRIL5MKAR1UWRHK4IC9FJ","","821.6999999992549","img/flower6.png","74","822.5","1","1","1","1","1,0.333,0.333,0.333,1,0.333,0.333,0.333,1","1,0.333,0.333,0.333,1,0.333,0.333,0.333,1","1",""
"","html-keyboard-response","123","210342","0.0-123.0","3TAYZSBPLMUIBA41M4RGIMO9VOQ2SU","A1F8MH33EFT5VQ","3L1EFR8WWTRIL5MKAR1UWRHK4IC9FJ","","null","<img src=""img/flower6.png"" style=""width:200px; border:14px solid green;"">","null","","","","","","","","",""
"","image-keyboard-response","124","211037","0.0-124.0","3TAYZSBPLMUIBA41M4RGIMO9VOQ2SU","A1F8MH33EFT5VQ","3L1EFR8WWTRIL5MKAR1UWRHK4IC9FJ","","693.6999999992549","img/flower3.png","75","695.3000000007451","2","1","2","1","1,0.333,0.333,0.333,1,0.333,0.333,0.333,1","1,0.333,0.333,0.333,1,0.333,0.333,0.333,1","1",""
"","html-keyboard-response","125","211340","0.0-125.0","3TAYZSBPLMUIBA41M4RGIMO9VOQ2SU","A1F8MH33EFT5VQ","3L1EFR8WWTRIL5MKAR1UWRHK4IC9FJ","","null","<img src=""img/flower3.png"" style=""width:200px; border:14px solid green;"">","null","","","","","","","","",""
"","image-keyboard-response","126","212052","0.0-126.0","3TAYZSBPLMUIBA41M4RGIMO9VOQ2SU","A1F8MH33EFT5VQ","3L1EFR8WWTRIL5MKAR1UWRHK4IC9FJ","","710.8000000007451","img/flower1.png","76","712.1000000014901","3","1","3","1","1,0.333,0.333,0.333,1,0.333,0.333,0.333,1","1,0.333,0.333,0.333,1,0.333,0.333,0.333,1","1",""
"","html-keyboard-response","127","212354","0.0-127.0","3TAYZSBPLMUIBA41M4RGIMO9VOQ2SU","A1F8MH33EFT5VQ","3L1EFR8WWTRIL5MKAR1UWRHK4IC9FJ","","null","<img src=""img/flower1.png"" style=""width:200px; border:14px solid green;"">","null","","","","","","","","",""
"","image-keyboard-response","128","213329","0.0-128.0","3TAYZSBPLMUIBA41M4RGIMO9VOQ2SU","A1F8MH33EFT5VQ","3L1EFR8WWTRIL5MKAR1UWRHK4IC9FJ","","973.8000000007451","img/flower1.png","74","974.9000000022352","1","0","3","1","1,0.333,0.333,0.333,1,0.333,0.333,0.333,1","1,0.333,0.333,0.333,1,0.333,0.333,0.333,1","1",""
"","html-keyboard-response","129","213632","0.0-129.0","3TAYZSBPLMUIBA41M4RGIMO9VOQ2SU","A1F8MH33EFT5VQ","3L1EFR8WWTRIL5MKAR1UWRHK4IC9FJ","","null","<img src=""img/flower1.png"" style=""width:200px;border:14px solid red;"">","null","","","","","","","","",""
"","image-keyboard-response","130","214354","0.0-130.0","3TAYZSBPLMUIBA41M4RGIMO9VOQ2SU","A1F8MH33EFT5VQ","3L1EFR8WWTRIL5MKAR1UWRHK4IC9FJ","","721.3000000007451","img/flower1.png","75","722.5","2","0","3","1","1,0.333,0.333,0.333,1,0.333,0.333,0.333,1","1,0.333,0.333,0.333,1,0.333,0.333,0.333,1","1",""
"","html-keyboard-response","131","214656","0.0-131.0","3TAYZSBPLMUIBA41M4RGIMO9VOQ2SU","A1F8MH33EFT5VQ","3L1EFR8WWTRIL5MKAR1UWRHK4IC9FJ","","null","<img src=""img/flower1.png"" style=""width:200px;border:14px solid red;"">","null","","","","","","","","",""
"","image-keyboard-response","132","215542","0.0-132.0","3TAYZSBPLMUIBA41M4RGIMO9VOQ2SU","A1F8MH33EFT5VQ","3L1EFR8WWTRIL5MKAR1UWRHK4IC9FJ","","884.8999999985099","img/flower6.png","74","886.1000000014901","1","1","1","1","1,0.333,0.333,0.333,1,0.333,0.333,0.333,1","1,0.333,0.333,0.333,1,0.333,0.333,0.333,1","1",""
"","html-keyboard-response","133","215844","0.0-133.0","3TAYZSBPLMUIBA41M4RGIMO9VOQ2SU","A1F8MH33EFT5VQ","3L1EFR8WWTRIL5MKAR1UWRHK4IC9FJ","","null","<img src=""img/flower6.png"" style=""width:200px; border:14px solid green;"">","null","","","","","","","","",""
"","image-keyboard-response","134","216591","0.0-134.0","3TAYZSBPLMUIBA41M4RGIMO9VOQ2SU","A1F8MH33EFT5VQ","3L1EFR8WWTRIL5MKAR1UWRHK4IC9FJ","","745.5","img/flower6.png","74","747","1","1","1","1","1,0.333,0.333,0.333,1,0.333,0.333,0.333,1","1,0.333,0.333,0.333,1,0.333,0.333,0.333,1","1",""
"","html-keyboard-response","135","216893","0.0-135.0","3TAYZSBPLMUIBA41M4RGIMO9VOQ2SU","A1F8MH33EFT5VQ","3L1EFR8WWTRIL5MKAR1UWRHK4IC9FJ","","null","<img src=""img/flower6.png"" style=""width:200px; border:14px solid green;"">","null","","","","","","","","",""
"","image-keyboard-response","136","217464","0.0-136.0","3TAYZSBPLMUIBA41M4RGIMO9VOQ2SU","A1F8MH33EFT5VQ","3L1EFR8WWTRIL5MKAR1UWRHK4IC9FJ","","569.8000000007451","img/flower1.png","75","570.8999999985099","2","1","3","1","1,0.333,0.333,0.333,1,0.333,0.333,0.333,1","1,0.333,0.333,0.333,1,0.333,0.333,0.333,1","1",""
"","html-keyboard-response","137","217765","0.0-137.0","3TAYZSBPLMUIBA41M4RGIMO9VOQ2SU","A1F8MH33EFT5VQ","3L1EFR8WWTRIL5MKAR1UWRHK4IC9FJ","","null","<img src=""img/flower1.png"" style=""width:200px; border:14px solid green;"">","null","","","","","","","","",""
"","image-keyboard-response","138","219168","0.0-138.0","3TAYZSBPLMUIBA41M4RGIMO9VOQ2SU","A1F8MH33EFT5VQ","3L1EFR8WWTRIL5MKAR1UWRHK4IC9FJ","","1401","img/flower3.png","76","1402.199999999255","3","1","2","1","1,0.333,0.333,0.333,1,0.333,0.333,0.333,1","1,0.333,0.333,0.333,1,0.333,0.333,0.333,1","1",""
"","html-keyboard-response","139","219469","0.0-139.0","3TAYZSBPLMUIBA41M4RGIMO9VOQ2SU","A1F8MH33EFT5VQ","3L1EFR8WWTRIL5MKAR1UWRHK4IC9FJ","","null","<img src=""img/flower3.png"" style=""width:200px; border:14px solid green;"">","null","","","","","","","","",""
"","image-keyboard-response","140","220056","0.0-140.0","3TAYZSBPLMUIBA41M4RGIMO9VOQ2SU","A1F8MH33EFT5VQ","3L1EFR8WWTRIL5MKAR1UWRHK4IC9FJ","","586.3999999985099","img/flower3.png","76","587.2000000029802","3","0","2","1","1,0.333,0.333,0.333,1,0.333,0.333,0.333,1","1,0.333,0.333,0.333,1,0.333,0.333,0.333,1","1",""
"","html-keyboard-response","141","220359","0.0-141.0","3TAYZSBPLMUIBA41M4RGIMO9VOQ2SU","A1F8MH33EFT5VQ","3L1EFR8WWTRIL5MKAR1UWRHK4IC9FJ","","null","<img src=""img/flower3.png"" style=""width:200px;border:14px solid red;"">","null","","","","","","","","",""
"","image-keyboard-response","142","220857","0.0-142.0","3TAYZSBPLMUIBA41M4RGIMO9VOQ2SU","A1F8MH33EFT5VQ","3L1EFR8WWTRIL5MKAR1UWRHK4IC9FJ","","497.29999999701977","img/flower3.png","75","498.3999999985099","2","1","2","1","1,0.333,0.333,0.333,1,0.333,0.333,0.333,1","1,0.333,0.333,0.333,1,0.333,0.333,0.333,1","1",""
"","html-keyboard-response","143","221168","0.0-143.0","3TAYZSBPLMUIBA41M4RGIMO9VOQ2SU","A1F8MH33EFT5VQ","3L1EFR8WWTRIL5MKAR1UWRHK4IC9FJ","","null","<img src=""img/flower3.png"" style=""width:200px; border:14px solid green;"">","null","","","","","","","","",""
"","image-keyboard-response","144","221963","0.0-144.0","3TAYZSBPLMUIBA41M4RGIMO9VOQ2SU","A1F8MH33EFT5VQ","3L1EFR8WWTRIL5MKAR1UWRHK4IC9FJ","","794.8999999985099","img/flower3.png","75","795.8000000007451","2","1","2","1","1,0.333,0.333,0.333,1,0.333,0.333,0.333,1","1,0.333,0.333,0.333,1,0.333,0.333,0.333,1","1",""
"","html-keyboard-response","145","222264","0.0-145.0","3TAYZSBPLMUIBA41M4RGIMO9VOQ2SU","A1F8MH33EFT5VQ","3L1EFR8WWTRIL5MKAR1UWRHK4IC9FJ","","null","<img src=""img/flower3.png"" style=""width:200px; border:14px solid green;"">","null","","","","","","","","",""
"","image-keyboard-response","146","222999","0.0-146.0","3TAYZSBPLMUIBA41M4RGIMO9VOQ2SU","A1F8MH33EFT5VQ","3L1EFR8WWTRIL5MKAR1UWRHK4IC9FJ","","733","img/flower1.png","74","733.8000000007451","1","0","3","1","1,0.333,0.333,0.333,1,0.333,0.333,0.333,1","1,0.333,0.333,0.333,1,0.333,0.333,0.333,1","1",""
"","html-keyboard-response","147","223300","0.0-147.0","3TAYZSBPLMUIBA41M4RGIMO9VOQ2SU","A1F8MH33EFT5VQ","3L1EFR8WWTRIL5MKAR1UWRHK4IC9FJ","","null","<img src=""img/flower1.png"" style=""width:200px;border:14px solid red;"">","null","","","","","","","","",""
"","image-keyboard-response","148","224540","0.0-148.0","3TAYZSBPLMUIBA41M4RGIMO9VOQ2SU","A1F8MH33EFT5VQ","3L1EFR8WWTRIL5MKAR1UWRHK4IC9FJ","","1239.6000000014901","img/flower3.png","75","1240.6000000014901","2","1","2","1","1,0.333,0.333,0.333,1,0.333,0.333,0.333,1","1,0.333,0.333,0.333,1,0.333,0.333,0.333,1","1",""
"","html-keyboard-response","149","224842","0.0-149.0","3TAYZSBPLMUIBA41M4RGIMO9VOQ2SU","A1F8MH33EFT5VQ","3L1EFR8WWTRIL5MKAR1UWRHK4IC9FJ","","null","<img src=""img/flower3.png"" style=""width:200px; border:14px solid green;"">","null","","","","","","","","",""
"","image-keyboard-response","150","225630","0.0-150.0","3TAYZSBPLMUIBA41M4RGIMO9VOQ2SU","A1F8MH33EFT5VQ","3L1EFR8WWTRIL5MKAR1UWRHK4IC9FJ","","785.8999999985099","img/flower3.png","75","787","2","1","2","1","1,0.333,0.333,0.333,1,0.333,0.333,0.333,1","1,0.333,0.333,0.333,1,0.333,0.333,0.333,1","1",""
"","html-keyboard-response","151","225932","0.0-151.0","3TAYZSBPLMUIBA41M4RGIMO9VOQ2SU","A1F8MH33EFT5VQ","3L1EFR8WWTRIL5MKAR1UWRHK4IC9FJ","","null","<img src=""img/flower3.png"" style=""width:200px; border:14px solid green;"">","null","","","","","","","","",""
"","image-keyboard-response","152","227383","0.0-152.0","3TAYZSBPLMUIBA41M4RGIMO9VOQ2SU","A1F8MH33EFT5VQ","3L1EFR8WWTRIL5MKAR1UWRHK4IC9FJ","","1449.800000000745","img/flower1.png","76","1451","3","1","3","1","1,0.333,0.333,0.333,1,0.333,0.333,0.333,1","1,0.333,0.333,0.333,1,0.333,0.333,0.333,1","1",""
"","html-keyboard-response","153","227684","0.0-153.0","3TAYZSBPLMUIBA41M4RGIMO9VOQ2SU","A1F8MH33EFT5VQ","3L1EFR8WWTRIL5MKAR1UWRHK4IC9FJ","","null","<img src=""img/flower1.png"" style=""width:200px; border:14px solid green;"">","null","","","","","","","","",""
"","image-keyboard-response","154","228506","0.0-154.0","3TAYZSBPLMUIBA41M4RGIMO9VOQ2SU","A1F8MH33EFT5VQ","3L1EFR8WWTRIL5MKAR1UWRHK4IC9FJ","","820.5","img/flower6.png","74","821.6000000014901","1","1","1","1","1,0.333,0.333,0.333,1,0.333,0.333,0.333,1","1,0.333,0.333,0.333,1,0.333,0.333,0.333,1","1",""
"","html-keyboard-response","155","228808","0.0-155.0","3TAYZSBPLMUIBA41M4RGIMO9VOQ2SU","A1F8MH33EFT5VQ","3L1EFR8WWTRIL5MKAR1UWRHK4IC9FJ","","null","<img src=""img/flower6.png"" style=""width:200px; border:14px solid green;"">","null","","","","","","","","",""
"","image-keyboard-response","156","229635","0.0-156.0","3TAYZSBPLMUIBA41M4RGIMO9VOQ2SU","A1F8MH33EFT5VQ","3L1EFR8WWTRIL5MKAR1UWRHK4IC9FJ","","825.5999999977648","img/flower6.png","74","826.8000000007451","1","1","1","1","1,0.333,0.333,0.333,1,0.333,0.333,0.333,1","1,0.333,0.333,0.333,1,0.333,0.333,0.333,1","1",""
"","html-keyboard-response","157","229937","0.0-157.0","3TAYZSBPLMUIBA41M4RGIMO9VOQ2SU","A1F8MH33EFT5VQ","3L1EFR8WWTRIL5MKAR1UWRHK4IC9FJ","","null","<img src=""img/flower6.png"" style=""width:200px; border:14px solid green;"">","null","","","","","","","","",""
"","image-keyboard-response","158","230614","0.0-158.0","3TAYZSBPLMUIBA41M4RGIMO9VOQ2SU","A1F8MH33EFT5VQ","3L1EFR8WWTRIL5MKAR1UWRHK4IC9FJ","","675","img/flower3.png","76","676.5999999977648","3","0","2","1","1,0.333,0.333,0.333,1,0.333,0.333,0.333,1","1,0.333,0.333,0.333,1,0.333,0.333,0.333,1","1",""
"","html-keyboard-response","159","230926","0.0-159.0","3TAYZSBPLMUIBA41M4RGIMO9VOQ2SU","A1F8MH33EFT5VQ","3L1EFR8WWTRIL5MKAR1UWRHK4IC9FJ","","null","<img src=""img/flower3.png"" style=""width:200px;border:14px solid red;"">","null","","","","","","","","",""
"","image-keyboard-response","160","231543","0.0-160.0","3TAYZSBPLMUIBA41M4RGIMO9VOQ2SU","A1F8MH33EFT5VQ","3L1EFR8WWTRIL5MKAR1UWRHK4IC9FJ","","615.3000000007451","img/flower3.png","75","616.5","2","1","2","1","1,0.333,0.333,0.333,1,0.333,0.333,0.333,1","1,0.333,0.333,0.333,1,0.333,0.333,0.333,1","1",""
"","html-keyboard-response","161","231845","0.0-161.0","3TAYZSBPLMUIBA41M4RGIMO9VOQ2SU","A1F8MH33EFT5VQ","3L1EFR8WWTRIL5MKAR1UWRHK4IC9FJ","","null","<img src=""img/flower3.png"" style=""width:200px; border:14px solid green;"">","null","","","","","","","","",""
"","image-keyboard-response","162","232536","0.0-162.0","3TAYZSBPLMUIBA41M4RGIMO9VOQ2SU","A1F8MH33EFT5VQ","3L1EFR8WWTRIL5MKAR1UWRHK4IC9FJ","","689.8000000007451","img/flower6.png","74","691.5","1","1","1","1","1,0.333,0.333,0.333,1,0.333,0.333,0.333,1","1,0.333,0.333,0.333,1,0.333,0.333,0.333,1","1",""
"","html-keyboard-response","163","232839","0.0-163.0","3TAYZSBPLMUIBA41M4RGIMO9VOQ2SU","A1F8MH33EFT5VQ","3L1EFR8WWTRIL5MKAR1UWRHK4IC9FJ","","null","<img src=""img/flower6.png"" style=""width:200px; border:14px solid green;"">","null","","","","","","","","",""
"","image-keyboard-response","164","233970","0.0-164.0","3TAYZSBPLMUIBA41M4RGIMO9VOQ2SU","A1F8MH33EFT5VQ","3L1EFR8WWTRIL5MKAR1UWRHK4IC9FJ","","1130.2999999970198","img/flower1.png","76","1131.4000000022352","3","1","3","1","1,0.333,0.333,0.333,1,0.333,0.333,0.333,1","1,0.333,0.333,0.333,1,0.333,0.333,0.333,1","1",""
"","html-keyboard-response","165","234273","0.0-165.0","3TAYZSBPLMUIBA41M4RGIMO9VOQ2SU","A1F8MH33EFT5VQ","3L1EFR8WWTRIL5MKAR1UWRHK4IC9FJ","","null","<img src=""img/flower1.png"" style=""width:200px; border:14px solid green;"">","null","","","","","","","","",""
"","image-keyboard-response","166","235174","0.0-166.0","3TAYZSBPLMUIBA41M4RGIMO9VOQ2SU","A1F8MH33EFT5VQ","3L1EFR8WWTRIL5MKAR1UWRHK4IC9FJ","","899","img/flower3.png","75","900.2999999970198","2","1","2","1","1,0.333,0.333,0.333,1,0.333,0.333,0.333,1","1,0.333,0.333,0.333,1,0.333,0.333,0.333,1","1",""
"","html-keyboard-response","167","235476","0.0-167.0","3TAYZSBPLMUIBA41M4RGIMO9VOQ2SU","A1F8MH33EFT5VQ","3L1EFR8WWTRIL5MKAR1UWRHK4IC9FJ","","null","<img src=""img/flower3.png"" style=""width:200px; border:14px solid green;"">","null","","","","","","","","",""
"","image-keyboard-response","168","236131","0.0-168.0","3TAYZSBPLMUIBA41M4RGIMO9VOQ2SU","A1F8MH33EFT5VQ","3L1EFR8WWTRIL5MKAR1UWRHK4IC9FJ","","654.3000000007451","img/flower3.png","74","655.5","1","1","2","1","1,0.333,0.333,0.333,1,0.333,0.333,0.333,1","1,0.333,0.333,0.333,1,0.333,0.333,0.333,1","1",""
"","html-keyboard-response","169","236433","0.0-169.0","3TAYZSBPLMUIBA41M4RGIMO9VOQ2SU","A1F8MH33EFT5VQ","3L1EFR8WWTRIL5MKAR1UWRHK4IC9FJ","","null","<img src=""img/flower3.png"" style=""width:200px; border:14px solid green;"">","null","","","","","","","","",""
"","image-keyboard-response","170","237230","0.0-170.0","3TAYZSBPLMUIBA41M4RGIMO9VOQ2SU","A1F8MH33EFT5VQ","3L1EFR8WWTRIL5MKAR1UWRHK4IC9FJ","","795.3000000007451","img/flower6.png","74","796.4000000022352","1","1","1","1","1,0.333,0.333,0.333,1,0.333,0.333,0.333,1","1,0.333,0.333,0.333,1,0.333,0.333,0.333,1","1",""
"","html-keyboard-response","171","237533","0.0-171.0","3TAYZSBPLMUIBA41M4RGIMO9VOQ2SU","A1F8MH33EFT5VQ","3L1EFR8WWTRIL5MKAR1UWRHK4IC9FJ","","null","<img src=""img/flower6.png"" style=""width:200px; border:14px solid green;"">","null","","","","","","","","",""
"","image-keyboard-response","172","238555","0.0-172.0","3TAYZSBPLMUIBA41M4RGIMO9VOQ2SU","A1F8MH33EFT5VQ","3L1EFR8WWTRIL5MKAR1UWRHK4IC9FJ","","1020.6000000014901","img/flower3.png","75","1021.6999999992549","2","1","2","1","1,0.333,0.333,0.333,1,0.333,0.333,0.333,1","1,0.333,0.333,0.333,1,0.333,0.333,0.333,1","1",""
"","html-keyboard-response","173","238867","0.0-173.0","3TAYZSBPLMUIBA41M4RGIMO9VOQ2SU","A1F8MH33EFT5VQ","3L1EFR8WWTRIL5MKAR1UWRHK4IC9FJ","","null","<img src=""img/flower3.png"" style=""width:200px; border:14px solid green;"">","null","","","","","","","","",""
"","image-keyboard-response","174","239926","0.0-174.0","3TAYZSBPLMUIBA41M4RGIMO9VOQ2SU","A1F8MH33EFT5VQ","3L1EFR8WWTRIL5MKAR1UWRHK4IC9FJ","","1056.699999999255","img/flower6.png","74","1058.3999999985099","1","1","1","1","1,0.333,0.333,0.333,1,0.333,0.333,0.333,1","1,0.333,0.333,0.333,1,0.333,0.333,0.333,1","1",""
"","html-keyboard-response","175","240227","0.0-175.0","3TAYZSBPLMUIBA41M4RGIMO9VOQ2SU","A1F8MH33EFT5VQ","3L1EFR8WWTRIL5MKAR1UWRHK4IC9FJ","","null","<img src=""img/flower6.png"" style=""width:200px; border:14px solid green;"">","null","","","","","","","","",""
"","image-keyboard-response","176","240860","0.0-176.0","3TAYZSBPLMUIBA41M4RGIMO9VOQ2SU","A1F8MH33EFT5VQ","3L1EFR8WWTRIL5MKAR1UWRHK4IC9FJ","","632.5","img/flower6.png","74","633.6000000014901","1","1","1","1","1,0.333,0.333,0.333,1,0.333,0.333,0.333,1","1,0.333,0.333,0.333,1,0.333,0.333,0.333,1","1",""
"","html-keyboard-response","177","241162","0.0-177.0","3TAYZSBPLMUIBA41M4RGIMO9VOQ2SU","A1F8MH33EFT5VQ","3L1EFR8WWTRIL5MKAR1UWRHK4IC9FJ","","null","<img src=""img/flower6.png"" style=""width:200px; border:14px solid green;"">","null","","","","","","","","",""
"","image-keyboard-response","178","241900","0.0-178.0","3TAYZSBPLMUIBA41M4RGIMO9VOQ2SU","A1F8MH33EFT5VQ","3L1EFR8WWTRIL5MKAR1UWRHK4IC9FJ","","736.1000000014901","img/flower1.png","76","738","3","1","3","1","1,0.333,0.333,0.333,1,0.333,0.333,0.333,1","1,0.333,0.333,0.333,1,0.333,0.333,0.333,1","1",""
"","html-keyboard-response","179","242202","0.0-179.0","3TAYZSBPLMUIBA41M4RGIMO9VOQ2SU","A1F8MH33EFT5VQ","3L1EFR8WWTRIL5MKAR1UWRHK4IC9FJ","","null","<img src=""img/flower1.png"" style=""width:200px; border:14px solid green;"">","null","","","","","","","","",""
"","image-keyboard-response","180","242989","0.0-180.0","3TAYZSBPLMUIBA41M4RGIMO9VOQ2SU","A1F8MH33EFT5VQ","3L1EFR8WWTRIL5MKAR1UWRHK4IC9FJ","","786","img/flower1.png","76","787.0999999977648","3","1","3","1","1,0.333,0.333,0.333,1,0.333,0.333,0.333,1","1,0.333,0.333,0.333,1,0.333,0.333,0.333,1","1",""
"","html-keyboard-response","181","243291","0.0-181.0","3TAYZSBPLMUIBA41M4RGIMO9VOQ2SU","A1F8MH33EFT5VQ","3L1EFR8WWTRIL5MKAR1UWRHK4IC9FJ","","null","<img src=""img/flower1.png"" style=""width:200px; border:14px solid green;"">","null","","","","","","","","",""
"","html-keyboard-response","182","252836","0.0-182.0","3TAYZSBPLMUIBA41M4RGIMO9VOQ2SU","A1F8MH33EFT5VQ","3L1EFR8WWTRIL5MKAR1UWRHK4IC9FJ","","","","","","","","","","","","",""
"","image-keyboard-response","183","254770","0.0-183.0","3TAYZSBPLMUIBA41M4RGIMO9VOQ2SU","A1F8MH33EFT5VQ","3L1EFR8WWTRIL5MKAR1UWRHK4IC9FJ","","1932.5","img/flower2.png","74","1933.6000000014901","1","0","2","2","1,0,0,1,1,0,1,0,1","0,1,0,0,1,1,1,1,0","3",""
"","html-keyboard-response","184","255072","0.0-184.0","3TAYZSBPLMUIBA41M4RGIMO9VOQ2SU","A1F8MH33EFT5VQ","3L1EFR8WWTRIL5MKAR1UWRHK4IC9FJ","","null","<img src=""img/flower2.png"" style=""width:200px;border:14px solid red;"">","null","","","","","","","","",""
"","image-keyboard-response","185","255938","0.0-185.0","3TAYZSBPLMUIBA41M4RGIMO9VOQ2SU","A1F8MH33EFT5VQ","3L1EFR8WWTRIL5MKAR1UWRHK4IC9FJ","","864","img/flower4.png","74","865.4000000022352","1","1","3","2","1,0,0,1,1,0,1,0,1","0,1,0,0,1,1,1,1,0","3",""
"","html-keyboard-response","186","256240","0.0-186.0","3TAYZSBPLMUIBA41M4RGIMO9VOQ2SU","A1F8MH33EFT5VQ","3L1EFR8WWTRIL5MKAR1UWRHK4IC9FJ","","null","<img src=""img/flower4.png"" style=""width:200px; border:14px solid green;"">","null","","","","","","","","",""
"","image-keyboard-response","187","257092","0.0-187.0","3TAYZSBPLMUIBA41M4RGIMO9VOQ2SU","A1F8MH33EFT5VQ","3L1EFR8WWTRIL5MKAR1UWRHK4IC9FJ","","850.0999999977648","img/flower4.png","74","851.3000000007451","1","1","3","2","1,0,0,1,1,0,1,0,1","0,1,0,0,1,1,1,1,0","3",""
"","html-keyboard-response","188","257395","0.0-188.0","3TAYZSBPLMUIBA41M4RGIMO9VOQ2SU","A1F8MH33EFT5VQ","3L1EFR8WWTRIL5MKAR1UWRHK4IC9FJ","","null","<img src=""img/flower4.png"" style=""width:200px; border:14px solid green;"">","null","","","","","","","","",""
"","image-keyboard-response","189","257961","0.0-189.0","3TAYZSBPLMUIBA41M4RGIMO9VOQ2SU","A1F8MH33EFT5VQ","3L1EFR8WWTRIL5MKAR1UWRHK4IC9FJ","","564.5","img/flower4.png","74","565.8000000007451","1","1","3","2","1,0,0,1,1,0,1,0,1","0,1,0,0,1,1,1,1,0","3",""
"","html-keyboard-response","190","258264","0.0-190.0","3TAYZSBPLMUIBA41M4RGIMO9VOQ2SU","A1F8MH33EFT5VQ","3L1EFR8WWTRIL5MKAR1UWRHK4IC9FJ","","null","<img src=""img/flower4.png"" style=""width:200px; border:14px solid green;"">","null","","","","","","","","",""
"","image-keyboard-response","191","259264","0.0-191.0","3TAYZSBPLMUIBA41M4RGIMO9VOQ2SU","A1F8MH33EFT5VQ","3L1EFR8WWTRIL5MKAR1UWRHK4IC9FJ","","999.2999999970198","img/flower2.png","75","1000.5","2","1","2","2","1,0,0,1,1,0,1,0,1","0,1,0,0,1,1,1,1,0","3",""
"","html-keyboard-response","192","259566","0.0-192.0","3TAYZSBPLMUIBA41M4RGIMO9VOQ2SU","A1F8MH33EFT5VQ","3L1EFR8WWTRIL5MKAR1UWRHK4IC9FJ","","null","<img src=""img/flower2.png"" style=""width:200px; border:14px solid green;"">","null","","","","","","","","",""
"","image-keyboard-response","193","260358","0.0-193.0","3TAYZSBPLMUIBA41M4RGIMO9VOQ2SU","A1F8MH33EFT5VQ","3L1EFR8WWTRIL5MKAR1UWRHK4IC9FJ","","790.6000000014901","img/flower2.png","75","791.6999999992549","2","1","2","2","1,0,0,1,1,0,1,0,1","0,1,0,0,1,1,1,1,0","3",""
"","html-keyboard-response","194","260659","0.0-194.0","3TAYZSBPLMUIBA41M4RGIMO9VOQ2SU","A1F8MH33EFT5VQ","3L1EFR8WWTRIL5MKAR1UWRHK4IC9FJ","","null","<img src=""img/flower2.png"" style=""width:200px; border:14px solid green;"">","null","","","","","","","","",""
"","image-keyboard-response","195","261362","0.0-195.0","3TAYZSBPLMUIBA41M4RGIMO9VOQ2SU","A1F8MH33EFT5VQ","3L1EFR8WWTRIL5MKAR1UWRHK4IC9FJ","","700.6999999992549","img/flower5.png","76","702.2000000029802","3","0","1","2","1,0,0,1,1,0,1,0,1","0,1,0,0,1,1,1,1,0","3",""
"","html-keyboard-response","196","261664","0.0-196.0","3TAYZSBPLMUIBA41M4RGIMO9VOQ2SU","A1F8MH33EFT5VQ","3L1EFR8WWTRIL5MKAR1UWRHK4IC9FJ","","null","<img src=""img/flower5.png"" style=""width:200px;border:14px solid red;"">","null","","","","","","","","",""
"","image-keyboard-response","197","262945","0.0-197.0","3TAYZSBPLMUIBA41M4RGIMO9VOQ2SU","A1F8MH33EFT5VQ","3L1EFR8WWTRIL5MKAR1UWRHK4IC9FJ","","1279.4000000022352","img/flower4.png","74","1280.800000000745","1","1","3","2","1,0,0,1,1,0,1,0,1","0,1,0,0,1,1,1,1,0","3",""
"","html-keyboard-response","198","263247","0.0-198.0","3TAYZSBPLMUIBA41M4RGIMO9VOQ2SU","A1F8MH33EFT5VQ","3L1EFR8WWTRIL5MKAR1UWRHK4IC9FJ","","null","<img src=""img/flower4.png"" style=""width:200px; border:14px solid green;"">","null","","","","","","","","",""
"","image-keyboard-response","199","263873","0.0-199.0","3TAYZSBPLMUIBA41M4RGIMO9VOQ2SU","A1F8MH33EFT5VQ","3L1EFR8WWTRIL5MKAR1UWRHK4IC9FJ","","624.5","img/flower4.png","74","625.8000000007451","1","1","3","2","1,0,0,1,1,0,1,0,1","0,1,0,0,1,1,1,1,0","3",""
"","html-keyboard-response","200","264174","0.0-200.0","3TAYZSBPLMUIBA41M4RGIMO9VOQ2SU","A1F8MH33EFT5VQ","3L1EFR8WWTRIL5MKAR1UWRHK4IC9FJ","","null","<img src=""img/flower4.png"" style=""width:200px; border:14px solid green;"">","null","","","","","","","","",""
"","image-keyboard-response","201","265081","0.0-201.0","3TAYZSBPLMUIBA41M4RGIMO9VOQ2SU","A1F8MH33EFT5VQ","3L1EFR8WWTRIL5MKAR1UWRHK4IC9FJ","","905.6999999992549","img/flower5.png","76","907.0999999977648","3","0","1","2","1,0,0,1,1,0,1,0,1","0,1,0,0,1,1,1,1,0","3",""
"","html-keyboard-response","202","265384","0.0-202.0","3TAYZSBPLMUIBA41M4RGIMO9VOQ2SU","A1F8MH33EFT5VQ","3L1EFR8WWTRIL5MKAR1UWRHK4IC9FJ","","null","<img src=""img/flower5.png"" style=""width:200px;border:14px solid red;"">","null","","","","","","","","",""
"","image-keyboard-response","203","266185","0.0-203.0","3TAYZSBPLMUIBA41M4RGIMO9VOQ2SU","A1F8MH33EFT5VQ","3L1EFR8WWTRIL5MKAR1UWRHK4IC9FJ","","800","img/flower4.png","75","800.8000000007451","2","1","3","2","1,0,0,1,1,0,1,0,1","0,1,0,0,1,1,1,1,0","3",""
"","html-keyboard-response","204","266486","0.0-204.0","3TAYZSBPLMUIBA41M4RGIMO9VOQ2SU","A1F8MH33EFT5VQ","3L1EFR8WWTRIL5MKAR1UWRHK4IC9FJ","","null","<img src=""img/flower4.png"" style=""width:200px; border:14px solid green;"">","null","","","","","","","","",""
"","image-keyboard-response","205","267130","0.0-205.0","3TAYZSBPLMUIBA41M4RGIMO9VOQ2SU","A1F8MH33EFT5VQ","3L1EFR8WWTRIL5MKAR1UWRHK4IC9FJ","","641.8999999985099","img/flower4.png","75","643.0999999977648","2","1","3","2","1,0,0,1,1,0,1,0,1","0,1,0,0,1,1,1,1,0","3",""
"","html-keyboard-response","206","267432","0.0-206.0","3TAYZSBPLMUIBA41M4RGIMO9VOQ2SU","A1F8MH33EFT5VQ","3L1EFR8WWTRIL5MKAR1UWRHK4IC9FJ","","null","<img src=""img/flower4.png"" style=""width:200px; border:14px solid green;"">","null","","","","","","","","",""
"","image-keyboard-response","207","268333","0.0-207.0","3TAYZSBPLMUIBA41M4RGIMO9VOQ2SU","A1F8MH33EFT5VQ","3L1EFR8WWTRIL5MKAR1UWRHK4IC9FJ","","899.6999999992549","img/flower4.png","75","901.1000000014901","2","1","3","2","1,0,0,1,1,0,1,0,1","0,1,0,0,1,1,1,1,0","3",""
"","html-keyboard-response","208","268636","0.0-208.0","3TAYZSBPLMUIBA41M4RGIMO9VOQ2SU","A1F8MH33EFT5VQ","3L1EFR8WWTRIL5MKAR1UWRHK4IC9FJ","","null","<img src=""img/flower4.png"" style=""width:200px; border:14px solid green;"">","null","","","","","","","","",""
"","image-keyboard-response","209","269271","0.0-209.0","3TAYZSBPLMUIBA41M4RGIMO9VOQ2SU","A1F8MH33EFT5VQ","3L1EFR8WWTRIL5MKAR1UWRHK4IC9FJ","","634.3000000007451","img/flower5.png","75","635.5999999977648","2","1","1","2","1,0,0,1,1,0,1,0,1","0,1,0,0,1,1,1,1,0","3",""
"","html-keyboard-response","210","269573","0.0-210.0","3TAYZSBPLMUIBA41M4RGIMO9VOQ2SU","A1F8MH33EFT5VQ","3L1EFR8WWTRIL5MKAR1UWRHK4IC9FJ","","null","<img src=""img/flower5.png"" style=""width:200px; border:14px solid green;"">","null","","","","","","","","",""
"","image-keyboard-response","211","270460","0.0-211.0","3TAYZSBPLMUIBA41M4RGIMO9VOQ2SU","A1F8MH33EFT5VQ","3L1EFR8WWTRIL5MKAR1UWRHK4IC9FJ","","884.8000000007451","img/flower2.png","76","886","3","1","2","2","1,0,0,1,1,0,1,0,1","0,1,0,0,1,1,1,1,0","3",""
"","html-keyboard-response","212","270762","0.0-212.0","3TAYZSBPLMUIBA41M4RGIMO9VOQ2SU","A1F8MH33EFT5VQ","3L1EFR8WWTRIL5MKAR1UWRHK4IC9FJ","","null","<img src=""img/flower2.png"" style=""width:200px; border:14px solid green;"">","null","","","","","","","","",""
"","image-keyboard-response","213","271544","0.0-213.0","3TAYZSBPLMUIBA41M4RGIMO9VOQ2SU","A1F8MH33EFT5VQ","3L1EFR8WWTRIL5MKAR1UWRHK4IC9FJ","","780.9000000022352","img/flower4.png","75","782.1999999992549","2","1","3","2","1,0,0,1,1,0,1,0,1","0,1,0,0,1,1,1,1,0","3",""
"","html-keyboard-response","214","271846","0.0-214.0","3TAYZSBPLMUIBA41M4RGIMO9VOQ2SU","A1F8MH33EFT5VQ","3L1EFR8WWTRIL5MKAR1UWRHK4IC9FJ","","null","<img src=""img/flower4.png"" style=""width:200px; border:14px solid green;"">","null","","","","","","","","",""
"","image-keyboard-response","215","272612","0.0-215.0","3TAYZSBPLMUIBA41M4RGIMO9VOQ2SU","A1F8MH33EFT5VQ","3L1EFR8WWTRIL5MKAR1UWRHK4IC9FJ","","764.6000000014901","img/flower5.png","76","765.7000000029802","3","0","1","2","1,0,0,1,1,0,1,0,1","0,1,0,0,1,1,1,1,0","3",""
"","html-keyboard-response","216","272915","0.0-216.0","3TAYZSBPLMUIBA41M4RGIMO9VOQ2SU","A1F8MH33EFT5VQ","3L1EFR8WWTRIL5MKAR1UWRHK4IC9FJ","","null","<img src=""img/flower5.png"" style=""width:200px;border:14px solid red;"">","null","","","","","","","","",""
"","image-keyboard-response","217","273562","0.0-217.0","3TAYZSBPLMUIBA41M4RGIMO9VOQ2SU","A1F8MH33EFT5VQ","3L1EFR8WWTRIL5MKAR1UWRHK4IC9FJ","","645.1999999992549","img/flower2.png","75","646.5","2","1","2","2","1,0,0,1,1,0,1,0,1","0,1,0,0,1,1,1,1,0","3",""
"","html-keyboard-response","218","273863","0.0-218.0","3TAYZSBPLMUIBA41M4RGIMO9VOQ2SU","A1F8MH33EFT5VQ","3L1EFR8WWTRIL5MKAR1UWRHK4IC9FJ","","null","<img src=""img/flower2.png"" style=""width:200px; border:14px solid green;"">","null","","","","","","","","",""
"","image-keyboard-response","219","274520","0.0-219.0","3TAYZSBPLMUIBA41M4RGIMO9VOQ2SU","A1F8MH33EFT5VQ","3L1EFR8WWTRIL5MKAR1UWRHK4IC9FJ","","655.9000000022352","img/flower4.png","74","657.0999999977648","1","1","3","2","1,0,0,1,1,0,1,0,1","0,1,0,0,1,1,1,1,0","3",""
"","html-keyboard-response","220","274823","0.0-220.0","3TAYZSBPLMUIBA41M4RGIMO9VOQ2SU","A1F8MH33EFT5VQ","3L1EFR8WWTRIL5MKAR1UWRHK4IC9FJ","","null","<img src=""img/flower4.png"" style=""width:200px; border:14px solid green;"">","null","","","","","","","","",""
"","image-keyboard-response","221","275480","0.0-221.0","3TAYZSBPLMUIBA41M4RGIMO9VOQ2SU","A1F8MH33EFT5VQ","3L1EFR8WWTRIL5MKAR1UWRHK4IC9FJ","","655.6999999992549","img/flower4.png","74","656.8000000007451","1","1","3","2","1,0,0,1,1,0,1,0,1","0,1,0,0,1,1,1,1,0","3",""
"","html-keyboard-response","222","275781","0.0-222.0","3TAYZSBPLMUIBA41M4RGIMO9VOQ2SU","A1F8MH33EFT5VQ","3L1EFR8WWTRIL5MKAR1UWRHK4IC9FJ","","null","<img src=""img/flower4.png"" style=""width:200px; border:14px solid green;"">","null","","","","","","","","",""
"","image-keyboard-response","223","276763","0.0-223.0","3TAYZSBPLMUIBA41M4RGIMO9VOQ2SU","A1F8MH33EFT5VQ","3L1EFR8WWTRIL5MKAR1UWRHK4IC9FJ","","980.3000000007451","img/flower5.png","75","981.5","2","1","1","2","1,0,0,1,1,0,1,0,1","0,1,0,0,1,1,1,1,0","3",""
"","html-keyboard-response","224","277065","0.0-224.0","3TAYZSBPLMUIBA41M4RGIMO9VOQ2SU","A1F8MH33EFT5VQ","3L1EFR8WWTRIL5MKAR1UWRHK4IC9FJ","","null","<img src=""img/flower5.png"" style=""width:200px; border:14px solid green;"">","null","","","","","","","","",""
"","image-keyboard-response","225","278075","0.0-225.0","3TAYZSBPLMUIBA41M4RGIMO9VOQ2SU","A1F8MH33EFT5VQ","3L1EFR8WWTRIL5MKAR1UWRHK4IC9FJ","","1008","img/flower2.png","75","1009","2","1","2","2","1,0,0,1,1,0,1,0,1","0,1,0,0,1,1,1,1,0","3",""
"","html-keyboard-response","226","278376","0.0-226.0","3TAYZSBPLMUIBA41M4RGIMO9VOQ2SU","A1F8MH33EFT5VQ","3L1EFR8WWTRIL5MKAR1UWRHK4IC9FJ","","null","<img src=""img/flower2.png"" style=""width:200px; border:14px solid green;"">","null","","","","","","","","",""
"","image-keyboard-response","227","279194","0.0-227.0","3TAYZSBPLMUIBA41M4RGIMO9VOQ2SU","A1F8MH33EFT5VQ","3L1EFR8WWTRIL5MKAR1UWRHK4IC9FJ","","816.3999999985099","img/flower4.png","75","817.6999999992549","2","1","3","2","1,0,0,1,1,0,1,0,1","0,1,0,0,1,1,1,1,0","3",""
"","html-keyboard-response","228","279496","0.0-228.0","3TAYZSBPLMUIBA41M4RGIMO9VOQ2SU","A1F8MH33EFT5VQ","3L1EFR8WWTRIL5MKAR1UWRHK4IC9FJ","","null","<img src=""img/flower4.png"" style=""width:200px; border:14px solid green;"">","null","","","","","","","","",""
"","image-keyboard-response","229","280482","0.0-229.0","3TAYZSBPLMUIBA41M4RGIMO9VOQ2SU","A1F8MH33EFT5VQ","3L1EFR8WWTRIL5MKAR1UWRHK4IC9FJ","","983.0999999977648","img/flower5.png","74","986","1","0","1","2","1,0,0,1,1,0,1,0,1","0,1,0,0,1,1,1,1,0","3",""
"","html-keyboard-response","230","280786","0.0-230.0","3TAYZSBPLMUIBA41M4RGIMO9VOQ2SU","A1F8MH33EFT5VQ","3L1EFR8WWTRIL5MKAR1UWRHK4IC9FJ","","null","<img src=""img/flower5.png"" style=""width:200px;border:14px solid red;"">","null","","","","","","","","",""
"","image-keyboard-response","231","281371","0.0-231.0","3TAYZSBPLMUIBA41M4RGIMO9VOQ2SU","A1F8MH33EFT5VQ","3L1EFR8WWTRIL5MKAR1UWRHK4IC9FJ","","584.1999999992549","img/flower5.png","74","585","1","0","1","2","1,0,0,1,1,0,1,0,1","0,1,0,0,1,1,1,1,0","3",""
"","html-keyboard-response","232","281673","0.0-232.0","3TAYZSBPLMUIBA41M4RGIMO9VOQ2SU","A1F8MH33EFT5VQ","3L1EFR8WWTRIL5MKAR1UWRHK4IC9FJ","","null","<img src=""img/flower5.png"" style=""width:200px;border:14px solid red;"">","null","","","","","","","","",""
"","image-keyboard-response","233","282156","0.0-233.0","3TAYZSBPLMUIBA41M4RGIMO9VOQ2SU","A1F8MH33EFT5VQ","3L1EFR8WWTRIL5MKAR1UWRHK4IC9FJ","","481.30000000074506","img/flower5.png","75","482.19999999925494","2","1","1","2","1,0,0,1,1,0,1,0,1","0,1,0,0,1,1,1,1,0","3",""
"","html-keyboard-response","234","282457","0.0-234.0","3TAYZSBPLMUIBA41M4RGIMO9VOQ2SU","A1F8MH33EFT5VQ","3L1EFR8WWTRIL5MKAR1UWRHK4IC9FJ","","null","<img src=""img/flower5.png"" style=""width:200px; border:14px solid green;"">","null","","","","","","","","",""
"","image-keyboard-response","235","283679","0.0-235.0","3TAYZSBPLMUIBA41M4RGIMO9VOQ2SU","A1F8MH33EFT5VQ","3L1EFR8WWTRIL5MKAR1UWRHK4IC9FJ","","1220.5","img/flower2.png","75","1221.800000000745","2","1","2","2","1,0,0,1,1,0,1,0,1","0,1,0,0,1,1,1,1,0","3",""
"","html-keyboard-response","236","283981","0.0-236.0","3TAYZSBPLMUIBA41M4RGIMO9VOQ2SU","A1F8MH33EFT5VQ","3L1EFR8WWTRIL5MKAR1UWRHK4IC9FJ","","null","<img src=""img/flower2.png"" style=""width:200px; border:14px solid green;"">","null","","","","","","","","",""
"","image-keyboard-response","237","284799","0.0-237.0","3TAYZSBPLMUIBA41M4RGIMO9VOQ2SU","A1F8MH33EFT5VQ","3L1EFR8WWTRIL5MKAR1UWRHK4IC9FJ","","815.5999999977648","img/flower2.png","75","817","2","1","2","2","1,0,0,1,1,0,1,0,1","0,1,0,0,1,1,1,1,0","3",""
"","html-keyboard-response","238","285100","0.0-238.0","3TAYZSBPLMUIBA41M4RGIMO9VOQ2SU","A1F8MH33EFT5VQ","3L1EFR8WWTRIL5MKAR1UWRHK4IC9FJ","","null","<img src=""img/flower2.png"" style=""width:200px; border:14px solid green;"">","null","","","","","","","","",""
"","image-keyboard-response","239","286300","0.0-239.0","3TAYZSBPLMUIBA41M4RGIMO9VOQ2SU","A1F8MH33EFT5VQ","3L1EFR8WWTRIL5MKAR1UWRHK4IC9FJ","","1198.199999999255","img/flower5.png","76","1199.0999999977648","3","0","1","2","1,0,0,1,1,0,1,0,1","0,1,0,0,1,1,1,1,0","3",""
"","html-keyboard-response","240","286601","0.0-240.0","3TAYZSBPLMUIBA41M4RGIMO9VOQ2SU","A1F8MH33EFT5VQ","3L1EFR8WWTRIL5MKAR1UWRHK4IC9FJ","","null","<img src=""img/flower5.png"" style=""width:200px;border:14px solid red;"">","null","","","","","","","","",""
"","image-keyboard-response","241","287164","0.0-241.0","3TAYZSBPLMUIBA41M4RGIMO9VOQ2SU","A1F8MH33EFT5VQ","3L1EFR8WWTRIL5MKAR1UWRHK4IC9FJ","","561.6999999992549","img/flower4.png","74","562.8000000007451","1","1","3","2","1,0,0,1,1,0,1,0,1","0,1,0,0,1,1,1,1,0","3",""
"","html-keyboard-response","242","287466","0.0-242.0","3TAYZSBPLMUIBA41M4RGIMO9VOQ2SU","A1F8MH33EFT5VQ","3L1EFR8WWTRIL5MKAR1UWRHK4IC9FJ","","null","<img src=""img/flower4.png"" style=""width:200px; border:14px solid green;"">","null","","","","","","","","",""
"","image-keyboard-response","243","288125","0.0-243.0","3TAYZSBPLMUIBA41M4RGIMO9VOQ2SU","A1F8MH33EFT5VQ","3L1EFR8WWTRIL5MKAR1UWRHK4IC9FJ","","657.3999999985099","img/flower4.png","74","658.5","1","1","3","2","1,0,0,1,1,0,1,0,1","0,1,0,0,1,1,1,1,0","3",""
"","html-keyboard-response","244","288427","0.0-244.0","3TAYZSBPLMUIBA41M4RGIMO9VOQ2SU","A1F8MH33EFT5VQ","3L1EFR8WWTRIL5MKAR1UWRHK4IC9FJ","","null","<img src=""img/flower4.png"" style=""width:200px; border:14px solid green;"">","null","","","","","","","","",""
"","image-keyboard-response","245","289177","0.0-245.0","3TAYZSBPLMUIBA41M4RGIMO9VOQ2SU","A1F8MH33EFT5VQ","3L1EFR8WWTRIL5MKAR1UWRHK4IC9FJ","","748.6999999992549","img/flower4.png","74","749.8999999985099","1","1","3","2","1,0,0,1,1,0,1,0,1","0,1,0,0,1,1,1,1,0","3",""
"","html-keyboard-response","246","289479","0.0-246.0","3TAYZSBPLMUIBA41M4RGIMO9VOQ2SU","A1F8MH33EFT5VQ","3L1EFR8WWTRIL5MKAR1UWRHK4IC9FJ","","null","<img src=""img/flower4.png"" style=""width:200px; border:14px solid green;"">","null","","","","","","","","",""
"","image-keyboard-response","247","290705","0.0-247.0","3TAYZSBPLMUIBA41M4RGIMO9VOQ2SU","A1F8MH33EFT5VQ","3L1EFR8WWTRIL5MKAR1UWRHK4IC9FJ","","1225","img/flower5.png","75","1226.300000000745","2","1","1","2","1,0,0,1,1,0,1,0,1","0,1,0,0,1,1,1,1,0","3",""
"","html-keyboard-response","248","291008","0.0-248.0","3TAYZSBPLMUIBA41M4RGIMO9VOQ2SU","A1F8MH33EFT5VQ","3L1EFR8WWTRIL5MKAR1UWRHK4IC9FJ","","null","<img src=""img/flower5.png"" style=""width:200px; border:14px solid green;"">","null","","","","","","","","",""
"","image-keyboard-response","249","291799","0.0-249.0","3TAYZSBPLMUIBA41M4RGIMO9VOQ2SU","A1F8MH33EFT5VQ","3L1EFR8WWTRIL5MKAR1UWRHK4IC9FJ","","788.1999999992549","img/flower5.png","75","789.7999999970198","2","1","1","2","1,0,0,1,1,0,1,0,1","0,1,0,0,1,1,1,1,0","3",""
"","html-keyboard-response","250","292101","0.0-250.0","3TAYZSBPLMUIBA41M4RGIMO9VOQ2SU","A1F8MH33EFT5VQ","3L1EFR8WWTRIL5MKAR1UWRHK4IC9FJ","","null","<img src=""img/flower5.png"" style=""width:200px; border:14px solid green;"">","null","","","","","","","","",""
"","image-keyboard-response","251","292788","0.0-251.0","3TAYZSBPLMUIBA41M4RGIMO9VOQ2SU","A1F8MH33EFT5VQ","3L1EFR8WWTRIL5MKAR1UWRHK4IC9FJ","","685.1999999992549","img/flower5.png","75","686.6999999992549","2","1","1","2","1,0,0,1,1,0,1,0,1","0,1,0,0,1,1,1,1,0","3",""
"","html-keyboard-response","252","293091","0.0-252.0","3TAYZSBPLMUIBA41M4RGIMO9VOQ2SU","A1F8MH33EFT5VQ","3L1EFR8WWTRIL5MKAR1UWRHK4IC9FJ","","null","<img src=""img/flower5.png"" style=""width:200px; border:14px solid green;"">","null","","","","","","","","",""
"","image-keyboard-response","253","293942","0.0-253.0","3TAYZSBPLMUIBA41M4RGIMO9VOQ2SU","A1F8MH33EFT5VQ","3L1EFR8WWTRIL5MKAR1UWRHK4IC9FJ","","849.6999999992549","img/flower2.png","76","851","3","1","2","2","1,0,0,1,1,0,1,0,1","0,1,0,0,1,1,1,1,0","3",""
"","html-keyboard-response","254","294244","0.0-254.0","3TAYZSBPLMUIBA41M4RGIMO9VOQ2SU","A1F8MH33EFT5VQ","3L1EFR8WWTRIL5MKAR1UWRHK4IC9FJ","","null","<img src=""img/flower2.png"" style=""width:200px; border:14px solid green;"">","null","","","","","","","","",""
"","image-keyboard-response","255","294836","0.0-255.0","3TAYZSBPLMUIBA41M4RGIMO9VOQ2SU","A1F8MH33EFT5VQ","3L1EFR8WWTRIL5MKAR1UWRHK4IC9FJ","","590.5","img/flower2.png","76","591.7999999970198","3","1","2","2","1,0,0,1,1,0,1,0,1","0,1,0,0,1,1,1,1,0","3",""
"","html-keyboard-response","256","295139","0.0-256.0","3TAYZSBPLMUIBA41M4RGIMO9VOQ2SU","A1F8MH33EFT5VQ","3L1EFR8WWTRIL5MKAR1UWRHK4IC9FJ","","null","<img src=""img/flower2.png"" style=""width:200px; border:14px solid green;"">","null","","","","","","","","",""
"","image-keyboard-response","257","295789","0.0-257.0","3TAYZSBPLMUIBA41M4RGIMO9VOQ2SU","A1F8MH33EFT5VQ","3L1EFR8WWTRIL5MKAR1UWRHK4IC9FJ","","647.6000000014901","img/flower2.png","76","648.8999999985099","3","1","2","2","1,0,0,1,1,0,1,0,1","0,1,0,0,1,1,1,1,0","3",""
"","html-keyboard-response","258","296090","0.0-258.0","3TAYZSBPLMUIBA41M4RGIMO9VOQ2SU","A1F8MH33EFT5VQ","3L1EFR8WWTRIL5MKAR1UWRHK4IC9FJ","","null","<img src=""img/flower2.png"" style=""width:200px; border:14px solid green;"">","null","","","","","","","","",""
"","image-keyboard-response","259","296728","0.0-259.0","3TAYZSBPLMUIBA41M4RGIMO9VOQ2SU","A1F8MH33EFT5VQ","3L1EFR8WWTRIL5MKAR1UWRHK4IC9FJ","","636.1999999992549","img/flower2.png","76","637.3999999985099","3","1","2","2","1,0,0,1,1,0,1,0,1","0,1,0,0,1,1,1,1,0","3",""
"","html-keyboard-response","260","297031","0.0-260.0","3TAYZSBPLMUIBA41M4RGIMO9VOQ2SU","A1F8MH33EFT5VQ","3L1EFR8WWTRIL5MKAR1UWRHK4IC9FJ","","null","<img src=""img/flower2.png"" style=""width:200px; border:14px solid green;"">","null","","","","","","","","",""
"","image-keyboard-response","261","297827","0.0-261.0","3TAYZSBPLMUIBA41M4RGIMO9VOQ2SU","A1F8MH33EFT5VQ","3L1EFR8WWTRIL5MKAR1UWRHK4IC9FJ","","794.3000000007451","img/flower5.png","74","795.6000000014901","1","0","1","2","1,0,0,1,1,0,1,0,1","0,1,0,0,1,1,1,1,0","3",""
"","html-keyboard-response","262","298129","0.0-262.0","3TAYZSBPLMUIBA41M4RGIMO9VOQ2SU","A1F8MH33EFT5VQ","3L1EFR8WWTRIL5MKAR1UWRHK4IC9FJ","","null","<img src=""img/flower5.png"" style=""width:200px;border:14px solid red;"">","null","","","","","","","","",""
"","image-keyboard-response","263","298820","0.0-263.0","3TAYZSBPLMUIBA41M4RGIMO9VOQ2SU","A1F8MH33EFT5VQ","3L1EFR8WWTRIL5MKAR1UWRHK4IC9FJ","","690","img/flower5.png","76","692.5","3","0","1","2","1,0,0,1,1,0,1,0,1","0,1,0,0,1,1,1,1,0","3",""
"","html-keyboard-response","264","299123","0.0-264.0","3TAYZSBPLMUIBA41M4RGIMO9VOQ2SU","A1F8MH33EFT5VQ","3L1EFR8WWTRIL5MKAR1UWRHK4IC9FJ","","null","<img src=""img/flower5.png"" style=""width:200px;border:14px solid red;"">","null","","","","","","","","",""
"","image-keyboard-response","265","300113","0.0-265.0","3TAYZSBPLMUIBA41M4RGIMO9VOQ2SU","A1F8MH33EFT5VQ","3L1EFR8WWTRIL5MKAR1UWRHK4IC9FJ","","988.1999999992549","img/flower2.png","75","989.4000000022352","2","1","2","2","1,0,0,1,1,0,1,0,1","0,1,0,0,1,1,1,1,0","3",""
"","html-keyboard-response","266","300415","0.0-266.0","3TAYZSBPLMUIBA41M4RGIMO9VOQ2SU","A1F8MH33EFT5VQ","3L1EFR8WWTRIL5MKAR1UWRHK4IC9FJ","","null","<img src=""img/flower2.png"" style=""width:200px; border:14px solid green;"">","null","","","","","","","","",""
"","image-keyboard-response","267","301003","0.0-267.0","3TAYZSBPLMUIBA41M4RGIMO9VOQ2SU","A1F8MH33EFT5VQ","3L1EFR8WWTRIL5MKAR1UWRHK4IC9FJ","","586.5","img/flower4.png","74","587.6999999992549","1","1","3","2","1,0,0,1,1,0,1,0,1","0,1,0,0,1,1,1,1,0","3",""
"","html-keyboard-response","268","301306","0.0-268.0","3TAYZSBPLMUIBA41M4RGIMO9VOQ2SU","A1F8MH33EFT5VQ","3L1EFR8WWTRIL5MKAR1UWRHK4IC9FJ","","null","<img src=""img/flower4.png"" style=""width:200px; border:14px solid green;"">","null","","","","","","","","",""
"","image-keyboard-response","269","301892","0.0-269.0","3TAYZSBPLMUIBA41M4RGIMO9VOQ2SU","A1F8MH33EFT5VQ","3L1EFR8WWTRIL5MKAR1UWRHK4IC9FJ","","585.3999999985099","img/flower4.png","74","586.5","1","1","3","2","1,0,0,1,1,0,1,0,1","0,1,0,0,1,1,1,1,0","3",""
"","html-keyboard-response","270","302194","0.0-270.0","3TAYZSBPLMUIBA41M4RGIMO9VOQ2SU","A1F8MH33EFT5VQ","3L1EFR8WWTRIL5MKAR1UWRHK4IC9FJ","","null","<img src=""img/flower4.png"" style=""width:200px; border:14px solid green;"">","null","","","","","","","","",""
"","image-keyboard-response","271","302810","0.0-271.0","3TAYZSBPLMUIBA41M4RGIMO9VOQ2SU","A1F8MH33EFT5VQ","3L1EFR8WWTRIL5MKAR1UWRHK4IC9FJ","","614.4000000022352","img/flower4.png","74","615.6000000014901","1","1","3","2","1,0,0,1,1,0,1,0,1","0,1,0,0,1,1,1,1,0","3",""
"","html-keyboard-response","272","303113","0.0-272.0","3TAYZSBPLMUIBA41M4RGIMO9VOQ2SU","A1F8MH33EFT5VQ","3L1EFR8WWTRIL5MKAR1UWRHK4IC9FJ","","null","<img src=""img/flower4.png"" style=""width:200px; border:14px solid green;"">","null","","","","","","","","",""
"","image-keyboard-response","273","303859","0.0-273.0","3TAYZSBPLMUIBA41M4RGIMO9VOQ2SU","A1F8MH33EFT5VQ","3L1EFR8WWTRIL5MKAR1UWRHK4IC9FJ","","743.8000000007451","img/flower2.png","74","745.6000000014901","1","0","2","2","1,0,0,1,1,0,1,0,1","0,1,0,0,1,1,1,1,0","3",""
"","html-keyboard-response","274","304160","0.0-274.0","3TAYZSBPLMUIBA41M4RGIMO9VOQ2SU","A1F8MH33EFT5VQ","3L1EFR8WWTRIL5MKAR1UWRHK4IC9FJ","","null","<img src=""img/flower2.png"" style=""width:200px;border:14px solid red;"">","null","","","","","","","","",""
"","image-keyboard-response","275","304773","0.0-275.0","3TAYZSBPLMUIBA41M4RGIMO9VOQ2SU","A1F8MH33EFT5VQ","3L1EFR8WWTRIL5MKAR1UWRHK4IC9FJ","","611.3999999985099","img/flower2.png","75","612.7999999970198","2","1","2","2","1,0,0,1,1,0,1,0,1","0,1,0,0,1,1,1,1,0","3",""
"","html-keyboard-response","276","305075","0.0-276.0","3TAYZSBPLMUIBA41M4RGIMO9VOQ2SU","A1F8MH33EFT5VQ","3L1EFR8WWTRIL5MKAR1UWRHK4IC9FJ","","null","<img src=""img/flower2.png"" style=""width:200px; border:14px solid green;"">","null","","","","","","","","",""
"","image-keyboard-response","277","305887","0.0-277.0","3TAYZSBPLMUIBA41M4RGIMO9VOQ2SU","A1F8MH33EFT5VQ","3L1EFR8WWTRIL5MKAR1UWRHK4IC9FJ","","810.5","img/flower5.png","76","811.8000000007451","3","0","1","2","1,0,0,1,1,0,1,0,1","0,1,0,0,1,1,1,1,0","3",""
"","html-keyboard-response","278","306189","0.0-278.0","3TAYZSBPLMUIBA41M4RGIMO9VOQ2SU","A1F8MH33EFT5VQ","3L1EFR8WWTRIL5MKAR1UWRHK4IC9FJ","","null","<img src=""img/flower5.png"" style=""width:200px;border:14px solid red;"">","null","","","","","","","","",""
"","image-keyboard-response","279","307231","0.0-279.0","3TAYZSBPLMUIBA41M4RGIMO9VOQ2SU","A1F8MH33EFT5VQ","3L1EFR8WWTRIL5MKAR1UWRHK4IC9FJ","","1039.699999999255","img/flower2.png","75","1041.1000000014901","2","1","2","2","1,0,0,1,1,0,1,0,1","0,1,0,0,1,1,1,1,0","3",""
"","html-keyboard-response","280","307532","0.0-280.0","3TAYZSBPLMUIBA41M4RGIMO9VOQ2SU","A1F8MH33EFT5VQ","3L1EFR8WWTRIL5MKAR1UWRHK4IC9FJ","","null","<img src=""img/flower2.png"" style=""width:200px; border:14px solid green;"">","null","","","","","","","","",""
"","image-keyboard-response","281","308125","0.0-281.0","3TAYZSBPLMUIBA41M4RGIMO9VOQ2SU","A1F8MH33EFT5VQ","3L1EFR8WWTRIL5MKAR1UWRHK4IC9FJ","","591.3999999985099","img/flower2.png","75","593","2","1","2","2","1,0,0,1,1,0,1,0,1","0,1,0,0,1,1,1,1,0","3",""
"","html-keyboard-response","282","308427","0.0-282.0","3TAYZSBPLMUIBA41M4RGIMO9VOQ2SU","A1F8MH33EFT5VQ","3L1EFR8WWTRIL5MKAR1UWRHK4IC9FJ","","null","<img src=""img/flower2.png"" style=""width:200px; border:14px solid green;"">","null","","","","","","","","",""
"","image-keyboard-response","283","309168","0.0-283.0","3TAYZSBPLMUIBA41M4RGIMO9VOQ2SU","A1F8MH33EFT5VQ","3L1EFR8WWTRIL5MKAR1UWRHK4IC9FJ","","738.5999999977648","img/flower4.png","74","740","1","1","3","2","1,0,0,1,1,0,1,0,1","0,1,0,0,1,1,1,1,0","3",""
"","html-keyboard-response","284","309470","0.0-284.0","3TAYZSBPLMUIBA41M4RGIMO9VOQ2SU","A1F8MH33EFT5VQ","3L1EFR8WWTRIL5MKAR1UWRHK4IC9FJ","","null","<img src=""img/flower4.png"" style=""width:200px; border:14px solid green;"">","null","","","","","","","","",""
"","image-keyboard-response","285","310402","0.0-285.0","3TAYZSBPLMUIBA41M4RGIMO9VOQ2SU","A1F8MH33EFT5VQ","3L1EFR8WWTRIL5MKAR1UWRHK4IC9FJ","","930.0999999977648","img/flower2.png","75","931.6999999992549","2","1","2","2","1,0,0,1,1,0,1,0,1","0,1,0,0,1,1,1,1,0","3",""
"","html-keyboard-response","286","310704","0.0-286.0","3TAYZSBPLMUIBA41M4RGIMO9VOQ2SU","A1F8MH33EFT5VQ","3L1EFR8WWTRIL5MKAR1UWRHK4IC9FJ","","null","<img src=""img/flower2.png"" style=""width:200px; border:14px solid green;"">","null","","","","","","","","",""
"","image-keyboard-response","287","311975","0.0-287.0","3TAYZSBPLMUIBA41M4RGIMO9VOQ2SU","A1F8MH33EFT5VQ","3L1EFR8WWTRIL5MKAR1UWRHK4IC9FJ","","1269.3999999985099","img/flower4.png","74","1270.6000000014901","1","1","3","2","1,0,0,1,1,0,1,0,1","0,1,0,0,1,1,1,1,0","3",""
"","html-keyboard-response","288","312276","0.0-288.0","3TAYZSBPLMUIBA41M4RGIMO9VOQ2SU","A1F8MH33EFT5VQ","3L1EFR8WWTRIL5MKAR1UWRHK4IC9FJ","","null","<img src=""img/flower4.png"" style=""width:200px; border:14px solid green;"">","null","","","","","","","","",""
"","image-keyboard-response","289","313037","0.0-289.0","3TAYZSBPLMUIBA41M4RGIMO9VOQ2SU","A1F8MH33EFT5VQ","3L1EFR8WWTRIL5MKAR1UWRHK4IC9FJ","","759.2000000029802","img/flower5.png","75","760.1999999992549","2","1","1","2","1,0,0,1,1,0,1,0,1","0,1,0,0,1,1,1,1,0","3",""
"","html-keyboard-response","290","313338","0.0-290.0","3TAYZSBPLMUIBA41M4RGIMO9VOQ2SU","A1F8MH33EFT5VQ","3L1EFR8WWTRIL5MKAR1UWRHK4IC9FJ","","null","<img src=""img/flower5.png"" style=""width:200px; border:14px solid green;"">","null","","","","","","","","",""
"","image-keyboard-response","291","313997","0.0-291.0","3TAYZSBPLMUIBA41M4RGIMO9VOQ2SU","A1F8MH33EFT5VQ","3L1EFR8WWTRIL5MKAR1UWRHK4IC9FJ","","657.4000000022352","img/flower5.png","75","658.5","2","1","1","2","1,0,0,1,1,0,1,0,1","0,1,0,0,1,1,1,1,0","3",""
"","html-keyboard-response","292","314300","0.0-292.0","3TAYZSBPLMUIBA41M4RGIMO9VOQ2SU","A1F8MH33EFT5VQ","3L1EFR8WWTRIL5MKAR1UWRHK4IC9FJ","","null","<img src=""img/flower5.png"" style=""width:200px; border:14px solid green;"">","null","","","","","","","","",""
"","image-keyboard-response","293","315266","0.0-293.0","3TAYZSBPLMUIBA41M4RGIMO9VOQ2SU","A1F8MH33EFT5VQ","3L1EFR8WWTRIL5MKAR1UWRHK4IC9FJ","","964.3000000007451","img/flower2.png","74","965.6999999992549","1","0","2","2","1,0,0,1,1,0,1,0,1","0,1,0,0,1,1,1,1,0","3",""
"","html-keyboard-response","294","315567","0.0-294.0","3TAYZSBPLMUIBA41M4RGIMO9VOQ2SU","A1F8MH33EFT5VQ","3L1EFR8WWTRIL5MKAR1UWRHK4IC9FJ","","null","<img src=""img/flower2.png"" style=""width:200px;border:14px solid red;"">","null","","","","","","","","",""
"","image-keyboard-response","295","316694","0.0-295.0","3TAYZSBPLMUIBA41M4RGIMO9VOQ2SU","A1F8MH33EFT5VQ","3L1EFR8WWTRIL5MKAR1UWRHK4IC9FJ","","1125.1000000014901","img/flower5.png","75","1126.1000000014901","2","1","1","2","1,0,0,1,1,0,1,0,1","0,1,0,0,1,1,1,1,0","3",""
"","html-keyboard-response","296","316995","0.0-296.0","3TAYZSBPLMUIBA41M4RGIMO9VOQ2SU","A1F8MH33EFT5VQ","3L1EFR8WWTRIL5MKAR1UWRHK4IC9FJ","","null","<img src=""img/flower5.png"" style=""width:200px; border:14px solid green;"">","null","","","","","","","","",""
"","image-keyboard-response","297","317863","0.0-297.0","3TAYZSBPLMUIBA41M4RGIMO9VOQ2SU","A1F8MH33EFT5VQ","3L1EFR8WWTRIL5MKAR1UWRHK4IC9FJ","","865.6000000014901","img/flower4.png","74","866.8000000007451","1","1","3","2","1,0,0,1,1,0,1,0,1","0,1,0,0,1,1,1,1,0","3",""
"","html-keyboard-response","298","318165","0.0-298.0","3TAYZSBPLMUIBA41M4RGIMO9VOQ2SU","A1F8MH33EFT5VQ","3L1EFR8WWTRIL5MKAR1UWRHK4IC9FJ","","null","<img src=""img/flower4.png"" style=""width:200px; border:14px solid green;"">","null","","","","","","","","",""
"","image-keyboard-response","299","319166","0.0-299.0","3TAYZSBPLMUIBA41M4RGIMO9VOQ2SU","A1F8MH33EFT5VQ","3L1EFR8WWTRIL5MKAR1UWRHK4IC9FJ","","999.9000000022352","img/flower5.png","74","1001.3000000007451","1","0","1","2","1,0,0,1,1,0,1,0,1","0,1,0,0,1,1,1,1,0","3",""
"","html-keyboard-response","300","319468","0.0-300.0","3TAYZSBPLMUIBA41M4RGIMO9VOQ2SU","A1F8MH33EFT5VQ","3L1EFR8WWTRIL5MKAR1UWRHK4IC9FJ","","null","<img src=""img/flower5.png"" style=""width:200px;border:14px solid red;"">","null","","","","","","","","",""
"","image-keyboard-response","301","320165","0.0-301.0","3TAYZSBPLMUIBA41M4RGIMO9VOQ2SU","A1F8MH33EFT5VQ","3L1EFR8WWTRIL5MKAR1UWRHK4IC9FJ","","695.3000000007451","img/flower4.png","74","696.6000000014901","1","1","3","2","1,0,0,1,1,0,1,0,1","0,1,0,0,1,1,1,1,0","3",""
"","html-keyboard-response","302","320469","0.0-302.0","3TAYZSBPLMUIBA41M4RGIMO9VOQ2SU","A1F8MH33EFT5VQ","3L1EFR8WWTRIL5MKAR1UWRHK4IC9FJ","","null","<img src=""img/flower4.png"" style=""width:200px; border:14px solid green;"">","null","","","","","","","","",""
"","image-keyboard-response","303","321113","0.0-303.0","3TAYZSBPLMUIBA41M4RGIMO9VOQ2SU","A1F8MH33EFT5VQ","3L1EFR8WWTRIL5MKAR1UWRHK4IC9FJ","","642.8999999985099","img/flower4.png","74","644.1999999992549","1","1","3","2","1,0,0,1,1,0,1,0,1","0,1,0,0,1,1,1,1,0","3",""
"","html-keyboard-response","304","321415","0.0-304.0","3TAYZSBPLMUIBA41M4RGIMO9VOQ2SU","A1F8MH33EFT5VQ","3L1EFR8WWTRIL5MKAR1UWRHK4IC9FJ","","null","<img src=""img/flower4.png"" style=""width:200px; border:14px solid green;"">","null","","","","","","","","",""
"","image-keyboard-response","305","322376","0.0-305.0","3TAYZSBPLMUIBA41M4RGIMO9VOQ2SU","A1F8MH33EFT5VQ","3L1EFR8WWTRIL5MKAR1UWRHK4IC9FJ","","959.6999999992549","img/flower2.png","76","961.3000000007451","3","1","2","2","1,0,0,1,1,0,1,0,1","0,1,0,0,1,1,1,1,0","3",""
"","html-keyboard-response","306","322679","0.0-306.0","3TAYZSBPLMUIBA41M4RGIMO9VOQ2SU","A1F8MH33EFT5VQ","3L1EFR8WWTRIL5MKAR1UWRHK4IC9FJ","","null","<img src=""img/flower2.png"" style=""width:200px; border:14px solid green;"">","null","","","","","","","","",""
"","image-keyboard-response","307","323416","0.0-307.0","3TAYZSBPLMUIBA41M4RGIMO9VOQ2SU","A1F8MH33EFT5VQ","3L1EFR8WWTRIL5MKAR1UWRHK4IC9FJ","","735.3999999985099","img/flower5.png","75","737.1000000014901","2","1","1","2","1,0,0,1,1,0,1,0,1","0,1,0,0,1,1,1,1,0","3",""
"","html-keyboard-response","308","323719","0.0-308.0","3TAYZSBPLMUIBA41M4RGIMO9VOQ2SU","A1F8MH33EFT5VQ","3L1EFR8WWTRIL5MKAR1UWRHK4IC9FJ","","null","<img src=""img/flower5.png"" style=""width:200px; border:14px solid green;"">","null","","","","","","","","",""
"","image-keyboard-response","309","324549","0.0-309.0","3TAYZSBPLMUIBA41M4RGIMO9VOQ2SU","A1F8MH33EFT5VQ","3L1EFR8WWTRIL5MKAR1UWRHK4IC9FJ","","828.2000000029802","img/flower5.png","75","829.5","2","1","1","2","1,0,0,1,1,0,1,0,1","0,1,0,0,1,1,1,1,0","3",""
"","html-keyboard-response","310","324851","0.0-310.0","3TAYZSBPLMUIBA41M4RGIMO9VOQ2SU","A1F8MH33EFT5VQ","3L1EFR8WWTRIL5MKAR1UWRHK4IC9FJ","","null","<img src=""img/flower5.png"" style=""width:200px; border:14px solid green;"">","null","","","","","","","","",""
"","image-keyboard-response","311","325533","0.0-311.0","3TAYZSBPLMUIBA41M4RGIMO9VOQ2SU","A1F8MH33EFT5VQ","3L1EFR8WWTRIL5MKAR1UWRHK4IC9FJ","","680.7000000029802","img/flower5.png","75","681.8999999985099","2","1","1","2","1,0,0,1,1,0,1,0,1","0,1,0,0,1,1,1,1,0","3",""
"","html-keyboard-response","312","325835","0.0-312.0","3TAYZSBPLMUIBA41M4RGIMO9VOQ2SU","A1F8MH33EFT5VQ","3L1EFR8WWTRIL5MKAR1UWRHK4IC9FJ","","null","<img src=""img/flower5.png"" style=""width:200px; border:14px solid green;"">","null","","","","","","","","",""
"","image-keyboard-response","313","327006","0.0-313.0","3TAYZSBPLMUIBA41M4RGIMO9VOQ2SU","A1F8MH33EFT5VQ","3L1EFR8WWTRIL5MKAR1UWRHK4IC9FJ","","1169.5","img/flower2.png","76","1170.6000000014901","3","1","2","2","1,0,0,1,1,0,1,0,1","0,1,0,0,1,1,1,1,0","3",""
"","html-keyboard-response","314","327308","0.0-314.0","3TAYZSBPLMUIBA41M4RGIMO9VOQ2SU","A1F8MH33EFT5VQ","3L1EFR8WWTRIL5MKAR1UWRHK4IC9FJ","","null","<img src=""img/flower2.png"" style=""width:200px; border:14px solid green;"">","null","","","","","","","","",""
"","image-keyboard-response","315","328025","0.0-315.0","3TAYZSBPLMUIBA41M4RGIMO9VOQ2SU","A1F8MH33EFT5VQ","3L1EFR8WWTRIL5MKAR1UWRHK4IC9FJ","","716","img/flower4.png","74","717.1999999992549","1","1","3","2","1,0,0,1,1,0,1,0,1","0,1,0,0,1,1,1,1,0","3",""
"","html-keyboard-response","316","328329","0.0-316.0","3TAYZSBPLMUIBA41M4RGIMO9VOQ2SU","A1F8MH33EFT5VQ","3L1EFR8WWTRIL5MKAR1UWRHK4IC9FJ","","null","<img src=""img/flower4.png"" style=""width:200px; border:14px solid green;"">","null","","","","","","","","",""
"","image-keyboard-response","317","329040","0.0-317.0","3TAYZSBPLMUIBA41M4RGIMO9VOQ2SU","A1F8MH33EFT5VQ","3L1EFR8WWTRIL5MKAR1UWRHK4IC9FJ","","709.3000000007451","img/flower2.png","76","710.6000000014901","3","1","2","2","1,0,0,1,1,0,1,0,1","0,1,0,0,1,1,1,1,0","3",""
"","html-keyboard-response","318","329342","0.0-318.0","3TAYZSBPLMUIBA41M4RGIMO9VOQ2SU","A1F8MH33EFT5VQ","3L1EFR8WWTRIL5MKAR1UWRHK4IC9FJ","","null","<img src=""img/flower2.png"" style=""width:200px; border:14px solid green;"">","null","","","","","","","","",""
"","image-keyboard-response","319","330012","0.0-319.0","3TAYZSBPLMUIBA41M4RGIMO9VOQ2SU","A1F8MH33EFT5VQ","3L1EFR8WWTRIL5MKAR1UWRHK4IC9FJ","","668.8999999985099","img/flower4.png","74","669.8999999985099","1","1","3","2","1,0,0,1,1,0,1,0,1","0,1,0,0,1,1,1,1,0","3",""
"","html-keyboard-response","320","330314","0.0-320.0","3TAYZSBPLMUIBA41M4RGIMO9VOQ2SU","A1F8MH33EFT5VQ","3L1EFR8WWTRIL5MKAR1UWRHK4IC9FJ","","null","<img src=""img/flower4.png"" style=""width:200px; border:14px solid green;"">","null","","","","","","","","",""
"","image-keyboard-response","321","330906","0.0-321.0","3TAYZSBPLMUIBA41M4RGIMO9VOQ2SU","A1F8MH33EFT5VQ","3L1EFR8WWTRIL5MKAR1UWRHK4IC9FJ","","590.6999999992549","img/flower2.png","76","592","3","1","2","2","1,0,0,1,1,0,1,0,1","0,1,0,0,1,1,1,1,0","3",""
"","html-keyboard-response","322","331208","0.0-322.0","3TAYZSBPLMUIBA41M4RGIMO9VOQ2SU","A1F8MH33EFT5VQ","3L1EFR8WWTRIL5MKAR1UWRHK4IC9FJ","","null","<img src=""img/flower2.png"" style=""width:200px; border:14px solid green;"">","null","","","","","","","","",""
"","image-keyboard-response","323","331952","0.0-323.0","3TAYZSBPLMUIBA41M4RGIMO9VOQ2SU","A1F8MH33EFT5VQ","3L1EFR8WWTRIL5MKAR1UWRHK4IC9FJ","","742.3999999985099","img/flower5.png","75","743.6999999992549","2","1","1","2","1,0,0,1,1,0,1,0,1","0,1,0,0,1,1,1,1,0","3",""
"","html-keyboard-response","324","332254","0.0-324.0","3TAYZSBPLMUIBA41M4RGIMO9VOQ2SU","A1F8MH33EFT5VQ","3L1EFR8WWTRIL5MKAR1UWRHK4IC9FJ","","null","<img src=""img/flower5.png"" style=""width:200px; border:14px solid green;"">","null","","","","","","","","",""
"","image-keyboard-response","325","333399","0.0-325.0","3TAYZSBPLMUIBA41M4RGIMO9VOQ2SU","A1F8MH33EFT5VQ","3L1EFR8WWTRIL5MKAR1UWRHK4IC9FJ","","1143","img/flower2.png","76","1144.300000000745","3","1","2","2","1,0,0,1,1,0,1,0,1","0,1,0,0,1,1,1,1,0","3",""
"","html-keyboard-response","326","333701","0.0-326.0","3TAYZSBPLMUIBA41M4RGIMO9VOQ2SU","A1F8MH33EFT5VQ","3L1EFR8WWTRIL5MKAR1UWRHK4IC9FJ","","null","<img src=""img/flower2.png"" style=""width:200px; border:14px solid green;"">","null","","","","","","","","",""
"","image-keyboard-response","327","334287","0.0-327.0","3TAYZSBPLMUIBA41M4RGIMO9VOQ2SU","A1F8MH33EFT5VQ","3L1EFR8WWTRIL5MKAR1UWRHK4IC9FJ","","584.8999999985099","img/flower5.png","74","586.0999999977648","1","0","1","2","1,0,0,1,1,0,1,0,1","0,1,0,0,1,1,1,1,0","3",""
"","html-keyboard-response","328","334590","0.0-328.0","3TAYZSBPLMUIBA41M4RGIMO9VOQ2SU","A1F8MH33EFT5VQ","3L1EFR8WWTRIL5MKAR1UWRHK4IC9FJ","","null","<img src=""img/flower5.png"" style=""width:200px;border:14px solid red;"">","null","","","","","","","","",""
"","image-keyboard-response","329","335227","0.0-329.0","3TAYZSBPLMUIBA41M4RGIMO9VOQ2SU","A1F8MH33EFT5VQ","3L1EFR8WWTRIL5MKAR1UWRHK4IC9FJ","","635.5","img/flower4.png","74","636.8999999985099","1","1","3","2","1,0,0,1,1,0,1,0,1","0,1,0,0,1,1,1,1,0","3",""
"","html-keyboard-response","330","335529","0.0-330.0","3TAYZSBPLMUIBA41M4RGIMO9VOQ2SU","A1F8MH33EFT5VQ","3L1EFR8WWTRIL5MKAR1UWRHK4IC9FJ","","null","<img src=""img/flower4.png"" style=""width:200px; border:14px solid green;"">","null","","","","","","","","",""
"","image-keyboard-response","331","336654","0.0-331.0","3TAYZSBPLMUIBA41M4RGIMO9VOQ2SU","A1F8MH33EFT5VQ","3L1EFR8WWTRIL5MKAR1UWRHK4IC9FJ","","1123.3999999985099","img/flower5.png","76","1124.300000000745","3","0","1","2","1,0,0,1,1,0,1,0,1","0,1,0,0,1,1,1,1,0","3",""
"","html-keyboard-response","332","336956","0.0-332.0","3TAYZSBPLMUIBA41M4RGIMO9VOQ2SU","A1F8MH33EFT5VQ","3L1EFR8WWTRIL5MKAR1UWRHK4IC9FJ","","null","<img src=""img/flower5.png"" style=""width:200px;border:14px solid red;"">","null","","","","","","","","",""
"","image-keyboard-response","333","337734","0.0-333.0","3TAYZSBPLMUIBA41M4RGIMO9VOQ2SU","A1F8MH33EFT5VQ","3L1EFR8WWTRIL5MKAR1UWRHK4IC9FJ","","777.0999999977648","img/flower4.png","74","778.3999999985099","1","1","3","2","1,0,0,1,1,0,1,0,1","0,1,0,0,1,1,1,1,0","3",""
"","html-keyboard-response","334","338036","0.0-334.0","3TAYZSBPLMUIBA41M4RGIMO9VOQ2SU","A1F8MH33EFT5VQ","3L1EFR8WWTRIL5MKAR1UWRHK4IC9FJ","","null","<img src=""img/flower4.png"" style=""width:200px; border:14px solid green;"">","null","","","","","","","","",""
"","image-keyboard-response","335","338673","0.0-335.0","3TAYZSBPLMUIBA41M4RGIMO9VOQ2SU","A1F8MH33EFT5VQ","3L1EFR8WWTRIL5MKAR1UWRHK4IC9FJ","","635.3000000007451","img/flower5.png","75","636.6999999992549","2","1","1","2","1,0,0,1,1,0,1,0,1","0,1,0,0,1,1,1,1,0","3",""
"","html-keyboard-response","336","338975","0.0-336.0","3TAYZSBPLMUIBA41M4RGIMO9VOQ2SU","A1F8MH33EFT5VQ","3L1EFR8WWTRIL5MKAR1UWRHK4IC9FJ","","null","<img src=""img/flower5.png"" style=""width:200px; border:14px solid green;"">","null","","","","","","","","",""
"","image-keyboard-response","337","339707","0.0-337.0","3TAYZSBPLMUIBA41M4RGIMO9VOQ2SU","A1F8MH33EFT5VQ","3L1EFR8WWTRIL5MKAR1UWRHK4IC9FJ","","730.3000000007451","img/flower4.png","74","731.6000000014901","1","1","3","2","1,0,0,1,1,0,1,0,1","0,1,0,0,1,1,1,1,0","3",""
"","html-keyboard-response","338","340009","0.0-338.0","3TAYZSBPLMUIBA41M4RGIMO9VOQ2SU","A1F8MH33EFT5VQ","3L1EFR8WWTRIL5MKAR1UWRHK4IC9FJ","","null","<img src=""img/flower4.png"" style=""width:200px; border:14px solid green;"">","null","","","","","","","","",""
"","image-keyboard-response","339","340655","0.0-339.0","3TAYZSBPLMUIBA41M4RGIMO9VOQ2SU","A1F8MH33EFT5VQ","3L1EFR8WWTRIL5MKAR1UWRHK4IC9FJ","","644.3999999985099","img/flower4.png","74","645.6999999992549","1","1","3","2","1,0,0,1,1,0,1,0,1","0,1,0,0,1,1,1,1,0","3",""
"","html-keyboard-response","340","340957","0.0-340.0","3TAYZSBPLMUIBA41M4RGIMO9VOQ2SU","A1F8MH33EFT5VQ","3L1EFR8WWTRIL5MKAR1UWRHK4IC9FJ","","null","<img src=""img/flower4.png"" style=""width:200px; border:14px solid green;"">","null","","","","","","","","",""
"","image-keyboard-response","341","342663","0.0-341.0","3TAYZSBPLMUIBA41M4RGIMO9VOQ2SU","A1F8MH33EFT5VQ","3L1EFR8WWTRIL5MKAR1UWRHK4IC9FJ","","1704.199999999255","img/flower5.png","76","1705.3999999985099","3","0","1","2","1,0,0,1,1,0,1,0,1","0,1,0,0,1,1,1,1,0","3",""
"","html-keyboard-response","342","342965","0.0-342.0","3TAYZSBPLMUIBA41M4RGIMO9VOQ2SU","A1F8MH33EFT5VQ","3L1EFR8WWTRIL5MKAR1UWRHK4IC9FJ","","null","<img src=""img/flower5.png"" style=""width:200px;border:14px solid red;"">","null","","","","","","","","",""
"","image-keyboard-response","343","343811","0.0-343.0","3TAYZSBPLMUIBA41M4RGIMO9VOQ2SU","A1F8MH33EFT5VQ","3L1EFR8WWTRIL5MKAR1UWRHK4IC9FJ","","844.9000000022352","img/flower2.png","75","846.1999999992549","2","1","2","2","1,0,0,1,1,0,1,0,1","0,1,0,0,1,1,1,1,0","3",""
"","html-keyboard-response","344","344114","0.0-344.0","3TAYZSBPLMUIBA41M4RGIMO9VOQ2SU","A1F8MH33EFT5VQ","3L1EFR8WWTRIL5MKAR1UWRHK4IC9FJ","","null","<img src=""img/flower2.png"" style=""width:200px; border:14px solid green;"">","null","","","","","","","","",""
"","image-keyboard-response","345","344700","0.0-345.0","3TAYZSBPLMUIBA41M4RGIMO9VOQ2SU","A1F8MH33EFT5VQ","3L1EFR8WWTRIL5MKAR1UWRHK4IC9FJ","","584.0999999977648","img/flower2.png","75","585.0999999977648","2","1","2","2","1,0,0,1,1,0,1,0,1","0,1,0,0,1,1,1,1,0","3",""
"","html-keyboard-response","346","345002","0.0-346.0","3TAYZSBPLMUIBA41M4RGIMO9VOQ2SU","A1F8MH33EFT5VQ","3L1EFR8WWTRIL5MKAR1UWRHK4IC9FJ","","null","<img src=""img/flower2.png"" style=""width:200px; border:14px solid green;"">","null","","","","","","","","",""
"","image-keyboard-response","347","345703","0.0-347.0","3TAYZSBPLMUIBA41M4RGIMO9VOQ2SU","A1F8MH33EFT5VQ","3L1EFR8WWTRIL5MKAR1UWRHK4IC9FJ","","700","img/flower2.png","75","701.1999999992549","2","1","2","2","1,0,0,1,1,0,1,0,1","0,1,0,0,1,1,1,1,0","3",""
"","html-keyboard-response","348","346005","0.0-348.0","3TAYZSBPLMUIBA41M4RGIMO9VOQ2SU","A1F8MH33EFT5VQ","3L1EFR8WWTRIL5MKAR1UWRHK4IC9FJ","","null","<img src=""img/flower2.png"" style=""width:200px; border:14px solid green;"">","null","","","","","","","","",""
"","image-keyboard-response","349","346568","0.0-349.0","3TAYZSBPLMUIBA41M4RGIMO9VOQ2SU","A1F8MH33EFT5VQ","3L1EFR8WWTRIL5MKAR1UWRHK4IC9FJ","","562","img/flower2.png","75","563.2000000029802","2","1","2","2","1,0,0,1,1,0,1,0,1","0,1,0,0,1,1,1,1,0","3",""
"","html-keyboard-response","350","346870","0.0-350.0","3TAYZSBPLMUIBA41M4RGIMO9VOQ2SU","A1F8MH33EFT5VQ","3L1EFR8WWTRIL5MKAR1UWRHK4IC9FJ","","null","<img src=""img/flower2.png"" style=""width:200px; border:14px solid green;"">","null","","","","","","","","",""
"","image-keyboard-response","351","347502","0.0-351.0","3TAYZSBPLMUIBA41M4RGIMO9VOQ2SU","A1F8MH33EFT5VQ","3L1EFR8WWTRIL5MKAR1UWRHK4IC9FJ","","630.1000000014901","img/flower2.png","75","631.1999999992549","2","1","2","2","1,0,0,1,1,0,1,0,1","0,1,0,0,1,1,1,1,0","3",""
"","html-keyboard-response","352","347804","0.0-352.0","3TAYZSBPLMUIBA41M4RGIMO9VOQ2SU","A1F8MH33EFT5VQ","3L1EFR8WWTRIL5MKAR1UWRHK4IC9FJ","","null","<img src=""img/flower2.png"" style=""width:200px; border:14px solid green;"">","null","","","","","","","","",""
"","image-keyboard-response","353","348621","0.0-353.0","3TAYZSBPLMUIBA41M4RGIMO9VOQ2SU","A1F8MH33EFT5VQ","3L1EFR8WWTRIL5MKAR1UWRHK4IC9FJ","","814.8000000007451","img/flower5.png","76","816.1000000014901","3","0","1","2","1,0,0,1,1,0,1,0,1","0,1,0,0,1,1,1,1,0","3",""
"","html-keyboard-response","354","348922","0.0-354.0","3TAYZSBPLMUIBA41M4RGIMO9VOQ2SU","A1F8MH33EFT5VQ","3L1EFR8WWTRIL5MKAR1UWRHK4IC9FJ","","null","<img src=""img/flower5.png"" style=""width:200px;border:14px solid red;"">","null","","","","","","","","",""
"","image-keyboard-response","355","350119","0.0-355.0","3TAYZSBPLMUIBA41M4RGIMO9VOQ2SU","A1F8MH33EFT5VQ","3L1EFR8WWTRIL5MKAR1UWRHK4IC9FJ","","1195.3999999985099","img/flower2.png","75","1196.6000000014901","2","1","2","2","1,0,0,1,1,0,1,0,1","0,1,0,0,1,1,1,1,0","3",""
"","html-keyboard-response","356","350421","0.0-356.0","3TAYZSBPLMUIBA41M4RGIMO9VOQ2SU","A1F8MH33EFT5VQ","3L1EFR8WWTRIL5MKAR1UWRHK4IC9FJ","","null","<img src=""img/flower2.png"" style=""width:200px; border:14px solid green;"">","null","","","","","","","","",""
"","image-keyboard-response","357","351062","0.0-357.0","3TAYZSBPLMUIBA41M4RGIMO9VOQ2SU","A1F8MH33EFT5VQ","3L1EFR8WWTRIL5MKAR1UWRHK4IC9FJ","","639.6999999992549","img/flower4.png","74","640.8000000007451","1","1","3","2","1,0,0,1,1,0,1,0,1","0,1,0,0,1,1,1,1,0","3",""
"","html-keyboard-response","358","351363","0.0-358.0","3TAYZSBPLMUIBA41M4RGIMO9VOQ2SU","A1F8MH33EFT5VQ","3L1EFR8WWTRIL5MKAR1UWRHK4IC9FJ","","null","<img src=""img/flower4.png"" style=""width:200px; border:14px solid green;"">","null","","","","","","","","",""
"","image-keyboard-response","359","352561","0.0-359.0","3TAYZSBPLMUIBA41M4RGIMO9VOQ2SU","A1F8MH33EFT5VQ","3L1EFR8WWTRIL5MKAR1UWRHK4IC9FJ","","1196.5","img/flower5.png","74","1197.800000000745","1","0","1","2","1,0,0,1,1,0,1,0,1","0,1,0,0,1,1,1,1,0","3",""
"","html-keyboard-response","360","352873","0.0-360.0","3TAYZSBPLMUIBA41M4RGIMO9VOQ2SU","A1F8MH33EFT5VQ","3L1EFR8WWTRIL5MKAR1UWRHK4IC9FJ","","null","<img src=""img/flower5.png"" style=""width:200px;border:14px solid red;"">","null","","","","","","","","",""
"","image-keyboard-response","361","354228","0.0-361.0","3TAYZSBPLMUIBA41M4RGIMO9VOQ2SU","A1F8MH33EFT5VQ","3L1EFR8WWTRIL5MKAR1UWRHK4IC9FJ","","1354.1000000014901","img/flower5.png","75","1355.5","2","1","1","2","1,0,0,1,1,0,1,0,1","0,1,0,0,1,1,1,1,0","3",""
"","html-keyboard-response","362","354531","0.0-362.0","3TAYZSBPLMUIBA41M4RGIMO9VOQ2SU","A1F8MH33EFT5VQ","3L1EFR8WWTRIL5MKAR1UWRHK4IC9FJ","","null","<img src=""img/flower5.png"" style=""width:200px; border:14px solid green;"">","null","","","","","","","","",""
"","instructions","363","365369","0.0-363.0","3TAYZSBPLMUIBA41M4RGIMO9VOQ2SU","A1F8MH33EFT5VQ","3L1EFR8WWTRIL5MKAR1UWRHK4IC9FJ","[{""page_index"":0,""viewing_time"":10837.300000000745}]","10837.5","","","","","","","","","","",""
"","survey-text","364","394546","0.0-364.0","3TAYZSBPLMUIBA41M4RGIMO9VOQ2SU","A1F8MH33EFT5VQ","3L1EFR8WWTRIL5MKAR1UWRHK4IC9FJ","","29172.39999999851","","","","","","","","","","","{""Q0"":""A1F8MH33EFT5VQ""}"
