"success","trial_type","trial_index","time_elapsed","internal_node_id","assignmentID","mturkID","hitID","view_history","rt","stimulus","key_press","reactionTime","a","r","s","cond","reward_cond","reward_cond_actual","reward_matrix_idx","responses"
"true","fullscreen","0","2273","0.0-0.0","3FFJ6VRIL2AMLMYR25TOVWP7PL10IZ","A1FKK1Q8C3BAE5","3HUR21WDDUBEMSLDIXZW1FAIHW8YX3","","","","","","","","","","","","",""
"","instructions","1","10345","0.0-1.0","3FFJ6VRIL2AMLMYR25TOVWP7PL10IZ","A1FKK1Q8C3BAE5","3HUR21WDDUBEMSLDIXZW1FAIHW8YX3","[{""page_index"":0,""viewing_time"":1093},{""page_index"":1,""viewing_time"":994},{""page_index"":2,""viewing_time"":630},{""page_index"":3,""viewing_time"":504},{""page_index"":4,""viewing_time"":1232},{""page_index"":5,""viewing_time"":1258},{""page_index"":6,""viewing_time"":1127},{""page_index"":7,""viewing_time"":1228}]","8067","","","","","","","","","","",""
"","image-keyboard-response","2","12145","0.0-2.0","3FFJ6VRIL2AMLMYR25TOVWP7PL10IZ","A1FKK1Q8C3BAE5","3HUR21WDDUBEMSLDIXZW1FAIHW8YX3","","1795","img/flower3.png","75","1799","2","1","3","2","1,0,0,1,1,0,1,0,1","0,0,1,1,0,1,0,1,1","2",""
"","html-keyboard-response","3","12450","0.0-3.0","3FFJ6VRIL2AMLMYR25TOVWP7PL10IZ","A1FKK1Q8C3BAE5","3HUR21WDDUBEMSLDIXZW1FAIHW8YX3","","null","<img src=""img/flower3.png"" style=""width:200px; border:14px solid green;"">","null","","","","","","","","",""
"","image-keyboard-response","4","12605","0.0-4.0","3FFJ6VRIL2AMLMYR25TOVWP7PL10IZ","A1FKK1Q8C3BAE5","3HUR21WDDUBEMSLDIXZW1FAIHW8YX3","","153","img/flower5.png","75","154","2","0","2","2","1,0,0,1,1,0,1,0,1","0,0,1,1,0,1,0,1,1","2",""
"","html-keyboard-response","5","12909","0.0-5.0","3FFJ6VRIL2AMLMYR25TOVWP7PL10IZ","A1FKK1Q8C3BAE5","3HUR21WDDUBEMSLDIXZW1FAIHW8YX3","","null","<img src=""img/flower5.png"" style=""width:200px;border:14px solid red;"">","null","","","","","","","","",""
"","image-keyboard-response","6","13036","0.0-6.0","3FFJ6VRIL2AMLMYR25TOVWP7PL10IZ","A1FKK1Q8C3BAE5","3HUR21WDDUBEMSLDIXZW1FAIHW8YX3","","125","img/flower2.png","75","125","2","0","1","2","1,0,0,1,1,0,1,0,1","0,0,1,1,0,1,0,1,1","2",""
"","html-keyboard-response","7","13339","0.0-7.0","3FFJ6VRIL2AMLMYR25TOVWP7PL10IZ","A1FKK1Q8C3BAE5","3HUR21WDDUBEMSLDIXZW1FAIHW8YX3","","null","<img src=""img/flower2.png"" style=""width:200px;border:14px solid red;"">","null","","","","","","","","",""
"","image-keyboard-response","8","13429","0.0-8.0","3FFJ6VRIL2AMLMYR25TOVWP7PL10IZ","A1FKK1Q8C3BAE5","3HUR21WDDUBEMSLDIXZW1FAIHW8YX3","","87","img/flower2.png","74","89","1","0","1","2","1,0,0,1,1,0,1,0,1","0,0,1,1,0,1,0,1,1","2",""
"","html-keyboard-response","9","13731","0.0-9.0","3FFJ6VRIL2AMLMYR25TOVWP7PL10IZ","A1FKK1Q8C3BAE5","3HUR21WDDUBEMSLDIXZW1FAIHW8YX3","","null","<img src=""img/flower2.png"" style=""width:200px;border:14px solid red;"">","null","","","","","","","","",""
"","image-keyboard-response","10","13898","0.0-10.0","3FFJ6VRIL2AMLMYR25TOVWP7PL10IZ","A1FKK1Q8C3BAE5","3HUR21WDDUBEMSLDIXZW1FAIHW8YX3","","164","img/flower3.png","75","166","2","1","3","2","1,0,0,1,1,0,1,0,1","0,0,1,1,0,1,0,1,1","2",""
"","html-keyboard-response","11","14202","0.0-11.0","3FFJ6VRIL2AMLMYR25TOVWP7PL10IZ","A1FKK1Q8C3BAE5","3HUR21WDDUBEMSLDIXZW1FAIHW8YX3","","null","<img src=""img/flower3.png"" style=""width:200px; border:14px solid green;"">","null","","","","","","","","",""
"","image-keyboard-response","12","14392","0.0-12.0","3FFJ6VRIL2AMLMYR25TOVWP7PL10IZ","A1FKK1Q8C3BAE5","3HUR21WDDUBEMSLDIXZW1FAIHW8YX3","","188","img/flower3.png","76","189","3","1","3","2","1,0,0,1,1,0,1,0,1","0,0,1,1,0,1,0,1,1","2",""
"","html-keyboard-response","13","14696","0.0-13.0","3FFJ6VRIL2AMLMYR25TOVWP7PL10IZ","A1FKK1Q8C3BAE5","3HUR21WDDUBEMSLDIXZW1FAIHW8YX3","","null","<img src=""img/flower3.png"" style=""width:200px; border:14px solid green;"">","null","","","","","","","","",""
"","image-keyboard-response","14","14880","0.0-14.0","3FFJ6VRIL2AMLMYR25TOVWP7PL10IZ","A1FKK1Q8C3BAE5","3HUR21WDDUBEMSLDIXZW1FAIHW8YX3","","180","img/flower3.png","76","182","3","1","3","2","1,0,0,1,1,0,1,0,1","0,0,1,1,0,1,0,1,1","2",""
"","html-keyboard-response","15","15189","0.0-15.0","3FFJ6VRIL2AMLMYR25TOVWP7PL10IZ","A1FKK1Q8C3BAE5","3HUR21WDDUBEMSLDIXZW1FAIHW8YX3","","null","<img src=""img/flower3.png"" style=""width:200px; border:14px solid green;"">","null","","","","","","","","",""
"","image-keyboard-response","16","15391","0.0-16.0","3FFJ6VRIL2AMLMYR25TOVWP7PL10IZ","A1FKK1Q8C3BAE5","3HUR21WDDUBEMSLDIXZW1FAIHW8YX3","","200","img/flower2.png","76","201","3","1","1","2","1,0,0,1,1,0,1,0,1","0,0,1,1,0,1,0,1,1","2",""
"","html-keyboard-response","17","15696","0.0-17.0","3FFJ6VRIL2AMLMYR25TOVWP7PL10IZ","A1FKK1Q8C3BAE5","3HUR21WDDUBEMSLDIXZW1FAIHW8YX3","","null","<img src=""img/flower2.png"" style=""width:200px; border:14px solid green;"">","null","","","","","","","","",""
"","image-keyboard-response","18","15841","0.0-18.0","3FFJ6VRIL2AMLMYR25TOVWP7PL10IZ","A1FKK1Q8C3BAE5","3HUR21WDDUBEMSLDIXZW1FAIHW8YX3","","142","img/flower5.png","76","145","3","1","2","2","1,0,0,1,1,0,1,0,1","0,0,1,1,0,1,0,1,1","2",""
"","html-keyboard-response","19","16148","0.0-19.0","3FFJ6VRIL2AMLMYR25TOVWP7PL10IZ","A1FKK1Q8C3BAE5","3HUR21WDDUBEMSLDIXZW1FAIHW8YX3","","null","<img src=""img/flower5.png"" style=""width:200px; border:14px solid green;"">","null","","","","","","","","",""
"","image-keyboard-response","20","16287","0.0-20.0","3FFJ6VRIL2AMLMYR25TOVWP7PL10IZ","A1FKK1Q8C3BAE5","3HUR21WDDUBEMSLDIXZW1FAIHW8YX3","","136","img/flower5.png","76","137","3","1","2","2","1,0,0,1,1,0,1,0,1","0,0,1,1,0,1,0,1,1","2",""
"","html-keyboard-response","21","16590","0.0-21.0","3FFJ6VRIL2AMLMYR25TOVWP7PL10IZ","A1FKK1Q8C3BAE5","3HUR21WDDUBEMSLDIXZW1FAIHW8YX3","","null","<img src=""img/flower5.png"" style=""width:200px; border:14px solid green;"">","null","","","","","","","","",""
"","image-keyboard-response","22","16668","0.0-22.0","3FFJ6VRIL2AMLMYR25TOVWP7PL10IZ","A1FKK1Q8C3BAE5","3HUR21WDDUBEMSLDIXZW1FAIHW8YX3","","76","img/flower2.png","76","78","3","1","1","2","1,0,0,1,1,0,1,0,1","0,0,1,1,0,1,0,1,1","2",""
"","html-keyboard-response","23","16971","0.0-23.0","3FFJ6VRIL2AMLMYR25TOVWP7PL10IZ","A1FKK1Q8C3BAE5","3HUR21WDDUBEMSLDIXZW1FAIHW8YX3","","null","<img src=""img/flower2.png"" style=""width:200px; border:14px solid green;"">","null","","","","","","","","",""
"","image-keyboard-response","24","17125","0.0-24.0","3FFJ6VRIL2AMLMYR25TOVWP7PL10IZ","A1FKK1Q8C3BAE5","3HUR21WDDUBEMSLDIXZW1FAIHW8YX3","","144","img/flower2.png","76","148","3","1","1","2","1,0,0,1,1,0,1,0,1","0,0,1,1,0,1,0,1,1","2",""
"","html-keyboard-response","25","17427","0.0-25.0","3FFJ6VRIL2AMLMYR25TOVWP7PL10IZ","A1FKK1Q8C3BAE5","3HUR21WDDUBEMSLDIXZW1FAIHW8YX3","","null","<img src=""img/flower2.png"" style=""width:200px; border:14px solid green;"">","null","","","","","","","","",""
"","image-keyboard-response","26","17533","0.0-26.0","3FFJ6VRIL2AMLMYR25TOVWP7PL10IZ","A1FKK1Q8C3BAE5","3HUR21WDDUBEMSLDIXZW1FAIHW8YX3","","103","img/flower5.png","76","104","3","1","2","2","1,0,0,1,1,0,1,0,1","0,0,1,1,0,1,0,1,1","2",""
"","html-keyboard-response","27","17836","0.0-27.0","3FFJ6VRIL2AMLMYR25TOVWP7PL10IZ","A1FKK1Q8C3BAE5","3HUR21WDDUBEMSLDIXZW1FAIHW8YX3","","null","<img src=""img/flower5.png"" style=""width:200px; border:14px solid green;"">","null","","","","","","","","",""
"","image-keyboard-response","28","17940","0.0-28.0","3FFJ6VRIL2AMLMYR25TOVWP7PL10IZ","A1FKK1Q8C3BAE5","3HUR21WDDUBEMSLDIXZW1FAIHW8YX3","","98","img/flower3.png","76","103","3","1","3","2","1,0,0,1,1,0,1,0,1","0,0,1,1,0,1,0,1,1","2",""
"","html-keyboard-response","29","18243","0.0-29.0","3FFJ6VRIL2AMLMYR25TOVWP7PL10IZ","A1FKK1Q8C3BAE5","3HUR21WDDUBEMSLDIXZW1FAIHW8YX3","","null","<img src=""img/flower3.png"" style=""width:200px; border:14px solid green;"">","null","","","","","","","","",""
"","image-keyboard-response","30","18301","0.0-30.0","3FFJ6VRIL2AMLMYR25TOVWP7PL10IZ","A1FKK1Q8C3BAE5","3HUR21WDDUBEMSLDIXZW1FAIHW8YX3","","50","img/flower2.png","76","55","3","1","1","2","1,0,0,1,1,0,1,0,1","0,0,1,1,0,1,0,1,1","2",""
"","html-keyboard-response","31","18603","0.0-31.0","3FFJ6VRIL2AMLMYR25TOVWP7PL10IZ","A1FKK1Q8C3BAE5","3HUR21WDDUBEMSLDIXZW1FAIHW8YX3","","null","<img src=""img/flower2.png"" style=""width:200px; border:14px solid green;"">","null","","","","","","","","",""
"","image-keyboard-response","32","18620","0.0-32.0","3FFJ6VRIL2AMLMYR25TOVWP7PL10IZ","A1FKK1Q8C3BAE5","3HUR21WDDUBEMSLDIXZW1FAIHW8YX3","","13","img/flower3.png","76","15","3","1","3","2","1,0,0,1,1,0,1,0,1","0,0,1,1,0,1,0,1,1","2",""
"","html-keyboard-response","33","18923","0.0-33.0","3FFJ6VRIL2AMLMYR25TOVWP7PL10IZ","A1FKK1Q8C3BAE5","3HUR21WDDUBEMSLDIXZW1FAIHW8YX3","","null","<img src=""img/flower3.png"" style=""width:200px; border:14px solid green;"">","null","","","","","","","","",""
"","image-keyboard-response","34","19037","0.0-34.0","3FFJ6VRIL2AMLMYR25TOVWP7PL10IZ","A1FKK1Q8C3BAE5","3HUR21WDDUBEMSLDIXZW1FAIHW8YX3","","110","img/flower5.png","76","113","3","1","2","2","1,0,0,1,1,0,1,0,1","0,0,1,1,0,1,0,1,1","2",""
"","html-keyboard-response","35","19365","0.0-35.0","3FFJ6VRIL2AMLMYR25TOVWP7PL10IZ","A1FKK1Q8C3BAE5","3HUR21WDDUBEMSLDIXZW1FAIHW8YX3","","null","<img src=""img/flower5.png"" style=""width:200px; border:14px solid green;"">","null","","","","","","","","",""
"","image-keyboard-response","36","19484","0.0-36.0","3FFJ6VRIL2AMLMYR25TOVWP7PL10IZ","A1FKK1Q8C3BAE5","3HUR21WDDUBEMSLDIXZW1FAIHW8YX3","","117","img/flower2.png","76","118","3","1","1","2","1,0,0,1,1,0,1,0,1","0,0,1,1,0,1,0,1,1","2",""
"","html-keyboard-response","37","19787","0.0-37.0","3FFJ6VRIL2AMLMYR25TOVWP7PL10IZ","A1FKK1Q8C3BAE5","3HUR21WDDUBEMSLDIXZW1FAIHW8YX3","","null","<img src=""img/flower2.png"" style=""width:200px; border:14px solid green;"">","null","","","","","","","","",""
"","image-keyboard-response","38","19913","0.0-38.0","3FFJ6VRIL2AMLMYR25TOVWP7PL10IZ","A1FKK1Q8C3BAE5","3HUR21WDDUBEMSLDIXZW1FAIHW8YX3","","122","img/flower5.png","76","124","3","1","2","2","1,0,0,1,1,0,1,0,1","0,0,1,1,0,1,0,1,1","2",""
"","html-keyboard-response","39","20217","0.0-39.0","3FFJ6VRIL2AMLMYR25TOVWP7PL10IZ","A1FKK1Q8C3BAE5","3HUR21WDDUBEMSLDIXZW1FAIHW8YX3","","null","<img src=""img/flower5.png"" style=""width:200px; border:14px solid green;"">","null","","","","","","","","",""
"","image-keyboard-response","40","20252","0.0-40.0","3FFJ6VRIL2AMLMYR25TOVWP7PL10IZ","A1FKK1Q8C3BAE5","3HUR21WDDUBEMSLDIXZW1FAIHW8YX3","","32","img/flower3.png","76","34","3","1","3","2","1,0,0,1,1,0,1,0,1","0,0,1,1,0,1,0,1,1","2",""
"","html-keyboard-response","41","20561","0.0-41.0","3FFJ6VRIL2AMLMYR25TOVWP7PL10IZ","A1FKK1Q8C3BAE5","3HUR21WDDUBEMSLDIXZW1FAIHW8YX3","","null","<img src=""img/flower3.png"" style=""width:200px; border:14px solid green;"">","null","","","","","","","","",""
"","image-keyboard-response","42","20601","0.0-42.0","3FFJ6VRIL2AMLMYR25TOVWP7PL10IZ","A1FKK1Q8C3BAE5","3HUR21WDDUBEMSLDIXZW1FAIHW8YX3","","36","img/flower5.png","76","39","3","1","2","2","1,0,0,1,1,0,1,0,1","0,0,1,1,0,1,0,1,1","2",""
"","html-keyboard-response","43","20903","0.0-43.0","3FFJ6VRIL2AMLMYR25TOVWP7PL10IZ","A1FKK1Q8C3BAE5","3HUR21WDDUBEMSLDIXZW1FAIHW8YX3","","null","<img src=""img/flower5.png"" style=""width:200px; border:14px solid green;"">","null","","","","","","","","",""
"","image-keyboard-response","44","21005","0.0-44.0","3FFJ6VRIL2AMLMYR25TOVWP7PL10IZ","A1FKK1Q8C3BAE5","3HUR21WDDUBEMSLDIXZW1FAIHW8YX3","","100","img/flower2.png","76","102","3","1","1","2","1,0,0,1,1,0,1,0,1","0,0,1,1,0,1,0,1,1","2",""
"","html-keyboard-response","45","21307","0.0-45.0","3FFJ6VRIL2AMLMYR25TOVWP7PL10IZ","A1FKK1Q8C3BAE5","3HUR21WDDUBEMSLDIXZW1FAIHW8YX3","","null","<img src=""img/flower2.png"" style=""width:200px; border:14px solid green;"">","null","","","","","","","","",""
"","image-keyboard-response","46","21332","0.0-46.0","3FFJ6VRIL2AMLMYR25TOVWP7PL10IZ","A1FKK1Q8C3BAE5","3HUR21WDDUBEMSLDIXZW1FAIHW8YX3","","23","img/flower3.png","76","24","3","1","3","2","1,0,0,1,1,0,1,0,1","0,0,1,1,0,1,0,1,1","2",""
"","html-keyboard-response","47","21634","0.0-47.0","3FFJ6VRIL2AMLMYR25TOVWP7PL10IZ","A1FKK1Q8C3BAE5","3HUR21WDDUBEMSLDIXZW1FAIHW8YX3","","null","<img src=""img/flower3.png"" style=""width:200px; border:14px solid green;"">","null","","","","","","","","",""
"","image-keyboard-response","48","21798","0.0-48.0","3FFJ6VRIL2AMLMYR25TOVWP7PL10IZ","A1FKK1Q8C3BAE5","3HUR21WDDUBEMSLDIXZW1FAIHW8YX3","","160","img/flower3.png","76","162","3","1","3","2","1,0,0,1,1,0,1,0,1","0,0,1,1,0,1,0,1,1","2",""
"","html-keyboard-response","49","22103","0.0-49.0","3FFJ6VRIL2AMLMYR25TOVWP7PL10IZ","A1FKK1Q8C3BAE5","3HUR21WDDUBEMSLDIXZW1FAIHW8YX3","","null","<img src=""img/flower3.png"" style=""width:200px; border:14px solid green;"">","null","","","","","","","","",""
"","image-keyboard-response","50","22106","0.0-50.0","3FFJ6VRIL2AMLMYR25TOVWP7PL10IZ","A1FKK1Q8C3BAE5","3HUR21WDDUBEMSLDIXZW1FAIHW8YX3","","1","img/flower5.png","76","3","3","1","2","2","1,0,0,1,1,0,1,0,1","0,0,1,1,0,1,0,1,1","2",""
"","html-keyboard-response","51","22409","0.0-51.0","3FFJ6VRIL2AMLMYR25TOVWP7PL10IZ","A1FKK1Q8C3BAE5","3HUR21WDDUBEMSLDIXZW1FAIHW8YX3","","null","<img src=""img/flower5.png"" style=""width:200px; border:14px solid green;"">","null","","","","","","","","",""
"","image-keyboard-response","52","22433","0.0-52.0","3FFJ6VRIL2AMLMYR25TOVWP7PL10IZ","A1FKK1Q8C3BAE5","3HUR21WDDUBEMSLDIXZW1FAIHW8YX3","","19","img/flower3.png","76","20","3","1","3","2","1,0,0,1,1,0,1,0,1","0,0,1,1,0,1,0,1,1","2",""
"","html-keyboard-response","53","22735","0.0-53.0","3FFJ6VRIL2AMLMYR25TOVWP7PL10IZ","A1FKK1Q8C3BAE5","3HUR21WDDUBEMSLDIXZW1FAIHW8YX3","","null","<img src=""img/flower3.png"" style=""width:200px; border:14px solid green;"">","null","","","","","","","","",""
"","image-keyboard-response","54","22758","0.0-54.0","3FFJ6VRIL2AMLMYR25TOVWP7PL10IZ","A1FKK1Q8C3BAE5","3HUR21WDDUBEMSLDIXZW1FAIHW8YX3","","20","img/flower3.png","76","22","3","1","3","2","1,0,0,1,1,0,1,0,1","0,0,1,1,0,1,0,1,1","2",""
"","html-keyboard-response","55","23062","0.0-55.0","3FFJ6VRIL2AMLMYR25TOVWP7PL10IZ","A1FKK1Q8C3BAE5","3HUR21WDDUBEMSLDIXZW1FAIHW8YX3","","null","<img src=""img/flower3.png"" style=""width:200px; border:14px solid green;"">","null","","","","","","","","",""
"","image-keyboard-response","56","23127","0.0-56.0","3FFJ6VRIL2AMLMYR25TOVWP7PL10IZ","A1FKK1Q8C3BAE5","3HUR21WDDUBEMSLDIXZW1FAIHW8YX3","","62","img/flower5.png","76","64","3","1","2","2","1,0,0,1,1,0,1,0,1","0,0,1,1,0,1,0,1,1","2",""
"","html-keyboard-response","57","23429","0.0-57.0","3FFJ6VRIL2AMLMYR25TOVWP7PL10IZ","A1FKK1Q8C3BAE5","3HUR21WDDUBEMSLDIXZW1FAIHW8YX3","","null","<img src=""img/flower5.png"" style=""width:200px; border:14px solid green;"">","null","","","","","","","","",""
"","image-keyboard-response","58","23478","0.0-58.0","3FFJ6VRIL2AMLMYR25TOVWP7PL10IZ","A1FKK1Q8C3BAE5","3HUR21WDDUBEMSLDIXZW1FAIHW8YX3","","48","img/flower3.png","76","49","3","1","3","2","1,0,0,1,1,0,1,0,1","0,0,1,1,0,1,0,1,1","2",""
"","html-keyboard-response","59","23780","0.0-59.0","3FFJ6VRIL2AMLMYR25TOVWP7PL10IZ","A1FKK1Q8C3BAE5","3HUR21WDDUBEMSLDIXZW1FAIHW8YX3","","null","<img src=""img/flower3.png"" style=""width:200px; border:14px solid green;"">","null","","","","","","","","",""
"","image-keyboard-response","60","23838","0.0-60.0","3FFJ6VRIL2AMLMYR25TOVWP7PL10IZ","A1FKK1Q8C3BAE5","3HUR21WDDUBEMSLDIXZW1FAIHW8YX3","","53","img/flower3.png","76","56","3","1","3","2","1,0,0,1,1,0,1,0,1","0,0,1,1,0,1,0,1,1","2",""
"","html-keyboard-response","61","24141","0.0-61.0","3FFJ6VRIL2AMLMYR25TOVWP7PL10IZ","A1FKK1Q8C3BAE5","3HUR21WDDUBEMSLDIXZW1FAIHW8YX3","","null","<img src=""img/flower3.png"" style=""width:200px; border:14px solid green;"">","null","","","","","","","","",""
"","image-keyboard-response","62","24231","0.0-62.0","3FFJ6VRIL2AMLMYR25TOVWP7PL10IZ","A1FKK1Q8C3BAE5","3HUR21WDDUBEMSLDIXZW1FAIHW8YX3","","85","img/flower3.png","76","87","3","1","3","2","1,0,0,1,1,0,1,0,1","0,0,1,1,0,1,0,1,1","2",""
"","html-keyboard-response","63","24536","0.0-63.0","3FFJ6VRIL2AMLMYR25TOVWP7PL10IZ","A1FKK1Q8C3BAE5","3HUR21WDDUBEMSLDIXZW1FAIHW8YX3","","null","<img src=""img/flower3.png"" style=""width:200px; border:14px solid green;"">","null","","","","","","","","",""
"","image-keyboard-response","64","24610","0.0-64.0","3FFJ6VRIL2AMLMYR25TOVWP7PL10IZ","A1FKK1Q8C3BAE5","3HUR21WDDUBEMSLDIXZW1FAIHW8YX3","","68","img/flower3.png","76","71","3","1","3","2","1,0,0,1,1,0,1,0,1","0,0,1,1,0,1,0,1,1","2",""
"","html-keyboard-response","65","24912","0.0-65.0","3FFJ6VRIL2AMLMYR25TOVWP7PL10IZ","A1FKK1Q8C3BAE5","3HUR21WDDUBEMSLDIXZW1FAIHW8YX3","","null","<img src=""img/flower3.png"" style=""width:200px; border:14px solid green;"">","null","","","","","","","","",""
"","image-keyboard-response","66","25006","0.0-66.0","3FFJ6VRIL2AMLMYR25TOVWP7PL10IZ","A1FKK1Q8C3BAE5","3HUR21WDDUBEMSLDIXZW1FAIHW8YX3","","91","img/flower2.png","76","93","3","1","1","2","1,0,0,1,1,0,1,0,1","0,0,1,1,0,1,0,1,1","2",""
"","html-keyboard-response","67","25309","0.0-67.0","3FFJ6VRIL2AMLMYR25TOVWP7PL10IZ","A1FKK1Q8C3BAE5","3HUR21WDDUBEMSLDIXZW1FAIHW8YX3","","null","<img src=""img/flower2.png"" style=""width:200px; border:14px solid green;"">","null","","","","","","","","",""
"","image-keyboard-response","68","25483","0.0-68.0","3FFJ6VRIL2AMLMYR25TOVWP7PL10IZ","A1FKK1Q8C3BAE5","3HUR21WDDUBEMSLDIXZW1FAIHW8YX3","","170","img/flower3.png","76","172","3","1","3","2","1,0,0,1,1,0,1,0,1","0,0,1,1,0,1,0,1,1","2",""
"","html-keyboard-response","69","25821","0.0-69.0","3FFJ6VRIL2AMLMYR25TOVWP7PL10IZ","A1FKK1Q8C3BAE5","3HUR21WDDUBEMSLDIXZW1FAIHW8YX3","","null","<img src=""img/flower3.png"" style=""width:200px; border:14px solid green;"">","null","","","","","","","","",""
"","image-keyboard-response","70","25912","0.0-70.0","3FFJ6VRIL2AMLMYR25TOVWP7PL10IZ","A1FKK1Q8C3BAE5","3HUR21WDDUBEMSLDIXZW1FAIHW8YX3","","90","img/flower2.png","76","91","3","1","1","2","1,0,0,1,1,0,1,0,1","0,0,1,1,0,1,0,1,1","2",""
"","html-keyboard-response","71","26216","0.0-71.0","3FFJ6VRIL2AMLMYR25TOVWP7PL10IZ","A1FKK1Q8C3BAE5","3HUR21WDDUBEMSLDIXZW1FAIHW8YX3","","null","<img src=""img/flower2.png"" style=""width:200px; border:14px solid green;"">","null","","","","","","","","",""
"","image-keyboard-response","72","26358","0.0-72.0","3FFJ6VRIL2AMLMYR25TOVWP7PL10IZ","A1FKK1Q8C3BAE5","3HUR21WDDUBEMSLDIXZW1FAIHW8YX3","","140","img/flower3.png","76","141","3","1","3","2","1,0,0,1,1,0,1,0,1","0,0,1,1,0,1,0,1,1","2",""
"","html-keyboard-response","73","26661","0.0-73.0","3FFJ6VRIL2AMLMYR25TOVWP7PL10IZ","A1FKK1Q8C3BAE5","3HUR21WDDUBEMSLDIXZW1FAIHW8YX3","","null","<img src=""img/flower3.png"" style=""width:200px; border:14px solid green;"">","null","","","","","","","","",""
"","image-keyboard-response","74","26790","0.0-74.0","3FFJ6VRIL2AMLMYR25TOVWP7PL10IZ","A1FKK1Q8C3BAE5","3HUR21WDDUBEMSLDIXZW1FAIHW8YX3","","128","img/flower2.png","76","128","3","1","1","2","1,0,0,1,1,0,1,0,1","0,0,1,1,0,1,0,1,1","2",""
"","html-keyboard-response","75","27111","0.0-75.0","3FFJ6VRIL2AMLMYR25TOVWP7PL10IZ","A1FKK1Q8C3BAE5","3HUR21WDDUBEMSLDIXZW1FAIHW8YX3","","null","<img src=""img/flower2.png"" style=""width:200px; border:14px solid green;"">","null","","","","","","","","",""
"","image-keyboard-response","76","27266","0.0-76.0","3FFJ6VRIL2AMLMYR25TOVWP7PL10IZ","A1FKK1Q8C3BAE5","3HUR21WDDUBEMSLDIXZW1FAIHW8YX3","","149","img/flower5.png","76","153","3","1","2","2","1,0,0,1,1,0,1,0,1","0,0,1,1,0,1,0,1,1","2",""
"","html-keyboard-response","77","27569","0.0-77.0","3FFJ6VRIL2AMLMYR25TOVWP7PL10IZ","A1FKK1Q8C3BAE5","3HUR21WDDUBEMSLDIXZW1FAIHW8YX3","","null","<img src=""img/flower5.png"" style=""width:200px; border:14px solid green;"">","null","","","","","","","","",""
"","image-keyboard-response","78","27744","0.0-78.0","3FFJ6VRIL2AMLMYR25TOVWP7PL10IZ","A1FKK1Q8C3BAE5","3HUR21WDDUBEMSLDIXZW1FAIHW8YX3","","169","img/flower5.png","76","174","3","1","2","2","1,0,0,1,1,0,1,0,1","0,0,1,1,0,1,0,1,1","2",""
"","html-keyboard-response","79","28050","0.0-79.0","3FFJ6VRIL2AMLMYR25TOVWP7PL10IZ","A1FKK1Q8C3BAE5","3HUR21WDDUBEMSLDIXZW1FAIHW8YX3","","null","<img src=""img/flower5.png"" style=""width:200px; border:14px solid green;"">","null","","","","","","","","",""
"","image-keyboard-response","80","28222","0.0-80.0","3FFJ6VRIL2AMLMYR25TOVWP7PL10IZ","A1FKK1Q8C3BAE5","3HUR21WDDUBEMSLDIXZW1FAIHW8YX3","","169","img/flower5.png","76","170","3","1","2","2","1,0,0,1,1,0,1,0,1","0,0,1,1,0,1,0,1,1","2",""
"","html-keyboard-response","81","28525","0.0-81.0","3FFJ6VRIL2AMLMYR25TOVWP7PL10IZ","A1FKK1Q8C3BAE5","3HUR21WDDUBEMSLDIXZW1FAIHW8YX3","","null","<img src=""img/flower5.png"" style=""width:200px; border:14px solid green;"">","null","","","","","","","","",""
"","image-keyboard-response","82","28685","0.0-82.0","3FFJ6VRIL2AMLMYR25TOVWP7PL10IZ","A1FKK1Q8C3BAE5","3HUR21WDDUBEMSLDIXZW1FAIHW8YX3","","157","img/flower2.png","76","158","3","1","1","2","1,0,0,1,1,0,1,0,1","0,0,1,1,0,1,0,1,1","2",""
"","html-keyboard-response","83","28987","0.0-83.0","3FFJ6VRIL2AMLMYR25TOVWP7PL10IZ","A1FKK1Q8C3BAE5","3HUR21WDDUBEMSLDIXZW1FAIHW8YX3","","null","<img src=""img/flower2.png"" style=""width:200px; border:14px solid green;"">","null","","","","","","","","",""
"","image-keyboard-response","84","29143","0.0-84.0","3FFJ6VRIL2AMLMYR25TOVWP7PL10IZ","A1FKK1Q8C3BAE5","3HUR21WDDUBEMSLDIXZW1FAIHW8YX3","","151","img/flower2.png","76","155","3","1","1","2","1,0,0,1,1,0,1,0,1","0,0,1,1,0,1,0,1,1","2",""
"","html-keyboard-response","85","29447","0.0-85.0","3FFJ6VRIL2AMLMYR25TOVWP7PL10IZ","A1FKK1Q8C3BAE5","3HUR21WDDUBEMSLDIXZW1FAIHW8YX3","","null","<img src=""img/flower2.png"" style=""width:200px; border:14px solid green;"">","null","","","","","","","","",""
"","image-keyboard-response","86","29605","0.0-86.0","3FFJ6VRIL2AMLMYR25TOVWP7PL10IZ","A1FKK1Q8C3BAE5","3HUR21WDDUBEMSLDIXZW1FAIHW8YX3","","156","img/flower5.png","76","157","3","1","2","2","1,0,0,1,1,0,1,0,1","0,0,1,1,0,1,0,1,1","2",""
"","html-keyboard-response","87","29910","0.0-87.0","3FFJ6VRIL2AMLMYR25TOVWP7PL10IZ","A1FKK1Q8C3BAE5","3HUR21WDDUBEMSLDIXZW1FAIHW8YX3","","null","<img src=""img/flower5.png"" style=""width:200px; border:14px solid green;"">","null","","","","","","","","",""
"","image-keyboard-response","88","30040","0.0-88.0","3FFJ6VRIL2AMLMYR25TOVWP7PL10IZ","A1FKK1Q8C3BAE5","3HUR21WDDUBEMSLDIXZW1FAIHW8YX3","","123","img/flower2.png","76","127","3","1","1","2","1,0,0,1,1,0,1,0,1","0,0,1,1,0,1,0,1,1","2",""
"","html-keyboard-response","89","30343","0.0-89.0","3FFJ6VRIL2AMLMYR25TOVWP7PL10IZ","A1FKK1Q8C3BAE5","3HUR21WDDUBEMSLDIXZW1FAIHW8YX3","","null","<img src=""img/flower2.png"" style=""width:200px; border:14px solid green;"">","null","","","","","","","","",""
"","image-keyboard-response","90","30569","0.0-90.0","3FFJ6VRIL2AMLMYR25TOVWP7PL10IZ","A1FKK1Q8C3BAE5","3HUR21WDDUBEMSLDIXZW1FAIHW8YX3","","224","img/flower2.png","76","225","3","1","1","2","1,0,0,1,1,0,1,0,1","0,0,1,1,0,1,0,1,1","2",""
"","html-keyboard-response","91","30872","0.0-91.0","3FFJ6VRIL2AMLMYR25TOVWP7PL10IZ","A1FKK1Q8C3BAE5","3HUR21WDDUBEMSLDIXZW1FAIHW8YX3","","null","<img src=""img/flower2.png"" style=""width:200px; border:14px solid green;"">","null","","","","","","","","",""
"","image-keyboard-response","92","31074","0.0-92.0","3FFJ6VRIL2AMLMYR25TOVWP7PL10IZ","A1FKK1Q8C3BAE5","3HUR21WDDUBEMSLDIXZW1FAIHW8YX3","","201","img/flower3.png","76","202","3","1","3","2","1,0,0,1,1,0,1,0,1","0,0,1,1,0,1,0,1,1","2",""
"","html-keyboard-response","93","31380","0.0-93.0","3FFJ6VRIL2AMLMYR25TOVWP7PL10IZ","A1FKK1Q8C3BAE5","3HUR21WDDUBEMSLDIXZW1FAIHW8YX3","","null","<img src=""img/flower3.png"" style=""width:200px; border:14px solid green;"">","null","","","","","","","","",""
"","image-keyboard-response","94","31550","0.0-94.0","3FFJ6VRIL2AMLMYR25TOVWP7PL10IZ","A1FKK1Q8C3BAE5","3HUR21WDDUBEMSLDIXZW1FAIHW8YX3","","167","img/flower2.png","76","169","3","1","1","2","1,0,0,1,1,0,1,0,1","0,0,1,1,0,1,0,1,1","2",""
"","html-keyboard-response","95","31860","0.0-95.0","3FFJ6VRIL2AMLMYR25TOVWP7PL10IZ","A1FKK1Q8C3BAE5","3HUR21WDDUBEMSLDIXZW1FAIHW8YX3","","null","<img src=""img/flower2.png"" style=""width:200px; border:14px solid green;"">","null","","","","","","","","",""
"","image-keyboard-response","96","32030","0.0-96.0","3FFJ6VRIL2AMLMYR25TOVWP7PL10IZ","A1FKK1Q8C3BAE5","3HUR21WDDUBEMSLDIXZW1FAIHW8YX3","","163","img/flower3.png","76","166","3","1","3","2","1,0,0,1,1,0,1,0,1","0,0,1,1,0,1,0,1,1","2",""
"","html-keyboard-response","97","32332","0.0-97.0","3FFJ6VRIL2AMLMYR25TOVWP7PL10IZ","A1FKK1Q8C3BAE5","3HUR21WDDUBEMSLDIXZW1FAIHW8YX3","","null","<img src=""img/flower3.png"" style=""width:200px; border:14px solid green;"">","null","","","","","","","","",""
"","image-keyboard-response","98","32536","0.0-98.0","3FFJ6VRIL2AMLMYR25TOVWP7PL10IZ","A1FKK1Q8C3BAE5","3HUR21WDDUBEMSLDIXZW1FAIHW8YX3","","198","img/flower5.png","76","201","3","1","2","2","1,0,0,1,1,0,1,0,1","0,0,1,1,0,1,0,1,1","2",""
"","html-keyboard-response","99","32839","0.0-99.0","3FFJ6VRIL2AMLMYR25TOVWP7PL10IZ","A1FKK1Q8C3BAE5","3HUR21WDDUBEMSLDIXZW1FAIHW8YX3","","null","<img src=""img/flower5.png"" style=""width:200px; border:14px solid green;"">","null","","","","","","","","",""
"","image-keyboard-response","100","33217","0.0-100.0","3FFJ6VRIL2AMLMYR25TOVWP7PL10IZ","A1FKK1Q8C3BAE5","3HUR21WDDUBEMSLDIXZW1FAIHW8YX3","","376","img/flower5.png","76","377","3","1","2","2","1,0,0,1,1,0,1,0,1","0,0,1,1,0,1,0,1,1","2",""
"","html-keyboard-response","101","33518","0.0-101.0","3FFJ6VRIL2AMLMYR25TOVWP7PL10IZ","A1FKK1Q8C3BAE5","3HUR21WDDUBEMSLDIXZW1FAIHW8YX3","","null","<img src=""img/flower5.png"" style=""width:200px; border:14px solid green;"">","null","","","","","","","","",""
"","image-keyboard-response","102","33663","0.0-102.0","3FFJ6VRIL2AMLMYR25TOVWP7PL10IZ","A1FKK1Q8C3BAE5","3HUR21WDDUBEMSLDIXZW1FAIHW8YX3","","138","img/flower5.png","76","142","3","1","2","2","1,0,0,1,1,0,1,0,1","0,0,1,1,0,1,0,1,1","2",""
"","html-keyboard-response","103","33965","0.0-103.0","3FFJ6VRIL2AMLMYR25TOVWP7PL10IZ","A1FKK1Q8C3BAE5","3HUR21WDDUBEMSLDIXZW1FAIHW8YX3","","null","<img src=""img/flower5.png"" style=""width:200px; border:14px solid green;"">","null","","","","","","","","",""
"","image-keyboard-response","104","34166","0.0-104.0","3FFJ6VRIL2AMLMYR25TOVWP7PL10IZ","A1FKK1Q8C3BAE5","3HUR21WDDUBEMSLDIXZW1FAIHW8YX3","","198","img/flower5.png","76","200","3","1","2","2","1,0,0,1,1,0,1,0,1","0,0,1,1,0,1,0,1,1","2",""
"","html-keyboard-response","105","34475","0.0-105.0","3FFJ6VRIL2AMLMYR25TOVWP7PL10IZ","A1FKK1Q8C3BAE5","3HUR21WDDUBEMSLDIXZW1FAIHW8YX3","","null","<img src=""img/flower5.png"" style=""width:200px; border:14px solid green;"">","null","","","","","","","","",""
"","image-keyboard-response","106","34646","0.0-106.0","3FFJ6VRIL2AMLMYR25TOVWP7PL10IZ","A1FKK1Q8C3BAE5","3HUR21WDDUBEMSLDIXZW1FAIHW8YX3","","170","img/flower5.png","76","171","3","1","2","2","1,0,0,1,1,0,1,0,1","0,0,1,1,0,1,0,1,1","2",""
"","html-keyboard-response","107","34948","0.0-107.0","3FFJ6VRIL2AMLMYR25TOVWP7PL10IZ","A1FKK1Q8C3BAE5","3HUR21WDDUBEMSLDIXZW1FAIHW8YX3","","null","<img src=""img/flower5.png"" style=""width:200px; border:14px solid green;"">","null","","","","","","","","",""
"","image-keyboard-response","108","35041","0.0-108.0","3FFJ6VRIL2AMLMYR25TOVWP7PL10IZ","A1FKK1Q8C3BAE5","3HUR21WDDUBEMSLDIXZW1FAIHW8YX3","","90","img/flower2.png","76","92","3","1","1","2","1,0,0,1,1,0,1,0,1","0,0,1,1,0,1,0,1,1","2",""
"","html-keyboard-response","109","35346","0.0-109.0","3FFJ6VRIL2AMLMYR25TOVWP7PL10IZ","A1FKK1Q8C3BAE5","3HUR21WDDUBEMSLDIXZW1FAIHW8YX3","","null","<img src=""img/flower2.png"" style=""width:200px; border:14px solid green;"">","null","","","","","","","","",""
"","image-keyboard-response","110","35459","0.0-110.0","3FFJ6VRIL2AMLMYR25TOVWP7PL10IZ","A1FKK1Q8C3BAE5","3HUR21WDDUBEMSLDIXZW1FAIHW8YX3","","109","img/flower3.png","76","111","3","1","3","2","1,0,0,1,1,0,1,0,1","0,0,1,1,0,1,0,1,1","2",""
"","html-keyboard-response","111","35761","0.0-111.0","3FFJ6VRIL2AMLMYR25TOVWP7PL10IZ","A1FKK1Q8C3BAE5","3HUR21WDDUBEMSLDIXZW1FAIHW8YX3","","null","<img src=""img/flower3.png"" style=""width:200px; border:14px solid green;"">","null","","","","","","","","",""
"","image-keyboard-response","112","35950","0.0-112.0","3FFJ6VRIL2AMLMYR25TOVWP7PL10IZ","A1FKK1Q8C3BAE5","3HUR21WDDUBEMSLDIXZW1FAIHW8YX3","","183","img/flower3.png","76","188","3","1","3","2","1,0,0,1,1,0,1,0,1","0,0,1,1,0,1,0,1,1","2",""
"","html-keyboard-response","113","36252","0.0-113.0","3FFJ6VRIL2AMLMYR25TOVWP7PL10IZ","A1FKK1Q8C3BAE5","3HUR21WDDUBEMSLDIXZW1FAIHW8YX3","","null","<img src=""img/flower3.png"" style=""width:200px; border:14px solid green;"">","null","","","","","","","","",""
"","image-keyboard-response","114","36302","0.0-114.0","3FFJ6VRIL2AMLMYR25TOVWP7PL10IZ","A1FKK1Q8C3BAE5","3HUR21WDDUBEMSLDIXZW1FAIHW8YX3","","47","img/flower2.png","76","49","3","1","1","2","1,0,0,1,1,0,1,0,1","0,0,1,1,0,1,0,1,1","2",""
"","html-keyboard-response","115","36604","0.0-115.0","3FFJ6VRIL2AMLMYR25TOVWP7PL10IZ","A1FKK1Q8C3BAE5","3HUR21WDDUBEMSLDIXZW1FAIHW8YX3","","null","<img src=""img/flower2.png"" style=""width:200px; border:14px solid green;"">","null","","","","","","","","",""
"","image-keyboard-response","116","36735","0.0-116.0","3FFJ6VRIL2AMLMYR25TOVWP7PL10IZ","A1FKK1Q8C3BAE5","3HUR21WDDUBEMSLDIXZW1FAIHW8YX3","","129","img/flower2.png","76","130","3","1","1","2","1,0,0,1,1,0,1,0,1","0,0,1,1,0,1,0,1,1","2",""
"","html-keyboard-response","117","37039","0.0-117.0","3FFJ6VRIL2AMLMYR25TOVWP7PL10IZ","A1FKK1Q8C3BAE5","3HUR21WDDUBEMSLDIXZW1FAIHW8YX3","","null","<img src=""img/flower2.png"" style=""width:200px; border:14px solid green;"">","null","","","","","","","","",""
"","image-keyboard-response","118","37276","0.0-118.0","3FFJ6VRIL2AMLMYR25TOVWP7PL10IZ","A1FKK1Q8C3BAE5","3HUR21WDDUBEMSLDIXZW1FAIHW8YX3","","235","img/flower5.png","76","236","3","1","2","2","1,0,0,1,1,0,1,0,1","0,0,1,1,0,1,0,1,1","2",""
"","html-keyboard-response","119","37578","0.0-119.0","3FFJ6VRIL2AMLMYR25TOVWP7PL10IZ","A1FKK1Q8C3BAE5","3HUR21WDDUBEMSLDIXZW1FAIHW8YX3","","null","<img src=""img/flower5.png"" style=""width:200px; border:14px solid green;"">","null","","","","","","","","",""
"","image-keyboard-response","120","37682","0.0-120.0","3FFJ6VRIL2AMLMYR25TOVWP7PL10IZ","A1FKK1Q8C3BAE5","3HUR21WDDUBEMSLDIXZW1FAIHW8YX3","","102","img/flower5.png","76","103","3","1","2","2","1,0,0,1,1,0,1,0,1","0,0,1,1,0,1,0,1,1","2",""
"","html-keyboard-response","121","38074","0.0-121.0","3FFJ6VRIL2AMLMYR25TOVWP7PL10IZ","A1FKK1Q8C3BAE5","3HUR21WDDUBEMSLDIXZW1FAIHW8YX3","","null","<img src=""img/flower5.png"" style=""width:200px; border:14px solid green;"">","null","","","","","","","","",""
"","image-keyboard-response","122","38099","0.0-122.0","3FFJ6VRIL2AMLMYR25TOVWP7PL10IZ","A1FKK1Q8C3BAE5","3HUR21WDDUBEMSLDIXZW1FAIHW8YX3","","22","img/flower5.png","76","24","3","1","2","2","1,0,0,1,1,0,1,0,1","0,0,1,1,0,1,0,1,1","2",""
"","html-keyboard-response","123","38402","0.0-123.0","3FFJ6VRIL2AMLMYR25TOVWP7PL10IZ","A1FKK1Q8C3BAE5","3HUR21WDDUBEMSLDIXZW1FAIHW8YX3","","null","<img src=""img/flower5.png"" style=""width:200px; border:14px solid green;"">","null","","","","","","","","",""
"","image-keyboard-response","124","38495","0.0-124.0","3FFJ6VRIL2AMLMYR25TOVWP7PL10IZ","A1FKK1Q8C3BAE5","3HUR21WDDUBEMSLDIXZW1FAIHW8YX3","","92","img/flower2.png","76","92","3","1","1","2","1,0,0,1,1,0,1,0,1","0,0,1,1,0,1,0,1,1","2",""
"","html-keyboard-response","125","38796","0.0-125.0","3FFJ6VRIL2AMLMYR25TOVWP7PL10IZ","A1FKK1Q8C3BAE5","3HUR21WDDUBEMSLDIXZW1FAIHW8YX3","","null","<img src=""img/flower2.png"" style=""width:200px; border:14px solid green;"">","null","","","","","","","","",""
"","image-keyboard-response","126","38820","0.0-126.0","3FFJ6VRIL2AMLMYR25TOVWP7PL10IZ","A1FKK1Q8C3BAE5","3HUR21WDDUBEMSLDIXZW1FAIHW8YX3","","23","img/flower3.png","76","23","3","1","3","2","1,0,0,1,1,0,1,0,1","0,0,1,1,0,1,0,1,1","2",""
"","html-keyboard-response","127","39128","0.0-127.0","3FFJ6VRIL2AMLMYR25TOVWP7PL10IZ","A1FKK1Q8C3BAE5","3HUR21WDDUBEMSLDIXZW1FAIHW8YX3","","null","<img src=""img/flower3.png"" style=""width:200px; border:14px solid green;"">","null","","","","","","","","",""
"","image-keyboard-response","128","39312","0.0-128.0","3FFJ6VRIL2AMLMYR25TOVWP7PL10IZ","A1FKK1Q8C3BAE5","3HUR21WDDUBEMSLDIXZW1FAIHW8YX3","","182","img/flower2.png","76","183","3","1","1","2","1,0,0,1,1,0,1,0,1","0,0,1,1,0,1,0,1,1","2",""
"","html-keyboard-response","129","39615","0.0-129.0","3FFJ6VRIL2AMLMYR25TOVWP7PL10IZ","A1FKK1Q8C3BAE5","3HUR21WDDUBEMSLDIXZW1FAIHW8YX3","","null","<img src=""img/flower2.png"" style=""width:200px; border:14px solid green;"">","null","","","","","","","","",""
"","image-keyboard-response","130","39908","0.0-130.0","3FFJ6VRIL2AMLMYR25TOVWP7PL10IZ","A1FKK1Q8C3BAE5","3HUR21WDDUBEMSLDIXZW1FAIHW8YX3","","290","img/flower5.png","76","291","3","1","2","2","1,0,0,1,1,0,1,0,1","0,0,1,1,0,1,0,1,1","2",""
"","html-keyboard-response","131","40210","0.0-131.0","3FFJ6VRIL2AMLMYR25TOVWP7PL10IZ","A1FKK1Q8C3BAE5","3HUR21WDDUBEMSLDIXZW1FAIHW8YX3","","null","<img src=""img/flower5.png"" style=""width:200px; border:14px solid green;"">","null","","","","","","","","",""
"","image-keyboard-response","132","40525","0.0-132.0","3FFJ6VRIL2AMLMYR25TOVWP7PL10IZ","A1FKK1Q8C3BAE5","3HUR21WDDUBEMSLDIXZW1FAIHW8YX3","","312","img/flower2.png","76","313","3","1","1","2","1,0,0,1,1,0,1,0,1","0,0,1,1,0,1,0,1,1","2",""
"","html-keyboard-response","133","40827","0.0-133.0","3FFJ6VRIL2AMLMYR25TOVWP7PL10IZ","A1FKK1Q8C3BAE5","3HUR21WDDUBEMSLDIXZW1FAIHW8YX3","","null","<img src=""img/flower2.png"" style=""width:200px; border:14px solid green;"">","null","","","","","","","","",""
"","image-keyboard-response","134","41124","0.0-134.0","3FFJ6VRIL2AMLMYR25TOVWP7PL10IZ","A1FKK1Q8C3BAE5","3HUR21WDDUBEMSLDIXZW1FAIHW8YX3","","294","img/flower2.png","76","296","3","1","1","2","1,0,0,1,1,0,1,0,1","0,0,1,1,0,1,0,1,1","2",""
"","html-keyboard-response","135","41426","0.0-135.0","3FFJ6VRIL2AMLMYR25TOVWP7PL10IZ","A1FKK1Q8C3BAE5","3HUR21WDDUBEMSLDIXZW1FAIHW8YX3","","null","<img src=""img/flower2.png"" style=""width:200px; border:14px solid green;"">","null","","","","","","","","",""
"","image-keyboard-response","136","41446","0.0-136.0","3FFJ6VRIL2AMLMYR25TOVWP7PL10IZ","A1FKK1Q8C3BAE5","3HUR21WDDUBEMSLDIXZW1FAIHW8YX3","","15","img/flower2.png","76","19","3","1","1","2","1,0,0,1,1,0,1,0,1","0,0,1,1,0,1,0,1,1","2",""
"","html-keyboard-response","137","41748","0.0-137.0","3FFJ6VRIL2AMLMYR25TOVWP7PL10IZ","A1FKK1Q8C3BAE5","3HUR21WDDUBEMSLDIXZW1FAIHW8YX3","","null","<img src=""img/flower2.png"" style=""width:200px; border:14px solid green;"">","null","","","","","","","","",""
"","image-keyboard-response","138","42367","0.0-138.0","3FFJ6VRIL2AMLMYR25TOVWP7PL10IZ","A1FKK1Q8C3BAE5","3HUR21WDDUBEMSLDIXZW1FAIHW8YX3","","616","img/flower5.png","76","618","3","1","2","2","1,0,0,1,1,0,1,0,1","0,0,1,1,0,1,0,1,1","2",""
"","html-keyboard-response","139","42675","0.0-139.0","3FFJ6VRIL2AMLMYR25TOVWP7PL10IZ","A1FKK1Q8C3BAE5","3HUR21WDDUBEMSLDIXZW1FAIHW8YX3","","null","<img src=""img/flower5.png"" style=""width:200px; border:14px solid green;"">","null","","","","","","","","",""
"","image-keyboard-response","140","42787","0.0-140.0","3FFJ6VRIL2AMLMYR25TOVWP7PL10IZ","A1FKK1Q8C3BAE5","3HUR21WDDUBEMSLDIXZW1FAIHW8YX3","","108","img/flower2.png","76","109","3","1","1","2","1,0,0,1,1,0,1,0,1","0,0,1,1,0,1,0,1,1","2",""
"","html-keyboard-response","141","43089","0.0-141.0","3FFJ6VRIL2AMLMYR25TOVWP7PL10IZ","A1FKK1Q8C3BAE5","3HUR21WDDUBEMSLDIXZW1FAIHW8YX3","","null","<img src=""img/flower2.png"" style=""width:200px; border:14px solid green;"">","null","","","","","","","","",""
"","image-keyboard-response","142","43128","0.0-142.0","3FFJ6VRIL2AMLMYR25TOVWP7PL10IZ","A1FKK1Q8C3BAE5","3HUR21WDDUBEMSLDIXZW1FAIHW8YX3","","37","img/flower3.png","76","39","3","1","3","2","1,0,0,1,1,0,1,0,1","0,0,1,1,0,1,0,1,1","2",""
"","html-keyboard-response","143","43441","0.0-143.0","3FFJ6VRIL2AMLMYR25TOVWP7PL10IZ","A1FKK1Q8C3BAE5","3HUR21WDDUBEMSLDIXZW1FAIHW8YX3","","null","<img src=""img/flower3.png"" style=""width:200px; border:14px solid green;"">","null","","","","","","","","",""
"","image-keyboard-response","144","43516","0.0-144.0","3FFJ6VRIL2AMLMYR25TOVWP7PL10IZ","A1FKK1Q8C3BAE5","3HUR21WDDUBEMSLDIXZW1FAIHW8YX3","","71","img/flower2.png","76","73","3","1","1","2","1,0,0,1,1,0,1,0,1","0,0,1,1,0,1,0,1,1","2",""
"","html-keyboard-response","145","43819","0.0-145.0","3FFJ6VRIL2AMLMYR25TOVWP7PL10IZ","A1FKK1Q8C3BAE5","3HUR21WDDUBEMSLDIXZW1FAIHW8YX3","","null","<img src=""img/flower2.png"" style=""width:200px; border:14px solid green;"">","null","","","","","","","","",""
"","image-keyboard-response","146","43901","0.0-146.0","3FFJ6VRIL2AMLMYR25TOVWP7PL10IZ","A1FKK1Q8C3BAE5","3HUR21WDDUBEMSLDIXZW1FAIHW8YX3","","80","img/flower5.png","76","81","3","1","2","2","1,0,0,1,1,0,1,0,1","0,0,1,1,0,1,0,1,1","2",""
"","html-keyboard-response","147","44204","0.0-147.0","3FFJ6VRIL2AMLMYR25TOVWP7PL10IZ","A1FKK1Q8C3BAE5","3HUR21WDDUBEMSLDIXZW1FAIHW8YX3","","null","<img src=""img/flower5.png"" style=""width:200px; border:14px solid green;"">","null","","","","","","","","",""
"","image-keyboard-response","148","44343","0.0-148.0","3FFJ6VRIL2AMLMYR25TOVWP7PL10IZ","A1FKK1Q8C3BAE5","3HUR21WDDUBEMSLDIXZW1FAIHW8YX3","","138","img/flower5.png","76","139","3","1","2","2","1,0,0,1,1,0,1,0,1","0,0,1,1,0,1,0,1,1","2",""
"","html-keyboard-response","149","44647","0.0-149.0","3FFJ6VRIL2AMLMYR25TOVWP7PL10IZ","A1FKK1Q8C3BAE5","3HUR21WDDUBEMSLDIXZW1FAIHW8YX3","","null","<img src=""img/flower5.png"" style=""width:200px; border:14px solid green;"">","null","","","","","","","","",""
"","image-keyboard-response","150","44696","0.0-150.0","3FFJ6VRIL2AMLMYR25TOVWP7PL10IZ","A1FKK1Q8C3BAE5","3HUR21WDDUBEMSLDIXZW1FAIHW8YX3","","45","img/flower3.png","76","48","3","1","3","2","1,0,0,1,1,0,1,0,1","0,0,1,1,0,1,0,1,1","2",""
"","html-keyboard-response","151","45000","0.0-151.0","3FFJ6VRIL2AMLMYR25TOVWP7PL10IZ","A1FKK1Q8C3BAE5","3HUR21WDDUBEMSLDIXZW1FAIHW8YX3","","null","<img src=""img/flower3.png"" style=""width:200px; border:14px solid green;"">","null","","","","","","","","",""
"","image-keyboard-response","152","45070","0.0-152.0","3FFJ6VRIL2AMLMYR25TOVWP7PL10IZ","A1FKK1Q8C3BAE5","3HUR21WDDUBEMSLDIXZW1FAIHW8YX3","","65","img/flower3.png","76","69","3","1","3","2","1,0,0,1,1,0,1,0,1","0,0,1,1,0,1,0,1,1","2",""
"","html-keyboard-response","153","45372","0.0-153.0","3FFJ6VRIL2AMLMYR25TOVWP7PL10IZ","A1FKK1Q8C3BAE5","3HUR21WDDUBEMSLDIXZW1FAIHW8YX3","","null","<img src=""img/flower3.png"" style=""width:200px; border:14px solid green;"">","null","","","","","","","","",""
"","image-keyboard-response","154","45437","0.0-154.0","3FFJ6VRIL2AMLMYR25TOVWP7PL10IZ","A1FKK1Q8C3BAE5","3HUR21WDDUBEMSLDIXZW1FAIHW8YX3","","62","img/flower5.png","76","63","3","1","2","2","1,0,0,1,1,0,1,0,1","0,0,1,1,0,1,0,1,1","2",""
"","html-keyboard-response","155","45738","0.0-155.0","3FFJ6VRIL2AMLMYR25TOVWP7PL10IZ","A1FKK1Q8C3BAE5","3HUR21WDDUBEMSLDIXZW1FAIHW8YX3","","null","<img src=""img/flower5.png"" style=""width:200px; border:14px solid green;"">","null","","","","","","","","",""
"","image-keyboard-response","156","45891","0.0-156.0","3FFJ6VRIL2AMLMYR25TOVWP7PL10IZ","A1FKK1Q8C3BAE5","3HUR21WDDUBEMSLDIXZW1FAIHW8YX3","","150","img/flower3.png","76","152","3","1","3","2","1,0,0,1,1,0,1,0,1","0,0,1,1,0,1,0,1,1","2",""
"","html-keyboard-response","157","46194","0.0-157.0","3FFJ6VRIL2AMLMYR25TOVWP7PL10IZ","A1FKK1Q8C3BAE5","3HUR21WDDUBEMSLDIXZW1FAIHW8YX3","","null","<img src=""img/flower3.png"" style=""width:200px; border:14px solid green;"">","null","","","","","","","","",""
"","image-keyboard-response","158","46205","0.0-158.0","3FFJ6VRIL2AMLMYR25TOVWP7PL10IZ","A1FKK1Q8C3BAE5","3HUR21WDDUBEMSLDIXZW1FAIHW8YX3","","8","img/flower3.png","76","10","3","1","3","2","1,0,0,1,1,0,1,0,1","0,0,1,1,0,1,0,1,1","2",""
"","html-keyboard-response","159","46533","0.0-159.0","3FFJ6VRIL2AMLMYR25TOVWP7PL10IZ","A1FKK1Q8C3BAE5","3HUR21WDDUBEMSLDIXZW1FAIHW8YX3","","null","<img src=""img/flower3.png"" style=""width:200px; border:14px solid green;"">","null","","","","","","","","",""
"","image-keyboard-response","160","46556","0.0-160.0","3FFJ6VRIL2AMLMYR25TOVWP7PL10IZ","A1FKK1Q8C3BAE5","3HUR21WDDUBEMSLDIXZW1FAIHW8YX3","","22","img/flower3.png","76","23","3","1","3","2","1,0,0,1,1,0,1,0,1","0,0,1,1,0,1,0,1,1","2",""
"","html-keyboard-response","161","46858","0.0-161.0","3FFJ6VRIL2AMLMYR25TOVWP7PL10IZ","A1FKK1Q8C3BAE5","3HUR21WDDUBEMSLDIXZW1FAIHW8YX3","","null","<img src=""img/flower3.png"" style=""width:200px; border:14px solid green;"">","null","","","","","","","","",""
"","image-keyboard-response","162","46905","0.0-162.0","3FFJ6VRIL2AMLMYR25TOVWP7PL10IZ","A1FKK1Q8C3BAE5","3HUR21WDDUBEMSLDIXZW1FAIHW8YX3","","42","img/flower3.png","76","45","3","1","3","2","1,0,0,1,1,0,1,0,1","0,0,1,1,0,1,0,1,1","2",""
"","html-keyboard-response","163","47207","0.0-163.0","3FFJ6VRIL2AMLMYR25TOVWP7PL10IZ","A1FKK1Q8C3BAE5","3HUR21WDDUBEMSLDIXZW1FAIHW8YX3","","null","<img src=""img/flower3.png"" style=""width:200px; border:14px solid green;"">","null","","","","","","","","",""
"","image-keyboard-response","164","47302","0.0-164.0","3FFJ6VRIL2AMLMYR25TOVWP7PL10IZ","A1FKK1Q8C3BAE5","3HUR21WDDUBEMSLDIXZW1FAIHW8YX3","","93","img/flower2.png","76","95","3","1","1","2","1,0,0,1,1,0,1,0,1","0,0,1,1,0,1,0,1,1","2",""
"","html-keyboard-response","165","47605","0.0-165.0","3FFJ6VRIL2AMLMYR25TOVWP7PL10IZ","A1FKK1Q8C3BAE5","3HUR21WDDUBEMSLDIXZW1FAIHW8YX3","","null","<img src=""img/flower2.png"" style=""width:200px; border:14px solid green;"">","null","","","","","","","","",""
"","image-keyboard-response","166","47670","0.0-166.0","3FFJ6VRIL2AMLMYR25TOVWP7PL10IZ","A1FKK1Q8C3BAE5","3HUR21WDDUBEMSLDIXZW1FAIHW8YX3","","58","img/flower2.png","76","61","3","1","1","2","1,0,0,1,1,0,1,0,1","0,0,1,1,0,1,0,1,1","2",""
"","html-keyboard-response","167","47973","0.0-167.0","3FFJ6VRIL2AMLMYR25TOVWP7PL10IZ","A1FKK1Q8C3BAE5","3HUR21WDDUBEMSLDIXZW1FAIHW8YX3","","null","<img src=""img/flower2.png"" style=""width:200px; border:14px solid green;"">","null","","","","","","","","",""
"","image-keyboard-response","168","48104","0.0-168.0","3FFJ6VRIL2AMLMYR25TOVWP7PL10IZ","A1FKK1Q8C3BAE5","3HUR21WDDUBEMSLDIXZW1FAIHW8YX3","","126","img/flower5.png","76","129","3","1","2","2","1,0,0,1,1,0,1,0,1","0,0,1,1,0,1,0,1,1","2",""
"","html-keyboard-response","169","48407","0.0-169.0","3FFJ6VRIL2AMLMYR25TOVWP7PL10IZ","A1FKK1Q8C3BAE5","3HUR21WDDUBEMSLDIXZW1FAIHW8YX3","","null","<img src=""img/flower5.png"" style=""width:200px; border:14px solid green;"">","null","","","","","","","","",""
"","image-keyboard-response","170","48590","0.0-170.0","3FFJ6VRIL2AMLMYR25TOVWP7PL10IZ","A1FKK1Q8C3BAE5","3HUR21WDDUBEMSLDIXZW1FAIHW8YX3","","180","img/flower5.png","76","181","3","1","2","2","1,0,0,1,1,0,1,0,1","0,0,1,1,0,1,0,1,1","2",""
"","html-keyboard-response","171","48893","0.0-171.0","3FFJ6VRIL2AMLMYR25TOVWP7PL10IZ","A1FKK1Q8C3BAE5","3HUR21WDDUBEMSLDIXZW1FAIHW8YX3","","null","<img src=""img/flower5.png"" style=""width:200px; border:14px solid green;"">","null","","","","","","","","",""
"","image-keyboard-response","172","48990","0.0-172.0","3FFJ6VRIL2AMLMYR25TOVWP7PL10IZ","A1FKK1Q8C3BAE5","3HUR21WDDUBEMSLDIXZW1FAIHW8YX3","","93","img/flower5.png","76","96","3","1","2","2","1,0,0,1,1,0,1,0,1","0,0,1,1,0,1,0,1,1","2",""
"","html-keyboard-response","173","49456","0.0-173.0","3FFJ6VRIL2AMLMYR25TOVWP7PL10IZ","A1FKK1Q8C3BAE5","3HUR21WDDUBEMSLDIXZW1FAIHW8YX3","","null","<img src=""img/flower5.png"" style=""width:200px; border:14px solid green;"">","null","","","","","","","","",""
"","image-keyboard-response","174","49539","0.0-174.0","3FFJ6VRIL2AMLMYR25TOVWP7PL10IZ","A1FKK1Q8C3BAE5","3HUR21WDDUBEMSLDIXZW1FAIHW8YX3","","78","img/flower2.png","76","80","3","1","1","2","1,0,0,1,1,0,1,0,1","0,0,1,1,0,1,0,1,1","2",""
"","html-keyboard-response","175","49842","0.0-175.0","3FFJ6VRIL2AMLMYR25TOVWP7PL10IZ","A1FKK1Q8C3BAE5","3HUR21WDDUBEMSLDIXZW1FAIHW8YX3","","null","<img src=""img/flower2.png"" style=""width:200px; border:14px solid green;"">","null","","","","","","","","",""
"","image-keyboard-response","176","50021","0.0-176.0","3FFJ6VRIL2AMLMYR25TOVWP7PL10IZ","A1FKK1Q8C3BAE5","3HUR21WDDUBEMSLDIXZW1FAIHW8YX3","","178","img/flower2.png","75","180","2","0","1","2","1,0,0,1,1,0,1,0,1","0,0,1,1,0,1,0,1,1","2",""
"","html-keyboard-response","177","50323","0.0-177.0","3FFJ6VRIL2AMLMYR25TOVWP7PL10IZ","A1FKK1Q8C3BAE5","3HUR21WDDUBEMSLDIXZW1FAIHW8YX3","","null","<img src=""img/flower2.png"" style=""width:200px;border:14px solid red;"">","null","","","","","","","","",""
"","image-keyboard-response","178","50455","0.0-178.0","3FFJ6VRIL2AMLMYR25TOVWP7PL10IZ","A1FKK1Q8C3BAE5","3HUR21WDDUBEMSLDIXZW1FAIHW8YX3","","128","img/flower5.png","75","130","2","0","2","2","1,0,0,1,1,0,1,0,1","0,0,1,1,0,1,0,1,1","2",""
"","html-keyboard-response","179","50757","0.0-179.0","3FFJ6VRIL2AMLMYR25TOVWP7PL10IZ","A1FKK1Q8C3BAE5","3HUR21WDDUBEMSLDIXZW1FAIHW8YX3","","null","<img src=""img/flower5.png"" style=""width:200px;border:14px solid red;"">","null","","","","","","","","",""
"","image-keyboard-response","180","50861","0.0-180.0","3FFJ6VRIL2AMLMYR25TOVWP7PL10IZ","A1FKK1Q8C3BAE5","3HUR21WDDUBEMSLDIXZW1FAIHW8YX3","","102","img/flower3.png","76","102","3","1","3","2","1,0,0,1,1,0,1,0,1","0,0,1,1,0,1,0,1,1","2",""
"","html-keyboard-response","181","51165","0.0-181.0","3FFJ6VRIL2AMLMYR25TOVWP7PL10IZ","A1FKK1Q8C3BAE5","3HUR21WDDUBEMSLDIXZW1FAIHW8YX3","","null","<img src=""img/flower3.png"" style=""width:200px; border:14px solid green;"">","null","","","","","","","","",""
"","image-keyboard-response","182","51232","0.0-182.0","3FFJ6VRIL2AMLMYR25TOVWP7PL10IZ","A1FKK1Q8C3BAE5","3HUR21WDDUBEMSLDIXZW1FAIHW8YX3","","65","img/flower6.png","76","66","3","1","2","1","1,0.333,0.333,0.333,1,0.333,0.333,0.333,1","1,0.333,0.333,0.333,1,0.333,0.333,0.333,1","1",""
"","html-keyboard-response","183","51535","0.0-183.0","3FFJ6VRIL2AMLMYR25TOVWP7PL10IZ","A1FKK1Q8C3BAE5","3HUR21WDDUBEMSLDIXZW1FAIHW8YX3","","null","<img src=""img/flower6.png"" style=""width:200px; border:14px solid green;"">","null","","","","","","","","",""
"","image-keyboard-response","184","51632","0.0-184.0","3FFJ6VRIL2AMLMYR25TOVWP7PL10IZ","A1FKK1Q8C3BAE5","3HUR21WDDUBEMSLDIXZW1FAIHW8YX3","","93","img/flower4.png","76","95","3","1","3","1","1,0.333,0.333,0.333,1,0.333,0.333,0.333,1","1,0.333,0.333,0.333,1,0.333,0.333,0.333,1","1",""
"","html-keyboard-response","185","51938","0.0-185.0","3FFJ6VRIL2AMLMYR25TOVWP7PL10IZ","A1FKK1Q8C3BAE5","3HUR21WDDUBEMSLDIXZW1FAIHW8YX3","","null","<img src=""img/flower4.png"" style=""width:200px; border:14px solid green;"">","null","","","","","","","","",""
"","image-keyboard-response","186","52084","0.0-186.0","3FFJ6VRIL2AMLMYR25TOVWP7PL10IZ","A1FKK1Q8C3BAE5","3HUR21WDDUBEMSLDIXZW1FAIHW8YX3","","143","img/flower4.png","76","145","3","1","3","1","1,0.333,0.333,0.333,1,0.333,0.333,0.333,1","1,0.333,0.333,0.333,1,0.333,0.333,0.333,1","1",""
"","html-keyboard-response","187","52385","0.0-187.0","3FFJ6VRIL2AMLMYR25TOVWP7PL10IZ","A1FKK1Q8C3BAE5","3HUR21WDDUBEMSLDIXZW1FAIHW8YX3","","null","<img src=""img/flower4.png"" style=""width:200px; border:14px solid green;"">","null","","","","","","","","",""
"","image-keyboard-response","188","52422","0.0-188.0","3FFJ6VRIL2AMLMYR25TOVWP7PL10IZ","A1FKK1Q8C3BAE5","3HUR21WDDUBEMSLDIXZW1FAIHW8YX3","","35","img/flower6.png","76","36","3","0","2","1","1,0.333,0.333,0.333,1,0.333,0.333,0.333,1","1,0.333,0.333,0.333,1,0.333,0.333,0.333,1","1",""
"","html-keyboard-response","189","52725","0.0-189.0","3FFJ6VRIL2AMLMYR25TOVWP7PL10IZ","A1FKK1Q8C3BAE5","3HUR21WDDUBEMSLDIXZW1FAIHW8YX3","","null","<img src=""img/flower6.png"" style=""width:200px;border:14px solid red;"">","null","","","","","","","","",""
"","image-keyboard-response","190","52823","0.0-190.0","3FFJ6VRIL2AMLMYR25TOVWP7PL10IZ","A1FKK1Q8C3BAE5","3HUR21WDDUBEMSLDIXZW1FAIHW8YX3","","92","img/flower6.png","76","95","3","0","2","1","1,0.333,0.333,0.333,1,0.333,0.333,0.333,1","1,0.333,0.333,0.333,1,0.333,0.333,0.333,1","1",""
"","html-keyboard-response","191","53133","0.0-191.0","3FFJ6VRIL2AMLMYR25TOVWP7PL10IZ","A1FKK1Q8C3BAE5","3HUR21WDDUBEMSLDIXZW1FAIHW8YX3","","null","<img src=""img/flower6.png"" style=""width:200px;border:14px solid red;"">","null","","","","","","","","",""
"","image-keyboard-response","192","53224","0.0-192.0","3FFJ6VRIL2AMLMYR25TOVWP7PL10IZ","A1FKK1Q8C3BAE5","3HUR21WDDUBEMSLDIXZW1FAIHW8YX3","","82","img/flower6.png","76","88","3","1","2","1","1,0.333,0.333,0.333,1,0.333,0.333,0.333,1","1,0.333,0.333,0.333,1,0.333,0.333,0.333,1","1",""
"","html-keyboard-response","193","53526","0.0-193.0","3FFJ6VRIL2AMLMYR25TOVWP7PL10IZ","A1FKK1Q8C3BAE5","3HUR21WDDUBEMSLDIXZW1FAIHW8YX3","","null","<img src=""img/flower6.png"" style=""width:200px; border:14px solid green;"">","null","","","","","","","","",""
"","image-keyboard-response","194","53631","0.0-194.0","3FFJ6VRIL2AMLMYR25TOVWP7PL10IZ","A1FKK1Q8C3BAE5","3HUR21WDDUBEMSLDIXZW1FAIHW8YX3","","101","img/flower1.png","76","104","3","1","1","1","1,0.333,0.333,0.333,1,0.333,0.333,0.333,1","1,0.333,0.333,0.333,1,0.333,0.333,0.333,1","1",""
"","html-keyboard-response","195","53934","0.0-195.0","3FFJ6VRIL2AMLMYR25TOVWP7PL10IZ","A1FKK1Q8C3BAE5","3HUR21WDDUBEMSLDIXZW1FAIHW8YX3","","null","<img src=""img/flower1.png"" style=""width:200px; border:14px solid green;"">","null","","","","","","","","",""
"","image-keyboard-response","196","54060","0.0-196.0","3FFJ6VRIL2AMLMYR25TOVWP7PL10IZ","A1FKK1Q8C3BAE5","3HUR21WDDUBEMSLDIXZW1FAIHW8YX3","","122","img/flower1.png","76","125","3","1","1","1","1,0.333,0.333,0.333,1,0.333,0.333,0.333,1","1,0.333,0.333,0.333,1,0.333,0.333,0.333,1","1",""
"","html-keyboard-response","197","54364","0.0-197.0","3FFJ6VRIL2AMLMYR25TOVWP7PL10IZ","A1FKK1Q8C3BAE5","3HUR21WDDUBEMSLDIXZW1FAIHW8YX3","","null","<img src=""img/flower1.png"" style=""width:200px; border:14px solid green;"">","null","","","","","","","","",""
"","image-keyboard-response","198","54526","0.0-198.0","3FFJ6VRIL2AMLMYR25TOVWP7PL10IZ","A1FKK1Q8C3BAE5","3HUR21WDDUBEMSLDIXZW1FAIHW8YX3","","156","img/flower1.png","76","159","3","1","1","1","1,0.333,0.333,0.333,1,0.333,0.333,0.333,1","1,0.333,0.333,0.333,1,0.333,0.333,0.333,1","1",""
"","html-keyboard-response","199","54829","0.0-199.0","3FFJ6VRIL2AMLMYR25TOVWP7PL10IZ","A1FKK1Q8C3BAE5","3HUR21WDDUBEMSLDIXZW1FAIHW8YX3","","null","<img src=""img/flower1.png"" style=""width:200px; border:14px solid green;"">","null","","","","","","","","",""
"","image-keyboard-response","200","54975","0.0-200.0","3FFJ6VRIL2AMLMYR25TOVWP7PL10IZ","A1FKK1Q8C3BAE5","3HUR21WDDUBEMSLDIXZW1FAIHW8YX3","","144","img/flower1.png","76","145","3","0","1","1","1,0.333,0.333,0.333,1,0.333,0.333,0.333,1","1,0.333,0.333,0.333,1,0.333,0.333,0.333,1","1",""
"","html-keyboard-response","201","55281","0.0-201.0","3FFJ6VRIL2AMLMYR25TOVWP7PL10IZ","A1FKK1Q8C3BAE5","3HUR21WDDUBEMSLDIXZW1FAIHW8YX3","","null","<img src=""img/flower1.png"" style=""width:200px;border:14px solid red;"">","null","","","","","","","","",""
"","image-keyboard-response","202","55437","0.0-202.0","3FFJ6VRIL2AMLMYR25TOVWP7PL10IZ","A1FKK1Q8C3BAE5","3HUR21WDDUBEMSLDIXZW1FAIHW8YX3","","153","img/flower6.png","76","155","3","0","2","1","1,0.333,0.333,0.333,1,0.333,0.333,0.333,1","1,0.333,0.333,0.333,1,0.333,0.333,0.333,1","1",""
"","html-keyboard-response","203","55739","0.0-203.0","3FFJ6VRIL2AMLMYR25TOVWP7PL10IZ","A1FKK1Q8C3BAE5","3HUR21WDDUBEMSLDIXZW1FAIHW8YX3","","null","<img src=""img/flower6.png"" style=""width:200px;border:14px solid red;"">","null","","","","","","","","",""
"","image-keyboard-response","204","55870","0.0-204.0","3FFJ6VRIL2AMLMYR25TOVWP7PL10IZ","A1FKK1Q8C3BAE5","3HUR21WDDUBEMSLDIXZW1FAIHW8YX3","","129","img/flower1.png","76","131","3","0","1","1","1,0.333,0.333,0.333,1,0.333,0.333,0.333,1","1,0.333,0.333,0.333,1,0.333,0.333,0.333,1","1",""
"","html-keyboard-response","205","56174","0.0-205.0","3FFJ6VRIL2AMLMYR25TOVWP7PL10IZ","A1FKK1Q8C3BAE5","3HUR21WDDUBEMSLDIXZW1FAIHW8YX3","","null","<img src=""img/flower1.png"" style=""width:200px;border:14px solid red;"">","null","","","","","","","","",""
"","image-keyboard-response","206","56325","0.0-206.0","3FFJ6VRIL2AMLMYR25TOVWP7PL10IZ","A1FKK1Q8C3BAE5","3HUR21WDDUBEMSLDIXZW1FAIHW8YX3","","149","img/flower6.png","76","150","3","0","2","1","1,0.333,0.333,0.333,1,0.333,0.333,0.333,1","1,0.333,0.333,0.333,1,0.333,0.333,0.333,1","1",""
"","html-keyboard-response","207","56631","0.0-207.0","3FFJ6VRIL2AMLMYR25TOVWP7PL10IZ","A1FKK1Q8C3BAE5","3HUR21WDDUBEMSLDIXZW1FAIHW8YX3","","null","<img src=""img/flower6.png"" style=""width:200px;border:14px solid red;"">","null","","","","","","","","",""
"","image-keyboard-response","208","56758","0.0-208.0","3FFJ6VRIL2AMLMYR25TOVWP7PL10IZ","A1FKK1Q8C3BAE5","3HUR21WDDUBEMSLDIXZW1FAIHW8YX3","","124","img/flower1.png","76","125","3","0","1","1","1,0.333,0.333,0.333,1,0.333,0.333,0.333,1","1,0.333,0.333,0.333,1,0.333,0.333,0.333,1","1",""
"","html-keyboard-response","209","57061","0.0-209.0","3FFJ6VRIL2AMLMYR25TOVWP7PL10IZ","A1FKK1Q8C3BAE5","3HUR21WDDUBEMSLDIXZW1FAIHW8YX3","","null","<img src=""img/flower1.png"" style=""width:200px;border:14px solid red;"">","null","","","","","","","","",""
"","image-keyboard-response","210","57191","0.0-210.0","3FFJ6VRIL2AMLMYR25TOVWP7PL10IZ","A1FKK1Q8C3BAE5","3HUR21WDDUBEMSLDIXZW1FAIHW8YX3","","127","img/flower4.png","76","129","3","1","3","1","1,0.333,0.333,0.333,1,0.333,0.333,0.333,1","1,0.333,0.333,0.333,1,0.333,0.333,0.333,1","1",""
"","html-keyboard-response","211","57494","0.0-211.0","3FFJ6VRIL2AMLMYR25TOVWP7PL10IZ","A1FKK1Q8C3BAE5","3HUR21WDDUBEMSLDIXZW1FAIHW8YX3","","null","<img src=""img/flower4.png"" style=""width:200px; border:14px solid green;"">","null","","","","","","","","",""
"","image-keyboard-response","212","57686","0.0-212.0","3FFJ6VRIL2AMLMYR25TOVWP7PL10IZ","A1FKK1Q8C3BAE5","3HUR21WDDUBEMSLDIXZW1FAIHW8YX3","","189","img/flower4.png","74","191","1","1","3","1","1,0.333,0.333,0.333,1,0.333,0.333,0.333,1","1,0.333,0.333,0.333,1,0.333,0.333,0.333,1","1",""
"","html-keyboard-response","213","57989","0.0-213.0","3FFJ6VRIL2AMLMYR25TOVWP7PL10IZ","A1FKK1Q8C3BAE5","3HUR21WDDUBEMSLDIXZW1FAIHW8YX3","","null","<img src=""img/flower4.png"" style=""width:200px; border:14px solid green;"">","null","","","","","","","","",""
"","image-keyboard-response","214","58148","0.0-214.0","3FFJ6VRIL2AMLMYR25TOVWP7PL10IZ","A1FKK1Q8C3BAE5","3HUR21WDDUBEMSLDIXZW1FAIHW8YX3","","154","img/flower4.png","74","155","1","0","3","1","1,0.333,0.333,0.333,1,0.333,0.333,0.333,1","1,0.333,0.333,0.333,1,0.333,0.333,0.333,1","1",""
"","html-keyboard-response","215","58450","0.0-215.0","3FFJ6VRIL2AMLMYR25TOVWP7PL10IZ","A1FKK1Q8C3BAE5","3HUR21WDDUBEMSLDIXZW1FAIHW8YX3","","null","<img src=""img/flower4.png"" style=""width:200px;border:14px solid red;"">","null","","","","","","","","",""
"","image-keyboard-response","216","58619","0.0-216.0","3FFJ6VRIL2AMLMYR25TOVWP7PL10IZ","A1FKK1Q8C3BAE5","3HUR21WDDUBEMSLDIXZW1FAIHW8YX3","","163","img/flower4.png","74","168","1","1","3","1","1,0.333,0.333,0.333,1,0.333,0.333,0.333,1","1,0.333,0.333,0.333,1,0.333,0.333,0.333,1","1",""
"","html-keyboard-response","217","58919","0.0-217.0","3FFJ6VRIL2AMLMYR25TOVWP7PL10IZ","A1FKK1Q8C3BAE5","3HUR21WDDUBEMSLDIXZW1FAIHW8YX3","","null","<img src=""img/flower4.png"" style=""width:200px; border:14px solid green;"">","null","","","","","","","","",""
"","image-keyboard-response","218","59032","0.0-218.0","3FFJ6VRIL2AMLMYR25TOVWP7PL10IZ","A1FKK1Q8C3BAE5","3HUR21WDDUBEMSLDIXZW1FAIHW8YX3","","110","img/flower4.png","74","112","1","0","3","1","1,0.333,0.333,0.333,1,0.333,0.333,0.333,1","1,0.333,0.333,0.333,1,0.333,0.333,0.333,1","1",""
"","html-keyboard-response","219","59336","0.0-219.0","3FFJ6VRIL2AMLMYR25TOVWP7PL10IZ","A1FKK1Q8C3BAE5","3HUR21WDDUBEMSLDIXZW1FAIHW8YX3","","null","<img src=""img/flower4.png"" style=""width:200px;border:14px solid red;"">","null","","","","","","","","",""
"","image-keyboard-response","220","59526","0.0-220.0","3FFJ6VRIL2AMLMYR25TOVWP7PL10IZ","A1FKK1Q8C3BAE5","3HUR21WDDUBEMSLDIXZW1FAIHW8YX3","","189","img/flower1.png","74","190","1","1","1","1","1,0.333,0.333,0.333,1,0.333,0.333,0.333,1","1,0.333,0.333,0.333,1,0.333,0.333,0.333,1","1",""
"","html-keyboard-response","221","59831","0.0-221.0","3FFJ6VRIL2AMLMYR25TOVWP7PL10IZ","A1FKK1Q8C3BAE5","3HUR21WDDUBEMSLDIXZW1FAIHW8YX3","","null","<img src=""img/flower1.png"" style=""width:200px; border:14px solid green;"">","null","","","","","","","","",""
"","image-keyboard-response","222","59869","0.0-222.0","3FFJ6VRIL2AMLMYR25TOVWP7PL10IZ","A1FKK1Q8C3BAE5","3HUR21WDDUBEMSLDIXZW1FAIHW8YX3","","33","img/flower6.png","76","35","3","0","2","1","1,0.333,0.333,0.333,1,0.333,0.333,0.333,1","1,0.333,0.333,0.333,1,0.333,0.333,0.333,1","1",""
"","html-keyboard-response","223","60172","0.0-223.0","3FFJ6VRIL2AMLMYR25TOVWP7PL10IZ","A1FKK1Q8C3BAE5","3HUR21WDDUBEMSLDIXZW1FAIHW8YX3","","null","<img src=""img/flower6.png"" style=""width:200px;border:14px solid red;"">","null","","","","","","","","",""
"","image-keyboard-response","224","60239","0.0-224.0","3FFJ6VRIL2AMLMYR25TOVWP7PL10IZ","A1FKK1Q8C3BAE5","3HUR21WDDUBEMSLDIXZW1FAIHW8YX3","","62","img/flower6.png","76","65","3","1","2","1","1,0.333,0.333,0.333,1,0.333,0.333,0.333,1","1,0.333,0.333,0.333,1,0.333,0.333,0.333,1","1",""
"","html-keyboard-response","225","60540","0.0-225.0","3FFJ6VRIL2AMLMYR25TOVWP7PL10IZ","A1FKK1Q8C3BAE5","3HUR21WDDUBEMSLDIXZW1FAIHW8YX3","","null","<img src=""img/flower6.png"" style=""width:200px; border:14px solid green;"">","null","","","","","","","","",""
"","image-keyboard-response","226","60629","0.0-226.0","3FFJ6VRIL2AMLMYR25TOVWP7PL10IZ","A1FKK1Q8C3BAE5","3HUR21WDDUBEMSLDIXZW1FAIHW8YX3","","88","img/flower6.png","74","88","1","1","2","1","1,0.333,0.333,0.333,1,0.333,0.333,0.333,1","1,0.333,0.333,0.333,1,0.333,0.333,0.333,1","1",""
"","html-keyboard-response","227","60929","0.0-227.0","3FFJ6VRIL2AMLMYR25TOVWP7PL10IZ","A1FKK1Q8C3BAE5","3HUR21WDDUBEMSLDIXZW1FAIHW8YX3","","null","<img src=""img/flower6.png"" style=""width:200px; border:14px solid green;"">","null","","","","","","","","",""
"","image-keyboard-response","228","61006","0.0-228.0","3FFJ6VRIL2AMLMYR25TOVWP7PL10IZ","A1FKK1Q8C3BAE5","3HUR21WDDUBEMSLDIXZW1FAIHW8YX3","","75","img/flower4.png","74","77","1","0","3","1","1,0.333,0.333,0.333,1,0.333,0.333,0.333,1","1,0.333,0.333,0.333,1,0.333,0.333,0.333,1","1",""
"","html-keyboard-response","229","61309","0.0-229.0","3FFJ6VRIL2AMLMYR25TOVWP7PL10IZ","A1FKK1Q8C3BAE5","3HUR21WDDUBEMSLDIXZW1FAIHW8YX3","","null","<img src=""img/flower4.png"" style=""width:200px;border:14px solid red;"">","null","","","","","","","","",""
"","image-keyboard-response","230","61400","0.0-230.0","3FFJ6VRIL2AMLMYR25TOVWP7PL10IZ","A1FKK1Q8C3BAE5","3HUR21WDDUBEMSLDIXZW1FAIHW8YX3","","88","img/flower6.png","74","90","1","1","2","1","1,0.333,0.333,0.333,1,0.333,0.333,0.333,1","1,0.333,0.333,0.333,1,0.333,0.333,0.333,1","1",""
"","html-keyboard-response","231","61704","0.0-231.0","3FFJ6VRIL2AMLMYR25TOVWP7PL10IZ","A1FKK1Q8C3BAE5","3HUR21WDDUBEMSLDIXZW1FAIHW8YX3","","null","<img src=""img/flower6.png"" style=""width:200px; border:14px solid green;"">","null","","","","","","","","",""
"","image-keyboard-response","232","61724","0.0-232.0","3FFJ6VRIL2AMLMYR25TOVWP7PL10IZ","A1FKK1Q8C3BAE5","3HUR21WDDUBEMSLDIXZW1FAIHW8YX3","","18","img/flower1.png","76","19","3","0","1","1","1,0.333,0.333,0.333,1,0.333,0.333,0.333,1","1,0.333,0.333,0.333,1,0.333,0.333,0.333,1","1",""
"","html-keyboard-response","233","62025","0.0-233.0","3FFJ6VRIL2AMLMYR25TOVWP7PL10IZ","A1FKK1Q8C3BAE5","3HUR21WDDUBEMSLDIXZW1FAIHW8YX3","","null","<img src=""img/flower1.png"" style=""width:200px;border:14px solid red;"">","null","","","","","","","","",""
"","image-keyboard-response","234","62102","0.0-234.0","3FFJ6VRIL2AMLMYR25TOVWP7PL10IZ","A1FKK1Q8C3BAE5","3HUR21WDDUBEMSLDIXZW1FAIHW8YX3","","74","img/flower6.png","74","76","1","0","2","1","1,0.333,0.333,0.333,1,0.333,0.333,0.333,1","1,0.333,0.333,0.333,1,0.333,0.333,0.333,1","1",""
"","html-keyboard-response","235","62405","0.0-235.0","3FFJ6VRIL2AMLMYR25TOVWP7PL10IZ","A1FKK1Q8C3BAE5","3HUR21WDDUBEMSLDIXZW1FAIHW8YX3","","null","<img src=""img/flower6.png"" style=""width:200px;border:14px solid red;"">","null","","","","","","","","",""
"","image-keyboard-response","236","62567","0.0-236.0","3FFJ6VRIL2AMLMYR25TOVWP7PL10IZ","A1FKK1Q8C3BAE5","3HUR21WDDUBEMSLDIXZW1FAIHW8YX3","","159","img/flower4.png","74","161","1","0","3","1","1,0.333,0.333,0.333,1,0.333,0.333,0.333,1","1,0.333,0.333,0.333,1,0.333,0.333,0.333,1","1",""
"","html-keyboard-response","237","62871","0.0-237.0","3FFJ6VRIL2AMLMYR25TOVWP7PL10IZ","A1FKK1Q8C3BAE5","3HUR21WDDUBEMSLDIXZW1FAIHW8YX3","","null","<img src=""img/flower4.png"" style=""width:200px;border:14px solid red;"">","null","","","","","","","","",""
"","image-keyboard-response","238","62882","0.0-238.0","3FFJ6VRIL2AMLMYR25TOVWP7PL10IZ","A1FKK1Q8C3BAE5","3HUR21WDDUBEMSLDIXZW1FAIHW8YX3","","8","img/flower6.png","74","10","1","1","2","1","1,0.333,0.333,0.333,1,0.333,0.333,0.333,1","1,0.333,0.333,0.333,1,0.333,0.333,0.333,1","1",""
"","html-keyboard-response","239","63187","0.0-239.0","3FFJ6VRIL2AMLMYR25TOVWP7PL10IZ","A1FKK1Q8C3BAE5","3HUR21WDDUBEMSLDIXZW1FAIHW8YX3","","null","<img src=""img/flower6.png"" style=""width:200px; border:14px solid green;"">","null","","","","","","","","",""
"","image-keyboard-response","240","63221","0.0-240.0","3FFJ6VRIL2AMLMYR25TOVWP7PL10IZ","A1FKK1Q8C3BAE5","3HUR21WDDUBEMSLDIXZW1FAIHW8YX3","","30","img/flower4.png","74","32","1","1","3","1","1,0.333,0.333,0.333,1,0.333,0.333,0.333,1","1,0.333,0.333,0.333,1,0.333,0.333,0.333,1","1",""
"","html-keyboard-response","241","63524","0.0-241.0","3FFJ6VRIL2AMLMYR25TOVWP7PL10IZ","A1FKK1Q8C3BAE5","3HUR21WDDUBEMSLDIXZW1FAIHW8YX3","","null","<img src=""img/flower4.png"" style=""width:200px; border:14px solid green;"">","null","","","","","","","","",""
"","image-keyboard-response","242","63534","0.0-242.0","3FFJ6VRIL2AMLMYR25TOVWP7PL10IZ","A1FKK1Q8C3BAE5","3HUR21WDDUBEMSLDIXZW1FAIHW8YX3","","8","img/flower6.png","76","9","3","0","2","1","1,0.333,0.333,0.333,1,0.333,0.333,0.333,1","1,0.333,0.333,0.333,1,0.333,0.333,0.333,1","1",""
"","html-keyboard-response","243","63835","0.0-243.0","3FFJ6VRIL2AMLMYR25TOVWP7PL10IZ","A1FKK1Q8C3BAE5","3HUR21WDDUBEMSLDIXZW1FAIHW8YX3","","null","<img src=""img/flower6.png"" style=""width:200px;border:14px solid red;"">","null","","","","","","","","",""
"","image-keyboard-response","244","63900","0.0-244.0","3FFJ6VRIL2AMLMYR25TOVWP7PL10IZ","A1FKK1Q8C3BAE5","3HUR21WDDUBEMSLDIXZW1FAIHW8YX3","","63","img/flower6.png","76","65","3","0","2","1","1,0.333,0.333,0.333,1,0.333,0.333,0.333,1","1,0.333,0.333,0.333,1,0.333,0.333,0.333,1","1",""
"","html-keyboard-response","245","64203","0.0-245.0","3FFJ6VRIL2AMLMYR25TOVWP7PL10IZ","A1FKK1Q8C3BAE5","3HUR21WDDUBEMSLDIXZW1FAIHW8YX3","","null","<img src=""img/flower6.png"" style=""width:200px;border:14px solid red;"">","null","","","","","","","","",""
"","image-keyboard-response","246","64265","0.0-246.0","3FFJ6VRIL2AMLMYR25TOVWP7PL10IZ","A1FKK1Q8C3BAE5","3HUR21WDDUBEMSLDIXZW1FAIHW8YX3","","60","img/flower4.png","76","61","3","1","3","1","1,0.333,0.333,0.333,1,0.333,0.333,0.333,1","1,0.333,0.333,0.333,1,0.333,0.333,0.333,1","1",""
"","html-keyboard-response","247","64607","0.0-247.0","3FFJ6VRIL2AMLMYR25TOVWP7PL10IZ","A1FKK1Q8C3BAE5","3HUR21WDDUBEMSLDIXZW1FAIHW8YX3","","null","<img src=""img/flower4.png"" style=""width:200px; border:14px solid green;"">","null","","","","","","","","",""
"","image-keyboard-response","248","64654","0.0-248.0","3FFJ6VRIL2AMLMYR25TOVWP7PL10IZ","A1FKK1Q8C3BAE5","3HUR21WDDUBEMSLDIXZW1FAIHW8YX3","","43","img/flower6.png","74","45","1","1","2","1","1,0.333,0.333,0.333,1,0.333,0.333,0.333,1","1,0.333,0.333,0.333,1,0.333,0.333,0.333,1","1",""
"","html-keyboard-response","249","64956","0.0-249.0","3FFJ6VRIL2AMLMYR25TOVWP7PL10IZ","A1FKK1Q8C3BAE5","3HUR21WDDUBEMSLDIXZW1FAIHW8YX3","","null","<img src=""img/flower6.png"" style=""width:200px; border:14px solid green;"">","null","","","","","","","","",""
"","image-keyboard-response","250","65086","0.0-250.0","3FFJ6VRIL2AMLMYR25TOVWP7PL10IZ","A1FKK1Q8C3BAE5","3HUR21WDDUBEMSLDIXZW1FAIHW8YX3","","127","img/flower1.png","74","129","1","1","1","1","1,0.333,0.333,0.333,1,0.333,0.333,0.333,1","1,0.333,0.333,0.333,1,0.333,0.333,0.333,1","1",""
"","html-keyboard-response","251","65390","0.0-251.0","3FFJ6VRIL2AMLMYR25TOVWP7PL10IZ","A1FKK1Q8C3BAE5","3HUR21WDDUBEMSLDIXZW1FAIHW8YX3","","null","<img src=""img/flower1.png"" style=""width:200px; border:14px solid green;"">","null","","","","","","","","",""
"","image-keyboard-response","252","65439","0.0-252.0","3FFJ6VRIL2AMLMYR25TOVWP7PL10IZ","A1FKK1Q8C3BAE5","3HUR21WDDUBEMSLDIXZW1FAIHW8YX3","","47","img/flower1.png","74","48","1","1","1","1","1,0.333,0.333,0.333,1,0.333,0.333,0.333,1","1,0.333,0.333,0.333,1,0.333,0.333,0.333,1","1",""
"","html-keyboard-response","253","65742","0.0-253.0","3FFJ6VRIL2AMLMYR25TOVWP7PL10IZ","A1FKK1Q8C3BAE5","3HUR21WDDUBEMSLDIXZW1FAIHW8YX3","","null","<img src=""img/flower1.png"" style=""width:200px; border:14px solid green;"">","null","","","","","","","","",""
"","image-keyboard-response","254","65795","0.0-254.0","3FFJ6VRIL2AMLMYR25TOVWP7PL10IZ","A1FKK1Q8C3BAE5","3HUR21WDDUBEMSLDIXZW1FAIHW8YX3","","48","img/flower4.png","74","51","1","0","3","1","1,0.333,0.333,0.333,1,0.333,0.333,0.333,1","1,0.333,0.333,0.333,1,0.333,0.333,0.333,1","1",""
"","html-keyboard-response","255","66098","0.0-255.0","3FFJ6VRIL2AMLMYR25TOVWP7PL10IZ","A1FKK1Q8C3BAE5","3HUR21WDDUBEMSLDIXZW1FAIHW8YX3","","null","<img src=""img/flower4.png"" style=""width:200px;border:14px solid red;"">","null","","","","","","","","",""
"","image-keyboard-response","256","66162","0.0-256.0","3FFJ6VRIL2AMLMYR25TOVWP7PL10IZ","A1FKK1Q8C3BAE5","3HUR21WDDUBEMSLDIXZW1FAIHW8YX3","","63","img/flower6.png","74","63","1","0","2","1","1,0.333,0.333,0.333,1,0.333,0.333,0.333,1","1,0.333,0.333,0.333,1,0.333,0.333,0.333,1","1",""
"","html-keyboard-response","257","66465","0.0-257.0","3FFJ6VRIL2AMLMYR25TOVWP7PL10IZ","A1FKK1Q8C3BAE5","3HUR21WDDUBEMSLDIXZW1FAIHW8YX3","","null","<img src=""img/flower6.png"" style=""width:200px;border:14px solid red;"">","null","","","","","","","","",""
"","image-keyboard-response","258","66544","0.0-258.0","3FFJ6VRIL2AMLMYR25TOVWP7PL10IZ","A1FKK1Q8C3BAE5","3HUR21WDDUBEMSLDIXZW1FAIHW8YX3","","75","img/flower1.png","74","76","1","1","1","1","1,0.333,0.333,0.333,1,0.333,0.333,0.333,1","1,0.333,0.333,0.333,1,0.333,0.333,0.333,1","1",""
"","html-keyboard-response","259","66949","0.0-259.0","3FFJ6VRIL2AMLMYR25TOVWP7PL10IZ","A1FKK1Q8C3BAE5","3HUR21WDDUBEMSLDIXZW1FAIHW8YX3","","null","<img src=""img/flower1.png"" style=""width:200px; border:14px solid green;"">","null","","","","","","","","",""
"","image-keyboard-response","260","67057","0.0-260.0","3FFJ6VRIL2AMLMYR25TOVWP7PL10IZ","A1FKK1Q8C3BAE5","3HUR21WDDUBEMSLDIXZW1FAIHW8YX3","","107","img/flower4.png","74","107","1","1","3","1","1,0.333,0.333,0.333,1,0.333,0.333,0.333,1","1,0.333,0.333,0.333,1,0.333,0.333,0.333,1","1",""
"","html-keyboard-response","261","67360","0.0-261.0","3FFJ6VRIL2AMLMYR25TOVWP7PL10IZ","A1FKK1Q8C3BAE5","3HUR21WDDUBEMSLDIXZW1FAIHW8YX3","","null","<img src=""img/flower4.png"" style=""width:200px; border:14px solid green;"">","null","","","","","","","","",""
"","image-keyboard-response","262","67503","0.0-262.0","3FFJ6VRIL2AMLMYR25TOVWP7PL10IZ","A1FKK1Q8C3BAE5","3HUR21WDDUBEMSLDIXZW1FAIHW8YX3","","140","img/flower4.png","74","142","1","0","3","1","1,0.333,0.333,0.333,1,0.333,0.333,0.333,1","1,0.333,0.333,0.333,1,0.333,0.333,0.333,1","1",""
"","html-keyboard-response","263","67805","0.0-263.0","3FFJ6VRIL2AMLMYR25TOVWP7PL10IZ","A1FKK1Q8C3BAE5","3HUR21WDDUBEMSLDIXZW1FAIHW8YX3","","null","<img src=""img/flower4.png"" style=""width:200px;border:14px solid red;"">","null","","","","","","","","",""
"","image-keyboard-response","264","67886","0.0-264.0","3FFJ6VRIL2AMLMYR25TOVWP7PL10IZ","A1FKK1Q8C3BAE5","3HUR21WDDUBEMSLDIXZW1FAIHW8YX3","","78","img/flower1.png","74","79","1","1","1","1","1,0.333,0.333,0.333,1,0.333,0.333,0.333,1","1,0.333,0.333,0.333,1,0.333,0.333,0.333,1","1",""
"","html-keyboard-response","265","68188","0.0-265.0","3FFJ6VRIL2AMLMYR25TOVWP7PL10IZ","A1FKK1Q8C3BAE5","3HUR21WDDUBEMSLDIXZW1FAIHW8YX3","","null","<img src=""img/flower1.png"" style=""width:200px; border:14px solid green;"">","null","","","","","","","","",""
"","image-keyboard-response","266","68273","0.0-266.0","3FFJ6VRIL2AMLMYR25TOVWP7PL10IZ","A1FKK1Q8C3BAE5","3HUR21WDDUBEMSLDIXZW1FAIHW8YX3","","82","img/flower4.png","74","84","1","0","3","1","1,0.333,0.333,0.333,1,0.333,0.333,0.333,1","1,0.333,0.333,0.333,1,0.333,0.333,0.333,1","1",""
"","html-keyboard-response","267","68576","0.0-267.0","3FFJ6VRIL2AMLMYR25TOVWP7PL10IZ","A1FKK1Q8C3BAE5","3HUR21WDDUBEMSLDIXZW1FAIHW8YX3","","null","<img src=""img/flower4.png"" style=""width:200px;border:14px solid red;"">","null","","","","","","","","",""
"","image-keyboard-response","268","68632","0.0-268.0","3FFJ6VRIL2AMLMYR25TOVWP7PL10IZ","A1FKK1Q8C3BAE5","3HUR21WDDUBEMSLDIXZW1FAIHW8YX3","","53","img/flower4.png","74","54","1","1","3","1","1,0.333,0.333,0.333,1,0.333,0.333,0.333,1","1,0.333,0.333,0.333,1,0.333,0.333,0.333,1","1",""
"","html-keyboard-response","269","68935","0.0-269.0","3FFJ6VRIL2AMLMYR25TOVWP7PL10IZ","A1FKK1Q8C3BAE5","3HUR21WDDUBEMSLDIXZW1FAIHW8YX3","","null","<img src=""img/flower4.png"" style=""width:200px; border:14px solid green;"">","null","","","","","","","","",""
"","image-keyboard-response","270","68959","0.0-270.0","3FFJ6VRIL2AMLMYR25TOVWP7PL10IZ","A1FKK1Q8C3BAE5","3HUR21WDDUBEMSLDIXZW1FAIHW8YX3","","21","img/flower1.png","74","24","1","1","1","1","1,0.333,0.333,0.333,1,0.333,0.333,0.333,1","1,0.333,0.333,0.333,1,0.333,0.333,0.333,1","1",""
"","html-keyboard-response","271","69260","0.0-271.0","3FFJ6VRIL2AMLMYR25TOVWP7PL10IZ","A1FKK1Q8C3BAE5","3HUR21WDDUBEMSLDIXZW1FAIHW8YX3","","null","<img src=""img/flower1.png"" style=""width:200px; border:14px solid green;"">","null","","","","","","","","",""
"","image-keyboard-response","272","69372","0.0-272.0","3FFJ6VRIL2AMLMYR25TOVWP7PL10IZ","A1FKK1Q8C3BAE5","3HUR21WDDUBEMSLDIXZW1FAIHW8YX3","","110","img/flower4.png","74","111","1","0","3","1","1,0.333,0.333,0.333,1,0.333,0.333,0.333,1","1,0.333,0.333,0.333,1,0.333,0.333,0.333,1","1",""
"","html-keyboard-response","273","69674","0.0-273.0","3FFJ6VRIL2AMLMYR25TOVWP7PL10IZ","A1FKK1Q8C3BAE5","3HUR21WDDUBEMSLDIXZW1FAIHW8YX3","","null","<img src=""img/flower4.png"" style=""width:200px;border:14px solid red;"">","null","","","","","","","","",""
"","image-keyboard-response","274","69861","0.0-274.0","3FFJ6VRIL2AMLMYR25TOVWP7PL10IZ","A1FKK1Q8C3BAE5","3HUR21WDDUBEMSLDIXZW1FAIHW8YX3","","185","img/flower1.png","74","186","1","1","1","1","1,0.333,0.333,0.333,1,0.333,0.333,0.333,1","1,0.333,0.333,0.333,1,0.333,0.333,0.333,1","1",""
"","html-keyboard-response","275","70163","0.0-275.0","3FFJ6VRIL2AMLMYR25TOVWP7PL10IZ","A1FKK1Q8C3BAE5","3HUR21WDDUBEMSLDIXZW1FAIHW8YX3","","null","<img src=""img/flower1.png"" style=""width:200px; border:14px solid green;"">","null","","","","","","","","",""
"","image-keyboard-response","276","70245","0.0-276.0","3FFJ6VRIL2AMLMYR25TOVWP7PL10IZ","A1FKK1Q8C3BAE5","3HUR21WDDUBEMSLDIXZW1FAIHW8YX3","","81","img/flower4.png","74","82","1","0","3","1","1,0.333,0.333,0.333,1,0.333,0.333,0.333,1","1,0.333,0.333,0.333,1,0.333,0.333,0.333,1","1",""
"","html-keyboard-response","277","70547","0.0-277.0","3FFJ6VRIL2AMLMYR25TOVWP7PL10IZ","A1FKK1Q8C3BAE5","3HUR21WDDUBEMSLDIXZW1FAIHW8YX3","","null","<img src=""img/flower4.png"" style=""width:200px;border:14px solid red;"">","null","","","","","","","","",""
"","image-keyboard-response","278","71551","0.0-278.0","3FFJ6VRIL2AMLMYR25TOVWP7PL10IZ","A1FKK1Q8C3BAE5","3HUR21WDDUBEMSLDIXZW1FAIHW8YX3","","1002","img/flower1.png","74","1003","1","1","1","1","1,0.333,0.333,0.333,1,0.333,0.333,0.333,1","1,0.333,0.333,0.333,1,0.333,0.333,0.333,1","1",""
"","html-keyboard-response","279","71858","0.0-279.0","3FFJ6VRIL2AMLMYR25TOVWP7PL10IZ","A1FKK1Q8C3BAE5","3HUR21WDDUBEMSLDIXZW1FAIHW8YX3","","null","<img src=""img/flower1.png"" style=""width:200px; border:14px solid green;"">","null","","","","","","","","",""
"","image-keyboard-response","280","71881","0.0-280.0","3FFJ6VRIL2AMLMYR25TOVWP7PL10IZ","A1FKK1Q8C3BAE5","3HUR21WDDUBEMSLDIXZW1FAIHW8YX3","","13","img/flower1.png","74","19","1","1","1","1","1,0.333,0.333,0.333,1,0.333,0.333,0.333,1","1,0.333,0.333,0.333,1,0.333,0.333,0.333,1","1",""
"","html-keyboard-response","281","72182","0.0-281.0","3FFJ6VRIL2AMLMYR25TOVWP7PL10IZ","A1FKK1Q8C3BAE5","3HUR21WDDUBEMSLDIXZW1FAIHW8YX3","","null","<img src=""img/flower1.png"" style=""width:200px; border:14px solid green;"">","null","","","","","","","","",""
"","image-keyboard-response","282","74186","0.0-282.0","3FFJ6VRIL2AMLMYR25TOVWP7PL10IZ","A1FKK1Q8C3BAE5","3HUR21WDDUBEMSLDIXZW1FAIHW8YX3","","","img/flower6.png","","2003","-1","0","2","1","1,0.333,0.333,0.333,1,0.333,0.333,0.333,1","1,0.333,0.333,0.333,1,0.333,0.333,0.333,1","1",""
"","html-keyboard-response","283","74491","0.0-283.0","3FFJ6VRIL2AMLMYR25TOVWP7PL10IZ","A1FKK1Q8C3BAE5","3HUR21WDDUBEMSLDIXZW1FAIHW8YX3","","null","<img src=""img/flower6.png"" style=""width:200px;border:14px solid red;"">","null","","","","","","","","",""
"","image-keyboard-response","284","75370","0.0-284.0","3FFJ6VRIL2AMLMYR25TOVWP7PL10IZ","A1FKK1Q8C3BAE5","3HUR21WDDUBEMSLDIXZW1FAIHW8YX3","","869","img/flower1.png","74","874","1","1","1","1","1,0.333,0.333,0.333,1,0.333,0.333,0.333,1","1,0.333,0.333,0.333,1,0.333,0.333,0.333,1","1",""
"","html-keyboard-response","285","75674","0.0-285.0","3FFJ6VRIL2AMLMYR25TOVWP7PL10IZ","A1FKK1Q8C3BAE5","3HUR21WDDUBEMSLDIXZW1FAIHW8YX3","","null","<img src=""img/flower1.png"" style=""width:200px; border:14px solid green;"">","null","","","","","","","","",""
"","image-keyboard-response","286","76036","0.0-286.0","3FFJ6VRIL2AMLMYR25TOVWP7PL10IZ","A1FKK1Q8C3BAE5","3HUR21WDDUBEMSLDIXZW1FAIHW8YX3","","354","img/flower1.png","74","356","1","1","1","1","1,0.333,0.333,0.333,1,0.333,0.333,0.333,1","1,0.333,0.333,0.333,1,0.333,0.333,0.333,1","1",""
"","html-keyboard-response","287","76340","0.0-287.0","3FFJ6VRIL2AMLMYR25TOVWP7PL10IZ","A1FKK1Q8C3BAE5","3HUR21WDDUBEMSLDIXZW1FAIHW8YX3","","null","<img src=""img/flower1.png"" style=""width:200px; border:14px solid green;"">","null","","","","","","","","",""
"","image-keyboard-response","288","76726","0.0-288.0","3FFJ6VRIL2AMLMYR25TOVWP7PL10IZ","A1FKK1Q8C3BAE5","3HUR21WDDUBEMSLDIXZW1FAIHW8YX3","","381","img/flower6.png","74","383","1","0","2","1","1,0.333,0.333,0.333,1,0.333,0.333,0.333,1","1,0.333,0.333,0.333,1,0.333,0.333,0.333,1","1",""
"","html-keyboard-response","289","77030","0.0-289.0","3FFJ6VRIL2AMLMYR25TOVWP7PL10IZ","A1FKK1Q8C3BAE5","3HUR21WDDUBEMSLDIXZW1FAIHW8YX3","","null","<img src=""img/flower6.png"" style=""width:200px;border:14px solid red;"">","null","","","","","","","","",""
"","image-keyboard-response","290","77895","0.0-290.0","3FFJ6VRIL2AMLMYR25TOVWP7PL10IZ","A1FKK1Q8C3BAE5","3HUR21WDDUBEMSLDIXZW1FAIHW8YX3","","858","img/flower1.png","74","862","1","1","1","1","1,0.333,0.333,0.333,1,0.333,0.333,0.333,1","1,0.333,0.333,0.333,1,0.333,0.333,0.333,1","1",""
"","html-keyboard-response","291","78199","0.0-291.0","3FFJ6VRIL2AMLMYR25TOVWP7PL10IZ","A1FKK1Q8C3BAE5","3HUR21WDDUBEMSLDIXZW1FAIHW8YX3","","null","<img src=""img/flower1.png"" style=""width:200px; border:14px solid green;"">","null","","","","","","","","",""
"","image-keyboard-response","292","78572","0.0-292.0","3FFJ6VRIL2AMLMYR25TOVWP7PL10IZ","A1FKK1Q8C3BAE5","3HUR21WDDUBEMSLDIXZW1FAIHW8YX3","","368","img/flower1.png","74","371","1","1","1","1","1,0.333,0.333,0.333,1,0.333,0.333,0.333,1","1,0.333,0.333,0.333,1,0.333,0.333,0.333,1","1",""
"","html-keyboard-response","293","78875","0.0-293.0","3FFJ6VRIL2AMLMYR25TOVWP7PL10IZ","A1FKK1Q8C3BAE5","3HUR21WDDUBEMSLDIXZW1FAIHW8YX3","","null","<img src=""img/flower1.png"" style=""width:200px; border:14px solid green;"">","null","","","","","","","","",""
"","image-keyboard-response","294","79025","0.0-294.0","3FFJ6VRIL2AMLMYR25TOVWP7PL10IZ","A1FKK1Q8C3BAE5","3HUR21WDDUBEMSLDIXZW1FAIHW8YX3","","147","img/flower4.png","74","148","1","1","3","1","1,0.333,0.333,0.333,1,0.333,0.333,0.333,1","1,0.333,0.333,0.333,1,0.333,0.333,0.333,1","1",""
"","html-keyboard-response","295","79329","0.0-295.0","3FFJ6VRIL2AMLMYR25TOVWP7PL10IZ","A1FKK1Q8C3BAE5","3HUR21WDDUBEMSLDIXZW1FAIHW8YX3","","null","<img src=""img/flower4.png"" style=""width:200px; border:14px solid green;"">","null","","","","","","","","",""
"","image-keyboard-response","296","80152","0.0-296.0","3FFJ6VRIL2AMLMYR25TOVWP7PL10IZ","A1FKK1Q8C3BAE5","3HUR21WDDUBEMSLDIXZW1FAIHW8YX3","","822","img/flower6.png","74","822","1","0","2","1","1,0.333,0.333,0.333,1,0.333,0.333,0.333,1","1,0.333,0.333,0.333,1,0.333,0.333,0.333,1","1",""
"","html-keyboard-response","297","80457","0.0-297.0","3FFJ6VRIL2AMLMYR25TOVWP7PL10IZ","A1FKK1Q8C3BAE5","3HUR21WDDUBEMSLDIXZW1FAIHW8YX3","","null","<img src=""img/flower6.png"" style=""width:200px;border:14px solid red;"">","null","","","","","","","","",""
"","image-keyboard-response","298","81151","0.0-298.0","3FFJ6VRIL2AMLMYR25TOVWP7PL10IZ","A1FKK1Q8C3BAE5","3HUR21WDDUBEMSLDIXZW1FAIHW8YX3","","693","img/flower4.png","74","694","1","1","3","1","1,0.333,0.333,0.333,1,0.333,0.333,0.333,1","1,0.333,0.333,0.333,1,0.333,0.333,0.333,1","1",""
"","html-keyboard-response","299","81452","0.0-299.0","3FFJ6VRIL2AMLMYR25TOVWP7PL10IZ","A1FKK1Q8C3BAE5","3HUR21WDDUBEMSLDIXZW1FAIHW8YX3","","null","<img src=""img/flower4.png"" style=""width:200px; border:14px solid green;"">","null","","","","","","","","",""
"","image-keyboard-response","300","81543","0.0-300.0","3FFJ6VRIL2AMLMYR25TOVWP7PL10IZ","A1FKK1Q8C3BAE5","3HUR21WDDUBEMSLDIXZW1FAIHW8YX3","","88","img/flower4.png","74","90","1","1","3","1","1,0.333,0.333,0.333,1,0.333,0.333,0.333,1","1,0.333,0.333,0.333,1,0.333,0.333,0.333,1","1",""
"","html-keyboard-response","301","81846","0.0-301.0","3FFJ6VRIL2AMLMYR25TOVWP7PL10IZ","A1FKK1Q8C3BAE5","3HUR21WDDUBEMSLDIXZW1FAIHW8YX3","","null","<img src=""img/flower4.png"" style=""width:200px; border:14px solid green;"">","null","","","","","","","","",""
"","image-keyboard-response","302","82431","0.0-302.0","3FFJ6VRIL2AMLMYR25TOVWP7PL10IZ","A1FKK1Q8C3BAE5","3HUR21WDDUBEMSLDIXZW1FAIHW8YX3","","583","img/flower4.png","74","585","1","0","3","1","1,0.333,0.333,0.333,1,0.333,0.333,0.333,1","1,0.333,0.333,0.333,1,0.333,0.333,0.333,1","1",""
"","html-keyboard-response","303","82733","0.0-303.0","3FFJ6VRIL2AMLMYR25TOVWP7PL10IZ","A1FKK1Q8C3BAE5","3HUR21WDDUBEMSLDIXZW1FAIHW8YX3","","null","<img src=""img/flower4.png"" style=""width:200px;border:14px solid red;"">","null","","","","","","","","",""
"","image-keyboard-response","304","82750","0.0-304.0","3FFJ6VRIL2AMLMYR25TOVWP7PL10IZ","A1FKK1Q8C3BAE5","3HUR21WDDUBEMSLDIXZW1FAIHW8YX3","","16","img/flower1.png","74","16","1","1","1","1","1,0.333,0.333,0.333,1,0.333,0.333,0.333,1","1,0.333,0.333,0.333,1,0.333,0.333,0.333,1","1",""
"","html-keyboard-response","305","83130","0.0-305.0","3FFJ6VRIL2AMLMYR25TOVWP7PL10IZ","A1FKK1Q8C3BAE5","3HUR21WDDUBEMSLDIXZW1FAIHW8YX3","","null","<img src=""img/flower1.png"" style=""width:200px; border:14px solid green;"">","null","","","","","","","","",""
"","image-keyboard-response","306","83244","0.0-306.0","3FFJ6VRIL2AMLMYR25TOVWP7PL10IZ","A1FKK1Q8C3BAE5","3HUR21WDDUBEMSLDIXZW1FAIHW8YX3","","112","img/flower6.png","74","113","1","1","2","1","1,0.333,0.333,0.333,1,0.333,0.333,0.333,1","1,0.333,0.333,0.333,1,0.333,0.333,0.333,1","1",""
"","html-keyboard-response","307","83546","0.0-307.0","3FFJ6VRIL2AMLMYR25TOVWP7PL10IZ","A1FKK1Q8C3BAE5","3HUR21WDDUBEMSLDIXZW1FAIHW8YX3","","null","<img src=""img/flower6.png"" style=""width:200px; border:14px solid green;"">","null","","","","","","","","",""
"","image-keyboard-response","308","83574","0.0-308.0","3FFJ6VRIL2AMLMYR25TOVWP7PL10IZ","A1FKK1Q8C3BAE5","3HUR21WDDUBEMSLDIXZW1FAIHW8YX3","","28","img/flower1.png","74","28","1","1","1","1","1,0.333,0.333,0.333,1,0.333,0.333,0.333,1","1,0.333,0.333,0.333,1,0.333,0.333,0.333,1","1",""
"","html-keyboard-response","309","83877","0.0-309.0","3FFJ6VRIL2AMLMYR25TOVWP7PL10IZ","A1FKK1Q8C3BAE5","3HUR21WDDUBEMSLDIXZW1FAIHW8YX3","","null","<img src=""img/flower1.png"" style=""width:200px; border:14px solid green;"">","null","","","","","","","","",""
"","image-keyboard-response","310","84021","0.0-310.0","3FFJ6VRIL2AMLMYR25TOVWP7PL10IZ","A1FKK1Q8C3BAE5","3HUR21WDDUBEMSLDIXZW1FAIHW8YX3","","142","img/flower6.png","74","143","1","0","2","1","1,0.333,0.333,0.333,1,0.333,0.333,0.333,1","1,0.333,0.333,0.333,1,0.333,0.333,0.333,1","1",""
"","html-keyboard-response","311","84323","0.0-311.0","3FFJ6VRIL2AMLMYR25TOVWP7PL10IZ","A1FKK1Q8C3BAE5","3HUR21WDDUBEMSLDIXZW1FAIHW8YX3","","null","<img src=""img/flower6.png"" style=""width:200px;border:14px solid red;"">","null","","","","","","","","",""
"","image-keyboard-response","312","84366","0.0-312.0","3FFJ6VRIL2AMLMYR25TOVWP7PL10IZ","A1FKK1Q8C3BAE5","3HUR21WDDUBEMSLDIXZW1FAIHW8YX3","","22","img/flower1.png","74","41","1","1","1","1","1,0.333,0.333,0.333,1,0.333,0.333,0.333,1","1,0.333,0.333,0.333,1,0.333,0.333,0.333,1","1",""
"","html-keyboard-response","313","84670","0.0-313.0","3FFJ6VRIL2AMLMYR25TOVWP7PL10IZ","A1FKK1Q8C3BAE5","3HUR21WDDUBEMSLDIXZW1FAIHW8YX3","","null","<img src=""img/flower1.png"" style=""width:200px; border:14px solid green;"">","null","","","","","","","","",""
"","image-keyboard-response","314","85157","0.0-314.0","3FFJ6VRIL2AMLMYR25TOVWP7PL10IZ","A1FKK1Q8C3BAE5","3HUR21WDDUBEMSLDIXZW1FAIHW8YX3","","485","img/flower4.png","74","486","1","1","3","1","1,0.333,0.333,0.333,1,0.333,0.333,0.333,1","1,0.333,0.333,0.333,1,0.333,0.333,0.333,1","1",""
"","html-keyboard-response","315","85460","0.0-315.0","3FFJ6VRIL2AMLMYR25TOVWP7PL10IZ","A1FKK1Q8C3BAE5","3HUR21WDDUBEMSLDIXZW1FAIHW8YX3","","null","<img src=""img/flower4.png"" style=""width:200px; border:14px solid green;"">","null","","","","","","","","",""
"","image-keyboard-response","316","85638","0.0-316.0","3FFJ6VRIL2AMLMYR25TOVWP7PL10IZ","A1FKK1Q8C3BAE5","3HUR21WDDUBEMSLDIXZW1FAIHW8YX3","","176","img/flower6.png","74","177","1","1","2","1","1,0.333,0.333,0.333,1,0.333,0.333,0.333,1","1,0.333,0.333,0.333,1,0.333,0.333,0.333,1","1",""
"","html-keyboard-response","317","85939","0.0-317.0","3FFJ6VRIL2AMLMYR25TOVWP7PL10IZ","A1FKK1Q8C3BAE5","3HUR21WDDUBEMSLDIXZW1FAIHW8YX3","","null","<img src=""img/flower6.png"" style=""width:200px; border:14px solid green;"">","null","","","","","","","","",""
"","image-keyboard-response","318","86074","0.0-318.0","3FFJ6VRIL2AMLMYR25TOVWP7PL10IZ","A1FKK1Q8C3BAE5","3HUR21WDDUBEMSLDIXZW1FAIHW8YX3","","128","img/flower6.png","74","135","1","0","2","1","1,0.333,0.333,0.333,1,0.333,0.333,0.333,1","1,0.333,0.333,0.333,1,0.333,0.333,0.333,1","1",""
"","html-keyboard-response","319","86376","0.0-319.0","3FFJ6VRIL2AMLMYR25TOVWP7PL10IZ","A1FKK1Q8C3BAE5","3HUR21WDDUBEMSLDIXZW1FAIHW8YX3","","null","<img src=""img/flower6.png"" style=""width:200px;border:14px solid red;"">","null","","","","","","","","",""
"","image-keyboard-response","320","86512","0.0-320.0","3FFJ6VRIL2AMLMYR25TOVWP7PL10IZ","A1FKK1Q8C3BAE5","3HUR21WDDUBEMSLDIXZW1FAIHW8YX3","","134","img/flower4.png","74","135","1","1","3","1","1,0.333,0.333,0.333,1,0.333,0.333,0.333,1","1,0.333,0.333,0.333,1,0.333,0.333,0.333,1","1",""
"","html-keyboard-response","321","86816","0.0-321.0","3FFJ6VRIL2AMLMYR25TOVWP7PL10IZ","A1FKK1Q8C3BAE5","3HUR21WDDUBEMSLDIXZW1FAIHW8YX3","","null","<img src=""img/flower4.png"" style=""width:200px; border:14px solid green;"">","null","","","","","","","","",""
"","image-keyboard-response","322","87496","0.0-322.0","3FFJ6VRIL2AMLMYR25TOVWP7PL10IZ","A1FKK1Q8C3BAE5","3HUR21WDDUBEMSLDIXZW1FAIHW8YX3","","677","img/flower1.png","74","678","1","1","1","1","1,0.333,0.333,0.333,1,0.333,0.333,0.333,1","1,0.333,0.333,0.333,1,0.333,0.333,0.333,1","1",""
"","html-keyboard-response","323","87802","0.0-323.0","3FFJ6VRIL2AMLMYR25TOVWP7PL10IZ","A1FKK1Q8C3BAE5","3HUR21WDDUBEMSLDIXZW1FAIHW8YX3","","null","<img src=""img/flower1.png"" style=""width:200px; border:14px solid green;"">","null","","","","","","","","",""
"","image-keyboard-response","324","88246","0.0-324.0","3FFJ6VRIL2AMLMYR25TOVWP7PL10IZ","A1FKK1Q8C3BAE5","3HUR21WDDUBEMSLDIXZW1FAIHW8YX3","","441","img/flower6.png","74","444","1","0","2","1","1,0.333,0.333,0.333,1,0.333,0.333,0.333,1","1,0.333,0.333,0.333,1,0.333,0.333,0.333,1","1",""
"","html-keyboard-response","325","88550","0.0-325.0","3FFJ6VRIL2AMLMYR25TOVWP7PL10IZ","A1FKK1Q8C3BAE5","3HUR21WDDUBEMSLDIXZW1FAIHW8YX3","","null","<img src=""img/flower6.png"" style=""width:200px;border:14px solid red;"">","null","","","","","","","","",""
"","image-keyboard-response","326","88696","0.0-326.0","3FFJ6VRIL2AMLMYR25TOVWP7PL10IZ","A1FKK1Q8C3BAE5","3HUR21WDDUBEMSLDIXZW1FAIHW8YX3","","142","img/flower6.png","74","144","1","0","2","1","1,0.333,0.333,0.333,1,0.333,0.333,0.333,1","1,0.333,0.333,0.333,1,0.333,0.333,0.333,1","1",""
"","html-keyboard-response","327","88997","0.0-327.0","3FFJ6VRIL2AMLMYR25TOVWP7PL10IZ","A1FKK1Q8C3BAE5","3HUR21WDDUBEMSLDIXZW1FAIHW8YX3","","null","<img src=""img/flower6.png"" style=""width:200px;border:14px solid red;"">","null","","","","","","","","",""
"","image-keyboard-response","328","89257","0.0-328.0","3FFJ6VRIL2AMLMYR25TOVWP7PL10IZ","A1FKK1Q8C3BAE5","3HUR21WDDUBEMSLDIXZW1FAIHW8YX3","","258","img/flower1.png","75","259","2","0","1","1","1,0.333,0.333,0.333,1,0.333,0.333,0.333,1","1,0.333,0.333,0.333,1,0.333,0.333,0.333,1","1",""
"","html-keyboard-response","329","89560","0.0-329.0","3FFJ6VRIL2AMLMYR25TOVWP7PL10IZ","A1FKK1Q8C3BAE5","3HUR21WDDUBEMSLDIXZW1FAIHW8YX3","","null","<img src=""img/flower1.png"" style=""width:200px;border:14px solid red;"">","null","","","","","","","","",""
"","image-keyboard-response","330","89593","0.0-330.0","3FFJ6VRIL2AMLMYR25TOVWP7PL10IZ","A1FKK1Q8C3BAE5","3HUR21WDDUBEMSLDIXZW1FAIHW8YX3","","30","img/flower6.png","75","31","2","1","2","1","1,0.333,0.333,0.333,1,0.333,0.333,0.333,1","1,0.333,0.333,0.333,1,0.333,0.333,0.333,1","1",""
"","html-keyboard-response","331","89894","0.0-331.0","3FFJ6VRIL2AMLMYR25TOVWP7PL10IZ","A1FKK1Q8C3BAE5","3HUR21WDDUBEMSLDIXZW1FAIHW8YX3","","null","<img src=""img/flower6.png"" style=""width:200px; border:14px solid green;"">","null","","","","","","","","",""
"","image-keyboard-response","332","90007","0.0-332.0","3FFJ6VRIL2AMLMYR25TOVWP7PL10IZ","A1FKK1Q8C3BAE5","3HUR21WDDUBEMSLDIXZW1FAIHW8YX3","","108","img/flower4.png","76","111","3","1","3","1","1,0.333,0.333,0.333,1,0.333,0.333,0.333,1","1,0.333,0.333,0.333,1,0.333,0.333,0.333,1","1",""
"","html-keyboard-response","333","90307","0.0-333.0","3FFJ6VRIL2AMLMYR25TOVWP7PL10IZ","A1FKK1Q8C3BAE5","3HUR21WDDUBEMSLDIXZW1FAIHW8YX3","","null","<img src=""img/flower4.png"" style=""width:200px; border:14px solid green;"">","null","","","","","","","","",""
"","image-keyboard-response","334","90369","0.0-334.0","3FFJ6VRIL2AMLMYR25TOVWP7PL10IZ","A1FKK1Q8C3BAE5","3HUR21WDDUBEMSLDIXZW1FAIHW8YX3","","58","img/flower6.png","76","59","3","0","2","1","1,0.333,0.333,0.333,1,0.333,0.333,0.333,1","1,0.333,0.333,0.333,1,0.333,0.333,0.333,1","1",""
"","html-keyboard-response","335","90671","0.0-335.0","3FFJ6VRIL2AMLMYR25TOVWP7PL10IZ","A1FKK1Q8C3BAE5","3HUR21WDDUBEMSLDIXZW1FAIHW8YX3","","null","<img src=""img/flower6.png"" style=""width:200px;border:14px solid red;"">","null","","","","","","","","",""
"","image-keyboard-response","336","90743","0.0-336.0","3FFJ6VRIL2AMLMYR25TOVWP7PL10IZ","A1FKK1Q8C3BAE5","3HUR21WDDUBEMSLDIXZW1FAIHW8YX3","","68","img/flower6.png","76","72","3","0","2","1","1,0.333,0.333,0.333,1,0.333,0.333,0.333,1","1,0.333,0.333,0.333,1,0.333,0.333,0.333,1","1",""
"","html-keyboard-response","337","91045","0.0-337.0","3FFJ6VRIL2AMLMYR25TOVWP7PL10IZ","A1FKK1Q8C3BAE5","3HUR21WDDUBEMSLDIXZW1FAIHW8YX3","","null","<img src=""img/flower6.png"" style=""width:200px;border:14px solid red;"">","null","","","","","","","","",""
"","image-keyboard-response","338","91079","0.0-338.0","3FFJ6VRIL2AMLMYR25TOVWP7PL10IZ","A1FKK1Q8C3BAE5","3HUR21WDDUBEMSLDIXZW1FAIHW8YX3","","31","img/flower4.png","76","34","3","1","3","1","1,0.333,0.333,0.333,1,0.333,0.333,0.333,1","1,0.333,0.333,0.333,1,0.333,0.333,0.333,1","1",""
"","html-keyboard-response","339","91383","0.0-339.0","3FFJ6VRIL2AMLMYR25TOVWP7PL10IZ","A1FKK1Q8C3BAE5","3HUR21WDDUBEMSLDIXZW1FAIHW8YX3","","null","<img src=""img/flower4.png"" style=""width:200px; border:14px solid green;"">","null","","","","","","","","",""
"","image-keyboard-response","340","92494","0.0-340.0","3FFJ6VRIL2AMLMYR25TOVWP7PL10IZ","A1FKK1Q8C3BAE5","3HUR21WDDUBEMSLDIXZW1FAIHW8YX3","","1109","img/flower6.png","74","1111","1","0","2","1","1,0.333,0.333,0.333,1,0.333,0.333,0.333,1","1,0.333,0.333,0.333,1,0.333,0.333,0.333,1","1",""
"","html-keyboard-response","341","92800","0.0-341.0","3FFJ6VRIL2AMLMYR25TOVWP7PL10IZ","A1FKK1Q8C3BAE5","3HUR21WDDUBEMSLDIXZW1FAIHW8YX3","","null","<img src=""img/flower6.png"" style=""width:200px;border:14px solid red;"">","null","","","","","","","","",""
"","image-keyboard-response","342","92935","0.0-342.0","3FFJ6VRIL2AMLMYR25TOVWP7PL10IZ","A1FKK1Q8C3BAE5","3HUR21WDDUBEMSLDIXZW1FAIHW8YX3","","133","img/flower1.png","74","135","1","1","1","1","1,0.333,0.333,0.333,1,0.333,0.333,0.333,1","1,0.333,0.333,0.333,1,0.333,0.333,0.333,1","1",""
"","html-keyboard-response","343","93245","0.0-343.0","3FFJ6VRIL2AMLMYR25TOVWP7PL10IZ","A1FKK1Q8C3BAE5","3HUR21WDDUBEMSLDIXZW1FAIHW8YX3","","null","<img src=""img/flower1.png"" style=""width:200px; border:14px solid green;"">","null","","","","","","","","",""
"","image-keyboard-response","344","93281","0.0-344.0","3FFJ6VRIL2AMLMYR25TOVWP7PL10IZ","A1FKK1Q8C3BAE5","3HUR21WDDUBEMSLDIXZW1FAIHW8YX3","","29","img/flower4.png","74","33","1","1","3","1","1,0.333,0.333,0.333,1,0.333,0.333,0.333,1","1,0.333,0.333,0.333,1,0.333,0.333,0.333,1","1",""
"","html-keyboard-response","345","93583","0.0-345.0","3FFJ6VRIL2AMLMYR25TOVWP7PL10IZ","A1FKK1Q8C3BAE5","3HUR21WDDUBEMSLDIXZW1FAIHW8YX3","","null","<img src=""img/flower4.png"" style=""width:200px; border:14px solid green;"">","null","","","","","","","","",""
"","image-keyboard-response","346","93599","0.0-346.0","3FFJ6VRIL2AMLMYR25TOVWP7PL10IZ","A1FKK1Q8C3BAE5","3HUR21WDDUBEMSLDIXZW1FAIHW8YX3","","12","img/flower1.png","74","14","1","1","1","1","1,0.333,0.333,0.333,1,0.333,0.333,0.333,1","1,0.333,0.333,0.333,1,0.333,0.333,0.333,1","1",""
"","html-keyboard-response","347","93901","0.0-347.0","3FFJ6VRIL2AMLMYR25TOVWP7PL10IZ","A1FKK1Q8C3BAE5","3HUR21WDDUBEMSLDIXZW1FAIHW8YX3","","null","<img src=""img/flower1.png"" style=""width:200px; border:14px solid green;"">","null","","","","","","","","",""
"","image-keyboard-response","348","94065","0.0-348.0","3FFJ6VRIL2AMLMYR25TOVWP7PL10IZ","A1FKK1Q8C3BAE5","3HUR21WDDUBEMSLDIXZW1FAIHW8YX3","","162","img/flower1.png","74","163","1","1","1","1","1,0.333,0.333,0.333,1,0.333,0.333,0.333,1","1,0.333,0.333,0.333,1,0.333,0.333,0.333,1","1",""
"","html-keyboard-response","349","94369","0.0-349.0","3FFJ6VRIL2AMLMYR25TOVWP7PL10IZ","A1FKK1Q8C3BAE5","3HUR21WDDUBEMSLDIXZW1FAIHW8YX3","","null","<img src=""img/flower1.png"" style=""width:200px; border:14px solid green;"">","null","","","","","","","","",""
"","image-keyboard-response","350","94517","0.0-350.0","3FFJ6VRIL2AMLMYR25TOVWP7PL10IZ","A1FKK1Q8C3BAE5","3HUR21WDDUBEMSLDIXZW1FAIHW8YX3","","146","img/flower1.png","74","147","1","1","1","1","1,0.333,0.333,0.333,1,0.333,0.333,0.333,1","1,0.333,0.333,0.333,1,0.333,0.333,0.333,1","1",""
"","html-keyboard-response","351","94821","0.0-351.0","3FFJ6VRIL2AMLMYR25TOVWP7PL10IZ","A1FKK1Q8C3BAE5","3HUR21WDDUBEMSLDIXZW1FAIHW8YX3","","null","<img src=""img/flower1.png"" style=""width:200px; border:14px solid green;"">","null","","","","","","","","",""
"","image-keyboard-response","352","95007","0.0-352.0","3FFJ6VRIL2AMLMYR25TOVWP7PL10IZ","A1FKK1Q8C3BAE5","3HUR21WDDUBEMSLDIXZW1FAIHW8YX3","","178","img/flower6.png","74","183","1","0","2","1","1,0.333,0.333,0.333,1,0.333,0.333,0.333,1","1,0.333,0.333,0.333,1,0.333,0.333,0.333,1","1",""
"","html-keyboard-response","353","95310","0.0-353.0","3FFJ6VRIL2AMLMYR25TOVWP7PL10IZ","A1FKK1Q8C3BAE5","3HUR21WDDUBEMSLDIXZW1FAIHW8YX3","","null","<img src=""img/flower6.png"" style=""width:200px;border:14px solid red;"">","null","","","","","","","","",""
"","image-keyboard-response","354","95536","0.0-354.0","3FFJ6VRIL2AMLMYR25TOVWP7PL10IZ","A1FKK1Q8C3BAE5","3HUR21WDDUBEMSLDIXZW1FAIHW8YX3","","222","img/flower4.png","74","223","1","1","3","1","1,0.333,0.333,0.333,1,0.333,0.333,0.333,1","1,0.333,0.333,0.333,1,0.333,0.333,0.333,1","1",""
"","html-keyboard-response","355","95962","0.0-355.0","3FFJ6VRIL2AMLMYR25TOVWP7PL10IZ","A1FKK1Q8C3BAE5","3HUR21WDDUBEMSLDIXZW1FAIHW8YX3","","null","<img src=""img/flower4.png"" style=""width:200px; border:14px solid green;"">","null","","","","","","","","",""
"","image-keyboard-response","356","96097","0.0-356.0","3FFJ6VRIL2AMLMYR25TOVWP7PL10IZ","A1FKK1Q8C3BAE5","3HUR21WDDUBEMSLDIXZW1FAIHW8YX3","","133","img/flower4.png","75","136","2","0","3","1","1,0.333,0.333,0.333,1,0.333,0.333,0.333,1","1,0.333,0.333,0.333,1,0.333,0.333,0.333,1","1",""
"","html-keyboard-response","357","96401","0.0-357.0","3FFJ6VRIL2AMLMYR25TOVWP7PL10IZ","A1FKK1Q8C3BAE5","3HUR21WDDUBEMSLDIXZW1FAIHW8YX3","","null","<img src=""img/flower4.png"" style=""width:200px;border:14px solid red;"">","null","","","","","","","","",""
"","image-keyboard-response","358","96680","0.0-358.0","3FFJ6VRIL2AMLMYR25TOVWP7PL10IZ","A1FKK1Q8C3BAE5","3HUR21WDDUBEMSLDIXZW1FAIHW8YX3","","276","img/flower1.png","74","278","1","1","1","1","1,0.333,0.333,0.333,1,0.333,0.333,0.333,1","1,0.333,0.333,0.333,1,0.333,0.333,0.333,1","1",""
"","html-keyboard-response","359","96981","0.0-359.0","3FFJ6VRIL2AMLMYR25TOVWP7PL10IZ","A1FKK1Q8C3BAE5","3HUR21WDDUBEMSLDIXZW1FAIHW8YX3","","null","<img src=""img/flower1.png"" style=""width:200px; border:14px solid green;"">","null","","","","","","","","",""
"","image-keyboard-response","360","97296","0.0-360.0","3FFJ6VRIL2AMLMYR25TOVWP7PL10IZ","A1FKK1Q8C3BAE5","3HUR21WDDUBEMSLDIXZW1FAIHW8YX3","","310","img/flower4.png","76","311","3","1","3","1","1,0.333,0.333,0.333,1,0.333,0.333,0.333,1","1,0.333,0.333,0.333,1,0.333,0.333,0.333,1","1",""
"","html-keyboard-response","361","97599","0.0-361.0","3FFJ6VRIL2AMLMYR25TOVWP7PL10IZ","A1FKK1Q8C3BAE5","3HUR21WDDUBEMSLDIXZW1FAIHW8YX3","","null","<img src=""img/flower4.png"" style=""width:200px; border:14px solid green;"">","null","","","","","","","","",""
"","html-keyboard-response","362","102686","0.0-362.0","3FFJ6VRIL2AMLMYR25TOVWP7PL10IZ","A1FKK1Q8C3BAE5","3HUR21WDDUBEMSLDIXZW1FAIHW8YX3","","","","","","","","","","","","",""
"","instructions","363","104094","0.0-363.0","3FFJ6VRIL2AMLMYR25TOVWP7PL10IZ","A1FKK1Q8C3BAE5","3HUR21WDDUBEMSLDIXZW1FAIHW8YX3","[{""page_index"":0,""viewing_time"":1405}]","1405","","","","","","","","","","",""
"","survey-text","364","114650","0.0-364.0","3FFJ6VRIL2AMLMYR25TOVWP7PL10IZ","A1FKK1Q8C3BAE5","3HUR21WDDUBEMSLDIXZW1FAIHW8YX3","","10539","","","","","","","","","","","{""Q0"":""A1FKK1Q8C3BAE5""}"
