"rt","url","trial_type","trial_index","time_elapsed","internal_node_id","assignmentID","mturkID","hitID","success","view_history","stimulus","key_press","reactionTime","a","r","s","reward_cond","responses"
"3999","consent.html","external-html","0","4096","0.0-0.0","326O153BMJK441XZIYRSPOBYQFDED2","A1FP3SH704X01V","3OYHVNTV5TKW8EI4DRB99U4E79NKOA","","","","","","","","","",""
"","","fullscreen","1","6633","0.0-1.0","326O153BMJK441XZIYRSPOBYQFDED2","A1FP3SH704X01V","3OYHVNTV5TKW8EI4DRB99U4E79NKOA","true","","","","","","","","",""
"51799.09999999404","","instructions","2","58433","0.0-2.0","326O153BMJK441XZIYRSPOBYQFDED2","A1FP3SH704X01V","3OYHVNTV5TKW8EI4DRB99U4E79NKOA","","[{""page_index"":0,""viewing_time"":8326.800000011921},{""page_index"":1,""viewing_time"":7698.0999999940395},{""page_index"":2,""viewing_time"":6239.800000011921},{""page_index"":3,""viewing_time"":3847.699999988079},{""page_index"":4,""viewing_time"":3336.800000011921},{""page_index"":5,""viewing_time"":14531.899999976158},{""page_index"":6,""viewing_time"":7817.5}]","","","","","","","",""
"8344.59999999404","","instructions","3","66779","0.0-3.0","326O153BMJK441XZIYRSPOBYQFDED2","A1FP3SH704X01V","3OYHVNTV5TKW8EI4DRB99U4E79NKOA","","[{""page_index"":0,""viewing_time"":8344.399999976158}]","","","","","","","",""
"929.1999999880791","","image-keyboard-response","4","67709","0.0-4.0","326O153BMJK441XZIYRSPOBYQFDED2","A1FP3SH704X01V","3OYHVNTV5TKW8EI4DRB99U4E79NKOA","","","img/flower5.png","74","930","1","0","2","",""
"null","","html-keyboard-response","5","68021","0.0-5.0","326O153BMJK441XZIYRSPOBYQFDED2","A1FP3SH704X01V","3OYHVNTV5TKW8EI4DRB99U4E79NKOA","","","<img src=""img/flower5.png"" style=""width:200px;border:14px solid red;"">","null","","","","","",""
"1150","","image-keyboard-response","6","69171","0.0-6.0","326O153BMJK441XZIYRSPOBYQFDED2","A1FP3SH704X01V","3OYHVNTV5TKW8EI4DRB99U4E79NKOA","","","img/flower6.png","76","1150.5","3","1","3","",""
"null","","html-keyboard-response","7","69480","0.0-7.0","326O153BMJK441XZIYRSPOBYQFDED2","A1FP3SH704X01V","3OYHVNTV5TKW8EI4DRB99U4E79NKOA","","","<img src=""img/flower6.png"" style=""width:200px; border:14px solid green;"">","null","","","","","",""
"1424.2000000178814","","image-keyboard-response","8","70905","0.0-8.0","326O153BMJK441XZIYRSPOBYQFDED2","A1FP3SH704X01V","3OYHVNTV5TKW8EI4DRB99U4E79NKOA","","","img/flower6.png","76","1424.800000011921","3","1","3","",""
"null","","html-keyboard-response","9","71216","0.0-9.0","326O153BMJK441XZIYRSPOBYQFDED2","A1FP3SH704X01V","3OYHVNTV5TKW8EI4DRB99U4E79NKOA","","","<img src=""img/flower6.png"" style=""width:200px; border:14px solid green;"">","null","","","","","",""
"771.5999999940395","","image-keyboard-response","10","71988","0.0-10.0","326O153BMJK441XZIYRSPOBYQFDED2","A1FP3SH704X01V","3OYHVNTV5TKW8EI4DRB99U4E79NKOA","","","img/flower5.png","75","772.3000000119209","2","1","2","",""
"null","","html-keyboard-response","11","72296","0.0-11.0","326O153BMJK441XZIYRSPOBYQFDED2","A1FP3SH704X01V","3OYHVNTV5TKW8EI4DRB99U4E79NKOA","","","<img src=""img/flower5.png"" style=""width:200px; border:14px solid green;"">","null","","","","","",""
"1025.0999999940395","","image-keyboard-response","12","73322","0.0-12.0","326O153BMJK441XZIYRSPOBYQFDED2","A1FP3SH704X01V","3OYHVNTV5TKW8EI4DRB99U4E79NKOA","","","img/flower5.png","75","1025.699999988079","2","1","2","",""
"null","","html-keyboard-response","13","73632","0.0-13.0","326O153BMJK441XZIYRSPOBYQFDED2","A1FP3SH704X01V","3OYHVNTV5TKW8EI4DRB99U4E79NKOA","","","<img src=""img/flower5.png"" style=""width:200px; border:14px solid green;"">","null","","","","","",""
"476.5","","image-keyboard-response","14","74109","0.0-14.0","326O153BMJK441XZIYRSPOBYQFDED2","A1FP3SH704X01V","3OYHVNTV5TKW8EI4DRB99U4E79NKOA","","","img/flower5.png","75","477","2","1","2","",""
"null","","html-keyboard-response","15","74418","0.0-15.0","326O153BMJK441XZIYRSPOBYQFDED2","A1FP3SH704X01V","3OYHVNTV5TKW8EI4DRB99U4E79NKOA","","","<img src=""img/flower5.png"" style=""width:200px; border:14px solid green;"">","null","","","","","",""
"566.8000000119209","","image-keyboard-response","16","74985","0.0-16.0","326O153BMJK441XZIYRSPOBYQFDED2","A1FP3SH704X01V","3OYHVNTV5TKW8EI4DRB99U4E79NKOA","","","img/flower6.png","76","567.5","3","1","3","",""
"null","","html-keyboard-response","17","75287","0.0-17.0","326O153BMJK441XZIYRSPOBYQFDED2","A1FP3SH704X01V","3OYHVNTV5TKW8EI4DRB99U4E79NKOA","","","<img src=""img/flower6.png"" style=""width:200px; border:14px solid green;"">","null","","","","","",""
"564.4000000059605","","image-keyboard-response","18","75853","0.0-18.0","326O153BMJK441XZIYRSPOBYQFDED2","A1FP3SH704X01V","3OYHVNTV5TKW8EI4DRB99U4E79NKOA","","","img/flower6.png","76","565.1999999880791","3","1","3","",""
"null","","html-keyboard-response","19","76166","0.0-19.0","326O153BMJK441XZIYRSPOBYQFDED2","A1FP3SH704X01V","3OYHVNTV5TKW8EI4DRB99U4E79NKOA","","","<img src=""img/flower6.png"" style=""width:200px; border:14px solid green;"">","null","","","","","",""
"658.6999999880791","","image-keyboard-response","20","76826","0.0-20.0","326O153BMJK441XZIYRSPOBYQFDED2","A1FP3SH704X01V","3OYHVNTV5TKW8EI4DRB99U4E79NKOA","","","img/flower4.png","74","659.2000000178814","1","1","1","",""
"null","","html-keyboard-response","21","77132","0.0-21.0","326O153BMJK441XZIYRSPOBYQFDED2","A1FP3SH704X01V","3OYHVNTV5TKW8EI4DRB99U4E79NKOA","","","<img src=""img/flower4.png"" style=""width:200px; border:14px solid green;"">","null","","","","","",""
"542.9000000059605","","image-keyboard-response","22","77676","0.0-22.0","326O153BMJK441XZIYRSPOBYQFDED2","A1FP3SH704X01V","3OYHVNTV5TKW8EI4DRB99U4E79NKOA","","","img/flower4.png","74","543.5","1","1","1","",""
"null","","html-keyboard-response","23","77980","0.0-23.0","326O153BMJK441XZIYRSPOBYQFDED2","A1FP3SH704X01V","3OYHVNTV5TKW8EI4DRB99U4E79NKOA","","","<img src=""img/flower4.png"" style=""width:200px; border:14px solid green;"">","null","","","","","",""
"522.5999999940395","","image-keyboard-response","24","78503","0.0-24.0","326O153BMJK441XZIYRSPOBYQFDED2","A1FP3SH704X01V","3OYHVNTV5TKW8EI4DRB99U4E79NKOA","","","img/flower4.png","74","523.0999999940395","1","0","1","",""
"null","","html-keyboard-response","25","78806","0.0-25.0","326O153BMJK441XZIYRSPOBYQFDED2","A1FP3SH704X01V","3OYHVNTV5TKW8EI4DRB99U4E79NKOA","","","<img src=""img/flower4.png"" style=""width:200px;border:14px solid red;"">","null","","","","","",""
"630.6000000238419","","image-keyboard-response","26","79437","0.0-26.0","326O153BMJK441XZIYRSPOBYQFDED2","A1FP3SH704X01V","3OYHVNTV5TKW8EI4DRB99U4E79NKOA","","","img/flower6.png","76","631.0999999940395","3","0","3","",""
"null","","html-keyboard-response","27","79750","0.0-27.0","326O153BMJK441XZIYRSPOBYQFDED2","A1FP3SH704X01V","3OYHVNTV5TKW8EI4DRB99U4E79NKOA","","","<img src=""img/flower6.png"" style=""width:200px;border:14px solid red;"">","null","","","","","",""
"1157.2999999821186","","image-keyboard-response","28","80908","0.0-28.0","326O153BMJK441XZIYRSPOBYQFDED2","A1FP3SH704X01V","3OYHVNTV5TKW8EI4DRB99U4E79NKOA","","","img/flower6.png","76","1158","3","1","3","",""
"null","","html-keyboard-response","29","81215","0.0-29.0","326O153BMJK441XZIYRSPOBYQFDED2","A1FP3SH704X01V","3OYHVNTV5TKW8EI4DRB99U4E79NKOA","","","<img src=""img/flower6.png"" style=""width:200px; border:14px solid green;"">","null","","","","","",""
"628.1999999880791","","image-keyboard-response","30","81843","0.0-30.0","326O153BMJK441XZIYRSPOBYQFDED2","A1FP3SH704X01V","3OYHVNTV5TKW8EI4DRB99U4E79NKOA","","","img/flower4.png","74","628.7000000178814","1","1","1","",""
"null","","html-keyboard-response","31","82159","0.0-31.0","326O153BMJK441XZIYRSPOBYQFDED2","A1FP3SH704X01V","3OYHVNTV5TKW8EI4DRB99U4E79NKOA","","","<img src=""img/flower4.png"" style=""width:200px; border:14px solid green;"">","null","","","","","",""
"618.5999999940395","","image-keyboard-response","32","82778","0.0-32.0","326O153BMJK441XZIYRSPOBYQFDED2","A1FP3SH704X01V","3OYHVNTV5TKW8EI4DRB99U4E79NKOA","","","img/flower5.png","75","619.1000000238419","2","1","2","",""
"null","","html-keyboard-response","33","83087","0.0-33.0","326O153BMJK441XZIYRSPOBYQFDED2","A1FP3SH704X01V","3OYHVNTV5TKW8EI4DRB99U4E79NKOA","","","<img src=""img/flower5.png"" style=""width:200px; border:14px solid green;"">","null","","","","","",""
"602","","image-keyboard-response","34","83689","0.0-34.0","326O153BMJK441XZIYRSPOBYQFDED2","A1FP3SH704X01V","3OYHVNTV5TKW8EI4DRB99U4E79NKOA","","","img/flower6.png","76","602.5999999940395","3","0","3","",""
"null","","html-keyboard-response","35","84002","0.0-35.0","326O153BMJK441XZIYRSPOBYQFDED2","A1FP3SH704X01V","3OYHVNTV5TKW8EI4DRB99U4E79NKOA","","","<img src=""img/flower6.png"" style=""width:200px;border:14px solid red;"">","null","","","","","",""
"303.69999998807907","","image-keyboard-response","36","84307","0.0-36.0","326O153BMJK441XZIYRSPOBYQFDED2","A1FP3SH704X01V","3OYHVNTV5TKW8EI4DRB99U4E79NKOA","","","img/flower4.png","76","304.2000000178814","3","0","1","",""
"null","","html-keyboard-response","37","84618","0.0-37.0","326O153BMJK441XZIYRSPOBYQFDED2","A1FP3SH704X01V","3OYHVNTV5TKW8EI4DRB99U4E79NKOA","","","<img src=""img/flower4.png"" style=""width:200px;border:14px solid red;"">","null","","","","","",""
"741.9000000059605","","image-keyboard-response","38","85360","0.0-38.0","326O153BMJK441XZIYRSPOBYQFDED2","A1FP3SH704X01V","3OYHVNTV5TKW8EI4DRB99U4E79NKOA","","","img/flower5.png","75","742.5","2","0","2","",""
"null","","html-keyboard-response","39","85662","0.0-39.0","326O153BMJK441XZIYRSPOBYQFDED2","A1FP3SH704X01V","3OYHVNTV5TKW8EI4DRB99U4E79NKOA","","","<img src=""img/flower5.png"" style=""width:200px;border:14px solid red;"">","null","","","","","",""
"788.5999999940395","","image-keyboard-response","40","86451","0.0-40.0","326O153BMJK441XZIYRSPOBYQFDED2","A1FP3SH704X01V","3OYHVNTV5TKW8EI4DRB99U4E79NKOA","","","img/flower4.png","74","789.2000000178814","1","1","1","",""
"null","","html-keyboard-response","41","86766","0.0-41.0","326O153BMJK441XZIYRSPOBYQFDED2","A1FP3SH704X01V","3OYHVNTV5TKW8EI4DRB99U4E79NKOA","","","<img src=""img/flower4.png"" style=""width:200px; border:14px solid green;"">","null","","","","","",""
"704.8999999761581","","image-keyboard-response","42","87472","0.0-42.0","326O153BMJK441XZIYRSPOBYQFDED2","A1FP3SH704X01V","3OYHVNTV5TKW8EI4DRB99U4E79NKOA","","","img/flower4.png","74","705.3000000119209","1","1","1","",""
"null","","html-keyboard-response","43","87785","0.0-43.0","326O153BMJK441XZIYRSPOBYQFDED2","A1FP3SH704X01V","3OYHVNTV5TKW8EI4DRB99U4E79NKOA","","","<img src=""img/flower4.png"" style=""width:200px; border:14px solid green;"">","null","","","","","",""
"818.3000000119209","","image-keyboard-response","44","88604","0.0-44.0","326O153BMJK441XZIYRSPOBYQFDED2","A1FP3SH704X01V","3OYHVNTV5TKW8EI4DRB99U4E79NKOA","","","img/flower5.png","75","818.7999999821186","2","1","2","",""
"null","","html-keyboard-response","45","88907","0.0-45.0","326O153BMJK441XZIYRSPOBYQFDED2","A1FP3SH704X01V","3OYHVNTV5TKW8EI4DRB99U4E79NKOA","","","<img src=""img/flower5.png"" style=""width:200px; border:14px solid green;"">","null","","","","","",""
"751.8000000119209","","image-keyboard-response","46","89659","0.0-46.0","326O153BMJK441XZIYRSPOBYQFDED2","A1FP3SH704X01V","3OYHVNTV5TKW8EI4DRB99U4E79NKOA","","","img/flower4.png","74","752.1999999880791","1","0","1","",""
"null","","html-keyboard-response","47","89963","0.0-47.0","326O153BMJK441XZIYRSPOBYQFDED2","A1FP3SH704X01V","3OYHVNTV5TKW8EI4DRB99U4E79NKOA","","","<img src=""img/flower4.png"" style=""width:200px;border:14px solid red;"">","null","","","","","",""
"678.7999999821186","","image-keyboard-response","48","90643","0.0-48.0","326O153BMJK441XZIYRSPOBYQFDED2","A1FP3SH704X01V","3OYHVNTV5TKW8EI4DRB99U4E79NKOA","","","img/flower6.png","76","679.5","3","1","3","",""
"null","","html-keyboard-response","49","90957","0.0-49.0","326O153BMJK441XZIYRSPOBYQFDED2","A1FP3SH704X01V","3OYHVNTV5TKW8EI4DRB99U4E79NKOA","","","<img src=""img/flower6.png"" style=""width:200px; border:14px solid green;"">","null","","","","","",""
"581.3999999761581","","image-keyboard-response","50","91539","0.0-50.0","326O153BMJK441XZIYRSPOBYQFDED2","A1FP3SH704X01V","3OYHVNTV5TKW8EI4DRB99U4E79NKOA","","","img/flower5.png","74","582.0999999940395","1","1","2","",""
"null","","html-keyboard-response","51","91841","0.0-51.0","326O153BMJK441XZIYRSPOBYQFDED2","A1FP3SH704X01V","3OYHVNTV5TKW8EI4DRB99U4E79NKOA","","","<img src=""img/flower5.png"" style=""width:200px; border:14px solid green;"">","null","","","","","",""
"647","","image-keyboard-response","52","92489","0.0-52.0","326O153BMJK441XZIYRSPOBYQFDED2","A1FP3SH704X01V","3OYHVNTV5TKW8EI4DRB99U4E79NKOA","","","img/flower6.png","76","647.6000000238419","3","0","3","",""
"null","","html-keyboard-response","53","92790","0.0-53.0","326O153BMJK441XZIYRSPOBYQFDED2","A1FP3SH704X01V","3OYHVNTV5TKW8EI4DRB99U4E79NKOA","","","<img src=""img/flower6.png"" style=""width:200px;border:14px solid red;"">","null","","","","","",""
"645.7999999821186","","image-keyboard-response","54","93437","0.0-54.0","326O153BMJK441XZIYRSPOBYQFDED2","A1FP3SH704X01V","3OYHVNTV5TKW8EI4DRB99U4E79NKOA","","","img/flower5.png","74","646.1000000238419","1","1","2","",""
"null","","html-keyboard-response","55","93738","0.0-55.0","326O153BMJK441XZIYRSPOBYQFDED2","A1FP3SH704X01V","3OYHVNTV5TKW8EI4DRB99U4E79NKOA","","","<img src=""img/flower5.png"" style=""width:200px; border:14px solid green;"">","null","","","","","",""
"689.7000000178814","","image-keyboard-response","56","94429","0.0-56.0","326O153BMJK441XZIYRSPOBYQFDED2","A1FP3SH704X01V","3OYHVNTV5TKW8EI4DRB99U4E79NKOA","","","img/flower6.png","76","690.2999999821186","3","1","3","",""
"null","","html-keyboard-response","57","94741","0.0-57.0","326O153BMJK441XZIYRSPOBYQFDED2","A1FP3SH704X01V","3OYHVNTV5TKW8EI4DRB99U4E79NKOA","","","<img src=""img/flower6.png"" style=""width:200px; border:14px solid green;"">","null","","","","","",""
"1042.7000000178814","","image-keyboard-response","58","95785","0.0-58.0","326O153BMJK441XZIYRSPOBYQFDED2","A1FP3SH704X01V","3OYHVNTV5TKW8EI4DRB99U4E79NKOA","","","img/flower5.png","74","1043.199999988079","1","0","2","",""
"null","","html-keyboard-response","59","96096","0.0-59.0","326O153BMJK441XZIYRSPOBYQFDED2","A1FP3SH704X01V","3OYHVNTV5TKW8EI4DRB99U4E79NKOA","","","<img src=""img/flower5.png"" style=""width:200px;border:14px solid red;"">","null","","","","","",""
"895.7000000178814","","image-keyboard-response","60","96992","0.0-60.0","326O153BMJK441XZIYRSPOBYQFDED2","A1FP3SH704X01V","3OYHVNTV5TKW8EI4DRB99U4E79NKOA","","","img/flower4.png","74","896.0999999940395","1","1","1","",""
"null","","html-keyboard-response","61","97297","0.0-61.0","326O153BMJK441XZIYRSPOBYQFDED2","A1FP3SH704X01V","3OYHVNTV5TKW8EI4DRB99U4E79NKOA","","","<img src=""img/flower4.png"" style=""width:200px; border:14px solid green;"">","null","","","","","",""
"600.1000000238419","","image-keyboard-response","62","97898","0.0-62.0","326O153BMJK441XZIYRSPOBYQFDED2","A1FP3SH704X01V","3OYHVNTV5TKW8EI4DRB99U4E79NKOA","","","img/flower4.png","74","600.8000000119209","1","1","1","",""
"null","","html-keyboard-response","63","98203","0.0-63.0","326O153BMJK441XZIYRSPOBYQFDED2","A1FP3SH704X01V","3OYHVNTV5TKW8EI4DRB99U4E79NKOA","","","<img src=""img/flower4.png"" style=""width:200px; border:14px solid green;"">","null","","","","","",""
"6988","","instructions","64","105191","0.0-64.0","326O153BMJK441XZIYRSPOBYQFDED2","A1FP3SH704X01V","3OYHVNTV5TKW8EI4DRB99U4E79NKOA","","[{""page_index"":0,""viewing_time"":1987.0999999940395},{""page_index"":1,""viewing_time"":5000.699999988079}]","","","","","","","",""
"695.9000000059605","","image-keyboard-response","65","105888","0.0-65.0","326O153BMJK441XZIYRSPOBYQFDED2","A1FP3SH704X01V","3OYHVNTV5TKW8EI4DRB99U4E79NKOA","","","img/flower6.png","76","696.5","3","1","3","",""
"null","","html-keyboard-response","66","106201","0.0-66.0","326O153BMJK441XZIYRSPOBYQFDED2","A1FP3SH704X01V","3OYHVNTV5TKW8EI4DRB99U4E79NKOA","","","<img src=""img/flower6.png"" style=""width:200px; border:14px solid green;"">","null","","","","","",""
"476.5","","image-keyboard-response","67","106679","0.0-67.0","326O153BMJK441XZIYRSPOBYQFDED2","A1FP3SH704X01V","3OYHVNTV5TKW8EI4DRB99U4E79NKOA","","","img/flower6.png","76","477.09999999403954","3","1","3","",""
"null","","html-keyboard-response","68","106986","0.0-68.0","326O153BMJK441XZIYRSPOBYQFDED2","A1FP3SH704X01V","3OYHVNTV5TKW8EI4DRB99U4E79NKOA","","","<img src=""img/flower6.png"" style=""width:200px; border:14px solid green;"">","null","","","","","",""
"480.7999999821186","","image-keyboard-response","69","107468","0.0-69.0","326O153BMJK441XZIYRSPOBYQFDED2","A1FP3SH704X01V","3OYHVNTV5TKW8EI4DRB99U4E79NKOA","","","img/flower4.png","74","481.59999999403954","1","0","1","",""
"null","","html-keyboard-response","70","107772","0.0-70.0","326O153BMJK441XZIYRSPOBYQFDED2","A1FP3SH704X01V","3OYHVNTV5TKW8EI4DRB99U4E79NKOA","","","<img src=""img/flower4.png"" style=""width:200px;border:14px solid red;"">","null","","","","","",""
"275.59999999403954","","image-keyboard-response","71","108049","0.0-71.0","326O153BMJK441XZIYRSPOBYQFDED2","A1FP3SH704X01V","3OYHVNTV5TKW8EI4DRB99U4E79NKOA","","","img/flower6.png","74","276.30000001192093","1","1","3","",""
"null","","html-keyboard-response","72","108353","0.0-72.0","326O153BMJK441XZIYRSPOBYQFDED2","A1FP3SH704X01V","3OYHVNTV5TKW8EI4DRB99U4E79NKOA","","","<img src=""img/flower6.png"" style=""width:200px; border:14px solid green;"">","null","","","","","",""
"849.8000000119209","","image-keyboard-response","73","109204","0.0-73.0","326O153BMJK441XZIYRSPOBYQFDED2","A1FP3SH704X01V","3OYHVNTV5TKW8EI4DRB99U4E79NKOA","","","img/flower4.png","74","850.1999999880791","1","1","1","",""
"null","","html-keyboard-response","74","109517","0.0-74.0","326O153BMJK441XZIYRSPOBYQFDED2","A1FP3SH704X01V","3OYHVNTV5TKW8EI4DRB99U4E79NKOA","","","<img src=""img/flower4.png"" style=""width:200px; border:14px solid green;"">","null","","","","","",""
"779.2000000178814","","image-keyboard-response","75","110296","0.0-75.0","326O153BMJK441XZIYRSPOBYQFDED2","A1FP3SH704X01V","3OYHVNTV5TKW8EI4DRB99U4E79NKOA","","","img/flower5.png","75","779.5999999940395","2","0","2","",""
"null","","html-keyboard-response","76","110600","0.0-76.0","326O153BMJK441XZIYRSPOBYQFDED2","A1FP3SH704X01V","3OYHVNTV5TKW8EI4DRB99U4E79NKOA","","","<img src=""img/flower5.png"" style=""width:200px;border:14px solid red;"">","null","","","","","",""
"918.2000000178814","","image-keyboard-response","77","111519","0.0-77.0","326O153BMJK441XZIYRSPOBYQFDED2","A1FP3SH704X01V","3OYHVNTV5TKW8EI4DRB99U4E79NKOA","","","img/flower4.png","74","918.5999999940395","1","1","1","",""
"null","","html-keyboard-response","78","111835","0.0-78.0","326O153BMJK441XZIYRSPOBYQFDED2","A1FP3SH704X01V","3OYHVNTV5TKW8EI4DRB99U4E79NKOA","","","<img src=""img/flower4.png"" style=""width:200px; border:14px solid green;"">","null","","","","","",""
"718.5999999940395","","image-keyboard-response","79","112554","0.0-79.0","326O153BMJK441XZIYRSPOBYQFDED2","A1FP3SH704X01V","3OYHVNTV5TKW8EI4DRB99U4E79NKOA","","","img/flower6.png","76","719.0999999940395","3","1","3","",""
"null","","html-keyboard-response","80","112856","0.0-80.0","326O153BMJK441XZIYRSPOBYQFDED2","A1FP3SH704X01V","3OYHVNTV5TKW8EI4DRB99U4E79NKOA","","","<img src=""img/flower6.png"" style=""width:200px; border:14px solid green;"">","null","","","","","",""
"570.6999999880791","","image-keyboard-response","81","113428","0.0-81.0","326O153BMJK441XZIYRSPOBYQFDED2","A1FP3SH704X01V","3OYHVNTV5TKW8EI4DRB99U4E79NKOA","","","img/flower4.png","74","571.1999999880791","1","1","1","",""
"null","","html-keyboard-response","82","113739","0.0-82.0","326O153BMJK441XZIYRSPOBYQFDED2","A1FP3SH704X01V","3OYHVNTV5TKW8EI4DRB99U4E79NKOA","","","<img src=""img/flower4.png"" style=""width:200px; border:14px solid green;"">","null","","","","","",""
"269","","image-keyboard-response","83","114008","0.0-83.0","326O153BMJK441XZIYRSPOBYQFDED2","A1FP3SH704X01V","3OYHVNTV5TKW8EI4DRB99U4E79NKOA","","","img/flower4.png","74","269.59999999403954","1","1","1","",""
"null","","html-keyboard-response","84","114317","0.0-84.0","326O153BMJK441XZIYRSPOBYQFDED2","A1FP3SH704X01V","3OYHVNTV5TKW8EI4DRB99U4E79NKOA","","","<img src=""img/flower4.png"" style=""width:200px; border:14px solid green;"">","null","","","","","",""
"323.80000001192093","","image-keyboard-response","85","114641","0.0-85.0","326O153BMJK441XZIYRSPOBYQFDED2","A1FP3SH704X01V","3OYHVNTV5TKW8EI4DRB99U4E79NKOA","","","img/flower4.png","74","324.30000001192093","1","1","1","",""
"null","","html-keyboard-response","86","114945","0.0-86.0","326O153BMJK441XZIYRSPOBYQFDED2","A1FP3SH704X01V","3OYHVNTV5TKW8EI4DRB99U4E79NKOA","","","<img src=""img/flower4.png"" style=""width:200px; border:14px solid green;"">","null","","","","","",""
"282.2999999821186","","image-keyboard-response","87","115227","0.0-87.0","326O153BMJK441XZIYRSPOBYQFDED2","A1FP3SH704X01V","3OYHVNTV5TKW8EI4DRB99U4E79NKOA","","","img/flower5.png","74","282.7000000178814","1","0","2","",""
"null","","html-keyboard-response","88","115531","0.0-88.0","326O153BMJK441XZIYRSPOBYQFDED2","A1FP3SH704X01V","3OYHVNTV5TKW8EI4DRB99U4E79NKOA","","","<img src=""img/flower5.png"" style=""width:200px;border:14px solid red;"">","null","","","","","",""
"659.9000000059605","","image-keyboard-response","89","116192","0.0-89.0","326O153BMJK441XZIYRSPOBYQFDED2","A1FP3SH704X01V","3OYHVNTV5TKW8EI4DRB99U4E79NKOA","","","img/flower4.png","74","660.5999999940395","1","1","1","",""
"null","","html-keyboard-response","90","116507","0.0-90.0","326O153BMJK441XZIYRSPOBYQFDED2","A1FP3SH704X01V","3OYHVNTV5TKW8EI4DRB99U4E79NKOA","","","<img src=""img/flower4.png"" style=""width:200px; border:14px solid green;"">","null","","","","","",""
"708.2000000178814","","image-keyboard-response","91","117216","0.0-91.0","326O153BMJK441XZIYRSPOBYQFDED2","A1FP3SH704X01V","3OYHVNTV5TKW8EI4DRB99U4E79NKOA","","","img/flower5.png","76","708.6999999880791","3","1","2","",""
"null","","html-keyboard-response","92","117531","0.0-92.0","326O153BMJK441XZIYRSPOBYQFDED2","A1FP3SH704X01V","3OYHVNTV5TKW8EI4DRB99U4E79NKOA","","","<img src=""img/flower5.png"" style=""width:200px; border:14px solid green;"">","null","","","","","",""
"764.9000000059605","","image-keyboard-response","93","118297","0.0-93.0","326O153BMJK441XZIYRSPOBYQFDED2","A1FP3SH704X01V","3OYHVNTV5TKW8EI4DRB99U4E79NKOA","","","img/flower5.png","76","765.5","3","0","2","",""
"null","","html-keyboard-response","94","118608","0.0-94.0","326O153BMJK441XZIYRSPOBYQFDED2","A1FP3SH704X01V","3OYHVNTV5TKW8EI4DRB99U4E79NKOA","","","<img src=""img/flower5.png"" style=""width:200px;border:14px solid red;"">","null","","","","","",""
"333.40000000596046","","image-keyboard-response","95","118942","0.0-95.0","326O153BMJK441XZIYRSPOBYQFDED2","A1FP3SH704X01V","3OYHVNTV5TKW8EI4DRB99U4E79NKOA","","","img/flower4.png","76","333.90000000596046","3","0","1","",""
"null","","html-keyboard-response","96","119258","0.0-96.0","326O153BMJK441XZIYRSPOBYQFDED2","A1FP3SH704X01V","3OYHVNTV5TKW8EI4DRB99U4E79NKOA","","","<img src=""img/flower4.png"" style=""width:200px;border:14px solid red;"">","null","","","","","",""
"883.5999999940395","","image-keyboard-response","97","120142","0.0-97.0","326O153BMJK441XZIYRSPOBYQFDED2","A1FP3SH704X01V","3OYHVNTV5TKW8EI4DRB99U4E79NKOA","","","img/flower5.png","75","884.3000000119209","2","1","2","",""
"null","","html-keyboard-response","98","120458","0.0-98.0","326O153BMJK441XZIYRSPOBYQFDED2","A1FP3SH704X01V","3OYHVNTV5TKW8EI4DRB99U4E79NKOA","","","<img src=""img/flower5.png"" style=""width:200px; border:14px solid green;"">","null","","","","","",""
"586","","image-keyboard-response","99","121045","0.0-99.0","326O153BMJK441XZIYRSPOBYQFDED2","A1FP3SH704X01V","3OYHVNTV5TKW8EI4DRB99U4E79NKOA","","","img/flower6.png","76","586.9000000059605","3","1","3","",""
"null","","html-keyboard-response","100","121357","0.0-100.0","326O153BMJK441XZIYRSPOBYQFDED2","A1FP3SH704X01V","3OYHVNTV5TKW8EI4DRB99U4E79NKOA","","","<img src=""img/flower6.png"" style=""width:200px; border:14px solid green;"">","null","","","","","",""
"832.9000000059605","","image-keyboard-response","101","122190","0.0-101.0","326O153BMJK441XZIYRSPOBYQFDED2","A1FP3SH704X01V","3OYHVNTV5TKW8EI4DRB99U4E79NKOA","","","img/flower6.png","76","833.3999999761581","3","1","3","",""
"null","","html-keyboard-response","102","122496","0.0-102.0","326O153BMJK441XZIYRSPOBYQFDED2","A1FP3SH704X01V","3OYHVNTV5TKW8EI4DRB99U4E79NKOA","","","<img src=""img/flower6.png"" style=""width:200px; border:14px solid green;"">","null","","","","","",""
"626.7000000178814","","image-keyboard-response","103","123124","0.0-103.0","326O153BMJK441XZIYRSPOBYQFDED2","A1FP3SH704X01V","3OYHVNTV5TKW8EI4DRB99U4E79NKOA","","","img/flower5.png","75","627.2000000178814","2","1","2","",""
"null","","html-keyboard-response","104","123426","0.0-104.0","326O153BMJK441XZIYRSPOBYQFDED2","A1FP3SH704X01V","3OYHVNTV5TKW8EI4DRB99U4E79NKOA","","","<img src=""img/flower5.png"" style=""width:200px; border:14px solid green;"">","null","","","","","",""
"618","","image-keyboard-response","105","124045","0.0-105.0","326O153BMJK441XZIYRSPOBYQFDED2","A1FP3SH704X01V","3OYHVNTV5TKW8EI4DRB99U4E79NKOA","","","img/flower5.png","75","618.5999999940395","2","1","2","",""
"null","","html-keyboard-response","106","124354","0.0-106.0","326O153BMJK441XZIYRSPOBYQFDED2","A1FP3SH704X01V","3OYHVNTV5TKW8EI4DRB99U4E79NKOA","","","<img src=""img/flower5.png"" style=""width:200px; border:14px solid green;"">","null","","","","","",""
"555.4000000059605","","image-keyboard-response","107","124910","0.0-107.0","326O153BMJK441XZIYRSPOBYQFDED2","A1FP3SH704X01V","3OYHVNTV5TKW8EI4DRB99U4E79NKOA","","","img/flower4.png","74","555.6999999880791","1","0","1","",""
"null","","html-keyboard-response","108","125216","0.0-108.0","326O153BMJK441XZIYRSPOBYQFDED2","A1FP3SH704X01V","3OYHVNTV5TKW8EI4DRB99U4E79NKOA","","","<img src=""img/flower4.png"" style=""width:200px;border:14px solid red;"">","null","","","","","",""
"317.5","","image-keyboard-response","109","125534","0.0-109.0","326O153BMJK441XZIYRSPOBYQFDED2","A1FP3SH704X01V","3OYHVNTV5TKW8EI4DRB99U4E79NKOA","","","img/flower6.png","74","318","1","1","3","",""
"null","","html-keyboard-response","110","125843","0.0-110.0","326O153BMJK441XZIYRSPOBYQFDED2","A1FP3SH704X01V","3OYHVNTV5TKW8EI4DRB99U4E79NKOA","","","<img src=""img/flower6.png"" style=""width:200px; border:14px solid green;"">","null","","","","","",""
"738.5999999940395","","image-keyboard-response","111","126583","0.0-111.0","326O153BMJK441XZIYRSPOBYQFDED2","A1FP3SH704X01V","3OYHVNTV5TKW8EI4DRB99U4E79NKOA","","","img/flower5.png","76","739.0999999940395","3","0","2","",""
"null","","html-keyboard-response","112","126885","0.0-112.0","326O153BMJK441XZIYRSPOBYQFDED2","A1FP3SH704X01V","3OYHVNTV5TKW8EI4DRB99U4E79NKOA","","","<img src=""img/flower5.png"" style=""width:200px;border:14px solid red;"">","null","","","","","",""
"569.9000000059605","","image-keyboard-response","113","127455","0.0-113.0","326O153BMJK441XZIYRSPOBYQFDED2","A1FP3SH704X01V","3OYHVNTV5TKW8EI4DRB99U4E79NKOA","","","img/flower6.png","76","570.3000000119209","3","0","3","",""
"null","","html-keyboard-response","114","127768","0.0-114.0","326O153BMJK441XZIYRSPOBYQFDED2","A1FP3SH704X01V","3OYHVNTV5TKW8EI4DRB99U4E79NKOA","","","<img src=""img/flower6.png"" style=""width:200px;border:14px solid red;"">","null","","","","","",""
"776.4000000059605","","image-keyboard-response","115","128545","0.0-115.0","326O153BMJK441XZIYRSPOBYQFDED2","A1FP3SH704X01V","3OYHVNTV5TKW8EI4DRB99U4E79NKOA","","","img/flower5.png","75","777","2","1","2","",""
"null","","html-keyboard-response","116","128853","0.0-116.0","326O153BMJK441XZIYRSPOBYQFDED2","A1FP3SH704X01V","3OYHVNTV5TKW8EI4DRB99U4E79NKOA","","","<img src=""img/flower5.png"" style=""width:200px; border:14px solid green;"">","null","","","","","",""
"794.9000000059605","","image-keyboard-response","117","129649","0.0-117.0","326O153BMJK441XZIYRSPOBYQFDED2","A1FP3SH704X01V","3OYHVNTV5TKW8EI4DRB99U4E79NKOA","","","img/flower6.png","76","795.5","3","0","3","",""
"null","","html-keyboard-response","118","129962","0.0-118.0","326O153BMJK441XZIYRSPOBYQFDED2","A1FP3SH704X01V","3OYHVNTV5TKW8EI4DRB99U4E79NKOA","","","<img src=""img/flower6.png"" style=""width:200px;border:14px solid red;"">","null","","","","","",""
"1048.300000011921","","image-keyboard-response","119","131011","0.0-119.0","326O153BMJK441XZIYRSPOBYQFDED2","A1FP3SH704X01V","3OYHVNTV5TKW8EI4DRB99U4E79NKOA","","","img/flower5.png","74","1048.9000000059605","1","0","2","",""
"null","","html-keyboard-response","120","131317","0.0-120.0","326O153BMJK441XZIYRSPOBYQFDED2","A1FP3SH704X01V","3OYHVNTV5TKW8EI4DRB99U4E79NKOA","","","<img src=""img/flower5.png"" style=""width:200px;border:14px solid red;"">","null","","","","","",""
"502.5","","image-keyboard-response","121","131820","0.0-121.0","326O153BMJK441XZIYRSPOBYQFDED2","A1FP3SH704X01V","3OYHVNTV5TKW8EI4DRB99U4E79NKOA","","","img/flower6.png","75","503","2","0","3","",""
"null","","html-keyboard-response","122","132136","0.0-122.0","326O153BMJK441XZIYRSPOBYQFDED2","A1FP3SH704X01V","3OYHVNTV5TKW8EI4DRB99U4E79NKOA","","","<img src=""img/flower6.png"" style=""width:200px;border:14px solid red;"">","null","","","","","",""
"635.1999999880791","","image-keyboard-response","123","132773","0.0-123.0","326O153BMJK441XZIYRSPOBYQFDED2","A1FP3SH704X01V","3OYHVNTV5TKW8EI4DRB99U4E79NKOA","","","img/flower4.png","74","635.7999999821186","1","1","1","",""
"null","","html-keyboard-response","124","133078","0.0-124.0","326O153BMJK441XZIYRSPOBYQFDED2","A1FP3SH704X01V","3OYHVNTV5TKW8EI4DRB99U4E79NKOA","","","<img src=""img/flower4.png"" style=""width:200px; border:14px solid green;"">","null","","","","","",""
"2569.199999988079","","instructions","125","135648","0.0-125.0","326O153BMJK441XZIYRSPOBYQFDED2","A1FP3SH704X01V","3OYHVNTV5TKW8EI4DRB99U4E79NKOA","","[{""page_index"":0,""viewing_time"":2568.9000000059605}]","","","","","","","",""
"722.0999999940395","","image-keyboard-response","126","136370","0.0-126.0","326O153BMJK441XZIYRSPOBYQFDED2","A1FP3SH704X01V","3OYHVNTV5TKW8EI4DRB99U4E79NKOA","","","img/flower6.png","76","722.8999999761581","3","1","3","1,0.5,0.5,0.5,1,0.5,0.5,0.5,1",""
"null","","html-keyboard-response","127","136684","0.0-127.0","326O153BMJK441XZIYRSPOBYQFDED2","A1FP3SH704X01V","3OYHVNTV5TKW8EI4DRB99U4E79NKOA","","","<img src=""img/flower6.png"" style=""width:200px; border:14px solid green;"">","null","","","","","",""
"1099.0999999940395","","image-keyboard-response","128","137784","0.0-128.0","326O153BMJK441XZIYRSPOBYQFDED2","A1FP3SH704X01V","3OYHVNTV5TKW8EI4DRB99U4E79NKOA","","","img/flower3.png","74","1099.800000011921","1","1","1","1,0.5,0.5,0.5,1,0.5,0.5,0.5,1",""
"null","","html-keyboard-response","129","138096","0.0-129.0","326O153BMJK441XZIYRSPOBYQFDED2","A1FP3SH704X01V","3OYHVNTV5TKW8EI4DRB99U4E79NKOA","","","<img src=""img/flower3.png"" style=""width:200px; border:14px solid green;"">","null","","","","","",""
"530.4000000059605","","image-keyboard-response","130","138628","0.0-130.0","326O153BMJK441XZIYRSPOBYQFDED2","A1FP3SH704X01V","3OYHVNTV5TKW8EI4DRB99U4E79NKOA","","","img/flower3.png","74","530.8999999761581","1","1","1","1,0.5,0.5,0.5,1,0.5,0.5,0.5,1",""
"null","","html-keyboard-response","131","138929","0.0-131.0","326O153BMJK441XZIYRSPOBYQFDED2","A1FP3SH704X01V","3OYHVNTV5TKW8EI4DRB99U4E79NKOA","","","<img src=""img/flower3.png"" style=""width:200px; border:14px solid green;"">","null","","","","","",""
"592.7000000178814","","image-keyboard-response","132","139522","0.0-132.0","326O153BMJK441XZIYRSPOBYQFDED2","A1FP3SH704X01V","3OYHVNTV5TKW8EI4DRB99U4E79NKOA","","","img/flower2.png","75","593.2999999821186","2","1","2","1,0.5,0.5,0.5,1,0.5,0.5,0.5,1",""
"null","","html-keyboard-response","133","139830","0.0-133.0","326O153BMJK441XZIYRSPOBYQFDED2","A1FP3SH704X01V","3OYHVNTV5TKW8EI4DRB99U4E79NKOA","","","<img src=""img/flower2.png"" style=""width:200px; border:14px solid green;"">","null","","","","","",""
"444","","image-keyboard-response","134","140275","0.0-134.0","326O153BMJK441XZIYRSPOBYQFDED2","A1FP3SH704X01V","3OYHVNTV5TKW8EI4DRB99U4E79NKOA","","","img/flower2.png","75","444.7000000178814","2","1","2","1,0.5,0.5,0.5,1,0.5,0.5,0.5,1",""
"null","","html-keyboard-response","135","140582","0.0-135.0","326O153BMJK441XZIYRSPOBYQFDED2","A1FP3SH704X01V","3OYHVNTV5TKW8EI4DRB99U4E79NKOA","","","<img src=""img/flower2.png"" style=""width:200px; border:14px solid green;"">","null","","","","","",""
"695.6999999880791","","image-keyboard-response","136","141279","0.0-136.0","326O153BMJK441XZIYRSPOBYQFDED2","A1FP3SH704X01V","3OYHVNTV5TKW8EI4DRB99U4E79NKOA","","","img/flower3.png","74","696.1000000238419","1","1","1","1,0.5,0.5,0.5,1,0.5,0.5,0.5,1",""
"null","","html-keyboard-response","137","141582","0.0-137.0","326O153BMJK441XZIYRSPOBYQFDED2","A1FP3SH704X01V","3OYHVNTV5TKW8EI4DRB99U4E79NKOA","","","<img src=""img/flower3.png"" style=""width:200px; border:14px solid green;"">","null","","","","","",""
"539.9000000059605","","image-keyboard-response","138","142123","0.0-138.0","326O153BMJK441XZIYRSPOBYQFDED2","A1FP3SH704X01V","3OYHVNTV5TKW8EI4DRB99U4E79NKOA","","","img/flower2.png","75","540.7999999821186","2","1","2","1,0.5,0.5,0.5,1,0.5,0.5,0.5,1",""
"null","","html-keyboard-response","139","142428","0.0-139.0","326O153BMJK441XZIYRSPOBYQFDED2","A1FP3SH704X01V","3OYHVNTV5TKW8EI4DRB99U4E79NKOA","","","<img src=""img/flower2.png"" style=""width:200px; border:14px solid green;"">","null","","","","","",""
"340.2999999821186","","image-keyboard-response","140","142770","0.0-140.0","326O153BMJK441XZIYRSPOBYQFDED2","A1FP3SH704X01V","3OYHVNTV5TKW8EI4DRB99U4E79NKOA","","","img/flower2.png","75","340.89999997615814","2","1","2","1,0.5,0.5,0.5,1,0.5,0.5,0.5,1",""
"null","","html-keyboard-response","141","143078","0.0-141.0","326O153BMJK441XZIYRSPOBYQFDED2","A1FP3SH704X01V","3OYHVNTV5TKW8EI4DRB99U4E79NKOA","","","<img src=""img/flower2.png"" style=""width:200px; border:14px solid green;"">","null","","","","","",""
"182","","image-keyboard-response","142","143261","0.0-142.0","326O153BMJK441XZIYRSPOBYQFDED2","A1FP3SH704X01V","3OYHVNTV5TKW8EI4DRB99U4E79NKOA","","","img/flower3.png","75","182.5","2","1","1","1,0.5,0.5,0.5,1,0.5,0.5,0.5,1",""
"null","","html-keyboard-response","143","143565","0.0-143.0","326O153BMJK441XZIYRSPOBYQFDED2","A1FP3SH704X01V","3OYHVNTV5TKW8EI4DRB99U4E79NKOA","","","<img src=""img/flower3.png"" style=""width:200px; border:14px solid green;"">","null","","","","","",""
"911.8000000119209","","image-keyboard-response","144","144478","0.0-144.0","326O153BMJK441XZIYRSPOBYQFDED2","A1FP3SH704X01V","3OYHVNTV5TKW8EI4DRB99U4E79NKOA","","","img/flower2.png","75","912.5","2","1","2","1,0.5,0.5,0.5,1,0.5,0.5,0.5,1",""
"null","","html-keyboard-response","145","144784","0.0-145.0","326O153BMJK441XZIYRSPOBYQFDED2","A1FP3SH704X01V","3OYHVNTV5TKW8EI4DRB99U4E79NKOA","","","<img src=""img/flower2.png"" style=""width:200px; border:14px solid green;"">","null","","","","","",""
"392.80000001192093","","image-keyboard-response","146","145178","0.0-146.0","326O153BMJK441XZIYRSPOBYQFDED2","A1FP3SH704X01V","3OYHVNTV5TKW8EI4DRB99U4E79NKOA","","","img/flower2.png","75","393.40000000596046","2","1","2","1,0.5,0.5,0.5,1,0.5,0.5,0.5,1",""
"null","","html-keyboard-response","147","145493","0.0-147.0","326O153BMJK441XZIYRSPOBYQFDED2","A1FP3SH704X01V","3OYHVNTV5TKW8EI4DRB99U4E79NKOA","","","<img src=""img/flower2.png"" style=""width:200px; border:14px solid green;"">","null","","","","","",""
"240.09999999403954","","image-keyboard-response","148","145734","0.0-148.0","326O153BMJK441XZIYRSPOBYQFDED2","A1FP3SH704X01V","3OYHVNTV5TKW8EI4DRB99U4E79NKOA","","","img/flower3.png","75","241","2","1","1","1,0.5,0.5,0.5,1,0.5,0.5,0.5,1",""
"null","","html-keyboard-response","149","146038","0.0-149.0","326O153BMJK441XZIYRSPOBYQFDED2","A1FP3SH704X01V","3OYHVNTV5TKW8EI4DRB99U4E79NKOA","","","<img src=""img/flower3.png"" style=""width:200px; border:14px solid green;"">","null","","","","","",""
"421.5","","image-keyboard-response","150","146461","0.0-150.0","326O153BMJK441XZIYRSPOBYQFDED2","A1FP3SH704X01V","3OYHVNTV5TKW8EI4DRB99U4E79NKOA","","","img/flower3.png","75","422","2","1","1","1,0.5,0.5,0.5,1,0.5,0.5,0.5,1",""
"null","","html-keyboard-response","151","146766","0.0-151.0","326O153BMJK441XZIYRSPOBYQFDED2","A1FP3SH704X01V","3OYHVNTV5TKW8EI4DRB99U4E79NKOA","","","<img src=""img/flower3.png"" style=""width:200px; border:14px solid green;"">","null","","","","","",""
"300.30000001192093","","image-keyboard-response","152","147067","0.0-152.0","326O153BMJK441XZIYRSPOBYQFDED2","A1FP3SH704X01V","3OYHVNTV5TKW8EI4DRB99U4E79NKOA","","","img/flower3.png","75","300.90000000596046","2","0","1","1,0.5,0.5,0.5,1,0.5,0.5,0.5,1",""
"null","","html-keyboard-response","153","147381","0.0-153.0","326O153BMJK441XZIYRSPOBYQFDED2","A1FP3SH704X01V","3OYHVNTV5TKW8EI4DRB99U4E79NKOA","","","<img src=""img/flower3.png"" style=""width:200px;border:14px solid red;"">","null","","","","","",""
"568.5999999940395","","image-keyboard-response","154","147951","0.0-154.0","326O153BMJK441XZIYRSPOBYQFDED2","A1FP3SH704X01V","3OYHVNTV5TKW8EI4DRB99U4E79NKOA","","","img/flower6.png","76","569.3000000119209","3","1","3","1,0.5,0.5,0.5,1,0.5,0.5,0.5,1",""
"null","","html-keyboard-response","155","148263","0.0-155.0","326O153BMJK441XZIYRSPOBYQFDED2","A1FP3SH704X01V","3OYHVNTV5TKW8EI4DRB99U4E79NKOA","","","<img src=""img/flower6.png"" style=""width:200px; border:14px solid green;"">","null","","","","","",""
"596.5999999940395","","image-keyboard-response","156","148861","0.0-156.0","326O153BMJK441XZIYRSPOBYQFDED2","A1FP3SH704X01V","3OYHVNTV5TKW8EI4DRB99U4E79NKOA","","","img/flower3.png","74","597","1","1","1","1,0.5,0.5,0.5,1,0.5,0.5,0.5,1",""
"null","","html-keyboard-response","157","149171","0.0-157.0","326O153BMJK441XZIYRSPOBYQFDED2","A1FP3SH704X01V","3OYHVNTV5TKW8EI4DRB99U4E79NKOA","","","<img src=""img/flower3.png"" style=""width:200px; border:14px solid green;"">","null","","","","","",""
"350.59999999403954","","image-keyboard-response","158","149522","0.0-158.0","326O153BMJK441XZIYRSPOBYQFDED2","A1FP3SH704X01V","3OYHVNTV5TKW8EI4DRB99U4E79NKOA","","","img/flower3.png","74","350.90000000596046","1","1","1","1,0.5,0.5,0.5,1,0.5,0.5,0.5,1",""
"null","","html-keyboard-response","159","149833","0.0-159.0","326O153BMJK441XZIYRSPOBYQFDED2","A1FP3SH704X01V","3OYHVNTV5TKW8EI4DRB99U4E79NKOA","","","<img src=""img/flower3.png"" style=""width:200px; border:14px solid green;"">","null","","","","","",""
"726.6999999880791","","image-keyboard-response","160","150560","0.0-160.0","326O153BMJK441XZIYRSPOBYQFDED2","A1FP3SH704X01V","3OYHVNTV5TKW8EI4DRB99U4E79NKOA","","","img/flower6.png","76","727.3000000119209","3","1","3","1,0.5,0.5,0.5,1,0.5,0.5,0.5,1",""
"null","","html-keyboard-response","161","150869","0.0-161.0","326O153BMJK441XZIYRSPOBYQFDED2","A1FP3SH704X01V","3OYHVNTV5TKW8EI4DRB99U4E79NKOA","","","<img src=""img/flower6.png"" style=""width:200px; border:14px solid green;"">","null","","","","","",""
"360.19999998807907","","image-keyboard-response","162","151230","0.0-162.0","326O153BMJK441XZIYRSPOBYQFDED2","A1FP3SH704X01V","3OYHVNTV5TKW8EI4DRB99U4E79NKOA","","","img/flower6.png","76","360.7000000178814","3","1","3","1,0.5,0.5,0.5,1,0.5,0.5,0.5,1",""
"null","","html-keyboard-response","163","151537","0.0-163.0","326O153BMJK441XZIYRSPOBYQFDED2","A1FP3SH704X01V","3OYHVNTV5TKW8EI4DRB99U4E79NKOA","","","<img src=""img/flower6.png"" style=""width:200px; border:14px solid green;"">","null","","","","","",""
"630.6999999880791","","image-keyboard-response","164","152169","0.0-164.0","326O153BMJK441XZIYRSPOBYQFDED2","A1FP3SH704X01V","3OYHVNTV5TKW8EI4DRB99U4E79NKOA","","","img/flower3.png","74","631.1999999880791","1","1","1","1,0.5,0.5,0.5,1,0.5,0.5,0.5,1",""
"null","","html-keyboard-response","165","152477","0.0-165.0","326O153BMJK441XZIYRSPOBYQFDED2","A1FP3SH704X01V","3OYHVNTV5TKW8EI4DRB99U4E79NKOA","","","<img src=""img/flower3.png"" style=""width:200px; border:14px solid green;"">","null","","","","","",""
"614.0999999940395","","image-keyboard-response","166","153092","0.0-166.0","326O153BMJK441XZIYRSPOBYQFDED2","A1FP3SH704X01V","3OYHVNTV5TKW8EI4DRB99U4E79NKOA","","","img/flower6.png","76","614.5","3","1","3","1,0.5,0.5,0.5,1,0.5,0.5,0.5,1",""
"null","","html-keyboard-response","167","153396","0.0-167.0","326O153BMJK441XZIYRSPOBYQFDED2","A1FP3SH704X01V","3OYHVNTV5TKW8EI4DRB99U4E79NKOA","","","<img src=""img/flower6.png"" style=""width:200px; border:14px solid green;"">","null","","","","","",""
"459.30000001192093","","image-keyboard-response","168","153856","0.0-168.0","326O153BMJK441XZIYRSPOBYQFDED2","A1FP3SH704X01V","3OYHVNTV5TKW8EI4DRB99U4E79NKOA","","","img/flower2.png","74","459.59999999403954","1","0","2","1,0.5,0.5,0.5,1,0.5,0.5,0.5,1",""
"null","","html-keyboard-response","169","154168","0.0-169.0","326O153BMJK441XZIYRSPOBYQFDED2","A1FP3SH704X01V","3OYHVNTV5TKW8EI4DRB99U4E79NKOA","","","<img src=""img/flower2.png"" style=""width:200px;border:14px solid red;"">","null","","","","","",""
"482.09999999403954","","image-keyboard-response","170","154651","0.0-170.0","326O153BMJK441XZIYRSPOBYQFDED2","A1FP3SH704X01V","3OYHVNTV5TKW8EI4DRB99U4E79NKOA","","","img/flower3.png","74","482.40000000596046","1","1","1","1,0.5,0.5,0.5,1,0.5,0.5,0.5,1",""
"null","","html-keyboard-response","171","154956","0.0-171.0","326O153BMJK441XZIYRSPOBYQFDED2","A1FP3SH704X01V","3OYHVNTV5TKW8EI4DRB99U4E79NKOA","","","<img src=""img/flower3.png"" style=""width:200px; border:14px solid green;"">","null","","","","","",""
"556.5","","image-keyboard-response","172","155513","0.0-172.0","326O153BMJK441XZIYRSPOBYQFDED2","A1FP3SH704X01V","3OYHVNTV5TKW8EI4DRB99U4E79NKOA","","","img/flower2.png","75","557","2","1","2","1,0.5,0.5,0.5,1,0.5,0.5,0.5,1",""
"null","","html-keyboard-response","173","155820","0.0-173.0","326O153BMJK441XZIYRSPOBYQFDED2","A1FP3SH704X01V","3OYHVNTV5TKW8EI4DRB99U4E79NKOA","","","<img src=""img/flower2.png"" style=""width:200px; border:14px solid green;"">","null","","","","","",""
"599.2000000178814","","image-keyboard-response","174","156420","0.0-174.0","326O153BMJK441XZIYRSPOBYQFDED2","A1FP3SH704X01V","3OYHVNTV5TKW8EI4DRB99U4E79NKOA","","","img/flower3.png","74","599.9000000059605","1","1","1","1,0.5,0.5,0.5,1,0.5,0.5,0.5,1",""
"null","","html-keyboard-response","175","156734","0.0-175.0","326O153BMJK441XZIYRSPOBYQFDED2","A1FP3SH704X01V","3OYHVNTV5TKW8EI4DRB99U4E79NKOA","","","<img src=""img/flower3.png"" style=""width:200px; border:14px solid green;"">","null","","","","","",""
"471.69999998807907","","image-keyboard-response","176","157206","0.0-176.0","326O153BMJK441XZIYRSPOBYQFDED2","A1FP3SH704X01V","3OYHVNTV5TKW8EI4DRB99U4E79NKOA","","","img/flower2.png","75","472.19999998807907","2","1","2","1,0.5,0.5,0.5,1,0.5,0.5,0.5,1",""
"null","","html-keyboard-response","177","157518","0.0-177.0","326O153BMJK441XZIYRSPOBYQFDED2","A1FP3SH704X01V","3OYHVNTV5TKW8EI4DRB99U4E79NKOA","","","<img src=""img/flower2.png"" style=""width:200px; border:14px solid green;"">","null","","","","","",""
"489.2000000178814","","image-keyboard-response","178","158008","0.0-178.0","326O153BMJK441XZIYRSPOBYQFDED2","A1FP3SH704X01V","3OYHVNTV5TKW8EI4DRB99U4E79NKOA","","","img/flower6.png","76","489.59999999403954","3","1","3","1,0.5,0.5,0.5,1,0.5,0.5,0.5,1",""
"null","","html-keyboard-response","179","158322","0.0-179.0","326O153BMJK441XZIYRSPOBYQFDED2","A1FP3SH704X01V","3OYHVNTV5TKW8EI4DRB99U4E79NKOA","","","<img src=""img/flower6.png"" style=""width:200px; border:14px solid green;"">","null","","","","","",""
"552.0999999940395","","image-keyboard-response","180","158875","0.0-180.0","326O153BMJK441XZIYRSPOBYQFDED2","A1FP3SH704X01V","3OYHVNTV5TKW8EI4DRB99U4E79NKOA","","","img/flower2.png","75","552.5","2","1","2","1,0.5,0.5,0.5,1,0.5,0.5,0.5,1",""
"null","","html-keyboard-response","181","159186","0.0-181.0","326O153BMJK441XZIYRSPOBYQFDED2","A1FP3SH704X01V","3OYHVNTV5TKW8EI4DRB99U4E79NKOA","","","<img src=""img/flower2.png"" style=""width:200px; border:14px solid green;"">","null","","","","","",""
"581.8000000119209","","image-keyboard-response","182","159768","0.0-182.0","326O153BMJK441XZIYRSPOBYQFDED2","A1FP3SH704X01V","3OYHVNTV5TKW8EI4DRB99U4E79NKOA","","","img/flower6.png","76","582.2999999821186","3","1","3","1,0.5,0.5,0.5,1,0.5,0.5,0.5,1",""
"null","","html-keyboard-response","183","160075","0.0-183.0","326O153BMJK441XZIYRSPOBYQFDED2","A1FP3SH704X01V","3OYHVNTV5TKW8EI4DRB99U4E79NKOA","","","<img src=""img/flower6.png"" style=""width:200px; border:14px solid green;"">","null","","","","","",""
"349.60000002384186","","image-keyboard-response","184","160426","0.0-184.0","326O153BMJK441XZIYRSPOBYQFDED2","A1FP3SH704X01V","3OYHVNTV5TKW8EI4DRB99U4E79NKOA","","","img/flower6.png","76","350.30000001192093","3","1","3","1,0.5,0.5,0.5,1,0.5,0.5,0.5,1",""
"null","","html-keyboard-response","185","160734","0.0-185.0","326O153BMJK441XZIYRSPOBYQFDED2","A1FP3SH704X01V","3OYHVNTV5TKW8EI4DRB99U4E79NKOA","","","<img src=""img/flower6.png"" style=""width:200px; border:14px solid green;"">","null","","","","","",""
"453.59999999403954","","image-keyboard-response","186","161189","0.0-186.0","326O153BMJK441XZIYRSPOBYQFDED2","A1FP3SH704X01V","3OYHVNTV5TKW8EI4DRB99U4E79NKOA","","","img/flower2.png","75","454","2","1","2","1,0.5,0.5,0.5,1,0.5,0.5,0.5,1",""
"null","","html-keyboard-response","187","161490","0.0-187.0","326O153BMJK441XZIYRSPOBYQFDED2","A1FP3SH704X01V","3OYHVNTV5TKW8EI4DRB99U4E79NKOA","","","<img src=""img/flower2.png"" style=""width:200px; border:14px solid green;"">","null","","","","","",""
"544.6999999880791","","image-keyboard-response","188","162036","0.0-188.0","326O153BMJK441XZIYRSPOBYQFDED2","A1FP3SH704X01V","3OYHVNTV5TKW8EI4DRB99U4E79NKOA","","","img/flower6.png","76","545.3999999761581","3","1","3","1,0.5,0.5,0.5,1,0.5,0.5,0.5,1",""
"null","","html-keyboard-response","189","162342","0.0-189.0","326O153BMJK441XZIYRSPOBYQFDED2","A1FP3SH704X01V","3OYHVNTV5TKW8EI4DRB99U4E79NKOA","","","<img src=""img/flower6.png"" style=""width:200px; border:14px solid green;"">","null","","","","","",""
"581.3000000119209","","image-keyboard-response","190","162924","0.0-190.0","326O153BMJK441XZIYRSPOBYQFDED2","A1FP3SH704X01V","3OYHVNTV5TKW8EI4DRB99U4E79NKOA","","","img/flower3.png","74","581.6999999880791","1","1","1","1,0.5,0.5,0.5,1,0.5,0.5,0.5,1",""
"null","","html-keyboard-response","191","163226","0.0-191.0","326O153BMJK441XZIYRSPOBYQFDED2","A1FP3SH704X01V","3OYHVNTV5TKW8EI4DRB99U4E79NKOA","","","<img src=""img/flower3.png"" style=""width:200px; border:14px solid green;"">","null","","","","","",""
"568.1999999880791","","image-keyboard-response","192","163795","0.0-192.0","326O153BMJK441XZIYRSPOBYQFDED2","A1FP3SH704X01V","3OYHVNTV5TKW8EI4DRB99U4E79NKOA","","","img/flower6.png","76","568.5999999940395","3","1","3","1,0.5,0.5,0.5,1,0.5,0.5,0.5,1",""
"null","","html-keyboard-response","193","164098","0.0-193.0","326O153BMJK441XZIYRSPOBYQFDED2","A1FP3SH704X01V","3OYHVNTV5TKW8EI4DRB99U4E79NKOA","","","<img src=""img/flower6.png"" style=""width:200px; border:14px solid green;"">","null","","","","","",""
"565.4000000059605","","image-keyboard-response","194","164664","0.0-194.0","326O153BMJK441XZIYRSPOBYQFDED2","A1FP3SH704X01V","3OYHVNTV5TKW8EI4DRB99U4E79NKOA","","","img/flower2.png","75","566","2","1","2","1,0.5,0.5,0.5,1,0.5,0.5,0.5,1",""
"null","","html-keyboard-response","195","164980","0.0-195.0","326O153BMJK441XZIYRSPOBYQFDED2","A1FP3SH704X01V","3OYHVNTV5TKW8EI4DRB99U4E79NKOA","","","<img src=""img/flower2.png"" style=""width:200px; border:14px solid green;"">","null","","","","","",""
"567.1999999880791","","image-keyboard-response","196","165548","0.0-196.0","326O153BMJK441XZIYRSPOBYQFDED2","A1FP3SH704X01V","3OYHVNTV5TKW8EI4DRB99U4E79NKOA","","","img/flower3.png","74","567.8000000119209","1","1","1","1,0.5,0.5,0.5,1,0.5,0.5,0.5,1",""
"null","","html-keyboard-response","197","165848","0.0-197.0","326O153BMJK441XZIYRSPOBYQFDED2","A1FP3SH704X01V","3OYHVNTV5TKW8EI4DRB99U4E79NKOA","","","<img src=""img/flower3.png"" style=""width:200px; border:14px solid green;"">","null","","","","","",""
"571.2999999821186","","image-keyboard-response","198","166421","0.0-198.0","326O153BMJK441XZIYRSPOBYQFDED2","A1FP3SH704X01V","3OYHVNTV5TKW8EI4DRB99U4E79NKOA","","","img/flower6.png","76","571.7999999821186","3","1","3","1,0.5,0.5,0.5,1,0.5,0.5,0.5,1",""
"null","","html-keyboard-response","199","166727","0.0-199.0","326O153BMJK441XZIYRSPOBYQFDED2","A1FP3SH704X01V","3OYHVNTV5TKW8EI4DRB99U4E79NKOA","","","<img src=""img/flower6.png"" style=""width:200px; border:14px solid green;"">","null","","","","","",""
"691","","image-keyboard-response","200","167419","0.0-200.0","326O153BMJK441XZIYRSPOBYQFDED2","A1FP3SH704X01V","3OYHVNTV5TKW8EI4DRB99U4E79NKOA","","","img/flower2.png","75","691.8000000119209","2","1","2","1,0.5,0.5,0.5,1,0.5,0.5,0.5,1",""
"null","","html-keyboard-response","201","167731","0.0-201.0","326O153BMJK441XZIYRSPOBYQFDED2","A1FP3SH704X01V","3OYHVNTV5TKW8EI4DRB99U4E79NKOA","","","<img src=""img/flower2.png"" style=""width:200px; border:14px solid green;"">","null","","","","","",""
"582.0999999940395","","image-keyboard-response","202","168314","0.0-202.0","326O153BMJK441XZIYRSPOBYQFDED2","A1FP3SH704X01V","3OYHVNTV5TKW8EI4DRB99U4E79NKOA","","","img/flower3.png","74","582.5999999940395","1","1","1","1,0.5,0.5,0.5,1,0.5,0.5,0.5,1",""
"null","","html-keyboard-response","203","168626","0.0-203.0","326O153BMJK441XZIYRSPOBYQFDED2","A1FP3SH704X01V","3OYHVNTV5TKW8EI4DRB99U4E79NKOA","","","<img src=""img/flower3.png"" style=""width:200px; border:14px solid green;"">","null","","","","","",""
"357","","image-keyboard-response","204","168984","0.0-204.0","326O153BMJK441XZIYRSPOBYQFDED2","A1FP3SH704X01V","3OYHVNTV5TKW8EI4DRB99U4E79NKOA","","","img/flower3.png","74","357.40000000596046","1","1","1","1,0.5,0.5,0.5,1,0.5,0.5,0.5,1",""
"null","","html-keyboard-response","205","169285","0.0-205.0","326O153BMJK441XZIYRSPOBYQFDED2","A1FP3SH704X01V","3OYHVNTV5TKW8EI4DRB99U4E79NKOA","","","<img src=""img/flower3.png"" style=""width:200px; border:14px solid green;"">","null","","","","","",""
"354","","image-keyboard-response","206","169639","0.0-206.0","326O153BMJK441XZIYRSPOBYQFDED2","A1FP3SH704X01V","3OYHVNTV5TKW8EI4DRB99U4E79NKOA","","","img/flower3.png","74","354.5","1","1","1","1,0.5,0.5,0.5,1,0.5,0.5,0.5,1",""
"null","","html-keyboard-response","207","169946","0.0-207.0","326O153BMJK441XZIYRSPOBYQFDED2","A1FP3SH704X01V","3OYHVNTV5TKW8EI4DRB99U4E79NKOA","","","<img src=""img/flower3.png"" style=""width:200px; border:14px solid green;"">","null","","","","","",""
"299.60000002384186","","image-keyboard-response","208","170247","0.0-208.0","326O153BMJK441XZIYRSPOBYQFDED2","A1FP3SH704X01V","3OYHVNTV5TKW8EI4DRB99U4E79NKOA","","","img/flower3.png","74","300.09999999403954","1","1","1","1,0.5,0.5,0.5,1,0.5,0.5,0.5,1",""
"null","","html-keyboard-response","209","170557","0.0-209.0","326O153BMJK441XZIYRSPOBYQFDED2","A1FP3SH704X01V","3OYHVNTV5TKW8EI4DRB99U4E79NKOA","","","<img src=""img/flower3.png"" style=""width:200px; border:14px solid green;"">","null","","","","","",""
"281.09999999403954","","image-keyboard-response","210","170839","0.0-210.0","326O153BMJK441XZIYRSPOBYQFDED2","A1FP3SH704X01V","3OYHVNTV5TKW8EI4DRB99U4E79NKOA","","","img/flower2.png","74","281.60000002384186","1","0","2","1,0.5,0.5,0.5,1,0.5,0.5,0.5,1",""
"null","","html-keyboard-response","211","171141","0.0-211.0","326O153BMJK441XZIYRSPOBYQFDED2","A1FP3SH704X01V","3OYHVNTV5TKW8EI4DRB99U4E79NKOA","","","<img src=""img/flower2.png"" style=""width:200px;border:14px solid red;"">","null","","","","","",""
"537.4000000059605","","image-keyboard-response","212","171679","0.0-212.0","326O153BMJK441XZIYRSPOBYQFDED2","A1FP3SH704X01V","3OYHVNTV5TKW8EI4DRB99U4E79NKOA","","","img/flower3.png","74","537.8000000119209","1","1","1","1,0.5,0.5,0.5,1,0.5,0.5,0.5,1",""
"null","","html-keyboard-response","213","171980","0.0-213.0","326O153BMJK441XZIYRSPOBYQFDED2","A1FP3SH704X01V","3OYHVNTV5TKW8EI4DRB99U4E79NKOA","","","<img src=""img/flower3.png"" style=""width:200px; border:14px solid green;"">","null","","","","","",""
"527.8000000119209","","image-keyboard-response","214","172508","0.0-214.0","326O153BMJK441XZIYRSPOBYQFDED2","A1FP3SH704X01V","3OYHVNTV5TKW8EI4DRB99U4E79NKOA","","","img/flower2.png","75","528.3999999761581","2","1","2","1,0.5,0.5,0.5,1,0.5,0.5,0.5,1",""
"null","","html-keyboard-response","215","172813","0.0-215.0","326O153BMJK441XZIYRSPOBYQFDED2","A1FP3SH704X01V","3OYHVNTV5TKW8EI4DRB99U4E79NKOA","","","<img src=""img/flower2.png"" style=""width:200px; border:14px solid green;"">","null","","","","","",""
"558.8000000119209","","image-keyboard-response","216","173372","0.0-216.0","326O153BMJK441XZIYRSPOBYQFDED2","A1FP3SH704X01V","3OYHVNTV5TKW8EI4DRB99U4E79NKOA","","","img/flower2.png","75","559.5","2","1","2","1,0.5,0.5,0.5,1,0.5,0.5,0.5,1",""
"null","","html-keyboard-response","217","173679","0.0-217.0","326O153BMJK441XZIYRSPOBYQFDED2","A1FP3SH704X01V","3OYHVNTV5TKW8EI4DRB99U4E79NKOA","","","<img src=""img/flower2.png"" style=""width:200px; border:14px solid green;"">","null","","","","","",""
"446","","image-keyboard-response","218","174126","0.0-218.0","326O153BMJK441XZIYRSPOBYQFDED2","A1FP3SH704X01V","3OYHVNTV5TKW8EI4DRB99U4E79NKOA","","","img/flower2.png","75","446.5","2","1","2","1,0.5,0.5,0.5,1,0.5,0.5,0.5,1",""
"null","","html-keyboard-response","219","174439","0.0-219.0","326O153BMJK441XZIYRSPOBYQFDED2","A1FP3SH704X01V","3OYHVNTV5TKW8EI4DRB99U4E79NKOA","","","<img src=""img/flower2.png"" style=""width:200px; border:14px solid green;"">","null","","","","","",""
"371.19999998807907","","image-keyboard-response","220","174811","0.0-220.0","326O153BMJK441XZIYRSPOBYQFDED2","A1FP3SH704X01V","3OYHVNTV5TKW8EI4DRB99U4E79NKOA","","","img/flower2.png","75","371.69999998807907","2","1","2","1,0.5,0.5,0.5,1,0.5,0.5,0.5,1",""
"null","","html-keyboard-response","221","175114","0.0-221.0","326O153BMJK441XZIYRSPOBYQFDED2","A1FP3SH704X01V","3OYHVNTV5TKW8EI4DRB99U4E79NKOA","","","<img src=""img/flower2.png"" style=""width:200px; border:14px solid green;"">","null","","","","","",""
"474.19999998807907","","image-keyboard-response","222","175589","0.0-222.0","326O153BMJK441XZIYRSPOBYQFDED2","A1FP3SH704X01V","3OYHVNTV5TKW8EI4DRB99U4E79NKOA","","","img/flower6.png","76","474.80000001192093","3","1","3","1,0.5,0.5,0.5,1,0.5,0.5,0.5,1",""
"null","","html-keyboard-response","223","175900","0.0-223.0","326O153BMJK441XZIYRSPOBYQFDED2","A1FP3SH704X01V","3OYHVNTV5TKW8EI4DRB99U4E79NKOA","","","<img src=""img/flower6.png"" style=""width:200px; border:14px solid green;"">","null","","","","","",""
"558.6000000238419","","image-keyboard-response","224","176459","0.0-224.0","326O153BMJK441XZIYRSPOBYQFDED2","A1FP3SH704X01V","3OYHVNTV5TKW8EI4DRB99U4E79NKOA","","","img/flower2.png","75","559.0999999940395","2","1","2","1,0.5,0.5,0.5,1,0.5,0.5,0.5,1",""
"null","","html-keyboard-response","225","176761","0.0-225.0","326O153BMJK441XZIYRSPOBYQFDED2","A1FP3SH704X01V","3OYHVNTV5TKW8EI4DRB99U4E79NKOA","","","<img src=""img/flower2.png"" style=""width:200px; border:14px solid green;"">","null","","","","","",""
"450.30000001192093","","image-keyboard-response","226","177212","0.0-226.0","326O153BMJK441XZIYRSPOBYQFDED2","A1FP3SH704X01V","3OYHVNTV5TKW8EI4DRB99U4E79NKOA","","","img/flower3.png","74","450.7999999821186","1","1","1","1,0.5,0.5,0.5,1,0.5,0.5,0.5,1",""
"null","","html-keyboard-response","227","177516","0.0-227.0","326O153BMJK441XZIYRSPOBYQFDED2","A1FP3SH704X01V","3OYHVNTV5TKW8EI4DRB99U4E79NKOA","","","<img src=""img/flower3.png"" style=""width:200px; border:14px solid green;"">","null","","","","","",""
"566.4000000059605","","image-keyboard-response","228","178083","0.0-228.0","326O153BMJK441XZIYRSPOBYQFDED2","A1FP3SH704X01V","3OYHVNTV5TKW8EI4DRB99U4E79NKOA","","","img/flower2.png","75","566.8999999761581","2","1","2","1,0.5,0.5,0.5,1,0.5,0.5,0.5,1",""
"null","","html-keyboard-response","229","178396","0.0-229.0","326O153BMJK441XZIYRSPOBYQFDED2","A1FP3SH704X01V","3OYHVNTV5TKW8EI4DRB99U4E79NKOA","","","<img src=""img/flower2.png"" style=""width:200px; border:14px solid green;"">","null","","","","","",""
"303","","image-keyboard-response","230","178700","0.0-230.0","326O153BMJK441XZIYRSPOBYQFDED2","A1FP3SH704X01V","3OYHVNTV5TKW8EI4DRB99U4E79NKOA","","","img/flower2.png","75","303.5","2","1","2","1,0.5,0.5,0.5,1,0.5,0.5,0.5,1",""
"null","","html-keyboard-response","231","179014","0.0-231.0","326O153BMJK441XZIYRSPOBYQFDED2","A1FP3SH704X01V","3OYHVNTV5TKW8EI4DRB99U4E79NKOA","","","<img src=""img/flower2.png"" style=""width:200px; border:14px solid green;"">","null","","","","","",""
"252.80000001192093","","image-keyboard-response","232","179268","0.0-232.0","326O153BMJK441XZIYRSPOBYQFDED2","A1FP3SH704X01V","3OYHVNTV5TKW8EI4DRB99U4E79NKOA","","","img/flower2.png","75","253.30000001192093","2","1","2","1,0.5,0.5,0.5,1,0.5,0.5,0.5,1",""
"null","","html-keyboard-response","233","179579","0.0-233.0","326O153BMJK441XZIYRSPOBYQFDED2","A1FP3SH704X01V","3OYHVNTV5TKW8EI4DRB99U4E79NKOA","","","<img src=""img/flower2.png"" style=""width:200px; border:14px solid green;"">","null","","","","","",""
"180","","image-keyboard-response","234","179759","0.0-234.0","326O153BMJK441XZIYRSPOBYQFDED2","A1FP3SH704X01V","3OYHVNTV5TKW8EI4DRB99U4E79NKOA","","","img/flower6.png","75","180.69999998807907","2","0","3","1,0.5,0.5,0.5,1,0.5,0.5,0.5,1",""
"null","","html-keyboard-response","235","180066","0.0-235.0","326O153BMJK441XZIYRSPOBYQFDED2","A1FP3SH704X01V","3OYHVNTV5TKW8EI4DRB99U4E79NKOA","","","<img src=""img/flower6.png"" style=""width:200px;border:14px solid red;"">","null","","","","","",""
"482.7999999821186","","image-keyboard-response","236","180550","0.0-236.0","326O153BMJK441XZIYRSPOBYQFDED2","A1FP3SH704X01V","3OYHVNTV5TKW8EI4DRB99U4E79NKOA","","","img/flower6.png","76","483.5","3","1","3","1,0.5,0.5,0.5,1,0.5,0.5,0.5,1",""
"null","","html-keyboard-response","237","180856","0.0-237.0","326O153BMJK441XZIYRSPOBYQFDED2","A1FP3SH704X01V","3OYHVNTV5TKW8EI4DRB99U4E79NKOA","","","<img src=""img/flower6.png"" style=""width:200px; border:14px solid green;"">","null","","","","","",""
"327.09999999403954","","image-keyboard-response","238","181183","0.0-238.0","326O153BMJK441XZIYRSPOBYQFDED2","A1FP3SH704X01V","3OYHVNTV5TKW8EI4DRB99U4E79NKOA","","","img/flower6.png","76","327.40000000596046","3","1","3","1,0.5,0.5,0.5,1,0.5,0.5,0.5,1",""
"null","","html-keyboard-response","239","181488","0.0-239.0","326O153BMJK441XZIYRSPOBYQFDED2","A1FP3SH704X01V","3OYHVNTV5TKW8EI4DRB99U4E79NKOA","","","<img src=""img/flower6.png"" style=""width:200px; border:14px solid green;"">","null","","","","","",""
"614.6000000238419","","image-keyboard-response","240","182104","0.0-240.0","326O153BMJK441XZIYRSPOBYQFDED2","A1FP3SH704X01V","3OYHVNTV5TKW8EI4DRB99U4E79NKOA","","","img/flower2.png","75","615.1999999880791","2","1","2","1,0.5,0.5,0.5,1,0.5,0.5,0.5,1",""
"null","","html-keyboard-response","241","182418","0.0-241.0","326O153BMJK441XZIYRSPOBYQFDED2","A1FP3SH704X01V","3OYHVNTV5TKW8EI4DRB99U4E79NKOA","","","<img src=""img/flower2.png"" style=""width:200px; border:14px solid green;"">","null","","","","","",""
"633.5999999940395","","image-keyboard-response","242","183052","0.0-242.0","326O153BMJK441XZIYRSPOBYQFDED2","A1FP3SH704X01V","3OYHVNTV5TKW8EI4DRB99U4E79NKOA","","","img/flower6.png","76","634","3","1","3","1,0.5,0.5,0.5,1,0.5,0.5,0.5,1",""
"null","","html-keyboard-response","243","183363","0.0-243.0","326O153BMJK441XZIYRSPOBYQFDED2","A1FP3SH704X01V","3OYHVNTV5TKW8EI4DRB99U4E79NKOA","","","<img src=""img/flower6.png"" style=""width:200px; border:14px solid green;"">","null","","","","","",""
"487.5","","image-keyboard-response","244","183851","0.0-244.0","326O153BMJK441XZIYRSPOBYQFDED2","A1FP3SH704X01V","3OYHVNTV5TKW8EI4DRB99U4E79NKOA","","","img/flower6.png","76","488.10000002384186","3","1","3","1,0.5,0.5,0.5,1,0.5,0.5,0.5,1",""
"null","","html-keyboard-response","245","184162","0.0-245.0","326O153BMJK441XZIYRSPOBYQFDED2","A1FP3SH704X01V","3OYHVNTV5TKW8EI4DRB99U4E79NKOA","","","<img src=""img/flower6.png"" style=""width:200px; border:14px solid green;"">","null","","","","","",""
"550.4000000059605","","image-keyboard-response","246","184713","0.0-246.0","326O153BMJK441XZIYRSPOBYQFDED2","A1FP3SH704X01V","3OYHVNTV5TKW8EI4DRB99U4E79NKOA","","","img/flower3.png","74","551.0999999940395","1","1","1","1,0.5,0.5,0.5,1,0.5,0.5,0.5,1",""
"null","","html-keyboard-response","247","185014","0.0-247.0","326O153BMJK441XZIYRSPOBYQFDED2","A1FP3SH704X01V","3OYHVNTV5TKW8EI4DRB99U4E79NKOA","","","<img src=""img/flower3.png"" style=""width:200px; border:14px solid green;"">","null","","","","","",""
"680.5999999940395","","image-keyboard-response","248","185696","0.0-248.0","326O153BMJK441XZIYRSPOBYQFDED2","A1FP3SH704X01V","3OYHVNTV5TKW8EI4DRB99U4E79NKOA","","","img/flower2.png","75","681.0999999940395","2","1","2","1,0.5,0.5,0.5,1,0.5,0.5,0.5,1",""
"null","","html-keyboard-response","249","186007","0.0-249.0","326O153BMJK441XZIYRSPOBYQFDED2","A1FP3SH704X01V","3OYHVNTV5TKW8EI4DRB99U4E79NKOA","","","<img src=""img/flower2.png"" style=""width:200px; border:14px solid green;"">","null","","","","","",""
"611.1000000238419","","image-keyboard-response","250","186619","0.0-250.0","326O153BMJK441XZIYRSPOBYQFDED2","A1FP3SH704X01V","3OYHVNTV5TKW8EI4DRB99U4E79NKOA","","","img/flower3.png","74","611.6999999880791","1","1","1","1,0.5,0.5,0.5,1,0.5,0.5,0.5,1",""
"null","","html-keyboard-response","251","186920","0.0-251.0","326O153BMJK441XZIYRSPOBYQFDED2","A1FP3SH704X01V","3OYHVNTV5TKW8EI4DRB99U4E79NKOA","","","<img src=""img/flower3.png"" style=""width:200px; border:14px solid green;"">","null","","","","","",""
"575.2000000178814","","image-keyboard-response","252","187495","0.0-252.0","326O153BMJK441XZIYRSPOBYQFDED2","A1FP3SH704X01V","3OYHVNTV5TKW8EI4DRB99U4E79NKOA","","","img/flower6.png","76","575.6999999880791","3","1","3","1,0.5,0.5,0.5,1,0.5,0.5,0.5,1",""
"null","","html-keyboard-response","253","187804","0.0-253.0","326O153BMJK441XZIYRSPOBYQFDED2","A1FP3SH704X01V","3OYHVNTV5TKW8EI4DRB99U4E79NKOA","","","<img src=""img/flower6.png"" style=""width:200px; border:14px solid green;"">","null","","","","","",""
"565.3000000119209","","image-keyboard-response","254","188370","0.0-254.0","326O153BMJK441XZIYRSPOBYQFDED2","A1FP3SH704X01V","3OYHVNTV5TKW8EI4DRB99U4E79NKOA","","","img/flower3.png","74","565.9000000059605","1","1","1","1,0.5,0.5,0.5,1,0.5,0.5,0.5,1",""
"null","","html-keyboard-response","255","188670","0.0-255.0","326O153BMJK441XZIYRSPOBYQFDED2","A1FP3SH704X01V","3OYHVNTV5TKW8EI4DRB99U4E79NKOA","","","<img src=""img/flower3.png"" style=""width:200px; border:14px solid green;"">","null","","","","","",""
"923.8999999761581","","image-keyboard-response","256","189595","0.0-256.0","326O153BMJK441XZIYRSPOBYQFDED2","A1FP3SH704X01V","3OYHVNTV5TKW8EI4DRB99U4E79NKOA","","","img/flower2.png","75","924.3000000119209","2","1","2","1,0.5,0.5,0.5,1,0.5,0.5,0.5,1",""
"null","","html-keyboard-response","257","189909","0.0-257.0","326O153BMJK441XZIYRSPOBYQFDED2","A1FP3SH704X01V","3OYHVNTV5TKW8EI4DRB99U4E79NKOA","","","<img src=""img/flower2.png"" style=""width:200px; border:14px solid green;"">","null","","","","","",""
"1954.5999999940395","","image-keyboard-response","258","191864","0.0-258.0","326O153BMJK441XZIYRSPOBYQFDED2","A1FP3SH704X01V","3OYHVNTV5TKW8EI4DRB99U4E79NKOA","","","img/flower6.png","76","1955.0999999940395","3","1","3","1,0.5,0.5,0.5,1,0.5,0.5,0.5,1",""
"null","","html-keyboard-response","259","192182","0.0-259.0","326O153BMJK441XZIYRSPOBYQFDED2","A1FP3SH704X01V","3OYHVNTV5TKW8EI4DRB99U4E79NKOA","","","<img src=""img/flower6.png"" style=""width:200px; border:14px solid green;"">","null","","","","","",""
"983.3000000119209","","image-keyboard-response","260","193166","0.0-260.0","326O153BMJK441XZIYRSPOBYQFDED2","A1FP3SH704X01V","3OYHVNTV5TKW8EI4DRB99U4E79NKOA","","","img/flower6.png","76","983.8000000119209","3","1","3","1,0.5,0.5,0.5,1,0.5,0.5,0.5,1",""
"null","","html-keyboard-response","261","193477","0.0-261.0","326O153BMJK441XZIYRSPOBYQFDED2","A1FP3SH704X01V","3OYHVNTV5TKW8EI4DRB99U4E79NKOA","","","<img src=""img/flower6.png"" style=""width:200px; border:14px solid green;"">","null","","","","","",""
"503.19999998807907","","image-keyboard-response","262","193981","0.0-262.0","326O153BMJK441XZIYRSPOBYQFDED2","A1FP3SH704X01V","3OYHVNTV5TKW8EI4DRB99U4E79NKOA","","","img/flower3.png","74","503.89999997615814","1","1","1","1,0.5,0.5,0.5,1,0.5,0.5,0.5,1",""
"null","","html-keyboard-response","263","194284","0.0-263.0","326O153BMJK441XZIYRSPOBYQFDED2","A1FP3SH704X01V","3OYHVNTV5TKW8EI4DRB99U4E79NKOA","","","<img src=""img/flower3.png"" style=""width:200px; border:14px solid green;"">","null","","","","","",""
"677","","image-keyboard-response","264","194961","0.0-264.0","326O153BMJK441XZIYRSPOBYQFDED2","A1FP3SH704X01V","3OYHVNTV5TKW8EI4DRB99U4E79NKOA","","","img/flower3.png","74","677.4000000059605","1","1","1","1,0.5,0.5,0.5,1,0.5,0.5,0.5,1",""
"null","","html-keyboard-response","265","195263","0.0-265.0","326O153BMJK441XZIYRSPOBYQFDED2","A1FP3SH704X01V","3OYHVNTV5TKW8EI4DRB99U4E79NKOA","","","<img src=""img/flower3.png"" style=""width:200px; border:14px solid green;"">","null","","","","","",""
"670.9000000059605","","image-keyboard-response","266","195935","0.0-266.0","326O153BMJK441XZIYRSPOBYQFDED2","A1FP3SH704X01V","3OYHVNTV5TKW8EI4DRB99U4E79NKOA","","","img/flower3.png","74","671.5999999940395","1","1","1","1,0.5,0.5,0.5,1,0.5,0.5,0.5,1",""
"null","","html-keyboard-response","267","196237","0.0-267.0","326O153BMJK441XZIYRSPOBYQFDED2","A1FP3SH704X01V","3OYHVNTV5TKW8EI4DRB99U4E79NKOA","","","<img src=""img/flower3.png"" style=""width:200px; border:14px solid green;"">","null","","","","","",""
"528.9000000059605","","image-keyboard-response","268","196767","0.0-268.0","326O153BMJK441XZIYRSPOBYQFDED2","A1FP3SH704X01V","3OYHVNTV5TKW8EI4DRB99U4E79NKOA","","","img/flower6.png","76","529.5","3","1","3","1,0.5,0.5,0.5,1,0.5,0.5,0.5,1",""
"null","","html-keyboard-response","269","197078","0.0-269.0","326O153BMJK441XZIYRSPOBYQFDED2","A1FP3SH704X01V","3OYHVNTV5TKW8EI4DRB99U4E79NKOA","","","<img src=""img/flower6.png"" style=""width:200px; border:14px solid green;"">","null","","","","","",""
"1228.9000000059605","","image-keyboard-response","270","198307","0.0-270.0","326O153BMJK441XZIYRSPOBYQFDED2","A1FP3SH704X01V","3OYHVNTV5TKW8EI4DRB99U4E79NKOA","","","img/flower2.png","75","1229.5999999940395","2","1","2","1,0.5,0.5,0.5,1,0.5,0.5,0.5,1",""
"null","","html-keyboard-response","271","198619","0.0-271.0","326O153BMJK441XZIYRSPOBYQFDED2","A1FP3SH704X01V","3OYHVNTV5TKW8EI4DRB99U4E79NKOA","","","<img src=""img/flower2.png"" style=""width:200px; border:14px solid green;"">","null","","","","","",""
"374.10000002384186","","image-keyboard-response","272","198994","0.0-272.0","326O153BMJK441XZIYRSPOBYQFDED2","A1FP3SH704X01V","3OYHVNTV5TKW8EI4DRB99U4E79NKOA","","","img/flower2.png","75","374.5","2","1","2","1,0.5,0.5,0.5,1,0.5,0.5,0.5,1",""
"null","","html-keyboard-response","273","199299","0.0-273.0","326O153BMJK441XZIYRSPOBYQFDED2","A1FP3SH704X01V","3OYHVNTV5TKW8EI4DRB99U4E79NKOA","","","<img src=""img/flower2.png"" style=""width:200px; border:14px solid green;"">","null","","","","","",""
"380.7000000178814","","image-keyboard-response","274","199680","0.0-274.0","326O153BMJK441XZIYRSPOBYQFDED2","A1FP3SH704X01V","3OYHVNTV5TKW8EI4DRB99U4E79NKOA","","","img/flower2.png","75","381.40000000596046","2","1","2","1,0.5,0.5,0.5,1,0.5,0.5,0.5,1",""
"null","","html-keyboard-response","275","199990","0.0-275.0","326O153BMJK441XZIYRSPOBYQFDED2","A1FP3SH704X01V","3OYHVNTV5TKW8EI4DRB99U4E79NKOA","","","<img src=""img/flower2.png"" style=""width:200px; border:14px solid green;"">","null","","","","","",""
"492.19999998807907","","image-keyboard-response","276","200483","0.0-276.0","326O153BMJK441XZIYRSPOBYQFDED2","A1FP3SH704X01V","3OYHVNTV5TKW8EI4DRB99U4E79NKOA","","","img/flower6.png","76","492.90000000596046","3","1","3","1,0.5,0.5,0.5,1,0.5,0.5,0.5,1",""
"null","","html-keyboard-response","277","200790","0.0-277.0","326O153BMJK441XZIYRSPOBYQFDED2","A1FP3SH704X01V","3OYHVNTV5TKW8EI4DRB99U4E79NKOA","","","<img src=""img/flower6.png"" style=""width:200px; border:14px solid green;"">","null","","","","","",""
"745.4000000059605","","image-keyboard-response","278","201535","0.0-278.0","326O153BMJK441XZIYRSPOBYQFDED2","A1FP3SH704X01V","3OYHVNTV5TKW8EI4DRB99U4E79NKOA","","","img/flower6.png","76","745.9000000059605","3","1","3","1,0.5,0.5,0.5,1,0.5,0.5,0.5,1",""
"null","","html-keyboard-response","279","201849","0.0-279.0","326O153BMJK441XZIYRSPOBYQFDED2","A1FP3SH704X01V","3OYHVNTV5TKW8EI4DRB99U4E79NKOA","","","<img src=""img/flower6.png"" style=""width:200px; border:14px solid green;"">","null","","","","","",""
"423.5","","image-keyboard-response","280","202274","0.0-280.0","326O153BMJK441XZIYRSPOBYQFDED2","A1FP3SH704X01V","3OYHVNTV5TKW8EI4DRB99U4E79NKOA","","","img/flower6.png","76","424.2999999821186","3","1","3","1,0.5,0.5,0.5,1,0.5,0.5,0.5,1",""
"null","","html-keyboard-response","281","202581","0.0-281.0","326O153BMJK441XZIYRSPOBYQFDED2","A1FP3SH704X01V","3OYHVNTV5TKW8EI4DRB99U4E79NKOA","","","<img src=""img/flower6.png"" style=""width:200px; border:14px solid green;"">","null","","","","","",""
"572.0999999940395","","image-keyboard-response","282","203154","0.0-282.0","326O153BMJK441XZIYRSPOBYQFDED2","A1FP3SH704X01V","3OYHVNTV5TKW8EI4DRB99U4E79NKOA","","","img/flower2.png","75","572.7000000178814","2","1","2","1,0.5,0.5,0.5,1,0.5,0.5,0.5,1",""
"null","","html-keyboard-response","283","203467","0.0-283.0","326O153BMJK441XZIYRSPOBYQFDED2","A1FP3SH704X01V","3OYHVNTV5TKW8EI4DRB99U4E79NKOA","","","<img src=""img/flower2.png"" style=""width:200px; border:14px solid green;"">","null","","","","","",""
"567.7000000178814","","image-keyboard-response","284","204035","0.0-284.0","326O153BMJK441XZIYRSPOBYQFDED2","A1FP3SH704X01V","3OYHVNTV5TKW8EI4DRB99U4E79NKOA","","","img/flower3.png","74","568.1999999880791","1","1","1","1,0.5,0.5,0.5,1,0.5,0.5,0.5,1",""
"null","","html-keyboard-response","285","204338","0.0-285.0","326O153BMJK441XZIYRSPOBYQFDED2","A1FP3SH704X01V","3OYHVNTV5TKW8EI4DRB99U4E79NKOA","","","<img src=""img/flower3.png"" style=""width:200px; border:14px solid green;"">","null","","","","","",""
"543.3000000119209","","image-keyboard-response","286","204882","0.0-286.0","326O153BMJK441XZIYRSPOBYQFDED2","A1FP3SH704X01V","3OYHVNTV5TKW8EI4DRB99U4E79NKOA","","","img/flower6.png","76","543.9000000059605","3","1","3","1,0.5,0.5,0.5,1,0.5,0.5,0.5,1",""
"null","","html-keyboard-response","287","205186","0.0-287.0","326O153BMJK441XZIYRSPOBYQFDED2","A1FP3SH704X01V","3OYHVNTV5TKW8EI4DRB99U4E79NKOA","","","<img src=""img/flower6.png"" style=""width:200px; border:14px solid green;"">","null","","","","","",""
"359.69999998807907","","image-keyboard-response","288","205547","0.0-288.0","326O153BMJK441XZIYRSPOBYQFDED2","A1FP3SH704X01V","3OYHVNTV5TKW8EI4DRB99U4E79NKOA","","","img/flower6.png","76","360.09999999403954","3","1","3","1,0.5,0.5,0.5,1,0.5,0.5,0.5,1",""
"null","","html-keyboard-response","289","205849","0.0-289.0","326O153BMJK441XZIYRSPOBYQFDED2","A1FP3SH704X01V","3OYHVNTV5TKW8EI4DRB99U4E79NKOA","","","<img src=""img/flower6.png"" style=""width:200px; border:14px solid green;"">","null","","","","","",""
"747.4000000059605","","image-keyboard-response","290","206597","0.0-290.0","326O153BMJK441XZIYRSPOBYQFDED2","A1FP3SH704X01V","3OYHVNTV5TKW8EI4DRB99U4E79NKOA","","","img/flower6.png","76","748","3","1","3","1,0.5,0.5,0.5,1,0.5,0.5,0.5,1",""
"null","","html-keyboard-response","291","206914","0.0-291.0","326O153BMJK441XZIYRSPOBYQFDED2","A1FP3SH704X01V","3OYHVNTV5TKW8EI4DRB99U4E79NKOA","","","<img src=""img/flower6.png"" style=""width:200px; border:14px solid green;"">","null","","","","","",""
"365.59999999403954","","image-keyboard-response","292","207280","0.0-292.0","326O153BMJK441XZIYRSPOBYQFDED2","A1FP3SH704X01V","3OYHVNTV5TKW8EI4DRB99U4E79NKOA","","","img/flower6.png","76","366.09999999403954","3","1","3","1,0.5,0.5,0.5,1,0.5,0.5,0.5,1",""
"null","","html-keyboard-response","293","207593","0.0-293.0","326O153BMJK441XZIYRSPOBYQFDED2","A1FP3SH704X01V","3OYHVNTV5TKW8EI4DRB99U4E79NKOA","","","<img src=""img/flower6.png"" style=""width:200px; border:14px solid green;"">","null","","","","","",""
"308.80000001192093","","image-keyboard-response","294","207903","0.0-294.0","326O153BMJK441XZIYRSPOBYQFDED2","A1FP3SH704X01V","3OYHVNTV5TKW8EI4DRB99U4E79NKOA","","","img/flower6.png","76","309.59999999403954","3","1","3","1,0.5,0.5,0.5,1,0.5,0.5,0.5,1",""
"null","","html-keyboard-response","295","208208","0.0-295.0","326O153BMJK441XZIYRSPOBYQFDED2","A1FP3SH704X01V","3OYHVNTV5TKW8EI4DRB99U4E79NKOA","","","<img src=""img/flower6.png"" style=""width:200px; border:14px solid green;"">","null","","","","","",""
"493.59999999403954","","image-keyboard-response","296","208702","0.0-296.0","326O153BMJK441XZIYRSPOBYQFDED2","A1FP3SH704X01V","3OYHVNTV5TKW8EI4DRB99U4E79NKOA","","","img/flower3.png","74","494.09999999403954","1","1","1","1,0.5,0.5,0.5,1,0.5,0.5,0.5,1",""
"null","","html-keyboard-response","297","209007","0.0-297.0","326O153BMJK441XZIYRSPOBYQFDED2","A1FP3SH704X01V","3OYHVNTV5TKW8EI4DRB99U4E79NKOA","","","<img src=""img/flower3.png"" style=""width:200px; border:14px solid green;"">","null","","","","","",""
"518","","image-keyboard-response","298","209526","0.0-298.0","326O153BMJK441XZIYRSPOBYQFDED2","A1FP3SH704X01V","3OYHVNTV5TKW8EI4DRB99U4E79NKOA","","","img/flower2.png","75","518.6000000238419","2","1","2","1,0.5,0.5,0.5,1,0.5,0.5,0.5,1",""
"null","","html-keyboard-response","299","209841","0.0-299.0","326O153BMJK441XZIYRSPOBYQFDED2","A1FP3SH704X01V","3OYHVNTV5TKW8EI4DRB99U4E79NKOA","","","<img src=""img/flower2.png"" style=""width:200px; border:14px solid green;"">","null","","","","","",""
"565.6000000238419","","image-keyboard-response","300","210407","0.0-300.0","326O153BMJK441XZIYRSPOBYQFDED2","A1FP3SH704X01V","3OYHVNTV5TKW8EI4DRB99U4E79NKOA","","","img/flower3.png","74","566.0999999940395","1","1","1","1,0.5,0.5,0.5,1,0.5,0.5,0.5,1",""
"null","","html-keyboard-response","301","210718","0.0-301.0","326O153BMJK441XZIYRSPOBYQFDED2","A1FP3SH704X01V","3OYHVNTV5TKW8EI4DRB99U4E79NKOA","","","<img src=""img/flower3.png"" style=""width:200px; border:14px solid green;"">","null","","","","","",""
"514.0999999940395","","image-keyboard-response","302","211232","0.0-302.0","326O153BMJK441XZIYRSPOBYQFDED2","A1FP3SH704X01V","3OYHVNTV5TKW8EI4DRB99U4E79NKOA","","","img/flower6.png","76","514.5999999940395","3","1","3","1,0.5,0.5,0.5,1,0.5,0.5,0.5,1",""
"null","","html-keyboard-response","303","211535","0.0-303.0","326O153BMJK441XZIYRSPOBYQFDED2","A1FP3SH704X01V","3OYHVNTV5TKW8EI4DRB99U4E79NKOA","","","<img src=""img/flower6.png"" style=""width:200px; border:14px solid green;"">","null","","","","","",""
"598.5","","image-keyboard-response","304","212134","0.0-304.0","326O153BMJK441XZIYRSPOBYQFDED2","A1FP3SH704X01V","3OYHVNTV5TKW8EI4DRB99U4E79NKOA","","","img/flower3.png","74","599","1","1","1","1,0.5,0.5,0.5,1,0.5,0.5,0.5,1",""
"null","","html-keyboard-response","305","212449","0.0-305.0","326O153BMJK441XZIYRSPOBYQFDED2","A1FP3SH704X01V","3OYHVNTV5TKW8EI4DRB99U4E79NKOA","","","<img src=""img/flower3.png"" style=""width:200px; border:14px solid green;"">","null","","","","","",""
"","","html-keyboard-response","306","214291","0.0-306.0","326O153BMJK441XZIYRSPOBYQFDED2","A1FP3SH704X01V","3OYHVNTV5TKW8EI4DRB99U4E79NKOA","","","","","","","","","",""
"706","","image-keyboard-response","307","214998","0.0-307.0","326O153BMJK441XZIYRSPOBYQFDED2","A1FP3SH704X01V","3OYHVNTV5TKW8EI4DRB99U4E79NKOA","","","img/flower4.png","74","706.5999999940395","1","0","2","1,1,0,0,1,1,1,0,1",""
"null","","html-keyboard-response","308","215304","0.0-308.0","326O153BMJK441XZIYRSPOBYQFDED2","A1FP3SH704X01V","3OYHVNTV5TKW8EI4DRB99U4E79NKOA","","","<img src=""img/flower4.png"" style=""width:200px;border:14px solid red;"">","null","","","","","",""
"804","","image-keyboard-response","309","216109","0.0-309.0","326O153BMJK441XZIYRSPOBYQFDED2","A1FP3SH704X01V","3OYHVNTV5TKW8EI4DRB99U4E79NKOA","","","img/flower1.png","75","804.6999999880791","2","0","3","1,1,0,0,1,1,1,0,1",""
"null","","html-keyboard-response","310","216410","0.0-310.0","326O153BMJK441XZIYRSPOBYQFDED2","A1FP3SH704X01V","3OYHVNTV5TKW8EI4DRB99U4E79NKOA","","","<img src=""img/flower1.png"" style=""width:200px;border:14px solid red;"">","null","","","","","",""
"691.2999999821186","","image-keyboard-response","311","217102","0.0-311.0","326O153BMJK441XZIYRSPOBYQFDED2","A1FP3SH704X01V","3OYHVNTV5TKW8EI4DRB99U4E79NKOA","","","img/flower4.png","74","691.9000000059605","1","0","2","1,1,0,0,1,1,1,0,1",""
"null","","html-keyboard-response","312","217419","0.0-312.0","326O153BMJK441XZIYRSPOBYQFDED2","A1FP3SH704X01V","3OYHVNTV5TKW8EI4DRB99U4E79NKOA","","","<img src=""img/flower4.png"" style=""width:200px;border:14px solid red;"">","null","","","","","",""
"363","","image-keyboard-response","313","217782","0.0-313.0","326O153BMJK441XZIYRSPOBYQFDED2","A1FP3SH704X01V","3OYHVNTV5TKW8EI4DRB99U4E79NKOA","","","img/flower4.png","74","363.7000000178814","1","0","2","1,1,0,0,1,1,1,0,1",""
"null","","html-keyboard-response","314","218093","0.0-314.0","326O153BMJK441XZIYRSPOBYQFDED2","A1FP3SH704X01V","3OYHVNTV5TKW8EI4DRB99U4E79NKOA","","","<img src=""img/flower4.png"" style=""width:200px;border:14px solid red;"">","null","","","","","",""
"256.7999999821186","","image-keyboard-response","315","218351","0.0-315.0","326O153BMJK441XZIYRSPOBYQFDED2","A1FP3SH704X01V","3OYHVNTV5TKW8EI4DRB99U4E79NKOA","","","img/flower5.png","75","257.59999999403954","2","1","1","1,1,0,0,1,1,1,0,1",""
"null","","html-keyboard-response","316","218657","0.0-316.0","326O153BMJK441XZIYRSPOBYQFDED2","A1FP3SH704X01V","3OYHVNTV5TKW8EI4DRB99U4E79NKOA","","","<img src=""img/flower5.png"" style=""width:200px; border:14px solid green;"">","null","","","","","",""
"1104.5","","image-keyboard-response","317","219762","0.0-317.0","326O153BMJK441XZIYRSPOBYQFDED2","A1FP3SH704X01V","3OYHVNTV5TKW8EI4DRB99U4E79NKOA","","","img/flower4.png","75","1105.1000000238419","2","1","2","1,1,0,0,1,1,1,0,1",""
"null","","html-keyboard-response","318","220069","0.0-318.0","326O153BMJK441XZIYRSPOBYQFDED2","A1FP3SH704X01V","3OYHVNTV5TKW8EI4DRB99U4E79NKOA","","","<img src=""img/flower4.png"" style=""width:200px; border:14px solid green;"">","null","","","","","",""
"349.09999999403954","","image-keyboard-response","319","220419","0.0-319.0","326O153BMJK441XZIYRSPOBYQFDED2","A1FP3SH704X01V","3OYHVNTV5TKW8EI4DRB99U4E79NKOA","","","img/flower4.png","75","349.80000001192093","2","1","2","1,1,0,0,1,1,1,0,1",""
"null","","html-keyboard-response","320","220733","0.0-320.0","326O153BMJK441XZIYRSPOBYQFDED2","A1FP3SH704X01V","3OYHVNTV5TKW8EI4DRB99U4E79NKOA","","","<img src=""img/flower4.png"" style=""width:200px; border:14px solid green;"">","null","","","","","",""
"581.2000000178814","","image-keyboard-response","321","221315","0.0-321.0","326O153BMJK441XZIYRSPOBYQFDED2","A1FP3SH704X01V","3OYHVNTV5TKW8EI4DRB99U4E79NKOA","","","img/flower5.png","75","581.7999999821186","2","1","1","1,1,0,0,1,1,1,0,1",""
"null","","html-keyboard-response","322","221630","0.0-322.0","326O153BMJK441XZIYRSPOBYQFDED2","A1FP3SH704X01V","3OYHVNTV5TKW8EI4DRB99U4E79NKOA","","","<img src=""img/flower5.png"" style=""width:200px; border:14px solid green;"">","null","","","","","",""
"455.7000000178814","","image-keyboard-response","323","222086","0.0-323.0","326O153BMJK441XZIYRSPOBYQFDED2","A1FP3SH704X01V","3OYHVNTV5TKW8EI4DRB99U4E79NKOA","","","img/flower1.png","75","456.19999998807907","2","0","3","1,1,0,0,1,1,1,0,1",""
"null","","html-keyboard-response","324","222401","0.0-324.0","326O153BMJK441XZIYRSPOBYQFDED2","A1FP3SH704X01V","3OYHVNTV5TKW8EI4DRB99U4E79NKOA","","","<img src=""img/flower1.png"" style=""width:200px;border:14px solid red;"">","null","","","","","",""
"971.7999999821186","","image-keyboard-response","325","223373","0.0-325.0","326O153BMJK441XZIYRSPOBYQFDED2","A1FP3SH704X01V","3OYHVNTV5TKW8EI4DRB99U4E79NKOA","","","img/flower4.png","75","972.4000000059605","2","1","2","1,1,0,0,1,1,1,0,1",""
"null","","html-keyboard-response","326","223677","0.0-326.0","326O153BMJK441XZIYRSPOBYQFDED2","A1FP3SH704X01V","3OYHVNTV5TKW8EI4DRB99U4E79NKOA","","","<img src=""img/flower4.png"" style=""width:200px; border:14px solid green;"">","null","","","","","",""
"469.09999999403954","","image-keyboard-response","327","224147","0.0-327.0","326O153BMJK441XZIYRSPOBYQFDED2","A1FP3SH704X01V","3OYHVNTV5TKW8EI4DRB99U4E79NKOA","","","img/flower1.png","76","469.69999998807907","3","1","3","1,1,0,0,1,1,1,0,1",""
"null","","html-keyboard-response","328","224461","0.0-328.0","326O153BMJK441XZIYRSPOBYQFDED2","A1FP3SH704X01V","3OYHVNTV5TKW8EI4DRB99U4E79NKOA","","","<img src=""img/flower1.png"" style=""width:200px; border:14px solid green;"">","null","","","","","",""
"605.9000000059605","","image-keyboard-response","329","225068","0.0-329.0","326O153BMJK441XZIYRSPOBYQFDED2","A1FP3SH704X01V","3OYHVNTV5TKW8EI4DRB99U4E79NKOA","","","img/flower5.png","75","606.4000000059605","2","1","1","1,1,0,0,1,1,1,0,1",""
"null","","html-keyboard-response","330","225371","0.0-330.0","326O153BMJK441XZIYRSPOBYQFDED2","A1FP3SH704X01V","3OYHVNTV5TKW8EI4DRB99U4E79NKOA","","","<img src=""img/flower5.png"" style=""width:200px; border:14px solid green;"">","null","","","","","",""
"574.5","","image-keyboard-response","331","225946","0.0-331.0","326O153BMJK441XZIYRSPOBYQFDED2","A1FP3SH704X01V","3OYHVNTV5TKW8EI4DRB99U4E79NKOA","","","img/flower1.png","76","575.1999999880791","3","1","3","1,1,0,0,1,1,1,0,1",""
"null","","html-keyboard-response","332","226263","0.0-332.0","326O153BMJK441XZIYRSPOBYQFDED2","A1FP3SH704X01V","3OYHVNTV5TKW8EI4DRB99U4E79NKOA","","","<img src=""img/flower1.png"" style=""width:200px; border:14px solid green;"">","null","","","","","",""
"470.69999998807907","","image-keyboard-response","333","226734","0.0-333.0","326O153BMJK441XZIYRSPOBYQFDED2","A1FP3SH704X01V","3OYHVNTV5TKW8EI4DRB99U4E79NKOA","","","img/flower4.png","75","471.30000001192093","2","1","2","1,1,0,0,1,1,1,0,1",""
"null","","html-keyboard-response","334","227049","0.0-334.0","326O153BMJK441XZIYRSPOBYQFDED2","A1FP3SH704X01V","3OYHVNTV5TKW8EI4DRB99U4E79NKOA","","","<img src=""img/flower4.png"" style=""width:200px; border:14px solid green;"">","null","","","","","",""
"466","","image-keyboard-response","335","227516","0.0-335.0","326O153BMJK441XZIYRSPOBYQFDED2","A1FP3SH704X01V","3OYHVNTV5TKW8EI4DRB99U4E79NKOA","","","img/flower1.png","75","466.59999999403954","2","0","3","1,1,0,0,1,1,1,0,1",""
"null","","html-keyboard-response","336","227817","0.0-336.0","326O153BMJK441XZIYRSPOBYQFDED2","A1FP3SH704X01V","3OYHVNTV5TKW8EI4DRB99U4E79NKOA","","","<img src=""img/flower1.png"" style=""width:200px;border:14px solid red;"">","null","","","","","",""
"594.8000000119209","","image-keyboard-response","337","228413","0.0-337.0","326O153BMJK441XZIYRSPOBYQFDED2","A1FP3SH704X01V","3OYHVNTV5TKW8EI4DRB99U4E79NKOA","","","img/flower1.png","76","595.5","3","1","3","1,1,0,0,1,1,1,0,1",""
"null","","html-keyboard-response","338","228715","0.0-338.0","326O153BMJK441XZIYRSPOBYQFDED2","A1FP3SH704X01V","3OYHVNTV5TKW8EI4DRB99U4E79NKOA","","","<img src=""img/flower1.png"" style=""width:200px; border:14px solid green;"">","null","","","","","",""
"696.1000000238419","","image-keyboard-response","339","229412","0.0-339.0","326O153BMJK441XZIYRSPOBYQFDED2","A1FP3SH704X01V","3OYHVNTV5TKW8EI4DRB99U4E79NKOA","","","img/flower4.png","75","696.5999999940395","2","1","2","1,1,0,0,1,1,1,0,1",""
"null","","html-keyboard-response","340","229721","0.0-340.0","326O153BMJK441XZIYRSPOBYQFDED2","A1FP3SH704X01V","3OYHVNTV5TKW8EI4DRB99U4E79NKOA","","","<img src=""img/flower4.png"" style=""width:200px; border:14px solid green;"">","null","","","","","",""
"623.6999999880791","","image-keyboard-response","341","230346","0.0-341.0","326O153BMJK441XZIYRSPOBYQFDED2","A1FP3SH704X01V","3OYHVNTV5TKW8EI4DRB99U4E79NKOA","","","img/flower4.png","75","624.5","2","1","2","1,1,0,0,1,1,1,0,1",""
"null","","html-keyboard-response","342","230652","0.0-342.0","326O153BMJK441XZIYRSPOBYQFDED2","A1FP3SH704X01V","3OYHVNTV5TKW8EI4DRB99U4E79NKOA","","","<img src=""img/flower4.png"" style=""width:200px; border:14px solid green;"">","null","","","","","",""
"944.0999999940395","","image-keyboard-response","343","231597","0.0-343.0","326O153BMJK441XZIYRSPOBYQFDED2","A1FP3SH704X01V","3OYHVNTV5TKW8EI4DRB99U4E79NKOA","","","img/flower1.png","76","944.7999999821186","3","1","3","1,1,0,0,1,1,1,0,1",""
"null","","html-keyboard-response","344","231907","0.0-344.0","326O153BMJK441XZIYRSPOBYQFDED2","A1FP3SH704X01V","3OYHVNTV5TKW8EI4DRB99U4E79NKOA","","","<img src=""img/flower1.png"" style=""width:200px; border:14px solid green;"">","null","","","","","",""
"609.4000000059605","","image-keyboard-response","345","232517","0.0-345.0","326O153BMJK441XZIYRSPOBYQFDED2","A1FP3SH704X01V","3OYHVNTV5TKW8EI4DRB99U4E79NKOA","","","img/flower5.png","75","610.0999999940395","2","1","1","1,1,0,0,1,1,1,0,1",""
"null","","html-keyboard-response","346","232821","0.0-346.0","326O153BMJK441XZIYRSPOBYQFDED2","A1FP3SH704X01V","3OYHVNTV5TKW8EI4DRB99U4E79NKOA","","","<img src=""img/flower5.png"" style=""width:200px; border:14px solid green;"">","null","","","","","",""
"387.59999999403954","","image-keyboard-response","347","233209","0.0-347.0","326O153BMJK441XZIYRSPOBYQFDED2","A1FP3SH704X01V","3OYHVNTV5TKW8EI4DRB99U4E79NKOA","","","img/flower5.png","75","388","2","1","1","1,1,0,0,1,1,1,0,1",""
"null","","html-keyboard-response","348","233511","0.0-348.0","326O153BMJK441XZIYRSPOBYQFDED2","A1FP3SH704X01V","3OYHVNTV5TKW8EI4DRB99U4E79NKOA","","","<img src=""img/flower5.png"" style=""width:200px; border:14px solid green;"">","null","","","","","",""
"647.4000000059605","","image-keyboard-response","349","234159","0.0-349.0","326O153BMJK441XZIYRSPOBYQFDED2","A1FP3SH704X01V","3OYHVNTV5TKW8EI4DRB99U4E79NKOA","","","img/flower1.png","76","647.9000000059605","3","1","3","1,1,0,0,1,1,1,0,1",""
"null","","html-keyboard-response","350","234475","0.0-350.0","326O153BMJK441XZIYRSPOBYQFDED2","A1FP3SH704X01V","3OYHVNTV5TKW8EI4DRB99U4E79NKOA","","","<img src=""img/flower1.png"" style=""width:200px; border:14px solid green;"">","null","","","","","",""
"664.6999999880791","","image-keyboard-response","351","235141","0.0-351.0","326O153BMJK441XZIYRSPOBYQFDED2","A1FP3SH704X01V","3OYHVNTV5TKW8EI4DRB99U4E79NKOA","","","img/flower4.png","75","665.1999999880791","2","1","2","1,1,0,0,1,1,1,0,1",""
"null","","html-keyboard-response","352","235449","0.0-352.0","326O153BMJK441XZIYRSPOBYQFDED2","A1FP3SH704X01V","3OYHVNTV5TKW8EI4DRB99U4E79NKOA","","","<img src=""img/flower4.png"" style=""width:200px; border:14px solid green;"">","null","","","","","",""
"564.9000000059605","","image-keyboard-response","353","236015","0.0-353.0","326O153BMJK441XZIYRSPOBYQFDED2","A1FP3SH704X01V","3OYHVNTV5TKW8EI4DRB99U4E79NKOA","","","img/flower4.png","75","565.5","2","1","2","1,1,0,0,1,1,1,0,1",""
"null","","html-keyboard-response","354","236327","0.0-354.0","326O153BMJK441XZIYRSPOBYQFDED2","A1FP3SH704X01V","3OYHVNTV5TKW8EI4DRB99U4E79NKOA","","","<img src=""img/flower4.png"" style=""width:200px; border:14px solid green;"">","null","","","","","",""
"684.1000000238419","","image-keyboard-response","355","237012","0.0-355.0","326O153BMJK441XZIYRSPOBYQFDED2","A1FP3SH704X01V","3OYHVNTV5TKW8EI4DRB99U4E79NKOA","","","img/flower1.png","76","684.5999999940395","3","1","3","1,1,0,0,1,1,1,0,1",""
"null","","html-keyboard-response","356","237319","0.0-356.0","326O153BMJK441XZIYRSPOBYQFDED2","A1FP3SH704X01V","3OYHVNTV5TKW8EI4DRB99U4E79NKOA","","","<img src=""img/flower1.png"" style=""width:200px; border:14px solid green;"">","null","","","","","",""
"631.3999999761581","","image-keyboard-response","357","237951","0.0-357.0","326O153BMJK441XZIYRSPOBYQFDED2","A1FP3SH704X01V","3OYHVNTV5TKW8EI4DRB99U4E79NKOA","","","img/flower5.png","75","631.9000000059605","2","1","1","1,1,0,0,1,1,1,0,1",""
"null","","html-keyboard-response","358","238262","0.0-358.0","326O153BMJK441XZIYRSPOBYQFDED2","A1FP3SH704X01V","3OYHVNTV5TKW8EI4DRB99U4E79NKOA","","","<img src=""img/flower5.png"" style=""width:200px; border:14px solid green;"">","null","","","","","",""
"316.69999998807907","","image-keyboard-response","359","238579","0.0-359.0","326O153BMJK441XZIYRSPOBYQFDED2","A1FP3SH704X01V","3OYHVNTV5TKW8EI4DRB99U4E79NKOA","","","img/flower5.png","75","317.30000001192093","2","1","1","1,1,0,0,1,1,1,0,1",""
"null","","html-keyboard-response","360","238888","0.0-360.0","326O153BMJK441XZIYRSPOBYQFDED2","A1FP3SH704X01V","3OYHVNTV5TKW8EI4DRB99U4E79NKOA","","","<img src=""img/flower5.png"" style=""width:200px; border:14px solid green;"">","null","","","","","",""
"1192.5999999940395","","image-keyboard-response","361","240081","0.0-361.0","326O153BMJK441XZIYRSPOBYQFDED2","A1FP3SH704X01V","3OYHVNTV5TKW8EI4DRB99U4E79NKOA","","","img/flower4.png","75","1193.0999999940395","2","1","2","1,1,0,0,1,1,1,0,1",""
"null","","html-keyboard-response","362","240385","0.0-362.0","326O153BMJK441XZIYRSPOBYQFDED2","A1FP3SH704X01V","3OYHVNTV5TKW8EI4DRB99U4E79NKOA","","","<img src=""img/flower4.png"" style=""width:200px; border:14px solid green;"">","null","","","","","",""
"337.40000000596046","","image-keyboard-response","363","240723","0.0-363.0","326O153BMJK441XZIYRSPOBYQFDED2","A1FP3SH704X01V","3OYHVNTV5TKW8EI4DRB99U4E79NKOA","","","img/flower4.png","75","337.90000000596046","2","1","2","1,1,0,0,1,1,1,0,1",""
"null","","html-keyboard-response","364","241029","0.0-364.0","326O153BMJK441XZIYRSPOBYQFDED2","A1FP3SH704X01V","3OYHVNTV5TKW8EI4DRB99U4E79NKOA","","","<img src=""img/flower4.png"" style=""width:200px; border:14px solid green;"">","null","","","","","",""
"479.2999999821186","","image-keyboard-response","365","241509","0.0-365.0","326O153BMJK441XZIYRSPOBYQFDED2","A1FP3SH704X01V","3OYHVNTV5TKW8EI4DRB99U4E79NKOA","","","img/flower1.png","76","479.90000000596046","3","1","3","1,1,0,0,1,1,1,0,1",""
"null","","html-keyboard-response","366","241813","0.0-366.0","326O153BMJK441XZIYRSPOBYQFDED2","A1FP3SH704X01V","3OYHVNTV5TKW8EI4DRB99U4E79NKOA","","","<img src=""img/flower1.png"" style=""width:200px; border:14px solid green;"">","null","","","","","",""
"414.19999998807907","","image-keyboard-response","367","242228","0.0-367.0","326O153BMJK441XZIYRSPOBYQFDED2","A1FP3SH704X01V","3OYHVNTV5TKW8EI4DRB99U4E79NKOA","","","img/flower1.png","76","414.90000000596046","3","1","3","1,1,0,0,1,1,1,0,1",""
"null","","html-keyboard-response","368","242536","0.0-368.0","326O153BMJK441XZIYRSPOBYQFDED2","A1FP3SH704X01V","3OYHVNTV5TKW8EI4DRB99U4E79NKOA","","","<img src=""img/flower1.png"" style=""width:200px; border:14px solid green;"">","null","","","","","",""
"534.5999999940395","","image-keyboard-response","369","243071","0.0-369.0","326O153BMJK441XZIYRSPOBYQFDED2","A1FP3SH704X01V","3OYHVNTV5TKW8EI4DRB99U4E79NKOA","","","img/flower5.png","75","535.1000000238419","2","1","1","1,1,0,0,1,1,1,0,1",""
"null","","html-keyboard-response","370","243385","0.0-370.0","326O153BMJK441XZIYRSPOBYQFDED2","A1FP3SH704X01V","3OYHVNTV5TKW8EI4DRB99U4E79NKOA","","","<img src=""img/flower5.png"" style=""width:200px; border:14px solid green;"">","null","","","","","",""
"515.0999999940395","","image-keyboard-response","371","243901","0.0-371.0","326O153BMJK441XZIYRSPOBYQFDED2","A1FP3SH704X01V","3OYHVNTV5TKW8EI4DRB99U4E79NKOA","","","img/flower1.png","75","515.6999999880791","2","0","3","1,1,0,0,1,1,1,0,1",""
"null","","html-keyboard-response","372","244217","0.0-372.0","326O153BMJK441XZIYRSPOBYQFDED2","A1FP3SH704X01V","3OYHVNTV5TKW8EI4DRB99U4E79NKOA","","","<img src=""img/flower1.png"" style=""width:200px;border:14px solid red;"">","null","","","","","",""
"303.90000000596046","","image-keyboard-response","373","244523","0.0-373.0","326O153BMJK441XZIYRSPOBYQFDED2","A1FP3SH704X01V","3OYHVNTV5TKW8EI4DRB99U4E79NKOA","","","img/flower1.png","75","304.60000002384186","2","0","3","1,1,0,0,1,1,1,0,1",""
"null","","html-keyboard-response","374","244830","0.0-374.0","326O153BMJK441XZIYRSPOBYQFDED2","A1FP3SH704X01V","3OYHVNTV5TKW8EI4DRB99U4E79NKOA","","","<img src=""img/flower1.png"" style=""width:200px;border:14px solid red;"">","null","","","","","",""
"856.6000000238419","","image-keyboard-response","375","245687","0.0-375.0","326O153BMJK441XZIYRSPOBYQFDED2","A1FP3SH704X01V","3OYHVNTV5TKW8EI4DRB99U4E79NKOA","","","img/flower1.png","76","857.1999999880791","3","1","3","1,1,0,0,1,1,1,0,1",""
"null","","html-keyboard-response","376","246000","0.0-376.0","326O153BMJK441XZIYRSPOBYQFDED2","A1FP3SH704X01V","3OYHVNTV5TKW8EI4DRB99U4E79NKOA","","","<img src=""img/flower1.png"" style=""width:200px; border:14px solid green;"">","null","","","","","",""
"527.7999999821186","","image-keyboard-response","377","246529","0.0-377.0","326O153BMJK441XZIYRSPOBYQFDED2","A1FP3SH704X01V","3OYHVNTV5TKW8EI4DRB99U4E79NKOA","","","img/flower5.png","75","528.4000000059605","2","1","1","1,1,0,0,1,1,1,0,1",""
"null","","html-keyboard-response","378","246835","0.0-378.0","326O153BMJK441XZIYRSPOBYQFDED2","A1FP3SH704X01V","3OYHVNTV5TKW8EI4DRB99U4E79NKOA","","","<img src=""img/flower5.png"" style=""width:200px; border:14px solid green;"">","null","","","","","",""
"294","","image-keyboard-response","379","247129","0.0-379.0","326O153BMJK441XZIYRSPOBYQFDED2","A1FP3SH704X01V","3OYHVNTV5TKW8EI4DRB99U4E79NKOA","","","img/flower5.png","75","294.5","2","1","1","1,1,0,0,1,1,1,0,1",""
"null","","html-keyboard-response","380","247433","0.0-380.0","326O153BMJK441XZIYRSPOBYQFDED2","A1FP3SH704X01V","3OYHVNTV5TKW8EI4DRB99U4E79NKOA","","","<img src=""img/flower5.png"" style=""width:200px; border:14px solid green;"">","null","","","","","",""
"496.90000000596046","","image-keyboard-response","381","247931","0.0-381.0","326O153BMJK441XZIYRSPOBYQFDED2","A1FP3SH704X01V","3OYHVNTV5TKW8EI4DRB99U4E79NKOA","","","img/flower4.png","75","497.40000000596046","2","1","2","1,1,0,0,1,1,1,0,1",""
"null","","html-keyboard-response","382","248233","0.0-382.0","326O153BMJK441XZIYRSPOBYQFDED2","A1FP3SH704X01V","3OYHVNTV5TKW8EI4DRB99U4E79NKOA","","","<img src=""img/flower4.png"" style=""width:200px; border:14px solid green;"">","null","","","","","",""
"697.7999999821186","","image-keyboard-response","383","248932","0.0-383.0","326O153BMJK441XZIYRSPOBYQFDED2","A1FP3SH704X01V","3OYHVNTV5TKW8EI4DRB99U4E79NKOA","","","img/flower1.png","75","698.3000000119209","2","0","3","1,1,0,0,1,1,1,0,1",""
"null","","html-keyboard-response","384","249234","0.0-384.0","326O153BMJK441XZIYRSPOBYQFDED2","A1FP3SH704X01V","3OYHVNTV5TKW8EI4DRB99U4E79NKOA","","","<img src=""img/flower1.png"" style=""width:200px;border:14px solid red;"">","null","","","","","",""
"928.4000000059605","","image-keyboard-response","385","250163","0.0-385.0","326O153BMJK441XZIYRSPOBYQFDED2","A1FP3SH704X01V","3OYHVNTV5TKW8EI4DRB99U4E79NKOA","","","img/flower5.png","75","928.9000000059605","2","1","1","1,1,0,0,1,1,1,0,1",""
"null","","html-keyboard-response","386","250478","0.0-386.0","326O153BMJK441XZIYRSPOBYQFDED2","A1FP3SH704X01V","3OYHVNTV5TKW8EI4DRB99U4E79NKOA","","","<img src=""img/flower5.png"" style=""width:200px; border:14px solid green;"">","null","","","","","",""
"660.2000000178814","","image-keyboard-response","387","251139","0.0-387.0","326O153BMJK441XZIYRSPOBYQFDED2","A1FP3SH704X01V","3OYHVNTV5TKW8EI4DRB99U4E79NKOA","","","img/flower1.png","76","660.9000000059605","3","1","3","1,1,0,0,1,1,1,0,1",""
"null","","html-keyboard-response","388","251451","0.0-388.0","326O153BMJK441XZIYRSPOBYQFDED2","A1FP3SH704X01V","3OYHVNTV5TKW8EI4DRB99U4E79NKOA","","","<img src=""img/flower1.png"" style=""width:200px; border:14px solid green;"">","null","","","","","",""
"355.80000001192093","","image-keyboard-response","389","251807","0.0-389.0","326O153BMJK441XZIYRSPOBYQFDED2","A1FP3SH704X01V","3OYHVNTV5TKW8EI4DRB99U4E79NKOA","","","img/flower1.png","76","356.2999999821186","3","1","3","1,1,0,0,1,1,1,0,1",""
"null","","html-keyboard-response","390","252111","0.0-390.0","326O153BMJK441XZIYRSPOBYQFDED2","A1FP3SH704X01V","3OYHVNTV5TKW8EI4DRB99U4E79NKOA","","","<img src=""img/flower1.png"" style=""width:200px; border:14px solid green;"">","null","","","","","",""
"493.40000000596046","","image-keyboard-response","391","252605","0.0-391.0","326O153BMJK441XZIYRSPOBYQFDED2","A1FP3SH704X01V","3OYHVNTV5TKW8EI4DRB99U4E79NKOA","","","img/flower4.png","74","493.89999997615814","1","0","2","1,1,0,0,1,1,1,0,1",""
"null","","html-keyboard-response","392","252908","0.0-392.0","326O153BMJK441XZIYRSPOBYQFDED2","A1FP3SH704X01V","3OYHVNTV5TKW8EI4DRB99U4E79NKOA","","","<img src=""img/flower4.png"" style=""width:200px;border:14px solid red;"">","null","","","","","",""
"499.19999998807907","","image-keyboard-response","393","253408","0.0-393.0","326O153BMJK441XZIYRSPOBYQFDED2","A1FP3SH704X01V","3OYHVNTV5TKW8EI4DRB99U4E79NKOA","","","img/flower5.png","75","499.69999998807907","2","1","1","1,1,0,0,1,1,1,0,1",""
"null","","html-keyboard-response","394","253709","0.0-394.0","326O153BMJK441XZIYRSPOBYQFDED2","A1FP3SH704X01V","3OYHVNTV5TKW8EI4DRB99U4E79NKOA","","","<img src=""img/flower5.png"" style=""width:200px; border:14px solid green;"">","null","","","","","",""
"525.9000000059605","","image-keyboard-response","395","254236","0.0-395.0","326O153BMJK441XZIYRSPOBYQFDED2","A1FP3SH704X01V","3OYHVNTV5TKW8EI4DRB99U4E79NKOA","","","img/flower4.png","75","526.4000000059605","2","1","2","1,1,0,0,1,1,1,0,1",""
"null","","html-keyboard-response","396","254541","0.0-396.0","326O153BMJK441XZIYRSPOBYQFDED2","A1FP3SH704X01V","3OYHVNTV5TKW8EI4DRB99U4E79NKOA","","","<img src=""img/flower4.png"" style=""width:200px; border:14px solid green;"">","null","","","","","",""
"357.59999999403954","","image-keyboard-response","397","254899","0.0-397.0","326O153BMJK441XZIYRSPOBYQFDED2","A1FP3SH704X01V","3OYHVNTV5TKW8EI4DRB99U4E79NKOA","","","img/flower4.png","75","358.2999999821186","2","1","2","1,1,0,0,1,1,1,0,1",""
"null","","html-keyboard-response","398","255215","0.0-398.0","326O153BMJK441XZIYRSPOBYQFDED2","A1FP3SH704X01V","3OYHVNTV5TKW8EI4DRB99U4E79NKOA","","","<img src=""img/flower4.png"" style=""width:200px; border:14px solid green;"">","null","","","","","",""
"333.30000001192093","","image-keyboard-response","399","255549","0.0-399.0","326O153BMJK441XZIYRSPOBYQFDED2","A1FP3SH704X01V","3OYHVNTV5TKW8EI4DRB99U4E79NKOA","","","img/flower4.png","75","334","2","1","2","1,1,0,0,1,1,1,0,1",""
"null","","html-keyboard-response","400","255858","0.0-400.0","326O153BMJK441XZIYRSPOBYQFDED2","A1FP3SH704X01V","3OYHVNTV5TKW8EI4DRB99U4E79NKOA","","","<img src=""img/flower4.png"" style=""width:200px; border:14px solid green;"">","null","","","","","",""
"420","","image-keyboard-response","401","256279","0.0-401.0","326O153BMJK441XZIYRSPOBYQFDED2","A1FP3SH704X01V","3OYHVNTV5TKW8EI4DRB99U4E79NKOA","","","img/flower4.png","75","420.59999999403954","2","1","2","1,1,0,0,1,1,1,0,1",""
"null","","html-keyboard-response","402","256590","0.0-402.0","326O153BMJK441XZIYRSPOBYQFDED2","A1FP3SH704X01V","3OYHVNTV5TKW8EI4DRB99U4E79NKOA","","","<img src=""img/flower4.png"" style=""width:200px; border:14px solid green;"">","null","","","","","",""
"558.8000000119209","","image-keyboard-response","403","257150","0.0-403.0","326O153BMJK441XZIYRSPOBYQFDED2","A1FP3SH704X01V","3OYHVNTV5TKW8EI4DRB99U4E79NKOA","","","img/flower1.png","76","559.1999999880791","3","1","3","1,1,0,0,1,1,1,0,1",""
