"rt","url","trial_type","trial_index","time_elapsed","internal_node_id","assignmentID","mturkID","hitID","success","view_history","stimulus","key_press","reactionTime","a","r","s","reward_cond","responses"
"315488","consent.html","external-html","0","315592","0.0-0.0","3X3OR7WPZ0M6TCB0IC3GGRNHLAR8LY","A1GRPIBHW72HDU","3WPCIUYH1AU470H2HRBLZRFBM3CTDN","","","","","","","","","",""
"","","fullscreen","1","323185","0.0-1.0","3X3OR7WPZ0M6TCB0IC3GGRNHLAR8LY","A1GRPIBHW72HDU","3WPCIUYH1AU470H2HRBLZRFBM3CTDN","true","","","","","","","","",""
"42865","","instructions","2","366056","0.0-2.0","3X3OR7WPZ0M6TCB0IC3GGRNHLAR8LY","A1GRPIBHW72HDU","3WPCIUYH1AU470H2HRBLZRFBM3CTDN","","[{""page_index"":0,""viewing_time"":6702},{""page_index"":1,""viewing_time"":5156},{""page_index"":2,""viewing_time"":5873},{""page_index"":3,""viewing_time"":4757},{""page_index"":4,""viewing_time"":4376},{""page_index"":5,""viewing_time"":10581},{""page_index"":6,""viewing_time"":5420}]","","","","","","","",""
"17655","","instructions","3","383711","0.0-3.0","3X3OR7WPZ0M6TCB0IC3GGRNHLAR8LY","A1GRPIBHW72HDU","3WPCIUYH1AU470H2HRBLZRFBM3CTDN","","[{""page_index"":0,""viewing_time"":17654}]","","","","","","","",""
"1034","","image-keyboard-response","4","384750","0.0-4.0","3X3OR7WPZ0M6TCB0IC3GGRNHLAR8LY","A1GRPIBHW72HDU","3WPCIUYH1AU470H2HRBLZRFBM3CTDN","","","img/flower4.png","74","1038","1","1","1","",""
"null","","html-keyboard-response","5","385057","0.0-5.0","3X3OR7WPZ0M6TCB0IC3GGRNHLAR8LY","A1GRPIBHW72HDU","3WPCIUYH1AU470H2HRBLZRFBM3CTDN","","","<img src=""img/flower4.png"" style=""width:200px; border:14px solid green;"">","null","","","","","",""
"571","","image-keyboard-response","6","385631","0.0-6.0","3X3OR7WPZ0M6TCB0IC3GGRNHLAR8LY","A1GRPIBHW72HDU","3WPCIUYH1AU470H2HRBLZRFBM3CTDN","","","img/flower5.png","75","573","2","0","2","",""
"null","","html-keyboard-response","7","385940","0.0-7.0","3X3OR7WPZ0M6TCB0IC3GGRNHLAR8LY","A1GRPIBHW72HDU","3WPCIUYH1AU470H2HRBLZRFBM3CTDN","","","<img src=""img/flower5.png"" style=""width:200px;border:14px solid red;"">","null","","","","","",""
"1648","","image-keyboard-response","8","387590","0.0-8.0","3X3OR7WPZ0M6TCB0IC3GGRNHLAR8LY","A1GRPIBHW72HDU","3WPCIUYH1AU470H2HRBLZRFBM3CTDN","","","img/flower5.png","75","1650","2","1","2","",""
"null","","html-keyboard-response","9","387896","0.0-9.0","3X3OR7WPZ0M6TCB0IC3GGRNHLAR8LY","A1GRPIBHW72HDU","3WPCIUYH1AU470H2HRBLZRFBM3CTDN","","","<img src=""img/flower5.png"" style=""width:200px; border:14px solid green;"">","null","","","","","",""
"701","","image-keyboard-response","10","388599","0.0-10.0","3X3OR7WPZ0M6TCB0IC3GGRNHLAR8LY","A1GRPIBHW72HDU","3WPCIUYH1AU470H2HRBLZRFBM3CTDN","","","img/flower5.png","75","703","2","1","2","",""
"null","","html-keyboard-response","11","388915","0.0-11.0","3X3OR7WPZ0M6TCB0IC3GGRNHLAR8LY","A1GRPIBHW72HDU","3WPCIUYH1AU470H2HRBLZRFBM3CTDN","","","<img src=""img/flower5.png"" style=""width:200px; border:14px solid green;"">","null","","","","","",""
"779","","image-keyboard-response","12","389698","0.0-12.0","3X3OR7WPZ0M6TCB0IC3GGRNHLAR8LY","A1GRPIBHW72HDU","3WPCIUYH1AU470H2HRBLZRFBM3CTDN","","","img/flower4.png","74","782","1","1","1","",""
"null","","html-keyboard-response","13","390002","0.0-13.0","3X3OR7WPZ0M6TCB0IC3GGRNHLAR8LY","A1GRPIBHW72HDU","3WPCIUYH1AU470H2HRBLZRFBM3CTDN","","","<img src=""img/flower4.png"" style=""width:200px; border:14px solid green;"">","null","","","","","",""
"655","","image-keyboard-response","14","390661","0.0-14.0","3X3OR7WPZ0M6TCB0IC3GGRNHLAR8LY","A1GRPIBHW72HDU","3WPCIUYH1AU470H2HRBLZRFBM3CTDN","","","img/flower4.png","74","657","1","1","1","",""
"null","","html-keyboard-response","15","390965","0.0-15.0","3X3OR7WPZ0M6TCB0IC3GGRNHLAR8LY","A1GRPIBHW72HDU","3WPCIUYH1AU470H2HRBLZRFBM3CTDN","","","<img src=""img/flower4.png"" style=""width:200px; border:14px solid green;"">","null","","","","","",""
"626","","image-keyboard-response","16","391593","0.0-16.0","3X3OR7WPZ0M6TCB0IC3GGRNHLAR8LY","A1GRPIBHW72HDU","3WPCIUYH1AU470H2HRBLZRFBM3CTDN","","","img/flower6.png","76","626","3","0","3","",""
"null","","html-keyboard-response","17","391907","0.0-17.0","3X3OR7WPZ0M6TCB0IC3GGRNHLAR8LY","A1GRPIBHW72HDU","3WPCIUYH1AU470H2HRBLZRFBM3CTDN","","","<img src=""img/flower6.png"" style=""width:200px;border:14px solid red;"">","null","","","","","",""
"704","","image-keyboard-response","18","392614","0.0-18.0","3X3OR7WPZ0M6TCB0IC3GGRNHLAR8LY","A1GRPIBHW72HDU","3WPCIUYH1AU470H2HRBLZRFBM3CTDN","","","img/flower6.png","76","707","3","1","3","",""
"null","","html-keyboard-response","19","392921","0.0-19.0","3X3OR7WPZ0M6TCB0IC3GGRNHLAR8LY","A1GRPIBHW72HDU","3WPCIUYH1AU470H2HRBLZRFBM3CTDN","","","<img src=""img/flower6.png"" style=""width:200px; border:14px solid green;"">","null","","","","","",""
"709","","image-keyboard-response","20","393632","0.0-20.0","3X3OR7WPZ0M6TCB0IC3GGRNHLAR8LY","A1GRPIBHW72HDU","3WPCIUYH1AU470H2HRBLZRFBM3CTDN","","","img/flower5.png","75","710","2","0","2","",""
"null","","html-keyboard-response","21","393938","0.0-21.0","3X3OR7WPZ0M6TCB0IC3GGRNHLAR8LY","A1GRPIBHW72HDU","3WPCIUYH1AU470H2HRBLZRFBM3CTDN","","","<img src=""img/flower5.png"" style=""width:200px;border:14px solid red;"">","null","","","","","",""
"763","","image-keyboard-response","22","394706","0.0-22.0","3X3OR7WPZ0M6TCB0IC3GGRNHLAR8LY","A1GRPIBHW72HDU","3WPCIUYH1AU470H2HRBLZRFBM3CTDN","","","img/flower6.png","76","766","3","1","3","",""
"null","","html-keyboard-response","23","395025","0.0-23.0","3X3OR7WPZ0M6TCB0IC3GGRNHLAR8LY","A1GRPIBHW72HDU","3WPCIUYH1AU470H2HRBLZRFBM3CTDN","","","<img src=""img/flower6.png"" style=""width:200px; border:14px solid green;"">","null","","","","","",""
"791","","image-keyboard-response","24","395820","0.0-24.0","3X3OR7WPZ0M6TCB0IC3GGRNHLAR8LY","A1GRPIBHW72HDU","3WPCIUYH1AU470H2HRBLZRFBM3CTDN","","","img/flower4.png","74","794","1","1","1","",""
"null","","html-keyboard-response","25","396126","0.0-25.0","3X3OR7WPZ0M6TCB0IC3GGRNHLAR8LY","A1GRPIBHW72HDU","3WPCIUYH1AU470H2HRBLZRFBM3CTDN","","","<img src=""img/flower4.png"" style=""width:200px; border:14px solid green;"">","null","","","","","",""
"410","","image-keyboard-response","26","396538","0.0-26.0","3X3OR7WPZ0M6TCB0IC3GGRNHLAR8LY","A1GRPIBHW72HDU","3WPCIUYH1AU470H2HRBLZRFBM3CTDN","","","img/flower4.png","74","411","1","1","1","",""
"null","","html-keyboard-response","27","396841","0.0-27.0","3X3OR7WPZ0M6TCB0IC3GGRNHLAR8LY","A1GRPIBHW72HDU","3WPCIUYH1AU470H2HRBLZRFBM3CTDN","","","<img src=""img/flower4.png"" style=""width:200px; border:14px solid green;"">","null","","","","","",""
"341","","image-keyboard-response","28","397185","0.0-28.0","3X3OR7WPZ0M6TCB0IC3GGRNHLAR8LY","A1GRPIBHW72HDU","3WPCIUYH1AU470H2HRBLZRFBM3CTDN","","","img/flower4.png","74","344","1","0","1","",""
"null","","html-keyboard-response","29","397490","0.0-29.0","3X3OR7WPZ0M6TCB0IC3GGRNHLAR8LY","A1GRPIBHW72HDU","3WPCIUYH1AU470H2HRBLZRFBM3CTDN","","","<img src=""img/flower4.png"" style=""width:200px;border:14px solid red;"">","null","","","","","",""
"353","","image-keyboard-response","30","397844","0.0-30.0","3X3OR7WPZ0M6TCB0IC3GGRNHLAR8LY","A1GRPIBHW72HDU","3WPCIUYH1AU470H2HRBLZRFBM3CTDN","","","img/flower4.png","74","353","1","1","1","",""
"null","","html-keyboard-response","31","398158","0.0-31.0","3X3OR7WPZ0M6TCB0IC3GGRNHLAR8LY","A1GRPIBHW72HDU","3WPCIUYH1AU470H2HRBLZRFBM3CTDN","","","<img src=""img/flower4.png"" style=""width:200px; border:14px solid green;"">","null","","","","","",""
"600","","image-keyboard-response","32","398760","0.0-32.0","3X3OR7WPZ0M6TCB0IC3GGRNHLAR8LY","A1GRPIBHW72HDU","3WPCIUYH1AU470H2HRBLZRFBM3CTDN","","","img/flower5.png","75","601","2","1","2","",""
"null","","html-keyboard-response","33","399076","0.0-33.0","3X3OR7WPZ0M6TCB0IC3GGRNHLAR8LY","A1GRPIBHW72HDU","3WPCIUYH1AU470H2HRBLZRFBM3CTDN","","","<img src=""img/flower5.png"" style=""width:200px; border:14px solid green;"">","null","","","","","",""
"702","","image-keyboard-response","34","399779","0.0-34.0","3X3OR7WPZ0M6TCB0IC3GGRNHLAR8LY","A1GRPIBHW72HDU","3WPCIUYH1AU470H2HRBLZRFBM3CTDN","","","img/flower6.png","76","702","3","1","3","",""
"null","","html-keyboard-response","35","400094","0.0-35.0","3X3OR7WPZ0M6TCB0IC3GGRNHLAR8LY","A1GRPIBHW72HDU","3WPCIUYH1AU470H2HRBLZRFBM3CTDN","","","<img src=""img/flower6.png"" style=""width:200px; border:14px solid green;"">","null","","","","","",""
"546","","image-keyboard-response","36","400642","0.0-36.0","3X3OR7WPZ0M6TCB0IC3GGRNHLAR8LY","A1GRPIBHW72HDU","3WPCIUYH1AU470H2HRBLZRFBM3CTDN","","","img/flower6.png","76","548","3","1","3","",""
"null","","html-keyboard-response","37","400948","0.0-37.0","3X3OR7WPZ0M6TCB0IC3GGRNHLAR8LY","A1GRPIBHW72HDU","3WPCIUYH1AU470H2HRBLZRFBM3CTDN","","","<img src=""img/flower6.png"" style=""width:200px; border:14px solid green;"">","null","","","","","",""
"1139","","image-keyboard-response","38","402091","0.0-38.0","3X3OR7WPZ0M6TCB0IC3GGRNHLAR8LY","A1GRPIBHW72HDU","3WPCIUYH1AU470H2HRBLZRFBM3CTDN","","","img/flower4.png","74","1142","1","1","1","",""
"null","","html-keyboard-response","39","402396","0.0-39.0","3X3OR7WPZ0M6TCB0IC3GGRNHLAR8LY","A1GRPIBHW72HDU","3WPCIUYH1AU470H2HRBLZRFBM3CTDN","","","<img src=""img/flower4.png"" style=""width:200px; border:14px solid green;"">","null","","","","","",""
"446","","image-keyboard-response","40","402844","0.0-40.0","3X3OR7WPZ0M6TCB0IC3GGRNHLAR8LY","A1GRPIBHW72HDU","3WPCIUYH1AU470H2HRBLZRFBM3CTDN","","","img/flower4.png","74","448","1","0","1","",""
"null","","html-keyboard-response","41","403150","0.0-41.0","3X3OR7WPZ0M6TCB0IC3GGRNHLAR8LY","A1GRPIBHW72HDU","3WPCIUYH1AU470H2HRBLZRFBM3CTDN","","","<img src=""img/flower4.png"" style=""width:200px;border:14px solid red;"">","null","","","","","",""
"220","","image-keyboard-response","42","403372","0.0-42.0","3X3OR7WPZ0M6TCB0IC3GGRNHLAR8LY","A1GRPIBHW72HDU","3WPCIUYH1AU470H2HRBLZRFBM3CTDN","","","img/flower5.png","74","222","1","0","2","",""
"null","","html-keyboard-response","43","403684","0.0-43.0","3X3OR7WPZ0M6TCB0IC3GGRNHLAR8LY","A1GRPIBHW72HDU","3WPCIUYH1AU470H2HRBLZRFBM3CTDN","","","<img src=""img/flower5.png"" style=""width:200px;border:14px solid red;"">","null","","","","","",""
"1158","","image-keyboard-response","44","404845","0.0-44.0","3X3OR7WPZ0M6TCB0IC3GGRNHLAR8LY","A1GRPIBHW72HDU","3WPCIUYH1AU470H2HRBLZRFBM3CTDN","","","img/flower6.png","76","1159","3","1","3","",""
"null","","html-keyboard-response","45","405155","0.0-45.0","3X3OR7WPZ0M6TCB0IC3GGRNHLAR8LY","A1GRPIBHW72HDU","3WPCIUYH1AU470H2HRBLZRFBM3CTDN","","","<img src=""img/flower6.png"" style=""width:200px; border:14px solid green;"">","null","","","","","",""
"804","","image-keyboard-response","46","405962","0.0-46.0","3X3OR7WPZ0M6TCB0IC3GGRNHLAR8LY","A1GRPIBHW72HDU","3WPCIUYH1AU470H2HRBLZRFBM3CTDN","","","img/flower5.png","75","806","2","0","2","",""
"null","","html-keyboard-response","47","406272","0.0-47.0","3X3OR7WPZ0M6TCB0IC3GGRNHLAR8LY","A1GRPIBHW72HDU","3WPCIUYH1AU470H2HRBLZRFBM3CTDN","","","<img src=""img/flower5.png"" style=""width:200px;border:14px solid red;"">","null","","","","","",""
"852","","image-keyboard-response","48","407126","0.0-48.0","3X3OR7WPZ0M6TCB0IC3GGRNHLAR8LY","A1GRPIBHW72HDU","3WPCIUYH1AU470H2HRBLZRFBM3CTDN","","","img/flower6.png","76","854","3","1","3","",""
"null","","html-keyboard-response","49","407429","0.0-49.0","3X3OR7WPZ0M6TCB0IC3GGRNHLAR8LY","A1GRPIBHW72HDU","3WPCIUYH1AU470H2HRBLZRFBM3CTDN","","","<img src=""img/flower6.png"" style=""width:200px; border:14px solid green;"">","null","","","","","",""
"652","","image-keyboard-response","50","408083","0.0-50.0","3X3OR7WPZ0M6TCB0IC3GGRNHLAR8LY","A1GRPIBHW72HDU","3WPCIUYH1AU470H2HRBLZRFBM3CTDN","","","img/flower6.png","76","653","3","1","3","",""
"null","","html-keyboard-response","51","408393","0.0-51.0","3X3OR7WPZ0M6TCB0IC3GGRNHLAR8LY","A1GRPIBHW72HDU","3WPCIUYH1AU470H2HRBLZRFBM3CTDN","","","<img src=""img/flower6.png"" style=""width:200px; border:14px solid green;"">","null","","","","","",""
"370","","image-keyboard-response","52","408765","0.0-52.0","3X3OR7WPZ0M6TCB0IC3GGRNHLAR8LY","A1GRPIBHW72HDU","3WPCIUYH1AU470H2HRBLZRFBM3CTDN","","","img/flower6.png","76","371","3","1","3","",""
"null","","html-keyboard-response","53","409078","0.0-53.0","3X3OR7WPZ0M6TCB0IC3GGRNHLAR8LY","A1GRPIBHW72HDU","3WPCIUYH1AU470H2HRBLZRFBM3CTDN","","","<img src=""img/flower6.png"" style=""width:200px; border:14px solid green;"">","null","","","","","",""
"445","","image-keyboard-response","54","409527","0.0-54.0","3X3OR7WPZ0M6TCB0IC3GGRNHLAR8LY","A1GRPIBHW72HDU","3WPCIUYH1AU470H2HRBLZRFBM3CTDN","","","img/flower6.png","76","448","3","0","3","",""
"null","","html-keyboard-response","55","409833","0.0-55.0","3X3OR7WPZ0M6TCB0IC3GGRNHLAR8LY","A1GRPIBHW72HDU","3WPCIUYH1AU470H2HRBLZRFBM3CTDN","","","<img src=""img/flower6.png"" style=""width:200px;border:14px solid red;"">","null","","","","","",""
"1500","","image-keyboard-response","56","411336","0.0-56.0","3X3OR7WPZ0M6TCB0IC3GGRNHLAR8LY","A1GRPIBHW72HDU","3WPCIUYH1AU470H2HRBLZRFBM3CTDN","","","img/flower4.png","74","1503","1","1","1","",""
"null","","html-keyboard-response","57","411651","0.0-57.0","3X3OR7WPZ0M6TCB0IC3GGRNHLAR8LY","A1GRPIBHW72HDU","3WPCIUYH1AU470H2HRBLZRFBM3CTDN","","","<img src=""img/flower4.png"" style=""width:200px; border:14px solid green;"">","null","","","","","",""
"715","","image-keyboard-response","58","412370","0.0-58.0","3X3OR7WPZ0M6TCB0IC3GGRNHLAR8LY","A1GRPIBHW72HDU","3WPCIUYH1AU470H2HRBLZRFBM3CTDN","","","img/flower5.png","75","718","2","1","2","",""
"null","","html-keyboard-response","59","412682","0.0-59.0","3X3OR7WPZ0M6TCB0IC3GGRNHLAR8LY","A1GRPIBHW72HDU","3WPCIUYH1AU470H2HRBLZRFBM3CTDN","","","<img src=""img/flower5.png"" style=""width:200px; border:14px solid green;"">","null","","","","","",""
"520","","image-keyboard-response","60","413206","0.0-60.0","3X3OR7WPZ0M6TCB0IC3GGRNHLAR8LY","A1GRPIBHW72HDU","3WPCIUYH1AU470H2HRBLZRFBM3CTDN","","","img/flower5.png","75","525","2","1","2","",""
"null","","html-keyboard-response","61","413514","0.0-61.0","3X3OR7WPZ0M6TCB0IC3GGRNHLAR8LY","A1GRPIBHW72HDU","3WPCIUYH1AU470H2HRBLZRFBM3CTDN","","","<img src=""img/flower5.png"" style=""width:200px; border:14px solid green;"">","null","","","","","",""
"433","","image-keyboard-response","62","413949","0.0-62.0","3X3OR7WPZ0M6TCB0IC3GGRNHLAR8LY","A1GRPIBHW72HDU","3WPCIUYH1AU470H2HRBLZRFBM3CTDN","","","img/flower5.png","75","434","2","1","2","",""
"null","","html-keyboard-response","63","414268","0.0-63.0","3X3OR7WPZ0M6TCB0IC3GGRNHLAR8LY","A1GRPIBHW72HDU","3WPCIUYH1AU470H2HRBLZRFBM3CTDN","","","<img src=""img/flower5.png"" style=""width:200px; border:14px solid green;"">","null","","","","","",""
"12658","","instructions","64","426927","0.0-64.0","3X3OR7WPZ0M6TCB0IC3GGRNHLAR8LY","A1GRPIBHW72HDU","3WPCIUYH1AU470H2HRBLZRFBM3CTDN","","[{""page_index"":0,""viewing_time"":3817},{""page_index"":1,""viewing_time"":8841}]","","","","","","","",""
"1369","","image-keyboard-response","65","428298","0.0-65.0","3X3OR7WPZ0M6TCB0IC3GGRNHLAR8LY","A1GRPIBHW72HDU","3WPCIUYH1AU470H2HRBLZRFBM3CTDN","","","img/flower6.png","76","1371","3","0","3","",""
"null","","html-keyboard-response","66","428600","0.0-66.0","3X3OR7WPZ0M6TCB0IC3GGRNHLAR8LY","A1GRPIBHW72HDU","3WPCIUYH1AU470H2HRBLZRFBM3CTDN","","","<img src=""img/flower6.png"" style=""width:200px;border:14px solid red;"">","null","","","","","",""
"981","","image-keyboard-response","67","429583","0.0-67.0","3X3OR7WPZ0M6TCB0IC3GGRNHLAR8LY","A1GRPIBHW72HDU","3WPCIUYH1AU470H2HRBLZRFBM3CTDN","","","img/flower5.png","75","983","2","1","2","",""
"null","","html-keyboard-response","68","429886","0.0-68.0","3X3OR7WPZ0M6TCB0IC3GGRNHLAR8LY","A1GRPIBHW72HDU","3WPCIUYH1AU470H2HRBLZRFBM3CTDN","","","<img src=""img/flower5.png"" style=""width:200px; border:14px solid green;"">","null","","","","","",""
"817","","image-keyboard-response","69","430704","0.0-69.0","3X3OR7WPZ0M6TCB0IC3GGRNHLAR8LY","A1GRPIBHW72HDU","3WPCIUYH1AU470H2HRBLZRFBM3CTDN","","","img/flower4.png","74","818","1","1","1","",""
"null","","html-keyboard-response","70","431008","0.0-70.0","3X3OR7WPZ0M6TCB0IC3GGRNHLAR8LY","A1GRPIBHW72HDU","3WPCIUYH1AU470H2HRBLZRFBM3CTDN","","","<img src=""img/flower4.png"" style=""width:200px; border:14px solid green;"">","null","","","","","",""
"1195","","image-keyboard-response","71","432205","0.0-71.0","3X3OR7WPZ0M6TCB0IC3GGRNHLAR8LY","A1GRPIBHW72HDU","3WPCIUYH1AU470H2HRBLZRFBM3CTDN","","","img/flower5.png","75","1197","2","1","2","",""
"null","","html-keyboard-response","72","432509","0.0-72.0","3X3OR7WPZ0M6TCB0IC3GGRNHLAR8LY","A1GRPIBHW72HDU","3WPCIUYH1AU470H2HRBLZRFBM3CTDN","","","<img src=""img/flower5.png"" style=""width:200px; border:14px solid green;"">","null","","","","","",""
"414","","image-keyboard-response","73","432926","0.0-73.0","3X3OR7WPZ0M6TCB0IC3GGRNHLAR8LY","A1GRPIBHW72HDU","3WPCIUYH1AU470H2HRBLZRFBM3CTDN","","","img/flower5.png","75","416","2","1","2","",""
"null","","html-keyboard-response","74","433246","0.0-74.0","3X3OR7WPZ0M6TCB0IC3GGRNHLAR8LY","A1GRPIBHW72HDU","3WPCIUYH1AU470H2HRBLZRFBM3CTDN","","","<img src=""img/flower5.png"" style=""width:200px; border:14px solid green;"">","null","","","","","",""
"858","","image-keyboard-response","75","434106","0.0-75.0","3X3OR7WPZ0M6TCB0IC3GGRNHLAR8LY","A1GRPIBHW72HDU","3WPCIUYH1AU470H2HRBLZRFBM3CTDN","","","img/flower4.png","74","860","1","1","1","",""
"null","","html-keyboard-response","76","434412","0.0-76.0","3X3OR7WPZ0M6TCB0IC3GGRNHLAR8LY","A1GRPIBHW72HDU","3WPCIUYH1AU470H2HRBLZRFBM3CTDN","","","<img src=""img/flower4.png"" style=""width:200px; border:14px solid green;"">","null","","","","","",""
"747","","image-keyboard-response","77","435161","0.0-77.0","3X3OR7WPZ0M6TCB0IC3GGRNHLAR8LY","A1GRPIBHW72HDU","3WPCIUYH1AU470H2HRBLZRFBM3CTDN","","","img/flower6.png","76","747","3","1","3","",""
"null","","html-keyboard-response","78","435468","0.0-78.0","3X3OR7WPZ0M6TCB0IC3GGRNHLAR8LY","A1GRPIBHW72HDU","3WPCIUYH1AU470H2HRBLZRFBM3CTDN","","","<img src=""img/flower6.png"" style=""width:200px; border:14px solid green;"">","null","","","","","",""
"453","","image-keyboard-response","79","435922","0.0-79.0","3X3OR7WPZ0M6TCB0IC3GGRNHLAR8LY","A1GRPIBHW72HDU","3WPCIUYH1AU470H2HRBLZRFBM3CTDN","","","img/flower6.png","76","453","3","0","3","",""
"null","","html-keyboard-response","80","436231","0.0-80.0","3X3OR7WPZ0M6TCB0IC3GGRNHLAR8LY","A1GRPIBHW72HDU","3WPCIUYH1AU470H2HRBLZRFBM3CTDN","","","<img src=""img/flower6.png"" style=""width:200px;border:14px solid red;"">","null","","","","","",""
"1154","","image-keyboard-response","81","437388","0.0-81.0","3X3OR7WPZ0M6TCB0IC3GGRNHLAR8LY","A1GRPIBHW72HDU","3WPCIUYH1AU470H2HRBLZRFBM3CTDN","","","img/flower4.png","75","1156","2","0","1","",""
"null","","html-keyboard-response","82","437702","0.0-82.0","3X3OR7WPZ0M6TCB0IC3GGRNHLAR8LY","A1GRPIBHW72HDU","3WPCIUYH1AU470H2HRBLZRFBM3CTDN","","","<img src=""img/flower4.png"" style=""width:200px;border:14px solid red;"">","null","","","","","",""
"1268","","image-keyboard-response","83","438971","0.0-83.0","3X3OR7WPZ0M6TCB0IC3GGRNHLAR8LY","A1GRPIBHW72HDU","3WPCIUYH1AU470H2HRBLZRFBM3CTDN","","","img/flower5.png","75","1269","2","1","2","",""
"null","","html-keyboard-response","84","439288","0.0-84.0","3X3OR7WPZ0M6TCB0IC3GGRNHLAR8LY","A1GRPIBHW72HDU","3WPCIUYH1AU470H2HRBLZRFBM3CTDN","","","<img src=""img/flower5.png"" style=""width:200px; border:14px solid green;"">","null","","","","","",""
"554","","image-keyboard-response","85","439845","0.0-85.0","3X3OR7WPZ0M6TCB0IC3GGRNHLAR8LY","A1GRPIBHW72HDU","3WPCIUYH1AU470H2HRBLZRFBM3CTDN","","","img/flower4.png","74","556","1","0","1","",""
"null","","html-keyboard-response","86","440159","0.0-86.0","3X3OR7WPZ0M6TCB0IC3GGRNHLAR8LY","A1GRPIBHW72HDU","3WPCIUYH1AU470H2HRBLZRFBM3CTDN","","","<img src=""img/flower4.png"" style=""width:200px;border:14px solid red;"">","null","","","","","",""
"757","","image-keyboard-response","87","440917","0.0-87.0","3X3OR7WPZ0M6TCB0IC3GGRNHLAR8LY","A1GRPIBHW72HDU","3WPCIUYH1AU470H2HRBLZRFBM3CTDN","","","img/flower6.png","76","758","3","1","3","",""
"null","","html-keyboard-response","88","441220","0.0-88.0","3X3OR7WPZ0M6TCB0IC3GGRNHLAR8LY","A1GRPIBHW72HDU","3WPCIUYH1AU470H2HRBLZRFBM3CTDN","","","<img src=""img/flower6.png"" style=""width:200px; border:14px solid green;"">","null","","","","","",""
"1054","","image-keyboard-response","89","442278","0.0-89.0","3X3OR7WPZ0M6TCB0IC3GGRNHLAR8LY","A1GRPIBHW72HDU","3WPCIUYH1AU470H2HRBLZRFBM3CTDN","","","img/flower5.png","75","1057","2","1","2","",""
"null","","html-keyboard-response","90","442591","0.0-90.0","3X3OR7WPZ0M6TCB0IC3GGRNHLAR8LY","A1GRPIBHW72HDU","3WPCIUYH1AU470H2HRBLZRFBM3CTDN","","","<img src=""img/flower5.png"" style=""width:200px; border:14px solid green;"">","null","","","","","",""
"946","","image-keyboard-response","91","443542","0.0-91.0","3X3OR7WPZ0M6TCB0IC3GGRNHLAR8LY","A1GRPIBHW72HDU","3WPCIUYH1AU470H2HRBLZRFBM3CTDN","","","img/flower5.png","75","949","2","0","2","",""
"null","","html-keyboard-response","92","443859","0.0-92.0","3X3OR7WPZ0M6TCB0IC3GGRNHLAR8LY","A1GRPIBHW72HDU","3WPCIUYH1AU470H2HRBLZRFBM3CTDN","","","<img src=""img/flower5.png"" style=""width:200px;border:14px solid red;"">","null","","","","","",""
"1354","","image-keyboard-response","93","445214","0.0-93.0","3X3OR7WPZ0M6TCB0IC3GGRNHLAR8LY","A1GRPIBHW72HDU","3WPCIUYH1AU470H2HRBLZRFBM3CTDN","","","img/flower6.png","76","1356","3","1","3","",""
"null","","html-keyboard-response","94","445524","0.0-94.0","3X3OR7WPZ0M6TCB0IC3GGRNHLAR8LY","A1GRPIBHW72HDU","3WPCIUYH1AU470H2HRBLZRFBM3CTDN","","","<img src=""img/flower6.png"" style=""width:200px; border:14px solid green;"">","null","","","","","",""
"474","","image-keyboard-response","95","446000","0.0-95.0","3X3OR7WPZ0M6TCB0IC3GGRNHLAR8LY","A1GRPIBHW72HDU","3WPCIUYH1AU470H2HRBLZRFBM3CTDN","","","img/flower6.png","76","474","3","0","3","",""
"null","","html-keyboard-response","96","446308","0.0-96.0","3X3OR7WPZ0M6TCB0IC3GGRNHLAR8LY","A1GRPIBHW72HDU","3WPCIUYH1AU470H2HRBLZRFBM3CTDN","","","<img src=""img/flower6.png"" style=""width:200px;border:14px solid red;"">","null","","","","","",""
"556","","image-keyboard-response","97","446866","0.0-97.0","3X3OR7WPZ0M6TCB0IC3GGRNHLAR8LY","A1GRPIBHW72HDU","3WPCIUYH1AU470H2HRBLZRFBM3CTDN","","","img/flower4.png","74","557","1","1","1","",""
"null","","html-keyboard-response","98","447179","0.0-98.0","3X3OR7WPZ0M6TCB0IC3GGRNHLAR8LY","A1GRPIBHW72HDU","3WPCIUYH1AU470H2HRBLZRFBM3CTDN","","","<img src=""img/flower4.png"" style=""width:200px; border:14px solid green;"">","null","","","","","",""
"373","","image-keyboard-response","99","447554","0.0-99.0","3X3OR7WPZ0M6TCB0IC3GGRNHLAR8LY","A1GRPIBHW72HDU","3WPCIUYH1AU470H2HRBLZRFBM3CTDN","","","img/flower4.png","74","374","1","1","1","",""
"null","","html-keyboard-response","100","447865","0.0-100.0","3X3OR7WPZ0M6TCB0IC3GGRNHLAR8LY","A1GRPIBHW72HDU","3WPCIUYH1AU470H2HRBLZRFBM3CTDN","","","<img src=""img/flower4.png"" style=""width:200px; border:14px solid green;"">","null","","","","","",""
"825","","image-keyboard-response","101","448693","0.0-101.0","3X3OR7WPZ0M6TCB0IC3GGRNHLAR8LY","A1GRPIBHW72HDU","3WPCIUYH1AU470H2HRBLZRFBM3CTDN","","","img/flower6.png","76","827","3","1","3","",""
"null","","html-keyboard-response","102","448999","0.0-102.0","3X3OR7WPZ0M6TCB0IC3GGRNHLAR8LY","A1GRPIBHW72HDU","3WPCIUYH1AU470H2HRBLZRFBM3CTDN","","","<img src=""img/flower6.png"" style=""width:200px; border:14px solid green;"">","null","","","","","",""
"817","","image-keyboard-response","103","449817","0.0-103.0","3X3OR7WPZ0M6TCB0IC3GGRNHLAR8LY","A1GRPIBHW72HDU","3WPCIUYH1AU470H2HRBLZRFBM3CTDN","","","img/flower5.png","75","817","2","0","2","",""
"null","","html-keyboard-response","104","450131","0.0-104.0","3X3OR7WPZ0M6TCB0IC3GGRNHLAR8LY","A1GRPIBHW72HDU","3WPCIUYH1AU470H2HRBLZRFBM3CTDN","","","<img src=""img/flower5.png"" style=""width:200px;border:14px solid red;"">","null","","","","","",""
"685","","image-keyboard-response","105","450817","0.0-105.0","3X3OR7WPZ0M6TCB0IC3GGRNHLAR8LY","A1GRPIBHW72HDU","3WPCIUYH1AU470H2HRBLZRFBM3CTDN","","","img/flower4.png","74","685","1","1","1","",""
"null","","html-keyboard-response","106","451131","0.0-106.0","3X3OR7WPZ0M6TCB0IC3GGRNHLAR8LY","A1GRPIBHW72HDU","3WPCIUYH1AU470H2HRBLZRFBM3CTDN","","","<img src=""img/flower4.png"" style=""width:200px; border:14px solid green;"">","null","","","","","",""
"365","","image-keyboard-response","107","451497","0.0-107.0","3X3OR7WPZ0M6TCB0IC3GGRNHLAR8LY","A1GRPIBHW72HDU","3WPCIUYH1AU470H2HRBLZRFBM3CTDN","","","img/flower4.png","74","366","1","1","1","",""
"null","","html-keyboard-response","108","451803","0.0-108.0","3X3OR7WPZ0M6TCB0IC3GGRNHLAR8LY","A1GRPIBHW72HDU","3WPCIUYH1AU470H2HRBLZRFBM3CTDN","","","<img src=""img/flower4.png"" style=""width:200px; border:14px solid green;"">","null","","","","","",""
"797","","image-keyboard-response","109","452603","0.0-109.0","3X3OR7WPZ0M6TCB0IC3GGRNHLAR8LY","A1GRPIBHW72HDU","3WPCIUYH1AU470H2HRBLZRFBM3CTDN","","","img/flower6.png","76","800","3","1","3","",""
"null","","html-keyboard-response","110","452918","0.0-110.0","3X3OR7WPZ0M6TCB0IC3GGRNHLAR8LY","A1GRPIBHW72HDU","3WPCIUYH1AU470H2HRBLZRFBM3CTDN","","","<img src=""img/flower6.png"" style=""width:200px; border:14px solid green;"">","null","","","","","",""
"680","","image-keyboard-response","111","453600","0.0-111.0","3X3OR7WPZ0M6TCB0IC3GGRNHLAR8LY","A1GRPIBHW72HDU","3WPCIUYH1AU470H2HRBLZRFBM3CTDN","","","img/flower5.png","75","682","2","1","2","",""
"null","","html-keyboard-response","112","453917","0.0-112.0","3X3OR7WPZ0M6TCB0IC3GGRNHLAR8LY","A1GRPIBHW72HDU","3WPCIUYH1AU470H2HRBLZRFBM3CTDN","","","<img src=""img/flower5.png"" style=""width:200px; border:14px solid green;"">","null","","","","","",""
"359","","image-keyboard-response","113","454276","0.0-113.0","3X3OR7WPZ0M6TCB0IC3GGRNHLAR8LY","A1GRPIBHW72HDU","3WPCIUYH1AU470H2HRBLZRFBM3CTDN","","","img/flower5.png","75","359","2","1","2","",""
"null","","html-keyboard-response","114","454588","0.0-114.0","3X3OR7WPZ0M6TCB0IC3GGRNHLAR8LY","A1GRPIBHW72HDU","3WPCIUYH1AU470H2HRBLZRFBM3CTDN","","","<img src=""img/flower5.png"" style=""width:200px; border:14px solid green;"">","null","","","","","",""
"450","","image-keyboard-response","115","455041","0.0-115.0","3X3OR7WPZ0M6TCB0IC3GGRNHLAR8LY","A1GRPIBHW72HDU","3WPCIUYH1AU470H2HRBLZRFBM3CTDN","","","img/flower5.png","75","451","2","1","2","",""
"null","","html-keyboard-response","116","455351","0.0-116.0","3X3OR7WPZ0M6TCB0IC3GGRNHLAR8LY","A1GRPIBHW72HDU","3WPCIUYH1AU470H2HRBLZRFBM3CTDN","","","<img src=""img/flower5.png"" style=""width:200px; border:14px solid green;"">","null","","","","","",""
"590","","image-keyboard-response","117","455944","0.0-117.0","3X3OR7WPZ0M6TCB0IC3GGRNHLAR8LY","A1GRPIBHW72HDU","3WPCIUYH1AU470H2HRBLZRFBM3CTDN","","","img/flower4.png","74","593","1","1","1","",""
"null","","html-keyboard-response","118","456251","0.0-118.0","3X3OR7WPZ0M6TCB0IC3GGRNHLAR8LY","A1GRPIBHW72HDU","3WPCIUYH1AU470H2HRBLZRFBM3CTDN","","","<img src=""img/flower4.png"" style=""width:200px; border:14px solid green;"">","null","","","","","",""
"626","","image-keyboard-response","119","456879","0.0-119.0","3X3OR7WPZ0M6TCB0IC3GGRNHLAR8LY","A1GRPIBHW72HDU","3WPCIUYH1AU470H2HRBLZRFBM3CTDN","","","img/flower6.png","76","627","3","1","3","",""
"null","","html-keyboard-response","120","457190","0.0-120.0","3X3OR7WPZ0M6TCB0IC3GGRNHLAR8LY","A1GRPIBHW72HDU","3WPCIUYH1AU470H2HRBLZRFBM3CTDN","","","<img src=""img/flower6.png"" style=""width:200px; border:14px solid green;"">","null","","","","","",""
"1108","","image-keyboard-response","121","458300","0.0-121.0","3X3OR7WPZ0M6TCB0IC3GGRNHLAR8LY","A1GRPIBHW72HDU","3WPCIUYH1AU470H2HRBLZRFBM3CTDN","","","img/flower4.png","74","1110","1","1","1","",""
"null","","html-keyboard-response","122","458609","0.0-122.0","3X3OR7WPZ0M6TCB0IC3GGRNHLAR8LY","A1GRPIBHW72HDU","3WPCIUYH1AU470H2HRBLZRFBM3CTDN","","","<img src=""img/flower4.png"" style=""width:200px; border:14px solid green;"">","null","","","","","",""
"681","","image-keyboard-response","123","459291","0.0-123.0","3X3OR7WPZ0M6TCB0IC3GGRNHLAR8LY","A1GRPIBHW72HDU","3WPCIUYH1AU470H2HRBLZRFBM3CTDN","","","img/flower6.png","76","681","3","1","3","",""
"null","","html-keyboard-response","124","459595","0.0-124.0","3X3OR7WPZ0M6TCB0IC3GGRNHLAR8LY","A1GRPIBHW72HDU","3WPCIUYH1AU470H2HRBLZRFBM3CTDN","","","<img src=""img/flower6.png"" style=""width:200px; border:14px solid green;"">","null","","","","","",""
"2458","","instructions","125","462054","0.0-125.0","3X3OR7WPZ0M6TCB0IC3GGRNHLAR8LY","A1GRPIBHW72HDU","3WPCIUYH1AU470H2HRBLZRFBM3CTDN","","[{""page_index"":0,""viewing_time"":2458}]","","","","","","","",""
"1571","","image-keyboard-response","126","463626","0.0-126.0","3X3OR7WPZ0M6TCB0IC3GGRNHLAR8LY","A1GRPIBHW72HDU","3WPCIUYH1AU470H2HRBLZRFBM3CTDN","","","img/flower8.png","74","1574","1","0","1","0.6,0.6,0,0,0.6,0.6,0.6,0,0.6",""
"null","","html-keyboard-response","127","463930","0.0-127.0","3X3OR7WPZ0M6TCB0IC3GGRNHLAR8LY","A1GRPIBHW72HDU","3WPCIUYH1AU470H2HRBLZRFBM3CTDN","","","<img src=""img/flower8.png"" style=""width:200px;border:14px solid red;"">","null","","","","","",""
"1023","","image-keyboard-response","128","464954","0.0-128.0","3X3OR7WPZ0M6TCB0IC3GGRNHLAR8LY","A1GRPIBHW72HDU","3WPCIUYH1AU470H2HRBLZRFBM3CTDN","","","img/flower1.png","74","1024","1","0","3","0.6,0.6,0,0,0.6,0.6,0.6,0,0.6",""
"null","","html-keyboard-response","129","465264","0.0-129.0","3X3OR7WPZ0M6TCB0IC3GGRNHLAR8LY","A1GRPIBHW72HDU","3WPCIUYH1AU470H2HRBLZRFBM3CTDN","","","<img src=""img/flower1.png"" style=""width:200px;border:14px solid red;"">","null","","","","","",""
"955","","image-keyboard-response","130","466219","0.0-130.0","3X3OR7WPZ0M6TCB0IC3GGRNHLAR8LY","A1GRPIBHW72HDU","3WPCIUYH1AU470H2HRBLZRFBM3CTDN","","","img/flower8.png","74","955","1","0","1","0.6,0.6,0,0,0.6,0.6,0.6,0,0.6",""
"null","","html-keyboard-response","131","466533","0.0-131.0","3X3OR7WPZ0M6TCB0IC3GGRNHLAR8LY","A1GRPIBHW72HDU","3WPCIUYH1AU470H2HRBLZRFBM3CTDN","","","<img src=""img/flower8.png"" style=""width:200px;border:14px solid red;"">","null","","","","","",""
"676","","image-keyboard-response","132","467213","0.0-132.0","3X3OR7WPZ0M6TCB0IC3GGRNHLAR8LY","A1GRPIBHW72HDU","3WPCIUYH1AU470H2HRBLZRFBM3CTDN","","","img/flower1.png","75","678","2","0","3","0.6,0.6,0,0,0.6,0.6,0.6,0,0.6",""
"null","","html-keyboard-response","133","467517","0.0-133.0","3X3OR7WPZ0M6TCB0IC3GGRNHLAR8LY","A1GRPIBHW72HDU","3WPCIUYH1AU470H2HRBLZRFBM3CTDN","","","<img src=""img/flower1.png"" style=""width:200px;border:14px solid red;"">","null","","","","","",""
"1035","","image-keyboard-response","134","468556","0.0-134.0","3X3OR7WPZ0M6TCB0IC3GGRNHLAR8LY","A1GRPIBHW72HDU","3WPCIUYH1AU470H2HRBLZRFBM3CTDN","","","img/flower7.png","75","1036","2","1","2","0.6,0.6,0,0,0.6,0.6,0.6,0,0.6",""
"null","","html-keyboard-response","135","468868","0.0-135.0","3X3OR7WPZ0M6TCB0IC3GGRNHLAR8LY","A1GRPIBHW72HDU","3WPCIUYH1AU470H2HRBLZRFBM3CTDN","","","<img src=""img/flower7.png"" style=""width:200px; border:14px solid green;"">","null","","","","","",""
"608","","image-keyboard-response","136","469478","0.0-136.0","3X3OR7WPZ0M6TCB0IC3GGRNHLAR8LY","A1GRPIBHW72HDU","3WPCIUYH1AU470H2HRBLZRFBM3CTDN","","","img/flower7.png","75","609","2","0","2","0.6,0.6,0,0,0.6,0.6,0.6,0,0.6",""
"null","","html-keyboard-response","137","469791","0.0-137.0","3X3OR7WPZ0M6TCB0IC3GGRNHLAR8LY","A1GRPIBHW72HDU","3WPCIUYH1AU470H2HRBLZRFBM3CTDN","","","<img src=""img/flower7.png"" style=""width:200px;border:14px solid red;"">","null","","","","","",""
"1573","","image-keyboard-response","138","471367","0.0-138.0","3X3OR7WPZ0M6TCB0IC3GGRNHLAR8LY","A1GRPIBHW72HDU","3WPCIUYH1AU470H2HRBLZRFBM3CTDN","","","img/flower8.png","74","1575","1","0","1","0.6,0.6,0,0,0.6,0.6,0.6,0,0.6",""
"null","","html-keyboard-response","139","471672","0.0-139.0","3X3OR7WPZ0M6TCB0IC3GGRNHLAR8LY","A1GRPIBHW72HDU","3WPCIUYH1AU470H2HRBLZRFBM3CTDN","","","<img src=""img/flower8.png"" style=""width:200px;border:14px solid red;"">","null","","","","","",""
"794","","image-keyboard-response","140","472469","0.0-140.0","3X3OR7WPZ0M6TCB0IC3GGRNHLAR8LY","A1GRPIBHW72HDU","3WPCIUYH1AU470H2HRBLZRFBM3CTDN","","","img/flower7.png","75","796","2","1","2","0.6,0.6,0,0,0.6,0.6,0.6,0,0.6",""
"null","","html-keyboard-response","141","472773","0.0-141.0","3X3OR7WPZ0M6TCB0IC3GGRNHLAR8LY","A1GRPIBHW72HDU","3WPCIUYH1AU470H2HRBLZRFBM3CTDN","","","<img src=""img/flower7.png"" style=""width:200px; border:14px solid green;"">","null","","","","","",""
"994","","image-keyboard-response","142","473768","0.0-142.0","3X3OR7WPZ0M6TCB0IC3GGRNHLAR8LY","A1GRPIBHW72HDU","3WPCIUYH1AU470H2HRBLZRFBM3CTDN","","","img/flower1.png","76","996","3","1","3","0.6,0.6,0,0,0.6,0.6,0.6,0,0.6",""
"null","","html-keyboard-response","143","474074","0.0-143.0","3X3OR7WPZ0M6TCB0IC3GGRNHLAR8LY","A1GRPIBHW72HDU","3WPCIUYH1AU470H2HRBLZRFBM3CTDN","","","<img src=""img/flower1.png"" style=""width:200px; border:14px solid green;"">","null","","","","","",""
"1343","","image-keyboard-response","144","475419","0.0-144.0","3X3OR7WPZ0M6TCB0IC3GGRNHLAR8LY","A1GRPIBHW72HDU","3WPCIUYH1AU470H2HRBLZRFBM3CTDN","","","img/flower8.png","74","1344","1","0","1","0.6,0.6,0,0,0.6,0.6,0.6,0,0.6",""
"null","","html-keyboard-response","145","475728","0.0-145.0","3X3OR7WPZ0M6TCB0IC3GGRNHLAR8LY","A1GRPIBHW72HDU","3WPCIUYH1AU470H2HRBLZRFBM3CTDN","","","<img src=""img/flower8.png"" style=""width:200px;border:14px solid red;"">","null","","","","","",""
"1479","","image-keyboard-response","146","477210","0.0-146.0","3X3OR7WPZ0M6TCB0IC3GGRNHLAR8LY","A1GRPIBHW72HDU","3WPCIUYH1AU470H2HRBLZRFBM3CTDN","","","img/flower7.png","75","1481","2","1","2","0.6,0.6,0,0,0.6,0.6,0.6,0,0.6",""
"null","","html-keyboard-response","147","477516","0.0-147.0","3X3OR7WPZ0M6TCB0IC3GGRNHLAR8LY","A1GRPIBHW72HDU","3WPCIUYH1AU470H2HRBLZRFBM3CTDN","","","<img src=""img/flower7.png"" style=""width:200px; border:14px solid green;"">","null","","","","","",""
"540","","image-keyboard-response","148","478058","0.0-148.0","3X3OR7WPZ0M6TCB0IC3GGRNHLAR8LY","A1GRPIBHW72HDU","3WPCIUYH1AU470H2HRBLZRFBM3CTDN","","","img/flower7.png","75","541","2","1","2","0.6,0.6,0,0,0.6,0.6,0.6,0,0.6",""
"null","","html-keyboard-response","149","478364","0.0-149.0","3X3OR7WPZ0M6TCB0IC3GGRNHLAR8LY","A1GRPIBHW72HDU","3WPCIUYH1AU470H2HRBLZRFBM3CTDN","","","<img src=""img/flower7.png"" style=""width:200px; border:14px solid green;"">","null","","","","","",""
"816","","image-keyboard-response","150","479182","0.0-150.0","3X3OR7WPZ0M6TCB0IC3GGRNHLAR8LY","A1GRPIBHW72HDU","3WPCIUYH1AU470H2HRBLZRFBM3CTDN","","","img/flower1.png","76","819","3","1","3","0.6,0.6,0,0,0.6,0.6,0.6,0,0.6",""
"null","","html-keyboard-response","151","479503","0.0-151.0","3X3OR7WPZ0M6TCB0IC3GGRNHLAR8LY","A1GRPIBHW72HDU","3WPCIUYH1AU470H2HRBLZRFBM3CTDN","","","<img src=""img/flower1.png"" style=""width:200px; border:14px solid green;"">","null","","","","","",""
"775","","image-keyboard-response","152","480282","0.0-152.0","3X3OR7WPZ0M6TCB0IC3GGRNHLAR8LY","A1GRPIBHW72HDU","3WPCIUYH1AU470H2HRBLZRFBM3CTDN","","","img/flower7.png","75","778","2","1","2","0.6,0.6,0,0,0.6,0.6,0.6,0,0.6",""
"null","","html-keyboard-response","153","480605","0.0-153.0","3X3OR7WPZ0M6TCB0IC3GGRNHLAR8LY","A1GRPIBHW72HDU","3WPCIUYH1AU470H2HRBLZRFBM3CTDN","","","<img src=""img/flower7.png"" style=""width:200px; border:14px solid green;"">","null","","","","","",""
"505","","image-keyboard-response","154","481113","0.0-154.0","3X3OR7WPZ0M6TCB0IC3GGRNHLAR8LY","A1GRPIBHW72HDU","3WPCIUYH1AU470H2HRBLZRFBM3CTDN","","","img/flower7.png","75","506","2","1","2","0.6,0.6,0,0,0.6,0.6,0.6,0,0.6",""
"null","","html-keyboard-response","155","481423","0.0-155.0","3X3OR7WPZ0M6TCB0IC3GGRNHLAR8LY","A1GRPIBHW72HDU","3WPCIUYH1AU470H2HRBLZRFBM3CTDN","","","<img src=""img/flower7.png"" style=""width:200px; border:14px solid green;"">","null","","","","","",""
"476","","image-keyboard-response","156","481901","0.0-156.0","3X3OR7WPZ0M6TCB0IC3GGRNHLAR8LY","A1GRPIBHW72HDU","3WPCIUYH1AU470H2HRBLZRFBM3CTDN","","","img/flower7.png","75","478","2","1","2","0.6,0.6,0,0,0.6,0.6,0.6,0,0.6",""
"null","","html-keyboard-response","157","482223","0.0-157.0","3X3OR7WPZ0M6TCB0IC3GGRNHLAR8LY","A1GRPIBHW72HDU","3WPCIUYH1AU470H2HRBLZRFBM3CTDN","","","<img src=""img/flower7.png"" style=""width:200px; border:14px solid green;"">","null","","","","","",""
"440","","image-keyboard-response","158","482664","0.0-158.0","3X3OR7WPZ0M6TCB0IC3GGRNHLAR8LY","A1GRPIBHW72HDU","3WPCIUYH1AU470H2HRBLZRFBM3CTDN","","","img/flower7.png","75","442","2","0","2","0.6,0.6,0,0,0.6,0.6,0.6,0,0.6",""
"null","","html-keyboard-response","159","482971","0.0-159.0","3X3OR7WPZ0M6TCB0IC3GGRNHLAR8LY","A1GRPIBHW72HDU","3WPCIUYH1AU470H2HRBLZRFBM3CTDN","","","<img src=""img/flower7.png"" style=""width:200px;border:14px solid red;"">","null","","","","","",""
"1549","","image-keyboard-response","160","484522","0.0-160.0","3X3OR7WPZ0M6TCB0IC3GGRNHLAR8LY","A1GRPIBHW72HDU","3WPCIUYH1AU470H2HRBLZRFBM3CTDN","","","img/flower1.png","76","1550","3","0","3","0.6,0.6,0,0,0.6,0.6,0.6,0,0.6",""
"null","","html-keyboard-response","161","484827","0.0-161.0","3X3OR7WPZ0M6TCB0IC3GGRNHLAR8LY","A1GRPIBHW72HDU","3WPCIUYH1AU470H2HRBLZRFBM3CTDN","","","<img src=""img/flower1.png"" style=""width:200px;border:14px solid red;"">","null","","","","","",""
"922","","image-keyboard-response","162","485750","0.0-162.0","3X3OR7WPZ0M6TCB0IC3GGRNHLAR8LY","A1GRPIBHW72HDU","3WPCIUYH1AU470H2HRBLZRFBM3CTDN","","","img/flower8.png","76","923","3","0","1","0.6,0.6,0,0,0.6,0.6,0.6,0,0.6",""
"null","","html-keyboard-response","163","486057","0.0-163.0","3X3OR7WPZ0M6TCB0IC3GGRNHLAR8LY","A1GRPIBHW72HDU","3WPCIUYH1AU470H2HRBLZRFBM3CTDN","","","<img src=""img/flower8.png"" style=""width:200px;border:14px solid red;"">","null","","","","","",""
"836","","image-keyboard-response","164","486895","0.0-164.0","3X3OR7WPZ0M6TCB0IC3GGRNHLAR8LY","A1GRPIBHW72HDU","3WPCIUYH1AU470H2HRBLZRFBM3CTDN","","","img/flower7.png","75","838","2","0","2","0.6,0.6,0,0,0.6,0.6,0.6,0,0.6",""
"null","","html-keyboard-response","165","487228","0.0-165.0","3X3OR7WPZ0M6TCB0IC3GGRNHLAR8LY","A1GRPIBHW72HDU","3WPCIUYH1AU470H2HRBLZRFBM3CTDN","","","<img src=""img/flower7.png"" style=""width:200px;border:14px solid red;"">","null","","","","","",""
"966","","image-keyboard-response","166","488197","0.0-166.0","3X3OR7WPZ0M6TCB0IC3GGRNHLAR8LY","A1GRPIBHW72HDU","3WPCIUYH1AU470H2HRBLZRFBM3CTDN","","","img/flower1.png","76","967","3","1","3","0.6,0.6,0,0,0.6,0.6,0.6,0,0.6",""
"null","","html-keyboard-response","167","488515","0.0-167.0","3X3OR7WPZ0M6TCB0IC3GGRNHLAR8LY","A1GRPIBHW72HDU","3WPCIUYH1AU470H2HRBLZRFBM3CTDN","","","<img src=""img/flower1.png"" style=""width:200px; border:14px solid green;"">","null","","","","","",""
"751","","image-keyboard-response","168","489269","0.0-168.0","3X3OR7WPZ0M6TCB0IC3GGRNHLAR8LY","A1GRPIBHW72HDU","3WPCIUYH1AU470H2HRBLZRFBM3CTDN","","","img/flower7.png","75","753","2","0","2","0.6,0.6,0,0,0.6,0.6,0.6,0,0.6",""
"null","","html-keyboard-response","169","489580","0.0-169.0","3X3OR7WPZ0M6TCB0IC3GGRNHLAR8LY","A1GRPIBHW72HDU","3WPCIUYH1AU470H2HRBLZRFBM3CTDN","","","<img src=""img/flower7.png"" style=""width:200px;border:14px solid red;"">","null","","","","","",""
"647","","image-keyboard-response","170","490229","0.0-170.0","3X3OR7WPZ0M6TCB0IC3GGRNHLAR8LY","A1GRPIBHW72HDU","3WPCIUYH1AU470H2HRBLZRFBM3CTDN","","","img/flower8.png","74","648","1","1","1","0.6,0.6,0,0,0.6,0.6,0.6,0,0.6",""
"null","","html-keyboard-response","171","490534","0.0-171.0","3X3OR7WPZ0M6TCB0IC3GGRNHLAR8LY","A1GRPIBHW72HDU","3WPCIUYH1AU470H2HRBLZRFBM3CTDN","","","<img src=""img/flower8.png"" style=""width:200px; border:14px solid green;"">","null","","","","","",""
"574","","image-keyboard-response","172","491109","0.0-172.0","3X3OR7WPZ0M6TCB0IC3GGRNHLAR8LY","A1GRPIBHW72HDU","3WPCIUYH1AU470H2HRBLZRFBM3CTDN","","","img/flower8.png","74","575","1","1","1","0.6,0.6,0,0,0.6,0.6,0.6,0,0.6",""
"null","","html-keyboard-response","173","491421","0.0-173.0","3X3OR7WPZ0M6TCB0IC3GGRNHLAR8LY","A1GRPIBHW72HDU","3WPCIUYH1AU470H2HRBLZRFBM3CTDN","","","<img src=""img/flower8.png"" style=""width:200px; border:14px solid green;"">","null","","","","","",""
"2041","","image-keyboard-response","174","493464","0.0-174.0","3X3OR7WPZ0M6TCB0IC3GGRNHLAR8LY","A1GRPIBHW72HDU","3WPCIUYH1AU470H2HRBLZRFBM3CTDN","","","img/flower1.png","76","2042","3","1","3","0.6,0.6,0,0,0.6,0.6,0.6,0,0.6",""
"null","","html-keyboard-response","175","493769","0.0-175.0","3X3OR7WPZ0M6TCB0IC3GGRNHLAR8LY","A1GRPIBHW72HDU","3WPCIUYH1AU470H2HRBLZRFBM3CTDN","","","<img src=""img/flower1.png"" style=""width:200px; border:14px solid green;"">","null","","","","","",""
"663","","image-keyboard-response","176","494434","0.0-176.0","3X3OR7WPZ0M6TCB0IC3GGRNHLAR8LY","A1GRPIBHW72HDU","3WPCIUYH1AU470H2HRBLZRFBM3CTDN","","","img/flower1.png","76","664","3","1","3","0.6,0.6,0,0,0.6,0.6,0.6,0,0.6",""
"null","","html-keyboard-response","177","494741","0.0-177.0","3X3OR7WPZ0M6TCB0IC3GGRNHLAR8LY","A1GRPIBHW72HDU","3WPCIUYH1AU470H2HRBLZRFBM3CTDN","","","<img src=""img/flower1.png"" style=""width:200px; border:14px solid green;"">","null","","","","","",""
"884","","image-keyboard-response","178","495629","0.0-178.0","3X3OR7WPZ0M6TCB0IC3GGRNHLAR8LY","A1GRPIBHW72HDU","3WPCIUYH1AU470H2HRBLZRFBM3CTDN","","","img/flower8.png","74","886","1","1","1","0.6,0.6,0,0,0.6,0.6,0.6,0,0.6",""
"null","","html-keyboard-response","179","495942","0.0-179.0","3X3OR7WPZ0M6TCB0IC3GGRNHLAR8LY","A1GRPIBHW72HDU","3WPCIUYH1AU470H2HRBLZRFBM3CTDN","","","<img src=""img/flower8.png"" style=""width:200px; border:14px solid green;"">","null","","","","","",""
"643","","image-keyboard-response","180","496587","0.0-180.0","3X3OR7WPZ0M6TCB0IC3GGRNHLAR8LY","A1GRPIBHW72HDU","3WPCIUYH1AU470H2HRBLZRFBM3CTDN","","","img/flower7.png","75","645","2","0","2","0.6,0.6,0,0,0.6,0.6,0.6,0,0.6",""
"null","","html-keyboard-response","181","496893","0.0-181.0","3X3OR7WPZ0M6TCB0IC3GGRNHLAR8LY","A1GRPIBHW72HDU","3WPCIUYH1AU470H2HRBLZRFBM3CTDN","","","<img src=""img/flower7.png"" style=""width:200px;border:14px solid red;"">","null","","","","","",""
"619","","image-keyboard-response","182","497515","0.0-182.0","3X3OR7WPZ0M6TCB0IC3GGRNHLAR8LY","A1GRPIBHW72HDU","3WPCIUYH1AU470H2HRBLZRFBM3CTDN","","","img/flower7.png","75","621","2","1","2","0.6,0.6,0,0,0.6,0.6,0.6,0,0.6",""
"null","","html-keyboard-response","183","497831","0.0-183.0","3X3OR7WPZ0M6TCB0IC3GGRNHLAR8LY","A1GRPIBHW72HDU","3WPCIUYH1AU470H2HRBLZRFBM3CTDN","","","<img src=""img/flower7.png"" style=""width:200px; border:14px solid green;"">","null","","","","","",""
"815","","image-keyboard-response","184","498649","0.0-184.0","3X3OR7WPZ0M6TCB0IC3GGRNHLAR8LY","A1GRPIBHW72HDU","3WPCIUYH1AU470H2HRBLZRFBM3CTDN","","","img/flower8.png","74","816","1","0","1","0.6,0.6,0,0,0.6,0.6,0.6,0,0.6",""
"null","","html-keyboard-response","185","498965","0.0-185.0","3X3OR7WPZ0M6TCB0IC3GGRNHLAR8LY","A1GRPIBHW72HDU","3WPCIUYH1AU470H2HRBLZRFBM3CTDN","","","<img src=""img/flower8.png"" style=""width:200px;border:14px solid red;"">","null","","","","","",""
"341","","image-keyboard-response","186","499309","0.0-186.0","3X3OR7WPZ0M6TCB0IC3GGRNHLAR8LY","A1GRPIBHW72HDU","3WPCIUYH1AU470H2HRBLZRFBM3CTDN","","","img/flower8.png","74","344","1","1","1","0.6,0.6,0,0,0.6,0.6,0.6,0,0.6",""
"null","","html-keyboard-response","187","499612","0.0-187.0","3X3OR7WPZ0M6TCB0IC3GGRNHLAR8LY","A1GRPIBHW72HDU","3WPCIUYH1AU470H2HRBLZRFBM3CTDN","","","<img src=""img/flower8.png"" style=""width:200px; border:14px solid green;"">","null","","","","","",""
"846","","image-keyboard-response","188","500461","0.0-188.0","3X3OR7WPZ0M6TCB0IC3GGRNHLAR8LY","A1GRPIBHW72HDU","3WPCIUYH1AU470H2HRBLZRFBM3CTDN","","","img/flower1.png","76","849","3","0","3","0.6,0.6,0,0,0.6,0.6,0.6,0,0.6",""
"null","","html-keyboard-response","189","500768","0.0-189.0","3X3OR7WPZ0M6TCB0IC3GGRNHLAR8LY","A1GRPIBHW72HDU","3WPCIUYH1AU470H2HRBLZRFBM3CTDN","","","<img src=""img/flower1.png"" style=""width:200px;border:14px solid red;"">","null","","","","","",""
"425","","image-keyboard-response","190","501194","0.0-190.0","3X3OR7WPZ0M6TCB0IC3GGRNHLAR8LY","A1GRPIBHW72HDU","3WPCIUYH1AU470H2HRBLZRFBM3CTDN","","","img/flower1.png","76","426","3","0","3","0.6,0.6,0,0,0.6,0.6,0.6,0,0.6",""
"null","","html-keyboard-response","191","501499","0.0-191.0","3X3OR7WPZ0M6TCB0IC3GGRNHLAR8LY","A1GRPIBHW72HDU","3WPCIUYH1AU470H2HRBLZRFBM3CTDN","","","<img src=""img/flower1.png"" style=""width:200px;border:14px solid red;"">","null","","","","","",""
"694","","image-keyboard-response","192","502197","0.0-192.0","3X3OR7WPZ0M6TCB0IC3GGRNHLAR8LY","A1GRPIBHW72HDU","3WPCIUYH1AU470H2HRBLZRFBM3CTDN","","","img/flower7.png","75","697","2","0","2","0.6,0.6,0,0,0.6,0.6,0.6,0,0.6",""
"null","","html-keyboard-response","193","502516","0.0-193.0","3X3OR7WPZ0M6TCB0IC3GGRNHLAR8LY","A1GRPIBHW72HDU","3WPCIUYH1AU470H2HRBLZRFBM3CTDN","","","<img src=""img/flower7.png"" style=""width:200px;border:14px solid red;"">","null","","","","","",""
"1101","","image-keyboard-response","194","503621","0.0-194.0","3X3OR7WPZ0M6TCB0IC3GGRNHLAR8LY","A1GRPIBHW72HDU","3WPCIUYH1AU470H2HRBLZRFBM3CTDN","","","img/flower1.png","76","1105","3","1","3","0.6,0.6,0,0,0.6,0.6,0.6,0,0.6",""
"null","","html-keyboard-response","195","503938","0.0-195.0","3X3OR7WPZ0M6TCB0IC3GGRNHLAR8LY","A1GRPIBHW72HDU","3WPCIUYH1AU470H2HRBLZRFBM3CTDN","","","<img src=""img/flower1.png"" style=""width:200px; border:14px solid green;"">","null","","","","","",""
"446","","image-keyboard-response","196","504388","0.0-196.0","3X3OR7WPZ0M6TCB0IC3GGRNHLAR8LY","A1GRPIBHW72HDU","3WPCIUYH1AU470H2HRBLZRFBM3CTDN","","","img/flower1.png","76","449","3","1","3","0.6,0.6,0,0,0.6,0.6,0.6,0,0.6",""
"null","","html-keyboard-response","197","504701","0.0-197.0","3X3OR7WPZ0M6TCB0IC3GGRNHLAR8LY","A1GRPIBHW72HDU","3WPCIUYH1AU470H2HRBLZRFBM3CTDN","","","<img src=""img/flower1.png"" style=""width:200px; border:14px solid green;"">","null","","","","","",""
"830","","image-keyboard-response","198","505533","0.0-198.0","3X3OR7WPZ0M6TCB0IC3GGRNHLAR8LY","A1GRPIBHW72HDU","3WPCIUYH1AU470H2HRBLZRFBM3CTDN","","","img/flower8.png","74","832","1","1","1","0.6,0.6,0,0,0.6,0.6,0.6,0,0.6",""
"null","","html-keyboard-response","199","505840","0.0-199.0","3X3OR7WPZ0M6TCB0IC3GGRNHLAR8LY","A1GRPIBHW72HDU","3WPCIUYH1AU470H2HRBLZRFBM3CTDN","","","<img src=""img/flower8.png"" style=""width:200px; border:14px solid green;"">","null","","","","","",""
"735","","image-keyboard-response","200","506577","0.0-200.0","3X3OR7WPZ0M6TCB0IC3GGRNHLAR8LY","A1GRPIBHW72HDU","3WPCIUYH1AU470H2HRBLZRFBM3CTDN","","","img/flower7.png","75","737","2","1","2","0.6,0.6,0,0,0.6,0.6,0.6,0,0.6",""
"null","","html-keyboard-response","201","506888","0.0-201.0","3X3OR7WPZ0M6TCB0IC3GGRNHLAR8LY","A1GRPIBHW72HDU","3WPCIUYH1AU470H2HRBLZRFBM3CTDN","","","<img src=""img/flower7.png"" style=""width:200px; border:14px solid green;"">","null","","","","","",""
"401","","image-keyboard-response","202","507291","0.0-202.0","3X3OR7WPZ0M6TCB0IC3GGRNHLAR8LY","A1GRPIBHW72HDU","3WPCIUYH1AU470H2HRBLZRFBM3CTDN","","","img/flower7.png","75","402","2","1","2","0.6,0.6,0,0,0.6,0.6,0.6,0,0.6",""
"null","","html-keyboard-response","203","507606","0.0-203.0","3X3OR7WPZ0M6TCB0IC3GGRNHLAR8LY","A1GRPIBHW72HDU","3WPCIUYH1AU470H2HRBLZRFBM3CTDN","","","<img src=""img/flower7.png"" style=""width:200px; border:14px solid green;"">","null","","","","","",""
"396","","image-keyboard-response","204","508007","0.0-204.0","3X3OR7WPZ0M6TCB0IC3GGRNHLAR8LY","A1GRPIBHW72HDU","3WPCIUYH1AU470H2HRBLZRFBM3CTDN","","","img/flower7.png","75","400","2","1","2","0.6,0.6,0,0,0.6,0.6,0.6,0,0.6",""
"null","","html-keyboard-response","205","508323","0.0-205.0","3X3OR7WPZ0M6TCB0IC3GGRNHLAR8LY","A1GRPIBHW72HDU","3WPCIUYH1AU470H2HRBLZRFBM3CTDN","","","<img src=""img/flower7.png"" style=""width:200px; border:14px solid green;"">","null","","","","","",""
"1542","","image-keyboard-response","206","509865","0.0-206.0","3X3OR7WPZ0M6TCB0IC3GGRNHLAR8LY","A1GRPIBHW72HDU","3WPCIUYH1AU470H2HRBLZRFBM3CTDN","","","img/flower1.png","76","1544","3","1","3","0.6,0.6,0,0,0.6,0.6,0.6,0,0.6",""
"null","","html-keyboard-response","207","510179","0.0-207.0","3X3OR7WPZ0M6TCB0IC3GGRNHLAR8LY","A1GRPIBHW72HDU","3WPCIUYH1AU470H2HRBLZRFBM3CTDN","","","<img src=""img/flower1.png"" style=""width:200px; border:14px solid green;"">","null","","","","","",""
"816","","image-keyboard-response","208","510998","0.0-208.0","3X3OR7WPZ0M6TCB0IC3GGRNHLAR8LY","A1GRPIBHW72HDU","3WPCIUYH1AU470H2HRBLZRFBM3CTDN","","","img/flower7.png","75","818","2","1","2","0.6,0.6,0,0,0.6,0.6,0.6,0,0.6",""
"null","","html-keyboard-response","209","511306","0.0-209.0","3X3OR7WPZ0M6TCB0IC3GGRNHLAR8LY","A1GRPIBHW72HDU","3WPCIUYH1AU470H2HRBLZRFBM3CTDN","","","<img src=""img/flower7.png"" style=""width:200px; border:14px solid green;"">","null","","","","","",""
"671","","image-keyboard-response","210","511978","0.0-210.0","3X3OR7WPZ0M6TCB0IC3GGRNHLAR8LY","A1GRPIBHW72HDU","3WPCIUYH1AU470H2HRBLZRFBM3CTDN","","","img/flower1.png","76","672","3","1","3","0.6,0.6,0,0,0.6,0.6,0.6,0,0.6",""
"null","","html-keyboard-response","211","512281","0.0-211.0","3X3OR7WPZ0M6TCB0IC3GGRNHLAR8LY","A1GRPIBHW72HDU","3WPCIUYH1AU470H2HRBLZRFBM3CTDN","","","<img src=""img/flower1.png"" style=""width:200px; border:14px solid green;"">","null","","","","","",""
"381","","image-keyboard-response","212","512663","0.0-212.0","3X3OR7WPZ0M6TCB0IC3GGRNHLAR8LY","A1GRPIBHW72HDU","3WPCIUYH1AU470H2HRBLZRFBM3CTDN","","","img/flower1.png","76","383","3","1","3","0.6,0.6,0,0,0.6,0.6,0.6,0,0.6",""
"null","","html-keyboard-response","213","512981","0.0-213.0","3X3OR7WPZ0M6TCB0IC3GGRNHLAR8LY","A1GRPIBHW72HDU","3WPCIUYH1AU470H2HRBLZRFBM3CTDN","","","<img src=""img/flower1.png"" style=""width:200px; border:14px solid green;"">","null","","","","","",""
"388","","image-keyboard-response","214","513372","0.0-214.0","3X3OR7WPZ0M6TCB0IC3GGRNHLAR8LY","A1GRPIBHW72HDU","3WPCIUYH1AU470H2HRBLZRFBM3CTDN","","","img/flower1.png","76","390","3","1","3","0.6,0.6,0,0,0.6,0.6,0.6,0,0.6",""
"null","","html-keyboard-response","215","513682","0.0-215.0","3X3OR7WPZ0M6TCB0IC3GGRNHLAR8LY","A1GRPIBHW72HDU","3WPCIUYH1AU470H2HRBLZRFBM3CTDN","","","<img src=""img/flower1.png"" style=""width:200px; border:14px solid green;"">","null","","","","","",""
"654","","image-keyboard-response","216","514338","0.0-216.0","3X3OR7WPZ0M6TCB0IC3GGRNHLAR8LY","A1GRPIBHW72HDU","3WPCIUYH1AU470H2HRBLZRFBM3CTDN","","","img/flower8.png","74","656","1","1","1","0.6,0.6,0,0,0.6,0.6,0.6,0,0.6",""
"null","","html-keyboard-response","217","514652","0.0-217.0","3X3OR7WPZ0M6TCB0IC3GGRNHLAR8LY","A1GRPIBHW72HDU","3WPCIUYH1AU470H2HRBLZRFBM3CTDN","","","<img src=""img/flower8.png"" style=""width:200px; border:14px solid green;"">","null","","","","","",""
"329","","image-keyboard-response","218","514981","0.0-218.0","3X3OR7WPZ0M6TCB0IC3GGRNHLAR8LY","A1GRPIBHW72HDU","3WPCIUYH1AU470H2HRBLZRFBM3CTDN","","","img/flower8.png","74","330","1","0","1","0.6,0.6,0,0,0.6,0.6,0.6,0,0.6",""
"null","","html-keyboard-response","219","515284","0.0-219.0","3X3OR7WPZ0M6TCB0IC3GGRNHLAR8LY","A1GRPIBHW72HDU","3WPCIUYH1AU470H2HRBLZRFBM3CTDN","","","<img src=""img/flower8.png"" style=""width:200px;border:14px solid red;"">","null","","","","","",""
"784","","image-keyboard-response","220","516071","0.0-220.0","3X3OR7WPZ0M6TCB0IC3GGRNHLAR8LY","A1GRPIBHW72HDU","3WPCIUYH1AU470H2HRBLZRFBM3CTDN","","","img/flower7.png","75","786","2","0","2","0.6,0.6,0,0,0.6,0.6,0.6,0,0.6",""
"null","","html-keyboard-response","221","516384","0.0-221.0","3X3OR7WPZ0M6TCB0IC3GGRNHLAR8LY","A1GRPIBHW72HDU","3WPCIUYH1AU470H2HRBLZRFBM3CTDN","","","<img src=""img/flower7.png"" style=""width:200px;border:14px solid red;"">","null","","","","","",""
"1007","","image-keyboard-response","222","517392","0.0-222.0","3X3OR7WPZ0M6TCB0IC3GGRNHLAR8LY","A1GRPIBHW72HDU","3WPCIUYH1AU470H2HRBLZRFBM3CTDN","","","img/flower8.png","74","1008","1","0","1","0.6,0.6,0,0,0.6,0.6,0.6,0,0.6",""
"null","","html-keyboard-response","223","517703","0.0-223.0","3X3OR7WPZ0M6TCB0IC3GGRNHLAR8LY","A1GRPIBHW72HDU","3WPCIUYH1AU470H2HRBLZRFBM3CTDN","","","<img src=""img/flower8.png"" style=""width:200px;border:14px solid red;"">","null","","","","","",""
"426","","image-keyboard-response","224","518131","0.0-224.0","3X3OR7WPZ0M6TCB0IC3GGRNHLAR8LY","A1GRPIBHW72HDU","3WPCIUYH1AU470H2HRBLZRFBM3CTDN","","","img/flower8.png","74","428","1","1","1","0.6,0.6,0,0,0.6,0.6,0.6,0,0.6",""
"null","","html-keyboard-response","225","518437","0.0-225.0","3X3OR7WPZ0M6TCB0IC3GGRNHLAR8LY","A1GRPIBHW72HDU","3WPCIUYH1AU470H2HRBLZRFBM3CTDN","","","<img src=""img/flower8.png"" style=""width:200px; border:14px solid green;"">","null","","","","","",""
"379","","image-keyboard-response","226","518818","0.0-226.0","3X3OR7WPZ0M6TCB0IC3GGRNHLAR8LY","A1GRPIBHW72HDU","3WPCIUYH1AU470H2HRBLZRFBM3CTDN","","","img/flower8.png","74","380","1","1","1","0.6,0.6,0,0,0.6,0.6,0.6,0,0.6",""
"null","","html-keyboard-response","227","519121","0.0-227.0","3X3OR7WPZ0M6TCB0IC3GGRNHLAR8LY","A1GRPIBHW72HDU","3WPCIUYH1AU470H2HRBLZRFBM3CTDN","","","<img src=""img/flower8.png"" style=""width:200px; border:14px solid green;"">","null","","","","","",""
"441","","image-keyboard-response","228","519565","0.0-228.0","3X3OR7WPZ0M6TCB0IC3GGRNHLAR8LY","A1GRPIBHW72HDU","3WPCIUYH1AU470H2HRBLZRFBM3CTDN","","","img/flower8.png","74","445","1","1","1","0.6,0.6,0,0,0.6,0.6,0.6,0,0.6",""
"null","","html-keyboard-response","229","519876","0.0-229.0","3X3OR7WPZ0M6TCB0IC3GGRNHLAR8LY","A1GRPIBHW72HDU","3WPCIUYH1AU470H2HRBLZRFBM3CTDN","","","<img src=""img/flower8.png"" style=""width:200px; border:14px solid green;"">","null","","","","","",""
"994","","image-keyboard-response","230","520871","0.0-230.0","3X3OR7WPZ0M6TCB0IC3GGRNHLAR8LY","A1GRPIBHW72HDU","3WPCIUYH1AU470H2HRBLZRFBM3CTDN","","","img/flower1.png","76","996","3","1","3","0.6,0.6,0,0,0.6,0.6,0.6,0,0.6",""
"null","","html-keyboard-response","231","521179","0.0-231.0","3X3OR7WPZ0M6TCB0IC3GGRNHLAR8LY","A1GRPIBHW72HDU","3WPCIUYH1AU470H2HRBLZRFBM3CTDN","","","<img src=""img/flower1.png"" style=""width:200px; border:14px solid green;"">","null","","","","","",""
"338","","image-keyboard-response","232","521518","0.0-232.0","3X3OR7WPZ0M6TCB0IC3GGRNHLAR8LY","A1GRPIBHW72HDU","3WPCIUYH1AU470H2HRBLZRFBM3CTDN","","","img/flower1.png","76","339","3","0","3","0.6,0.6,0,0,0.6,0.6,0.6,0,0.6",""
"null","","html-keyboard-response","233","521826","0.0-233.0","3X3OR7WPZ0M6TCB0IC3GGRNHLAR8LY","A1GRPIBHW72HDU","3WPCIUYH1AU470H2HRBLZRFBM3CTDN","","","<img src=""img/flower1.png"" style=""width:200px;border:14px solid red;"">","null","","","","","",""
"865","","image-keyboard-response","234","522694","0.0-234.0","3X3OR7WPZ0M6TCB0IC3GGRNHLAR8LY","A1GRPIBHW72HDU","3WPCIUYH1AU470H2HRBLZRFBM3CTDN","","","img/flower1.png","76","866","3","1","3","0.6,0.6,0,0,0.6,0.6,0.6,0,0.6",""
"null","","html-keyboard-response","235","523012","0.0-235.0","3X3OR7WPZ0M6TCB0IC3GGRNHLAR8LY","A1GRPIBHW72HDU","3WPCIUYH1AU470H2HRBLZRFBM3CTDN","","","<img src=""img/flower1.png"" style=""width:200px; border:14px solid green;"">","null","","","","","",""
"363","","image-keyboard-response","236","523378","0.0-236.0","3X3OR7WPZ0M6TCB0IC3GGRNHLAR8LY","A1GRPIBHW72HDU","3WPCIUYH1AU470H2HRBLZRFBM3CTDN","","","img/flower1.png","76","367","3","0","3","0.6,0.6,0,0,0.6,0.6,0.6,0,0.6",""
"null","","html-keyboard-response","237","523698","0.0-237.0","3X3OR7WPZ0M6TCB0IC3GGRNHLAR8LY","A1GRPIBHW72HDU","3WPCIUYH1AU470H2HRBLZRFBM3CTDN","","","<img src=""img/flower1.png"" style=""width:200px;border:14px solid red;"">","null","","","","","",""
"369","","image-keyboard-response","238","524070","0.0-238.0","3X3OR7WPZ0M6TCB0IC3GGRNHLAR8LY","A1GRPIBHW72HDU","3WPCIUYH1AU470H2HRBLZRFBM3CTDN","","","img/flower1.png","76","372","3","0","3","0.6,0.6,0,0,0.6,0.6,0.6,0,0.6",""
"null","","html-keyboard-response","239","524381","0.0-239.0","3X3OR7WPZ0M6TCB0IC3GGRNHLAR8LY","A1GRPIBHW72HDU","3WPCIUYH1AU470H2HRBLZRFBM3CTDN","","","<img src=""img/flower1.png"" style=""width:200px;border:14px solid red;"">","null","","","","","",""
"602","","image-keyboard-response","240","524983","0.0-240.0","3X3OR7WPZ0M6TCB0IC3GGRNHLAR8LY","A1GRPIBHW72HDU","3WPCIUYH1AU470H2HRBLZRFBM3CTDN","","","img/flower7.png","75","602","2","0","2","0.6,0.6,0,0,0.6,0.6,0.6,0,0.6",""
"null","","html-keyboard-response","241","525298","0.0-241.0","3X3OR7WPZ0M6TCB0IC3GGRNHLAR8LY","A1GRPIBHW72HDU","3WPCIUYH1AU470H2HRBLZRFBM3CTDN","","","<img src=""img/flower7.png"" style=""width:200px;border:14px solid red;"">","null","","","","","",""
"262","","image-keyboard-response","242","525563","0.0-242.0","3X3OR7WPZ0M6TCB0IC3GGRNHLAR8LY","A1GRPIBHW72HDU","3WPCIUYH1AU470H2HRBLZRFBM3CTDN","","","img/flower8.png","75","264","2","0","1","0.6,0.6,0,0,0.6,0.6,0.6,0,0.6",""
"null","","html-keyboard-response","243","525868","0.0-243.0","3X3OR7WPZ0M6TCB0IC3GGRNHLAR8LY","A1GRPIBHW72HDU","3WPCIUYH1AU470H2HRBLZRFBM3CTDN","","","<img src=""img/flower8.png"" style=""width:200px;border:14px solid red;"">","null","","","","","",""
"1589","","image-keyboard-response","244","527460","0.0-244.0","3X3OR7WPZ0M6TCB0IC3GGRNHLAR8LY","A1GRPIBHW72HDU","3WPCIUYH1AU470H2HRBLZRFBM3CTDN","","","img/flower1.png","76","1592","3","1","3","0.6,0.6,0,0,0.6,0.6,0.6,0,0.6",""
"null","","html-keyboard-response","245","527772","0.0-245.0","3X3OR7WPZ0M6TCB0IC3GGRNHLAR8LY","A1GRPIBHW72HDU","3WPCIUYH1AU470H2HRBLZRFBM3CTDN","","","<img src=""img/flower1.png"" style=""width:200px; border:14px solid green;"">","null","","","","","",""
"748","","image-keyboard-response","246","528521","0.0-246.0","3X3OR7WPZ0M6TCB0IC3GGRNHLAR8LY","A1GRPIBHW72HDU","3WPCIUYH1AU470H2HRBLZRFBM3CTDN","","","img/flower7.png","75","750","2","1","2","0.6,0.6,0,0,0.6,0.6,0.6,0,0.6",""
"null","","html-keyboard-response","247","528837","0.0-247.0","3X3OR7WPZ0M6TCB0IC3GGRNHLAR8LY","A1GRPIBHW72HDU","3WPCIUYH1AU470H2HRBLZRFBM3CTDN","","","<img src=""img/flower7.png"" style=""width:200px; border:14px solid green;"">","null","","","","","",""
"428","","image-keyboard-response","248","529268","0.0-248.0","3X3OR7WPZ0M6TCB0IC3GGRNHLAR8LY","A1GRPIBHW72HDU","3WPCIUYH1AU470H2HRBLZRFBM3CTDN","","","img/flower7.png","75","431","2","1","2","0.6,0.6,0,0,0.6,0.6,0.6,0,0.6",""
"null","","html-keyboard-response","249","529575","0.0-249.0","3X3OR7WPZ0M6TCB0IC3GGRNHLAR8LY","A1GRPIBHW72HDU","3WPCIUYH1AU470H2HRBLZRFBM3CTDN","","","<img src=""img/flower7.png"" style=""width:200px; border:14px solid green;"">","null","","","","","",""
"956","","image-keyboard-response","250","530534","0.0-250.0","3X3OR7WPZ0M6TCB0IC3GGRNHLAR8LY","A1GRPIBHW72HDU","3WPCIUYH1AU470H2HRBLZRFBM3CTDN","","","img/flower1.png","76","958","3","1","3","0.6,0.6,0,0,0.6,0.6,0.6,0,0.6",""
"null","","html-keyboard-response","251","530839","0.0-251.0","3X3OR7WPZ0M6TCB0IC3GGRNHLAR8LY","A1GRPIBHW72HDU","3WPCIUYH1AU470H2HRBLZRFBM3CTDN","","","<img src=""img/flower1.png"" style=""width:200px; border:14px solid green;"">","null","","","","","",""
"495","","image-keyboard-response","252","531335","0.0-252.0","3X3OR7WPZ0M6TCB0IC3GGRNHLAR8LY","A1GRPIBHW72HDU","3WPCIUYH1AU470H2HRBLZRFBM3CTDN","","","img/flower1.png","76","497","3","1","3","0.6,0.6,0,0,0.6,0.6,0.6,0,0.6",""
"null","","html-keyboard-response","253","531640","0.0-253.0","3X3OR7WPZ0M6TCB0IC3GGRNHLAR8LY","A1GRPIBHW72HDU","3WPCIUYH1AU470H2HRBLZRFBM3CTDN","","","<img src=""img/flower1.png"" style=""width:200px; border:14px solid green;"">","null","","","","","",""
"717","","image-keyboard-response","254","532358","0.0-254.0","3X3OR7WPZ0M6TCB0IC3GGRNHLAR8LY","A1GRPIBHW72HDU","3WPCIUYH1AU470H2HRBLZRFBM3CTDN","","","img/flower8.png","74","719","1","0","1","0.6,0.6,0,0,0.6,0.6,0.6,0,0.6",""
"null","","html-keyboard-response","255","532678","0.0-255.0","3X3OR7WPZ0M6TCB0IC3GGRNHLAR8LY","A1GRPIBHW72HDU","3WPCIUYH1AU470H2HRBLZRFBM3CTDN","","","<img src=""img/flower8.png"" style=""width:200px;border:14px solid red;"">","null","","","","","",""
"781","","image-keyboard-response","256","533461","0.0-256.0","3X3OR7WPZ0M6TCB0IC3GGRNHLAR8LY","A1GRPIBHW72HDU","3WPCIUYH1AU470H2HRBLZRFBM3CTDN","","","img/flower7.png","75","782","2","1","2","0.6,0.6,0,0,0.6,0.6,0.6,0,0.6",""
"null","","html-keyboard-response","257","533778","0.0-257.0","3X3OR7WPZ0M6TCB0IC3GGRNHLAR8LY","A1GRPIBHW72HDU","3WPCIUYH1AU470H2HRBLZRFBM3CTDN","","","<img src=""img/flower7.png"" style=""width:200px; border:14px solid green;"">","null","","","","","",""
"1013","","image-keyboard-response","258","534795","0.0-258.0","3X3OR7WPZ0M6TCB0IC3GGRNHLAR8LY","A1GRPIBHW72HDU","3WPCIUYH1AU470H2HRBLZRFBM3CTDN","","","img/flower8.png","74","1015","1","0","1","0.6,0.6,0,0,0.6,0.6,0.6,0,0.6",""
"null","","html-keyboard-response","259","535095","0.0-259.0","3X3OR7WPZ0M6TCB0IC3GGRNHLAR8LY","A1GRPIBHW72HDU","3WPCIUYH1AU470H2HRBLZRFBM3CTDN","","","<img src=""img/flower8.png"" style=""width:200px;border:14px solid red;"">","null","","","","","",""
"643","","image-keyboard-response","260","535741","0.0-260.0","3X3OR7WPZ0M6TCB0IC3GGRNHLAR8LY","A1GRPIBHW72HDU","3WPCIUYH1AU470H2HRBLZRFBM3CTDN","","","img/flower8.png","74","645","1","1","1","0.6,0.6,0,0,0.6,0.6,0.6,0,0.6",""
"null","","html-keyboard-response","261","536061","0.0-261.0","3X3OR7WPZ0M6TCB0IC3GGRNHLAR8LY","A1GRPIBHW72HDU","3WPCIUYH1AU470H2HRBLZRFBM3CTDN","","","<img src=""img/flower8.png"" style=""width:200px; border:14px solid green;"">","null","","","","","",""
"394","","image-keyboard-response","262","536457","0.0-262.0","3X3OR7WPZ0M6TCB0IC3GGRNHLAR8LY","A1GRPIBHW72HDU","3WPCIUYH1AU470H2HRBLZRFBM3CTDN","","","img/flower8.png","74","396","1","0","1","0.6,0.6,0,0,0.6,0.6,0.6,0,0.6",""
"null","","html-keyboard-response","263","536762","0.0-263.0","3X3OR7WPZ0M6TCB0IC3GGRNHLAR8LY","A1GRPIBHW72HDU","3WPCIUYH1AU470H2HRBLZRFBM3CTDN","","","<img src=""img/flower8.png"" style=""width:200px;border:14px solid red;"">","null","","","","","",""
"296","","image-keyboard-response","264","537061","0.0-264.0","3X3OR7WPZ0M6TCB0IC3GGRNHLAR8LY","A1GRPIBHW72HDU","3WPCIUYH1AU470H2HRBLZRFBM3CTDN","","","img/flower8.png","74","300","1","0","1","0.6,0.6,0,0,0.6,0.6,0.6,0,0.6",""
"null","","html-keyboard-response","265","537384","0.0-265.0","3X3OR7WPZ0M6TCB0IC3GGRNHLAR8LY","A1GRPIBHW72HDU","3WPCIUYH1AU470H2HRBLZRFBM3CTDN","","","<img src=""img/flower8.png"" style=""width:200px;border:14px solid red;"">","null","","","","","",""
"1402","","image-keyboard-response","266","538788","0.0-266.0","3X3OR7WPZ0M6TCB0IC3GGRNHLAR8LY","A1GRPIBHW72HDU","3WPCIUYH1AU470H2HRBLZRFBM3CTDN","","","img/flower1.png","76","1404","3","1","3","0.6,0.6,0,0,0.6,0.6,0.6,0,0.6",""
"null","","html-keyboard-response","267","539103","0.0-267.0","3X3OR7WPZ0M6TCB0IC3GGRNHLAR8LY","A1GRPIBHW72HDU","3WPCIUYH1AU470H2HRBLZRFBM3CTDN","","","<img src=""img/flower1.png"" style=""width:200px; border:14px solid green;"">","null","","","","","",""
"935","","image-keyboard-response","268","540042","0.0-268.0","3X3OR7WPZ0M6TCB0IC3GGRNHLAR8LY","A1GRPIBHW72HDU","3WPCIUYH1AU470H2HRBLZRFBM3CTDN","","","img/flower8.png","74","938","1","0","1","0.6,0.6,0,0,0.6,0.6,0.6,0,0.6",""
"null","","html-keyboard-response","269","540352","0.0-269.0","3X3OR7WPZ0M6TCB0IC3GGRNHLAR8LY","A1GRPIBHW72HDU","3WPCIUYH1AU470H2HRBLZRFBM3CTDN","","","<img src=""img/flower8.png"" style=""width:200px;border:14px solid red;"">","null","","","","","",""
"677","","image-keyboard-response","270","541031","0.0-270.0","3X3OR7WPZ0M6TCB0IC3GGRNHLAR8LY","A1GRPIBHW72HDU","3WPCIUYH1AU470H2HRBLZRFBM3CTDN","","","img/flower7.png","75","679","2","0","2","0.6,0.6,0,0,0.6,0.6,0.6,0,0.6",""
"null","","html-keyboard-response","271","541337","0.0-271.0","3X3OR7WPZ0M6TCB0IC3GGRNHLAR8LY","A1GRPIBHW72HDU","3WPCIUYH1AU470H2HRBLZRFBM3CTDN","","","<img src=""img/flower7.png"" style=""width:200px;border:14px solid red;"">","null","","","","","",""
"1212","","image-keyboard-response","272","542552","0.0-272.0","3X3OR7WPZ0M6TCB0IC3GGRNHLAR8LY","A1GRPIBHW72HDU","3WPCIUYH1AU470H2HRBLZRFBM3CTDN","","","img/flower8.png","74","1214","1","1","1","0.6,0.6,0,0,0.6,0.6,0.6,0,0.6",""
"null","","html-keyboard-response","273","542853","0.0-273.0","3X3OR7WPZ0M6TCB0IC3GGRNHLAR8LY","A1GRPIBHW72HDU","3WPCIUYH1AU470H2HRBLZRFBM3CTDN","","","<img src=""img/flower8.png"" style=""width:200px; border:14px solid green;"">","null","","","","","",""
"751","","image-keyboard-response","274","543604","0.0-274.0","3X3OR7WPZ0M6TCB0IC3GGRNHLAR8LY","A1GRPIBHW72HDU","3WPCIUYH1AU470H2HRBLZRFBM3CTDN","","","img/flower7.png","75","751","2","0","2","0.6,0.6,0,0,0.6,0.6,0.6,0,0.6",""
"null","","html-keyboard-response","275","543906","0.0-275.0","3X3OR7WPZ0M6TCB0IC3GGRNHLAR8LY","A1GRPIBHW72HDU","3WPCIUYH1AU470H2HRBLZRFBM3CTDN","","","<img src=""img/flower7.png"" style=""width:200px;border:14px solid red;"">","null","","","","","",""
"406","","image-keyboard-response","276","544312","0.0-276.0","3X3OR7WPZ0M6TCB0IC3GGRNHLAR8LY","A1GRPIBHW72HDU","3WPCIUYH1AU470H2HRBLZRFBM3CTDN","","","img/flower7.png","75","407","2","0","2","0.6,0.6,0,0,0.6,0.6,0.6,0,0.6",""
"null","","html-keyboard-response","277","544624","0.0-277.0","3X3OR7WPZ0M6TCB0IC3GGRNHLAR8LY","A1GRPIBHW72HDU","3WPCIUYH1AU470H2HRBLZRFBM3CTDN","","","<img src=""img/flower7.png"" style=""width:200px;border:14px solid red;"">","null","","","","","",""
"633","","image-keyboard-response","278","545259","0.0-278.0","3X3OR7WPZ0M6TCB0IC3GGRNHLAR8LY","A1GRPIBHW72HDU","3WPCIUYH1AU470H2HRBLZRFBM3CTDN","","","img/flower8.png","74","633","1","0","1","0.6,0.6,0,0,0.6,0.6,0.6,0,0.6",""
"null","","html-keyboard-response","279","545570","0.0-279.0","3X3OR7WPZ0M6TCB0IC3GGRNHLAR8LY","A1GRPIBHW72HDU","3WPCIUYH1AU470H2HRBLZRFBM3CTDN","","","<img src=""img/flower8.png"" style=""width:200px;border:14px solid red;"">","null","","","","","",""
"852","","image-keyboard-response","280","546425","0.0-280.0","3X3OR7WPZ0M6TCB0IC3GGRNHLAR8LY","A1GRPIBHW72HDU","3WPCIUYH1AU470H2HRBLZRFBM3CTDN","","","img/flower7.png","75","854","2","1","2","0.6,0.6,0,0,0.6,0.6,0.6,0,0.6",""
"null","","html-keyboard-response","281","546740","0.0-281.0","3X3OR7WPZ0M6TCB0IC3GGRNHLAR8LY","A1GRPIBHW72HDU","3WPCIUYH1AU470H2HRBLZRFBM3CTDN","","","<img src=""img/flower7.png"" style=""width:200px; border:14px solid green;"">","null","","","","","",""
"852","","image-keyboard-response","282","547595","0.0-282.0","3X3OR7WPZ0M6TCB0IC3GGRNHLAR8LY","A1GRPIBHW72HDU","3WPCIUYH1AU470H2HRBLZRFBM3CTDN","","","img/flower1.png","76","855","3","0","3","0.6,0.6,0,0,0.6,0.6,0.6,0,0.6",""
"null","","html-keyboard-response","283","547913","0.0-283.0","3X3OR7WPZ0M6TCB0IC3GGRNHLAR8LY","A1GRPIBHW72HDU","3WPCIUYH1AU470H2HRBLZRFBM3CTDN","","","<img src=""img/flower1.png"" style=""width:200px;border:14px solid red;"">","null","","","","","",""
"806","","image-keyboard-response","284","548721","0.0-284.0","3X3OR7WPZ0M6TCB0IC3GGRNHLAR8LY","A1GRPIBHW72HDU","3WPCIUYH1AU470H2HRBLZRFBM3CTDN","","","img/flower8.png","74","808","1","0","1","0.6,0.6,0,0,0.6,0.6,0.6,0,0.6",""
"null","","html-keyboard-response","285","549029","0.0-285.0","3X3OR7WPZ0M6TCB0IC3GGRNHLAR8LY","A1GRPIBHW72HDU","3WPCIUYH1AU470H2HRBLZRFBM3CTDN","","","<img src=""img/flower8.png"" style=""width:200px;border:14px solid red;"">","null","","","","","",""
"1426","","image-keyboard-response","286","550459","0.0-286.0","3X3OR7WPZ0M6TCB0IC3GGRNHLAR8LY","A1GRPIBHW72HDU","3WPCIUYH1AU470H2HRBLZRFBM3CTDN","","","img/flower1.png","76","1428","3","1","3","0.6,0.6,0,0,0.6,0.6,0.6,0,0.6",""
"null","","html-keyboard-response","287","550764","0.0-287.0","3X3OR7WPZ0M6TCB0IC3GGRNHLAR8LY","A1GRPIBHW72HDU","3WPCIUYH1AU470H2HRBLZRFBM3CTDN","","","<img src=""img/flower1.png"" style=""width:200px; border:14px solid green;"">","null","","","","","",""
"1034","","image-keyboard-response","288","551801","0.0-288.0","3X3OR7WPZ0M6TCB0IC3GGRNHLAR8LY","A1GRPIBHW72HDU","3WPCIUYH1AU470H2HRBLZRFBM3CTDN","","","img/flower8.png","74","1036","1","0","1","0.6,0.6,0,0,0.6,0.6,0.6,0,0.6",""
"null","","html-keyboard-response","289","552119","0.0-289.0","3X3OR7WPZ0M6TCB0IC3GGRNHLAR8LY","A1GRPIBHW72HDU","3WPCIUYH1AU470H2HRBLZRFBM3CTDN","","","<img src=""img/flower8.png"" style=""width:200px;border:14px solid red;"">","null","","","","","",""
"1877","","image-keyboard-response","290","554001","0.0-290.0","3X3OR7WPZ0M6TCB0IC3GGRNHLAR8LY","A1GRPIBHW72HDU","3WPCIUYH1AU470H2HRBLZRFBM3CTDN","","","img/flower1.png","76","1880","3","1","3","0.6,0.6,0,0,0.6,0.6,0.6,0,0.6",""
"null","","html-keyboard-response","291","554320","0.0-291.0","3X3OR7WPZ0M6TCB0IC3GGRNHLAR8LY","A1GRPIBHW72HDU","3WPCIUYH1AU470H2HRBLZRFBM3CTDN","","","<img src=""img/flower1.png"" style=""width:200px; border:14px solid green;"">","null","","","","","",""
"664","","image-keyboard-response","292","554987","0.0-292.0","3X3OR7WPZ0M6TCB0IC3GGRNHLAR8LY","A1GRPIBHW72HDU","3WPCIUYH1AU470H2HRBLZRFBM3CTDN","","","img/flower7.png","75","665","2","1","2","0.6,0.6,0,0,0.6,0.6,0.6,0,0.6",""
"null","","html-keyboard-response","293","555288","0.0-293.0","3X3OR7WPZ0M6TCB0IC3GGRNHLAR8LY","A1GRPIBHW72HDU","3WPCIUYH1AU470H2HRBLZRFBM3CTDN","","","<img src=""img/flower7.png"" style=""width:200px; border:14px solid green;"">","null","","","","","",""
"693","","image-keyboard-response","294","555984","0.0-294.0","3X3OR7WPZ0M6TCB0IC3GGRNHLAR8LY","A1GRPIBHW72HDU","3WPCIUYH1AU470H2HRBLZRFBM3CTDN","","","img/flower8.png","74","694","1","0","1","0.6,0.6,0,0,0.6,0.6,0.6,0,0.6",""
"null","","html-keyboard-response","295","556307","0.0-295.0","3X3OR7WPZ0M6TCB0IC3GGRNHLAR8LY","A1GRPIBHW72HDU","3WPCIUYH1AU470H2HRBLZRFBM3CTDN","","","<img src=""img/flower8.png"" style=""width:200px;border:14px solid red;"">","null","","","","","",""
"918","","image-keyboard-response","296","557227","0.0-296.0","3X3OR7WPZ0M6TCB0IC3GGRNHLAR8LY","A1GRPIBHW72HDU","3WPCIUYH1AU470H2HRBLZRFBM3CTDN","","","img/flower1.png","76","921","3","0","3","0.6,0.6,0,0,0.6,0.6,0.6,0,0.6",""
"null","","html-keyboard-response","297","557542","0.0-297.0","3X3OR7WPZ0M6TCB0IC3GGRNHLAR8LY","A1GRPIBHW72HDU","3WPCIUYH1AU470H2HRBLZRFBM3CTDN","","","<img src=""img/flower1.png"" style=""width:200px;border:14px solid red;"">","null","","","","","",""
"899","","image-keyboard-response","298","558444","0.0-298.0","3X3OR7WPZ0M6TCB0IC3GGRNHLAR8LY","A1GRPIBHW72HDU","3WPCIUYH1AU470H2HRBLZRFBM3CTDN","","","img/flower7.png","75","902","2","0","2","0.6,0.6,0,0,0.6,0.6,0.6,0,0.6",""
"null","","html-keyboard-response","299","558758","0.0-299.0","3X3OR7WPZ0M6TCB0IC3GGRNHLAR8LY","A1GRPIBHW72HDU","3WPCIUYH1AU470H2HRBLZRFBM3CTDN","","","<img src=""img/flower7.png"" style=""width:200px;border:14px solid red;"">","null","","","","","",""
"456","","image-keyboard-response","300","559214","0.0-300.0","3X3OR7WPZ0M6TCB0IC3GGRNHLAR8LY","A1GRPIBHW72HDU","3WPCIUYH1AU470H2HRBLZRFBM3CTDN","","","img/flower7.png","75","457","2","1","2","0.6,0.6,0,0,0.6,0.6,0.6,0,0.6",""
"null","","html-keyboard-response","301","559528","0.0-301.0","3X3OR7WPZ0M6TCB0IC3GGRNHLAR8LY","A1GRPIBHW72HDU","3WPCIUYH1AU470H2HRBLZRFBM3CTDN","","","<img src=""img/flower7.png"" style=""width:200px; border:14px solid green;"">","null","","","","","",""
"1305","","image-keyboard-response","302","560837","0.0-302.0","3X3OR7WPZ0M6TCB0IC3GGRNHLAR8LY","A1GRPIBHW72HDU","3WPCIUYH1AU470H2HRBLZRFBM3CTDN","","","img/flower1.png","76","1308","3","1","3","0.6,0.6,0,0,0.6,0.6,0.6,0,0.6",""
"null","","html-keyboard-response","303","561147","0.0-303.0","3X3OR7WPZ0M6TCB0IC3GGRNHLAR8LY","A1GRPIBHW72HDU","3WPCIUYH1AU470H2HRBLZRFBM3CTDN","","","<img src=""img/flower1.png"" style=""width:200px; border:14px solid green;"">","null","","","","","",""
"619","","image-keyboard-response","304","561769","0.0-304.0","3X3OR7WPZ0M6TCB0IC3GGRNHLAR8LY","A1GRPIBHW72HDU","3WPCIUYH1AU470H2HRBLZRFBM3CTDN","","","img/flower8.png","74","622","1","1","1","0.6,0.6,0,0,0.6,0.6,0.6,0,0.6",""
"null","","html-keyboard-response","305","562078","0.0-305.0","3X3OR7WPZ0M6TCB0IC3GGRNHLAR8LY","A1GRPIBHW72HDU","3WPCIUYH1AU470H2HRBLZRFBM3CTDN","","","<img src=""img/flower8.png"" style=""width:200px; border:14px solid green;"">","null","","","","","",""
"","","html-keyboard-response","306","566163","0.0-306.0","3X3OR7WPZ0M6TCB0IC3GGRNHLAR8LY","A1GRPIBHW72HDU","3WPCIUYH1AU470H2HRBLZRFBM3CTDN","","","","","","","","","",""
"2202","","image-keyboard-response","307","568368","0.0-307.0","3X3OR7WPZ0M6TCB0IC3GGRNHLAR8LY","A1GRPIBHW72HDU","3WPCIUYH1AU470H2HRBLZRFBM3CTDN","","","img/flower4.png","76","2204","3","1","1","0.8,0.8,0.2,0.2,0.8,0.8,0.8,0.2,0.8",""
"null","","html-keyboard-response","308","568676","0.0-308.0","3X3OR7WPZ0M6TCB0IC3GGRNHLAR8LY","A1GRPIBHW72HDU","3WPCIUYH1AU470H2HRBLZRFBM3CTDN","","","<img src=""img/flower4.png"" style=""width:200px; border:14px solid green;"">","null","","","","","",""
"1005","","image-keyboard-response","309","569684","0.0-309.0","3X3OR7WPZ0M6TCB0IC3GGRNHLAR8LY","A1GRPIBHW72HDU","3WPCIUYH1AU470H2HRBLZRFBM3CTDN","","","img/flower9.png","75","1007","2","0","3","0.8,0.8,0.2,0.2,0.8,0.8,0.8,0.2,0.8",""
"null","","html-keyboard-response","310","569992","0.0-310.0","3X3OR7WPZ0M6TCB0IC3GGRNHLAR8LY","A1GRPIBHW72HDU","3WPCIUYH1AU470H2HRBLZRFBM3CTDN","","","<img src=""img/flower9.png"" style=""width:200px;border:14px solid red;"">","null","","","","","",""
"606","","image-keyboard-response","311","570602","0.0-311.0","3X3OR7WPZ0M6TCB0IC3GGRNHLAR8LY","A1GRPIBHW72HDU","3WPCIUYH1AU470H2HRBLZRFBM3CTDN","","","img/flower4.png","76","609","3","0","1","0.8,0.8,0.2,0.2,0.8,0.8,0.8,0.2,0.8",""
"null","","html-keyboard-response","312","570910","0.0-312.0","3X3OR7WPZ0M6TCB0IC3GGRNHLAR8LY","A1GRPIBHW72HDU","3WPCIUYH1AU470H2HRBLZRFBM3CTDN","","","<img src=""img/flower4.png"" style=""width:200px;border:14px solid red;"">","null","","","","","",""
"498","","image-keyboard-response","313","571411","0.0-313.0","3X3OR7WPZ0M6TCB0IC3GGRNHLAR8LY","A1GRPIBHW72HDU","3WPCIUYH1AU470H2HRBLZRFBM3CTDN","","","img/flower4.png","76","500","3","0","1","0.8,0.8,0.2,0.2,0.8,0.8,0.8,0.2,0.8",""
"null","","html-keyboard-response","314","571732","0.0-314.0","3X3OR7WPZ0M6TCB0IC3GGRNHLAR8LY","A1GRPIBHW72HDU","3WPCIUYH1AU470H2HRBLZRFBM3CTDN","","","<img src=""img/flower4.png"" style=""width:200px;border:14px solid red;"">","null","","","","","",""
"659","","image-keyboard-response","315","572394","0.0-315.0","3X3OR7WPZ0M6TCB0IC3GGRNHLAR8LY","A1GRPIBHW72HDU","3WPCIUYH1AU470H2HRBLZRFBM3CTDN","","","img/flower2.png","74","661","1","0","2","0.8,0.8,0.2,0.2,0.8,0.8,0.8,0.2,0.8",""
"null","","html-keyboard-response","316","572710","0.0-316.0","3X3OR7WPZ0M6TCB0IC3GGRNHLAR8LY","A1GRPIBHW72HDU","3WPCIUYH1AU470H2HRBLZRFBM3CTDN","","","<img src=""img/flower2.png"" style=""width:200px;border:14px solid red;"">","null","","","","","",""
"939","","image-keyboard-response","317","573652","0.0-317.0","3X3OR7WPZ0M6TCB0IC3GGRNHLAR8LY","A1GRPIBHW72HDU","3WPCIUYH1AU470H2HRBLZRFBM3CTDN","","","img/flower9.png","74","942","1","1","3","0.8,0.8,0.2,0.2,0.8,0.8,0.8,0.2,0.8",""
"null","","html-keyboard-response","318","573963","0.0-318.0","3X3OR7WPZ0M6TCB0IC3GGRNHLAR8LY","A1GRPIBHW72HDU","3WPCIUYH1AU470H2HRBLZRFBM3CTDN","","","<img src=""img/flower9.png"" style=""width:200px; border:14px solid green;"">","null","","","","","",""
"766","","image-keyboard-response","319","574731","0.0-319.0","3X3OR7WPZ0M6TCB0IC3GGRNHLAR8LY","A1GRPIBHW72HDU","3WPCIUYH1AU470H2HRBLZRFBM3CTDN","","","img/flower9.png","74","768","1","1","3","0.8,0.8,0.2,0.2,0.8,0.8,0.8,0.2,0.8",""
"null","","html-keyboard-response","320","575034","0.0-320.0","3X3OR7WPZ0M6TCB0IC3GGRNHLAR8LY","A1GRPIBHW72HDU","3WPCIUYH1AU470H2HRBLZRFBM3CTDN","","","<img src=""img/flower9.png"" style=""width:200px; border:14px solid green;"">","null","","","","","",""
"1239","","image-keyboard-response","321","576275","0.0-321.0","3X3OR7WPZ0M6TCB0IC3GGRNHLAR8LY","A1GRPIBHW72HDU","3WPCIUYH1AU470H2HRBLZRFBM3CTDN","","","img/flower4.png","75","1240","2","1","1","0.8,0.8,0.2,0.2,0.8,0.8,0.8,0.2,0.8",""
"null","","html-keyboard-response","322","576585","0.0-322.0","3X3OR7WPZ0M6TCB0IC3GGRNHLAR8LY","A1GRPIBHW72HDU","3WPCIUYH1AU470H2HRBLZRFBM3CTDN","","","<img src=""img/flower4.png"" style=""width:200px; border:14px solid green;"">","null","","","","","",""
"1107","","image-keyboard-response","323","577693","0.0-323.0","3X3OR7WPZ0M6TCB0IC3GGRNHLAR8LY","A1GRPIBHW72HDU","3WPCIUYH1AU470H2HRBLZRFBM3CTDN","","","img/flower9.png","74","1108","1","1","3","0.8,0.8,0.2,0.2,0.8,0.8,0.8,0.2,0.8",""
"null","","html-keyboard-response","324","578003","0.0-324.0","3X3OR7WPZ0M6TCB0IC3GGRNHLAR8LY","A1GRPIBHW72HDU","3WPCIUYH1AU470H2HRBLZRFBM3CTDN","","","<img src=""img/flower9.png"" style=""width:200px; border:14px solid green;"">","null","","","","","",""
"408","","image-keyboard-response","325","578414","0.0-325.0","3X3OR7WPZ0M6TCB0IC3GGRNHLAR8LY","A1GRPIBHW72HDU","3WPCIUYH1AU470H2HRBLZRFBM3CTDN","","","img/flower9.png","74","411","1","1","3","0.8,0.8,0.2,0.2,0.8,0.8,0.8,0.2,0.8",""
"null","","html-keyboard-response","326","578720","0.0-326.0","3X3OR7WPZ0M6TCB0IC3GGRNHLAR8LY","A1GRPIBHW72HDU","3WPCIUYH1AU470H2HRBLZRFBM3CTDN","","","<img src=""img/flower9.png"" style=""width:200px; border:14px solid green;"">","null","","","","","",""
"569","","image-keyboard-response","327","579291","0.0-327.0","3X3OR7WPZ0M6TCB0IC3GGRNHLAR8LY","A1GRPIBHW72HDU","3WPCIUYH1AU470H2HRBLZRFBM3CTDN","","","img/flower4.png","75","571","2","1","1","0.8,0.8,0.2,0.2,0.8,0.8,0.8,0.2,0.8",""
"null","","html-keyboard-response","328","579606","0.0-328.0","3X3OR7WPZ0M6TCB0IC3GGRNHLAR8LY","A1GRPIBHW72HDU","3WPCIUYH1AU470H2HRBLZRFBM3CTDN","","","<img src=""img/flower4.png"" style=""width:200px; border:14px solid green;"">","null","","","","","",""
"378","","image-keyboard-response","329","579986","0.0-329.0","3X3OR7WPZ0M6TCB0IC3GGRNHLAR8LY","A1GRPIBHW72HDU","3WPCIUYH1AU470H2HRBLZRFBM3CTDN","","","img/flower4.png","75","379","2","0","1","0.8,0.8,0.2,0.2,0.8,0.8,0.8,0.2,0.8",""
"null","","html-keyboard-response","330","580290","0.0-330.0","3X3OR7WPZ0M6TCB0IC3GGRNHLAR8LY","A1GRPIBHW72HDU","3WPCIUYH1AU470H2HRBLZRFBM3CTDN","","","<img src=""img/flower4.png"" style=""width:200px;border:14px solid red;"">","null","","","","","",""
"623","","image-keyboard-response","331","580916","0.0-331.0","3X3OR7WPZ0M6TCB0IC3GGRNHLAR8LY","A1GRPIBHW72HDU","3WPCIUYH1AU470H2HRBLZRFBM3CTDN","","","img/flower2.png","76","624","3","1","2","0.8,0.8,0.2,0.2,0.8,0.8,0.8,0.2,0.8",""
"null","","html-keyboard-response","332","581223","0.0-332.0","3X3OR7WPZ0M6TCB0IC3GGRNHLAR8LY","A1GRPIBHW72HDU","3WPCIUYH1AU470H2HRBLZRFBM3CTDN","","","<img src=""img/flower2.png"" style=""width:200px; border:14px solid green;"">","null","","","","","",""
"1043","","image-keyboard-response","333","582268","0.0-333.0","3X3OR7WPZ0M6TCB0IC3GGRNHLAR8LY","A1GRPIBHW72HDU","3WPCIUYH1AU470H2HRBLZRFBM3CTDN","","","img/flower4.png","75","1045","2","1","1","0.8,0.8,0.2,0.2,0.8,0.8,0.8,0.2,0.8",""
"null","","html-keyboard-response","334","582579","0.0-334.0","3X3OR7WPZ0M6TCB0IC3GGRNHLAR8LY","A1GRPIBHW72HDU","3WPCIUYH1AU470H2HRBLZRFBM3CTDN","","","<img src=""img/flower4.png"" style=""width:200px; border:14px solid green;"">","null","","","","","",""
"381","","image-keyboard-response","335","582964","0.0-335.0","3X3OR7WPZ0M6TCB0IC3GGRNHLAR8LY","A1GRPIBHW72HDU","3WPCIUYH1AU470H2HRBLZRFBM3CTDN","","","img/flower4.png","75","384","2","1","1","0.8,0.8,0.2,0.2,0.8,0.8,0.8,0.2,0.8",""
"null","","html-keyboard-response","336","583279","0.0-336.0","3X3OR7WPZ0M6TCB0IC3GGRNHLAR8LY","A1GRPIBHW72HDU","3WPCIUYH1AU470H2HRBLZRFBM3CTDN","","","<img src=""img/flower4.png"" style=""width:200px; border:14px solid green;"">","null","","","","","",""
"705","","image-keyboard-response","337","583987","0.0-337.0","3X3OR7WPZ0M6TCB0IC3GGRNHLAR8LY","A1GRPIBHW72HDU","3WPCIUYH1AU470H2HRBLZRFBM3CTDN","","","img/flower2.png","76","708","3","1","2","0.8,0.8,0.2,0.2,0.8,0.8,0.8,0.2,0.8",""
"null","","html-keyboard-response","338","584296","0.0-338.0","3X3OR7WPZ0M6TCB0IC3GGRNHLAR8LY","A1GRPIBHW72HDU","3WPCIUYH1AU470H2HRBLZRFBM3CTDN","","","<img src=""img/flower2.png"" style=""width:200px; border:14px solid green;"">","null","","","","","",""
"406","","image-keyboard-response","339","584704","0.0-339.0","3X3OR7WPZ0M6TCB0IC3GGRNHLAR8LY","A1GRPIBHW72HDU","3WPCIUYH1AU470H2HRBLZRFBM3CTDN","","","img/flower2.png","76","407","3","1","2","0.8,0.8,0.2,0.2,0.8,0.8,0.8,0.2,0.8",""
"null","","html-keyboard-response","340","585013","0.0-340.0","3X3OR7WPZ0M6TCB0IC3GGRNHLAR8LY","A1GRPIBHW72HDU","3WPCIUYH1AU470H2HRBLZRFBM3CTDN","","","<img src=""img/flower2.png"" style=""width:200px; border:14px solid green;"">","null","","","","","",""
"674","","image-keyboard-response","341","585691","0.0-341.0","3X3OR7WPZ0M6TCB0IC3GGRNHLAR8LY","A1GRPIBHW72HDU","3WPCIUYH1AU470H2HRBLZRFBM3CTDN","","","img/flower9.png","74","677","1","1","3","0.8,0.8,0.2,0.2,0.8,0.8,0.8,0.2,0.8",""
"null","","html-keyboard-response","342","586031","0.0-342.0","3X3OR7WPZ0M6TCB0IC3GGRNHLAR8LY","A1GRPIBHW72HDU","3WPCIUYH1AU470H2HRBLZRFBM3CTDN","","","<img src=""img/flower9.png"" style=""width:200px; border:14px solid green;"">","null","","","","","",""
"333","","image-keyboard-response","343","586365","0.0-343.0","3X3OR7WPZ0M6TCB0IC3GGRNHLAR8LY","A1GRPIBHW72HDU","3WPCIUYH1AU470H2HRBLZRFBM3CTDN","","","img/flower9.png","74","335","1","1","3","0.8,0.8,0.2,0.2,0.8,0.8,0.8,0.2,0.8",""
"null","","html-keyboard-response","344","586669","0.0-344.0","3X3OR7WPZ0M6TCB0IC3GGRNHLAR8LY","A1GRPIBHW72HDU","3WPCIUYH1AU470H2HRBLZRFBM3CTDN","","","<img src=""img/flower9.png"" style=""width:200px; border:14px solid green;"">","null","","","","","",""
"377","","image-keyboard-response","345","587049","0.0-345.0","3X3OR7WPZ0M6TCB0IC3GGRNHLAR8LY","A1GRPIBHW72HDU","3WPCIUYH1AU470H2HRBLZRFBM3CTDN","","","img/flower9.png","74","379","1","1","3","0.8,0.8,0.2,0.2,0.8,0.8,0.8,0.2,0.8",""
"null","","html-keyboard-response","346","587355","0.0-346.0","3X3OR7WPZ0M6TCB0IC3GGRNHLAR8LY","A1GRPIBHW72HDU","3WPCIUYH1AU470H2HRBLZRFBM3CTDN","","","<img src=""img/flower9.png"" style=""width:200px; border:14px solid green;"">","null","","","","","",""
"828","","image-keyboard-response","347","588186","0.0-347.0","3X3OR7WPZ0M6TCB0IC3GGRNHLAR8LY","A1GRPIBHW72HDU","3WPCIUYH1AU470H2HRBLZRFBM3CTDN","","","img/flower2.png","75","831","2","1","2","0.8,0.8,0.2,0.2,0.8,0.8,0.8,0.2,0.8",""
"null","","html-keyboard-response","348","588504","0.0-348.0","3X3OR7WPZ0M6TCB0IC3GGRNHLAR8LY","A1GRPIBHW72HDU","3WPCIUYH1AU470H2HRBLZRFBM3CTDN","","","<img src=""img/flower2.png"" style=""width:200px; border:14px solid green;"">","null","","","","","",""
"304","","image-keyboard-response","349","588809","0.0-349.0","3X3OR7WPZ0M6TCB0IC3GGRNHLAR8LY","A1GRPIBHW72HDU","3WPCIUYH1AU470H2HRBLZRFBM3CTDN","","","img/flower2.png","75","305","2","1","2","0.8,0.8,0.2,0.2,0.8,0.8,0.8,0.2,0.8",""
"null","","html-keyboard-response","350","589118","0.0-350.0","3X3OR7WPZ0M6TCB0IC3GGRNHLAR8LY","A1GRPIBHW72HDU","3WPCIUYH1AU470H2HRBLZRFBM3CTDN","","","<img src=""img/flower2.png"" style=""width:200px; border:14px solid green;"">","null","","","","","",""
"310","","image-keyboard-response","351","589429","0.0-351.0","3X3OR7WPZ0M6TCB0IC3GGRNHLAR8LY","A1GRPIBHW72HDU","3WPCIUYH1AU470H2HRBLZRFBM3CTDN","","","img/flower2.png","75","311","2","1","2","0.8,0.8,0.2,0.2,0.8,0.8,0.8,0.2,0.8",""
"null","","html-keyboard-response","352","589735","0.0-352.0","3X3OR7WPZ0M6TCB0IC3GGRNHLAR8LY","A1GRPIBHW72HDU","3WPCIUYH1AU470H2HRBLZRFBM3CTDN","","","<img src=""img/flower2.png"" style=""width:200px; border:14px solid green;"">","null","","","","","",""
"599","","image-keyboard-response","353","590337","0.0-353.0","3X3OR7WPZ0M6TCB0IC3GGRNHLAR8LY","A1GRPIBHW72HDU","3WPCIUYH1AU470H2HRBLZRFBM3CTDN","","","img/flower9.png","76","602","3","1","3","0.8,0.8,0.2,0.2,0.8,0.8,0.8,0.2,0.8",""
"null","","html-keyboard-response","354","590658","0.0-354.0","3X3OR7WPZ0M6TCB0IC3GGRNHLAR8LY","A1GRPIBHW72HDU","3WPCIUYH1AU470H2HRBLZRFBM3CTDN","","","<img src=""img/flower9.png"" style=""width:200px; border:14px solid green;"">","null","","","","","",""
"1956","","image-keyboard-response","355","592617","0.0-355.0","3X3OR7WPZ0M6TCB0IC3GGRNHLAR8LY","A1GRPIBHW72HDU","3WPCIUYH1AU470H2HRBLZRFBM3CTDN","","","img/flower2.png","75","1959","2","1","2","0.8,0.8,0.2,0.2,0.8,0.8,0.8,0.2,0.8",""
"null","","html-keyboard-response","356","592921","0.0-356.0","3X3OR7WPZ0M6TCB0IC3GGRNHLAR8LY","A1GRPIBHW72HDU","3WPCIUYH1AU470H2HRBLZRFBM3CTDN","","","<img src=""img/flower2.png"" style=""width:200px; border:14px solid green;"">","null","","","","","",""
"647","","image-keyboard-response","357","593573","0.0-357.0","3X3OR7WPZ0M6TCB0IC3GGRNHLAR8LY","A1GRPIBHW72HDU","3WPCIUYH1AU470H2HRBLZRFBM3CTDN","","","img/flower9.png","74","650","1","1","3","0.8,0.8,0.2,0.2,0.8,0.8,0.8,0.2,0.8",""
"null","","html-keyboard-response","358","593876","0.0-358.0","3X3OR7WPZ0M6TCB0IC3GGRNHLAR8LY","A1GRPIBHW72HDU","3WPCIUYH1AU470H2HRBLZRFBM3CTDN","","","<img src=""img/flower9.png"" style=""width:200px; border:14px solid green;"">","null","","","","","",""
"366","","image-keyboard-response","359","594244","0.0-359.0","3X3OR7WPZ0M6TCB0IC3GGRNHLAR8LY","A1GRPIBHW72HDU","3WPCIUYH1AU470H2HRBLZRFBM3CTDN","","","img/flower9.png","74","367","1","1","3","0.8,0.8,0.2,0.2,0.8,0.8,0.8,0.2,0.8",""
"null","","html-keyboard-response","360","594561","0.0-360.0","3X3OR7WPZ0M6TCB0IC3GGRNHLAR8LY","A1GRPIBHW72HDU","3WPCIUYH1AU470H2HRBLZRFBM3CTDN","","","<img src=""img/flower9.png"" style=""width:200px; border:14px solid green;"">","null","","","","","",""
"336","","image-keyboard-response","361","594901","0.0-361.0","3X3OR7WPZ0M6TCB0IC3GGRNHLAR8LY","A1GRPIBHW72HDU","3WPCIUYH1AU470H2HRBLZRFBM3CTDN","","","img/flower9.png","74","338","1","1","3","0.8,0.8,0.2,0.2,0.8,0.8,0.8,0.2,0.8",""
"null","","html-keyboard-response","362","595211","0.0-362.0","3X3OR7WPZ0M6TCB0IC3GGRNHLAR8LY","A1GRPIBHW72HDU","3WPCIUYH1AU470H2HRBLZRFBM3CTDN","","","<img src=""img/flower9.png"" style=""width:200px; border:14px solid green;"">","null","","","","","",""
"794","","image-keyboard-response","363","596008","0.0-363.0","3X3OR7WPZ0M6TCB0IC3GGRNHLAR8LY","A1GRPIBHW72HDU","3WPCIUYH1AU470H2HRBLZRFBM3CTDN","","","img/flower4.png","76","796","3","0","1","0.8,0.8,0.2,0.2,0.8,0.8,0.8,0.2,0.8",""
"null","","html-keyboard-response","364","596312","0.0-364.0","3X3OR7WPZ0M6TCB0IC3GGRNHLAR8LY","A1GRPIBHW72HDU","3WPCIUYH1AU470H2HRBLZRFBM3CTDN","","","<img src=""img/flower4.png"" style=""width:200px;border:14px solid red;"">","null","","","","","",""
"983","","image-keyboard-response","365","597297","0.0-365.0","3X3OR7WPZ0M6TCB0IC3GGRNHLAR8LY","A1GRPIBHW72HDU","3WPCIUYH1AU470H2HRBLZRFBM3CTDN","","","img/flower9.png","74","984","1","1","3","0.8,0.8,0.2,0.2,0.8,0.8,0.8,0.2,0.8",""
"null","","html-keyboard-response","366","597614","0.0-366.0","3X3OR7WPZ0M6TCB0IC3GGRNHLAR8LY","A1GRPIBHW72HDU","3WPCIUYH1AU470H2HRBLZRFBM3CTDN","","","<img src=""img/flower9.png"" style=""width:200px; border:14px solid green;"">","null","","","","","",""
"353","","image-keyboard-response","367","597968","0.0-367.0","3X3OR7WPZ0M6TCB0IC3GGRNHLAR8LY","A1GRPIBHW72HDU","3WPCIUYH1AU470H2HRBLZRFBM3CTDN","","","img/flower9.png","74","355","1","1","3","0.8,0.8,0.2,0.2,0.8,0.8,0.8,0.2,0.8",""
"null","","html-keyboard-response","368","598284","0.0-368.0","3X3OR7WPZ0M6TCB0IC3GGRNHLAR8LY","A1GRPIBHW72HDU","3WPCIUYH1AU470H2HRBLZRFBM3CTDN","","","<img src=""img/flower9.png"" style=""width:200px; border:14px solid green;"">","null","","","","","",""
"698","","image-keyboard-response","369","598983","0.0-369.0","3X3OR7WPZ0M6TCB0IC3GGRNHLAR8LY","A1GRPIBHW72HDU","3WPCIUYH1AU470H2HRBLZRFBM3CTDN","","","img/flower2.png","75","699","2","1","2","0.8,0.8,0.2,0.2,0.8,0.8,0.8,0.2,0.8",""
"null","","html-keyboard-response","370","599302","0.0-370.0","3X3OR7WPZ0M6TCB0IC3GGRNHLAR8LY","A1GRPIBHW72HDU","3WPCIUYH1AU470H2HRBLZRFBM3CTDN","","","<img src=""img/flower2.png"" style=""width:200px; border:14px solid green;"">","null","","","","","",""
"662","","image-keyboard-response","371","599967","0.0-371.0","3X3OR7WPZ0M6TCB0IC3GGRNHLAR8LY","A1GRPIBHW72HDU","3WPCIUYH1AU470H2HRBLZRFBM3CTDN","","","img/flower9.png","74","664","1","1","3","0.8,0.8,0.2,0.2,0.8,0.8,0.8,0.2,0.8",""
"null","","html-keyboard-response","372","600272","0.0-372.0","3X3OR7WPZ0M6TCB0IC3GGRNHLAR8LY","A1GRPIBHW72HDU","3WPCIUYH1AU470H2HRBLZRFBM3CTDN","","","<img src=""img/flower9.png"" style=""width:200px; border:14px solid green;"">","null","","","","","",""
"765","","image-keyboard-response","373","601040","0.0-373.0","3X3OR7WPZ0M6TCB0IC3GGRNHLAR8LY","A1GRPIBHW72HDU","3WPCIUYH1AU470H2HRBLZRFBM3CTDN","","","img/flower4.png","76","768","3","0","1","0.8,0.8,0.2,0.2,0.8,0.8,0.8,0.2,0.8",""
"null","","html-keyboard-response","374","601349","0.0-374.0","3X3OR7WPZ0M6TCB0IC3GGRNHLAR8LY","A1GRPIBHW72HDU","3WPCIUYH1AU470H2HRBLZRFBM3CTDN","","","<img src=""img/flower4.png"" style=""width:200px;border:14px solid red;"">","null","","","","","",""
"390","","image-keyboard-response","375","601741","0.0-375.0","3X3OR7WPZ0M6TCB0IC3GGRNHLAR8LY","A1GRPIBHW72HDU","3WPCIUYH1AU470H2HRBLZRFBM3CTDN","","","img/flower4.png","76","391","3","0","1","0.8,0.8,0.2,0.2,0.8,0.8,0.8,0.2,0.8",""
"null","","html-keyboard-response","376","602051","0.0-376.0","3X3OR7WPZ0M6TCB0IC3GGRNHLAR8LY","A1GRPIBHW72HDU","3WPCIUYH1AU470H2HRBLZRFBM3CTDN","","","<img src=""img/flower4.png"" style=""width:200px;border:14px solid red;"">","null","","","","","",""
"862","","image-keyboard-response","377","602918","0.0-377.0","3X3OR7WPZ0M6TCB0IC3GGRNHLAR8LY","A1GRPIBHW72HDU","3WPCIUYH1AU470H2HRBLZRFBM3CTDN","","","img/flower4.png","74","866","1","0","1","0.8,0.8,0.2,0.2,0.8,0.8,0.8,0.2,0.8",""
"null","","html-keyboard-response","378","603236","0.0-378.0","3X3OR7WPZ0M6TCB0IC3GGRNHLAR8LY","A1GRPIBHW72HDU","3WPCIUYH1AU470H2HRBLZRFBM3CTDN","","","<img src=""img/flower4.png"" style=""width:200px;border:14px solid red;"">","null","","","","","",""
"1664","","image-keyboard-response","379","604904","0.0-379.0","3X3OR7WPZ0M6TCB0IC3GGRNHLAR8LY","A1GRPIBHW72HDU","3WPCIUYH1AU470H2HRBLZRFBM3CTDN","","","img/flower2.png","74","1667","1","0","2","0.8,0.8,0.2,0.2,0.8,0.8,0.8,0.2,0.8",""
"null","","html-keyboard-response","380","605210","0.0-380.0","3X3OR7WPZ0M6TCB0IC3GGRNHLAR8LY","A1GRPIBHW72HDU","3WPCIUYH1AU470H2HRBLZRFBM3CTDN","","","<img src=""img/flower2.png"" style=""width:200px;border:14px solid red;"">","null","","","","","",""
"752","","image-keyboard-response","381","605967","0.0-381.0","3X3OR7WPZ0M6TCB0IC3GGRNHLAR8LY","A1GRPIBHW72HDU","3WPCIUYH1AU470H2HRBLZRFBM3CTDN","","","img/flower9.png","74","755","1","1","3","0.8,0.8,0.2,0.2,0.8,0.8,0.8,0.2,0.8",""
"null","","html-keyboard-response","382","606281","0.0-382.0","3X3OR7WPZ0M6TCB0IC3GGRNHLAR8LY","A1GRPIBHW72HDU","3WPCIUYH1AU470H2HRBLZRFBM3CTDN","","","<img src=""img/flower9.png"" style=""width:200px; border:14px solid green;"">","null","","","","","",""
"435","","image-keyboard-response","383","606718","0.0-383.0","3X3OR7WPZ0M6TCB0IC3GGRNHLAR8LY","A1GRPIBHW72HDU","3WPCIUYH1AU470H2HRBLZRFBM3CTDN","","","img/flower9.png","74","436","1","1","3","0.8,0.8,0.2,0.2,0.8,0.8,0.8,0.2,0.8",""
"null","","html-keyboard-response","384","607028","0.0-384.0","3X3OR7WPZ0M6TCB0IC3GGRNHLAR8LY","A1GRPIBHW72HDU","3WPCIUYH1AU470H2HRBLZRFBM3CTDN","","","<img src=""img/flower9.png"" style=""width:200px; border:14px solid green;"">","null","","","","","",""
"938","","image-keyboard-response","385","607969","0.0-385.0","3X3OR7WPZ0M6TCB0IC3GGRNHLAR8LY","A1GRPIBHW72HDU","3WPCIUYH1AU470H2HRBLZRFBM3CTDN","","","img/flower4.png","76","939","3","0","1","0.8,0.8,0.2,0.2,0.8,0.8,0.8,0.2,0.8",""
"null","","html-keyboard-response","386","608283","0.0-386.0","3X3OR7WPZ0M6TCB0IC3GGRNHLAR8LY","A1GRPIBHW72HDU","3WPCIUYH1AU470H2HRBLZRFBM3CTDN","","","<img src=""img/flower4.png"" style=""width:200px;border:14px solid red;"">","null","","","","","",""
"943","","image-keyboard-response","387","609231","0.0-387.0","3X3OR7WPZ0M6TCB0IC3GGRNHLAR8LY","A1GRPIBHW72HDU","3WPCIUYH1AU470H2HRBLZRFBM3CTDN","","","img/flower9.png","74","946","1","1","3","0.8,0.8,0.2,0.2,0.8,0.8,0.8,0.2,0.8",""
"null","","html-keyboard-response","388","609545","0.0-388.0","3X3OR7WPZ0M6TCB0IC3GGRNHLAR8LY","A1GRPIBHW72HDU","3WPCIUYH1AU470H2HRBLZRFBM3CTDN","","","<img src=""img/flower9.png"" style=""width:200px; border:14px solid green;"">","null","","","","","",""
"1645","","image-keyboard-response","389","611192","0.0-389.0","3X3OR7WPZ0M6TCB0IC3GGRNHLAR8LY","A1GRPIBHW72HDU","3WPCIUYH1AU470H2HRBLZRFBM3CTDN","","","img/flower2.png","75","1647","2","1","2","0.8,0.8,0.2,0.2,0.8,0.8,0.8,0.2,0.8",""
"null","","html-keyboard-response","390","611498","0.0-390.0","3X3OR7WPZ0M6TCB0IC3GGRNHLAR8LY","A1GRPIBHW72HDU","3WPCIUYH1AU470H2HRBLZRFBM3CTDN","","","<img src=""img/flower2.png"" style=""width:200px; border:14px solid green;"">","null","","","","","",""
"390","","image-keyboard-response","391","611889","0.0-391.0","3X3OR7WPZ0M6TCB0IC3GGRNHLAR8LY","A1GRPIBHW72HDU","3WPCIUYH1AU470H2HRBLZRFBM3CTDN","","","img/flower2.png","75","391","2","1","2","0.8,0.8,0.2,0.2,0.8,0.8,0.8,0.2,0.8",""
"null","","html-keyboard-response","392","612202","0.0-392.0","3X3OR7WPZ0M6TCB0IC3GGRNHLAR8LY","A1GRPIBHW72HDU","3WPCIUYH1AU470H2HRBLZRFBM3CTDN","","","<img src=""img/flower2.png"" style=""width:200px; border:14px solid green;"">","null","","","","","",""
"740","","image-keyboard-response","393","612945","0.0-393.0","3X3OR7WPZ0M6TCB0IC3GGRNHLAR8LY","A1GRPIBHW72HDU","3WPCIUYH1AU470H2HRBLZRFBM3CTDN","","","img/flower4.png","76","742","3","0","1","0.8,0.8,0.2,0.2,0.8,0.8,0.8,0.2,0.8",""
"null","","html-keyboard-response","394","613247","0.0-394.0","3X3OR7WPZ0M6TCB0IC3GGRNHLAR8LY","A1GRPIBHW72HDU","3WPCIUYH1AU470H2HRBLZRFBM3CTDN","","","<img src=""img/flower4.png"" style=""width:200px;border:14px solid red;"">","null","","","","","",""
"829","","image-keyboard-response","395","614081","0.0-395.0","3X3OR7WPZ0M6TCB0IC3GGRNHLAR8LY","A1GRPIBHW72HDU","3WPCIUYH1AU470H2HRBLZRFBM3CTDN","","","img/flower9.png","74","834","1","1","3","0.8,0.8,0.2,0.2,0.8,0.8,0.8,0.2,0.8",""
"null","","html-keyboard-response","396","614386","0.0-396.0","3X3OR7WPZ0M6TCB0IC3GGRNHLAR8LY","A1GRPIBHW72HDU","3WPCIUYH1AU470H2HRBLZRFBM3CTDN","","","<img src=""img/flower9.png"" style=""width:200px; border:14px solid green;"">","null","","","","","",""
"745","","image-keyboard-response","397","615131","0.0-397.0","3X3OR7WPZ0M6TCB0IC3GGRNHLAR8LY","A1GRPIBHW72HDU","3WPCIUYH1AU470H2HRBLZRFBM3CTDN","","","img/flower4.png","75","746","2","1","1","0.8,0.8,0.2,0.2,0.8,0.8,0.8,0.2,0.8",""
"null","","html-keyboard-response","398","615449","0.0-398.0","3X3OR7WPZ0M6TCB0IC3GGRNHLAR8LY","A1GRPIBHW72HDU","3WPCIUYH1AU470H2HRBLZRFBM3CTDN","","","<img src=""img/flower4.png"" style=""width:200px; border:14px solid green;"">","null","","","","","",""
"1000","","image-keyboard-response","399","616452","0.0-399.0","3X3OR7WPZ0M6TCB0IC3GGRNHLAR8LY","A1GRPIBHW72HDU","3WPCIUYH1AU470H2HRBLZRFBM3CTDN","","","img/flower9.png","74","1003","1","0","3","0.8,0.8,0.2,0.2,0.8,0.8,0.8,0.2,0.8",""
"null","","html-keyboard-response","400","616771","0.0-400.0","3X3OR7WPZ0M6TCB0IC3GGRNHLAR8LY","A1GRPIBHW72HDU","3WPCIUYH1AU470H2HRBLZRFBM3CTDN","","","<img src=""img/flower9.png"" style=""width:200px;border:14px solid red;"">","null","","","","","",""
"912","","image-keyboard-response","401","617684","0.0-401.0","3X3OR7WPZ0M6TCB0IC3GGRNHLAR8LY","A1GRPIBHW72HDU","3WPCIUYH1AU470H2HRBLZRFBM3CTDN","","","img/flower4.png","75","913","2","1","1","0.8,0.8,0.2,0.2,0.8,0.8,0.8,0.2,0.8",""
"null","","html-keyboard-response","402","617994","0.0-402.0","3X3OR7WPZ0M6TCB0IC3GGRNHLAR8LY","A1GRPIBHW72HDU","3WPCIUYH1AU470H2HRBLZRFBM3CTDN","","","<img src=""img/flower4.png"" style=""width:200px; border:14px solid green;"">","null","","","","","",""
"629","","image-keyboard-response","403","618626","0.0-403.0","3X3OR7WPZ0M6TCB0IC3GGRNHLAR8LY","A1GRPIBHW72HDU","3WPCIUYH1AU470H2HRBLZRFBM3CTDN","","","img/flower2.png","75","630","2","1","2","0.8,0.8,0.2,0.2,0.8,0.8,0.8,0.2,0.8",""
"null","","html-keyboard-response","404","618943","0.0-404.0","3X3OR7WPZ0M6TCB0IC3GGRNHLAR8LY","A1GRPIBHW72HDU","3WPCIUYH1AU470H2HRBLZRFBM3CTDN","","","<img src=""img/flower2.png"" style=""width:200px; border:14px solid green;"">","null","","","","","",""
"761","","image-keyboard-response","405","619707","0.0-405.0","3X3OR7WPZ0M6TCB0IC3GGRNHLAR8LY","A1GRPIBHW72HDU","3WPCIUYH1AU470H2HRBLZRFBM3CTDN","","","img/flower9.png","74","763","1","1","3","0.8,0.8,0.2,0.2,0.8,0.8,0.8,0.2,0.8",""
"null","","html-keyboard-response","406","620011","0.0-406.0","3X3OR7WPZ0M6TCB0IC3GGRNHLAR8LY","A1GRPIBHW72HDU","3WPCIUYH1AU470H2HRBLZRFBM3CTDN","","","<img src=""img/flower9.png"" style=""width:200px; border:14px solid green;"">","null","","","","","",""
"696","","image-keyboard-response","407","620709","0.0-407.0","3X3OR7WPZ0M6TCB0IC3GGRNHLAR8LY","A1GRPIBHW72HDU","3WPCIUYH1AU470H2HRBLZRFBM3CTDN","","","img/flower4.png","75","699","2","1","1","0.8,0.8,0.2,0.2,0.8,0.8,0.8,0.2,0.8",""
"null","","html-keyboard-response","408","621013","0.0-408.0","3X3OR7WPZ0M6TCB0IC3GGRNHLAR8LY","A1GRPIBHW72HDU","3WPCIUYH1AU470H2HRBLZRFBM3CTDN","","","<img src=""img/flower4.png"" style=""width:200px; border:14px solid green;"">","null","","","","","",""
"958","","image-keyboard-response","409","621974","0.0-409.0","3X3OR7WPZ0M6TCB0IC3GGRNHLAR8LY","A1GRPIBHW72HDU","3WPCIUYH1AU470H2HRBLZRFBM3CTDN","","","img/flower9.png","74","960","1","1","3","0.8,0.8,0.2,0.2,0.8,0.8,0.8,0.2,0.8",""
"null","","html-keyboard-response","410","622282","0.0-410.0","3X3OR7WPZ0M6TCB0IC3GGRNHLAR8LY","A1GRPIBHW72HDU","3WPCIUYH1AU470H2HRBLZRFBM3CTDN","","","<img src=""img/flower9.png"" style=""width:200px; border:14px solid green;"">","null","","","","","",""
"552","","image-keyboard-response","411","622837","0.0-411.0","3X3OR7WPZ0M6TCB0IC3GGRNHLAR8LY","A1GRPIBHW72HDU","3WPCIUYH1AU470H2HRBLZRFBM3CTDN","","","img/flower4.png","75","553","2","1","1","0.8,0.8,0.2,0.2,0.8,0.8,0.8,0.2,0.8",""
"null","","html-keyboard-response","412","623145","0.0-412.0","3X3OR7WPZ0M6TCB0IC3GGRNHLAR8LY","A1GRPIBHW72HDU","3WPCIUYH1AU470H2HRBLZRFBM3CTDN","","","<img src=""img/flower4.png"" style=""width:200px; border:14px solid green;"">","null","","","","","",""
"398","","image-keyboard-response","413","623545","0.0-413.0","3X3OR7WPZ0M6TCB0IC3GGRNHLAR8LY","A1GRPIBHW72HDU","3WPCIUYH1AU470H2HRBLZRFBM3CTDN","","","img/flower4.png","75","400","2","0","1","0.8,0.8,0.2,0.2,0.8,0.8,0.8,0.2,0.8",""
"null","","html-keyboard-response","414","623862","0.0-414.0","3X3OR7WPZ0M6TCB0IC3GGRNHLAR8LY","A1GRPIBHW72HDU","3WPCIUYH1AU470H2HRBLZRFBM3CTDN","","","<img src=""img/flower4.png"" style=""width:200px;border:14px solid red;"">","null","","","","","",""
"1385","","image-keyboard-response","415","625249","0.0-415.0","3X3OR7WPZ0M6TCB0IC3GGRNHLAR8LY","A1GRPIBHW72HDU","3WPCIUYH1AU470H2HRBLZRFBM3CTDN","","","img/flower2.png","75","1386","2","0","2","0.8,0.8,0.2,0.2,0.8,0.8,0.8,0.2,0.8",""
"null","","html-keyboard-response","416","625562","0.0-416.0","3X3OR7WPZ0M6TCB0IC3GGRNHLAR8LY","A1GRPIBHW72HDU","3WPCIUYH1AU470H2HRBLZRFBM3CTDN","","","<img src=""img/flower2.png"" style=""width:200px;border:14px solid red;"">","null","","","","","",""
"558","","image-keyboard-response","417","626122","0.0-417.0","3X3OR7WPZ0M6TCB0IC3GGRNHLAR8LY","A1GRPIBHW72HDU","3WPCIUYH1AU470H2HRBLZRFBM3CTDN","","","img/flower2.png","75","560","2","0","2","0.8,0.8,0.2,0.2,0.8,0.8,0.8,0.2,0.8",""
"null","","html-keyboard-response","418","626435","0.0-418.0","3X3OR7WPZ0M6TCB0IC3GGRNHLAR8LY","A1GRPIBHW72HDU","3WPCIUYH1AU470H2HRBLZRFBM3CTDN","","","<img src=""img/flower2.png"" style=""width:200px;border:14px solid red;"">","null","","","","","",""
"281","","image-keyboard-response","419","626717","0.0-419.0","3X3OR7WPZ0M6TCB0IC3GGRNHLAR8LY","A1GRPIBHW72HDU","3WPCIUYH1AU470H2HRBLZRFBM3CTDN","","","img/flower2.png","75","282","2","1","2","0.8,0.8,0.2,0.2,0.8,0.8,0.8,0.2,0.8",""
