"success","trial_type","trial_index","time_elapsed","internal_node_id","assignmentID","mturkID","hitID","view_history","rt","stimulus","key_press","reactionTime","a","r","s","cond","reward_cond","reward_cond_actual","reward_matrix_idx","responses"
"true","fullscreen","0","2778","0.0-0.0","39LOEL67OTRPD8LBC6ZGK5T0P3O381","A1H5TB600ATGFS","3MXX6RQ9EVRTFC527Z18RDK8KW6P4R","","","","","","","","","","","","",""
"","instructions","1","19827","0.0-1.0","39LOEL67OTRPD8LBC6ZGK5T0P3O381","A1H5TB600ATGFS","3MXX6RQ9EVRTFC527Z18RDK8KW6P4R","[{""page_index"":0,""viewing_time"":1434.3999999761581},{""page_index"":1,""viewing_time"":1931.3999999761581},{""page_index"":2,""viewing_time"":1644.6000000238419},{""page_index"":3,""viewing_time"":1310.7999999523163},{""page_index"":4,""viewing_time"":3060.2000000476837},{""page_index"":5,""viewing_time"":1185.3999999761581},{""page_index"":6,""viewing_time"":4014.2000000476837},{""page_index"":7,""viewing_time"":2466.899999976158}]","17048.199999928474","","","","","","","","","","",""
"","image-keyboard-response","2","20486","0.0-2.0","39LOEL67OTRPD8LBC6ZGK5T0P3O381","A1H5TB600ATGFS","3MXX6RQ9EVRTFC527Z18RDK8KW6P4R","","657.3999999761581","img/flower6.png","74","658.8000000715256","1","1","2","2","1,0,0,1,1,0,1,0,1","1,0,0,1,1,0,1,0,1","1",""
"","html-keyboard-response","3","20793","0.0-3.0","39LOEL67OTRPD8LBC6ZGK5T0P3O381","A1H5TB600ATGFS","3MXX6RQ9EVRTFC527Z18RDK8KW6P4R","","null","<img src=""img/flower6.png"" style=""width:200px; border:14px solid green;"">","null","","","","","","","","",""
"","image-keyboard-response","4","21057","0.0-4.0","39LOEL67OTRPD8LBC6ZGK5T0P3O381","A1H5TB600ATGFS","3MXX6RQ9EVRTFC527Z18RDK8KW6P4R","","263.8000000715256","img/flower5.png","74","264.60000002384186","1","1","3","2","1,0,0,1,1,0,1,0,1","1,0,0,1,1,0,1,0,1","1",""
"","html-keyboard-response","5","21370","0.0-5.0","39LOEL67OTRPD8LBC6ZGK5T0P3O381","A1H5TB600ATGFS","3MXX6RQ9EVRTFC527Z18RDK8KW6P4R","","null","<img src=""img/flower5.png"" style=""width:200px; border:14px solid green;"">","null","","","","","","","","",""
"","image-keyboard-response","6","21626","0.0-6.0","39LOEL67OTRPD8LBC6ZGK5T0P3O381","A1H5TB600ATGFS","3MXX6RQ9EVRTFC527Z18RDK8KW6P4R","","255","img/flower5.png","74","256","1","1","3","2","1,0,0,1,1,0,1,0,1","1,0,0,1,1,0,1,0,1","1",""
"","html-keyboard-response","7","21934","0.0-7.0","39LOEL67OTRPD8LBC6ZGK5T0P3O381","A1H5TB600ATGFS","3MXX6RQ9EVRTFC527Z18RDK8KW6P4R","","null","<img src=""img/flower5.png"" style=""width:200px; border:14px solid green;"">","null","","","","","","","","",""
"","image-keyboard-response","8","22077","0.0-8.0","39LOEL67OTRPD8LBC6ZGK5T0P3O381","A1H5TB600ATGFS","3MXX6RQ9EVRTFC527Z18RDK8KW6P4R","","142.60000002384186","img/flower2.png","74","143.39999997615814","1","1","1","2","1,0,0,1,1,0,1,0,1","1,0,0,1,1,0,1,0,1","1",""
"","html-keyboard-response","9","22386","0.0-9.0","39LOEL67OTRPD8LBC6ZGK5T0P3O381","A1H5TB600ATGFS","3MXX6RQ9EVRTFC527Z18RDK8KW6P4R","","null","<img src=""img/flower2.png"" style=""width:200px; border:14px solid green;"">","null","","","","","","","","",""
"","image-keyboard-response","10","22494","0.0-10.0","39LOEL67OTRPD8LBC6ZGK5T0P3O381","A1H5TB600ATGFS","3MXX6RQ9EVRTFC527Z18RDK8KW6P4R","","106.80000007152557","img/flower5.png","74","107.70000004768372","1","1","3","2","1,0,0,1,1,0,1,0,1","1,0,0,1,1,0,1,0,1","1",""
"","html-keyboard-response","11","22802","0.0-11.0","39LOEL67OTRPD8LBC6ZGK5T0P3O381","A1H5TB600ATGFS","3MXX6RQ9EVRTFC527Z18RDK8KW6P4R","","null","<img src=""img/flower5.png"" style=""width:200px; border:14px solid green;"">","null","","","","","","","","",""
"","image-keyboard-response","12","22964","0.0-12.0","39LOEL67OTRPD8LBC6ZGK5T0P3O381","A1H5TB600ATGFS","3MXX6RQ9EVRTFC527Z18RDK8KW6P4R","","161.29999995231628","img/flower6.png","74","162","1","1","2","2","1,0,0,1,1,0,1,0,1","1,0,0,1,1,0,1,0,1","1",""
"","html-keyboard-response","13","23273","0.0-13.0","39LOEL67OTRPD8LBC6ZGK5T0P3O381","A1H5TB600ATGFS","3MXX6RQ9EVRTFC527Z18RDK8KW6P4R","","null","<img src=""img/flower6.png"" style=""width:200px; border:14px solid green;"">","null","","","","","","","","",""
"","image-keyboard-response","14","23391","0.0-14.0","39LOEL67OTRPD8LBC6ZGK5T0P3O381","A1H5TB600ATGFS","3MXX6RQ9EVRTFC527Z18RDK8KW6P4R","","116.60000002384186","img/flower6.png","74","117.39999997615814","1","1","2","2","1,0,0,1,1,0,1,0,1","1,0,0,1,1,0,1,0,1","1",""
"","html-keyboard-response","15","23693","0.0-15.0","39LOEL67OTRPD8LBC6ZGK5T0P3O381","A1H5TB600ATGFS","3MXX6RQ9EVRTFC527Z18RDK8KW6P4R","","null","<img src=""img/flower6.png"" style=""width:200px; border:14px solid green;"">","null","","","","","","","","",""
"","image-keyboard-response","16","23899","0.0-16.0","39LOEL67OTRPD8LBC6ZGK5T0P3O381","A1H5TB600ATGFS","3MXX6RQ9EVRTFC527Z18RDK8KW6P4R","","205","img/flower5.png","74","206","1","1","3","2","1,0,0,1,1,0,1,0,1","1,0,0,1,1,0,1,0,1","1",""
"","html-keyboard-response","17","24210","0.0-17.0","39LOEL67OTRPD8LBC6ZGK5T0P3O381","A1H5TB600ATGFS","3MXX6RQ9EVRTFC527Z18RDK8KW6P4R","","null","<img src=""img/flower5.png"" style=""width:200px; border:14px solid green;"">","null","","","","","","","","",""
"","image-keyboard-response","18","24276","0.0-18.0","39LOEL67OTRPD8LBC6ZGK5T0P3O381","A1H5TB600ATGFS","3MXX6RQ9EVRTFC527Z18RDK8KW6P4R","","64.70000004768372","img/flower5.png","74","65.5","1","1","3","2","1,0,0,1,1,0,1,0,1","1,0,0,1,1,0,1,0,1","1",""
"","html-keyboard-response","19","24582","0.0-19.0","39LOEL67OTRPD8LBC6ZGK5T0P3O381","A1H5TB600ATGFS","3MXX6RQ9EVRTFC527Z18RDK8KW6P4R","","null","<img src=""img/flower5.png"" style=""width:200px; border:14px solid green;"">","null","","","","","","","","",""
"","image-keyboard-response","20","24658","0.0-20.0","39LOEL67OTRPD8LBC6ZGK5T0P3O381","A1H5TB600ATGFS","3MXX6RQ9EVRTFC527Z18RDK8KW6P4R","","75.39999997615814","img/flower6.png","74","76.39999997615814","1","1","2","2","1,0,0,1,1,0,1,0,1","1,0,0,1,1,0,1,0,1","1",""
"","html-keyboard-response","21","24967","0.0-21.0","39LOEL67OTRPD8LBC6ZGK5T0P3O381","A1H5TB600ATGFS","3MXX6RQ9EVRTFC527Z18RDK8KW6P4R","","null","<img src=""img/flower6.png"" style=""width:200px; border:14px solid green;"">","null","","","","","","","","",""
"","image-keyboard-response","22","25150","0.0-22.0","39LOEL67OTRPD8LBC6ZGK5T0P3O381","A1H5TB600ATGFS","3MXX6RQ9EVRTFC527Z18RDK8KW6P4R","","182.10000002384186","img/flower5.png","74","182.89999997615814","1","1","3","2","1,0,0,1,1,0,1,0,1","1,0,0,1,1,0,1,0,1","1",""
"","html-keyboard-response","23","25457","0.0-23.0","39LOEL67OTRPD8LBC6ZGK5T0P3O381","A1H5TB600ATGFS","3MXX6RQ9EVRTFC527Z18RDK8KW6P4R","","null","<img src=""img/flower5.png"" style=""width:200px; border:14px solid green;"">","null","","","","","","","","",""
"","image-keyboard-response","24","25538","0.0-24.0","39LOEL67OTRPD8LBC6ZGK5T0P3O381","A1H5TB600ATGFS","3MXX6RQ9EVRTFC527Z18RDK8KW6P4R","","80.20000004768372","img/flower6.png","74","80.89999997615814","1","1","2","2","1,0,0,1,1,0,1,0,1","1,0,0,1,1,0,1,0,1","1",""
"","html-keyboard-response","25","25845","0.0-25.0","39LOEL67OTRPD8LBC6ZGK5T0P3O381","A1H5TB600ATGFS","3MXX6RQ9EVRTFC527Z18RDK8KW6P4R","","null","<img src=""img/flower6.png"" style=""width:200px; border:14px solid green;"">","null","","","","","","","","",""
"","image-keyboard-response","26","25921","0.0-26.0","39LOEL67OTRPD8LBC6ZGK5T0P3O381","A1H5TB600ATGFS","3MXX6RQ9EVRTFC527Z18RDK8KW6P4R","","74.5","img/flower5.png","74","75.20000004768372","1","1","3","2","1,0,0,1,1,0,1,0,1","1,0,0,1,1,0,1,0,1","1",""
"","html-keyboard-response","27","26234","0.0-27.0","39LOEL67OTRPD8LBC6ZGK5T0P3O381","A1H5TB600ATGFS","3MXX6RQ9EVRTFC527Z18RDK8KW6P4R","","null","<img src=""img/flower5.png"" style=""width:200px; border:14px solid green;"">","null","","","","","","","","",""
"","image-keyboard-response","28","26313","0.0-28.0","39LOEL67OTRPD8LBC6ZGK5T0P3O381","A1H5TB600ATGFS","3MXX6RQ9EVRTFC527Z18RDK8KW6P4R","","78.40000009536743","img/flower2.png","74","79.10000002384186","1","1","1","2","1,0,0,1,1,0,1,0,1","1,0,0,1,1,0,1,0,1","1",""
"","html-keyboard-response","29","26625","0.0-29.0","39LOEL67OTRPD8LBC6ZGK5T0P3O381","A1H5TB600ATGFS","3MXX6RQ9EVRTFC527Z18RDK8KW6P4R","","null","<img src=""img/flower2.png"" style=""width:200px; border:14px solid green;"">","null","","","","","","","","",""
"","image-keyboard-response","30","26687","0.0-30.0","39LOEL67OTRPD8LBC6ZGK5T0P3O381","A1H5TB600ATGFS","3MXX6RQ9EVRTFC527Z18RDK8KW6P4R","","60.799999952316284","img/flower6.png","74","61.60000002384186","1","1","2","2","1,0,0,1,1,0,1,0,1","1,0,0,1,1,0,1,0,1","1",""
"","html-keyboard-response","31","26993","0.0-31.0","39LOEL67OTRPD8LBC6ZGK5T0P3O381","A1H5TB600ATGFS","3MXX6RQ9EVRTFC527Z18RDK8KW6P4R","","null","<img src=""img/flower6.png"" style=""width:200px; border:14px solid green;"">","null","","","","","","","","",""
"","image-keyboard-response","32","27057","0.0-32.0","39LOEL67OTRPD8LBC6ZGK5T0P3O381","A1H5TB600ATGFS","3MXX6RQ9EVRTFC527Z18RDK8KW6P4R","","62.800000071525574","img/flower6.png","74","63.39999997615814","1","1","2","2","1,0,0,1,1,0,1,0,1","1,0,0,1,1,0,1,0,1","1",""
"","html-keyboard-response","33","27366","0.0-33.0","39LOEL67OTRPD8LBC6ZGK5T0P3O381","A1H5TB600ATGFS","3MXX6RQ9EVRTFC527Z18RDK8KW6P4R","","null","<img src=""img/flower6.png"" style=""width:200px; border:14px solid green;"">","null","","","","","","","","",""
"","image-keyboard-response","34","27426","0.0-34.0","39LOEL67OTRPD8LBC6ZGK5T0P3O381","A1H5TB600ATGFS","3MXX6RQ9EVRTFC527Z18RDK8KW6P4R","","59.5","img/flower2.png","74","60.200000047683716","1","1","1","2","1,0,0,1,1,0,1,0,1","1,0,0,1,1,0,1,0,1","1",""
"","html-keyboard-response","35","27737","0.0-35.0","39LOEL67OTRPD8LBC6ZGK5T0P3O381","A1H5TB600ATGFS","3MXX6RQ9EVRTFC527Z18RDK8KW6P4R","","null","<img src=""img/flower2.png"" style=""width:200px; border:14px solid green;"">","null","","","","","","","","",""
"","image-keyboard-response","36","27786","0.0-36.0","39LOEL67OTRPD8LBC6ZGK5T0P3O381","A1H5TB600ATGFS","3MXX6RQ9EVRTFC527Z18RDK8KW6P4R","","47.39999997615814","img/flower6.png","74","48.299999952316284","1","1","2","2","1,0,0,1,1,0,1,0,1","1,0,0,1,1,0,1,0,1","1",""
"","html-keyboard-response","37","28097","0.0-37.0","39LOEL67OTRPD8LBC6ZGK5T0P3O381","A1H5TB600ATGFS","3MXX6RQ9EVRTFC527Z18RDK8KW6P4R","","null","<img src=""img/flower6.png"" style=""width:200px; border:14px solid green;"">","null","","","","","","","","",""
"","image-keyboard-response","38","28144","0.0-38.0","39LOEL67OTRPD8LBC6ZGK5T0P3O381","A1H5TB600ATGFS","3MXX6RQ9EVRTFC527Z18RDK8KW6P4R","","46.10000002384186","img/flower2.png","74","47.09999990463257","1","1","1","2","1,0,0,1,1,0,1,0,1","1,0,0,1,1,0,1,0,1","1",""
"","html-keyboard-response","39","28458","0.0-39.0","39LOEL67OTRPD8LBC6ZGK5T0P3O381","A1H5TB600ATGFS","3MXX6RQ9EVRTFC527Z18RDK8KW6P4R","","null","<img src=""img/flower2.png"" style=""width:200px; border:14px solid green;"">","null","","","","","","","","",""
"","image-keyboard-response","40","28545","0.0-40.0","39LOEL67OTRPD8LBC6ZGK5T0P3O381","A1H5TB600ATGFS","3MXX6RQ9EVRTFC527Z18RDK8KW6P4R","","86.10000002384186","img/flower2.png","74","87.39999997615814","1","1","1","2","1,0,0,1,1,0,1,0,1","1,0,0,1,1,0,1,0,1","1",""
"","html-keyboard-response","41","28857","0.0-41.0","39LOEL67OTRPD8LBC6ZGK5T0P3O381","A1H5TB600ATGFS","3MXX6RQ9EVRTFC527Z18RDK8KW6P4R","","null","<img src=""img/flower2.png"" style=""width:200px; border:14px solid green;"">","null","","","","","","","","",""
"","image-keyboard-response","42","28942","0.0-42.0","39LOEL67OTRPD8LBC6ZGK5T0P3O381","A1H5TB600ATGFS","3MXX6RQ9EVRTFC527Z18RDK8KW6P4R","","83.5","img/flower2.png","74","85","1","1","1","2","1,0,0,1,1,0,1,0,1","1,0,0,1,1,0,1,0,1","1",""
"","html-keyboard-response","43","29250","0.0-43.0","39LOEL67OTRPD8LBC6ZGK5T0P3O381","A1H5TB600ATGFS","3MXX6RQ9EVRTFC527Z18RDK8KW6P4R","","null","<img src=""img/flower2.png"" style=""width:200px; border:14px solid green;"">","null","","","","","","","","",""
"","image-keyboard-response","44","29309","0.0-44.0","39LOEL67OTRPD8LBC6ZGK5T0P3O381","A1H5TB600ATGFS","3MXX6RQ9EVRTFC527Z18RDK8KW6P4R","","58.39999997615814","img/flower2.png","74","59.300000071525574","1","1","1","2","1,0,0,1,1,0,1,0,1","1,0,0,1,1,0,1,0,1","1",""
"","html-keyboard-response","45","29616","0.0-45.0","39LOEL67OTRPD8LBC6ZGK5T0P3O381","A1H5TB600ATGFS","3MXX6RQ9EVRTFC527Z18RDK8KW6P4R","","null","<img src=""img/flower2.png"" style=""width:200px; border:14px solid green;"">","null","","","","","","","","",""
"","image-keyboard-response","46","29689","0.0-46.0","39LOEL67OTRPD8LBC6ZGK5T0P3O381","A1H5TB600ATGFS","3MXX6RQ9EVRTFC527Z18RDK8KW6P4R","","72.30000007152557","img/flower5.png","74","73.20000004768372","1","1","3","2","1,0,0,1,1,0,1,0,1","1,0,0,1,1,0,1,0,1","1",""
"","html-keyboard-response","47","30000","0.0-47.0","39LOEL67OTRPD8LBC6ZGK5T0P3O381","A1H5TB600ATGFS","3MXX6RQ9EVRTFC527Z18RDK8KW6P4R","","null","<img src=""img/flower5.png"" style=""width:200px; border:14px solid green;"">","null","","","","","","","","",""
"","image-keyboard-response","48","30073","0.0-48.0","39LOEL67OTRPD8LBC6ZGK5T0P3O381","A1H5TB600ATGFS","3MXX6RQ9EVRTFC527Z18RDK8KW6P4R","","72.10000002384186","img/flower2.png","74","72.90000009536743","1","1","1","2","1,0,0,1,1,0,1,0,1","1,0,0,1,1,0,1,0,1","1",""
"","html-keyboard-response","49","30381","0.0-49.0","39LOEL67OTRPD8LBC6ZGK5T0P3O381","A1H5TB600ATGFS","3MXX6RQ9EVRTFC527Z18RDK8KW6P4R","","null","<img src=""img/flower2.png"" style=""width:200px; border:14px solid green;"">","null","","","","","","","","",""
"","image-keyboard-response","50","30484","0.0-50.0","39LOEL67OTRPD8LBC6ZGK5T0P3O381","A1H5TB600ATGFS","3MXX6RQ9EVRTFC527Z18RDK8KW6P4R","","102.5","img/flower5.png","74","103.10000002384186","1","1","3","2","1,0,0,1,1,0,1,0,1","1,0,0,1,1,0,1,0,1","1",""
"","html-keyboard-response","51","30793","0.0-51.0","39LOEL67OTRPD8LBC6ZGK5T0P3O381","A1H5TB600ATGFS","3MXX6RQ9EVRTFC527Z18RDK8KW6P4R","","null","<img src=""img/flower5.png"" style=""width:200px; border:14px solid green;"">","null","","","","","","","","",""
"","image-keyboard-response","52","30867","0.0-52.0","39LOEL67OTRPD8LBC6ZGK5T0P3O381","A1H5TB600ATGFS","3MXX6RQ9EVRTFC527Z18RDK8KW6P4R","","72.39999997615814","img/flower2.png","74","73.19999992847443","1","1","1","2","1,0,0,1,1,0,1,0,1","1,0,0,1,1,0,1,0,1","1",""
"","html-keyboard-response","53","31174","0.0-53.0","39LOEL67OTRPD8LBC6ZGK5T0P3O381","A1H5TB600ATGFS","3MXX6RQ9EVRTFC527Z18RDK8KW6P4R","","null","<img src=""img/flower2.png"" style=""width:200px; border:14px solid green;"">","null","","","","","","","","",""
"","image-keyboard-response","54","31223","0.0-54.0","39LOEL67OTRPD8LBC6ZGK5T0P3O381","A1H5TB600ATGFS","3MXX6RQ9EVRTFC527Z18RDK8KW6P4R","","48.10000002384186","img/flower5.png","74","48.800000071525574","1","1","3","2","1,0,0,1,1,0,1,0,1","1,0,0,1,1,0,1,0,1","1",""
"","html-keyboard-response","55","31536","0.0-55.0","39LOEL67OTRPD8LBC6ZGK5T0P3O381","A1H5TB600ATGFS","3MXX6RQ9EVRTFC527Z18RDK8KW6P4R","","null","<img src=""img/flower5.png"" style=""width:200px; border:14px solid green;"">","null","","","","","","","","",""
"","image-keyboard-response","56","31623","0.0-56.0","39LOEL67OTRPD8LBC6ZGK5T0P3O381","A1H5TB600ATGFS","3MXX6RQ9EVRTFC527Z18RDK8KW6P4R","","85.5","img/flower5.png","74","86.39999997615814","1","1","3","2","1,0,0,1,1,0,1,0,1","1,0,0,1,1,0,1,0,1","1",""
"","html-keyboard-response","57","31929","0.0-57.0","39LOEL67OTRPD8LBC6ZGK5T0P3O381","A1H5TB600ATGFS","3MXX6RQ9EVRTFC527Z18RDK8KW6P4R","","null","<img src=""img/flower5.png"" style=""width:200px; border:14px solid green;"">","null","","","","","","","","",""
"","image-keyboard-response","58","32014","0.0-58.0","39LOEL67OTRPD8LBC6ZGK5T0P3O381","A1H5TB600ATGFS","3MXX6RQ9EVRTFC527Z18RDK8KW6P4R","","84.20000004768372","img/flower5.png","74","84.79999995231628","1","1","3","2","1,0,0,1,1,0,1,0,1","1,0,0,1,1,0,1,0,1","1",""
"","html-keyboard-response","59","32317","0.0-59.0","39LOEL67OTRPD8LBC6ZGK5T0P3O381","A1H5TB600ATGFS","3MXX6RQ9EVRTFC527Z18RDK8KW6P4R","","null","<img src=""img/flower5.png"" style=""width:200px; border:14px solid green;"">","null","","","","","","","","",""
"","image-keyboard-response","60","32415","0.0-60.0","39LOEL67OTRPD8LBC6ZGK5T0P3O381","A1H5TB600ATGFS","3MXX6RQ9EVRTFC527Z18RDK8KW6P4R","","96.89999997615814","img/flower5.png","74","97.59999990463257","1","1","3","2","1,0,0,1,1,0,1,0,1","1,0,0,1,1,0,1,0,1","1",""
"","html-keyboard-response","61","32724","0.0-61.0","39LOEL67OTRPD8LBC6ZGK5T0P3O381","A1H5TB600ATGFS","3MXX6RQ9EVRTFC527Z18RDK8KW6P4R","","null","<img src=""img/flower5.png"" style=""width:200px; border:14px solid green;"">","null","","","","","","","","",""
"","image-keyboard-response","62","32777","0.0-62.0","39LOEL67OTRPD8LBC6ZGK5T0P3O381","A1H5TB600ATGFS","3MXX6RQ9EVRTFC527Z18RDK8KW6P4R","","51.89999997615814","img/flower2.png","74","52.700000047683716","1","1","1","2","1,0,0,1,1,0,1,0,1","1,0,0,1,1,0,1,0,1","1",""
"","html-keyboard-response","63","33085","0.0-63.0","39LOEL67OTRPD8LBC6ZGK5T0P3O381","A1H5TB600ATGFS","3MXX6RQ9EVRTFC527Z18RDK8KW6P4R","","null","<img src=""img/flower2.png"" style=""width:200px; border:14px solid green;"">","null","","","","","","","","",""
"","image-keyboard-response","64","33164","0.0-64.0","39LOEL67OTRPD8LBC6ZGK5T0P3O381","A1H5TB600ATGFS","3MXX6RQ9EVRTFC527Z18RDK8KW6P4R","","77.60000002384186","img/flower5.png","74","78.5","1","1","3","2","1,0,0,1,1,0,1,0,1","1,0,0,1,1,0,1,0,1","1",""
"","html-keyboard-response","65","33469","0.0-65.0","39LOEL67OTRPD8LBC6ZGK5T0P3O381","A1H5TB600ATGFS","3MXX6RQ9EVRTFC527Z18RDK8KW6P4R","","null","<img src=""img/flower5.png"" style=""width:200px; border:14px solid green;"">","null","","","","","","","","",""
"","image-keyboard-response","66","33567","0.0-66.0","39LOEL67OTRPD8LBC6ZGK5T0P3O381","A1H5TB600ATGFS","3MXX6RQ9EVRTFC527Z18RDK8KW6P4R","","97","img/flower2.png","74","97.79999995231628","1","1","1","2","1,0,0,1,1,0,1,0,1","1,0,0,1,1,0,1,0,1","1",""
"","html-keyboard-response","67","33873","0.0-67.0","39LOEL67OTRPD8LBC6ZGK5T0P3O381","A1H5TB600ATGFS","3MXX6RQ9EVRTFC527Z18RDK8KW6P4R","","null","<img src=""img/flower2.png"" style=""width:200px; border:14px solid green;"">","null","","","","","","","","",""
"","image-keyboard-response","68","33950","0.0-68.0","39LOEL67OTRPD8LBC6ZGK5T0P3O381","A1H5TB600ATGFS","3MXX6RQ9EVRTFC527Z18RDK8KW6P4R","","76","img/flower6.png","74","76.79999995231628","1","1","2","2","1,0,0,1,1,0,1,0,1","1,0,0,1,1,0,1,0,1","1",""
"","html-keyboard-response","69","34256","0.0-69.0","39LOEL67OTRPD8LBC6ZGK5T0P3O381","A1H5TB600ATGFS","3MXX6RQ9EVRTFC527Z18RDK8KW6P4R","","null","<img src=""img/flower6.png"" style=""width:200px; border:14px solid green;"">","null","","","","","","","","",""
"","image-keyboard-response","70","34311","0.0-70.0","39LOEL67OTRPD8LBC6ZGK5T0P3O381","A1H5TB600ATGFS","3MXX6RQ9EVRTFC527Z18RDK8KW6P4R","","54.200000047683716","img/flower6.png","74","55","1","1","2","2","1,0,0,1,1,0,1,0,1","1,0,0,1,1,0,1,0,1","1",""
"","html-keyboard-response","71","34624","0.0-71.0","39LOEL67OTRPD8LBC6ZGK5T0P3O381","A1H5TB600ATGFS","3MXX6RQ9EVRTFC527Z18RDK8KW6P4R","","null","<img src=""img/flower6.png"" style=""width:200px; border:14px solid green;"">","null","","","","","","","","",""
"","image-keyboard-response","72","34681","0.0-72.0","39LOEL67OTRPD8LBC6ZGK5T0P3O381","A1H5TB600ATGFS","3MXX6RQ9EVRTFC527Z18RDK8KW6P4R","","56.200000047683716","img/flower2.png","74","57","1","1","1","2","1,0,0,1,1,0,1,0,1","1,0,0,1,1,0,1,0,1","1",""
"","html-keyboard-response","73","34993","0.0-73.0","39LOEL67OTRPD8LBC6ZGK5T0P3O381","A1H5TB600ATGFS","3MXX6RQ9EVRTFC527Z18RDK8KW6P4R","","null","<img src=""img/flower2.png"" style=""width:200px; border:14px solid green;"">","null","","","","","","","","",""
"","image-keyboard-response","74","35053","0.0-74.0","39LOEL67OTRPD8LBC6ZGK5T0P3O381","A1H5TB600ATGFS","3MXX6RQ9EVRTFC527Z18RDK8KW6P4R","","58.60000002384186","img/flower6.png","74","59.299999952316284","1","1","2","2","1,0,0,1,1,0,1,0,1","1,0,0,1,1,0,1,0,1","1",""
"","html-keyboard-response","75","35360","0.0-75.0","39LOEL67OTRPD8LBC6ZGK5T0P3O381","A1H5TB600ATGFS","3MXX6RQ9EVRTFC527Z18RDK8KW6P4R","","null","<img src=""img/flower6.png"" style=""width:200px; border:14px solid green;"">","null","","","","","","","","",""
"","image-keyboard-response","76","35413","0.0-76.0","39LOEL67OTRPD8LBC6ZGK5T0P3O381","A1H5TB600ATGFS","3MXX6RQ9EVRTFC527Z18RDK8KW6P4R","","52.200000047683716","img/flower5.png","74","53","1","1","3","2","1,0,0,1,1,0,1,0,1","1,0,0,1,1,0,1,0,1","1",""
"","html-keyboard-response","77","35721","0.0-77.0","39LOEL67OTRPD8LBC6ZGK5T0P3O381","A1H5TB600ATGFS","3MXX6RQ9EVRTFC527Z18RDK8KW6P4R","","null","<img src=""img/flower5.png"" style=""width:200px; border:14px solid green;"">","null","","","","","","","","",""
"","image-keyboard-response","78","35800","0.0-78.0","39LOEL67OTRPD8LBC6ZGK5T0P3O381","A1H5TB600ATGFS","3MXX6RQ9EVRTFC527Z18RDK8KW6P4R","","77.89999997615814","img/flower2.png","74","78.70000004768372","1","1","1","2","1,0,0,1,1,0,1,0,1","1,0,0,1,1,0,1,0,1","1",""
"","html-keyboard-response","79","36113","0.0-79.0","39LOEL67OTRPD8LBC6ZGK5T0P3O381","A1H5TB600ATGFS","3MXX6RQ9EVRTFC527Z18RDK8KW6P4R","","null","<img src=""img/flower2.png"" style=""width:200px; border:14px solid green;"">","null","","","","","","","","",""
"","image-keyboard-response","80","36161","0.0-80.0","39LOEL67OTRPD8LBC6ZGK5T0P3O381","A1H5TB600ATGFS","3MXX6RQ9EVRTFC527Z18RDK8KW6P4R","","47.800000071525574","img/flower5.png","74","48.5","1","1","3","2","1,0,0,1,1,0,1,0,1","1,0,0,1,1,0,1,0,1","1",""
"","html-keyboard-response","81","36471","0.0-81.0","39LOEL67OTRPD8LBC6ZGK5T0P3O381","A1H5TB600ATGFS","3MXX6RQ9EVRTFC527Z18RDK8KW6P4R","","null","<img src=""img/flower5.png"" style=""width:200px; border:14px solid green;"">","null","","","","","","","","",""
"","image-keyboard-response","82","36497","0.0-82.0","39LOEL67OTRPD8LBC6ZGK5T0P3O381","A1H5TB600ATGFS","3MXX6RQ9EVRTFC527Z18RDK8KW6P4R","","24.59999990463257","img/flower6.png","74","25.399999976158142","1","1","2","2","1,0,0,1,1,0,1,0,1","1,0,0,1,1,0,1,0,1","1",""
"","html-keyboard-response","83","36805","0.0-83.0","39LOEL67OTRPD8LBC6ZGK5T0P3O381","A1H5TB600ATGFS","3MXX6RQ9EVRTFC527Z18RDK8KW6P4R","","null","<img src=""img/flower6.png"" style=""width:200px; border:14px solid green;"">","null","","","","","","","","",""
"","image-keyboard-response","84","36842","0.0-84.0","39LOEL67OTRPD8LBC6ZGK5T0P3O381","A1H5TB600ATGFS","3MXX6RQ9EVRTFC527Z18RDK8KW6P4R","","35.59999990463257","img/flower2.png","74","36.299999952316284","1","1","1","2","1,0,0,1,1,0,1,0,1","1,0,0,1,1,0,1,0,1","1",""
"","html-keyboard-response","85","37152","0.0-85.0","39LOEL67OTRPD8LBC6ZGK5T0P3O381","A1H5TB600ATGFS","3MXX6RQ9EVRTFC527Z18RDK8KW6P4R","","null","<img src=""img/flower2.png"" style=""width:200px; border:14px solid green;"">","null","","","","","","","","",""
"","image-keyboard-response","86","37249","0.0-86.0","39LOEL67OTRPD8LBC6ZGK5T0P3O381","A1H5TB600ATGFS","3MXX6RQ9EVRTFC527Z18RDK8KW6P4R","","96.10000002384186","img/flower2.png","74","96.89999997615814","1","1","1","2","1,0,0,1,1,0,1,0,1","1,0,0,1,1,0,1,0,1","1",""
"","html-keyboard-response","87","37557","0.0-87.0","39LOEL67OTRPD8LBC6ZGK5T0P3O381","A1H5TB600ATGFS","3MXX6RQ9EVRTFC527Z18RDK8KW6P4R","","null","<img src=""img/flower2.png"" style=""width:200px; border:14px solid green;"">","null","","","","","","","","",""
"","image-keyboard-response","88","37590","0.0-88.0","39LOEL67OTRPD8LBC6ZGK5T0P3O381","A1H5TB600ATGFS","3MXX6RQ9EVRTFC527Z18RDK8KW6P4R","","32.10000002384186","img/flower5.png","74","32.800000071525574","1","1","3","2","1,0,0,1,1,0,1,0,1","1,0,0,1,1,0,1,0,1","1",""
"","html-keyboard-response","89","37897","0.0-89.0","39LOEL67OTRPD8LBC6ZGK5T0P3O381","A1H5TB600ATGFS","3MXX6RQ9EVRTFC527Z18RDK8KW6P4R","","null","<img src=""img/flower5.png"" style=""width:200px; border:14px solid green;"">","null","","","","","","","","",""
"","image-keyboard-response","90","37919","0.0-90.0","39LOEL67OTRPD8LBC6ZGK5T0P3O381","A1H5TB600ATGFS","3MXX6RQ9EVRTFC527Z18RDK8KW6P4R","","20.199999928474426","img/flower2.png","74","21","1","1","1","2","1,0,0,1,1,0,1,0,1","1,0,0,1,1,0,1,0,1","1",""
"","html-keyboard-response","91","38226","0.0-91.0","39LOEL67OTRPD8LBC6ZGK5T0P3O381","A1H5TB600ATGFS","3MXX6RQ9EVRTFC527Z18RDK8KW6P4R","","null","<img src=""img/flower2.png"" style=""width:200px; border:14px solid green;"">","null","","","","","","","","",""
"","image-keyboard-response","92","38272","0.0-92.0","39LOEL67OTRPD8LBC6ZGK5T0P3O381","A1H5TB600ATGFS","3MXX6RQ9EVRTFC527Z18RDK8KW6P4R","","45","img/flower6.png","74","45.800000071525574","1","1","2","2","1,0,0,1,1,0,1,0,1","1,0,0,1,1,0,1,0,1","1",""
"","html-keyboard-response","93","38581","0.0-93.0","39LOEL67OTRPD8LBC6ZGK5T0P3O381","A1H5TB600ATGFS","3MXX6RQ9EVRTFC527Z18RDK8KW6P4R","","null","<img src=""img/flower6.png"" style=""width:200px; border:14px solid green;"">","null","","","","","","","","",""
"","image-keyboard-response","94","38644","0.0-94.0","39LOEL67OTRPD8LBC6ZGK5T0P3O381","A1H5TB600ATGFS","3MXX6RQ9EVRTFC527Z18RDK8KW6P4R","","62","img/flower2.png","74","62.799999952316284","1","1","1","2","1,0,0,1,1,0,1,0,1","1,0,0,1,1,0,1,0,1","1",""
"","html-keyboard-response","95","38953","0.0-95.0","39LOEL67OTRPD8LBC6ZGK5T0P3O381","A1H5TB600ATGFS","3MXX6RQ9EVRTFC527Z18RDK8KW6P4R","","null","<img src=""img/flower2.png"" style=""width:200px; border:14px solid green;"">","null","","","","","","","","",""
"","image-keyboard-response","96","39059","0.0-96.0","39LOEL67OTRPD8LBC6ZGK5T0P3O381","A1H5TB600ATGFS","3MXX6RQ9EVRTFC527Z18RDK8KW6P4R","","105.10000002384186","img/flower2.png","74","106","1","1","1","2","1,0,0,1,1,0,1,0,1","1,0,0,1,1,0,1,0,1","1",""
"","html-keyboard-response","97","39365","0.0-97.0","39LOEL67OTRPD8LBC6ZGK5T0P3O381","A1H5TB600ATGFS","3MXX6RQ9EVRTFC527Z18RDK8KW6P4R","","null","<img src=""img/flower2.png"" style=""width:200px; border:14px solid green;"">","null","","","","","","","","",""
"","image-keyboard-response","98","39515","0.0-98.0","39LOEL67OTRPD8LBC6ZGK5T0P3O381","A1H5TB600ATGFS","3MXX6RQ9EVRTFC527Z18RDK8KW6P4R","","149.29999995231628","img/flower6.png","74","150.19999992847443","1","1","2","2","1,0,0,1,1,0,1,0,1","1,0,0,1,1,0,1,0,1","1",""
"","html-keyboard-response","99","39825","0.0-99.0","39LOEL67OTRPD8LBC6ZGK5T0P3O381","A1H5TB600ATGFS","3MXX6RQ9EVRTFC527Z18RDK8KW6P4R","","null","<img src=""img/flower6.png"" style=""width:200px; border:14px solid green;"">","null","","","","","","","","",""
"","image-keyboard-response","100","40015","0.0-100.0","39LOEL67OTRPD8LBC6ZGK5T0P3O381","A1H5TB600ATGFS","3MXX6RQ9EVRTFC527Z18RDK8KW6P4R","","189.40000009536743","img/flower2.png","74","190.20000004768372","1","1","1","2","1,0,0,1,1,0,1,0,1","1,0,0,1,1,0,1,0,1","1",""
"","html-keyboard-response","101","40330","0.0-101.0","39LOEL67OTRPD8LBC6ZGK5T0P3O381","A1H5TB600ATGFS","3MXX6RQ9EVRTFC527Z18RDK8KW6P4R","","null","<img src=""img/flower2.png"" style=""width:200px; border:14px solid green;"">","null","","","","","","","","",""
"","image-keyboard-response","102","40332","0.0-102.0","39LOEL67OTRPD8LBC6ZGK5T0P3O381","A1H5TB600ATGFS","3MXX6RQ9EVRTFC527Z18RDK8KW6P4R","","1.5","img/flower2.png","74","2.299999952316284","1","1","1","2","1,0,0,1,1,0,1,0,1","1,0,0,1,1,0,1,0,1","1",""
"","html-keyboard-response","103","40640","0.0-103.0","39LOEL67OTRPD8LBC6ZGK5T0P3O381","A1H5TB600ATGFS","3MXX6RQ9EVRTFC527Z18RDK8KW6P4R","","null","<img src=""img/flower2.png"" style=""width:200px; border:14px solid green;"">","null","","","","","","","","",""
"","image-keyboard-response","104","40652","0.0-104.0","39LOEL67OTRPD8LBC6ZGK5T0P3O381","A1H5TB600ATGFS","3MXX6RQ9EVRTFC527Z18RDK8KW6P4R","","11.600000023841858","img/flower6.png","74","12.200000047683716","1","1","2","2","1,0,0,1,1,0,1,0,1","1,0,0,1,1,0,1,0,1","1",""
"","html-keyboard-response","105","40959","0.0-105.0","39LOEL67OTRPD8LBC6ZGK5T0P3O381","A1H5TB600ATGFS","3MXX6RQ9EVRTFC527Z18RDK8KW6P4R","","null","<img src=""img/flower6.png"" style=""width:200px; border:14px solid green;"">","null","","","","","","","","",""
"","image-keyboard-response","106","40965","0.0-106.0","39LOEL67OTRPD8LBC6ZGK5T0P3O381","A1H5TB600ATGFS","3MXX6RQ9EVRTFC527Z18RDK8KW6P4R","","5","img/flower5.png","74","5.699999928474426","1","1","3","2","1,0,0,1,1,0,1,0,1","1,0,0,1,1,0,1,0,1","1",""
"","html-keyboard-response","107","41271","0.0-107.0","39LOEL67OTRPD8LBC6ZGK5T0P3O381","A1H5TB600ATGFS","3MXX6RQ9EVRTFC527Z18RDK8KW6P4R","","null","<img src=""img/flower5.png"" style=""width:200px; border:14px solid green;"">","null","","","","","","","","",""
"","image-keyboard-response","108","41281","0.0-108.0","39LOEL67OTRPD8LBC6ZGK5T0P3O381","A1H5TB600ATGFS","3MXX6RQ9EVRTFC527Z18RDK8KW6P4R","","9.100000023841858","img/flower2.png","74","9.899999976158142","1","1","1","2","1,0,0,1,1,0,1,0,1","1,0,0,1,1,0,1,0,1","1",""
"","html-keyboard-response","109","41589","0.0-109.0","39LOEL67OTRPD8LBC6ZGK5T0P3O381","A1H5TB600ATGFS","3MXX6RQ9EVRTFC527Z18RDK8KW6P4R","","null","<img src=""img/flower2.png"" style=""width:200px; border:14px solid green;"">","null","","","","","","","","",""
"","image-keyboard-response","110","41622","0.0-110.0","39LOEL67OTRPD8LBC6ZGK5T0P3O381","A1H5TB600ATGFS","3MXX6RQ9EVRTFC527Z18RDK8KW6P4R","","32.5","img/flower6.png","74","33.299999952316284","1","1","2","2","1,0,0,1,1,0,1,0,1","1,0,0,1,1,0,1,0,1","1",""
"","html-keyboard-response","111","41929","0.0-111.0","39LOEL67OTRPD8LBC6ZGK5T0P3O381","A1H5TB600ATGFS","3MXX6RQ9EVRTFC527Z18RDK8KW6P4R","","null","<img src=""img/flower6.png"" style=""width:200px; border:14px solid green;"">","null","","","","","","","","",""
"","image-keyboard-response","112","42216","0.0-112.0","39LOEL67OTRPD8LBC6ZGK5T0P3O381","A1H5TB600ATGFS","3MXX6RQ9EVRTFC527Z18RDK8KW6P4R","","286","img/flower6.png","74","286.89999997615814","1","1","2","2","1,0,0,1,1,0,1,0,1","1,0,0,1,1,0,1,0,1","1",""
"","html-keyboard-response","113","42528","0.0-113.0","39LOEL67OTRPD8LBC6ZGK5T0P3O381","A1H5TB600ATGFS","3MXX6RQ9EVRTFC527Z18RDK8KW6P4R","","null","<img src=""img/flower6.png"" style=""width:200px; border:14px solid green;"">","null","","","","","","","","",""
"","image-keyboard-response","114","42609","0.0-114.0","39LOEL67OTRPD8LBC6ZGK5T0P3O381","A1H5TB600ATGFS","3MXX6RQ9EVRTFC527Z18RDK8KW6P4R","","80.60000002384186","img/flower5.png","74","81.30000007152557","1","1","3","2","1,0,0,1,1,0,1,0,1","1,0,0,1,1,0,1,0,1","1",""
"","html-keyboard-response","115","42922","0.0-115.0","39LOEL67OTRPD8LBC6ZGK5T0P3O381","A1H5TB600ATGFS","3MXX6RQ9EVRTFC527Z18RDK8KW6P4R","","null","<img src=""img/flower5.png"" style=""width:200px; border:14px solid green;"">","null","","","","","","","","",""
"","image-keyboard-response","116","43014","0.0-116.0","39LOEL67OTRPD8LBC6ZGK5T0P3O381","A1H5TB600ATGFS","3MXX6RQ9EVRTFC527Z18RDK8KW6P4R","","91.5","img/flower6.png","74","92.20000004768372","1","1","2","2","1,0,0,1,1,0,1,0,1","1,0,0,1,1,0,1,0,1","1",""
"","html-keyboard-response","117","43317","0.0-117.0","39LOEL67OTRPD8LBC6ZGK5T0P3O381","A1H5TB600ATGFS","3MXX6RQ9EVRTFC527Z18RDK8KW6P4R","","null","<img src=""img/flower6.png"" style=""width:200px; border:14px solid green;"">","null","","","","","","","","",""
"","image-keyboard-response","118","43357","0.0-118.0","39LOEL67OTRPD8LBC6ZGK5T0P3O381","A1H5TB600ATGFS","3MXX6RQ9EVRTFC527Z18RDK8KW6P4R","","39.60000002384186","img/flower5.png","74","40.39999997615814","1","1","3","2","1,0,0,1,1,0,1,0,1","1,0,0,1,1,0,1,0,1","1",""
"","html-keyboard-response","119","43664","0.0-119.0","39LOEL67OTRPD8LBC6ZGK5T0P3O381","A1H5TB600ATGFS","3MXX6RQ9EVRTFC527Z18RDK8KW6P4R","","null","<img src=""img/flower5.png"" style=""width:200px; border:14px solid green;"">","null","","","","","","","","",""
"","image-keyboard-response","120","43718","0.0-120.0","39LOEL67OTRPD8LBC6ZGK5T0P3O381","A1H5TB600ATGFS","3MXX6RQ9EVRTFC527Z18RDK8KW6P4R","","52.60000002384186","img/flower6.png","74","53.59999990463257","1","1","2","2","1,0,0,1,1,0,1,0,1","1,0,0,1,1,0,1,0,1","1",""
"","html-keyboard-response","121","44025","0.0-121.0","39LOEL67OTRPD8LBC6ZGK5T0P3O381","A1H5TB600ATGFS","3MXX6RQ9EVRTFC527Z18RDK8KW6P4R","","null","<img src=""img/flower6.png"" style=""width:200px; border:14px solid green;"">","null","","","","","","","","",""
"","image-keyboard-response","122","44117","0.0-122.0","39LOEL67OTRPD8LBC6ZGK5T0P3O381","A1H5TB600ATGFS","3MXX6RQ9EVRTFC527Z18RDK8KW6P4R","","90.5","img/flower2.png","74","91.5","1","1","1","2","1,0,0,1,1,0,1,0,1","1,0,0,1,1,0,1,0,1","1",""
"","html-keyboard-response","123","44426","0.0-123.0","39LOEL67OTRPD8LBC6ZGK5T0P3O381","A1H5TB600ATGFS","3MXX6RQ9EVRTFC527Z18RDK8KW6P4R","","null","<img src=""img/flower2.png"" style=""width:200px; border:14px solid green;"">","null","","","","","","","","",""
"","image-keyboard-response","124","44486","0.0-124.0","39LOEL67OTRPD8LBC6ZGK5T0P3O381","A1H5TB600ATGFS","3MXX6RQ9EVRTFC527Z18RDK8KW6P4R","","59.700000047683716","img/flower2.png","74","60.5","1","1","1","2","1,0,0,1,1,0,1,0,1","1,0,0,1,1,0,1,0,1","1",""
"","html-keyboard-response","125","44789","0.0-125.0","39LOEL67OTRPD8LBC6ZGK5T0P3O381","A1H5TB600ATGFS","3MXX6RQ9EVRTFC527Z18RDK8KW6P4R","","null","<img src=""img/flower2.png"" style=""width:200px; border:14px solid green;"">","null","","","","","","","","",""
"","image-keyboard-response","126","44843","0.0-126.0","39LOEL67OTRPD8LBC6ZGK5T0P3O381","A1H5TB600ATGFS","3MXX6RQ9EVRTFC527Z18RDK8KW6P4R","","52.90000009536743","img/flower5.png","74","53.800000071525574","1","1","3","2","1,0,0,1,1,0,1,0,1","1,0,0,1,1,0,1,0,1","1",""
"","html-keyboard-response","127","45149","0.0-127.0","39LOEL67OTRPD8LBC6ZGK5T0P3O381","A1H5TB600ATGFS","3MXX6RQ9EVRTFC527Z18RDK8KW6P4R","","null","<img src=""img/flower5.png"" style=""width:200px; border:14px solid green;"">","null","","","","","","","","",""
"","image-keyboard-response","128","45229","0.0-128.0","39LOEL67OTRPD8LBC6ZGK5T0P3O381","A1H5TB600ATGFS","3MXX6RQ9EVRTFC527Z18RDK8KW6P4R","","79.10000002384186","img/flower2.png","74","80","1","1","1","2","1,0,0,1,1,0,1,0,1","1,0,0,1,1,0,1,0,1","1",""
"","html-keyboard-response","129","45536","0.0-129.0","39LOEL67OTRPD8LBC6ZGK5T0P3O381","A1H5TB600ATGFS","3MXX6RQ9EVRTFC527Z18RDK8KW6P4R","","null","<img src=""img/flower2.png"" style=""width:200px; border:14px solid green;"">","null","","","","","","","","",""
"","image-keyboard-response","130","45615","0.0-130.0","39LOEL67OTRPD8LBC6ZGK5T0P3O381","A1H5TB600ATGFS","3MXX6RQ9EVRTFC527Z18RDK8KW6P4R","","77.80000007152557","img/flower6.png","74","78.79999995231628","1","1","2","2","1,0,0,1,1,0,1,0,1","1,0,0,1,1,0,1,0,1","1",""
"","html-keyboard-response","131","45925","0.0-131.0","39LOEL67OTRPD8LBC6ZGK5T0P3O381","A1H5TB600ATGFS","3MXX6RQ9EVRTFC527Z18RDK8KW6P4R","","null","<img src=""img/flower6.png"" style=""width:200px; border:14px solid green;"">","null","","","","","","","","",""
"","image-keyboard-response","132","45979","0.0-132.0","39LOEL67OTRPD8LBC6ZGK5T0P3O381","A1H5TB600ATGFS","3MXX6RQ9EVRTFC527Z18RDK8KW6P4R","","53","img/flower5.png","74","53.699999928474426","1","1","3","2","1,0,0,1,1,0,1,0,1","1,0,0,1,1,0,1,0,1","1",""
"","html-keyboard-response","133","46287","0.0-133.0","39LOEL67OTRPD8LBC6ZGK5T0P3O381","A1H5TB600ATGFS","3MXX6RQ9EVRTFC527Z18RDK8KW6P4R","","null","<img src=""img/flower5.png"" style=""width:200px; border:14px solid green;"">","null","","","","","","","","",""
"","image-keyboard-response","134","46318","0.0-134.0","39LOEL67OTRPD8LBC6ZGK5T0P3O381","A1H5TB600ATGFS","3MXX6RQ9EVRTFC527Z18RDK8KW6P4R","","29.300000071525574","img/flower5.png","74","30.200000047683716","1","1","3","2","1,0,0,1,1,0,1,0,1","1,0,0,1,1,0,1,0,1","1",""
"","html-keyboard-response","135","46625","0.0-135.0","39LOEL67OTRPD8LBC6ZGK5T0P3O381","A1H5TB600ATGFS","3MXX6RQ9EVRTFC527Z18RDK8KW6P4R","","null","<img src=""img/flower5.png"" style=""width:200px; border:14px solid green;"">","null","","","","","","","","",""
"","image-keyboard-response","136","46643","0.0-136.0","39LOEL67OTRPD8LBC6ZGK5T0P3O381","A1H5TB600ATGFS","3MXX6RQ9EVRTFC527Z18RDK8KW6P4R","","16.40000009536743","img/flower5.png","74","17.299999952316284","1","1","3","2","1,0,0,1,1,0,1,0,1","1,0,0,1,1,0,1,0,1","1",""
"","html-keyboard-response","137","46949","0.0-137.0","39LOEL67OTRPD8LBC6ZGK5T0P3O381","A1H5TB600ATGFS","3MXX6RQ9EVRTFC527Z18RDK8KW6P4R","","null","<img src=""img/flower5.png"" style=""width:200px; border:14px solid green;"">","null","","","","","","","","",""
"","image-keyboard-response","138","46976","0.0-138.0","39LOEL67OTRPD8LBC6ZGK5T0P3O381","A1H5TB600ATGFS","3MXX6RQ9EVRTFC527Z18RDK8KW6P4R","","25.700000047683716","img/flower2.png","74","26.5","1","1","1","2","1,0,0,1,1,0,1,0,1","1,0,0,1,1,0,1,0,1","1",""
"","html-keyboard-response","139","47285","0.0-139.0","39LOEL67OTRPD8LBC6ZGK5T0P3O381","A1H5TB600ATGFS","3MXX6RQ9EVRTFC527Z18RDK8KW6P4R","","null","<img src=""img/flower2.png"" style=""width:200px; border:14px solid green;"">","null","","","","","","","","",""
"","image-keyboard-response","140","47290","0.0-140.0","39LOEL67OTRPD8LBC6ZGK5T0P3O381","A1H5TB600ATGFS","3MXX6RQ9EVRTFC527Z18RDK8KW6P4R","","3.899999976158142","img/flower2.png","74","5.699999928474426","1","1","1","2","1,0,0,1,1,0,1,0,1","1,0,0,1,1,0,1,0,1","1",""
"","html-keyboard-response","141","47601","0.0-141.0","39LOEL67OTRPD8LBC6ZGK5T0P3O381","A1H5TB600ATGFS","3MXX6RQ9EVRTFC527Z18RDK8KW6P4R","","null","<img src=""img/flower2.png"" style=""width:200px; border:14px solid green;"">","null","","","","","","","","",""
"","image-keyboard-response","142","47652","0.0-142.0","39LOEL67OTRPD8LBC6ZGK5T0P3O381","A1H5TB600ATGFS","3MXX6RQ9EVRTFC527Z18RDK8KW6P4R","","49.200000047683716","img/flower6.png","74","50","1","1","2","2","1,0,0,1,1,0,1,0,1","1,0,0,1,1,0,1,0,1","1",""
"","html-keyboard-response","143","47959","0.0-143.0","39LOEL67OTRPD8LBC6ZGK5T0P3O381","A1H5TB600ATGFS","3MXX6RQ9EVRTFC527Z18RDK8KW6P4R","","null","<img src=""img/flower6.png"" style=""width:200px; border:14px solid green;"">","null","","","","","","","","",""
"","image-keyboard-response","144","47960","0.0-144.0","39LOEL67OTRPD8LBC6ZGK5T0P3O381","A1H5TB600ATGFS","3MXX6RQ9EVRTFC527Z18RDK8KW6P4R","","0.20000004768371582","img/flower5.png","74","1","1","1","3","2","1,0,0,1,1,0,1,0,1","1,0,0,1,1,0,1,0,1","1",""
"","html-keyboard-response","145","48273","0.0-145.0","39LOEL67OTRPD8LBC6ZGK5T0P3O381","A1H5TB600ATGFS","3MXX6RQ9EVRTFC527Z18RDK8KW6P4R","","null","<img src=""img/flower5.png"" style=""width:200px; border:14px solid green;"">","null","","","","","","","","",""
"","image-keyboard-response","146","48280","0.0-146.0","39LOEL67OTRPD8LBC6ZGK5T0P3O381","A1H5TB600ATGFS","3MXX6RQ9EVRTFC527Z18RDK8KW6P4R","","5.600000023841858","img/flower5.png","74","6.400000095367432","1","1","3","2","1,0,0,1,1,0,1,0,1","1,0,0,1,1,0,1,0,1","1",""
"","html-keyboard-response","147","48591","0.0-147.0","39LOEL67OTRPD8LBC6ZGK5T0P3O381","A1H5TB600ATGFS","3MXX6RQ9EVRTFC527Z18RDK8KW6P4R","","null","<img src=""img/flower5.png"" style=""width:200px; border:14px solid green;"">","null","","","","","","","","",""
"","image-keyboard-response","148","48604","0.0-148.0","39LOEL67OTRPD8LBC6ZGK5T0P3O381","A1H5TB600ATGFS","3MXX6RQ9EVRTFC527Z18RDK8KW6P4R","","12.299999952316284","img/flower6.png","74","12.900000095367432","1","1","2","2","1,0,0,1,1,0,1,0,1","1,0,0,1,1,0,1,0,1","1",""
"","html-keyboard-response","149","48911","0.0-149.0","39LOEL67OTRPD8LBC6ZGK5T0P3O381","A1H5TB600ATGFS","3MXX6RQ9EVRTFC527Z18RDK8KW6P4R","","null","<img src=""img/flower6.png"" style=""width:200px; border:14px solid green;"">","null","","","","","","","","",""
"","image-keyboard-response","150","48929","0.0-150.0","39LOEL67OTRPD8LBC6ZGK5T0P3O381","A1H5TB600ATGFS","3MXX6RQ9EVRTFC527Z18RDK8KW6P4R","","17.09999990463257","img/flower5.png","74","17.800000071525574","1","1","3","2","1,0,0,1,1,0,1,0,1","1,0,0,1,1,0,1,0,1","1",""
"","html-keyboard-response","151","49237","0.0-151.0","39LOEL67OTRPD8LBC6ZGK5T0P3O381","A1H5TB600ATGFS","3MXX6RQ9EVRTFC527Z18RDK8KW6P4R","","null","<img src=""img/flower5.png"" style=""width:200px; border:14px solid green;"">","null","","","","","","","","",""
"","image-keyboard-response","152","49274","0.0-152.0","39LOEL67OTRPD8LBC6ZGK5T0P3O381","A1H5TB600ATGFS","3MXX6RQ9EVRTFC527Z18RDK8KW6P4R","","36.5","img/flower2.png","74","37.40000009536743","1","1","1","2","1,0,0,1,1,0,1,0,1","1,0,0,1,1,0,1,0,1","1",""
"","html-keyboard-response","153","49584","0.0-153.0","39LOEL67OTRPD8LBC6ZGK5T0P3O381","A1H5TB600ATGFS","3MXX6RQ9EVRTFC527Z18RDK8KW6P4R","","null","<img src=""img/flower2.png"" style=""width:200px; border:14px solid green;"">","null","","","","","","","","",""
"","image-keyboard-response","154","49589","0.0-154.0","39LOEL67OTRPD8LBC6ZGK5T0P3O381","A1H5TB600ATGFS","3MXX6RQ9EVRTFC527Z18RDK8KW6P4R","","4.699999928474426","img/flower6.png","74","5.399999976158142","1","1","2","2","1,0,0,1,1,0,1,0,1","1,0,0,1,1,0,1,0,1","1",""
"","html-keyboard-response","155","49893","0.0-155.0","39LOEL67OTRPD8LBC6ZGK5T0P3O381","A1H5TB600ATGFS","3MXX6RQ9EVRTFC527Z18RDK8KW6P4R","","null","<img src=""img/flower6.png"" style=""width:200px; border:14px solid green;"">","null","","","","","","","","",""
"","image-keyboard-response","156","49911","0.0-156.0","39LOEL67OTRPD8LBC6ZGK5T0P3O381","A1H5TB600ATGFS","3MXX6RQ9EVRTFC527Z18RDK8KW6P4R","","17.899999976158142","img/flower6.png","74","18.600000023841858","1","1","2","2","1,0,0,1,1,0,1,0,1","1,0,0,1,1,0,1,0,1","1",""
"","html-keyboard-response","157","50223","0.0-157.0","39LOEL67OTRPD8LBC6ZGK5T0P3O381","A1H5TB600ATGFS","3MXX6RQ9EVRTFC527Z18RDK8KW6P4R","","null","<img src=""img/flower6.png"" style=""width:200px; border:14px solid green;"">","null","","","","","","","","",""
"","image-keyboard-response","158","50490","0.0-158.0","39LOEL67OTRPD8LBC6ZGK5T0P3O381","A1H5TB600ATGFS","3MXX6RQ9EVRTFC527Z18RDK8KW6P4R","","265.2000000476837","img/flower2.png","74","265.89999997615814","1","1","1","2","1,0,0,1,1,0,1,0,1","1,0,0,1,1,0,1,0,1","1",""
"","html-keyboard-response","159","50801","0.0-159.0","39LOEL67OTRPD8LBC6ZGK5T0P3O381","A1H5TB600ATGFS","3MXX6RQ9EVRTFC527Z18RDK8KW6P4R","","null","<img src=""img/flower2.png"" style=""width:200px; border:14px solid green;"">","null","","","","","","","","",""
"","image-keyboard-response","160","50806","0.0-160.0","39LOEL67OTRPD8LBC6ZGK5T0P3O381","A1H5TB600ATGFS","3MXX6RQ9EVRTFC527Z18RDK8KW6P4R","","3.100000023841858","img/flower5.png","74","4.100000023841858","1","1","3","2","1,0,0,1,1,0,1,0,1","1,0,0,1,1,0,1,0,1","1",""
"","html-keyboard-response","161","51110","0.0-161.0","39LOEL67OTRPD8LBC6ZGK5T0P3O381","A1H5TB600ATGFS","3MXX6RQ9EVRTFC527Z18RDK8KW6P4R","","null","<img src=""img/flower5.png"" style=""width:200px; border:14px solid green;"">","null","","","","","","","","",""
"","image-keyboard-response","162","51192","0.0-162.0","39LOEL67OTRPD8LBC6ZGK5T0P3O381","A1H5TB600ATGFS","3MXX6RQ9EVRTFC527Z18RDK8KW6P4R","","81.39999997615814","img/flower5.png","74","82.10000002384186","1","1","3","2","1,0,0,1,1,0,1,0,1","1,0,0,1,1,0,1,0,1","1",""
"","html-keyboard-response","163","51501","0.0-163.0","39LOEL67OTRPD8LBC6ZGK5T0P3O381","A1H5TB600ATGFS","3MXX6RQ9EVRTFC527Z18RDK8KW6P4R","","null","<img src=""img/flower5.png"" style=""width:200px; border:14px solid green;"">","null","","","","","","","","",""
"","image-keyboard-response","164","51569","0.0-164.0","39LOEL67OTRPD8LBC6ZGK5T0P3O381","A1H5TB600ATGFS","3MXX6RQ9EVRTFC527Z18RDK8KW6P4R","","67.59999990463257","img/flower6.png","74","68.29999995231628","1","1","2","2","1,0,0,1,1,0,1,0,1","1,0,0,1,1,0,1,0,1","1",""
"","html-keyboard-response","165","51881","0.0-165.0","39LOEL67OTRPD8LBC6ZGK5T0P3O381","A1H5TB600ATGFS","3MXX6RQ9EVRTFC527Z18RDK8KW6P4R","","null","<img src=""img/flower6.png"" style=""width:200px; border:14px solid green;"">","null","","","","","","","","",""
"","image-keyboard-response","166","51904","0.0-166.0","39LOEL67OTRPD8LBC6ZGK5T0P3O381","A1H5TB600ATGFS","3MXX6RQ9EVRTFC527Z18RDK8KW6P4R","","22.799999952316284","img/flower6.png","74","23.600000023841858","1","1","2","2","1,0,0,1,1,0,1,0,1","1,0,0,1,1,0,1,0,1","1",""
"","html-keyboard-response","167","52213","0.0-167.0","39LOEL67OTRPD8LBC6ZGK5T0P3O381","A1H5TB600ATGFS","3MXX6RQ9EVRTFC527Z18RDK8KW6P4R","","null","<img src=""img/flower6.png"" style=""width:200px; border:14px solid green;"">","null","","","","","","","","",""
"","image-keyboard-response","168","52227","0.0-168.0","39LOEL67OTRPD8LBC6ZGK5T0P3O381","A1H5TB600ATGFS","3MXX6RQ9EVRTFC527Z18RDK8KW6P4R","","13.799999952316284","img/flower6.png","74","14.5","1","1","2","2","1,0,0,1,1,0,1,0,1","1,0,0,1,1,0,1,0,1","1",""
"","html-keyboard-response","169","52533","0.0-169.0","39LOEL67OTRPD8LBC6ZGK5T0P3O381","A1H5TB600ATGFS","3MXX6RQ9EVRTFC527Z18RDK8KW6P4R","","null","<img src=""img/flower6.png"" style=""width:200px; border:14px solid green;"">","null","","","","","","","","",""
"","image-keyboard-response","170","52589","0.0-170.0","39LOEL67OTRPD8LBC6ZGK5T0P3O381","A1H5TB600ATGFS","3MXX6RQ9EVRTFC527Z18RDK8KW6P4R","","55.60000002384186","img/flower2.png","74","56.39999997615814","1","1","1","2","1,0,0,1,1,0,1,0,1","1,0,0,1,1,0,1,0,1","1",""
"","html-keyboard-response","171","52893","0.0-171.0","39LOEL67OTRPD8LBC6ZGK5T0P3O381","A1H5TB600ATGFS","3MXX6RQ9EVRTFC527Z18RDK8KW6P4R","","null","<img src=""img/flower2.png"" style=""width:200px; border:14px solid green;"">","null","","","","","","","","",""
"","image-keyboard-response","172","53155","0.0-172.0","39LOEL67OTRPD8LBC6ZGK5T0P3O381","A1H5TB600ATGFS","3MXX6RQ9EVRTFC527Z18RDK8KW6P4R","","261.39999997615814","img/flower5.png","74","262.1999999284744","1","1","3","2","1,0,0,1,1,0,1,0,1","1,0,0,1,1,0,1,0,1","1",""
"","html-keyboard-response","173","53463","0.0-173.0","39LOEL67OTRPD8LBC6ZGK5T0P3O381","A1H5TB600ATGFS","3MXX6RQ9EVRTFC527Z18RDK8KW6P4R","","null","<img src=""img/flower5.png"" style=""width:200px; border:14px solid green;"">","null","","","","","","","","",""
"","image-keyboard-response","174","53741","0.0-174.0","39LOEL67OTRPD8LBC6ZGK5T0P3O381","A1H5TB600ATGFS","3MXX6RQ9EVRTFC527Z18RDK8KW6P4R","","277","img/flower6.png","74","277.7000000476837","1","1","2","2","1,0,0,1,1,0,1,0,1","1,0,0,1,1,0,1,0,1","1",""
"","html-keyboard-response","175","54046","0.0-175.0","39LOEL67OTRPD8LBC6ZGK5T0P3O381","A1H5TB600ATGFS","3MXX6RQ9EVRTFC527Z18RDK8KW6P4R","","null","<img src=""img/flower6.png"" style=""width:200px; border:14px solid green;"">","null","","","","","","","","",""
"","image-keyboard-response","176","54326","0.0-176.0","39LOEL67OTRPD8LBC6ZGK5T0P3O381","A1H5TB600ATGFS","3MXX6RQ9EVRTFC527Z18RDK8KW6P4R","","279.09999990463257","img/flower2.png","74","279.7999999523163","1","1","1","2","1,0,0,1,1,0,1,0,1","1,0,0,1,1,0,1,0,1","1",""
"","html-keyboard-response","177","54630","0.0-177.0","39LOEL67OTRPD8LBC6ZGK5T0P3O381","A1H5TB600ATGFS","3MXX6RQ9EVRTFC527Z18RDK8KW6P4R","","null","<img src=""img/flower2.png"" style=""width:200px; border:14px solid green;"">","null","","","","","","","","",""
"","image-keyboard-response","178","55025","0.0-178.0","39LOEL67OTRPD8LBC6ZGK5T0P3O381","A1H5TB600ATGFS","3MXX6RQ9EVRTFC527Z18RDK8KW6P4R","","393.60000002384186","img/flower6.png","74","394.3000000715256","1","1","2","2","1,0,0,1,1,0,1,0,1","1,0,0,1,1,0,1,0,1","1",""
"","html-keyboard-response","179","55337","0.0-179.0","39LOEL67OTRPD8LBC6ZGK5T0P3O381","A1H5TB600ATGFS","3MXX6RQ9EVRTFC527Z18RDK8KW6P4R","","null","<img src=""img/flower6.png"" style=""width:200px; border:14px solid green;"">","null","","","","","","","","",""
"","image-keyboard-response","180","55569","0.0-180.0","39LOEL67OTRPD8LBC6ZGK5T0P3O381","A1H5TB600ATGFS","3MXX6RQ9EVRTFC527Z18RDK8KW6P4R","","231","img/flower6.png","74","232","1","1","2","2","1,0,0,1,1,0,1,0,1","1,0,0,1,1,0,1,0,1","1",""
"","html-keyboard-response","181","55880","0.0-181.0","39LOEL67OTRPD8LBC6ZGK5T0P3O381","A1H5TB600ATGFS","3MXX6RQ9EVRTFC527Z18RDK8KW6P4R","","null","<img src=""img/flower6.png"" style=""width:200px; border:14px solid green;"">","null","","","","","","","","",""
"","image-keyboard-response","182","56079","0.0-182.0","39LOEL67OTRPD8LBC6ZGK5T0P3O381","A1H5TB600ATGFS","3MXX6RQ9EVRTFC527Z18RDK8KW6P4R","","197.29999995231628","img/flower3.png","74","198.30000007152557","1","1","3","1","1,0.333,0.333,0.333,1,0.333,0.333,0.333,1","1,0.333,0.333,0.333,1,0.333,0.333,0.333,1","1",""
"","html-keyboard-response","183","56390","0.0-183.0","39LOEL67OTRPD8LBC6ZGK5T0P3O381","A1H5TB600ATGFS","3MXX6RQ9EVRTFC527Z18RDK8KW6P4R","","null","<img src=""img/flower3.png"" style=""width:200px; border:14px solid green;"">","null","","","","","","","","",""
"","image-keyboard-response","184","56582","0.0-184.0","39LOEL67OTRPD8LBC6ZGK5T0P3O381","A1H5TB600ATGFS","3MXX6RQ9EVRTFC527Z18RDK8KW6P4R","","191.10000002384186","img/flower3.png","74","191.90000009536743","1","0","3","1","1,0.333,0.333,0.333,1,0.333,0.333,0.333,1","1,0.333,0.333,0.333,1,0.333,0.333,0.333,1","1",""
"","html-keyboard-response","185","56884","0.0-185.0","39LOEL67OTRPD8LBC6ZGK5T0P3O381","A1H5TB600ATGFS","3MXX6RQ9EVRTFC527Z18RDK8KW6P4R","","null","<img src=""img/flower3.png"" style=""width:200px;border:14px solid red;"">","null","","","","","","","","",""
"","image-keyboard-response","186","57064","0.0-186.0","39LOEL67OTRPD8LBC6ZGK5T0P3O381","A1H5TB600ATGFS","3MXX6RQ9EVRTFC527Z18RDK8KW6P4R","","179.20000004768372","img/flower4.png","74","179.90000009536743","1","1","1","1","1,0.333,0.333,0.333,1,0.333,0.333,0.333,1","1,0.333,0.333,0.333,1,0.333,0.333,0.333,1","1",""
"","html-keyboard-response","187","57376","0.0-187.0","39LOEL67OTRPD8LBC6ZGK5T0P3O381","A1H5TB600ATGFS","3MXX6RQ9EVRTFC527Z18RDK8KW6P4R","","null","<img src=""img/flower4.png"" style=""width:200px; border:14px solid green;"">","null","","","","","","","","",""
"","image-keyboard-response","188","57746","0.0-188.0","39LOEL67OTRPD8LBC6ZGK5T0P3O381","A1H5TB600ATGFS","3MXX6RQ9EVRTFC527Z18RDK8KW6P4R","","368.39999997615814","img/flower1.png","74","369.2999999523163","1","0","2","1","1,0.333,0.333,0.333,1,0.333,0.333,0.333,1","1,0.333,0.333,0.333,1,0.333,0.333,0.333,1","1",""
"","html-keyboard-response","189","58052","0.0-189.0","39LOEL67OTRPD8LBC6ZGK5T0P3O381","A1H5TB600ATGFS","3MXX6RQ9EVRTFC527Z18RDK8KW6P4R","","null","<img src=""img/flower1.png"" style=""width:200px;border:14px solid red;"">","null","","","","","","","","",""
"","image-keyboard-response","190","58419","0.0-190.0","39LOEL67OTRPD8LBC6ZGK5T0P3O381","A1H5TB600ATGFS","3MXX6RQ9EVRTFC527Z18RDK8KW6P4R","","366.2000000476837","img/flower4.png","76","367","3","0","1","1","1,0.333,0.333,0.333,1,0.333,0.333,0.333,1","1,0.333,0.333,0.333,1,0.333,0.333,0.333,1","1",""
"","html-keyboard-response","191","58724","0.0-191.0","39LOEL67OTRPD8LBC6ZGK5T0P3O381","A1H5TB600ATGFS","3MXX6RQ9EVRTFC527Z18RDK8KW6P4R","","null","<img src=""img/flower4.png"" style=""width:200px;border:14px solid red;"">","null","","","","","","","","",""
"","image-keyboard-response","192","58817","0.0-192.0","39LOEL67OTRPD8LBC6ZGK5T0P3O381","A1H5TB600ATGFS","3MXX6RQ9EVRTFC527Z18RDK8KW6P4R","","91.19999992847443","img/flower3.png","75","92","2","1","3","1","1,0.333,0.333,0.333,1,0.333,0.333,0.333,1","1,0.333,0.333,0.333,1,0.333,0.333,0.333,1","1",""
"","html-keyboard-response","193","59129","0.0-193.0","39LOEL67OTRPD8LBC6ZGK5T0P3O381","A1H5TB600ATGFS","3MXX6RQ9EVRTFC527Z18RDK8KW6P4R","","null","<img src=""img/flower3.png"" style=""width:200px; border:14px solid green;"">","null","","","","","","","","",""
"","image-keyboard-response","194","59297","0.0-194.0","39LOEL67OTRPD8LBC6ZGK5T0P3O381","A1H5TB600ATGFS","3MXX6RQ9EVRTFC527Z18RDK8KW6P4R","","166.5","img/flower4.png","75","167.20000004768372","2","1","1","1","1,0.333,0.333,0.333,1,0.333,0.333,0.333,1","1,0.333,0.333,0.333,1,0.333,0.333,0.333,1","1",""
"","html-keyboard-response","195","59608","0.0-195.0","39LOEL67OTRPD8LBC6ZGK5T0P3O381","A1H5TB600ATGFS","3MXX6RQ9EVRTFC527Z18RDK8KW6P4R","","null","<img src=""img/flower4.png"" style=""width:200px; border:14px solid green;"">","null","","","","","","","","",""
"","image-keyboard-response","196","59770","0.0-196.0","39LOEL67OTRPD8LBC6ZGK5T0P3O381","A1H5TB600ATGFS","3MXX6RQ9EVRTFC527Z18RDK8KW6P4R","","160.70000004768372","img/flower4.png","75","161.5","2","0","1","1","1,0.333,0.333,0.333,1,0.333,0.333,0.333,1","1,0.333,0.333,0.333,1,0.333,0.333,0.333,1","1",""
"","html-keyboard-response","197","60078","0.0-197.0","39LOEL67OTRPD8LBC6ZGK5T0P3O381","A1H5TB600ATGFS","3MXX6RQ9EVRTFC527Z18RDK8KW6P4R","","null","<img src=""img/flower4.png"" style=""width:200px;border:14px solid red;"">","null","","","","","","","","",""
"","image-keyboard-response","198","60269","0.0-198.0","39LOEL67OTRPD8LBC6ZGK5T0P3O381","A1H5TB600ATGFS","3MXX6RQ9EVRTFC527Z18RDK8KW6P4R","","190.89999997615814","img/flower3.png","74","191.60000002384186","1","0","3","1","1,0.333,0.333,0.333,1,0.333,0.333,0.333,1","1,0.333,0.333,0.333,1,0.333,0.333,0.333,1","1",""
"","html-keyboard-response","199","60577","0.0-199.0","39LOEL67OTRPD8LBC6ZGK5T0P3O381","A1H5TB600ATGFS","3MXX6RQ9EVRTFC527Z18RDK8KW6P4R","","null","<img src=""img/flower3.png"" style=""width:200px;border:14px solid red;"">","null","","","","","","","","",""
"","image-keyboard-response","200","60671","0.0-200.0","39LOEL67OTRPD8LBC6ZGK5T0P3O381","A1H5TB600ATGFS","3MXX6RQ9EVRTFC527Z18RDK8KW6P4R","","92.69999992847443","img/flower3.png","75","93.60000002384186","2","0","3","1","1,0.333,0.333,0.333,1,0.333,0.333,0.333,1","1,0.333,0.333,0.333,1,0.333,0.333,0.333,1","1",""
"","html-keyboard-response","201","60985","0.0-201.0","39LOEL67OTRPD8LBC6ZGK5T0P3O381","A1H5TB600ATGFS","3MXX6RQ9EVRTFC527Z18RDK8KW6P4R","","null","<img src=""img/flower3.png"" style=""width:200px;border:14px solid red;"">","null","","","","","","","","",""
"","image-keyboard-response","202","61166","0.0-202.0","39LOEL67OTRPD8LBC6ZGK5T0P3O381","A1H5TB600ATGFS","3MXX6RQ9EVRTFC527Z18RDK8KW6P4R","","180.79999995231628","img/flower3.png","76","181.5","3","1","3","1","1,0.333,0.333,0.333,1,0.333,0.333,0.333,1","1,0.333,0.333,0.333,1,0.333,0.333,0.333,1","1",""
"","html-keyboard-response","203","61476","0.0-203.0","39LOEL67OTRPD8LBC6ZGK5T0P3O381","A1H5TB600ATGFS","3MXX6RQ9EVRTFC527Z18RDK8KW6P4R","","null","<img src=""img/flower3.png"" style=""width:200px; border:14px solid green;"">","null","","","","","","","","",""
"","image-keyboard-response","204","61612","0.0-204.0","39LOEL67OTRPD8LBC6ZGK5T0P3O381","A1H5TB600ATGFS","3MXX6RQ9EVRTFC527Z18RDK8KW6P4R","","134.89999997615814","img/flower3.png","76","135.5","3","1","3","1","1,0.333,0.333,0.333,1,0.333,0.333,0.333,1","1,0.333,0.333,0.333,1,0.333,0.333,0.333,1","1",""
"","html-keyboard-response","205","61916","0.0-205.0","39LOEL67OTRPD8LBC6ZGK5T0P3O381","A1H5TB600ATGFS","3MXX6RQ9EVRTFC527Z18RDK8KW6P4R","","null","<img src=""img/flower3.png"" style=""width:200px; border:14px solid green;"">","null","","","","","","","","",""
"","image-keyboard-response","206","62087","0.0-206.0","39LOEL67OTRPD8LBC6ZGK5T0P3O381","A1H5TB600ATGFS","3MXX6RQ9EVRTFC527Z18RDK8KW6P4R","","169.79999995231628","img/flower1.png","76","170.60000002384186","3","0","2","1","1,0.333,0.333,0.333,1,0.333,0.333,0.333,1","1,0.333,0.333,0.333,1,0.333,0.333,0.333,1","1",""
"","html-keyboard-response","207","62400","0.0-207.0","39LOEL67OTRPD8LBC6ZGK5T0P3O381","A1H5TB600ATGFS","3MXX6RQ9EVRTFC527Z18RDK8KW6P4R","","null","<img src=""img/flower1.png"" style=""width:200px;border:14px solid red;"">","null","","","","","","","","",""
"","image-keyboard-response","208","62583","0.0-208.0","39LOEL67OTRPD8LBC6ZGK5T0P3O381","A1H5TB600ATGFS","3MXX6RQ9EVRTFC527Z18RDK8KW6P4R","","181.79999995231628","img/flower4.png","75","182.70000004768372","2","0","1","1","1,0.333,0.333,0.333,1,0.333,0.333,0.333,1","1,0.333,0.333,0.333,1,0.333,0.333,0.333,1","1",""
"","html-keyboard-response","209","62894","0.0-209.0","39LOEL67OTRPD8LBC6ZGK5T0P3O381","A1H5TB600ATGFS","3MXX6RQ9EVRTFC527Z18RDK8KW6P4R","","null","<img src=""img/flower4.png"" style=""width:200px;border:14px solid red;"">","null","","","","","","","","",""
"","image-keyboard-response","210","62973","0.0-210.0","39LOEL67OTRPD8LBC6ZGK5T0P3O381","A1H5TB600ATGFS","3MXX6RQ9EVRTFC527Z18RDK8KW6P4R","","78.30000007152557","img/flower3.png","74","79.20000004768372","1","0","3","1","1,0.333,0.333,0.333,1,0.333,0.333,0.333,1","1,0.333,0.333,0.333,1,0.333,0.333,0.333,1","1",""
"","html-keyboard-response","211","63277","0.0-211.0","39LOEL67OTRPD8LBC6ZGK5T0P3O381","A1H5TB600ATGFS","3MXX6RQ9EVRTFC527Z18RDK8KW6P4R","","null","<img src=""img/flower3.png"" style=""width:200px;border:14px solid red;"">","null","","","","","","","","",""
"","image-keyboard-response","212","63373","0.0-212.0","39LOEL67OTRPD8LBC6ZGK5T0P3O381","A1H5TB600ATGFS","3MXX6RQ9EVRTFC527Z18RDK8KW6P4R","","94.69999992847443","img/flower4.png","76","95.5","3","1","1","1","1,0.333,0.333,0.333,1,0.333,0.333,0.333,1","1,0.333,0.333,0.333,1,0.333,0.333,0.333,1","1",""
"","html-keyboard-response","213","63678","0.0-213.0","39LOEL67OTRPD8LBC6ZGK5T0P3O381","A1H5TB600ATGFS","3MXX6RQ9EVRTFC527Z18RDK8KW6P4R","","null","<img src=""img/flower4.png"" style=""width:200px; border:14px solid green;"">","null","","","","","","","","",""
"","image-keyboard-response","214","64068","0.0-214.0","39LOEL67OTRPD8LBC6ZGK5T0P3O381","A1H5TB600ATGFS","3MXX6RQ9EVRTFC527Z18RDK8KW6P4R","","389.39999997615814","img/flower3.png","76","390.2000000476837","3","1","3","1","1,0.333,0.333,0.333,1,0.333,0.333,0.333,1","1,0.333,0.333,0.333,1,0.333,0.333,0.333,1","1",""
"","html-keyboard-response","215","64374","0.0-215.0","39LOEL67OTRPD8LBC6ZGK5T0P3O381","A1H5TB600ATGFS","3MXX6RQ9EVRTFC527Z18RDK8KW6P4R","","null","<img src=""img/flower3.png"" style=""width:200px; border:14px solid green;"">","null","","","","","","","","",""
"","image-keyboard-response","216","64636","0.0-216.0","39LOEL67OTRPD8LBC6ZGK5T0P3O381","A1H5TB600ATGFS","3MXX6RQ9EVRTFC527Z18RDK8KW6P4R","","260.60000002384186","img/flower3.png","76","261.6999999284744","3","1","3","1","1,0.333,0.333,0.333,1,0.333,0.333,0.333,1","1,0.333,0.333,0.333,1,0.333,0.333,0.333,1","1",""
"","html-keyboard-response","217","64943","0.0-217.0","39LOEL67OTRPD8LBC6ZGK5T0P3O381","A1H5TB600ATGFS","3MXX6RQ9EVRTFC527Z18RDK8KW6P4R","","null","<img src=""img/flower3.png"" style=""width:200px; border:14px solid green;"">","null","","","","","","","","",""
"","image-keyboard-response","218","65105","0.0-218.0","39LOEL67OTRPD8LBC6ZGK5T0P3O381","A1H5TB600ATGFS","3MXX6RQ9EVRTFC527Z18RDK8KW6P4R","","161.19999992847443","img/flower4.png","76","161.89999997615814","3","0","1","1","1,0.333,0.333,0.333,1,0.333,0.333,0.333,1","1,0.333,0.333,0.333,1,0.333,0.333,0.333,1","1",""
"","html-keyboard-response","219","65417","0.0-219.0","39LOEL67OTRPD8LBC6ZGK5T0P3O381","A1H5TB600ATGFS","3MXX6RQ9EVRTFC527Z18RDK8KW6P4R","","null","<img src=""img/flower4.png"" style=""width:200px;border:14px solid red;"">","null","","","","","","","","",""
"","image-keyboard-response","220","65609","0.0-220.0","39LOEL67OTRPD8LBC6ZGK5T0P3O381","A1H5TB600ATGFS","3MXX6RQ9EVRTFC527Z18RDK8KW6P4R","","191.39999997615814","img/flower1.png","75","192.20000004768372","2","1","2","1","1,0.333,0.333,0.333,1,0.333,0.333,0.333,1","1,0.333,0.333,0.333,1,0.333,0.333,0.333,1","1",""
"","html-keyboard-response","221","65920","0.0-221.0","39LOEL67OTRPD8LBC6ZGK5T0P3O381","A1H5TB600ATGFS","3MXX6RQ9EVRTFC527Z18RDK8KW6P4R","","null","<img src=""img/flower1.png"" style=""width:200px; border:14px solid green;"">","null","","","","","","","","",""
"","image-keyboard-response","222","66083","0.0-222.0","39LOEL67OTRPD8LBC6ZGK5T0P3O381","A1H5TB600ATGFS","3MXX6RQ9EVRTFC527Z18RDK8KW6P4R","","162.5","img/flower3.png","75","163.39999997615814","2","0","3","1","1,0.333,0.333,0.333,1,0.333,0.333,0.333,1","1,0.333,0.333,0.333,1,0.333,0.333,0.333,1","1",""
"","html-keyboard-response","223","66392","0.0-223.0","39LOEL67OTRPD8LBC6ZGK5T0P3O381","A1H5TB600ATGFS","3MXX6RQ9EVRTFC527Z18RDK8KW6P4R","","null","<img src=""img/flower3.png"" style=""width:200px;border:14px solid red;"">","null","","","","","","","","",""
"","image-keyboard-response","224","66597","0.0-224.0","39LOEL67OTRPD8LBC6ZGK5T0P3O381","A1H5TB600ATGFS","3MXX6RQ9EVRTFC527Z18RDK8KW6P4R","","204.10000002384186","img/flower4.png","76","205","3","1","1","1","1,0.333,0.333,0.333,1,0.333,0.333,0.333,1","1,0.333,0.333,0.333,1,0.333,0.333,0.333,1","1",""
"","html-keyboard-response","225","66904","0.0-225.0","39LOEL67OTRPD8LBC6ZGK5T0P3O381","A1H5TB600ATGFS","3MXX6RQ9EVRTFC527Z18RDK8KW6P4R","","null","<img src=""img/flower4.png"" style=""width:200px; border:14px solid green;"">","null","","","","","","","","",""
"","image-keyboard-response","226","67029","0.0-226.0","39LOEL67OTRPD8LBC6ZGK5T0P3O381","A1H5TB600ATGFS","3MXX6RQ9EVRTFC527Z18RDK8KW6P4R","","123.69999992847443","img/flower1.png","76","124.40000009536743","3","1","2","1","1,0.333,0.333,0.333,1,0.333,0.333,0.333,1","1,0.333,0.333,0.333,1,0.333,0.333,0.333,1","1",""
"","html-keyboard-response","227","67332","0.0-227.0","39LOEL67OTRPD8LBC6ZGK5T0P3O381","A1H5TB600ATGFS","3MXX6RQ9EVRTFC527Z18RDK8KW6P4R","","null","<img src=""img/flower1.png"" style=""width:200px; border:14px solid green;"">","null","","","","","","","","",""
"","image-keyboard-response","228","67507","0.0-228.0","39LOEL67OTRPD8LBC6ZGK5T0P3O381","A1H5TB600ATGFS","3MXX6RQ9EVRTFC527Z18RDK8KW6P4R","","173.79999995231628","img/flower4.png","76","174.60000002384186","3","0","1","1","1,0.333,0.333,0.333,1,0.333,0.333,0.333,1","1,0.333,0.333,0.333,1,0.333,0.333,0.333,1","1",""
"","html-keyboard-response","229","67812","0.0-229.0","39LOEL67OTRPD8LBC6ZGK5T0P3O381","A1H5TB600ATGFS","3MXX6RQ9EVRTFC527Z18RDK8KW6P4R","","null","<img src=""img/flower4.png"" style=""width:200px;border:14px solid red;"">","null","","","","","","","","",""
"","image-keyboard-response","230","67997","0.0-230.0","39LOEL67OTRPD8LBC6ZGK5T0P3O381","A1H5TB600ATGFS","3MXX6RQ9EVRTFC527Z18RDK8KW6P4R","","183.39999997615814","img/flower3.png","74","184.29999995231628","1","1","3","1","1,0.333,0.333,0.333,1,0.333,0.333,0.333,1","1,0.333,0.333,0.333,1,0.333,0.333,0.333,1","1",""
"","html-keyboard-response","231","68304","0.0-231.0","39LOEL67OTRPD8LBC6ZGK5T0P3O381","A1H5TB600ATGFS","3MXX6RQ9EVRTFC527Z18RDK8KW6P4R","","null","<img src=""img/flower3.png"" style=""width:200px; border:14px solid green;"">","null","","","","","","","","",""
"","image-keyboard-response","232","68387","0.0-232.0","39LOEL67OTRPD8LBC6ZGK5T0P3O381","A1H5TB600ATGFS","3MXX6RQ9EVRTFC527Z18RDK8KW6P4R","","82.19999992847443","img/flower4.png","76","83","3","1","1","1","1,0.333,0.333,0.333,1,0.333,0.333,0.333,1","1,0.333,0.333,0.333,1,0.333,0.333,0.333,1","1",""
"","html-keyboard-response","233","68694","0.0-233.0","39LOEL67OTRPD8LBC6ZGK5T0P3O381","A1H5TB600ATGFS","3MXX6RQ9EVRTFC527Z18RDK8KW6P4R","","null","<img src=""img/flower4.png"" style=""width:200px; border:14px solid green;"">","null","","","","","","","","",""
"","image-keyboard-response","234","68802","0.0-234.0","39LOEL67OTRPD8LBC6ZGK5T0P3O381","A1H5TB600ATGFS","3MXX6RQ9EVRTFC527Z18RDK8KW6P4R","","107.10000002384186","img/flower3.png","74","107.79999995231628","1","0","3","1","1,0.333,0.333,0.333,1,0.333,0.333,0.333,1","1,0.333,0.333,0.333,1,0.333,0.333,0.333,1","1",""
"","html-keyboard-response","235","69108","0.0-235.0","39LOEL67OTRPD8LBC6ZGK5T0P3O381","A1H5TB600ATGFS","3MXX6RQ9EVRTFC527Z18RDK8KW6P4R","","null","<img src=""img/flower3.png"" style=""width:200px;border:14px solid red;"">","null","","","","","","","","",""
"","image-keyboard-response","236","69398","0.0-236.0","39LOEL67OTRPD8LBC6ZGK5T0P3O381","A1H5TB600ATGFS","3MXX6RQ9EVRTFC527Z18RDK8KW6P4R","","288.8000000715256","img/flower1.png","75","289.5","2","1","2","1","1,0.333,0.333,0.333,1,0.333,0.333,0.333,1","1,0.333,0.333,0.333,1,0.333,0.333,0.333,1","1",""
"","html-keyboard-response","237","69700","0.0-237.0","39LOEL67OTRPD8LBC6ZGK5T0P3O381","A1H5TB600ATGFS","3MXX6RQ9EVRTFC527Z18RDK8KW6P4R","","null","<img src=""img/flower1.png"" style=""width:200px; border:14px solid green;"">","null","","","","","","","","",""
"","image-keyboard-response","238","69837","0.0-238.0","39LOEL67OTRPD8LBC6ZGK5T0P3O381","A1H5TB600ATGFS","3MXX6RQ9EVRTFC527Z18RDK8KW6P4R","","135.59999990463257","img/flower1.png","74","136.39999997615814","1","0","2","1","1,0.333,0.333,0.333,1,0.333,0.333,0.333,1","1,0.333,0.333,0.333,1,0.333,0.333,0.333,1","1",""
"","html-keyboard-response","239","70145","0.0-239.0","39LOEL67OTRPD8LBC6ZGK5T0P3O381","A1H5TB600ATGFS","3MXX6RQ9EVRTFC527Z18RDK8KW6P4R","","null","<img src=""img/flower1.png"" style=""width:200px;border:14px solid red;"">","null","","","","","","","","",""
"","image-keyboard-response","240","70462","0.0-240.0","39LOEL67OTRPD8LBC6ZGK5T0P3O381","A1H5TB600ATGFS","3MXX6RQ9EVRTFC527Z18RDK8KW6P4R","","316.89999997615814","img/flower3.png","75","317.6999999284744","2","1","3","1","1,0.333,0.333,0.333,1,0.333,0.333,0.333,1","1,0.333,0.333,0.333,1,0.333,0.333,0.333,1","1",""
"","html-keyboard-response","241","70772","0.0-241.0","39LOEL67OTRPD8LBC6ZGK5T0P3O381","A1H5TB600ATGFS","3MXX6RQ9EVRTFC527Z18RDK8KW6P4R","","null","<img src=""img/flower3.png"" style=""width:200px; border:14px solid green;"">","null","","","","","","","","",""
"","image-keyboard-response","242","70913","0.0-242.0","39LOEL67OTRPD8LBC6ZGK5T0P3O381","A1H5TB600ATGFS","3MXX6RQ9EVRTFC527Z18RDK8KW6P4R","","139.30000007152557","img/flower4.png","76","140.10000002384186","3","1","1","1","1,0.333,0.333,0.333,1,0.333,0.333,0.333,1","1,0.333,0.333,0.333,1,0.333,0.333,0.333,1","1",""
"","html-keyboard-response","243","71221","0.0-243.0","39LOEL67OTRPD8LBC6ZGK5T0P3O381","A1H5TB600ATGFS","3MXX6RQ9EVRTFC527Z18RDK8KW6P4R","","null","<img src=""img/flower4.png"" style=""width:200px; border:14px solid green;"">","null","","","","","","","","",""
"","image-keyboard-response","244","71626","0.0-244.0","39LOEL67OTRPD8LBC6ZGK5T0P3O381","A1H5TB600ATGFS","3MXX6RQ9EVRTFC527Z18RDK8KW6P4R","","403.7000000476837","img/flower4.png","74","404.7000000476837","1","1","1","1","1,0.333,0.333,0.333,1,0.333,0.333,0.333,1","1,0.333,0.333,0.333,1,0.333,0.333,0.333,1","1",""
"","html-keyboard-response","245","71935","0.0-245.0","39LOEL67OTRPD8LBC6ZGK5T0P3O381","A1H5TB600ATGFS","3MXX6RQ9EVRTFC527Z18RDK8KW6P4R","","null","<img src=""img/flower4.png"" style=""width:200px; border:14px solid green;"">","null","","","","","","","","",""
"","image-keyboard-response","246","72048","0.0-246.0","39LOEL67OTRPD8LBC6ZGK5T0P3O381","A1H5TB600ATGFS","3MXX6RQ9EVRTFC527Z18RDK8KW6P4R","","112.39999997615814","img/flower4.png","76","113.20000004768372","3","0","1","1","1,0.333,0.333,0.333,1,0.333,0.333,0.333,1","1,0.333,0.333,0.333,1,0.333,0.333,0.333,1","1",""
"","html-keyboard-response","247","72356","0.0-247.0","39LOEL67OTRPD8LBC6ZGK5T0P3O381","A1H5TB600ATGFS","3MXX6RQ9EVRTFC527Z18RDK8KW6P4R","","null","<img src=""img/flower4.png"" style=""width:200px;border:14px solid red;"">","null","","","","","","","","",""
"","image-keyboard-response","248","72471","0.0-248.0","39LOEL67OTRPD8LBC6ZGK5T0P3O381","A1H5TB600ATGFS","3MXX6RQ9EVRTFC527Z18RDK8KW6P4R","","114","img/flower1.png","74","114.90000009536743","1","1","2","1","1,0.333,0.333,0.333,1,0.333,0.333,0.333,1","1,0.333,0.333,0.333,1,0.333,0.333,0.333,1","1",""
"","html-keyboard-response","249","72784","0.0-249.0","39LOEL67OTRPD8LBC6ZGK5T0P3O381","A1H5TB600ATGFS","3MXX6RQ9EVRTFC527Z18RDK8KW6P4R","","null","<img src=""img/flower1.png"" style=""width:200px; border:14px solid green;"">","null","","","","","","","","",""
"","image-keyboard-response","250","72831","0.0-250.0","39LOEL67OTRPD8LBC6ZGK5T0P3O381","A1H5TB600ATGFS","3MXX6RQ9EVRTFC527Z18RDK8KW6P4R","","45.60000002384186","img/flower1.png","75","46.5","2","1","2","1","1,0.333,0.333,0.333,1,0.333,0.333,0.333,1","1,0.333,0.333,0.333,1,0.333,0.333,0.333,1","1",""
"","html-keyboard-response","251","73140","0.0-251.0","39LOEL67OTRPD8LBC6ZGK5T0P3O381","A1H5TB600ATGFS","3MXX6RQ9EVRTFC527Z18RDK8KW6P4R","","null","<img src=""img/flower1.png"" style=""width:200px; border:14px solid green;"">","null","","","","","","","","",""
"","image-keyboard-response","252","73211","0.0-252.0","39LOEL67OTRPD8LBC6ZGK5T0P3O381","A1H5TB600ATGFS","3MXX6RQ9EVRTFC527Z18RDK8KW6P4R","","69.90000009536743","img/flower4.png","74","70.79999995231628","1","1","1","1","1,0.333,0.333,0.333,1,0.333,0.333,0.333,1","1,0.333,0.333,0.333,1,0.333,0.333,0.333,1","1",""
"","html-keyboard-response","253","73515","0.0-253.0","39LOEL67OTRPD8LBC6ZGK5T0P3O381","A1H5TB600ATGFS","3MXX6RQ9EVRTFC527Z18RDK8KW6P4R","","null","<img src=""img/flower4.png"" style=""width:200px; border:14px solid green;"">","null","","","","","","","","",""
"","image-keyboard-response","254","73750","0.0-254.0","39LOEL67OTRPD8LBC6ZGK5T0P3O381","A1H5TB600ATGFS","3MXX6RQ9EVRTFC527Z18RDK8KW6P4R","","233.80000007152557","img/flower3.png","74","234.70000004768372","1","1","3","1","1,0.333,0.333,0.333,1,0.333,0.333,0.333,1","1,0.333,0.333,0.333,1,0.333,0.333,0.333,1","1",""
"","html-keyboard-response","255","74064","0.0-255.0","39LOEL67OTRPD8LBC6ZGK5T0P3O381","A1H5TB600ATGFS","3MXX6RQ9EVRTFC527Z18RDK8KW6P4R","","null","<img src=""img/flower3.png"" style=""width:200px; border:14px solid green;"">","null","","","","","","","","",""
"","image-keyboard-response","256","74322","0.0-256.0","39LOEL67OTRPD8LBC6ZGK5T0P3O381","A1H5TB600ATGFS","3MXX6RQ9EVRTFC527Z18RDK8KW6P4R","","256.90000009536743","img/flower1.png","74","257.7999999523163","1","0","2","1","1,0.333,0.333,0.333,1,0.333,0.333,0.333,1","1,0.333,0.333,0.333,1,0.333,0.333,0.333,1","1",""
"","html-keyboard-response","257","74632","0.0-257.0","39LOEL67OTRPD8LBC6ZGK5T0P3O381","A1H5TB600ATGFS","3MXX6RQ9EVRTFC527Z18RDK8KW6P4R","","null","<img src=""img/flower1.png"" style=""width:200px;border:14px solid red;"">","null","","","","","","","","",""
"","image-keyboard-response","258","74869","0.0-258.0","39LOEL67OTRPD8LBC6ZGK5T0P3O381","A1H5TB600ATGFS","3MXX6RQ9EVRTFC527Z18RDK8KW6P4R","","235.70000004768372","img/flower1.png","76","236.60000002384186","3","0","2","1","1,0.333,0.333,0.333,1,0.333,0.333,0.333,1","1,0.333,0.333,0.333,1,0.333,0.333,0.333,1","1",""
"","html-keyboard-response","259","75176","0.0-259.0","39LOEL67OTRPD8LBC6ZGK5T0P3O381","A1H5TB600ATGFS","3MXX6RQ9EVRTFC527Z18RDK8KW6P4R","","null","<img src=""img/flower1.png"" style=""width:200px;border:14px solid red;"">","null","","","","","","","","",""
"","image-keyboard-response","260","75177","0.0-260.0","39LOEL67OTRPD8LBC6ZGK5T0P3O381","A1H5TB600ATGFS","3MXX6RQ9EVRTFC527Z18RDK8KW6P4R","","0.20000004768371582","img/flower3.png","75","0.7999999523162842","2","0","3","1","1,0.333,0.333,0.333,1,0.333,0.333,0.333,1","1,0.333,0.333,0.333,1,0.333,0.333,0.333,1","1",""
"","html-keyboard-response","261","75485","0.0-261.0","39LOEL67OTRPD8LBC6ZGK5T0P3O381","A1H5TB600ATGFS","3MXX6RQ9EVRTFC527Z18RDK8KW6P4R","","null","<img src=""img/flower3.png"" style=""width:200px;border:14px solid red;"">","null","","","","","","","","",""
"","image-keyboard-response","262","75559","0.0-262.0","39LOEL67OTRPD8LBC6ZGK5T0P3O381","A1H5TB600ATGFS","3MXX6RQ9EVRTFC527Z18RDK8KW6P4R","","71.89999997615814","img/flower1.png","74","72.69999992847443","1","0","2","1","1,0.333,0.333,0.333,1,0.333,0.333,0.333,1","1,0.333,0.333,0.333,1,0.333,0.333,0.333,1","1",""
"","html-keyboard-response","263","75868","0.0-263.0","39LOEL67OTRPD8LBC6ZGK5T0P3O381","A1H5TB600ATGFS","3MXX6RQ9EVRTFC527Z18RDK8KW6P4R","","null","<img src=""img/flower1.png"" style=""width:200px;border:14px solid red;"">","null","","","","","","","","",""
"","image-keyboard-response","264","75917","0.0-264.0","39LOEL67OTRPD8LBC6ZGK5T0P3O381","A1H5TB600ATGFS","3MXX6RQ9EVRTFC527Z18RDK8KW6P4R","","47.89999997615814","img/flower1.png","76","48.799999952316284","3","0","2","1","1,0.333,0.333,0.333,1,0.333,0.333,0.333,1","1,0.333,0.333,0.333,1,0.333,0.333,0.333,1","1",""
"","html-keyboard-response","265","76222","0.0-265.0","39LOEL67OTRPD8LBC6ZGK5T0P3O381","A1H5TB600ATGFS","3MXX6RQ9EVRTFC527Z18RDK8KW6P4R","","null","<img src=""img/flower1.png"" style=""width:200px;border:14px solid red;"">","null","","","","","","","","",""
"","image-keyboard-response","266","76280","0.0-266.0","39LOEL67OTRPD8LBC6ZGK5T0P3O381","A1H5TB600ATGFS","3MXX6RQ9EVRTFC527Z18RDK8KW6P4R","","57.300000071525574","img/flower4.png","74","58.10000002384186","1","1","1","1","1,0.333,0.333,0.333,1,0.333,0.333,0.333,1","1,0.333,0.333,0.333,1,0.333,0.333,0.333,1","1",""
"","html-keyboard-response","267","76584","0.0-267.0","39LOEL67OTRPD8LBC6ZGK5T0P3O381","A1H5TB600ATGFS","3MXX6RQ9EVRTFC527Z18RDK8KW6P4R","","null","<img src=""img/flower4.png"" style=""width:200px; border:14px solid green;"">","null","","","","","","","","",""
"","image-keyboard-response","268","76612","0.0-268.0","39LOEL67OTRPD8LBC6ZGK5T0P3O381","A1H5TB600ATGFS","3MXX6RQ9EVRTFC527Z18RDK8KW6P4R","","26.399999976158142","img/flower1.png","75","27.300000071525574","2","1","2","1","1,0.333,0.333,0.333,1,0.333,0.333,0.333,1","1,0.333,0.333,0.333,1,0.333,0.333,0.333,1","1",""
"","html-keyboard-response","269","76920","0.0-269.0","39LOEL67OTRPD8LBC6ZGK5T0P3O381","A1H5TB600ATGFS","3MXX6RQ9EVRTFC527Z18RDK8KW6P4R","","null","<img src=""img/flower1.png"" style=""width:200px; border:14px solid green;"">","null","","","","","","","","",""
"","image-keyboard-response","270","76956","0.0-270.0","39LOEL67OTRPD8LBC6ZGK5T0P3O381","A1H5TB600ATGFS","3MXX6RQ9EVRTFC527Z18RDK8KW6P4R","","35.200000047683716","img/flower1.png","74","36.200000047683716","1","0","2","1","1,0.333,0.333,0.333,1,0.333,0.333,0.333,1","1,0.333,0.333,0.333,1,0.333,0.333,0.333,1","1",""
"","html-keyboard-response","271","77264","0.0-271.0","39LOEL67OTRPD8LBC6ZGK5T0P3O381","A1H5TB600ATGFS","3MXX6RQ9EVRTFC527Z18RDK8KW6P4R","","null","<img src=""img/flower1.png"" style=""width:200px;border:14px solid red;"">","null","","","","","","","","",""
"","image-keyboard-response","272","77488","0.0-272.0","39LOEL67OTRPD8LBC6ZGK5T0P3O381","A1H5TB600ATGFS","3MXX6RQ9EVRTFC527Z18RDK8KW6P4R","","222.79999995231628","img/flower4.png","74","223.69999992847443","1","1","1","1","1,0.333,0.333,0.333,1,0.333,0.333,0.333,1","1,0.333,0.333,0.333,1,0.333,0.333,0.333,1","1",""
"","html-keyboard-response","273","77801","0.0-273.0","39LOEL67OTRPD8LBC6ZGK5T0P3O381","A1H5TB600ATGFS","3MXX6RQ9EVRTFC527Z18RDK8KW6P4R","","null","<img src=""img/flower4.png"" style=""width:200px; border:14px solid green;"">","null","","","","","","","","",""
"","image-keyboard-response","274","77919","0.0-274.0","39LOEL67OTRPD8LBC6ZGK5T0P3O381","A1H5TB600ATGFS","3MXX6RQ9EVRTFC527Z18RDK8KW6P4R","","117","img/flower3.png","74","117.80000007152557","1","1","3","1","1,0.333,0.333,0.333,1,0.333,0.333,0.333,1","1,0.333,0.333,0.333,1,0.333,0.333,0.333,1","1",""
"","html-keyboard-response","275","78228","0.0-275.0","39LOEL67OTRPD8LBC6ZGK5T0P3O381","A1H5TB600ATGFS","3MXX6RQ9EVRTFC527Z18RDK8KW6P4R","","null","<img src=""img/flower3.png"" style=""width:200px; border:14px solid green;"">","null","","","","","","","","",""
"","image-keyboard-response","276","78542","0.0-276.0","39LOEL67OTRPD8LBC6ZGK5T0P3O381","A1H5TB600ATGFS","3MXX6RQ9EVRTFC527Z18RDK8KW6P4R","","312.6999999284744","img/flower1.png","74","313.7000000476837","1","1","2","1","1,0.333,0.333,0.333,1,0.333,0.333,0.333,1","1,0.333,0.333,0.333,1,0.333,0.333,0.333,1","1",""
"","html-keyboard-response","277","78843","0.0-277.0","39LOEL67OTRPD8LBC6ZGK5T0P3O381","A1H5TB600ATGFS","3MXX6RQ9EVRTFC527Z18RDK8KW6P4R","","null","<img src=""img/flower1.png"" style=""width:200px; border:14px solid green;"">","null","","","","","","","","",""
"","image-keyboard-response","278","79069","0.0-278.0","39LOEL67OTRPD8LBC6ZGK5T0P3O381","A1H5TB600ATGFS","3MXX6RQ9EVRTFC527Z18RDK8KW6P4R","","224.80000007152557","img/flower3.png","74","225.60000002384186","1","0","3","1","1,0.333,0.333,0.333,1,0.333,0.333,0.333,1","1,0.333,0.333,0.333,1,0.333,0.333,0.333,1","1",""
"","html-keyboard-response","279","79377","0.0-279.0","39LOEL67OTRPD8LBC6ZGK5T0P3O381","A1H5TB600ATGFS","3MXX6RQ9EVRTFC527Z18RDK8KW6P4R","","null","<img src=""img/flower3.png"" style=""width:200px;border:14px solid red;"">","null","","","","","","","","",""
"","image-keyboard-response","280","79509","0.0-280.0","39LOEL67OTRPD8LBC6ZGK5T0P3O381","A1H5TB600ATGFS","3MXX6RQ9EVRTFC527Z18RDK8KW6P4R","","132","img/flower4.png","74","132.69999992847443","1","1","1","1","1,0.333,0.333,0.333,1,0.333,0.333,0.333,1","1,0.333,0.333,0.333,1,0.333,0.333,0.333,1","1",""
"","html-keyboard-response","281","79816","0.0-281.0","39LOEL67OTRPD8LBC6ZGK5T0P3O381","A1H5TB600ATGFS","3MXX6RQ9EVRTFC527Z18RDK8KW6P4R","","null","<img src=""img/flower4.png"" style=""width:200px; border:14px solid green;"">","null","","","","","","","","",""
"","image-keyboard-response","282","80304","0.0-282.0","39LOEL67OTRPD8LBC6ZGK5T0P3O381","A1H5TB600ATGFS","3MXX6RQ9EVRTFC527Z18RDK8KW6P4R","","487.5","img/flower3.png","76","488.39999997615814","3","1","3","1","1,0.333,0.333,0.333,1,0.333,0.333,0.333,1","1,0.333,0.333,0.333,1,0.333,0.333,0.333,1","1",""
"","html-keyboard-response","283","80612","0.0-283.0","39LOEL67OTRPD8LBC6ZGK5T0P3O381","A1H5TB600ATGFS","3MXX6RQ9EVRTFC527Z18RDK8KW6P4R","","null","<img src=""img/flower3.png"" style=""width:200px; border:14px solid green;"">","null","","","","","","","","",""
"","image-keyboard-response","284","80780","0.0-284.0","39LOEL67OTRPD8LBC6ZGK5T0P3O381","A1H5TB600ATGFS","3MXX6RQ9EVRTFC527Z18RDK8KW6P4R","","166.5","img/flower4.png","76","167.29999995231628","3","0","1","1","1,0.333,0.333,0.333,1,0.333,0.333,0.333,1","1,0.333,0.333,0.333,1,0.333,0.333,0.333,1","1",""
"","html-keyboard-response","285","81088","0.0-285.0","39LOEL67OTRPD8LBC6ZGK5T0P3O381","A1H5TB600ATGFS","3MXX6RQ9EVRTFC527Z18RDK8KW6P4R","","null","<img src=""img/flower4.png"" style=""width:200px;border:14px solid red;"">","null","","","","","","","","",""
"","image-keyboard-response","286","81275","0.0-286.0","39LOEL67OTRPD8LBC6ZGK5T0P3O381","A1H5TB600ATGFS","3MXX6RQ9EVRTFC527Z18RDK8KW6P4R","","185.90000009536743","img/flower1.png","74","186.80000007152557","1","0","2","1","1,0.333,0.333,0.333,1,0.333,0.333,0.333,1","1,0.333,0.333,0.333,1,0.333,0.333,0.333,1","1",""
"","html-keyboard-response","287","81584","0.0-287.0","39LOEL67OTRPD8LBC6ZGK5T0P3O381","A1H5TB600ATGFS","3MXX6RQ9EVRTFC527Z18RDK8KW6P4R","","null","<img src=""img/flower1.png"" style=""width:200px;border:14px solid red;"">","null","","","","","","","","",""
"","image-keyboard-response","288","81602","0.0-288.0","39LOEL67OTRPD8LBC6ZGK5T0P3O381","A1H5TB600ATGFS","3MXX6RQ9EVRTFC527Z18RDK8KW6P4R","","17.399999976158142","img/flower4.png","75","18.399999976158142","2","0","1","1","1,0.333,0.333,0.333,1,0.333,0.333,0.333,1","1,0.333,0.333,0.333,1,0.333,0.333,0.333,1","1",""
"","html-keyboard-response","289","81913","0.0-289.0","39LOEL67OTRPD8LBC6ZGK5T0P3O381","A1H5TB600ATGFS","3MXX6RQ9EVRTFC527Z18RDK8KW6P4R","","null","<img src=""img/flower4.png"" style=""width:200px;border:14px solid red;"">","null","","","","","","","","",""
"","image-keyboard-response","290","81974","0.0-290.0","39LOEL67OTRPD8LBC6ZGK5T0P3O381","A1H5TB600ATGFS","3MXX6RQ9EVRTFC527Z18RDK8KW6P4R","","60.10000002384186","img/flower4.png","74","60.89999997615814","1","1","1","1","1,0.333,0.333,0.333,1,0.333,0.333,0.333,1","1,0.333,0.333,0.333,1,0.333,0.333,0.333,1","1",""
"","html-keyboard-response","291","82277","0.0-291.0","39LOEL67OTRPD8LBC6ZGK5T0P3O381","A1H5TB600ATGFS","3MXX6RQ9EVRTFC527Z18RDK8KW6P4R","","null","<img src=""img/flower4.png"" style=""width:200px; border:14px solid green;"">","null","","","","","","","","",""
"","image-keyboard-response","292","82403","0.0-292.0","39LOEL67OTRPD8LBC6ZGK5T0P3O381","A1H5TB600ATGFS","3MXX6RQ9EVRTFC527Z18RDK8KW6P4R","","125.69999992847443","img/flower1.png","76","126.40000009536743","3","0","2","1","1,0.333,0.333,0.333,1,0.333,0.333,0.333,1","1,0.333,0.333,0.333,1,0.333,0.333,0.333,1","1",""
"","html-keyboard-response","293","82711","0.0-293.0","39LOEL67OTRPD8LBC6ZGK5T0P3O381","A1H5TB600ATGFS","3MXX6RQ9EVRTFC527Z18RDK8KW6P4R","","null","<img src=""img/flower1.png"" style=""width:200px;border:14px solid red;"">","null","","","","","","","","",""
"","image-keyboard-response","294","82767","0.0-294.0","39LOEL67OTRPD8LBC6ZGK5T0P3O381","A1H5TB600ATGFS","3MXX6RQ9EVRTFC527Z18RDK8KW6P4R","","54.89999997615814","img/flower4.png","74","55.700000047683716","1","1","1","1","1,0.333,0.333,0.333,1,0.333,0.333,0.333,1","1,0.333,0.333,0.333,1,0.333,0.333,0.333,1","1",""
"","html-keyboard-response","295","83078","0.0-295.0","39LOEL67OTRPD8LBC6ZGK5T0P3O381","A1H5TB600ATGFS","3MXX6RQ9EVRTFC527Z18RDK8KW6P4R","","null","<img src=""img/flower4.png"" style=""width:200px; border:14px solid green;"">","null","","","","","","","","",""
"","image-keyboard-response","296","83445","0.0-296.0","39LOEL67OTRPD8LBC6ZGK5T0P3O381","A1H5TB600ATGFS","3MXX6RQ9EVRTFC527Z18RDK8KW6P4R","","366.39999997615814","img/flower4.png","74","367.2000000476837","1","1","1","1","1,0.333,0.333,0.333,1,0.333,0.333,0.333,1","1,0.333,0.333,0.333,1,0.333,0.333,0.333,1","1",""
"","html-keyboard-response","297","83748","0.0-297.0","39LOEL67OTRPD8LBC6ZGK5T0P3O381","A1H5TB600ATGFS","3MXX6RQ9EVRTFC527Z18RDK8KW6P4R","","null","<img src=""img/flower4.png"" style=""width:200px; border:14px solid green;"">","null","","","","","","","","",""
"","image-keyboard-response","298","83806","0.0-298.0","39LOEL67OTRPD8LBC6ZGK5T0P3O381","A1H5TB600ATGFS","3MXX6RQ9EVRTFC527Z18RDK8KW6P4R","","57.39999997615814","img/flower3.png","76","58.09999990463257","3","1","3","1","1,0.333,0.333,0.333,1,0.333,0.333,0.333,1","1,0.333,0.333,0.333,1,0.333,0.333,0.333,1","1",""
"","html-keyboard-response","299","84120","0.0-299.0","39LOEL67OTRPD8LBC6ZGK5T0P3O381","A1H5TB600ATGFS","3MXX6RQ9EVRTFC527Z18RDK8KW6P4R","","null","<img src=""img/flower3.png"" style=""width:200px; border:14px solid green;"">","null","","","","","","","","",""
"","image-keyboard-response","300","84205","0.0-300.0","39LOEL67OTRPD8LBC6ZGK5T0P3O381","A1H5TB600ATGFS","3MXX6RQ9EVRTFC527Z18RDK8KW6P4R","","84.19999992847443","img/flower1.png","74","85.10000002384186","1","1","2","1","1,0.333,0.333,0.333,1,0.333,0.333,0.333,1","1,0.333,0.333,0.333,1,0.333,0.333,0.333,1","1",""
"","html-keyboard-response","301","84512","0.0-301.0","39LOEL67OTRPD8LBC6ZGK5T0P3O381","A1H5TB600ATGFS","3MXX6RQ9EVRTFC527Z18RDK8KW6P4R","","null","<img src=""img/flower1.png"" style=""width:200px; border:14px solid green;"">","null","","","","","","","","",""
"","image-keyboard-response","302","84570","0.0-302.0","39LOEL67OTRPD8LBC6ZGK5T0P3O381","A1H5TB600ATGFS","3MXX6RQ9EVRTFC527Z18RDK8KW6P4R","","57.10000002384186","img/flower1.png","74","57.89999997615814","1","0","2","1","1,0.333,0.333,0.333,1,0.333,0.333,0.333,1","1,0.333,0.333,0.333,1,0.333,0.333,0.333,1","1",""
"","html-keyboard-response","303","84880","0.0-303.0","39LOEL67OTRPD8LBC6ZGK5T0P3O381","A1H5TB600ATGFS","3MXX6RQ9EVRTFC527Z18RDK8KW6P4R","","null","<img src=""img/flower1.png"" style=""width:200px;border:14px solid red;"">","null","","","","","","","","",""
"","image-keyboard-response","304","85123","0.0-304.0","39LOEL67OTRPD8LBC6ZGK5T0P3O381","A1H5TB600ATGFS","3MXX6RQ9EVRTFC527Z18RDK8KW6P4R","","242.29999995231628","img/flower3.png","76","243.19999992847443","3","1","3","1","1,0.333,0.333,0.333,1,0.333,0.333,0.333,1","1,0.333,0.333,0.333,1,0.333,0.333,0.333,1","1",""
"","html-keyboard-response","305","85432","0.0-305.0","39LOEL67OTRPD8LBC6ZGK5T0P3O381","A1H5TB600ATGFS","3MXX6RQ9EVRTFC527Z18RDK8KW6P4R","","null","<img src=""img/flower3.png"" style=""width:200px; border:14px solid green;"">","null","","","","","","","","",""
"","image-keyboard-response","306","85639","0.0-306.0","39LOEL67OTRPD8LBC6ZGK5T0P3O381","A1H5TB600ATGFS","3MXX6RQ9EVRTFC527Z18RDK8KW6P4R","","206","img/flower3.png","75","206.70000004768372","2","1","3","1","1,0.333,0.333,0.333,1,0.333,0.333,0.333,1","1,0.333,0.333,0.333,1,0.333,0.333,0.333,1","1",""
"","html-keyboard-response","307","85952","0.0-307.0","39LOEL67OTRPD8LBC6ZGK5T0P3O381","A1H5TB600ATGFS","3MXX6RQ9EVRTFC527Z18RDK8KW6P4R","","null","<img src=""img/flower3.png"" style=""width:200px; border:14px solid green;"">","null","","","","","","","","",""
"","image-keyboard-response","308","86195","0.0-308.0","39LOEL67OTRPD8LBC6ZGK5T0P3O381","A1H5TB600ATGFS","3MXX6RQ9EVRTFC527Z18RDK8KW6P4R","","242.29999995231628","img/flower4.png","75","242.89999997615814","2","0","1","1","1,0.333,0.333,0.333,1,0.333,0.333,0.333,1","1,0.333,0.333,0.333,1,0.333,0.333,0.333,1","1",""
"","html-keyboard-response","309","86500","0.0-309.0","39LOEL67OTRPD8LBC6ZGK5T0P3O381","A1H5TB600ATGFS","3MXX6RQ9EVRTFC527Z18RDK8KW6P4R","","null","<img src=""img/flower4.png"" style=""width:200px;border:14px solid red;"">","null","","","","","","","","",""
"","image-keyboard-response","310","86552","0.0-310.0","39LOEL67OTRPD8LBC6ZGK5T0P3O381","A1H5TB600ATGFS","3MXX6RQ9EVRTFC527Z18RDK8KW6P4R","","50.700000047683716","img/flower3.png","74","51.5","1","0","3","1","1,0.333,0.333,0.333,1,0.333,0.333,0.333,1","1,0.333,0.333,0.333,1,0.333,0.333,0.333,1","1",""
"","html-keyboard-response","311","86860","0.0-311.0","39LOEL67OTRPD8LBC6ZGK5T0P3O381","A1H5TB600ATGFS","3MXX6RQ9EVRTFC527Z18RDK8KW6P4R","","null","<img src=""img/flower3.png"" style=""width:200px;border:14px solid red;"">","null","","","","","","","","",""
"","image-keyboard-response","312","86872","0.0-312.0","39LOEL67OTRPD8LBC6ZGK5T0P3O381","A1H5TB600ATGFS","3MXX6RQ9EVRTFC527Z18RDK8KW6P4R","","11","img/flower1.png","76","11.799999952316284","3","1","2","1","1,0.333,0.333,0.333,1,0.333,0.333,0.333,1","1,0.333,0.333,0.333,1,0.333,0.333,0.333,1","1",""
"","html-keyboard-response","313","87184","0.0-313.0","39LOEL67OTRPD8LBC6ZGK5T0P3O381","A1H5TB600ATGFS","3MXX6RQ9EVRTFC527Z18RDK8KW6P4R","","null","<img src=""img/flower1.png"" style=""width:200px; border:14px solid green;"">","null","","","","","","","","",""
"","image-keyboard-response","314","87229","0.0-314.0","39LOEL67OTRPD8LBC6ZGK5T0P3O381","A1H5TB600ATGFS","3MXX6RQ9EVRTFC527Z18RDK8KW6P4R","","43.59999990463257","img/flower4.png","75","44.39999997615814","2","0","1","1","1,0.333,0.333,0.333,1,0.333,0.333,0.333,1","1,0.333,0.333,0.333,1,0.333,0.333,0.333,1","1",""
"","html-keyboard-response","315","87534","0.0-315.0","39LOEL67OTRPD8LBC6ZGK5T0P3O381","A1H5TB600ATGFS","3MXX6RQ9EVRTFC527Z18RDK8KW6P4R","","null","<img src=""img/flower4.png"" style=""width:200px;border:14px solid red;"">","null","","","","","","","","",""
"","image-keyboard-response","316","87645","0.0-316.0","39LOEL67OTRPD8LBC6ZGK5T0P3O381","A1H5TB600ATGFS","3MXX6RQ9EVRTFC527Z18RDK8KW6P4R","","109.5","img/flower3.png","76","110.39999997615814","3","1","3","1","1,0.333,0.333,0.333,1,0.333,0.333,0.333,1","1,0.333,0.333,0.333,1,0.333,0.333,0.333,1","1",""
"","html-keyboard-response","317","87948","0.0-317.0","39LOEL67OTRPD8LBC6ZGK5T0P3O381","A1H5TB600ATGFS","3MXX6RQ9EVRTFC527Z18RDK8KW6P4R","","null","<img src=""img/flower3.png"" style=""width:200px; border:14px solid green;"">","null","","","","","","","","",""
"","image-keyboard-response","318","88049","0.0-318.0","39LOEL67OTRPD8LBC6ZGK5T0P3O381","A1H5TB600ATGFS","3MXX6RQ9EVRTFC527Z18RDK8KW6P4R","","99.39999997615814","img/flower3.png","76","100.29999995231628","3","1","3","1","1,0.333,0.333,0.333,1,0.333,0.333,0.333,1","1,0.333,0.333,0.333,1,0.333,0.333,0.333,1","1",""
"","html-keyboard-response","319","88359","0.0-319.0","39LOEL67OTRPD8LBC6ZGK5T0P3O381","A1H5TB600ATGFS","3MXX6RQ9EVRTFC527Z18RDK8KW6P4R","","null","<img src=""img/flower3.png"" style=""width:200px; border:14px solid green;"">","null","","","","","","","","",""
"","image-keyboard-response","320","88463","0.0-320.0","39LOEL67OTRPD8LBC6ZGK5T0P3O381","A1H5TB600ATGFS","3MXX6RQ9EVRTFC527Z18RDK8KW6P4R","","102.39999997615814","img/flower3.png","76","103.19999992847443","3","1","3","1","1,0.333,0.333,0.333,1,0.333,0.333,0.333,1","1,0.333,0.333,0.333,1,0.333,0.333,0.333,1","1",""
"","html-keyboard-response","321","88776","0.0-321.0","39LOEL67OTRPD8LBC6ZGK5T0P3O381","A1H5TB600ATGFS","3MXX6RQ9EVRTFC527Z18RDK8KW6P4R","","null","<img src=""img/flower3.png"" style=""width:200px; border:14px solid green;"">","null","","","","","","","","",""
"","image-keyboard-response","322","88890","0.0-322.0","39LOEL67OTRPD8LBC6ZGK5T0P3O381","A1H5TB600ATGFS","3MXX6RQ9EVRTFC527Z18RDK8KW6P4R","","113.10000002384186","img/flower4.png","76","113.89999997615814","3","1","1","1","1,0.333,0.333,0.333,1,0.333,0.333,0.333,1","1,0.333,0.333,0.333,1,0.333,0.333,0.333,1","1",""
"","html-keyboard-response","323","89200","0.0-323.0","39LOEL67OTRPD8LBC6ZGK5T0P3O381","A1H5TB600ATGFS","3MXX6RQ9EVRTFC527Z18RDK8KW6P4R","","null","<img src=""img/flower4.png"" style=""width:200px; border:14px solid green;"">","null","","","","","","","","",""
"","image-keyboard-response","324","89417","0.0-324.0","39LOEL67OTRPD8LBC6ZGK5T0P3O381","A1H5TB600ATGFS","3MXX6RQ9EVRTFC527Z18RDK8KW6P4R","","216.10000002384186","img/flower1.png","76","217","3","1","2","1","1,0.333,0.333,0.333,1,0.333,0.333,0.333,1","1,0.333,0.333,0.333,1,0.333,0.333,0.333,1","1",""
"","html-keyboard-response","325","89727","0.0-325.0","39LOEL67OTRPD8LBC6ZGK5T0P3O381","A1H5TB600ATGFS","3MXX6RQ9EVRTFC527Z18RDK8KW6P4R","","null","<img src=""img/flower1.png"" style=""width:200px; border:14px solid green;"">","null","","","","","","","","",""
"","image-keyboard-response","326","89896","0.0-326.0","39LOEL67OTRPD8LBC6ZGK5T0P3O381","A1H5TB600ATGFS","3MXX6RQ9EVRTFC527Z18RDK8KW6P4R","","168.39999997615814","img/flower3.png","76","169.10000002384186","3","1","3","1","1,0.333,0.333,0.333,1,0.333,0.333,0.333,1","1,0.333,0.333,0.333,1,0.333,0.333,0.333,1","1",""
"","html-keyboard-response","327","90206","0.0-327.0","39LOEL67OTRPD8LBC6ZGK5T0P3O381","A1H5TB600ATGFS","3MXX6RQ9EVRTFC527Z18RDK8KW6P4R","","null","<img src=""img/flower3.png"" style=""width:200px; border:14px solid green;"">","null","","","","","","","","",""
"","image-keyboard-response","328","90344","0.0-328.0","39LOEL67OTRPD8LBC6ZGK5T0P3O381","A1H5TB600ATGFS","3MXX6RQ9EVRTFC527Z18RDK8KW6P4R","","136.29999995231628","img/flower4.png","76","137.39999997615814","3","1","1","1","1,0.333,0.333,0.333,1,0.333,0.333,0.333,1","1,0.333,0.333,0.333,1,0.333,0.333,0.333,1","1",""
"","html-keyboard-response","329","90653","0.0-329.0","39LOEL67OTRPD8LBC6ZGK5T0P3O381","A1H5TB600ATGFS","3MXX6RQ9EVRTFC527Z18RDK8KW6P4R","","null","<img src=""img/flower4.png"" style=""width:200px; border:14px solid green;"">","null","","","","","","","","",""
"","image-keyboard-response","330","90890","0.0-330.0","39LOEL67OTRPD8LBC6ZGK5T0P3O381","A1H5TB600ATGFS","3MXX6RQ9EVRTFC527Z18RDK8KW6P4R","","235.5","img/flower3.png","76","236.5","3","1","3","1","1,0.333,0.333,0.333,1,0.333,0.333,0.333,1","1,0.333,0.333,0.333,1,0.333,0.333,0.333,1","1",""
"","html-keyboard-response","331","91200","0.0-331.0","39LOEL67OTRPD8LBC6ZGK5T0P3O381","A1H5TB600ATGFS","3MXX6RQ9EVRTFC527Z18RDK8KW6P4R","","null","<img src=""img/flower3.png"" style=""width:200px; border:14px solid green;"">","null","","","","","","","","",""
"","image-keyboard-response","332","91427","0.0-332.0","39LOEL67OTRPD8LBC6ZGK5T0P3O381","A1H5TB600ATGFS","3MXX6RQ9EVRTFC527Z18RDK8KW6P4R","","225.70000004768372","img/flower3.png","76","226.5","3","1","3","1","1,0.333,0.333,0.333,1,0.333,0.333,0.333,1","1,0.333,0.333,0.333,1,0.333,0.333,0.333,1","1",""
"","html-keyboard-response","333","91735","0.0-333.0","39LOEL67OTRPD8LBC6ZGK5T0P3O381","A1H5TB600ATGFS","3MXX6RQ9EVRTFC527Z18RDK8KW6P4R","","null","<img src=""img/flower3.png"" style=""width:200px; border:14px solid green;"">","null","","","","","","","","",""
"","image-keyboard-response","334","91943","0.0-334.0","39LOEL67OTRPD8LBC6ZGK5T0P3O381","A1H5TB600ATGFS","3MXX6RQ9EVRTFC527Z18RDK8KW6P4R","","206.89999997615814","img/flower4.png","76","207.70000004768372","3","0","1","1","1,0.333,0.333,0.333,1,0.333,0.333,0.333,1","1,0.333,0.333,0.333,1,0.333,0.333,0.333,1","1",""
"","html-keyboard-response","335","92256","0.0-335.0","39LOEL67OTRPD8LBC6ZGK5T0P3O381","A1H5TB600ATGFS","3MXX6RQ9EVRTFC527Z18RDK8KW6P4R","","null","<img src=""img/flower4.png"" style=""width:200px;border:14px solid red;"">","null","","","","","","","","",""
"","image-keyboard-response","336","92532","0.0-336.0","39LOEL67OTRPD8LBC6ZGK5T0P3O381","A1H5TB600ATGFS","3MXX6RQ9EVRTFC527Z18RDK8KW6P4R","","275.39999997615814","img/flower1.png","74","276.39999997615814","1","0","2","1","1,0.333,0.333,0.333,1,0.333,0.333,0.333,1","1,0.333,0.333,0.333,1,0.333,0.333,0.333,1","1",""
"","html-keyboard-response","337","92835","0.0-337.0","39LOEL67OTRPD8LBC6ZGK5T0P3O381","A1H5TB600ATGFS","3MXX6RQ9EVRTFC527Z18RDK8KW6P4R","","null","<img src=""img/flower1.png"" style=""width:200px;border:14px solid red;"">","null","","","","","","","","",""
"","image-keyboard-response","338","93224","0.0-338.0","39LOEL67OTRPD8LBC6ZGK5T0P3O381","A1H5TB600ATGFS","3MXX6RQ9EVRTFC527Z18RDK8KW6P4R","","388","img/flower4.png","74","388.89999997615814","1","1","1","1","1,0.333,0.333,0.333,1,0.333,0.333,0.333,1","1,0.333,0.333,0.333,1,0.333,0.333,0.333,1","1",""
"","html-keyboard-response","339","93528","0.0-339.0","39LOEL67OTRPD8LBC6ZGK5T0P3O381","A1H5TB600ATGFS","3MXX6RQ9EVRTFC527Z18RDK8KW6P4R","","null","<img src=""img/flower4.png"" style=""width:200px; border:14px solid green;"">","null","","","","","","","","",""
"","image-keyboard-response","340","93801","0.0-340.0","39LOEL67OTRPD8LBC6ZGK5T0P3O381","A1H5TB600ATGFS","3MXX6RQ9EVRTFC527Z18RDK8KW6P4R","","272.09999990463257","img/flower1.png","74","273.10000002384186","1","0","2","1","1,0.333,0.333,0.333,1,0.333,0.333,0.333,1","1,0.333,0.333,0.333,1,0.333,0.333,0.333,1","1",""
"","html-keyboard-response","341","94112","0.0-341.0","39LOEL67OTRPD8LBC6ZGK5T0P3O381","A1H5TB600ATGFS","3MXX6RQ9EVRTFC527Z18RDK8KW6P4R","","null","<img src=""img/flower1.png"" style=""width:200px;border:14px solid red;"">","null","","","","","","","","",""
"","image-keyboard-response","342","94275","0.0-342.0","39LOEL67OTRPD8LBC6ZGK5T0P3O381","A1H5TB600ATGFS","3MXX6RQ9EVRTFC527Z18RDK8KW6P4R","","162.39999997615814","img/flower1.png","76","163.20000004768372","3","0","2","1","1,0.333,0.333,0.333,1,0.333,0.333,0.333,1","1,0.333,0.333,0.333,1,0.333,0.333,0.333,1","1",""
"","html-keyboard-response","343","94583","0.0-343.0","39LOEL67OTRPD8LBC6ZGK5T0P3O381","A1H5TB600ATGFS","3MXX6RQ9EVRTFC527Z18RDK8KW6P4R","","null","<img src=""img/flower1.png"" style=""width:200px;border:14px solid red;"">","null","","","","","","","","",""
"","image-keyboard-response","344","94654","0.0-344.0","39LOEL67OTRPD8LBC6ZGK5T0P3O381","A1H5TB600ATGFS","3MXX6RQ9EVRTFC527Z18RDK8KW6P4R","","70","img/flower3.png","75","70.79999995231628","2","0","3","1","1,0.333,0.333,0.333,1,0.333,0.333,0.333,1","1,0.333,0.333,0.333,1,0.333,0.333,0.333,1","1",""
"","html-keyboard-response","345","94968","0.0-345.0","39LOEL67OTRPD8LBC6ZGK5T0P3O381","A1H5TB600ATGFS","3MXX6RQ9EVRTFC527Z18RDK8KW6P4R","","null","<img src=""img/flower3.png"" style=""width:200px;border:14px solid red;"">","null","","","","","","","","",""
"","image-keyboard-response","346","95142","0.0-346.0","39LOEL67OTRPD8LBC6ZGK5T0P3O381","A1H5TB600ATGFS","3MXX6RQ9EVRTFC527Z18RDK8KW6P4R","","173.5","img/flower1.png","76","174.20000004768372","3","0","2","1","1,0.333,0.333,0.333,1,0.333,0.333,0.333,1","1,0.333,0.333,0.333,1,0.333,0.333,0.333,1","1",""
"","html-keyboard-response","347","95456","0.0-347.0","39LOEL67OTRPD8LBC6ZGK5T0P3O381","A1H5TB600ATGFS","3MXX6RQ9EVRTFC527Z18RDK8KW6P4R","","null","<img src=""img/flower1.png"" style=""width:200px;border:14px solid red;"">","null","","","","","","","","",""
"","image-keyboard-response","348","95528","0.0-348.0","39LOEL67OTRPD8LBC6ZGK5T0P3O381","A1H5TB600ATGFS","3MXX6RQ9EVRTFC527Z18RDK8KW6P4R","","71.5","img/flower4.png","74","72.29999995231628","1","1","1","1","1,0.333,0.333,0.333,1,0.333,0.333,0.333,1","1,0.333,0.333,0.333,1,0.333,0.333,0.333,1","1",""
"","html-keyboard-response","349","95840","0.0-349.0","39LOEL67OTRPD8LBC6ZGK5T0P3O381","A1H5TB600ATGFS","3MXX6RQ9EVRTFC527Z18RDK8KW6P4R","","null","<img src=""img/flower4.png"" style=""width:200px; border:14px solid green;"">","null","","","","","","","","",""
"","image-keyboard-response","350","96114","0.0-350.0","39LOEL67OTRPD8LBC6ZGK5T0P3O381","A1H5TB600ATGFS","3MXX6RQ9EVRTFC527Z18RDK8KW6P4R","","273.39999997615814","img/flower1.png","74","274.3000000715256","1","0","2","1","1,0.333,0.333,0.333,1,0.333,0.333,0.333,1","1,0.333,0.333,0.333,1,0.333,0.333,0.333,1","1",""
"","html-keyboard-response","351","96424","0.0-351.0","39LOEL67OTRPD8LBC6ZGK5T0P3O381","A1H5TB600ATGFS","3MXX6RQ9EVRTFC527Z18RDK8KW6P4R","","null","<img src=""img/flower1.png"" style=""width:200px;border:14px solid red;"">","null","","","","","","","","",""
"","image-keyboard-response","352","96828","0.0-352.0","39LOEL67OTRPD8LBC6ZGK5T0P3O381","A1H5TB600ATGFS","3MXX6RQ9EVRTFC527Z18RDK8KW6P4R","","403.3000000715256","img/flower1.png","74","404.10000002384186","1","0","2","1","1,0.333,0.333,0.333,1,0.333,0.333,0.333,1","1,0.333,0.333,0.333,1,0.333,0.333,0.333,1","1",""
"","html-keyboard-response","353","97131","0.0-353.0","39LOEL67OTRPD8LBC6ZGK5T0P3O381","A1H5TB600ATGFS","3MXX6RQ9EVRTFC527Z18RDK8KW6P4R","","null","<img src=""img/flower1.png"" style=""width:200px;border:14px solid red;"">","null","","","","","","","","",""
"","image-keyboard-response","354","97490","0.0-354.0","39LOEL67OTRPD8LBC6ZGK5T0P3O381","A1H5TB600ATGFS","3MXX6RQ9EVRTFC527Z18RDK8KW6P4R","","357.89999997615814","img/flower1.png","75","358.7999999523163","2","1","2","1","1,0.333,0.333,0.333,1,0.333,0.333,0.333,1","1,0.333,0.333,0.333,1,0.333,0.333,0.333,1","1",""
"","html-keyboard-response","355","97796","0.0-355.0","39LOEL67OTRPD8LBC6ZGK5T0P3O381","A1H5TB600ATGFS","3MXX6RQ9EVRTFC527Z18RDK8KW6P4R","","null","<img src=""img/flower1.png"" style=""width:200px; border:14px solid green;"">","null","","","","","","","","",""
"","image-keyboard-response","356","97956","0.0-356.0","39LOEL67OTRPD8LBC6ZGK5T0P3O381","A1H5TB600ATGFS","3MXX6RQ9EVRTFC527Z18RDK8KW6P4R","","159.39999997615814","img/flower1.png","75","160.19999992847443","2","1","2","1","1,0.333,0.333,0.333,1,0.333,0.333,0.333,1","1,0.333,0.333,0.333,1,0.333,0.333,0.333,1","1",""
"","html-keyboard-response","357","98261","0.0-357.0","39LOEL67OTRPD8LBC6ZGK5T0P3O381","A1H5TB600ATGFS","3MXX6RQ9EVRTFC527Z18RDK8KW6P4R","","null","<img src=""img/flower1.png"" style=""width:200px; border:14px solid green;"">","null","","","","","","","","",""
"","image-keyboard-response","358","98436","0.0-358.0","39LOEL67OTRPD8LBC6ZGK5T0P3O381","A1H5TB600ATGFS","3MXX6RQ9EVRTFC527Z18RDK8KW6P4R","","173.80000007152557","img/flower4.png","75","174.60000002384186","2","1","1","1","1,0.333,0.333,0.333,1,0.333,0.333,0.333,1","1,0.333,0.333,0.333,1,0.333,0.333,0.333,1","1",""
"","html-keyboard-response","359","98744","0.0-359.0","39LOEL67OTRPD8LBC6ZGK5T0P3O381","A1H5TB600ATGFS","3MXX6RQ9EVRTFC527Z18RDK8KW6P4R","","null","<img src=""img/flower4.png"" style=""width:200px; border:14px solid green;"">","null","","","","","","","","",""
"","image-keyboard-response","360","99087","0.0-360.0","39LOEL67OTRPD8LBC6ZGK5T0P3O381","A1H5TB600ATGFS","3MXX6RQ9EVRTFC527Z18RDK8KW6P4R","","341.6999999284744","img/flower1.png","75","342.5","2","1","2","1","1,0.333,0.333,0.333,1,0.333,0.333,0.333,1","1,0.333,0.333,0.333,1,0.333,0.333,0.333,1","1",""
"","html-keyboard-response","361","99396","0.0-361.0","39LOEL67OTRPD8LBC6ZGK5T0P3O381","A1H5TB600ATGFS","3MXX6RQ9EVRTFC527Z18RDK8KW6P4R","","null","<img src=""img/flower1.png"" style=""width:200px; border:14px solid green;"">","null","","","","","","","","",""
"","html-keyboard-response","362","102024","0.0-362.0","39LOEL67OTRPD8LBC6ZGK5T0P3O381","A1H5TB600ATGFS","3MXX6RQ9EVRTFC527Z18RDK8KW6P4R","","","","","","","","","","","","",""
"","instructions","363","103122","0.0-363.0","39LOEL67OTRPD8LBC6ZGK5T0P3O381","A1H5TB600ATGFS","3MXX6RQ9EVRTFC527Z18RDK8KW6P4R","[{""page_index"":0,""viewing_time"":1097}]","1097.3000000715256","","","","","","","","","","",""
"","survey-text","364","106575","0.0-364.0","39LOEL67OTRPD8LBC6ZGK5T0P3O381","A1H5TB600ATGFS","3MXX6RQ9EVRTFC527Z18RDK8KW6P4R","","3449","","","","","","","","","","","{""Q0"":""A1H5TB600ATGFS""}"
