"rt","url","trial_type","trial_index","time_elapsed","internal_node_id","assignmentID","mturkID","hitID","success","view_history","stimulus","key_press","reactionTime","a","r","s","cond","reward_cond","reward_cond_actual","reward_matrix_idx","responses"
"13301","consent.html","external-html","0","13391","0.0-0.0","3T111IHZ5FCHAFPNSO6Q2ZRREQ19RK","A1I0DV4B4MFQCL","3MVY4USGB69K0BK9K576GJZ2CVDSII","","","","","","","","","","","","",""
"","","fullscreen","1","16633","0.0-1.0","3T111IHZ5FCHAFPNSO6Q2ZRREQ19RK","A1I0DV4B4MFQCL","3MVY4USGB69K0BK9K576GJZ2CVDSII","true","","","","","","","","","","","",""
"71287","","instructions","2","87921","0.0-2.0","3T111IHZ5FCHAFPNSO6Q2ZRREQ19RK","A1I0DV4B4MFQCL","3MVY4USGB69K0BK9K576GJZ2CVDSII","","[{""page_index"":0,""viewing_time"":10165},{""page_index"":1,""viewing_time"":6995},{""page_index"":2,""viewing_time"":12057},{""page_index"":3,""viewing_time"":9927},{""page_index"":4,""viewing_time"":8243},{""page_index"":5,""viewing_time"":15402},{""page_index"":6,""viewing_time"":8498}]","","","","","","","","","","",""
"14707","","instructions","3","102630","0.0-3.0","3T111IHZ5FCHAFPNSO6Q2ZRREQ19RK","A1I0DV4B4MFQCL","3MVY4USGB69K0BK9K576GJZ2CVDSII","","[{""page_index"":0,""viewing_time"":14707}]","","","","","","","","","","",""
"1696","","image-keyboard-response","4","104329","0.0-4.0","3T111IHZ5FCHAFPNSO6Q2ZRREQ19RK","A1I0DV4B4MFQCL","3MVY4USGB69K0BK9K576GJZ2CVDSII","","","img/flower5.png","75","1698","2","1","2","","","","",""
"null","","html-keyboard-response","5","104633","0.0-5.0","3T111IHZ5FCHAFPNSO6Q2ZRREQ19RK","A1I0DV4B4MFQCL","3MVY4USGB69K0BK9K576GJZ2CVDSII","","","<img src=""img/flower5.png"" style=""width:200px; border:14px solid green;"">","null","","","","","","","","",""
"588","","image-keyboard-response","6","105221","0.0-6.0","3T111IHZ5FCHAFPNSO6Q2ZRREQ19RK","A1I0DV4B4MFQCL","3MVY4USGB69K0BK9K576GJZ2CVDSII","","","img/flower4.png","74","589","1","1","1","","","","",""
"null","","html-keyboard-response","7","105524","0.0-7.0","3T111IHZ5FCHAFPNSO6Q2ZRREQ19RK","A1I0DV4B4MFQCL","3MVY4USGB69K0BK9K576GJZ2CVDSII","","","<img src=""img/flower4.png"" style=""width:200px; border:14px solid green;"">","null","","","","","","","","",""
"501","","image-keyboard-response","8","106027","0.0-8.0","3T111IHZ5FCHAFPNSO6Q2ZRREQ19RK","A1I0DV4B4MFQCL","3MVY4USGB69K0BK9K576GJZ2CVDSII","","","img/flower6.png","76","502","3","1","3","","","","",""
"null","","html-keyboard-response","9","106327","0.0-9.0","3T111IHZ5FCHAFPNSO6Q2ZRREQ19RK","A1I0DV4B4MFQCL","3MVY4USGB69K0BK9K576GJZ2CVDSII","","","<img src=""img/flower6.png"" style=""width:200px; border:14px solid green;"">","null","","","","","","","","",""
"602","","image-keyboard-response","10","106930","0.0-10.0","3T111IHZ5FCHAFPNSO6Q2ZRREQ19RK","A1I0DV4B4MFQCL","3MVY4USGB69K0BK9K576GJZ2CVDSII","","","img/flower6.png","76","603","3","1","3","","","","",""
"null","","html-keyboard-response","11","107236","0.0-11.0","3T111IHZ5FCHAFPNSO6Q2ZRREQ19RK","A1I0DV4B4MFQCL","3MVY4USGB69K0BK9K576GJZ2CVDSII","","","<img src=""img/flower6.png"" style=""width:200px; border:14px solid green;"">","null","","","","","","","","",""
"459","","image-keyboard-response","12","107697","0.0-12.0","3T111IHZ5FCHAFPNSO6Q2ZRREQ19RK","A1I0DV4B4MFQCL","3MVY4USGB69K0BK9K576GJZ2CVDSII","","","img/flower6.png","76","460","3","1","3","","","","",""
"null","","html-keyboard-response","13","108003","0.0-13.0","3T111IHZ5FCHAFPNSO6Q2ZRREQ19RK","A1I0DV4B4MFQCL","3MVY4USGB69K0BK9K576GJZ2CVDSII","","","<img src=""img/flower6.png"" style=""width:200px; border:14px solid green;"">","null","","","","","","","","",""
"463","","image-keyboard-response","14","108466","0.0-14.0","3T111IHZ5FCHAFPNSO6Q2ZRREQ19RK","A1I0DV4B4MFQCL","3MVY4USGB69K0BK9K576GJZ2CVDSII","","","img/flower6.png","76","463","3","1","3","","","","",""
"null","","html-keyboard-response","15","108771","0.0-15.0","3T111IHZ5FCHAFPNSO6Q2ZRREQ19RK","A1I0DV4B4MFQCL","3MVY4USGB69K0BK9K576GJZ2CVDSII","","","<img src=""img/flower6.png"" style=""width:200px; border:14px solid green;"">","null","","","","","","","","",""
"466","","image-keyboard-response","16","109238","0.0-16.0","3T111IHZ5FCHAFPNSO6Q2ZRREQ19RK","A1I0DV4B4MFQCL","3MVY4USGB69K0BK9K576GJZ2CVDSII","","","img/flower5.png","75","467","2","1","2","","","","",""
"null","","html-keyboard-response","17","109545","0.0-17.0","3T111IHZ5FCHAFPNSO6Q2ZRREQ19RK","A1I0DV4B4MFQCL","3MVY4USGB69K0BK9K576GJZ2CVDSII","","","<img src=""img/flower5.png"" style=""width:200px; border:14px solid green;"">","null","","","","","","","","",""
"461","","image-keyboard-response","18","110007","0.0-18.0","3T111IHZ5FCHAFPNSO6Q2ZRREQ19RK","A1I0DV4B4MFQCL","3MVY4USGB69K0BK9K576GJZ2CVDSII","","","img/flower5.png","75","462","2","0","2","","","","",""
"null","","html-keyboard-response","19","110313","0.0-19.0","3T111IHZ5FCHAFPNSO6Q2ZRREQ19RK","A1I0DV4B4MFQCL","3MVY4USGB69K0BK9K576GJZ2CVDSII","","","<img src=""img/flower5.png"" style=""width:200px;border:14px solid red;"">","null","","","","","","","","",""
"468","","image-keyboard-response","20","110783","0.0-20.0","3T111IHZ5FCHAFPNSO6Q2ZRREQ19RK","A1I0DV4B4MFQCL","3MVY4USGB69K0BK9K576GJZ2CVDSII","","","img/flower5.png","75","469","2","1","2","","","","",""
"null","","html-keyboard-response","21","111085","0.0-21.0","3T111IHZ5FCHAFPNSO6Q2ZRREQ19RK","A1I0DV4B4MFQCL","3MVY4USGB69K0BK9K576GJZ2CVDSII","","","<img src=""img/flower5.png"" style=""width:200px; border:14px solid green;"">","null","","","","","","","","",""
"435","","image-keyboard-response","22","111520","0.0-22.0","3T111IHZ5FCHAFPNSO6Q2ZRREQ19RK","A1I0DV4B4MFQCL","3MVY4USGB69K0BK9K576GJZ2CVDSII","","","img/flower5.png","75","436","2","1","2","","","","",""
"null","","html-keyboard-response","23","111824","0.0-23.0","3T111IHZ5FCHAFPNSO6Q2ZRREQ19RK","A1I0DV4B4MFQCL","3MVY4USGB69K0BK9K576GJZ2CVDSII","","","<img src=""img/flower5.png"" style=""width:200px; border:14px solid green;"">","null","","","","","","","","",""
"420","","image-keyboard-response","24","112246","0.0-24.0","3T111IHZ5FCHAFPNSO6Q2ZRREQ19RK","A1I0DV4B4MFQCL","3MVY4USGB69K0BK9K576GJZ2CVDSII","","","img/flower5.png","75","421","2","1","2","","","","",""
"null","","html-keyboard-response","25","112552","0.0-25.0","3T111IHZ5FCHAFPNSO6Q2ZRREQ19RK","A1I0DV4B4MFQCL","3MVY4USGB69K0BK9K576GJZ2CVDSII","","","<img src=""img/flower5.png"" style=""width:200px; border:14px solid green;"">","null","","","","","","","","",""
"529","","image-keyboard-response","26","113081","0.0-26.0","3T111IHZ5FCHAFPNSO6Q2ZRREQ19RK","A1I0DV4B4MFQCL","3MVY4USGB69K0BK9K576GJZ2CVDSII","","","img/flower4.png","74","529","1","1","1","","","","",""
"null","","html-keyboard-response","27","113387","0.0-27.0","3T111IHZ5FCHAFPNSO6Q2ZRREQ19RK","A1I0DV4B4MFQCL","3MVY4USGB69K0BK9K576GJZ2CVDSII","","","<img src=""img/flower4.png"" style=""width:200px; border:14px solid green;"">","null","","","","","","","","",""
"420","","image-keyboard-response","28","113808","0.0-28.0","3T111IHZ5FCHAFPNSO6Q2ZRREQ19RK","A1I0DV4B4MFQCL","3MVY4USGB69K0BK9K576GJZ2CVDSII","","","img/flower4.png","74","421","1","1","1","","","","",""
"null","","html-keyboard-response","29","114110","0.0-29.0","3T111IHZ5FCHAFPNSO6Q2ZRREQ19RK","A1I0DV4B4MFQCL","3MVY4USGB69K0BK9K576GJZ2CVDSII","","","<img src=""img/flower4.png"" style=""width:200px; border:14px solid green;"">","null","","","","","","","","",""
"466","","image-keyboard-response","30","114578","0.0-30.0","3T111IHZ5FCHAFPNSO6Q2ZRREQ19RK","A1I0DV4B4MFQCL","3MVY4USGB69K0BK9K576GJZ2CVDSII","","","img/flower5.png","75","468","2","0","2","","","","",""
"null","","html-keyboard-response","31","114882","0.0-31.0","3T111IHZ5FCHAFPNSO6Q2ZRREQ19RK","A1I0DV4B4MFQCL","3MVY4USGB69K0BK9K576GJZ2CVDSII","","","<img src=""img/flower5.png"" style=""width:200px;border:14px solid red;"">","null","","","","","","","","",""
"576","","image-keyboard-response","32","115460","0.0-32.0","3T111IHZ5FCHAFPNSO6Q2ZRREQ19RK","A1I0DV4B4MFQCL","3MVY4USGB69K0BK9K576GJZ2CVDSII","","","img/flower6.png","76","577","3","1","3","","","","",""
"null","","html-keyboard-response","33","115761","0.0-33.0","3T111IHZ5FCHAFPNSO6Q2ZRREQ19RK","A1I0DV4B4MFQCL","3MVY4USGB69K0BK9K576GJZ2CVDSII","","","<img src=""img/flower6.png"" style=""width:200px; border:14px solid green;"">","null","","","","","","","","",""
"473","","image-keyboard-response","34","116234","0.0-34.0","3T111IHZ5FCHAFPNSO6Q2ZRREQ19RK","A1I0DV4B4MFQCL","3MVY4USGB69K0BK9K576GJZ2CVDSII","","","img/flower4.png","74","474","1","0","1","","","","",""
"null","","html-keyboard-response","35","116536","0.0-35.0","3T111IHZ5FCHAFPNSO6Q2ZRREQ19RK","A1I0DV4B4MFQCL","3MVY4USGB69K0BK9K576GJZ2CVDSII","","","<img src=""img/flower4.png"" style=""width:200px;border:14px solid red;"">","null","","","","","","","","",""
"456","","image-keyboard-response","36","116994","0.0-36.0","3T111IHZ5FCHAFPNSO6Q2ZRREQ19RK","A1I0DV4B4MFQCL","3MVY4USGB69K0BK9K576GJZ2CVDSII","","","img/flower4.png","74","457","1","1","1","","","","",""
"null","","html-keyboard-response","37","117300","0.0-37.0","3T111IHZ5FCHAFPNSO6Q2ZRREQ19RK","A1I0DV4B4MFQCL","3MVY4USGB69K0BK9K576GJZ2CVDSII","","","<img src=""img/flower4.png"" style=""width:200px; border:14px solid green;"">","null","","","","","","","","",""
"415","","image-keyboard-response","38","117716","0.0-38.0","3T111IHZ5FCHAFPNSO6Q2ZRREQ19RK","A1I0DV4B4MFQCL","3MVY4USGB69K0BK9K576GJZ2CVDSII","","","img/flower4.png","74","415","1","1","1","","","","",""
"null","","html-keyboard-response","39","118020","0.0-39.0","3T111IHZ5FCHAFPNSO6Q2ZRREQ19RK","A1I0DV4B4MFQCL","3MVY4USGB69K0BK9K576GJZ2CVDSII","","","<img src=""img/flower4.png"" style=""width:200px; border:14px solid green;"">","null","","","","","","","","",""
"517","","image-keyboard-response","40","118539","0.0-40.0","3T111IHZ5FCHAFPNSO6Q2ZRREQ19RK","A1I0DV4B4MFQCL","3MVY4USGB69K0BK9K576GJZ2CVDSII","","","img/flower6.png","76","519","3","1","3","","","","",""
"null","","html-keyboard-response","41","118845","0.0-41.0","3T111IHZ5FCHAFPNSO6Q2ZRREQ19RK","A1I0DV4B4MFQCL","3MVY4USGB69K0BK9K576GJZ2CVDSII","","","<img src=""img/flower6.png"" style=""width:200px; border:14px solid green;"">","null","","","","","","","","",""
"402","","image-keyboard-response","42","119248","0.0-42.0","3T111IHZ5FCHAFPNSO6Q2ZRREQ19RK","A1I0DV4B4MFQCL","3MVY4USGB69K0BK9K576GJZ2CVDSII","","","img/flower4.png","75","402","2","1","1","","","","",""
"null","","html-keyboard-response","43","119554","0.0-43.0","3T111IHZ5FCHAFPNSO6Q2ZRREQ19RK","A1I0DV4B4MFQCL","3MVY4USGB69K0BK9K576GJZ2CVDSII","","","<img src=""img/flower4.png"" style=""width:200px; border:14px solid green;"">","null","","","","","","","","",""
"37","","image-keyboard-response","44","119593","0.0-44.0","3T111IHZ5FCHAFPNSO6Q2ZRREQ19RK","A1I0DV4B4MFQCL","3MVY4USGB69K0BK9K576GJZ2CVDSII","","","img/flower5.png","74","39","1","0","2","","","","",""
"null","","html-keyboard-response","45","119893","0.0-45.0","3T111IHZ5FCHAFPNSO6Q2ZRREQ19RK","A1I0DV4B4MFQCL","3MVY4USGB69K0BK9K576GJZ2CVDSII","","","<img src=""img/flower5.png"" style=""width:200px;border:14px solid red;"">","null","","","","","","","","",""
"842","","image-keyboard-response","46","120736","0.0-46.0","3T111IHZ5FCHAFPNSO6Q2ZRREQ19RK","A1I0DV4B4MFQCL","3MVY4USGB69K0BK9K576GJZ2CVDSII","","","img/flower4.png","74","842","1","1","1","","","","",""
"null","","html-keyboard-response","47","121042","0.0-47.0","3T111IHZ5FCHAFPNSO6Q2ZRREQ19RK","A1I0DV4B4MFQCL","3MVY4USGB69K0BK9K576GJZ2CVDSII","","","<img src=""img/flower4.png"" style=""width:200px; border:14px solid green;"">","null","","","","","","","","",""
"495","","image-keyboard-response","48","121539","0.0-48.0","3T111IHZ5FCHAFPNSO6Q2ZRREQ19RK","A1I0DV4B4MFQCL","3MVY4USGB69K0BK9K576GJZ2CVDSII","","","img/flower4.png","74","497","1","1","1","","","","",""
"null","","html-keyboard-response","49","121844","0.0-49.0","3T111IHZ5FCHAFPNSO6Q2ZRREQ19RK","A1I0DV4B4MFQCL","3MVY4USGB69K0BK9K576GJZ2CVDSII","","","<img src=""img/flower4.png"" style=""width:200px; border:14px solid green;"">","null","","","","","","","","",""
"487","","image-keyboard-response","50","122332","0.0-50.0","3T111IHZ5FCHAFPNSO6Q2ZRREQ19RK","A1I0DV4B4MFQCL","3MVY4USGB69K0BK9K576GJZ2CVDSII","","","img/flower6.png","75","488","2","1","3","","","","",""
"null","","html-keyboard-response","51","122633","0.0-51.0","3T111IHZ5FCHAFPNSO6Q2ZRREQ19RK","A1I0DV4B4MFQCL","3MVY4USGB69K0BK9K576GJZ2CVDSII","","","<img src=""img/flower6.png"" style=""width:200px; border:14px solid green;"">","null","","","","","","","","",""
"420","","image-keyboard-response","52","123054","0.0-52.0","3T111IHZ5FCHAFPNSO6Q2ZRREQ19RK","A1I0DV4B4MFQCL","3MVY4USGB69K0BK9K576GJZ2CVDSII","","","img/flower6.png","76","421","3","1","3","","","","",""
"null","","html-keyboard-response","53","123355","0.0-53.0","3T111IHZ5FCHAFPNSO6Q2ZRREQ19RK","A1I0DV4B4MFQCL","3MVY4USGB69K0BK9K576GJZ2CVDSII","","","<img src=""img/flower6.png"" style=""width:200px; border:14px solid green;"">","null","","","","","","","","",""
"634","","image-keyboard-response","54","123989","0.0-54.0","3T111IHZ5FCHAFPNSO6Q2ZRREQ19RK","A1I0DV4B4MFQCL","3MVY4USGB69K0BK9K576GJZ2CVDSII","","","img/flower5.png","75","634","2","1","2","","","","",""
"null","","html-keyboard-response","55","124294","0.0-55.0","3T111IHZ5FCHAFPNSO6Q2ZRREQ19RK","A1I0DV4B4MFQCL","3MVY4USGB69K0BK9K576GJZ2CVDSII","","","<img src=""img/flower5.png"" style=""width:200px; border:14px solid green;"">","null","","","","","","","","",""
"437","","image-keyboard-response","56","124732","0.0-56.0","3T111IHZ5FCHAFPNSO6Q2ZRREQ19RK","A1I0DV4B4MFQCL","3MVY4USGB69K0BK9K576GJZ2CVDSII","","","img/flower4.png","74","438","1","0","1","","","","",""
"null","","html-keyboard-response","57","125037","0.0-57.0","3T111IHZ5FCHAFPNSO6Q2ZRREQ19RK","A1I0DV4B4MFQCL","3MVY4USGB69K0BK9K576GJZ2CVDSII","","","<img src=""img/flower4.png"" style=""width:200px;border:14px solid red;"">","null","","","","","","","","",""
"503","","image-keyboard-response","58","125541","0.0-58.0","3T111IHZ5FCHAFPNSO6Q2ZRREQ19RK","A1I0DV4B4MFQCL","3MVY4USGB69K0BK9K576GJZ2CVDSII","","","img/flower6.png","76","506","3","1","3","","","","",""
"null","","html-keyboard-response","59","125842","0.0-59.0","3T111IHZ5FCHAFPNSO6Q2ZRREQ19RK","A1I0DV4B4MFQCL","3MVY4USGB69K0BK9K576GJZ2CVDSII","","","<img src=""img/flower6.png"" style=""width:200px; border:14px solid green;"">","null","","","","","","","","",""
"447","","image-keyboard-response","60","126291","0.0-60.0","3T111IHZ5FCHAFPNSO6Q2ZRREQ19RK","A1I0DV4B4MFQCL","3MVY4USGB69K0BK9K576GJZ2CVDSII","","","img/flower6.png","76","448","3","0","3","","","","",""
"null","","html-keyboard-response","61","126593","0.0-61.0","3T111IHZ5FCHAFPNSO6Q2ZRREQ19RK","A1I0DV4B4MFQCL","3MVY4USGB69K0BK9K576GJZ2CVDSII","","","<img src=""img/flower6.png"" style=""width:200px;border:14px solid red;"">","null","","","","","","","","",""
"469","","image-keyboard-response","62","127062","0.0-62.0","3T111IHZ5FCHAFPNSO6Q2ZRREQ19RK","A1I0DV4B4MFQCL","3MVY4USGB69K0BK9K576GJZ2CVDSII","","","img/flower5.png","75","469","2","1","2","","","","",""
"null","","html-keyboard-response","63","127365","0.0-63.0","3T111IHZ5FCHAFPNSO6Q2ZRREQ19RK","A1I0DV4B4MFQCL","3MVY4USGB69K0BK9K576GJZ2CVDSII","","","<img src=""img/flower5.png"" style=""width:200px; border:14px solid green;"">","null","","","","","","","","",""
"14369","","instructions","64","141734","0.0-64.0","3T111IHZ5FCHAFPNSO6Q2ZRREQ19RK","A1I0DV4B4MFQCL","3MVY4USGB69K0BK9K576GJZ2CVDSII","","[{""page_index"":0,""viewing_time"":4780},{""page_index"":1,""viewing_time"":9589}]","","","","","","","","","","",""
"755","","image-keyboard-response","65","142491","0.0-65.0","3T111IHZ5FCHAFPNSO6Q2ZRREQ19RK","A1I0DV4B4MFQCL","3MVY4USGB69K0BK9K576GJZ2CVDSII","","","img/flower5.png","74","757","1","0","2","","","","",""
"null","","html-keyboard-response","66","142794","0.0-66.0","3T111IHZ5FCHAFPNSO6Q2ZRREQ19RK","A1I0DV4B4MFQCL","3MVY4USGB69K0BK9K576GJZ2CVDSII","","","<img src=""img/flower5.png"" style=""width:200px;border:14px solid red;"">","null","","","","","","","","",""
"845","","image-keyboard-response","67","143639","0.0-67.0","3T111IHZ5FCHAFPNSO6Q2ZRREQ19RK","A1I0DV4B4MFQCL","3MVY4USGB69K0BK9K576GJZ2CVDSII","","","img/flower6.png","76","845","3","0","3","","","","",""
"null","","html-keyboard-response","68","143941","0.0-68.0","3T111IHZ5FCHAFPNSO6Q2ZRREQ19RK","A1I0DV4B4MFQCL","3MVY4USGB69K0BK9K576GJZ2CVDSII","","","<img src=""img/flower6.png"" style=""width:200px;border:14px solid red;"">","null","","","","","","","","",""
"474","","image-keyboard-response","69","144416","0.0-69.0","3T111IHZ5FCHAFPNSO6Q2ZRREQ19RK","A1I0DV4B4MFQCL","3MVY4USGB69K0BK9K576GJZ2CVDSII","","","img/flower6.png","76","474","3","1","3","","","","",""
"null","","html-keyboard-response","70","144722","0.0-70.0","3T111IHZ5FCHAFPNSO6Q2ZRREQ19RK","A1I0DV4B4MFQCL","3MVY4USGB69K0BK9K576GJZ2CVDSII","","","<img src=""img/flower6.png"" style=""width:200px; border:14px solid green;"">","null","","","","","","","","",""
"494","","image-keyboard-response","71","145218","0.0-71.0","3T111IHZ5FCHAFPNSO6Q2ZRREQ19RK","A1I0DV4B4MFQCL","3MVY4USGB69K0BK9K576GJZ2CVDSII","","","img/flower5.png","75","495","2","1","2","","","","",""
"null","","html-keyboard-response","72","145519","0.0-72.0","3T111IHZ5FCHAFPNSO6Q2ZRREQ19RK","A1I0DV4B4MFQCL","3MVY4USGB69K0BK9K576GJZ2CVDSII","","","<img src=""img/flower5.png"" style=""width:200px; border:14px solid green;"">","null","","","","","","","","",""
"409","","image-keyboard-response","73","145929","0.0-73.0","3T111IHZ5FCHAFPNSO6Q2ZRREQ19RK","A1I0DV4B4MFQCL","3MVY4USGB69K0BK9K576GJZ2CVDSII","","","img/flower5.png","75","410","2","1","2","","","","",""
"null","","html-keyboard-response","74","146235","0.0-74.0","3T111IHZ5FCHAFPNSO6Q2ZRREQ19RK","A1I0DV4B4MFQCL","3MVY4USGB69K0BK9K576GJZ2CVDSII","","","<img src=""img/flower5.png"" style=""width:200px; border:14px solid green;"">","null","","","","","","","","",""
"412","","image-keyboard-response","75","146648","0.0-75.0","3T111IHZ5FCHAFPNSO6Q2ZRREQ19RK","A1I0DV4B4MFQCL","3MVY4USGB69K0BK9K576GJZ2CVDSII","","","img/flower4.png","74","413","1","1","1","","","","",""
"null","","html-keyboard-response","76","146954","0.0-76.0","3T111IHZ5FCHAFPNSO6Q2ZRREQ19RK","A1I0DV4B4MFQCL","3MVY4USGB69K0BK9K576GJZ2CVDSII","","","<img src=""img/flower4.png"" style=""width:200px; border:14px solid green;"">","null","","","","","","","","",""
"572","","image-keyboard-response","77","147527","0.0-77.0","3T111IHZ5FCHAFPNSO6Q2ZRREQ19RK","A1I0DV4B4MFQCL","3MVY4USGB69K0BK9K576GJZ2CVDSII","","","img/flower5.png","75","573","2","1","2","","","","",""
"null","","html-keyboard-response","78","147828","0.0-78.0","3T111IHZ5FCHAFPNSO6Q2ZRREQ19RK","A1I0DV4B4MFQCL","3MVY4USGB69K0BK9K576GJZ2CVDSII","","","<img src=""img/flower5.png"" style=""width:200px; border:14px solid green;"">","null","","","","","","","","",""
"379","","image-keyboard-response","79","148207","0.0-79.0","3T111IHZ5FCHAFPNSO6Q2ZRREQ19RK","A1I0DV4B4MFQCL","3MVY4USGB69K0BK9K576GJZ2CVDSII","","","img/flower5.png","76","380","3","0","2","","","","",""
"null","","html-keyboard-response","80","148513","0.0-80.0","3T111IHZ5FCHAFPNSO6Q2ZRREQ19RK","A1I0DV4B4MFQCL","3MVY4USGB69K0BK9K576GJZ2CVDSII","","","<img src=""img/flower5.png"" style=""width:200px;border:14px solid red;"">","null","","","","","","","","",""
"394","","image-keyboard-response","81","148907","0.0-81.0","3T111IHZ5FCHAFPNSO6Q2ZRREQ19RK","A1I0DV4B4MFQCL","3MVY4USGB69K0BK9K576GJZ2CVDSII","","","img/flower4.png","74","395","1","0","1","","","","",""
"null","","html-keyboard-response","82","149212","0.0-82.0","3T111IHZ5FCHAFPNSO6Q2ZRREQ19RK","A1I0DV4B4MFQCL","3MVY4USGB69K0BK9K576GJZ2CVDSII","","","<img src=""img/flower4.png"" style=""width:200px;border:14px solid red;"">","null","","","","","","","","",""
"348","","image-keyboard-response","83","149561","0.0-83.0","3T111IHZ5FCHAFPNSO6Q2ZRREQ19RK","A1I0DV4B4MFQCL","3MVY4USGB69K0BK9K576GJZ2CVDSII","","","img/flower4.png","75","349","2","1","1","","","","",""
"null","","html-keyboard-response","84","149868","0.0-84.0","3T111IHZ5FCHAFPNSO6Q2ZRREQ19RK","A1I0DV4B4MFQCL","3MVY4USGB69K0BK9K576GJZ2CVDSII","","","<img src=""img/flower4.png"" style=""width:200px; border:14px solid green;"">","null","","","","","","","","",""
"378","","image-keyboard-response","85","150248","0.0-85.0","3T111IHZ5FCHAFPNSO6Q2ZRREQ19RK","A1I0DV4B4MFQCL","3MVY4USGB69K0BK9K576GJZ2CVDSII","","","img/flower4.png","74","379","1","1","1","","","","",""
"null","","html-keyboard-response","86","150550","0.0-86.0","3T111IHZ5FCHAFPNSO6Q2ZRREQ19RK","A1I0DV4B4MFQCL","3MVY4USGB69K0BK9K576GJZ2CVDSII","","","<img src=""img/flower4.png"" style=""width:200px; border:14px solid green;"">","null","","","","","","","","",""
"372","","image-keyboard-response","87","150923","0.0-87.0","3T111IHZ5FCHAFPNSO6Q2ZRREQ19RK","A1I0DV4B4MFQCL","3MVY4USGB69K0BK9K576GJZ2CVDSII","","","img/flower6.png","75","374","2","0","3","","","","",""
"null","","html-keyboard-response","88","151229","0.0-88.0","3T111IHZ5FCHAFPNSO6Q2ZRREQ19RK","A1I0DV4B4MFQCL","3MVY4USGB69K0BK9K576GJZ2CVDSII","","","<img src=""img/flower6.png"" style=""width:200px;border:14px solid red;"">","null","","","","","","","","",""
"331","","image-keyboard-response","89","151561","0.0-89.0","3T111IHZ5FCHAFPNSO6Q2ZRREQ19RK","A1I0DV4B4MFQCL","3MVY4USGB69K0BK9K576GJZ2CVDSII","","","img/flower6.png","76","332","3","1","3","","","","",""
"null","","html-keyboard-response","90","151869","0.0-90.0","3T111IHZ5FCHAFPNSO6Q2ZRREQ19RK","A1I0DV4B4MFQCL","3MVY4USGB69K0BK9K576GJZ2CVDSII","","","<img src=""img/flower6.png"" style=""width:200px; border:14px solid green;"">","null","","","","","","","","",""
"557","","image-keyboard-response","91","152427","0.0-91.0","3T111IHZ5FCHAFPNSO6Q2ZRREQ19RK","A1I0DV4B4MFQCL","3MVY4USGB69K0BK9K576GJZ2CVDSII","","","img/flower4.png","74","558","1","1","1","","","","",""
"null","","html-keyboard-response","92","152733","0.0-92.0","3T111IHZ5FCHAFPNSO6Q2ZRREQ19RK","A1I0DV4B4MFQCL","3MVY4USGB69K0BK9K576GJZ2CVDSII","","","<img src=""img/flower4.png"" style=""width:200px; border:14px solid green;"">","null","","","","","","","","",""
"416","","image-keyboard-response","93","153150","0.0-93.0","3T111IHZ5FCHAFPNSO6Q2ZRREQ19RK","A1I0DV4B4MFQCL","3MVY4USGB69K0BK9K576GJZ2CVDSII","","","img/flower4.png","74","418","1","1","1","","","","",""
"null","","html-keyboard-response","94","153456","0.0-94.0","3T111IHZ5FCHAFPNSO6Q2ZRREQ19RK","A1I0DV4B4MFQCL","3MVY4USGB69K0BK9K576GJZ2CVDSII","","","<img src=""img/flower4.png"" style=""width:200px; border:14px solid green;"">","null","","","","","","","","",""
"387","","image-keyboard-response","95","153843","0.0-95.0","3T111IHZ5FCHAFPNSO6Q2ZRREQ19RK","A1I0DV4B4MFQCL","3MVY4USGB69K0BK9K576GJZ2CVDSII","","","img/flower4.png","74","388","1","0","1","","","","",""
"null","","html-keyboard-response","96","154145","0.0-96.0","3T111IHZ5FCHAFPNSO6Q2ZRREQ19RK","A1I0DV4B4MFQCL","3MVY4USGB69K0BK9K576GJZ2CVDSII","","","<img src=""img/flower4.png"" style=""width:200px;border:14px solid red;"">","null","","","","","","","","",""
"347","","image-keyboard-response","97","154493","0.0-97.0","3T111IHZ5FCHAFPNSO6Q2ZRREQ19RK","A1I0DV4B4MFQCL","3MVY4USGB69K0BK9K576GJZ2CVDSII","","","img/flower5.png","75","348","2","1","2","","","","",""
"null","","html-keyboard-response","98","154794","0.0-98.0","3T111IHZ5FCHAFPNSO6Q2ZRREQ19RK","A1I0DV4B4MFQCL","3MVY4USGB69K0BK9K576GJZ2CVDSII","","","<img src=""img/flower5.png"" style=""width:200px; border:14px solid green;"">","null","","","","","","","","",""
"623","","image-keyboard-response","99","155418","0.0-99.0","3T111IHZ5FCHAFPNSO6Q2ZRREQ19RK","A1I0DV4B4MFQCL","3MVY4USGB69K0BK9K576GJZ2CVDSII","","","img/flower6.png","76","623","3","0","3","","","","",""
"null","","html-keyboard-response","100","155722","0.0-100.0","3T111IHZ5FCHAFPNSO6Q2ZRREQ19RK","A1I0DV4B4MFQCL","3MVY4USGB69K0BK9K576GJZ2CVDSII","","","<img src=""img/flower6.png"" style=""width:200px;border:14px solid red;"">","null","","","","","","","","",""
"467","","image-keyboard-response","101","156190","0.0-101.0","3T111IHZ5FCHAFPNSO6Q2ZRREQ19RK","A1I0DV4B4MFQCL","3MVY4USGB69K0BK9K576GJZ2CVDSII","","","img/flower4.png","74","468","1","0","1","","","","",""
"null","","html-keyboard-response","102","156496","0.0-102.0","3T111IHZ5FCHAFPNSO6Q2ZRREQ19RK","A1I0DV4B4MFQCL","3MVY4USGB69K0BK9K576GJZ2CVDSII","","","<img src=""img/flower4.png"" style=""width:200px;border:14px solid red;"">","null","","","","","","","","",""
"410","","image-keyboard-response","103","156908","0.0-103.0","3T111IHZ5FCHAFPNSO6Q2ZRREQ19RK","A1I0DV4B4MFQCL","3MVY4USGB69K0BK9K576GJZ2CVDSII","","","img/flower6.png","76","411","3","1","3","","","","",""
"null","","html-keyboard-response","104","157209","0.0-104.0","3T111IHZ5FCHAFPNSO6Q2ZRREQ19RK","A1I0DV4B4MFQCL","3MVY4USGB69K0BK9K576GJZ2CVDSII","","","<img src=""img/flower6.png"" style=""width:200px; border:14px solid green;"">","null","","","","","","","","",""
"377","","image-keyboard-response","105","157586","0.0-105.0","3T111IHZ5FCHAFPNSO6Q2ZRREQ19RK","A1I0DV4B4MFQCL","3MVY4USGB69K0BK9K576GJZ2CVDSII","","","img/flower4.png","74","378","1","1","1","","","","",""
"null","","html-keyboard-response","106","157891","0.0-106.0","3T111IHZ5FCHAFPNSO6Q2ZRREQ19RK","A1I0DV4B4MFQCL","3MVY4USGB69K0BK9K576GJZ2CVDSII","","","<img src=""img/flower4.png"" style=""width:200px; border:14px solid green;"">","null","","","","","","","","",""
"298","","image-keyboard-response","107","158191","0.0-107.0","3T111IHZ5FCHAFPNSO6Q2ZRREQ19RK","A1I0DV4B4MFQCL","3MVY4USGB69K0BK9K576GJZ2CVDSII","","","img/flower6.png","76","299","3","0","3","","","","",""
"null","","html-keyboard-response","108","158494","0.0-108.0","3T111IHZ5FCHAFPNSO6Q2ZRREQ19RK","A1I0DV4B4MFQCL","3MVY4USGB69K0BK9K576GJZ2CVDSII","","","<img src=""img/flower6.png"" style=""width:200px;border:14px solid red;"">","null","","","","","","","","",""
"322","","image-keyboard-response","109","158816","0.0-109.0","3T111IHZ5FCHAFPNSO6Q2ZRREQ19RK","A1I0DV4B4MFQCL","3MVY4USGB69K0BK9K576GJZ2CVDSII","","","img/flower5.png","74","323","1","0","2","","","","",""
"null","","html-keyboard-response","110","159123","0.0-110.0","3T111IHZ5FCHAFPNSO6Q2ZRREQ19RK","A1I0DV4B4MFQCL","3MVY4USGB69K0BK9K576GJZ2CVDSII","","","<img src=""img/flower5.png"" style=""width:200px;border:14px solid red;"">","null","","","","","","","","",""
"372","","image-keyboard-response","111","159496","0.0-111.0","3T111IHZ5FCHAFPNSO6Q2ZRREQ19RK","A1I0DV4B4MFQCL","3MVY4USGB69K0BK9K576GJZ2CVDSII","","","img/flower5.png","75","373","2","1","2","","","","",""
"null","","html-keyboard-response","112","159798","0.0-112.0","3T111IHZ5FCHAFPNSO6Q2ZRREQ19RK","A1I0DV4B4MFQCL","3MVY4USGB69K0BK9K576GJZ2CVDSII","","","<img src=""img/flower5.png"" style=""width:200px; border:14px solid green;"">","null","","","","","","","","",""
"500","","image-keyboard-response","113","160298","0.0-113.0","3T111IHZ5FCHAFPNSO6Q2ZRREQ19RK","A1I0DV4B4MFQCL","3MVY4USGB69K0BK9K576GJZ2CVDSII","","","img/flower4.png","75","500","2","1","1","","","","",""
"null","","html-keyboard-response","114","160600","0.0-114.0","3T111IHZ5FCHAFPNSO6Q2ZRREQ19RK","A1I0DV4B4MFQCL","3MVY4USGB69K0BK9K576GJZ2CVDSII","","","<img src=""img/flower4.png"" style=""width:200px; border:14px solid green;"">","null","","","","","","","","",""
"337","","image-keyboard-response","115","160937","0.0-115.0","3T111IHZ5FCHAFPNSO6Q2ZRREQ19RK","A1I0DV4B4MFQCL","3MVY4USGB69K0BK9K576GJZ2CVDSII","","","img/flower6.png","74","338","1","1","3","","","","",""
"null","","html-keyboard-response","116","161243","0.0-116.0","3T111IHZ5FCHAFPNSO6Q2ZRREQ19RK","A1I0DV4B4MFQCL","3MVY4USGB69K0BK9K576GJZ2CVDSII","","","<img src=""img/flower6.png"" style=""width:200px; border:14px solid green;"">","null","","","","","","","","",""
"430","","image-keyboard-response","117","161674","0.0-117.0","3T111IHZ5FCHAFPNSO6Q2ZRREQ19RK","A1I0DV4B4MFQCL","3MVY4USGB69K0BK9K576GJZ2CVDSII","","","img/flower6.png","75","430","2","0","3","","","","",""
"null","","html-keyboard-response","118","161977","0.0-118.0","3T111IHZ5FCHAFPNSO6Q2ZRREQ19RK","A1I0DV4B4MFQCL","3MVY4USGB69K0BK9K576GJZ2CVDSII","","","<img src=""img/flower6.png"" style=""width:200px;border:14px solid red;"">","null","","","","","","","","",""
"283","","image-keyboard-response","119","162260","0.0-119.0","3T111IHZ5FCHAFPNSO6Q2ZRREQ19RK","A1I0DV4B4MFQCL","3MVY4USGB69K0BK9K576GJZ2CVDSII","","","img/flower5.png","76","284","3","1","2","","","","",""
"null","","html-keyboard-response","120","162567","0.0-120.0","3T111IHZ5FCHAFPNSO6Q2ZRREQ19RK","A1I0DV4B4MFQCL","3MVY4USGB69K0BK9K576GJZ2CVDSII","","","<img src=""img/flower5.png"" style=""width:200px; border:14px solid green;"">","null","","","","","","","","",""
"335","","image-keyboard-response","121","162902","0.0-121.0","3T111IHZ5FCHAFPNSO6Q2ZRREQ19RK","A1I0DV4B4MFQCL","3MVY4USGB69K0BK9K576GJZ2CVDSII","","","img/flower6.png","74","335","1","0","3","","","","",""
"null","","html-keyboard-response","122","163208","0.0-122.0","3T111IHZ5FCHAFPNSO6Q2ZRREQ19RK","A1I0DV4B4MFQCL","3MVY4USGB69K0BK9K576GJZ2CVDSII","","","<img src=""img/flower6.png"" style=""width:200px;border:14px solid red;"">","null","","","","","","","","",""
"617","","image-keyboard-response","123","163827","0.0-123.0","3T111IHZ5FCHAFPNSO6Q2ZRREQ19RK","A1I0DV4B4MFQCL","3MVY4USGB69K0BK9K576GJZ2CVDSII","","","img/flower5.png","75","618","2","1","2","","","","",""
"null","","html-keyboard-response","124","164128","0.0-124.0","3T111IHZ5FCHAFPNSO6Q2ZRREQ19RK","A1I0DV4B4MFQCL","3MVY4USGB69K0BK9K576GJZ2CVDSII","","","<img src=""img/flower5.png"" style=""width:200px; border:14px solid green;"">","null","","","","","","","","",""
"4071","","instructions","125","168200","0.0-125.0","3T111IHZ5FCHAFPNSO6Q2ZRREQ19RK","A1I0DV4B4MFQCL","3MVY4USGB69K0BK9K576GJZ2CVDSII","","[{""page_index"":0,""viewing_time"":4070}]","","","","","","","","","","",""
"791","","image-keyboard-response","126","168992","0.0-126.0","3T111IHZ5FCHAFPNSO6Q2ZRREQ19RK","A1I0DV4B4MFQCL","3MVY4USGB69K0BK9K576GJZ2CVDSII","","","img/flower2.png","74","793","1","1","1","2","1,0,0,1,1,0,1,0,1","1,0,0,1,1,0,1,0,1","1",""
"null","","html-keyboard-response","127","169295","0.0-127.0","3T111IHZ5FCHAFPNSO6Q2ZRREQ19RK","A1I0DV4B4MFQCL","3MVY4USGB69K0BK9K576GJZ2CVDSII","","","<img src=""img/flower2.png"" style=""width:200px; border:14px solid green;"">","null","","","","","","","","",""
"844","","image-keyboard-response","128","170139","0.0-128.0","3T111IHZ5FCHAFPNSO6Q2ZRREQ19RK","A1I0DV4B4MFQCL","3MVY4USGB69K0BK9K576GJZ2CVDSII","","","img/flower1.png","75","845","2","1","2","2","1,0,0,1,1,0,1,0,1","1,0,0,1,1,0,1,0,1","1",""
"null","","html-keyboard-response","129","170443","0.0-129.0","3T111IHZ5FCHAFPNSO6Q2ZRREQ19RK","A1I0DV4B4MFQCL","3MVY4USGB69K0BK9K576GJZ2CVDSII","","","<img src=""img/flower1.png"" style=""width:200px; border:14px solid green;"">","null","","","","","","","","",""
"477","","image-keyboard-response","130","170921","0.0-130.0","3T111IHZ5FCHAFPNSO6Q2ZRREQ19RK","A1I0DV4B4MFQCL","3MVY4USGB69K0BK9K576GJZ2CVDSII","","","img/flower1.png","75","478","2","1","2","2","1,0,0,1,1,0,1,0,1","1,0,0,1,1,0,1,0,1","1",""
"null","","html-keyboard-response","131","171227","0.0-131.0","3T111IHZ5FCHAFPNSO6Q2ZRREQ19RK","A1I0DV4B4MFQCL","3MVY4USGB69K0BK9K576GJZ2CVDSII","","","<img src=""img/flower1.png"" style=""width:200px; border:14px solid green;"">","null","","","","","","","","",""
"466","","image-keyboard-response","132","171695","0.0-132.0","3T111IHZ5FCHAFPNSO6Q2ZRREQ19RK","A1I0DV4B4MFQCL","3MVY4USGB69K0BK9K576GJZ2CVDSII","","","img/flower1.png","75","467","2","1","2","2","1,0,0,1,1,0,1,0,1","1,0,0,1,1,0,1,0,1","1",""
"null","","html-keyboard-response","133","171996","0.0-133.0","3T111IHZ5FCHAFPNSO6Q2ZRREQ19RK","A1I0DV4B4MFQCL","3MVY4USGB69K0BK9K576GJZ2CVDSII","","","<img src=""img/flower1.png"" style=""width:200px; border:14px solid green;"">","null","","","","","","","","",""
"437","","image-keyboard-response","134","172435","0.0-134.0","3T111IHZ5FCHAFPNSO6Q2ZRREQ19RK","A1I0DV4B4MFQCL","3MVY4USGB69K0BK9K576GJZ2CVDSII","","","img/flower2.png","74","437","1","1","1","2","1,0,0,1,1,0,1,0,1","1,0,0,1,1,0,1,0,1","1",""
"null","","html-keyboard-response","135","172741","0.0-135.0","3T111IHZ5FCHAFPNSO6Q2ZRREQ19RK","A1I0DV4B4MFQCL","3MVY4USGB69K0BK9K576GJZ2CVDSII","","","<img src=""img/flower2.png"" style=""width:200px; border:14px solid green;"">","null","","","","","","","","",""
"418","","image-keyboard-response","136","173159","0.0-136.0","3T111IHZ5FCHAFPNSO6Q2ZRREQ19RK","A1I0DV4B4MFQCL","3MVY4USGB69K0BK9K576GJZ2CVDSII","","","img/flower2.png","74","418","1","1","1","2","1,0,0,1,1,0,1,0,1","1,0,0,1,1,0,1,0,1","1",""
"null","","html-keyboard-response","137","173463","0.0-137.0","3T111IHZ5FCHAFPNSO6Q2ZRREQ19RK","A1I0DV4B4MFQCL","3MVY4USGB69K0BK9K576GJZ2CVDSII","","","<img src=""img/flower2.png"" style=""width:200px; border:14px solid green;"">","null","","","","","","","","",""
"632","","image-keyboard-response","138","174096","0.0-138.0","3T111IHZ5FCHAFPNSO6Q2ZRREQ19RK","A1I0DV4B4MFQCL","3MVY4USGB69K0BK9K576GJZ2CVDSII","","","img/flower6.png","76","632","3","1","3","2","1,0,0,1,1,0,1,0,1","1,0,0,1,1,0,1,0,1","1",""
"null","","html-keyboard-response","139","174396","0.0-139.0","3T111IHZ5FCHAFPNSO6Q2ZRREQ19RK","A1I0DV4B4MFQCL","3MVY4USGB69K0BK9K576GJZ2CVDSII","","","<img src=""img/flower6.png"" style=""width:200px; border:14px solid green;"">","null","","","","","","","","",""
"430","","image-keyboard-response","140","174828","0.0-140.0","3T111IHZ5FCHAFPNSO6Q2ZRREQ19RK","A1I0DV4B4MFQCL","3MVY4USGB69K0BK9K576GJZ2CVDSII","","","img/flower6.png","76","432","3","1","3","2","1,0,0,1,1,0,1,0,1","1,0,0,1,1,0,1,0,1","1",""
"null","","html-keyboard-response","141","175161","0.0-141.0","3T111IHZ5FCHAFPNSO6Q2ZRREQ19RK","A1I0DV4B4MFQCL","3MVY4USGB69K0BK9K576GJZ2CVDSII","","","<img src=""img/flower6.png"" style=""width:200px; border:14px solid green;"">","null","","","","","","","","",""
"402","","image-keyboard-response","142","175563","0.0-142.0","3T111IHZ5FCHAFPNSO6Q2ZRREQ19RK","A1I0DV4B4MFQCL","3MVY4USGB69K0BK9K576GJZ2CVDSII","","","img/flower6.png","76","403","3","1","3","2","1,0,0,1,1,0,1,0,1","1,0,0,1,1,0,1,0,1","1",""
"null","","html-keyboard-response","143","175866","0.0-143.0","3T111IHZ5FCHAFPNSO6Q2ZRREQ19RK","A1I0DV4B4MFQCL","3MVY4USGB69K0BK9K576GJZ2CVDSII","","","<img src=""img/flower6.png"" style=""width:200px; border:14px solid green;"">","null","","","","","","","","",""
"529","","image-keyboard-response","144","176397","0.0-144.0","3T111IHZ5FCHAFPNSO6Q2ZRREQ19RK","A1I0DV4B4MFQCL","3MVY4USGB69K0BK9K576GJZ2CVDSII","","","img/flower1.png","75","531","2","1","2","2","1,0,0,1,1,0,1,0,1","1,0,0,1,1,0,1,0,1","1",""
"null","","html-keyboard-response","145","176702","0.0-145.0","3T111IHZ5FCHAFPNSO6Q2ZRREQ19RK","A1I0DV4B4MFQCL","3MVY4USGB69K0BK9K576GJZ2CVDSII","","","<img src=""img/flower1.png"" style=""width:200px; border:14px solid green;"">","null","","","","","","","","",""
"422","","image-keyboard-response","146","177126","0.0-146.0","3T111IHZ5FCHAFPNSO6Q2ZRREQ19RK","A1I0DV4B4MFQCL","3MVY4USGB69K0BK9K576GJZ2CVDSII","","","img/flower1.png","75","422","2","1","2","2","1,0,0,1,1,0,1,0,1","1,0,0,1,1,0,1,0,1","1",""
"null","","html-keyboard-response","147","177431","0.0-147.0","3T111IHZ5FCHAFPNSO6Q2ZRREQ19RK","A1I0DV4B4MFQCL","3MVY4USGB69K0BK9K576GJZ2CVDSII","","","<img src=""img/flower1.png"" style=""width:200px; border:14px solid green;"">","null","","","","","","","","",""
"400","","image-keyboard-response","148","177833","0.0-148.0","3T111IHZ5FCHAFPNSO6Q2ZRREQ19RK","A1I0DV4B4MFQCL","3MVY4USGB69K0BK9K576GJZ2CVDSII","","","img/flower1.png","75","401","2","1","2","2","1,0,0,1,1,0,1,0,1","1,0,0,1,1,0,1,0,1","1",""
"null","","html-keyboard-response","149","178136","0.0-149.0","3T111IHZ5FCHAFPNSO6Q2ZRREQ19RK","A1I0DV4B4MFQCL","3MVY4USGB69K0BK9K576GJZ2CVDSII","","","<img src=""img/flower1.png"" style=""width:200px; border:14px solid green;"">","null","","","","","","","","",""
"391","","image-keyboard-response","150","178528","0.0-150.0","3T111IHZ5FCHAFPNSO6Q2ZRREQ19RK","A1I0DV4B4MFQCL","3MVY4USGB69K0BK9K576GJZ2CVDSII","","","img/flower6.png","74","392","1","1","3","2","1,0,0,1,1,0,1,0,1","1,0,0,1,1,0,1,0,1","1",""
"null","","html-keyboard-response","151","178833","0.0-151.0","3T111IHZ5FCHAFPNSO6Q2ZRREQ19RK","A1I0DV4B4MFQCL","3MVY4USGB69K0BK9K576GJZ2CVDSII","","","<img src=""img/flower6.png"" style=""width:200px; border:14px solid green;"">","null","","","","","","","","",""
"249","","image-keyboard-response","152","179083","0.0-152.0","3T111IHZ5FCHAFPNSO6Q2ZRREQ19RK","A1I0DV4B4MFQCL","3MVY4USGB69K0BK9K576GJZ2CVDSII","","","img/flower1.png","76","250","3","0","2","2","1,0,0,1,1,0,1,0,1","1,0,0,1,1,0,1,0,1","1",""
"null","","html-keyboard-response","153","179385","0.0-153.0","3T111IHZ5FCHAFPNSO6Q2ZRREQ19RK","A1I0DV4B4MFQCL","3MVY4USGB69K0BK9K576GJZ2CVDSII","","","<img src=""img/flower1.png"" style=""width:200px;border:14px solid red;"">","null","","","","","","","","",""
"312","","image-keyboard-response","154","179698","0.0-154.0","3T111IHZ5FCHAFPNSO6Q2ZRREQ19RK","A1I0DV4B4MFQCL","3MVY4USGB69K0BK9K576GJZ2CVDSII","","","img/flower2.png","75","312","2","0","1","2","1,0,0,1,1,0,1,0,1","1,0,0,1,1,0,1,0,1","1",""
"null","","html-keyboard-response","155","180000","0.0-155.0","3T111IHZ5FCHAFPNSO6Q2ZRREQ19RK","A1I0DV4B4MFQCL","3MVY4USGB69K0BK9K576GJZ2CVDSII","","","<img src=""img/flower2.png"" style=""width:200px;border:14px solid red;"">","null","","","","","","","","",""
"428","","image-keyboard-response","156","180429","0.0-156.0","3T111IHZ5FCHAFPNSO6Q2ZRREQ19RK","A1I0DV4B4MFQCL","3MVY4USGB69K0BK9K576GJZ2CVDSII","","","img/flower2.png","74","429","1","1","1","2","1,0,0,1,1,0,1,0,1","1,0,0,1,1,0,1,0,1","1",""
"null","","html-keyboard-response","157","180740","0.0-157.0","3T111IHZ5FCHAFPNSO6Q2ZRREQ19RK","A1I0DV4B4MFQCL","3MVY4USGB69K0BK9K576GJZ2CVDSII","","","<img src=""img/flower2.png"" style=""width:200px; border:14px solid green;"">","null","","","","","","","","",""
"692","","image-keyboard-response","158","181433","0.0-158.0","3T111IHZ5FCHAFPNSO6Q2ZRREQ19RK","A1I0DV4B4MFQCL","3MVY4USGB69K0BK9K576GJZ2CVDSII","","","img/flower6.png","76","692","3","1","3","2","1,0,0,1,1,0,1,0,1","1,0,0,1,1,0,1,0,1","1",""
"null","","html-keyboard-response","159","181739","0.0-159.0","3T111IHZ5FCHAFPNSO6Q2ZRREQ19RK","A1I0DV4B4MFQCL","3MVY4USGB69K0BK9K576GJZ2CVDSII","","","<img src=""img/flower6.png"" style=""width:200px; border:14px solid green;"">","null","","","","","","","","",""
"444","","image-keyboard-response","160","182184","0.0-160.0","3T111IHZ5FCHAFPNSO6Q2ZRREQ19RK","A1I0DV4B4MFQCL","3MVY4USGB69K0BK9K576GJZ2CVDSII","","","img/flower2.png","75","446","2","0","1","2","1,0,0,1,1,0,1,0,1","1,0,0,1,1,0,1,0,1","1",""
"null","","html-keyboard-response","161","182486","0.0-161.0","3T111IHZ5FCHAFPNSO6Q2ZRREQ19RK","A1I0DV4B4MFQCL","3MVY4USGB69K0BK9K576GJZ2CVDSII","","","<img src=""img/flower2.png"" style=""width:200px;border:14px solid red;"">","null","","","","","","","","",""
"668","","image-keyboard-response","162","183155","0.0-162.0","3T111IHZ5FCHAFPNSO6Q2ZRREQ19RK","A1I0DV4B4MFQCL","3MVY4USGB69K0BK9K576GJZ2CVDSII","","","img/flower2.png","74","669","1","1","1","2","1,0,0,1,1,0,1,0,1","1,0,0,1,1,0,1,0,1","1",""
"null","","html-keyboard-response","163","183460","0.0-163.0","3T111IHZ5FCHAFPNSO6Q2ZRREQ19RK","A1I0DV4B4MFQCL","3MVY4USGB69K0BK9K576GJZ2CVDSII","","","<img src=""img/flower2.png"" style=""width:200px; border:14px solid green;"">","null","","","","","","","","",""
"499","","image-keyboard-response","164","183959","0.0-164.0","3T111IHZ5FCHAFPNSO6Q2ZRREQ19RK","A1I0DV4B4MFQCL","3MVY4USGB69K0BK9K576GJZ2CVDSII","","","img/flower6.png","75","500","2","0","3","2","1,0,0,1,1,0,1,0,1","1,0,0,1,1,0,1,0,1","1",""
"null","","html-keyboard-response","165","184260","0.0-165.0","3T111IHZ5FCHAFPNSO6Q2ZRREQ19RK","A1I0DV4B4MFQCL","3MVY4USGB69K0BK9K576GJZ2CVDSII","","","<img src=""img/flower6.png"" style=""width:200px;border:14px solid red;"">","null","","","","","","","","",""
"259","","image-keyboard-response","166","184519","0.0-166.0","3T111IHZ5FCHAFPNSO6Q2ZRREQ19RK","A1I0DV4B4MFQCL","3MVY4USGB69K0BK9K576GJZ2CVDSII","","","img/flower6.png","76","260","3","1","3","2","1,0,0,1,1,0,1,0,1","1,0,0,1,1,0,1,0,1","1",""
"null","","html-keyboard-response","167","184822","0.0-167.0","3T111IHZ5FCHAFPNSO6Q2ZRREQ19RK","A1I0DV4B4MFQCL","3MVY4USGB69K0BK9K576GJZ2CVDSII","","","<img src=""img/flower6.png"" style=""width:200px; border:14px solid green;"">","null","","","","","","","","",""
"559","","image-keyboard-response","168","185383","0.0-168.0","3T111IHZ5FCHAFPNSO6Q2ZRREQ19RK","A1I0DV4B4MFQCL","3MVY4USGB69K0BK9K576GJZ2CVDSII","","","img/flower1.png","75","560","2","1","2","2","1,0,0,1,1,0,1,0,1","1,0,0,1,1,0,1,0,1","1",""
"null","","html-keyboard-response","169","185683","0.0-169.0","3T111IHZ5FCHAFPNSO6Q2ZRREQ19RK","A1I0DV4B4MFQCL","3MVY4USGB69K0BK9K576GJZ2CVDSII","","","<img src=""img/flower1.png"" style=""width:200px; border:14px solid green;"">","null","","","","","","","","",""
"401","","image-keyboard-response","170","186086","0.0-170.0","3T111IHZ5FCHAFPNSO6Q2ZRREQ19RK","A1I0DV4B4MFQCL","3MVY4USGB69K0BK9K576GJZ2CVDSII","","","img/flower1.png","75","402","2","1","2","2","1,0,0,1,1,0,1,0,1","1,0,0,1,1,0,1,0,1","1",""
"null","","html-keyboard-response","171","186389","0.0-171.0","3T111IHZ5FCHAFPNSO6Q2ZRREQ19RK","A1I0DV4B4MFQCL","3MVY4USGB69K0BK9K576GJZ2CVDSII","","","<img src=""img/flower1.png"" style=""width:200px; border:14px solid green;"">","null","","","","","","","","",""
"600","","image-keyboard-response","172","186991","0.0-172.0","3T111IHZ5FCHAFPNSO6Q2ZRREQ19RK","A1I0DV4B4MFQCL","3MVY4USGB69K0BK9K576GJZ2CVDSII","","","img/flower6.png","76","601","3","1","3","2","1,0,0,1,1,0,1,0,1","1,0,0,1,1,0,1,0,1","1",""
"null","","html-keyboard-response","173","187291","0.0-173.0","3T111IHZ5FCHAFPNSO6Q2ZRREQ19RK","A1I0DV4B4MFQCL","3MVY4USGB69K0BK9K576GJZ2CVDSII","","","<img src=""img/flower6.png"" style=""width:200px; border:14px solid green;"">","null","","","","","","","","",""
"537","","image-keyboard-response","174","187828","0.0-174.0","3T111IHZ5FCHAFPNSO6Q2ZRREQ19RK","A1I0DV4B4MFQCL","3MVY4USGB69K0BK9K576GJZ2CVDSII","","","img/flower2.png","74","537","1","1","1","2","1,0,0,1,1,0,1,0,1","1,0,0,1,1,0,1,0,1","1",""
"null","","html-keyboard-response","175","188134","0.0-175.0","3T111IHZ5FCHAFPNSO6Q2ZRREQ19RK","A1I0DV4B4MFQCL","3MVY4USGB69K0BK9K576GJZ2CVDSII","","","<img src=""img/flower2.png"" style=""width:200px; border:14px solid green;"">","null","","","","","","","","",""
"759","","image-keyboard-response","176","188895","0.0-176.0","3T111IHZ5FCHAFPNSO6Q2ZRREQ19RK","A1I0DV4B4MFQCL","3MVY4USGB69K0BK9K576GJZ2CVDSII","","","img/flower6.png","75","761","2","0","3","2","1,0,0,1,1,0,1,0,1","1,0,0,1,1,0,1,0,1","1",""
"null","","html-keyboard-response","177","189198","0.0-177.0","3T111IHZ5FCHAFPNSO6Q2ZRREQ19RK","A1I0DV4B4MFQCL","3MVY4USGB69K0BK9K576GJZ2CVDSII","","","<img src=""img/flower6.png"" style=""width:200px;border:14px solid red;"">","null","","","","","","","","",""
"140","","image-keyboard-response","178","189338","0.0-178.0","3T111IHZ5FCHAFPNSO6Q2ZRREQ19RK","A1I0DV4B4MFQCL","3MVY4USGB69K0BK9K576GJZ2CVDSII","","","img/flower6.png","76","141","3","1","3","2","1,0,0,1,1,0,1,0,1","1,0,0,1,1,0,1,0,1","1",""
"null","","html-keyboard-response","179","189639","0.0-179.0","3T111IHZ5FCHAFPNSO6Q2ZRREQ19RK","A1I0DV4B4MFQCL","3MVY4USGB69K0BK9K576GJZ2CVDSII","","","<img src=""img/flower6.png"" style=""width:200px; border:14px solid green;"">","null","","","","","","","","",""
"667","","image-keyboard-response","180","190307","0.0-180.0","3T111IHZ5FCHAFPNSO6Q2ZRREQ19RK","A1I0DV4B4MFQCL","3MVY4USGB69K0BK9K576GJZ2CVDSII","","","img/flower2.png","74","667","1","1","1","2","1,0,0,1,1,0,1,0,1","1,0,0,1,1,0,1,0,1","1",""
"null","","html-keyboard-response","181","190611","0.0-181.0","3T111IHZ5FCHAFPNSO6Q2ZRREQ19RK","A1I0DV4B4MFQCL","3MVY4USGB69K0BK9K576GJZ2CVDSII","","","<img src=""img/flower2.png"" style=""width:200px; border:14px solid green;"">","null","","","","","","","","",""
"380","","image-keyboard-response","182","190993","0.0-182.0","3T111IHZ5FCHAFPNSO6Q2ZRREQ19RK","A1I0DV4B4MFQCL","3MVY4USGB69K0BK9K576GJZ2CVDSII","","","img/flower2.png","74","381","1","1","1","2","1,0,0,1,1,0,1,0,1","1,0,0,1,1,0,1,0,1","1",""
"null","","html-keyboard-response","183","191295","0.0-183.0","3T111IHZ5FCHAFPNSO6Q2ZRREQ19RK","A1I0DV4B4MFQCL","3MVY4USGB69K0BK9K576GJZ2CVDSII","","","<img src=""img/flower2.png"" style=""width:200px; border:14px solid green;"">","null","","","","","","","","",""
"534","","image-keyboard-response","184","191830","0.0-184.0","3T111IHZ5FCHAFPNSO6Q2ZRREQ19RK","A1I0DV4B4MFQCL","3MVY4USGB69K0BK9K576GJZ2CVDSII","","","img/flower6.png","76","536","3","1","3","2","1,0,0,1,1,0,1,0,1","1,0,0,1,1,0,1,0,1","1",""
"null","","html-keyboard-response","185","192132","0.0-185.0","3T111IHZ5FCHAFPNSO6Q2ZRREQ19RK","A1I0DV4B4MFQCL","3MVY4USGB69K0BK9K576GJZ2CVDSII","","","<img src=""img/flower6.png"" style=""width:200px; border:14px solid green;"">","null","","","","","","","","",""
"549","","image-keyboard-response","186","192682","0.0-186.0","3T111IHZ5FCHAFPNSO6Q2ZRREQ19RK","A1I0DV4B4MFQCL","3MVY4USGB69K0BK9K576GJZ2CVDSII","","","img/flower1.png","75","549","2","1","2","2","1,0,0,1,1,0,1,0,1","1,0,0,1,1,0,1,0,1","1",""
"null","","html-keyboard-response","187","192985","0.0-187.0","3T111IHZ5FCHAFPNSO6Q2ZRREQ19RK","A1I0DV4B4MFQCL","3MVY4USGB69K0BK9K576GJZ2CVDSII","","","<img src=""img/flower1.png"" style=""width:200px; border:14px solid green;"">","null","","","","","","","","",""
"391","","image-keyboard-response","188","193377","0.0-188.0","3T111IHZ5FCHAFPNSO6Q2ZRREQ19RK","A1I0DV4B4MFQCL","3MVY4USGB69K0BK9K576GJZ2CVDSII","","","img/flower1.png","75","391","2","1","2","2","1,0,0,1,1,0,1,0,1","1,0,0,1,1,0,1,0,1","1",""
"null","","html-keyboard-response","189","193683","0.0-189.0","3T111IHZ5FCHAFPNSO6Q2ZRREQ19RK","A1I0DV4B4MFQCL","3MVY4USGB69K0BK9K576GJZ2CVDSII","","","<img src=""img/flower1.png"" style=""width:200px; border:14px solid green;"">","null","","","","","","","","",""
"349","","image-keyboard-response","190","194033","0.0-190.0","3T111IHZ5FCHAFPNSO6Q2ZRREQ19RK","A1I0DV4B4MFQCL","3MVY4USGB69K0BK9K576GJZ2CVDSII","","","img/flower1.png","75","350","2","1","2","2","1,0,0,1,1,0,1,0,1","1,0,0,1,1,0,1,0,1","1",""
"null","","html-keyboard-response","191","194361","0.0-191.0","3T111IHZ5FCHAFPNSO6Q2ZRREQ19RK","A1I0DV4B4MFQCL","3MVY4USGB69K0BK9K576GJZ2CVDSII","","","<img src=""img/flower1.png"" style=""width:200px; border:14px solid green;"">","null","","","","","","","","",""
"582","","image-keyboard-response","192","194944","0.0-192.0","3T111IHZ5FCHAFPNSO6Q2ZRREQ19RK","A1I0DV4B4MFQCL","3MVY4USGB69K0BK9K576GJZ2CVDSII","","","img/flower2.png","74","582","1","1","1","2","1,0,0,1,1,0,1,0,1","1,0,0,1,1,0,1,0,1","1",""
"null","","html-keyboard-response","193","195250","0.0-193.0","3T111IHZ5FCHAFPNSO6Q2ZRREQ19RK","A1I0DV4B4MFQCL","3MVY4USGB69K0BK9K576GJZ2CVDSII","","","<img src=""img/flower2.png"" style=""width:200px; border:14px solid green;"">","null","","","","","","","","",""
"474","","image-keyboard-response","194","195725","0.0-194.0","3T111IHZ5FCHAFPNSO6Q2ZRREQ19RK","A1I0DV4B4MFQCL","3MVY4USGB69K0BK9K576GJZ2CVDSII","","","img/flower1.png","76","475","3","0","2","2","1,0,0,1,1,0,1,0,1","1,0,0,1,1,0,1,0,1","1",""
"null","","html-keyboard-response","195","196030","0.0-195.0","3T111IHZ5FCHAFPNSO6Q2ZRREQ19RK","A1I0DV4B4MFQCL","3MVY4USGB69K0BK9K576GJZ2CVDSII","","","<img src=""img/flower1.png"" style=""width:200px;border:14px solid red;"">","null","","","","","","","","",""
"339","","image-keyboard-response","196","196369","0.0-196.0","3T111IHZ5FCHAFPNSO6Q2ZRREQ19RK","A1I0DV4B4MFQCL","3MVY4USGB69K0BK9K576GJZ2CVDSII","","","img/flower1.png","75","340","2","1","2","2","1,0,0,1,1,0,1,0,1","1,0,0,1,1,0,1,0,1","1",""
"null","","html-keyboard-response","197","196671","0.0-197.0","3T111IHZ5FCHAFPNSO6Q2ZRREQ19RK","A1I0DV4B4MFQCL","3MVY4USGB69K0BK9K576GJZ2CVDSII","","","<img src=""img/flower1.png"" style=""width:200px; border:14px solid green;"">","null","","","","","","","","",""
"373","","image-keyboard-response","198","197046","0.0-198.0","3T111IHZ5FCHAFPNSO6Q2ZRREQ19RK","A1I0DV4B4MFQCL","3MVY4USGB69K0BK9K576GJZ2CVDSII","","","img/flower1.png","75","374","2","1","2","2","1,0,0,1,1,0,1,0,1","1,0,0,1,1,0,1,0,1","1",""
"null","","html-keyboard-response","199","197350","0.0-199.0","3T111IHZ5FCHAFPNSO6Q2ZRREQ19RK","A1I0DV4B4MFQCL","3MVY4USGB69K0BK9K576GJZ2CVDSII","","","<img src=""img/flower1.png"" style=""width:200px; border:14px solid green;"">","null","","","","","","","","",""
"336","","image-keyboard-response","200","197688","0.0-200.0","3T111IHZ5FCHAFPNSO6Q2ZRREQ19RK","A1I0DV4B4MFQCL","3MVY4USGB69K0BK9K576GJZ2CVDSII","","","img/flower1.png","75","338","2","1","2","2","1,0,0,1,1,0,1,0,1","1,0,0,1,1,0,1,0,1","1",""
"null","","html-keyboard-response","201","197991","0.0-201.0","3T111IHZ5FCHAFPNSO6Q2ZRREQ19RK","A1I0DV4B4MFQCL","3MVY4USGB69K0BK9K576GJZ2CVDSII","","","<img src=""img/flower1.png"" style=""width:200px; border:14px solid green;"">","null","","","","","","","","",""
"431","","image-keyboard-response","202","198424","0.0-202.0","3T111IHZ5FCHAFPNSO6Q2ZRREQ19RK","A1I0DV4B4MFQCL","3MVY4USGB69K0BK9K576GJZ2CVDSII","","","img/flower2.png","74","432","1","1","1","2","1,0,0,1,1,0,1,0,1","1,0,0,1,1,0,1,0,1","1",""
"null","","html-keyboard-response","203","198726","0.0-203.0","3T111IHZ5FCHAFPNSO6Q2ZRREQ19RK","A1I0DV4B4MFQCL","3MVY4USGB69K0BK9K576GJZ2CVDSII","","","<img src=""img/flower2.png"" style=""width:200px; border:14px solid green;"">","null","","","","","","","","",""
"436","","image-keyboard-response","204","199164","0.0-204.0","3T111IHZ5FCHAFPNSO6Q2ZRREQ19RK","A1I0DV4B4MFQCL","3MVY4USGB69K0BK9K576GJZ2CVDSII","","","img/flower1.png","75","437","2","1","2","2","1,0,0,1,1,0,1,0,1","1,0,0,1,1,0,1,0,1","1",""
"null","","html-keyboard-response","205","199469","0.0-205.0","3T111IHZ5FCHAFPNSO6Q2ZRREQ19RK","A1I0DV4B4MFQCL","3MVY4USGB69K0BK9K576GJZ2CVDSII","","","<img src=""img/flower1.png"" style=""width:200px; border:14px solid green;"">","null","","","","","","","","",""
"446","","image-keyboard-response","206","199916","0.0-206.0","3T111IHZ5FCHAFPNSO6Q2ZRREQ19RK","A1I0DV4B4MFQCL","3MVY4USGB69K0BK9K576GJZ2CVDSII","","","img/flower6.png","76","446","3","1","3","2","1,0,0,1,1,0,1,0,1","1,0,0,1,1,0,1,0,1","1",""
"null","","html-keyboard-response","207","200222","0.0-207.0","3T111IHZ5FCHAFPNSO6Q2ZRREQ19RK","A1I0DV4B4MFQCL","3MVY4USGB69K0BK9K576GJZ2CVDSII","","","<img src=""img/flower6.png"" style=""width:200px; border:14px solid green;"">","null","","","","","","","","",""
"501","","image-keyboard-response","208","200725","0.0-208.0","3T111IHZ5FCHAFPNSO6Q2ZRREQ19RK","A1I0DV4B4MFQCL","3MVY4USGB69K0BK9K576GJZ2CVDSII","","","img/flower2.png","74","502","1","1","1","2","1,0,0,1,1,0,1,0,1","1,0,0,1,1,0,1,0,1","1",""
"null","","html-keyboard-response","209","201031","0.0-209.0","3T111IHZ5FCHAFPNSO6Q2ZRREQ19RK","A1I0DV4B4MFQCL","3MVY4USGB69K0BK9K576GJZ2CVDSII","","","<img src=""img/flower2.png"" style=""width:200px; border:14px solid green;"">","null","","","","","","","","",""
"437","","image-keyboard-response","210","201469","0.0-210.0","3T111IHZ5FCHAFPNSO6Q2ZRREQ19RK","A1I0DV4B4MFQCL","3MVY4USGB69K0BK9K576GJZ2CVDSII","","","img/flower6.png","75","438","2","0","3","2","1,0,0,1,1,0,1,0,1","1,0,0,1,1,0,1,0,1","1",""
"null","","html-keyboard-response","211","201775","0.0-211.0","3T111IHZ5FCHAFPNSO6Q2ZRREQ19RK","A1I0DV4B4MFQCL","3MVY4USGB69K0BK9K576GJZ2CVDSII","","","<img src=""img/flower6.png"" style=""width:200px;border:14px solid red;"">","null","","","","","","","","",""
"552","","image-keyboard-response","212","202327","0.0-212.0","3T111IHZ5FCHAFPNSO6Q2ZRREQ19RK","A1I0DV4B4MFQCL","3MVY4USGB69K0BK9K576GJZ2CVDSII","","","img/flower2.png","74","552","1","1","1","2","1,0,0,1,1,0,1,0,1","1,0,0,1,1,0,1,0,1","1",""
"null","","html-keyboard-response","213","202630","0.0-213.0","3T111IHZ5FCHAFPNSO6Q2ZRREQ19RK","A1I0DV4B4MFQCL","3MVY4USGB69K0BK9K576GJZ2CVDSII","","","<img src=""img/flower2.png"" style=""width:200px; border:14px solid green;"">","null","","","","","","","","",""
"402","","image-keyboard-response","214","203033","0.0-214.0","3T111IHZ5FCHAFPNSO6Q2ZRREQ19RK","A1I0DV4B4MFQCL","3MVY4USGB69K0BK9K576GJZ2CVDSII","","","img/flower2.png","74","402","1","1","1","2","1,0,0,1,1,0,1,0,1","1,0,0,1,1,0,1,0,1","1",""
"null","","html-keyboard-response","215","203336","0.0-215.0","3T111IHZ5FCHAFPNSO6Q2ZRREQ19RK","A1I0DV4B4MFQCL","3MVY4USGB69K0BK9K576GJZ2CVDSII","","","<img src=""img/flower2.png"" style=""width:200px; border:14px solid green;"">","null","","","","","","","","",""
"396","","image-keyboard-response","216","203732","0.0-216.0","3T111IHZ5FCHAFPNSO6Q2ZRREQ19RK","A1I0DV4B4MFQCL","3MVY4USGB69K0BK9K576GJZ2CVDSII","","","img/flower1.png","76","397","3","0","2","2","1,0,0,1,1,0,1,0,1","1,0,0,1,1,0,1,0,1","1",""
"null","","html-keyboard-response","217","204039","0.0-217.0","3T111IHZ5FCHAFPNSO6Q2ZRREQ19RK","A1I0DV4B4MFQCL","3MVY4USGB69K0BK9K576GJZ2CVDSII","","","<img src=""img/flower1.png"" style=""width:200px;border:14px solid red;"">","null","","","","","","","","",""
"373","","image-keyboard-response","218","204414","0.0-218.0","3T111IHZ5FCHAFPNSO6Q2ZRREQ19RK","A1I0DV4B4MFQCL","3MVY4USGB69K0BK9K576GJZ2CVDSII","","","img/flower1.png","75","375","2","1","2","2","1,0,0,1,1,0,1,0,1","1,0,0,1,1,0,1,0,1","1",""
"null","","html-keyboard-response","219","204717","0.0-219.0","3T111IHZ5FCHAFPNSO6Q2ZRREQ19RK","A1I0DV4B4MFQCL","3MVY4USGB69K0BK9K576GJZ2CVDSII","","","<img src=""img/flower1.png"" style=""width:200px; border:14px solid green;"">","null","","","","","","","","",""
"414","","image-keyboard-response","220","205133","0.0-220.0","3T111IHZ5FCHAFPNSO6Q2ZRREQ19RK","A1I0DV4B4MFQCL","3MVY4USGB69K0BK9K576GJZ2CVDSII","","","img/flower1.png","75","415","2","1","2","2","1,0,0,1,1,0,1,0,1","1,0,0,1,1,0,1,0,1","1",""
"null","","html-keyboard-response","221","205434","0.0-221.0","3T111IHZ5FCHAFPNSO6Q2ZRREQ19RK","A1I0DV4B4MFQCL","3MVY4USGB69K0BK9K576GJZ2CVDSII","","","<img src=""img/flower1.png"" style=""width:200px; border:14px solid green;"">","null","","","","","","","","",""
"386","","image-keyboard-response","222","205822","0.0-222.0","3T111IHZ5FCHAFPNSO6Q2ZRREQ19RK","A1I0DV4B4MFQCL","3MVY4USGB69K0BK9K576GJZ2CVDSII","","","img/flower1.png","75","387","2","1","2","2","1,0,0,1,1,0,1,0,1","1,0,0,1,1,0,1,0,1","1",""
"null","","html-keyboard-response","223","206128","0.0-223.0","3T111IHZ5FCHAFPNSO6Q2ZRREQ19RK","A1I0DV4B4MFQCL","3MVY4USGB69K0BK9K576GJZ2CVDSII","","","<img src=""img/flower1.png"" style=""width:200px; border:14px solid green;"">","null","","","","","","","","",""
"392","","image-keyboard-response","224","206521","0.0-224.0","3T111IHZ5FCHAFPNSO6Q2ZRREQ19RK","A1I0DV4B4MFQCL","3MVY4USGB69K0BK9K576GJZ2CVDSII","","","img/flower1.png","75","394","2","1","2","2","1,0,0,1,1,0,1,0,1","1,0,0,1,1,0,1,0,1","1",""
"null","","html-keyboard-response","225","206823","0.0-225.0","3T111IHZ5FCHAFPNSO6Q2ZRREQ19RK","A1I0DV4B4MFQCL","3MVY4USGB69K0BK9K576GJZ2CVDSII","","","<img src=""img/flower1.png"" style=""width:200px; border:14px solid green;"">","null","","","","","","","","",""
"621","","image-keyboard-response","226","207446","0.0-226.0","3T111IHZ5FCHAFPNSO6Q2ZRREQ19RK","A1I0DV4B4MFQCL","3MVY4USGB69K0BK9K576GJZ2CVDSII","","","img/flower2.png","74","624","1","1","1","2","1,0,0,1,1,0,1,0,1","1,0,0,1,1,0,1,0,1","1",""
"null","","html-keyboard-response","227","207748","0.0-227.0","3T111IHZ5FCHAFPNSO6Q2ZRREQ19RK","A1I0DV4B4MFQCL","3MVY4USGB69K0BK9K576GJZ2CVDSII","","","<img src=""img/flower2.png"" style=""width:200px; border:14px solid green;"">","null","","","","","","","","",""
"379","","image-keyboard-response","228","208127","0.0-228.0","3T111IHZ5FCHAFPNSO6Q2ZRREQ19RK","A1I0DV4B4MFQCL","3MVY4USGB69K0BK9K576GJZ2CVDSII","","","img/flower2.png","74","380","1","1","1","2","1,0,0,1,1,0,1,0,1","1,0,0,1,1,0,1,0,1","1",""
"null","","html-keyboard-response","229","208431","0.0-229.0","3T111IHZ5FCHAFPNSO6Q2ZRREQ19RK","A1I0DV4B4MFQCL","3MVY4USGB69K0BK9K576GJZ2CVDSII","","","<img src=""img/flower2.png"" style=""width:200px; border:14px solid green;"">","null","","","","","","","","",""
"504","","image-keyboard-response","230","208936","0.0-230.0","3T111IHZ5FCHAFPNSO6Q2ZRREQ19RK","A1I0DV4B4MFQCL","3MVY4USGB69K0BK9K576GJZ2CVDSII","","","img/flower1.png","75","505","2","1","2","2","1,0,0,1,1,0,1,0,1","1,0,0,1,1,0,1,0,1","1",""
"null","","html-keyboard-response","231","209243","0.0-231.0","3T111IHZ5FCHAFPNSO6Q2ZRREQ19RK","A1I0DV4B4MFQCL","3MVY4USGB69K0BK9K576GJZ2CVDSII","","","<img src=""img/flower1.png"" style=""width:200px; border:14px solid green;"">","null","","","","","","","","",""
"577","","image-keyboard-response","232","209822","0.0-232.0","3T111IHZ5FCHAFPNSO6Q2ZRREQ19RK","A1I0DV4B4MFQCL","3MVY4USGB69K0BK9K576GJZ2CVDSII","","","img/flower2.png","74","578","1","1","1","2","1,0,0,1,1,0,1,0,1","1,0,0,1,1,0,1,0,1","1",""
"null","","html-keyboard-response","233","210126","0.0-233.0","3T111IHZ5FCHAFPNSO6Q2ZRREQ19RK","A1I0DV4B4MFQCL","3MVY4USGB69K0BK9K576GJZ2CVDSII","","","<img src=""img/flower2.png"" style=""width:200px; border:14px solid green;"">","null","","","","","","","","",""
"577","","image-keyboard-response","234","210702","0.0-234.0","3T111IHZ5FCHAFPNSO6Q2ZRREQ19RK","A1I0DV4B4MFQCL","3MVY4USGB69K0BK9K576GJZ2CVDSII","","","img/flower6.png","76","577","3","1","3","2","1,0,0,1,1,0,1,0,1","1,0,0,1,1,0,1,0,1","1",""
"null","","html-keyboard-response","235","211009","0.0-235.0","3T111IHZ5FCHAFPNSO6Q2ZRREQ19RK","A1I0DV4B4MFQCL","3MVY4USGB69K0BK9K576GJZ2CVDSII","","","<img src=""img/flower6.png"" style=""width:200px; border:14px solid green;"">","null","","","","","","","","",""
"403","","image-keyboard-response","236","211415","0.0-236.0","3T111IHZ5FCHAFPNSO6Q2ZRREQ19RK","A1I0DV4B4MFQCL","3MVY4USGB69K0BK9K576GJZ2CVDSII","","","img/flower1.png","75","405","2","1","2","2","1,0,0,1,1,0,1,0,1","1,0,0,1,1,0,1,0,1","1",""
"null","","html-keyboard-response","237","211717","0.0-237.0","3T111IHZ5FCHAFPNSO6Q2ZRREQ19RK","A1I0DV4B4MFQCL","3MVY4USGB69K0BK9K576GJZ2CVDSII","","","<img src=""img/flower1.png"" style=""width:200px; border:14px solid green;"">","null","","","","","","","","",""
"421","","image-keyboard-response","238","212138","0.0-238.0","3T111IHZ5FCHAFPNSO6Q2ZRREQ19RK","A1I0DV4B4MFQCL","3MVY4USGB69K0BK9K576GJZ2CVDSII","","","img/flower6.png","74","421","1","1","3","2","1,0,0,1,1,0,1,0,1","1,0,0,1,1,0,1,0,1","1",""
"null","","html-keyboard-response","239","212440","0.0-239.0","3T111IHZ5FCHAFPNSO6Q2ZRREQ19RK","A1I0DV4B4MFQCL","3MVY4USGB69K0BK9K576GJZ2CVDSII","","","<img src=""img/flower6.png"" style=""width:200px; border:14px solid green;"">","null","","","","","","","","",""
"419","","image-keyboard-response","240","212861","0.0-240.0","3T111IHZ5FCHAFPNSO6Q2ZRREQ19RK","A1I0DV4B4MFQCL","3MVY4USGB69K0BK9K576GJZ2CVDSII","","","img/flower6.png","76","419","3","1","3","2","1,0,0,1,1,0,1,0,1","1,0,0,1,1,0,1,0,1","1",""
"null","","html-keyboard-response","241","213167","0.0-241.0","3T111IHZ5FCHAFPNSO6Q2ZRREQ19RK","A1I0DV4B4MFQCL","3MVY4USGB69K0BK9K576GJZ2CVDSII","","","<img src=""img/flower6.png"" style=""width:200px; border:14px solid green;"">","null","","","","","","","","",""
"461","","image-keyboard-response","242","213628","0.0-242.0","3T111IHZ5FCHAFPNSO6Q2ZRREQ19RK","A1I0DV4B4MFQCL","3MVY4USGB69K0BK9K576GJZ2CVDSII","","","img/flower2.png","74","461","1","1","1","2","1,0,0,1,1,0,1,0,1","1,0,0,1,1,0,1,0,1","1",""
"null","","html-keyboard-response","243","213933","0.0-243.0","3T111IHZ5FCHAFPNSO6Q2ZRREQ19RK","A1I0DV4B4MFQCL","3MVY4USGB69K0BK9K576GJZ2CVDSII","","","<img src=""img/flower2.png"" style=""width:200px; border:14px solid green;"">","null","","","","","","","","",""
"647","","image-keyboard-response","244","214582","0.0-244.0","3T111IHZ5FCHAFPNSO6Q2ZRREQ19RK","A1I0DV4B4MFQCL","3MVY4USGB69K0BK9K576GJZ2CVDSII","","","img/flower6.png","76","648","3","1","3","2","1,0,0,1,1,0,1,0,1","1,0,0,1,1,0,1,0,1","1",""
"null","","html-keyboard-response","245","214887","0.0-245.0","3T111IHZ5FCHAFPNSO6Q2ZRREQ19RK","A1I0DV4B4MFQCL","3MVY4USGB69K0BK9K576GJZ2CVDSII","","","<img src=""img/flower6.png"" style=""width:200px; border:14px solid green;"">","null","","","","","","","","",""
"432","","image-keyboard-response","246","215320","0.0-246.0","3T111IHZ5FCHAFPNSO6Q2ZRREQ19RK","A1I0DV4B4MFQCL","3MVY4USGB69K0BK9K576GJZ2CVDSII","","","img/flower6.png","76","433","3","1","3","2","1,0,0,1,1,0,1,0,1","1,0,0,1,1,0,1,0,1","1",""
"null","","html-keyboard-response","247","215626","0.0-247.0","3T111IHZ5FCHAFPNSO6Q2ZRREQ19RK","A1I0DV4B4MFQCL","3MVY4USGB69K0BK9K576GJZ2CVDSII","","","<img src=""img/flower6.png"" style=""width:200px; border:14px solid green;"">","null","","","","","","","","",""
"369","","image-keyboard-response","248","215996","0.0-248.0","3T111IHZ5FCHAFPNSO6Q2ZRREQ19RK","A1I0DV4B4MFQCL","3MVY4USGB69K0BK9K576GJZ2CVDSII","","","img/flower6.png","76","370","3","1","3","2","1,0,0,1,1,0,1,0,1","1,0,0,1,1,0,1,0,1","1",""
"null","","html-keyboard-response","249","216303","0.0-249.0","3T111IHZ5FCHAFPNSO6Q2ZRREQ19RK","A1I0DV4B4MFQCL","3MVY4USGB69K0BK9K576GJZ2CVDSII","","","<img src=""img/flower6.png"" style=""width:200px; border:14px solid green;"">","null","","","","","","","","",""
"606","","image-keyboard-response","250","216911","0.0-250.0","3T111IHZ5FCHAFPNSO6Q2ZRREQ19RK","A1I0DV4B4MFQCL","3MVY4USGB69K0BK9K576GJZ2CVDSII","","","img/flower2.png","74","607","1","1","1","2","1,0,0,1,1,0,1,0,1","1,0,0,1,1,0,1,0,1","1",""
"null","","html-keyboard-response","251","217217","0.0-251.0","3T111IHZ5FCHAFPNSO6Q2ZRREQ19RK","A1I0DV4B4MFQCL","3MVY4USGB69K0BK9K576GJZ2CVDSII","","","<img src=""img/flower2.png"" style=""width:200px; border:14px solid green;"">","null","","","","","","","","",""
"394","","image-keyboard-response","252","217613","0.0-252.0","3T111IHZ5FCHAFPNSO6Q2ZRREQ19RK","A1I0DV4B4MFQCL","3MVY4USGB69K0BK9K576GJZ2CVDSII","","","img/flower2.png","74","396","1","1","1","2","1,0,0,1,1,0,1,0,1","1,0,0,1,1,0,1,0,1","1",""
"null","","html-keyboard-response","253","217916","0.0-253.0","3T111IHZ5FCHAFPNSO6Q2ZRREQ19RK","A1I0DV4B4MFQCL","3MVY4USGB69K0BK9K576GJZ2CVDSII","","","<img src=""img/flower2.png"" style=""width:200px; border:14px solid green;"">","null","","","","","","","","",""
"675","","image-keyboard-response","254","218591","0.0-254.0","3T111IHZ5FCHAFPNSO6Q2ZRREQ19RK","A1I0DV4B4MFQCL","3MVY4USGB69K0BK9K576GJZ2CVDSII","","","img/flower6.png","76","676","3","1","3","2","1,0,0,1,1,0,1,0,1","1,0,0,1,1,0,1,0,1","1",""
"null","","html-keyboard-response","255","218893","0.0-255.0","3T111IHZ5FCHAFPNSO6Q2ZRREQ19RK","A1I0DV4B4MFQCL","3MVY4USGB69K0BK9K576GJZ2CVDSII","","","<img src=""img/flower6.png"" style=""width:200px; border:14px solid green;"">","null","","","","","","","","",""
"517","","image-keyboard-response","256","219412","0.0-256.0","3T111IHZ5FCHAFPNSO6Q2ZRREQ19RK","A1I0DV4B4MFQCL","3MVY4USGB69K0BK9K576GJZ2CVDSII","","","img/flower1.png","75","518","2","1","2","2","1,0,0,1,1,0,1,0,1","1,0,0,1,1,0,1,0,1","1",""
"null","","html-keyboard-response","257","219717","0.0-257.0","3T111IHZ5FCHAFPNSO6Q2ZRREQ19RK","A1I0DV4B4MFQCL","3MVY4USGB69K0BK9K576GJZ2CVDSII","","","<img src=""img/flower1.png"" style=""width:200px; border:14px solid green;"">","null","","","","","","","","",""
"882","","image-keyboard-response","258","220601","0.0-258.0","3T111IHZ5FCHAFPNSO6Q2ZRREQ19RK","A1I0DV4B4MFQCL","3MVY4USGB69K0BK9K576GJZ2CVDSII","","","img/flower6.png","76","883","3","1","3","2","1,0,0,1,1,0,1,0,1","1,0,0,1,1,0,1,0,1","1",""
"null","","html-keyboard-response","259","220908","0.0-259.0","3T111IHZ5FCHAFPNSO6Q2ZRREQ19RK","A1I0DV4B4MFQCL","3MVY4USGB69K0BK9K576GJZ2CVDSII","","","<img src=""img/flower6.png"" style=""width:200px; border:14px solid green;"">","null","","","","","","","","",""
"350","","image-keyboard-response","260","221258","0.0-260.0","3T111IHZ5FCHAFPNSO6Q2ZRREQ19RK","A1I0DV4B4MFQCL","3MVY4USGB69K0BK9K576GJZ2CVDSII","","","img/flower6.png","76","351","3","1","3","2","1,0,0,1,1,0,1,0,1","1,0,0,1,1,0,1,0,1","1",""
"null","","html-keyboard-response","261","221564","0.0-261.0","3T111IHZ5FCHAFPNSO6Q2ZRREQ19RK","A1I0DV4B4MFQCL","3MVY4USGB69K0BK9K576GJZ2CVDSII","","","<img src=""img/flower6.png"" style=""width:200px; border:14px solid green;"">","null","","","","","","","","",""
"432","","image-keyboard-response","262","221996","0.0-262.0","3T111IHZ5FCHAFPNSO6Q2ZRREQ19RK","A1I0DV4B4MFQCL","3MVY4USGB69K0BK9K576GJZ2CVDSII","","","img/flower2.png","74","432","1","1","1","2","1,0,0,1,1,0,1,0,1","1,0,0,1,1,0,1,0,1","1",""
"null","","html-keyboard-response","263","222297","0.0-263.0","3T111IHZ5FCHAFPNSO6Q2ZRREQ19RK","A1I0DV4B4MFQCL","3MVY4USGB69K0BK9K576GJZ2CVDSII","","","<img src=""img/flower2.png"" style=""width:200px; border:14px solid green;"">","null","","","","","","","","",""
"439","","image-keyboard-response","264","222738","0.0-264.0","3T111IHZ5FCHAFPNSO6Q2ZRREQ19RK","A1I0DV4B4MFQCL","3MVY4USGB69K0BK9K576GJZ2CVDSII","","","img/flower1.png","75","440","2","1","2","2","1,0,0,1,1,0,1,0,1","1,0,0,1,1,0,1,0,1","1",""
"null","","html-keyboard-response","265","223043","0.0-265.0","3T111IHZ5FCHAFPNSO6Q2ZRREQ19RK","A1I0DV4B4MFQCL","3MVY4USGB69K0BK9K576GJZ2CVDSII","","","<img src=""img/flower1.png"" style=""width:200px; border:14px solid green;"">","null","","","","","","","","",""
"478","","image-keyboard-response","266","223522","0.0-266.0","3T111IHZ5FCHAFPNSO6Q2ZRREQ19RK","A1I0DV4B4MFQCL","3MVY4USGB69K0BK9K576GJZ2CVDSII","","","img/flower6.png","76","478","3","1","3","2","1,0,0,1,1,0,1,0,1","1,0,0,1,1,0,1,0,1","1",""
"null","","html-keyboard-response","267","223823","0.0-267.0","3T111IHZ5FCHAFPNSO6Q2ZRREQ19RK","A1I0DV4B4MFQCL","3MVY4USGB69K0BK9K576GJZ2CVDSII","","","<img src=""img/flower6.png"" style=""width:200px; border:14px solid green;"">","null","","","","","","","","",""
"477","","image-keyboard-response","268","224300","0.0-268.0","3T111IHZ5FCHAFPNSO6Q2ZRREQ19RK","A1I0DV4B4MFQCL","3MVY4USGB69K0BK9K576GJZ2CVDSII","","","img/flower2.png","74","477","1","1","1","2","1,0,0,1,1,0,1,0,1","1,0,0,1,1,0,1,0,1","1",""
"null","","html-keyboard-response","269","224605","0.0-269.0","3T111IHZ5FCHAFPNSO6Q2ZRREQ19RK","A1I0DV4B4MFQCL","3MVY4USGB69K0BK9K576GJZ2CVDSII","","","<img src=""img/flower2.png"" style=""width:200px; border:14px solid green;"">","null","","","","","","","","",""
"365","","image-keyboard-response","270","224973","0.0-270.0","3T111IHZ5FCHAFPNSO6Q2ZRREQ19RK","A1I0DV4B4MFQCL","3MVY4USGB69K0BK9K576GJZ2CVDSII","","","img/flower6.png","75","367","2","0","3","2","1,0,0,1,1,0,1,0,1","1,0,0,1,1,0,1,0,1","1",""
"null","","html-keyboard-response","271","225279","0.0-271.0","3T111IHZ5FCHAFPNSO6Q2ZRREQ19RK","A1I0DV4B4MFQCL","3MVY4USGB69K0BK9K576GJZ2CVDSII","","","<img src=""img/flower6.png"" style=""width:200px;border:14px solid red;"">","null","","","","","","","","",""
"275","","image-keyboard-response","272","225555","0.0-272.0","3T111IHZ5FCHAFPNSO6Q2ZRREQ19RK","A1I0DV4B4MFQCL","3MVY4USGB69K0BK9K576GJZ2CVDSII","","","img/flower2.png","76","276","3","0","1","2","1,0,0,1,1,0,1,0,1","1,0,0,1,1,0,1,0,1","1",""
"null","","html-keyboard-response","273","225856","0.0-273.0","3T111IHZ5FCHAFPNSO6Q2ZRREQ19RK","A1I0DV4B4MFQCL","3MVY4USGB69K0BK9K576GJZ2CVDSII","","","<img src=""img/flower2.png"" style=""width:200px;border:14px solid red;"">","null","","","","","","","","",""
"532","","image-keyboard-response","274","226390","0.0-274.0","3T111IHZ5FCHAFPNSO6Q2ZRREQ19RK","A1I0DV4B4MFQCL","3MVY4USGB69K0BK9K576GJZ2CVDSII","","","img/flower6.png","74","535","1","1","3","2","1,0,0,1,1,0,1,0,1","1,0,0,1,1,0,1,0,1","1",""
"null","","html-keyboard-response","275","226694","0.0-275.0","3T111IHZ5FCHAFPNSO6Q2ZRREQ19RK","A1I0DV4B4MFQCL","3MVY4USGB69K0BK9K576GJZ2CVDSII","","","<img src=""img/flower6.png"" style=""width:200px; border:14px solid green;"">","null","","","","","","","","",""
"514","","image-keyboard-response","276","227211","0.0-276.0","3T111IHZ5FCHAFPNSO6Q2ZRREQ19RK","A1I0DV4B4MFQCL","3MVY4USGB69K0BK9K576GJZ2CVDSII","","","img/flower2.png","74","515","1","1","1","2","1,0,0,1,1,0,1,0,1","1,0,0,1,1,0,1,0,1","1",""
"null","","html-keyboard-response","277","227516","0.0-277.0","3T111IHZ5FCHAFPNSO6Q2ZRREQ19RK","A1I0DV4B4MFQCL","3MVY4USGB69K0BK9K576GJZ2CVDSII","","","<img src=""img/flower2.png"" style=""width:200px; border:14px solid green;"">","null","","","","","","","","",""
"365","","image-keyboard-response","278","227882","0.0-278.0","3T111IHZ5FCHAFPNSO6Q2ZRREQ19RK","A1I0DV4B4MFQCL","3MVY4USGB69K0BK9K576GJZ2CVDSII","","","img/flower2.png","74","366","1","1","1","2","1,0,0,1,1,0,1,0,1","1,0,0,1,1,0,1,0,1","1",""
"null","","html-keyboard-response","279","228185","0.0-279.0","3T111IHZ5FCHAFPNSO6Q2ZRREQ19RK","A1I0DV4B4MFQCL","3MVY4USGB69K0BK9K576GJZ2CVDSII","","","<img src=""img/flower2.png"" style=""width:200px; border:14px solid green;"">","null","","","","","","","","",""
"415","","image-keyboard-response","280","228599","0.0-280.0","3T111IHZ5FCHAFPNSO6Q2ZRREQ19RK","A1I0DV4B4MFQCL","3MVY4USGB69K0BK9K576GJZ2CVDSII","","","img/flower6.png","76","415","3","1","3","2","1,0,0,1,1,0,1,0,1","1,0,0,1,1,0,1,0,1","1",""
"null","","html-keyboard-response","281","228901","0.0-281.0","3T111IHZ5FCHAFPNSO6Q2ZRREQ19RK","A1I0DV4B4MFQCL","3MVY4USGB69K0BK9K576GJZ2CVDSII","","","<img src=""img/flower6.png"" style=""width:200px; border:14px solid green;"">","null","","","","","","","","",""
"449","","image-keyboard-response","282","229352","0.0-282.0","3T111IHZ5FCHAFPNSO6Q2ZRREQ19RK","A1I0DV4B4MFQCL","3MVY4USGB69K0BK9K576GJZ2CVDSII","","","img/flower1.png","75","450","2","1","2","2","1,0,0,1,1,0,1,0,1","1,0,0,1,1,0,1,0,1","1",""
"null","","html-keyboard-response","283","229654","0.0-283.0","3T111IHZ5FCHAFPNSO6Q2ZRREQ19RK","A1I0DV4B4MFQCL","3MVY4USGB69K0BK9K576GJZ2CVDSII","","","<img src=""img/flower1.png"" style=""width:200px; border:14px solid green;"">","null","","","","","","","","",""
"431","","image-keyboard-response","284","230086","0.0-284.0","3T111IHZ5FCHAFPNSO6Q2ZRREQ19RK","A1I0DV4B4MFQCL","3MVY4USGB69K0BK9K576GJZ2CVDSII","","","img/flower2.png","74","432","1","1","1","2","1,0,0,1,1,0,1,0,1","1,0,0,1,1,0,1,0,1","1",""
"null","","html-keyboard-response","285","230387","0.0-285.0","3T111IHZ5FCHAFPNSO6Q2ZRREQ19RK","A1I0DV4B4MFQCL","3MVY4USGB69K0BK9K576GJZ2CVDSII","","","<img src=""img/flower2.png"" style=""width:200px; border:14px solid green;"">","null","","","","","","","","",""
"366","","image-keyboard-response","286","230753","0.0-286.0","3T111IHZ5FCHAFPNSO6Q2ZRREQ19RK","A1I0DV4B4MFQCL","3MVY4USGB69K0BK9K576GJZ2CVDSII","","","img/flower6.png","76","366","3","1","3","2","1,0,0,1,1,0,1,0,1","1,0,0,1,1,0,1,0,1","1",""
"null","","html-keyboard-response","287","231055","0.0-287.0","3T111IHZ5FCHAFPNSO6Q2ZRREQ19RK","A1I0DV4B4MFQCL","3MVY4USGB69K0BK9K576GJZ2CVDSII","","","<img src=""img/flower6.png"" style=""width:200px; border:14px solid green;"">","null","","","","","","","","",""
"475","","image-keyboard-response","288","231531","0.0-288.0","3T111IHZ5FCHAFPNSO6Q2ZRREQ19RK","A1I0DV4B4MFQCL","3MVY4USGB69K0BK9K576GJZ2CVDSII","","","img/flower1.png","74","476","1","1","2","2","1,0,0,1,1,0,1,0,1","1,0,0,1,1,0,1,0,1","1",""
"null","","html-keyboard-response","289","231832","0.0-289.0","3T111IHZ5FCHAFPNSO6Q2ZRREQ19RK","A1I0DV4B4MFQCL","3MVY4USGB69K0BK9K576GJZ2CVDSII","","","<img src=""img/flower1.png"" style=""width:200px; border:14px solid green;"">","null","","","","","","","","",""
"601","","image-keyboard-response","290","232434","0.0-290.0","3T111IHZ5FCHAFPNSO6Q2ZRREQ19RK","A1I0DV4B4MFQCL","3MVY4USGB69K0BK9K576GJZ2CVDSII","","","img/flower2.png","74","601","1","1","1","2","1,0,0,1,1,0,1,0,1","1,0,0,1,1,0,1,0,1","1",""
"null","","html-keyboard-response","291","232734","0.0-291.0","3T111IHZ5FCHAFPNSO6Q2ZRREQ19RK","A1I0DV4B4MFQCL","3MVY4USGB69K0BK9K576GJZ2CVDSII","","","<img src=""img/flower2.png"" style=""width:200px; border:14px solid green;"">","null","","","","","","","","",""
"637","","image-keyboard-response","292","233373","0.0-292.0","3T111IHZ5FCHAFPNSO6Q2ZRREQ19RK","A1I0DV4B4MFQCL","3MVY4USGB69K0BK9K576GJZ2CVDSII","","","img/flower6.png","75","638","2","0","3","2","1,0,0,1,1,0,1,0,1","1,0,0,1,1,0,1,0,1","1",""
"null","","html-keyboard-response","293","233678","0.0-293.0","3T111IHZ5FCHAFPNSO6Q2ZRREQ19RK","A1I0DV4B4MFQCL","3MVY4USGB69K0BK9K576GJZ2CVDSII","","","<img src=""img/flower6.png"" style=""width:200px;border:14px solid red;"">","null","","","","","","","","",""
"538","","image-keyboard-response","294","234218","0.0-294.0","3T111IHZ5FCHAFPNSO6Q2ZRREQ19RK","A1I0DV4B4MFQCL","3MVY4USGB69K0BK9K576GJZ2CVDSII","","","img/flower2.png","74","539","1","1","1","2","1,0,0,1,1,0,1,0,1","1,0,0,1,1,0,1,0,1","1",""
"null","","html-keyboard-response","295","234523","0.0-295.0","3T111IHZ5FCHAFPNSO6Q2ZRREQ19RK","A1I0DV4B4MFQCL","3MVY4USGB69K0BK9K576GJZ2CVDSII","","","<img src=""img/flower2.png"" style=""width:200px; border:14px solid green;"">","null","","","","","","","","",""
"831","","image-keyboard-response","296","235356","0.0-296.0","3T111IHZ5FCHAFPNSO6Q2ZRREQ19RK","A1I0DV4B4MFQCL","3MVY4USGB69K0BK9K576GJZ2CVDSII","","","img/flower1.png","75","832","2","1","2","2","1,0,0,1,1,0,1,0,1","1,0,0,1,1,0,1,0,1","1",""
"null","","html-keyboard-response","297","235658","0.0-297.0","3T111IHZ5FCHAFPNSO6Q2ZRREQ19RK","A1I0DV4B4MFQCL","3MVY4USGB69K0BK9K576GJZ2CVDSII","","","<img src=""img/flower1.png"" style=""width:200px; border:14px solid green;"">","null","","","","","","","","",""
"580","","image-keyboard-response","298","236238","0.0-298.0","3T111IHZ5FCHAFPNSO6Q2ZRREQ19RK","A1I0DV4B4MFQCL","3MVY4USGB69K0BK9K576GJZ2CVDSII","","","img/flower6.png","76","580","3","1","3","2","1,0,0,1,1,0,1,0,1","1,0,0,1,1,0,1,0,1","1",""
"null","","html-keyboard-response","299","236541","0.0-299.0","3T111IHZ5FCHAFPNSO6Q2ZRREQ19RK","A1I0DV4B4MFQCL","3MVY4USGB69K0BK9K576GJZ2CVDSII","","","<img src=""img/flower6.png"" style=""width:200px; border:14px solid green;"">","null","","","","","","","","",""
"419","","image-keyboard-response","300","236960","0.0-300.0","3T111IHZ5FCHAFPNSO6Q2ZRREQ19RK","A1I0DV4B4MFQCL","3MVY4USGB69K0BK9K576GJZ2CVDSII","","","img/flower6.png","76","420","3","1","3","2","1,0,0,1,1,0,1,0,1","1,0,0,1,1,0,1,0,1","1",""
"null","","html-keyboard-response","301","237267","0.0-301.0","3T111IHZ5FCHAFPNSO6Q2ZRREQ19RK","A1I0DV4B4MFQCL","3MVY4USGB69K0BK9K576GJZ2CVDSII","","","<img src=""img/flower6.png"" style=""width:200px; border:14px solid green;"">","null","","","","","","","","",""
"438","","image-keyboard-response","302","237706","0.0-302.0","3T111IHZ5FCHAFPNSO6Q2ZRREQ19RK","A1I0DV4B4MFQCL","3MVY4USGB69K0BK9K576GJZ2CVDSII","","","img/flower2.png","75","439","2","0","1","2","1,0,0,1,1,0,1,0,1","1,0,0,1,1,0,1,0,1","1",""
"null","","html-keyboard-response","303","238012","0.0-303.0","3T111IHZ5FCHAFPNSO6Q2ZRREQ19RK","A1I0DV4B4MFQCL","3MVY4USGB69K0BK9K576GJZ2CVDSII","","","<img src=""img/flower2.png"" style=""width:200px;border:14px solid red;"">","null","","","","","","","","",""
"427","","image-keyboard-response","304","238440","0.0-304.0","3T111IHZ5FCHAFPNSO6Q2ZRREQ19RK","A1I0DV4B4MFQCL","3MVY4USGB69K0BK9K576GJZ2CVDSII","","","img/flower1.png","74","427","1","1","2","2","1,0,0,1,1,0,1,0,1","1,0,0,1,1,0,1,0,1","1",""
"null","","html-keyboard-response","305","238741","0.0-305.0","3T111IHZ5FCHAFPNSO6Q2ZRREQ19RK","A1I0DV4B4MFQCL","3MVY4USGB69K0BK9K576GJZ2CVDSII","","","<img src=""img/flower1.png"" style=""width:200px; border:14px solid green;"">","null","","","","","","","","",""
"1118","","image-keyboard-response","306","239859","0.0-306.0","3T111IHZ5FCHAFPNSO6Q2ZRREQ19RK","A1I0DV4B4MFQCL","3MVY4USGB69K0BK9K576GJZ2CVDSII","","","img/flower5.png","74","1118","1","1","1","1","1,0.333,0.333,0.333,1,0.333,0.333,0.333,1","1,0.333,0.333,0.333,1,0.333,0.333,0.333,1","1",""
"null","","html-keyboard-response","307","240164","0.0-307.0","3T111IHZ5FCHAFPNSO6Q2ZRREQ19RK","A1I0DV4B4MFQCL","3MVY4USGB69K0BK9K576GJZ2CVDSII","","","<img src=""img/flower5.png"" style=""width:200px; border:14px solid green;"">","null","","","","","","","","",""
"729","","image-keyboard-response","308","240895","0.0-308.0","3T111IHZ5FCHAFPNSO6Q2ZRREQ19RK","A1I0DV4B4MFQCL","3MVY4USGB69K0BK9K576GJZ2CVDSII","","","img/flower5.png","75","730","2","0","1","1","1,0.333,0.333,0.333,1,0.333,0.333,0.333,1","1,0.333,0.333,0.333,1,0.333,0.333,0.333,1","1",""
"null","","html-keyboard-response","309","241202","0.0-309.0","3T111IHZ5FCHAFPNSO6Q2ZRREQ19RK","A1I0DV4B4MFQCL","3MVY4USGB69K0BK9K576GJZ2CVDSII","","","<img src=""img/flower5.png"" style=""width:200px;border:14px solid red;"">","null","","","","","","","","",""
"619","","image-keyboard-response","310","241822","0.0-310.0","3T111IHZ5FCHAFPNSO6Q2ZRREQ19RK","A1I0DV4B4MFQCL","3MVY4USGB69K0BK9K576GJZ2CVDSII","","","img/flower5.png","74","620","1","1","1","1","1,0.333,0.333,0.333,1,0.333,0.333,0.333,1","1,0.333,0.333,0.333,1,0.333,0.333,0.333,1","1",""
"null","","html-keyboard-response","311","242126","0.0-311.0","3T111IHZ5FCHAFPNSO6Q2ZRREQ19RK","A1I0DV4B4MFQCL","3MVY4USGB69K0BK9K576GJZ2CVDSII","","","<img src=""img/flower5.png"" style=""width:200px; border:14px solid green;"">","null","","","","","","","","",""
"838","","image-keyboard-response","312","242965","0.0-312.0","3T111IHZ5FCHAFPNSO6Q2ZRREQ19RK","A1I0DV4B4MFQCL","3MVY4USGB69K0BK9K576GJZ2CVDSII","","","img/flower4.png","75","840","2","0","3","1","1,0.333,0.333,0.333,1,0.333,0.333,0.333,1","1,0.333,0.333,0.333,1,0.333,0.333,0.333,1","1",""
"null","","html-keyboard-response","313","243266","0.0-313.0","3T111IHZ5FCHAFPNSO6Q2ZRREQ19RK","A1I0DV4B4MFQCL","3MVY4USGB69K0BK9K576GJZ2CVDSII","","","<img src=""img/flower4.png"" style=""width:200px;border:14px solid red;"">","null","","","","","","","","",""
"1040","","image-keyboard-response","314","244307","0.0-314.0","3T111IHZ5FCHAFPNSO6Q2ZRREQ19RK","A1I0DV4B4MFQCL","3MVY4USGB69K0BK9K576GJZ2CVDSII","","","img/flower3.png","76","1041","3","0","2","1","1,0.333,0.333,0.333,1,0.333,0.333,0.333,1","1,0.333,0.333,0.333,1,0.333,0.333,0.333,1","1",""
"null","","html-keyboard-response","315","244613","0.0-315.0","3T111IHZ5FCHAFPNSO6Q2ZRREQ19RK","A1I0DV4B4MFQCL","3MVY4USGB69K0BK9K576GJZ2CVDSII","","","<img src=""img/flower3.png"" style=""width:200px;border:14px solid red;"">","null","","","","","","","","",""
"443","","image-keyboard-response","316","245057","0.0-316.0","3T111IHZ5FCHAFPNSO6Q2ZRREQ19RK","A1I0DV4B4MFQCL","3MVY4USGB69K0BK9K576GJZ2CVDSII","","","img/flower3.png","75","444","2","1","2","1","1,0.333,0.333,0.333,1,0.333,0.333,0.333,1","1,0.333,0.333,0.333,1,0.333,0.333,0.333,1","1",""
"null","","html-keyboard-response","317","245363","0.0-317.0","3T111IHZ5FCHAFPNSO6Q2ZRREQ19RK","A1I0DV4B4MFQCL","3MVY4USGB69K0BK9K576GJZ2CVDSII","","","<img src=""img/flower3.png"" style=""width:200px; border:14px solid green;"">","null","","","","","","","","",""
"890","","image-keyboard-response","318","246254","0.0-318.0","3T111IHZ5FCHAFPNSO6Q2ZRREQ19RK","A1I0DV4B4MFQCL","3MVY4USGB69K0BK9K576GJZ2CVDSII","","","img/flower5.png","74","890","1","1","1","1","1,0.333,0.333,0.333,1,0.333,0.333,0.333,1","1,0.333,0.333,0.333,1,0.333,0.333,0.333,1","1",""
"null","","html-keyboard-response","319","246559","0.0-319.0","3T111IHZ5FCHAFPNSO6Q2ZRREQ19RK","A1I0DV4B4MFQCL","3MVY4USGB69K0BK9K576GJZ2CVDSII","","","<img src=""img/flower5.png"" style=""width:200px; border:14px solid green;"">","null","","","","","","","","",""
"436","","image-keyboard-response","320","246997","0.0-320.0","3T111IHZ5FCHAFPNSO6Q2ZRREQ19RK","A1I0DV4B4MFQCL","3MVY4USGB69K0BK9K576GJZ2CVDSII","","","img/flower5.png","74","437","1","1","1","1","1,0.333,0.333,0.333,1,0.333,0.333,0.333,1","1,0.333,0.333,0.333,1,0.333,0.333,0.333,1","1",""
"null","","html-keyboard-response","321","247298","0.0-321.0","3T111IHZ5FCHAFPNSO6Q2ZRREQ19RK","A1I0DV4B4MFQCL","3MVY4USGB69K0BK9K576GJZ2CVDSII","","","<img src=""img/flower5.png"" style=""width:200px; border:14px solid green;"">","null","","","","","","","","",""
"443","","image-keyboard-response","322","247743","0.0-322.0","3T111IHZ5FCHAFPNSO6Q2ZRREQ19RK","A1I0DV4B4MFQCL","3MVY4USGB69K0BK9K576GJZ2CVDSII","","","img/flower3.png","75","444","2","1","2","1","1,0.333,0.333,0.333,1,0.333,0.333,0.333,1","1,0.333,0.333,0.333,1,0.333,0.333,0.333,1","1",""
"null","","html-keyboard-response","323","248044","0.0-323.0","3T111IHZ5FCHAFPNSO6Q2ZRREQ19RK","A1I0DV4B4MFQCL","3MVY4USGB69K0BK9K576GJZ2CVDSII","","","<img src=""img/flower3.png"" style=""width:200px; border:14px solid green;"">","null","","","","","","","","",""
"585","","image-keyboard-response","324","248631","0.0-324.0","3T111IHZ5FCHAFPNSO6Q2ZRREQ19RK","A1I0DV4B4MFQCL","3MVY4USGB69K0BK9K576GJZ2CVDSII","","","img/flower4.png","76","586","3","1","3","1","1,0.333,0.333,0.333,1,0.333,0.333,0.333,1","1,0.333,0.333,0.333,1,0.333,0.333,0.333,1","1",""
"null","","html-keyboard-response","325","248934","0.0-325.0","3T111IHZ5FCHAFPNSO6Q2ZRREQ19RK","A1I0DV4B4MFQCL","3MVY4USGB69K0BK9K576GJZ2CVDSII","","","<img src=""img/flower4.png"" style=""width:200px; border:14px solid green;"">","null","","","","","","","","",""
"684","","image-keyboard-response","326","249619","0.0-326.0","3T111IHZ5FCHAFPNSO6Q2ZRREQ19RK","A1I0DV4B4MFQCL","3MVY4USGB69K0BK9K576GJZ2CVDSII","","","img/flower5.png","74","686","1","1","1","1","1,0.333,0.333,0.333,1,0.333,0.333,0.333,1","1,0.333,0.333,0.333,1,0.333,0.333,0.333,1","1",""
"null","","html-keyboard-response","327","249920","0.0-327.0","3T111IHZ5FCHAFPNSO6Q2ZRREQ19RK","A1I0DV4B4MFQCL","3MVY4USGB69K0BK9K576GJZ2CVDSII","","","<img src=""img/flower5.png"" style=""width:200px; border:14px solid green;"">","null","","","","","","","","",""
"357","","image-keyboard-response","328","250278","0.0-328.0","3T111IHZ5FCHAFPNSO6Q2ZRREQ19RK","A1I0DV4B4MFQCL","3MVY4USGB69K0BK9K576GJZ2CVDSII","","","img/flower4.png","75","357","2","0","3","1","1,0.333,0.333,0.333,1,0.333,0.333,0.333,1","1,0.333,0.333,0.333,1,0.333,0.333,0.333,1","1",""
"null","","html-keyboard-response","329","250583","0.0-329.0","3T111IHZ5FCHAFPNSO6Q2ZRREQ19RK","A1I0DV4B4MFQCL","3MVY4USGB69K0BK9K576GJZ2CVDSII","","","<img src=""img/flower4.png"" style=""width:200px;border:14px solid red;"">","null","","","","","","","","",""
"543","","image-keyboard-response","330","251127","0.0-330.0","3T111IHZ5FCHAFPNSO6Q2ZRREQ19RK","A1I0DV4B4MFQCL","3MVY4USGB69K0BK9K576GJZ2CVDSII","","","img/flower3.png","74","544","1","1","2","1","1,0.333,0.333,0.333,1,0.333,0.333,0.333,1","1,0.333,0.333,0.333,1,0.333,0.333,0.333,1","1",""
"null","","html-keyboard-response","331","251429","0.0-331.0","3T111IHZ5FCHAFPNSO6Q2ZRREQ19RK","A1I0DV4B4MFQCL","3MVY4USGB69K0BK9K576GJZ2CVDSII","","","<img src=""img/flower3.png"" style=""width:200px; border:14px solid green;"">","null","","","","","","","","",""
"896","","image-keyboard-response","332","252326","0.0-332.0","3T111IHZ5FCHAFPNSO6Q2ZRREQ19RK","A1I0DV4B4MFQCL","3MVY4USGB69K0BK9K576GJZ2CVDSII","","","img/flower5.png","74","897","1","1","1","1","1,0.333,0.333,0.333,1,0.333,0.333,0.333,1","1,0.333,0.333,0.333,1,0.333,0.333,0.333,1","1",""
"null","","html-keyboard-response","333","252629","0.0-333.0","3T111IHZ5FCHAFPNSO6Q2ZRREQ19RK","A1I0DV4B4MFQCL","3MVY4USGB69K0BK9K576GJZ2CVDSII","","","<img src=""img/flower5.png"" style=""width:200px; border:14px solid green;"">","null","","","","","","","","",""
"809","","image-keyboard-response","334","253438","0.0-334.0","3T111IHZ5FCHAFPNSO6Q2ZRREQ19RK","A1I0DV4B4MFQCL","3MVY4USGB69K0BK9K576GJZ2CVDSII","","","img/flower4.png","76","810","3","1","3","1","1,0.333,0.333,0.333,1,0.333,0.333,0.333,1","1,0.333,0.333,0.333,1,0.333,0.333,0.333,1","1",""
"null","","html-keyboard-response","335","253740","0.0-335.0","3T111IHZ5FCHAFPNSO6Q2ZRREQ19RK","A1I0DV4B4MFQCL","3MVY4USGB69K0BK9K576GJZ2CVDSII","","","<img src=""img/flower4.png"" style=""width:200px; border:14px solid green;"">","null","","","","","","","","",""
"405","","image-keyboard-response","336","254145","0.0-336.0","3T111IHZ5FCHAFPNSO6Q2ZRREQ19RK","A1I0DV4B4MFQCL","3MVY4USGB69K0BK9K576GJZ2CVDSII","","","img/flower4.png","76","406","3","1","3","1","1,0.333,0.333,0.333,1,0.333,0.333,0.333,1","1,0.333,0.333,0.333,1,0.333,0.333,0.333,1","1",""
"null","","html-keyboard-response","337","254448","0.0-337.0","3T111IHZ5FCHAFPNSO6Q2ZRREQ19RK","A1I0DV4B4MFQCL","3MVY4USGB69K0BK9K576GJZ2CVDSII","","","<img src=""img/flower4.png"" style=""width:200px; border:14px solid green;"">","null","","","","","","","","",""
"560","","image-keyboard-response","338","255010","0.0-338.0","3T111IHZ5FCHAFPNSO6Q2ZRREQ19RK","A1I0DV4B4MFQCL","3MVY4USGB69K0BK9K576GJZ2CVDSII","","","img/flower5.png","74","561","1","1","1","1","1,0.333,0.333,0.333,1,0.333,0.333,0.333,1","1,0.333,0.333,0.333,1,0.333,0.333,0.333,1","1",""
"null","","html-keyboard-response","339","255314","0.0-339.0","3T111IHZ5FCHAFPNSO6Q2ZRREQ19RK","A1I0DV4B4MFQCL","3MVY4USGB69K0BK9K576GJZ2CVDSII","","","<img src=""img/flower5.png"" style=""width:200px; border:14px solid green;"">","null","","","","","","","","",""
"975","","image-keyboard-response","340","256290","0.0-340.0","3T111IHZ5FCHAFPNSO6Q2ZRREQ19RK","A1I0DV4B4MFQCL","3MVY4USGB69K0BK9K576GJZ2CVDSII","","","img/flower4.png","76","977","3","1","3","1","1,0.333,0.333,0.333,1,0.333,0.333,0.333,1","1,0.333,0.333,0.333,1,0.333,0.333,0.333,1","1",""
"null","","html-keyboard-response","341","256593","0.0-341.0","3T111IHZ5FCHAFPNSO6Q2ZRREQ19RK","A1I0DV4B4MFQCL","3MVY4USGB69K0BK9K576GJZ2CVDSII","","","<img src=""img/flower4.png"" style=""width:200px; border:14px solid green;"">","null","","","","","","","","",""
"500","","image-keyboard-response","342","257093","0.0-342.0","3T111IHZ5FCHAFPNSO6Q2ZRREQ19RK","A1I0DV4B4MFQCL","3MVY4USGB69K0BK9K576GJZ2CVDSII","","","img/flower3.png","75","500","2","1","2","1","1,0.333,0.333,0.333,1,0.333,0.333,0.333,1","1,0.333,0.333,0.333,1,0.333,0.333,0.333,1","1",""
"null","","html-keyboard-response","343","257398","0.0-343.0","3T111IHZ5FCHAFPNSO6Q2ZRREQ19RK","A1I0DV4B4MFQCL","3MVY4USGB69K0BK9K576GJZ2CVDSII","","","<img src=""img/flower3.png"" style=""width:200px; border:14px solid green;"">","null","","","","","","","","",""
"454","","image-keyboard-response","344","257853","0.0-344.0","3T111IHZ5FCHAFPNSO6Q2ZRREQ19RK","A1I0DV4B4MFQCL","3MVY4USGB69K0BK9K576GJZ2CVDSII","","","img/flower4.png","74","456","1","1","3","1","1,0.333,0.333,0.333,1,0.333,0.333,0.333,1","1,0.333,0.333,0.333,1,0.333,0.333,0.333,1","1",""
"null","","html-keyboard-response","345","258159","0.0-345.0","3T111IHZ5FCHAFPNSO6Q2ZRREQ19RK","A1I0DV4B4MFQCL","3MVY4USGB69K0BK9K576GJZ2CVDSII","","","<img src=""img/flower4.png"" style=""width:200px; border:14px solid green;"">","null","","","","","","","","",""
"585","","image-keyboard-response","346","258745","0.0-346.0","3T111IHZ5FCHAFPNSO6Q2ZRREQ19RK","A1I0DV4B4MFQCL","3MVY4USGB69K0BK9K576GJZ2CVDSII","","","img/flower5.png","74","587","1","1","1","1","1,0.333,0.333,0.333,1,0.333,0.333,0.333,1","1,0.333,0.333,0.333,1,0.333,0.333,0.333,1","1",""
"null","","html-keyboard-response","347","259045","0.0-347.0","3T111IHZ5FCHAFPNSO6Q2ZRREQ19RK","A1I0DV4B4MFQCL","3MVY4USGB69K0BK9K576GJZ2CVDSII","","","<img src=""img/flower5.png"" style=""width:200px; border:14px solid green;"">","null","","","","","","","","",""
"727","","image-keyboard-response","348","259773","0.0-348.0","3T111IHZ5FCHAFPNSO6Q2ZRREQ19RK","A1I0DV4B4MFQCL","3MVY4USGB69K0BK9K576GJZ2CVDSII","","","img/flower3.png","76","727","3","0","2","1","1,0.333,0.333,0.333,1,0.333,0.333,0.333,1","1,0.333,0.333,0.333,1,0.333,0.333,0.333,1","1",""
"null","","html-keyboard-response","349","260078","0.0-349.0","3T111IHZ5FCHAFPNSO6Q2ZRREQ19RK","A1I0DV4B4MFQCL","3MVY4USGB69K0BK9K576GJZ2CVDSII","","","<img src=""img/flower3.png"" style=""width:200px;border:14px solid red;"">","null","","","","","","","","",""
"403","","image-keyboard-response","350","260482","0.0-350.0","3T111IHZ5FCHAFPNSO6Q2ZRREQ19RK","A1I0DV4B4MFQCL","3MVY4USGB69K0BK9K576GJZ2CVDSII","","","img/flower3.png","75","404","2","1","2","1","1,0.333,0.333,0.333,1,0.333,0.333,0.333,1","1,0.333,0.333,0.333,1,0.333,0.333,0.333,1","1",""
"null","","html-keyboard-response","351","260788","0.0-351.0","3T111IHZ5FCHAFPNSO6Q2ZRREQ19RK","A1I0DV4B4MFQCL","3MVY4USGB69K0BK9K576GJZ2CVDSII","","","<img src=""img/flower3.png"" style=""width:200px; border:14px solid green;"">","null","","","","","","","","",""
"441","","image-keyboard-response","352","261229","0.0-352.0","3T111IHZ5FCHAFPNSO6Q2ZRREQ19RK","A1I0DV4B4MFQCL","3MVY4USGB69K0BK9K576GJZ2CVDSII","","","img/flower4.png","76","441","3","1","3","1","1,0.333,0.333,0.333,1,0.333,0.333,0.333,1","1,0.333,0.333,0.333,1,0.333,0.333,0.333,1","1",""
"null","","html-keyboard-response","353","261529","0.0-353.0","3T111IHZ5FCHAFPNSO6Q2ZRREQ19RK","A1I0DV4B4MFQCL","3MVY4USGB69K0BK9K576GJZ2CVDSII","","","<img src=""img/flower4.png"" style=""width:200px; border:14px solid green;"">","null","","","","","","","","",""
"664","","image-keyboard-response","354","262196","0.0-354.0","3T111IHZ5FCHAFPNSO6Q2ZRREQ19RK","A1I0DV4B4MFQCL","3MVY4USGB69K0BK9K576GJZ2CVDSII","","","img/flower3.png","75","665","2","1","2","1","1,0.333,0.333,0.333,1,0.333,0.333,0.333,1","1,0.333,0.333,0.333,1,0.333,0.333,0.333,1","1",""
"null","","html-keyboard-response","355","262496","0.0-355.0","3T111IHZ5FCHAFPNSO6Q2ZRREQ19RK","A1I0DV4B4MFQCL","3MVY4USGB69K0BK9K576GJZ2CVDSII","","","<img src=""img/flower3.png"" style=""width:200px; border:14px solid green;"">","null","","","","","","","","",""
"597","","image-keyboard-response","356","263093","0.0-356.0","3T111IHZ5FCHAFPNSO6Q2ZRREQ19RK","A1I0DV4B4MFQCL","3MVY4USGB69K0BK9K576GJZ2CVDSII","","","img/flower4.png","76","597","3","1","3","1","1,0.333,0.333,0.333,1,0.333,0.333,0.333,1","1,0.333,0.333,0.333,1,0.333,0.333,0.333,1","1",""
"null","","html-keyboard-response","357","263394","0.0-357.0","3T111IHZ5FCHAFPNSO6Q2ZRREQ19RK","A1I0DV4B4MFQCL","3MVY4USGB69K0BK9K576GJZ2CVDSII","","","<img src=""img/flower4.png"" style=""width:200px; border:14px solid green;"">","null","","","","","","","","",""
"447","","image-keyboard-response","358","263842","0.0-358.0","3T111IHZ5FCHAFPNSO6Q2ZRREQ19RK","A1I0DV4B4MFQCL","3MVY4USGB69K0BK9K576GJZ2CVDSII","","","img/flower4.png","76","447","3","1","3","1","1,0.333,0.333,0.333,1,0.333,0.333,0.333,1","1,0.333,0.333,0.333,1,0.333,0.333,0.333,1","1",""
"null","","html-keyboard-response","359","264145","0.0-359.0","3T111IHZ5FCHAFPNSO6Q2ZRREQ19RK","A1I0DV4B4MFQCL","3MVY4USGB69K0BK9K576GJZ2CVDSII","","","<img src=""img/flower4.png"" style=""width:200px; border:14px solid green;"">","null","","","","","","","","",""
"406","","image-keyboard-response","360","264552","0.0-360.0","3T111IHZ5FCHAFPNSO6Q2ZRREQ19RK","A1I0DV4B4MFQCL","3MVY4USGB69K0BK9K576GJZ2CVDSII","","","img/flower5.png","74","408","1","1","1","1","1,0.333,0.333,0.333,1,0.333,0.333,0.333,1","1,0.333,0.333,0.333,1,0.333,0.333,0.333,1","1",""
"null","","html-keyboard-response","361","264853","0.0-361.0","3T111IHZ5FCHAFPNSO6Q2ZRREQ19RK","A1I0DV4B4MFQCL","3MVY4USGB69K0BK9K576GJZ2CVDSII","","","<img src=""img/flower5.png"" style=""width:200px; border:14px solid green;"">","null","","","","","","","","",""
"398","","image-keyboard-response","362","265252","0.0-362.0","3T111IHZ5FCHAFPNSO6Q2ZRREQ19RK","A1I0DV4B4MFQCL","3MVY4USGB69K0BK9K576GJZ2CVDSII","","","img/flower3.png","75","399","2","1","2","1","1,0.333,0.333,0.333,1,0.333,0.333,0.333,1","1,0.333,0.333,0.333,1,0.333,0.333,0.333,1","1",""
"null","","html-keyboard-response","363","265558","0.0-363.0","3T111IHZ5FCHAFPNSO6Q2ZRREQ19RK","A1I0DV4B4MFQCL","3MVY4USGB69K0BK9K576GJZ2CVDSII","","","<img src=""img/flower3.png"" style=""width:200px; border:14px solid green;"">","null","","","","","","","","",""
"440","","image-keyboard-response","364","266000","0.0-364.0","3T111IHZ5FCHAFPNSO6Q2ZRREQ19RK","A1I0DV4B4MFQCL","3MVY4USGB69K0BK9K576GJZ2CVDSII","","","img/flower4.png","76","442","3","1","3","1","1,0.333,0.333,0.333,1,0.333,0.333,0.333,1","1,0.333,0.333,0.333,1,0.333,0.333,0.333,1","1",""
"null","","html-keyboard-response","365","266307","0.0-365.0","3T111IHZ5FCHAFPNSO6Q2ZRREQ19RK","A1I0DV4B4MFQCL","3MVY4USGB69K0BK9K576GJZ2CVDSII","","","<img src=""img/flower4.png"" style=""width:200px; border:14px solid green;"">","null","","","","","","","","",""
"481","","image-keyboard-response","366","266789","0.0-366.0","3T111IHZ5FCHAFPNSO6Q2ZRREQ19RK","A1I0DV4B4MFQCL","3MVY4USGB69K0BK9K576GJZ2CVDSII","","","img/flower3.png","74","482","1","0","2","1","1,0.333,0.333,0.333,1,0.333,0.333,0.333,1","1,0.333,0.333,0.333,1,0.333,0.333,0.333,1","1",""
"null","","html-keyboard-response","367","267089","0.0-367.0","3T111IHZ5FCHAFPNSO6Q2ZRREQ19RK","A1I0DV4B4MFQCL","3MVY4USGB69K0BK9K576GJZ2CVDSII","","","<img src=""img/flower3.png"" style=""width:200px;border:14px solid red;"">","null","","","","","","","","",""
"334","","image-keyboard-response","368","267425","0.0-368.0","3T111IHZ5FCHAFPNSO6Q2ZRREQ19RK","A1I0DV4B4MFQCL","3MVY4USGB69K0BK9K576GJZ2CVDSII","","","img/flower3.png","75","335","2","1","2","1","1,0.333,0.333,0.333,1,0.333,0.333,0.333,1","1,0.333,0.333,0.333,1,0.333,0.333,0.333,1","1",""
"null","","html-keyboard-response","369","267730","0.0-369.0","3T111IHZ5FCHAFPNSO6Q2ZRREQ19RK","A1I0DV4B4MFQCL","3MVY4USGB69K0BK9K576GJZ2CVDSII","","","<img src=""img/flower3.png"" style=""width:200px; border:14px solid green;"">","null","","","","","","","","",""
"389","","image-keyboard-response","370","268121","0.0-370.0","3T111IHZ5FCHAFPNSO6Q2ZRREQ19RK","A1I0DV4B4MFQCL","3MVY4USGB69K0BK9K576GJZ2CVDSII","","","img/flower4.png","74","390","1","0","3","1","1,0.333,0.333,0.333,1,0.333,0.333,0.333,1","1,0.333,0.333,0.333,1,0.333,0.333,0.333,1","1",""
"null","","html-keyboard-response","371","268426","0.0-371.0","3T111IHZ5FCHAFPNSO6Q2ZRREQ19RK","A1I0DV4B4MFQCL","3MVY4USGB69K0BK9K576GJZ2CVDSII","","","<img src=""img/flower4.png"" style=""width:200px;border:14px solid red;"">","null","","","","","","","","",""
"438","","image-keyboard-response","372","268865","0.0-372.0","3T111IHZ5FCHAFPNSO6Q2ZRREQ19RK","A1I0DV4B4MFQCL","3MVY4USGB69K0BK9K576GJZ2CVDSII","","","img/flower4.png","76","439","3","1","3","1","1,0.333,0.333,0.333,1,0.333,0.333,0.333,1","1,0.333,0.333,0.333,1,0.333,0.333,0.333,1","1",""
"null","","html-keyboard-response","373","269168","0.0-373.0","3T111IHZ5FCHAFPNSO6Q2ZRREQ19RK","A1I0DV4B4MFQCL","3MVY4USGB69K0BK9K576GJZ2CVDSII","","","<img src=""img/flower4.png"" style=""width:200px; border:14px solid green;"">","null","","","","","","","","",""
"450","","image-keyboard-response","374","269619","0.0-374.0","3T111IHZ5FCHAFPNSO6Q2ZRREQ19RK","A1I0DV4B4MFQCL","3MVY4USGB69K0BK9K576GJZ2CVDSII","","","img/flower5.png","74","450","1","1","1","1","1,0.333,0.333,0.333,1,0.333,0.333,0.333,1","1,0.333,0.333,0.333,1,0.333,0.333,0.333,1","1",""
"null","","html-keyboard-response","375","269924","0.0-375.0","3T111IHZ5FCHAFPNSO6Q2ZRREQ19RK","A1I0DV4B4MFQCL","3MVY4USGB69K0BK9K576GJZ2CVDSII","","","<img src=""img/flower5.png"" style=""width:200px; border:14px solid green;"">","null","","","","","","","","",""
"600","","image-keyboard-response","376","270525","0.0-376.0","3T111IHZ5FCHAFPNSO6Q2ZRREQ19RK","A1I0DV4B4MFQCL","3MVY4USGB69K0BK9K576GJZ2CVDSII","","","img/flower4.png","76","601","3","1","3","1","1,0.333,0.333,0.333,1,0.333,0.333,0.333,1","1,0.333,0.333,0.333,1,0.333,0.333,0.333,1","1",""
"null","","html-keyboard-response","377","270830","0.0-377.0","3T111IHZ5FCHAFPNSO6Q2ZRREQ19RK","A1I0DV4B4MFQCL","3MVY4USGB69K0BK9K576GJZ2CVDSII","","","<img src=""img/flower4.png"" style=""width:200px; border:14px solid green;"">","null","","","","","","","","",""
"712","","image-keyboard-response","378","271542","0.0-378.0","3T111IHZ5FCHAFPNSO6Q2ZRREQ19RK","A1I0DV4B4MFQCL","3MVY4USGB69K0BK9K576GJZ2CVDSII","","","img/flower3.png","75","712","2","1","2","1","1,0.333,0.333,0.333,1,0.333,0.333,0.333,1","1,0.333,0.333,0.333,1,0.333,0.333,0.333,1","1",""
"null","","html-keyboard-response","379","271848","0.0-379.0","3T111IHZ5FCHAFPNSO6Q2ZRREQ19RK","A1I0DV4B4MFQCL","3MVY4USGB69K0BK9K576GJZ2CVDSII","","","<img src=""img/flower3.png"" style=""width:200px; border:14px solid green;"">","null","","","","","","","","",""
"891","","image-keyboard-response","380","272741","0.0-380.0","3T111IHZ5FCHAFPNSO6Q2ZRREQ19RK","A1I0DV4B4MFQCL","3MVY4USGB69K0BK9K576GJZ2CVDSII","","","img/flower5.png","74","892","1","1","1","1","1,0.333,0.333,0.333,1,0.333,0.333,0.333,1","1,0.333,0.333,0.333,1,0.333,0.333,0.333,1","1",""
"null","","html-keyboard-response","381","273043","0.0-381.0","3T111IHZ5FCHAFPNSO6Q2ZRREQ19RK","A1I0DV4B4MFQCL","3MVY4USGB69K0BK9K576GJZ2CVDSII","","","<img src=""img/flower5.png"" style=""width:200px; border:14px solid green;"">","null","","","","","","","","",""
"354","","image-keyboard-response","382","273396","0.0-382.0","3T111IHZ5FCHAFPNSO6Q2ZRREQ19RK","A1I0DV4B4MFQCL","3MVY4USGB69K0BK9K576GJZ2CVDSII","","","img/flower5.png","74","354","1","1","1","1","1,0.333,0.333,0.333,1,0.333,0.333,0.333,1","1,0.333,0.333,0.333,1,0.333,0.333,0.333,1","1",""
"null","","html-keyboard-response","383","273698","0.0-383.0","3T111IHZ5FCHAFPNSO6Q2ZRREQ19RK","A1I0DV4B4MFQCL","3MVY4USGB69K0BK9K576GJZ2CVDSII","","","<img src=""img/flower5.png"" style=""width:200px; border:14px solid green;"">","null","","","","","","","","",""
"403","","image-keyboard-response","384","274103","0.0-384.0","3T111IHZ5FCHAFPNSO6Q2ZRREQ19RK","A1I0DV4B4MFQCL","3MVY4USGB69K0BK9K576GJZ2CVDSII","","","img/flower5.png","74","404","1","1","1","1","1,0.333,0.333,0.333,1,0.333,0.333,0.333,1","1,0.333,0.333,0.333,1,0.333,0.333,0.333,1","1",""
"null","","html-keyboard-response","385","274407","0.0-385.0","3T111IHZ5FCHAFPNSO6Q2ZRREQ19RK","A1I0DV4B4MFQCL","3MVY4USGB69K0BK9K576GJZ2CVDSII","","","<img src=""img/flower5.png"" style=""width:200px; border:14px solid green;"">","null","","","","","","","","",""
"392","","image-keyboard-response","386","274799","0.0-386.0","3T111IHZ5FCHAFPNSO6Q2ZRREQ19RK","A1I0DV4B4MFQCL","3MVY4USGB69K0BK9K576GJZ2CVDSII","","","img/flower5.png","74","393","1","1","1","1","1,0.333,0.333,0.333,1,0.333,0.333,0.333,1","1,0.333,0.333,0.333,1,0.333,0.333,0.333,1","1",""
"null","","html-keyboard-response","387","275101","0.0-387.0","3T111IHZ5FCHAFPNSO6Q2ZRREQ19RK","A1I0DV4B4MFQCL","3MVY4USGB69K0BK9K576GJZ2CVDSII","","","<img src=""img/flower5.png"" style=""width:200px; border:14px solid green;"">","null","","","","","","","","",""
"514","","image-keyboard-response","388","275615","0.0-388.0","3T111IHZ5FCHAFPNSO6Q2ZRREQ19RK","A1I0DV4B4MFQCL","3MVY4USGB69K0BK9K576GJZ2CVDSII","","","img/flower3.png","75","515","2","1","2","1","1,0.333,0.333,0.333,1,0.333,0.333,0.333,1","1,0.333,0.333,0.333,1,0.333,0.333,0.333,1","1",""
"null","","html-keyboard-response","389","275921","0.0-389.0","3T111IHZ5FCHAFPNSO6Q2ZRREQ19RK","A1I0DV4B4MFQCL","3MVY4USGB69K0BK9K576GJZ2CVDSII","","","<img src=""img/flower3.png"" style=""width:200px; border:14px solid green;"">","null","","","","","","","","",""
"373","","image-keyboard-response","390","276295","0.0-390.0","3T111IHZ5FCHAFPNSO6Q2ZRREQ19RK","A1I0DV4B4MFQCL","3MVY4USGB69K0BK9K576GJZ2CVDSII","","","img/flower3.png","75","374","2","1","2","1","1,0.333,0.333,0.333,1,0.333,0.333,0.333,1","1,0.333,0.333,0.333,1,0.333,0.333,0.333,1","1",""
"null","","html-keyboard-response","391","276596","0.0-391.0","3T111IHZ5FCHAFPNSO6Q2ZRREQ19RK","A1I0DV4B4MFQCL","3MVY4USGB69K0BK9K576GJZ2CVDSII","","","<img src=""img/flower3.png"" style=""width:200px; border:14px solid green;"">","null","","","","","","","","",""
"683","","image-keyboard-response","392","277280","0.0-392.0","3T111IHZ5FCHAFPNSO6Q2ZRREQ19RK","A1I0DV4B4MFQCL","3MVY4USGB69K0BK9K576GJZ2CVDSII","","","img/flower5.png","74","684","1","1","1","1","1,0.333,0.333,0.333,1,0.333,0.333,0.333,1","1,0.333,0.333,0.333,1,0.333,0.333,0.333,1","1",""
"null","","html-keyboard-response","393","277623","0.0-393.0","3T111IHZ5FCHAFPNSO6Q2ZRREQ19RK","A1I0DV4B4MFQCL","3MVY4USGB69K0BK9K576GJZ2CVDSII","","","<img src=""img/flower5.png"" style=""width:200px; border:14px solid green;"">","null","","","","","","","","",""
