"success","trial_type","trial_index","time_elapsed","internal_node_id","assignmentID","mturkID","hitID","view_history","rt","stimulus","key_press","reactionTime","a","r","s","cond","reward_cond","reward_cond_actual","reward_matrix_idx","responses"
"true","fullscreen","0","5182","0.0-0.0","3TVRFO09GL1W8DC8QKF8WQ4AGWFLXS","A1KAOUCQHCB3WV","3SA4EMRVJVOCGON1OYE6FAUV3KKP05","","","","","","","","","","","","",""
"","instructions","1","14592","0.0-1.0","3TVRFO09GL1W8DC8QKF8WQ4AGWFLXS","A1KAOUCQHCB3WV","3SA4EMRVJVOCGON1OYE6FAUV3KKP05","[{""page_index"":0,""viewing_time"":984},{""page_index"":1,""viewing_time"":1066},{""page_index"":2,""viewing_time"":585},{""page_index"":3,""viewing_time"":110},{""page_index"":4,""viewing_time"":1170},{""page_index"":5,""viewing_time"":999},{""page_index"":6,""viewing_time"":3498},{""page_index"":7,""viewing_time"":992}]","9406","","","","","","","","","","",""
"","image-keyboard-response","2","16112","0.0-2.0","3TVRFO09GL1W8DC8QKF8WQ4AGWFLXS","A1KAOUCQHCB3WV","3SA4EMRVJVOCGON1OYE6FAUV3KKP05","","1514","img/flower4.png","75","1518","2","0","1","2","1,0,0,1,1,0,1,0,1","0,0,1,1,0,1,0,1,1","2",""
"","html-keyboard-response","3","16415","0.0-3.0","3TVRFO09GL1W8DC8QKF8WQ4AGWFLXS","A1KAOUCQHCB3WV","3SA4EMRVJVOCGON1OYE6FAUV3KKP05","","null","<img src=""img/flower4.png"" style=""width:200px;border:14px solid red;"">","null","","","","","","","","",""
"","image-keyboard-response","4","16429","0.0-4.0","3TVRFO09GL1W8DC8QKF8WQ4AGWFLXS","A1KAOUCQHCB3WV","3SA4EMRVJVOCGON1OYE6FAUV3KKP05","","11","img/flower5.png","76","13","3","1","3","2","1,0,0,1,1,0,1,0,1","0,0,1,1,0,1,0,1,1","2",""
"","html-keyboard-response","5","16733","0.0-5.0","3TVRFO09GL1W8DC8QKF8WQ4AGWFLXS","A1KAOUCQHCB3WV","3SA4EMRVJVOCGON1OYE6FAUV3KKP05","","null","<img src=""img/flower5.png"" style=""width:200px; border:14px solid green;"">","null","","","","","","","","",""
"","image-keyboard-response","6","16868","0.0-6.0","3TVRFO09GL1W8DC8QKF8WQ4AGWFLXS","A1KAOUCQHCB3WV","3SA4EMRVJVOCGON1OYE6FAUV3KKP05","","132","img/flower4.png","76","134","3","1","1","2","1,0,0,1,1,0,1,0,1","0,0,1,1,0,1,0,1,1","2",""
"","html-keyboard-response","7","17171","0.0-7.0","3TVRFO09GL1W8DC8QKF8WQ4AGWFLXS","A1KAOUCQHCB3WV","3SA4EMRVJVOCGON1OYE6FAUV3KKP05","","null","<img src=""img/flower4.png"" style=""width:200px; border:14px solid green;"">","null","","","","","","","","",""
"","image-keyboard-response","8","17254","0.0-8.0","3TVRFO09GL1W8DC8QKF8WQ4AGWFLXS","A1KAOUCQHCB3WV","3SA4EMRVJVOCGON1OYE6FAUV3KKP05","","80","img/flower1.png","76","82","3","1","2","2","1,0,0,1,1,0,1,0,1","0,0,1,1,0,1,0,1,1","2",""
"","html-keyboard-response","9","17555","0.0-9.0","3TVRFO09GL1W8DC8QKF8WQ4AGWFLXS","A1KAOUCQHCB3WV","3SA4EMRVJVOCGON1OYE6FAUV3KKP05","","null","<img src=""img/flower1.png"" style=""width:200px; border:14px solid green;"">","null","","","","","","","","",""
"","image-keyboard-response","10","17628","0.0-10.0","3TVRFO09GL1W8DC8QKF8WQ4AGWFLXS","A1KAOUCQHCB3WV","3SA4EMRVJVOCGON1OYE6FAUV3KKP05","","70","img/flower1.png","75","71","2","0","2","2","1,0,0,1,1,0,1,0,1","0,0,1,1,0,1,0,1,1","2",""
"","html-keyboard-response","11","17933","0.0-11.0","3TVRFO09GL1W8DC8QKF8WQ4AGWFLXS","A1KAOUCQHCB3WV","3SA4EMRVJVOCGON1OYE6FAUV3KKP05","","null","<img src=""img/flower1.png"" style=""width:200px;border:14px solid red;"">","null","","","","","","","","",""
"","image-keyboard-response","12","17978","0.0-12.0","3TVRFO09GL1W8DC8QKF8WQ4AGWFLXS","A1KAOUCQHCB3WV","3SA4EMRVJVOCGON1OYE6FAUV3KKP05","","43","img/flower1.png","76","44","3","1","2","2","1,0,0,1,1,0,1,0,1","0,0,1,1,0,1,0,1,1","2",""
"","html-keyboard-response","13","18515","0.0-13.0","3TVRFO09GL1W8DC8QKF8WQ4AGWFLXS","A1KAOUCQHCB3WV","3SA4EMRVJVOCGON1OYE6FAUV3KKP05","","null","<img src=""img/flower1.png"" style=""width:200px; border:14px solid green;"">","null","","","","","","","","",""
"","image-keyboard-response","14","18529","0.0-14.0","3TVRFO09GL1W8DC8QKF8WQ4AGWFLXS","A1KAOUCQHCB3WV","3SA4EMRVJVOCGON1OYE6FAUV3KKP05","","12","img/flower4.png","76","13","3","1","1","2","1,0,0,1,1,0,1,0,1","0,0,1,1,0,1,0,1,1","2",""
"","html-keyboard-response","15","18831","0.0-15.0","3TVRFO09GL1W8DC8QKF8WQ4AGWFLXS","A1KAOUCQHCB3WV","3SA4EMRVJVOCGON1OYE6FAUV3KKP05","","null","<img src=""img/flower4.png"" style=""width:200px; border:14px solid green;"">","null","","","","","","","","",""
"","image-keyboard-response","16","19035","0.0-16.0","3TVRFO09GL1W8DC8QKF8WQ4AGWFLXS","A1KAOUCQHCB3WV","3SA4EMRVJVOCGON1OYE6FAUV3KKP05","","201","img/flower1.png","75","203","2","0","2","2","1,0,0,1,1,0,1,0,1","0,0,1,1,0,1,0,1,1","2",""
"","html-keyboard-response","17","19338","0.0-17.0","3TVRFO09GL1W8DC8QKF8WQ4AGWFLXS","A1KAOUCQHCB3WV","3SA4EMRVJVOCGON1OYE6FAUV3KKP05","","null","<img src=""img/flower1.png"" style=""width:200px;border:14px solid red;"">","null","","","","","","","","",""
"","image-keyboard-response","18","19342","0.0-18.0","3TVRFO09GL1W8DC8QKF8WQ4AGWFLXS","A1KAOUCQHCB3WV","3SA4EMRVJVOCGON1OYE6FAUV3KKP05","","1","img/flower4.png","75","3","2","0","1","2","1,0,0,1,1,0,1,0,1","0,0,1,1,0,1,0,1,1","2",""
"","html-keyboard-response","19","19644","0.0-19.0","3TVRFO09GL1W8DC8QKF8WQ4AGWFLXS","A1KAOUCQHCB3WV","3SA4EMRVJVOCGON1OYE6FAUV3KKP05","","null","<img src=""img/flower4.png"" style=""width:200px;border:14px solid red;"">","null","","","","","","","","",""
"","image-keyboard-response","20","19740","0.0-20.0","3TVRFO09GL1W8DC8QKF8WQ4AGWFLXS","A1KAOUCQHCB3WV","3SA4EMRVJVOCGON1OYE6FAUV3KKP05","","96","img/flower4.png","75","97","2","0","1","2","1,0,0,1,1,0,1,0,1","0,0,1,1,0,1,0,1,1","2",""
"","html-keyboard-response","21","20046","0.0-21.0","3TVRFO09GL1W8DC8QKF8WQ4AGWFLXS","A1KAOUCQHCB3WV","3SA4EMRVJVOCGON1OYE6FAUV3KKP05","","null","<img src=""img/flower4.png"" style=""width:200px;border:14px solid red;"">","null","","","","","","","","",""
"","image-keyboard-response","22","20077","0.0-22.0","3TVRFO09GL1W8DC8QKF8WQ4AGWFLXS","A1KAOUCQHCB3WV","3SA4EMRVJVOCGON1OYE6FAUV3KKP05","","24","img/flower1.png","76","27","3","1","2","2","1,0,0,1,1,0,1,0,1","0,0,1,1,0,1,0,1,1","2",""
"","html-keyboard-response","23","20379","0.0-23.0","3TVRFO09GL1W8DC8QKF8WQ4AGWFLXS","A1KAOUCQHCB3WV","3SA4EMRVJVOCGON1OYE6FAUV3KKP05","","null","<img src=""img/flower1.png"" style=""width:200px; border:14px solid green;"">","null","","","","","","","","",""
"","image-keyboard-response","24","20698","0.0-24.0","3TVRFO09GL1W8DC8QKF8WQ4AGWFLXS","A1KAOUCQHCB3WV","3SA4EMRVJVOCGON1OYE6FAUV3KKP05","","317","img/flower5.png","76","319","3","1","3","2","1,0,0,1,1,0,1,0,1","0,0,1,1,0,1,0,1,1","2",""
"","html-keyboard-response","25","21003","0.0-25.0","3TVRFO09GL1W8DC8QKF8WQ4AGWFLXS","A1KAOUCQHCB3WV","3SA4EMRVJVOCGON1OYE6FAUV3KKP05","","null","<img src=""img/flower5.png"" style=""width:200px; border:14px solid green;"">","null","","","","","","","","",""
"","image-keyboard-response","26","21127","0.0-26.0","3TVRFO09GL1W8DC8QKF8WQ4AGWFLXS","A1KAOUCQHCB3WV","3SA4EMRVJVOCGON1OYE6FAUV3KKP05","","121","img/flower4.png","76","126","3","1","1","2","1,0,0,1,1,0,1,0,1","0,0,1,1,0,1,0,1,1","2",""
"","html-keyboard-response","27","21432","0.0-27.0","3TVRFO09GL1W8DC8QKF8WQ4AGWFLXS","A1KAOUCQHCB3WV","3SA4EMRVJVOCGON1OYE6FAUV3KKP05","","null","<img src=""img/flower4.png"" style=""width:200px; border:14px solid green;"">","null","","","","","","","","",""
"","image-keyboard-response","28","21519","0.0-28.0","3TVRFO09GL1W8DC8QKF8WQ4AGWFLXS","A1KAOUCQHCB3WV","3SA4EMRVJVOCGON1OYE6FAUV3KKP05","","86","img/flower4.png","75","87","2","0","1","2","1,0,0,1,1,0,1,0,1","0,0,1,1,0,1,0,1,1","2",""
"","html-keyboard-response","29","21821","0.0-29.0","3TVRFO09GL1W8DC8QKF8WQ4AGWFLXS","A1KAOUCQHCB3WV","3SA4EMRVJVOCGON1OYE6FAUV3KKP05","","null","<img src=""img/flower4.png"" style=""width:200px;border:14px solid red;"">","null","","","","","","","","",""
"","image-keyboard-response","30","21838","0.0-30.0","3TVRFO09GL1W8DC8QKF8WQ4AGWFLXS","A1KAOUCQHCB3WV","3SA4EMRVJVOCGON1OYE6FAUV3KKP05","","13","img/flower4.png","76","15","3","1","1","2","1,0,0,1,1,0,1,0,1","0,0,1,1,0,1,0,1,1","2",""
"","html-keyboard-response","31","22142","0.0-31.0","3TVRFO09GL1W8DC8QKF8WQ4AGWFLXS","A1KAOUCQHCB3WV","3SA4EMRVJVOCGON1OYE6FAUV3KKP05","","null","<img src=""img/flower4.png"" style=""width:200px; border:14px solid green;"">","null","","","","","","","","",""
"","image-keyboard-response","32","22198","0.0-32.0","3TVRFO09GL1W8DC8QKF8WQ4AGWFLXS","A1KAOUCQHCB3WV","3SA4EMRVJVOCGON1OYE6FAUV3KKP05","","42","img/flower5.png","75","46","2","1","3","2","1,0,0,1,1,0,1,0,1","0,0,1,1,0,1,0,1,1","2",""
"","html-keyboard-response","33","22500","0.0-33.0","3TVRFO09GL1W8DC8QKF8WQ4AGWFLXS","A1KAOUCQHCB3WV","3SA4EMRVJVOCGON1OYE6FAUV3KKP05","","null","<img src=""img/flower5.png"" style=""width:200px; border:14px solid green;"">","null","","","","","","","","",""
"","image-keyboard-response","34","22538","0.0-34.0","3TVRFO09GL1W8DC8QKF8WQ4AGWFLXS","A1KAOUCQHCB3WV","3SA4EMRVJVOCGON1OYE6FAUV3KKP05","","37","img/flower1.png","76","38","3","1","2","2","1,0,0,1,1,0,1,0,1","0,0,1,1,0,1,0,1,1","2",""
"","html-keyboard-response","35","22841","0.0-35.0","3TVRFO09GL1W8DC8QKF8WQ4AGWFLXS","A1KAOUCQHCB3WV","3SA4EMRVJVOCGON1OYE6FAUV3KKP05","","null","<img src=""img/flower1.png"" style=""width:200px; border:14px solid green;"">","null","","","","","","","","",""
"","image-keyboard-response","36","22889","0.0-36.0","3TVRFO09GL1W8DC8QKF8WQ4AGWFLXS","A1KAOUCQHCB3WV","3SA4EMRVJVOCGON1OYE6FAUV3KKP05","","46","img/flower1.png","75","47","2","0","2","2","1,0,0,1,1,0,1,0,1","0,0,1,1,0,1,0,1,1","2",""
"","html-keyboard-response","37","23192","0.0-37.0","3TVRFO09GL1W8DC8QKF8WQ4AGWFLXS","A1KAOUCQHCB3WV","3SA4EMRVJVOCGON1OYE6FAUV3KKP05","","null","<img src=""img/flower1.png"" style=""width:200px;border:14px solid red;"">","null","","","","","","","","",""
"","image-keyboard-response","38","23259","0.0-38.0","3TVRFO09GL1W8DC8QKF8WQ4AGWFLXS","A1KAOUCQHCB3WV","3SA4EMRVJVOCGON1OYE6FAUV3KKP05","","66","img/flower4.png","75","67","2","0","1","2","1,0,0,1,1,0,1,0,1","0,0,1,1,0,1,0,1,1","2",""
"","html-keyboard-response","39","23684","0.0-39.0","3TVRFO09GL1W8DC8QKF8WQ4AGWFLXS","A1KAOUCQHCB3WV","3SA4EMRVJVOCGON1OYE6FAUV3KKP05","","null","<img src=""img/flower4.png"" style=""width:200px;border:14px solid red;"">","null","","","","","","","","",""
"","image-keyboard-response","40","23710","0.0-40.0","3TVRFO09GL1W8DC8QKF8WQ4AGWFLXS","A1KAOUCQHCB3WV","3SA4EMRVJVOCGON1OYE6FAUV3KKP05","","21","img/flower1.png","75","26","2","0","2","2","1,0,0,1,1,0,1,0,1","0,0,1,1,0,1,0,1,1","2",""
"","html-keyboard-response","41","24012","0.0-41.0","3TVRFO09GL1W8DC8QKF8WQ4AGWFLXS","A1KAOUCQHCB3WV","3SA4EMRVJVOCGON1OYE6FAUV3KKP05","","null","<img src=""img/flower1.png"" style=""width:200px;border:14px solid red;"">","null","","","","","","","","",""
"","image-keyboard-response","42","24089","0.0-42.0","3TVRFO09GL1W8DC8QKF8WQ4AGWFLXS","A1KAOUCQHCB3WV","3SA4EMRVJVOCGON1OYE6FAUV3KKP05","","76","img/flower5.png","76","77","3","1","3","2","1,0,0,1,1,0,1,0,1","0,0,1,1,0,1,0,1,1","2",""
"","html-keyboard-response","43","24394","0.0-43.0","3TVRFO09GL1W8DC8QKF8WQ4AGWFLXS","A1KAOUCQHCB3WV","3SA4EMRVJVOCGON1OYE6FAUV3KKP05","","null","<img src=""img/flower5.png"" style=""width:200px; border:14px solid green;"">","null","","","","","","","","",""
"","image-keyboard-response","44","24438","0.0-44.0","3TVRFO09GL1W8DC8QKF8WQ4AGWFLXS","A1KAOUCQHCB3WV","3SA4EMRVJVOCGON1OYE6FAUV3KKP05","","36","img/flower5.png","76","37","3","1","3","2","1,0,0,1,1,0,1,0,1","0,0,1,1,0,1,0,1,1","2",""
"","html-keyboard-response","45","24740","0.0-45.0","3TVRFO09GL1W8DC8QKF8WQ4AGWFLXS","A1KAOUCQHCB3WV","3SA4EMRVJVOCGON1OYE6FAUV3KKP05","","null","<img src=""img/flower5.png"" style=""width:200px; border:14px solid green;"">","null","","","","","","","","",""
"","image-keyboard-response","46","24807","0.0-46.0","3TVRFO09GL1W8DC8QKF8WQ4AGWFLXS","A1KAOUCQHCB3WV","3SA4EMRVJVOCGON1OYE6FAUV3KKP05","","65","img/flower1.png","76","66","3","1","2","2","1,0,0,1,1,0,1,0,1","0,0,1,1,0,1,0,1,1","2",""
"","html-keyboard-response","47","25111","0.0-47.0","3TVRFO09GL1W8DC8QKF8WQ4AGWFLXS","A1KAOUCQHCB3WV","3SA4EMRVJVOCGON1OYE6FAUV3KKP05","","null","<img src=""img/flower1.png"" style=""width:200px; border:14px solid green;"">","null","","","","","","","","",""
"","image-keyboard-response","48","25141","0.0-48.0","3TVRFO09GL1W8DC8QKF8WQ4AGWFLXS","A1KAOUCQHCB3WV","3SA4EMRVJVOCGON1OYE6FAUV3KKP05","","25","img/flower5.png","75","28","2","1","3","2","1,0,0,1,1,0,1,0,1","0,0,1,1,0,1,0,1,1","2",""
"","html-keyboard-response","49","25444","0.0-49.0","3TVRFO09GL1W8DC8QKF8WQ4AGWFLXS","A1KAOUCQHCB3WV","3SA4EMRVJVOCGON1OYE6FAUV3KKP05","","null","<img src=""img/flower5.png"" style=""width:200px; border:14px solid green;"">","null","","","","","","","","",""
"","image-keyboard-response","50","25497","0.0-50.0","3TVRFO09GL1W8DC8QKF8WQ4AGWFLXS","A1KAOUCQHCB3WV","3SA4EMRVJVOCGON1OYE6FAUV3KKP05","","51","img/flower5.png","75","52","2","1","3","2","1,0,0,1,1,0,1,0,1","0,0,1,1,0,1,0,1,1","2",""
"","html-keyboard-response","51","25798","0.0-51.0","3TVRFO09GL1W8DC8QKF8WQ4AGWFLXS","A1KAOUCQHCB3WV","3SA4EMRVJVOCGON1OYE6FAUV3KKP05","","null","<img src=""img/flower5.png"" style=""width:200px; border:14px solid green;"">","null","","","","","","","","",""
"","image-keyboard-response","52","25872","0.0-52.0","3TVRFO09GL1W8DC8QKF8WQ4AGWFLXS","A1KAOUCQHCB3WV","3SA4EMRVJVOCGON1OYE6FAUV3KKP05","","71","img/flower4.png","75","72","2","0","1","2","1,0,0,1,1,0,1,0,1","0,0,1,1,0,1,0,1,1","2",""
"","html-keyboard-response","53","26217","0.0-53.0","3TVRFO09GL1W8DC8QKF8WQ4AGWFLXS","A1KAOUCQHCB3WV","3SA4EMRVJVOCGON1OYE6FAUV3KKP05","","null","<img src=""img/flower4.png"" style=""width:200px;border:14px solid red;"">","null","","","","","","","","",""
"","image-keyboard-response","54","26283","0.0-54.0","3TVRFO09GL1W8DC8QKF8WQ4AGWFLXS","A1KAOUCQHCB3WV","3SA4EMRVJVOCGON1OYE6FAUV3KKP05","","23","img/flower4.png","75","40","2","0","1","2","1,0,0,1,1,0,1,0,1","0,0,1,1,0,1,0,1,1","2",""
"","html-keyboard-response","55","26585","0.0-55.0","3TVRFO09GL1W8DC8QKF8WQ4AGWFLXS","A1KAOUCQHCB3WV","3SA4EMRVJVOCGON1OYE6FAUV3KKP05","","null","<img src=""img/flower4.png"" style=""width:200px;border:14px solid red;"">","null","","","","","","","","",""
"","image-keyboard-response","56","26721","0.0-56.0","3TVRFO09GL1W8DC8QKF8WQ4AGWFLXS","A1KAOUCQHCB3WV","3SA4EMRVJVOCGON1OYE6FAUV3KKP05","","134","img/flower5.png","75","135","2","1","3","2","1,0,0,1,1,0,1,0,1","0,0,1,1,0,1,0,1,1","2",""
"","html-keyboard-response","57","27022","0.0-57.0","3TVRFO09GL1W8DC8QKF8WQ4AGWFLXS","A1KAOUCQHCB3WV","3SA4EMRVJVOCGON1OYE6FAUV3KKP05","","null","<img src=""img/flower5.png"" style=""width:200px; border:14px solid green;"">","null","","","","","","","","",""
"","image-keyboard-response","58","27042","0.0-58.0","3TVRFO09GL1W8DC8QKF8WQ4AGWFLXS","A1KAOUCQHCB3WV","3SA4EMRVJVOCGON1OYE6FAUV3KKP05","","18","img/flower4.png","76","19","3","1","1","2","1,0,0,1,1,0,1,0,1","0,0,1,1,0,1,0,1,1","2",""
"","html-keyboard-response","59","27343","0.0-59.0","3TVRFO09GL1W8DC8QKF8WQ4AGWFLXS","A1KAOUCQHCB3WV","3SA4EMRVJVOCGON1OYE6FAUV3KKP05","","null","<img src=""img/flower4.png"" style=""width:200px; border:14px solid green;"">","null","","","","","","","","",""
"","image-keyboard-response","60","27468","0.0-60.0","3TVRFO09GL1W8DC8QKF8WQ4AGWFLXS","A1KAOUCQHCB3WV","3SA4EMRVJVOCGON1OYE6FAUV3KKP05","","122","img/flower5.png","76","124","3","1","3","2","1,0,0,1,1,0,1,0,1","0,0,1,1,0,1,0,1,1","2",""
"","html-keyboard-response","61","27770","0.0-61.0","3TVRFO09GL1W8DC8QKF8WQ4AGWFLXS","A1KAOUCQHCB3WV","3SA4EMRVJVOCGON1OYE6FAUV3KKP05","","null","<img src=""img/flower5.png"" style=""width:200px; border:14px solid green;"">","null","","","","","","","","",""
"","image-keyboard-response","62","27822","0.0-62.0","3TVRFO09GL1W8DC8QKF8WQ4AGWFLXS","A1KAOUCQHCB3WV","3SA4EMRVJVOCGON1OYE6FAUV3KKP05","","49","img/flower1.png","76","51","3","1","2","2","1,0,0,1,1,0,1,0,1","0,0,1,1,0,1,0,1,1","2",""
"","html-keyboard-response","63","28126","0.0-63.0","3TVRFO09GL1W8DC8QKF8WQ4AGWFLXS","A1KAOUCQHCB3WV","3SA4EMRVJVOCGON1OYE6FAUV3KKP05","","null","<img src=""img/flower1.png"" style=""width:200px; border:14px solid green;"">","null","","","","","","","","",""
"","image-keyboard-response","64","28150","0.0-64.0","3TVRFO09GL1W8DC8QKF8WQ4AGWFLXS","A1KAOUCQHCB3WV","3SA4EMRVJVOCGON1OYE6FAUV3KKP05","","22","img/flower4.png","76","24","3","1","1","2","1,0,0,1,1,0,1,0,1","0,0,1,1,0,1,0,1,1","2",""
"","html-keyboard-response","65","28452","0.0-65.0","3TVRFO09GL1W8DC8QKF8WQ4AGWFLXS","A1KAOUCQHCB3WV","3SA4EMRVJVOCGON1OYE6FAUV3KKP05","","null","<img src=""img/flower4.png"" style=""width:200px; border:14px solid green;"">","null","","","","","","","","",""
"","image-keyboard-response","66","28488","0.0-66.0","3TVRFO09GL1W8DC8QKF8WQ4AGWFLXS","A1KAOUCQHCB3WV","3SA4EMRVJVOCGON1OYE6FAUV3KKP05","","35","img/flower5.png","76","35","3","1","3","2","1,0,0,1,1,0,1,0,1","0,0,1,1,0,1,0,1,1","2",""
"","html-keyboard-response","67","28789","0.0-67.0","3TVRFO09GL1W8DC8QKF8WQ4AGWFLXS","A1KAOUCQHCB3WV","3SA4EMRVJVOCGON1OYE6FAUV3KKP05","","null","<img src=""img/flower5.png"" style=""width:200px; border:14px solid green;"">","null","","","","","","","","",""
"","image-keyboard-response","68","28820","0.0-68.0","3TVRFO09GL1W8DC8QKF8WQ4AGWFLXS","A1KAOUCQHCB3WV","3SA4EMRVJVOCGON1OYE6FAUV3KKP05","","29","img/flower5.png","76","30","3","1","3","2","1,0,0,1,1,0,1,0,1","0,0,1,1,0,1,0,1,1","2",""
"","html-keyboard-response","69","29122","0.0-69.0","3TVRFO09GL1W8DC8QKF8WQ4AGWFLXS","A1KAOUCQHCB3WV","3SA4EMRVJVOCGON1OYE6FAUV3KKP05","","null","<img src=""img/flower5.png"" style=""width:200px; border:14px solid green;"">","null","","","","","","","","",""
"","image-keyboard-response","70","29166","0.0-70.0","3TVRFO09GL1W8DC8QKF8WQ4AGWFLXS","A1KAOUCQHCB3WV","3SA4EMRVJVOCGON1OYE6FAUV3KKP05","","43","img/flower5.png","76","43","3","1","3","2","1,0,0,1,1,0,1,0,1","0,0,1,1,0,1,0,1,1","2",""
"","html-keyboard-response","71","29468","0.0-71.0","3TVRFO09GL1W8DC8QKF8WQ4AGWFLXS","A1KAOUCQHCB3WV","3SA4EMRVJVOCGON1OYE6FAUV3KKP05","","null","<img src=""img/flower5.png"" style=""width:200px; border:14px solid green;"">","null","","","","","","","","",""
"","image-keyboard-response","72","29537","0.0-72.0","3TVRFO09GL1W8DC8QKF8WQ4AGWFLXS","A1KAOUCQHCB3WV","3SA4EMRVJVOCGON1OYE6FAUV3KKP05","","67","img/flower5.png","76","68","3","1","3","2","1,0,0,1,1,0,1,0,1","0,0,1,1,0,1,0,1,1","2",""
"","html-keyboard-response","73","29838","0.0-73.0","3TVRFO09GL1W8DC8QKF8WQ4AGWFLXS","A1KAOUCQHCB3WV","3SA4EMRVJVOCGON1OYE6FAUV3KKP05","","null","<img src=""img/flower5.png"" style=""width:200px; border:14px solid green;"">","null","","","","","","","","",""
"","image-keyboard-response","74","29943","0.0-74.0","3TVRFO09GL1W8DC8QKF8WQ4AGWFLXS","A1KAOUCQHCB3WV","3SA4EMRVJVOCGON1OYE6FAUV3KKP05","","103","img/flower5.png","75","104","2","1","3","2","1,0,0,1,1,0,1,0,1","0,0,1,1,0,1,0,1,1","2",""
"","html-keyboard-response","75","30248","0.0-75.0","3TVRFO09GL1W8DC8QKF8WQ4AGWFLXS","A1KAOUCQHCB3WV","3SA4EMRVJVOCGON1OYE6FAUV3KKP05","","null","<img src=""img/flower5.png"" style=""width:200px; border:14px solid green;"">","null","","","","","","","","",""
"","image-keyboard-response","76","30258","0.0-76.0","3TVRFO09GL1W8DC8QKF8WQ4AGWFLXS","A1KAOUCQHCB3WV","3SA4EMRVJVOCGON1OYE6FAUV3KKP05","","3","img/flower1.png","75","6","2","0","2","2","1,0,0,1,1,0,1,0,1","0,0,1,1,0,1,0,1,1","2",""
"","html-keyboard-response","77","30561","0.0-77.0","3TVRFO09GL1W8DC8QKF8WQ4AGWFLXS","A1KAOUCQHCB3WV","3SA4EMRVJVOCGON1OYE6FAUV3KKP05","","null","<img src=""img/flower1.png"" style=""width:200px;border:14px solid red;"">","null","","","","","","","","",""
"","image-keyboard-response","78","30718","0.0-78.0","3TVRFO09GL1W8DC8QKF8WQ4AGWFLXS","A1KAOUCQHCB3WV","3SA4EMRVJVOCGON1OYE6FAUV3KKP05","","153","img/flower1.png","75","155","2","0","2","2","1,0,0,1,1,0,1,0,1","0,0,1,1,0,1,0,1,1","2",""
"","html-keyboard-response","79","31020","0.0-79.0","3TVRFO09GL1W8DC8QKF8WQ4AGWFLXS","A1KAOUCQHCB3WV","3SA4EMRVJVOCGON1OYE6FAUV3KKP05","","null","<img src=""img/flower1.png"" style=""width:200px;border:14px solid red;"">","null","","","","","","","","",""
"","image-keyboard-response","80","31411","0.0-80.0","3TVRFO09GL1W8DC8QKF8WQ4AGWFLXS","A1KAOUCQHCB3WV","3SA4EMRVJVOCGON1OYE6FAUV3KKP05","","387","img/flower1.png","75","389","2","0","2","2","1,0,0,1,1,0,1,0,1","0,0,1,1,0,1,0,1,1","2",""
"","html-keyboard-response","81","31937","0.0-81.0","3TVRFO09GL1W8DC8QKF8WQ4AGWFLXS","A1KAOUCQHCB3WV","3SA4EMRVJVOCGON1OYE6FAUV3KKP05","","null","<img src=""img/flower1.png"" style=""width:200px;border:14px solid red;"">","null","","","","","","","","",""
"","image-keyboard-response","82","32026","0.0-82.0","3TVRFO09GL1W8DC8QKF8WQ4AGWFLXS","A1KAOUCQHCB3WV","3SA4EMRVJVOCGON1OYE6FAUV3KKP05","","88","img/flower4.png","76","88","3","1","1","2","1,0,0,1,1,0,1,0,1","0,0,1,1,0,1,0,1,1","2",""
"","html-keyboard-response","83","32328","0.0-83.0","3TVRFO09GL1W8DC8QKF8WQ4AGWFLXS","A1KAOUCQHCB3WV","3SA4EMRVJVOCGON1OYE6FAUV3KKP05","","null","<img src=""img/flower4.png"" style=""width:200px; border:14px solid green;"">","null","","","","","","","","",""
"","image-keyboard-response","84","32348","0.0-84.0","3TVRFO09GL1W8DC8QKF8WQ4AGWFLXS","A1KAOUCQHCB3WV","3SA4EMRVJVOCGON1OYE6FAUV3KKP05","","18","img/flower5.png","76","19","3","1","3","2","1,0,0,1,1,0,1,0,1","0,0,1,1,0,1,0,1,1","2",""
"","html-keyboard-response","85","32650","0.0-85.0","3TVRFO09GL1W8DC8QKF8WQ4AGWFLXS","A1KAOUCQHCB3WV","3SA4EMRVJVOCGON1OYE6FAUV3KKP05","","null","<img src=""img/flower5.png"" style=""width:200px; border:14px solid green;"">","null","","","","","","","","",""
"","image-keyboard-response","86","32757","0.0-86.0","3TVRFO09GL1W8DC8QKF8WQ4AGWFLXS","A1KAOUCQHCB3WV","3SA4EMRVJVOCGON1OYE6FAUV3KKP05","","105","img/flower4.png","76","106","3","1","1","2","1,0,0,1,1,0,1,0,1","0,0,1,1,0,1,0,1,1","2",""
"","html-keyboard-response","87","33065","0.0-87.0","3TVRFO09GL1W8DC8QKF8WQ4AGWFLXS","A1KAOUCQHCB3WV","3SA4EMRVJVOCGON1OYE6FAUV3KKP05","","null","<img src=""img/flower4.png"" style=""width:200px; border:14px solid green;"">","null","","","","","","","","",""
"","image-keyboard-response","88","33099","0.0-88.0","3TVRFO09GL1W8DC8QKF8WQ4AGWFLXS","A1KAOUCQHCB3WV","3SA4EMRVJVOCGON1OYE6FAUV3KKP05","","32","img/flower1.png","75","34","2","0","2","2","1,0,0,1,1,0,1,0,1","0,0,1,1,0,1,0,1,1","2",""
"","html-keyboard-response","89","33400","0.0-89.0","3TVRFO09GL1W8DC8QKF8WQ4AGWFLXS","A1KAOUCQHCB3WV","3SA4EMRVJVOCGON1OYE6FAUV3KKP05","","null","<img src=""img/flower1.png"" style=""width:200px;border:14px solid red;"">","null","","","","","","","","",""
"","image-keyboard-response","90","33469","0.0-90.0","3TVRFO09GL1W8DC8QKF8WQ4AGWFLXS","A1KAOUCQHCB3WV","3SA4EMRVJVOCGON1OYE6FAUV3KKP05","","67","img/flower5.png","75","68","2","1","3","2","1,0,0,1,1,0,1,0,1","0,0,1,1,0,1,0,1,1","2",""
"","html-keyboard-response","91","33772","0.0-91.0","3TVRFO09GL1W8DC8QKF8WQ4AGWFLXS","A1KAOUCQHCB3WV","3SA4EMRVJVOCGON1OYE6FAUV3KKP05","","null","<img src=""img/flower5.png"" style=""width:200px; border:14px solid green;"">","null","","","","","","","","",""
"","image-keyboard-response","92","33838","0.0-92.0","3TVRFO09GL1W8DC8QKF8WQ4AGWFLXS","A1KAOUCQHCB3WV","3SA4EMRVJVOCGON1OYE6FAUV3KKP05","","63","img/flower4.png","75","65","2","0","1","2","1,0,0,1,1,0,1,0,1","0,0,1,1,0,1,0,1,1","2",""
"","html-keyboard-response","93","34139","0.0-93.0","3TVRFO09GL1W8DC8QKF8WQ4AGWFLXS","A1KAOUCQHCB3WV","3SA4EMRVJVOCGON1OYE6FAUV3KKP05","","null","<img src=""img/flower4.png"" style=""width:200px;border:14px solid red;"">","null","","","","","","","","",""
"","image-keyboard-response","94","34216","0.0-94.0","3TVRFO09GL1W8DC8QKF8WQ4AGWFLXS","A1KAOUCQHCB3WV","3SA4EMRVJVOCGON1OYE6FAUV3KKP05","","74","img/flower5.png","75","76","2","1","3","2","1,0,0,1,1,0,1,0,1","0,0,1,1,0,1,0,1,1","2",""
"","html-keyboard-response","95","34520","0.0-95.0","3TVRFO09GL1W8DC8QKF8WQ4AGWFLXS","A1KAOUCQHCB3WV","3SA4EMRVJVOCGON1OYE6FAUV3KKP05","","null","<img src=""img/flower5.png"" style=""width:200px; border:14px solid green;"">","null","","","","","","","","",""
"","image-keyboard-response","96","34628","0.0-96.0","3TVRFO09GL1W8DC8QKF8WQ4AGWFLXS","A1KAOUCQHCB3WV","3SA4EMRVJVOCGON1OYE6FAUV3KKP05","","105","img/flower1.png","75","107","2","0","2","2","1,0,0,1,1,0,1,0,1","0,0,1,1,0,1,0,1,1","2",""
"","html-keyboard-response","97","34929","0.0-97.0","3TVRFO09GL1W8DC8QKF8WQ4AGWFLXS","A1KAOUCQHCB3WV","3SA4EMRVJVOCGON1OYE6FAUV3KKP05","","null","<img src=""img/flower1.png"" style=""width:200px;border:14px solid red;"">","null","","","","","","","","",""
"","image-keyboard-response","98","34997","0.0-98.0","3TVRFO09GL1W8DC8QKF8WQ4AGWFLXS","A1KAOUCQHCB3WV","3SA4EMRVJVOCGON1OYE6FAUV3KKP05","","65","img/flower1.png","75","66","2","0","2","2","1,0,0,1,1,0,1,0,1","0,0,1,1,0,1,0,1,1","2",""
"","html-keyboard-response","99","35300","0.0-99.0","3TVRFO09GL1W8DC8QKF8WQ4AGWFLXS","A1KAOUCQHCB3WV","3SA4EMRVJVOCGON1OYE6FAUV3KKP05","","null","<img src=""img/flower1.png"" style=""width:200px;border:14px solid red;"">","null","","","","","","","","",""
"","image-keyboard-response","100","35312","0.0-100.0","3TVRFO09GL1W8DC8QKF8WQ4AGWFLXS","A1KAOUCQHCB3WV","3SA4EMRVJVOCGON1OYE6FAUV3KKP05","","9","img/flower5.png","76","10","3","1","3","2","1,0,0,1,1,0,1,0,1","0,0,1,1,0,1,0,1,1","2",""
"","html-keyboard-response","101","35614","0.0-101.0","3TVRFO09GL1W8DC8QKF8WQ4AGWFLXS","A1KAOUCQHCB3WV","3SA4EMRVJVOCGON1OYE6FAUV3KKP05","","null","<img src=""img/flower5.png"" style=""width:200px; border:14px solid green;"">","null","","","","","","","","",""
"","image-keyboard-response","102","35711","0.0-102.0","3TVRFO09GL1W8DC8QKF8WQ4AGWFLXS","A1KAOUCQHCB3WV","3SA4EMRVJVOCGON1OYE6FAUV3KKP05","","93","img/flower1.png","76","95","3","1","2","2","1,0,0,1,1,0,1,0,1","0,0,1,1,0,1,0,1,1","2",""
"","html-keyboard-response","103","36013","0.0-103.0","3TVRFO09GL1W8DC8QKF8WQ4AGWFLXS","A1KAOUCQHCB3WV","3SA4EMRVJVOCGON1OYE6FAUV3KKP05","","null","<img src=""img/flower1.png"" style=""width:200px; border:14px solid green;"">","null","","","","","","","","",""
"","image-keyboard-response","104","36112","0.0-104.0","3TVRFO09GL1W8DC8QKF8WQ4AGWFLXS","A1KAOUCQHCB3WV","3SA4EMRVJVOCGON1OYE6FAUV3KKP05","","98","img/flower4.png","76","98","3","1","1","2","1,0,0,1,1,0,1,0,1","0,0,1,1,0,1,0,1,1","2",""
"","html-keyboard-response","105","36417","0.0-105.0","3TVRFO09GL1W8DC8QKF8WQ4AGWFLXS","A1KAOUCQHCB3WV","3SA4EMRVJVOCGON1OYE6FAUV3KKP05","","null","<img src=""img/flower4.png"" style=""width:200px; border:14px solid green;"">","null","","","","","","","","",""
"","image-keyboard-response","106","36438","0.0-106.0","3TVRFO09GL1W8DC8QKF8WQ4AGWFLXS","A1KAOUCQHCB3WV","3SA4EMRVJVOCGON1OYE6FAUV3KKP05","","19","img/flower1.png","75","20","2","0","2","2","1,0,0,1,1,0,1,0,1","0,0,1,1,0,1,0,1,1","2",""
"","html-keyboard-response","107","36740","0.0-107.0","3TVRFO09GL1W8DC8QKF8WQ4AGWFLXS","A1KAOUCQHCB3WV","3SA4EMRVJVOCGON1OYE6FAUV3KKP05","","null","<img src=""img/flower1.png"" style=""width:200px;border:14px solid red;"">","null","","","","","","","","",""
"","image-keyboard-response","108","36820","0.0-108.0","3TVRFO09GL1W8DC8QKF8WQ4AGWFLXS","A1KAOUCQHCB3WV","3SA4EMRVJVOCGON1OYE6FAUV3KKP05","","77","img/flower4.png","75","79","2","0","1","2","1,0,0,1,1,0,1,0,1","0,0,1,1,0,1,0,1,1","2",""
"","html-keyboard-response","109","37123","0.0-109.0","3TVRFO09GL1W8DC8QKF8WQ4AGWFLXS","A1KAOUCQHCB3WV","3SA4EMRVJVOCGON1OYE6FAUV3KKP05","","null","<img src=""img/flower4.png"" style=""width:200px;border:14px solid red;"">","null","","","","","","","","",""
"","image-keyboard-response","110","37157","0.0-110.0","3TVRFO09GL1W8DC8QKF8WQ4AGWFLXS","A1KAOUCQHCB3WV","3SA4EMRVJVOCGON1OYE6FAUV3KKP05","","32","img/flower5.png","76","33","3","1","3","2","1,0,0,1,1,0,1,0,1","0,0,1,1,0,1,0,1,1","2",""
"","html-keyboard-response","111","37459","0.0-111.0","3TVRFO09GL1W8DC8QKF8WQ4AGWFLXS","A1KAOUCQHCB3WV","3SA4EMRVJVOCGON1OYE6FAUV3KKP05","","null","<img src=""img/flower5.png"" style=""width:200px; border:14px solid green;"">","null","","","","","","","","",""
"","image-keyboard-response","112","37479","0.0-112.0","3TVRFO09GL1W8DC8QKF8WQ4AGWFLXS","A1KAOUCQHCB3WV","3SA4EMRVJVOCGON1OYE6FAUV3KKP05","","19","img/flower1.png","75","19","2","0","2","2","1,0,0,1,1,0,1,0,1","0,0,1,1,0,1,0,1,1","2",""
"","html-keyboard-response","113","37781","0.0-113.0","3TVRFO09GL1W8DC8QKF8WQ4AGWFLXS","A1KAOUCQHCB3WV","3SA4EMRVJVOCGON1OYE6FAUV3KKP05","","null","<img src=""img/flower1.png"" style=""width:200px;border:14px solid red;"">","null","","","","","","","","",""
"","image-keyboard-response","114","37807","0.0-114.0","3TVRFO09GL1W8DC8QKF8WQ4AGWFLXS","A1KAOUCQHCB3WV","3SA4EMRVJVOCGON1OYE6FAUV3KKP05","","25","img/flower5.png","76","25","3","1","3","2","1,0,0,1,1,0,1,0,1","0,0,1,1,0,1,0,1,1","2",""
"","html-keyboard-response","115","38111","0.0-115.0","3TVRFO09GL1W8DC8QKF8WQ4AGWFLXS","A1KAOUCQHCB3WV","3SA4EMRVJVOCGON1OYE6FAUV3KKP05","","null","<img src=""img/flower5.png"" style=""width:200px; border:14px solid green;"">","null","","","","","","","","",""
"","image-keyboard-response","116","38180","0.0-116.0","3TVRFO09GL1W8DC8QKF8WQ4AGWFLXS","A1KAOUCQHCB3WV","3SA4EMRVJVOCGON1OYE6FAUV3KKP05","","63","img/flower5.png","75","66","2","1","3","2","1,0,0,1,1,0,1,0,1","0,0,1,1,0,1,0,1,1","2",""
"","html-keyboard-response","117","38482","0.0-117.0","3TVRFO09GL1W8DC8QKF8WQ4AGWFLXS","A1KAOUCQHCB3WV","3SA4EMRVJVOCGON1OYE6FAUV3KKP05","","null","<img src=""img/flower5.png"" style=""width:200px; border:14px solid green;"">","null","","","","","","","","",""
"","image-keyboard-response","118","38548","0.0-118.0","3TVRFO09GL1W8DC8QKF8WQ4AGWFLXS","A1KAOUCQHCB3WV","3SA4EMRVJVOCGON1OYE6FAUV3KKP05","","64","img/flower1.png","76","66","3","1","2","2","1,0,0,1,1,0,1,0,1","0,0,1,1,0,1,0,1,1","2",""
"","html-keyboard-response","119","38851","0.0-119.0","3TVRFO09GL1W8DC8QKF8WQ4AGWFLXS","A1KAOUCQHCB3WV","3SA4EMRVJVOCGON1OYE6FAUV3KKP05","","null","<img src=""img/flower1.png"" style=""width:200px; border:14px solid green;"">","null","","","","","","","","",""
"","image-keyboard-response","120","38879","0.0-120.0","3TVRFO09GL1W8DC8QKF8WQ4AGWFLXS","A1KAOUCQHCB3WV","3SA4EMRVJVOCGON1OYE6FAUV3KKP05","","25","img/flower1.png","75","27","2","0","2","2","1,0,0,1,1,0,1,0,1","0,0,1,1,0,1,0,1,1","2",""
"","html-keyboard-response","121","39184","0.0-121.0","3TVRFO09GL1W8DC8QKF8WQ4AGWFLXS","A1KAOUCQHCB3WV","3SA4EMRVJVOCGON1OYE6FAUV3KKP05","","null","<img src=""img/flower1.png"" style=""width:200px;border:14px solid red;"">","null","","","","","","","","",""
"","image-keyboard-response","122","39243","0.0-122.0","3TVRFO09GL1W8DC8QKF8WQ4AGWFLXS","A1KAOUCQHCB3WV","3SA4EMRVJVOCGON1OYE6FAUV3KKP05","","34","img/flower1.png","76","52","3","1","2","2","1,0,0,1,1,0,1,0,1","0,0,1,1,0,1,0,1,1","2",""
"","html-keyboard-response","123","39545","0.0-123.0","3TVRFO09GL1W8DC8QKF8WQ4AGWFLXS","A1KAOUCQHCB3WV","3SA4EMRVJVOCGON1OYE6FAUV3KKP05","","null","<img src=""img/flower1.png"" style=""width:200px; border:14px solid green;"">","null","","","","","","","","",""
"","image-keyboard-response","124","39597","0.0-124.0","3TVRFO09GL1W8DC8QKF8WQ4AGWFLXS","A1KAOUCQHCB3WV","3SA4EMRVJVOCGON1OYE6FAUV3KKP05","","48","img/flower1.png","76","49","3","1","2","2","1,0,0,1,1,0,1,0,1","0,0,1,1,0,1,0,1,1","2",""
"","html-keyboard-response","125","39898","0.0-125.0","3TVRFO09GL1W8DC8QKF8WQ4AGWFLXS","A1KAOUCQHCB3WV","3SA4EMRVJVOCGON1OYE6FAUV3KKP05","","null","<img src=""img/flower1.png"" style=""width:200px; border:14px solid green;"">","null","","","","","","","","",""
"","image-keyboard-response","126","39965","0.0-126.0","3TVRFO09GL1W8DC8QKF8WQ4AGWFLXS","A1KAOUCQHCB3WV","3SA4EMRVJVOCGON1OYE6FAUV3KKP05","","65","img/flower4.png","75","66","2","0","1","2","1,0,0,1,1,0,1,0,1","0,0,1,1,0,1,0,1,1","2",""
"","html-keyboard-response","127","40271","0.0-127.0","3TVRFO09GL1W8DC8QKF8WQ4AGWFLXS","A1KAOUCQHCB3WV","3SA4EMRVJVOCGON1OYE6FAUV3KKP05","","null","<img src=""img/flower4.png"" style=""width:200px;border:14px solid red;"">","null","","","","","","","","",""
"","image-keyboard-response","128","40284","0.0-128.0","3TVRFO09GL1W8DC8QKF8WQ4AGWFLXS","A1KAOUCQHCB3WV","3SA4EMRVJVOCGON1OYE6FAUV3KKP05","","11","img/flower5.png","76","13","3","1","3","2","1,0,0,1,1,0,1,0,1","0,0,1,1,0,1,0,1,1","2",""
"","html-keyboard-response","129","40635","0.0-129.0","3TVRFO09GL1W8DC8QKF8WQ4AGWFLXS","A1KAOUCQHCB3WV","3SA4EMRVJVOCGON1OYE6FAUV3KKP05","","null","<img src=""img/flower5.png"" style=""width:200px; border:14px solid green;"">","null","","","","","","","","",""
"","image-keyboard-response","130","40709","0.0-130.0","3TVRFO09GL1W8DC8QKF8WQ4AGWFLXS","A1KAOUCQHCB3WV","3SA4EMRVJVOCGON1OYE6FAUV3KKP05","","73","img/flower1.png","76","74","3","1","2","2","1,0,0,1,1,0,1,0,1","0,0,1,1,0,1,0,1,1","2",""
"","html-keyboard-response","131","41011","0.0-131.0","3TVRFO09GL1W8DC8QKF8WQ4AGWFLXS","A1KAOUCQHCB3WV","3SA4EMRVJVOCGON1OYE6FAUV3KKP05","","null","<img src=""img/flower1.png"" style=""width:200px; border:14px solid green;"">","null","","","","","","","","",""
"","image-keyboard-response","132","41047","0.0-132.0","3TVRFO09GL1W8DC8QKF8WQ4AGWFLXS","A1KAOUCQHCB3WV","3SA4EMRVJVOCGON1OYE6FAUV3KKP05","","34","img/flower1.png","75","36","2","0","2","2","1,0,0,1,1,0,1,0,1","0,0,1,1,0,1,0,1,1","2",""
"","html-keyboard-response","133","41349","0.0-133.0","3TVRFO09GL1W8DC8QKF8WQ4AGWFLXS","A1KAOUCQHCB3WV","3SA4EMRVJVOCGON1OYE6FAUV3KKP05","","null","<img src=""img/flower1.png"" style=""width:200px;border:14px solid red;"">","null","","","","","","","","",""
"","image-keyboard-response","134","41451","0.0-134.0","3TVRFO09GL1W8DC8QKF8WQ4AGWFLXS","A1KAOUCQHCB3WV","3SA4EMRVJVOCGON1OYE6FAUV3KKP05","","100","img/flower1.png","75","101","2","0","2","2","1,0,0,1,1,0,1,0,1","0,0,1,1,0,1,0,1,1","2",""
"","html-keyboard-response","135","41755","0.0-135.0","3TVRFO09GL1W8DC8QKF8WQ4AGWFLXS","A1KAOUCQHCB3WV","3SA4EMRVJVOCGON1OYE6FAUV3KKP05","","null","<img src=""img/flower1.png"" style=""width:200px;border:14px solid red;"">","null","","","","","","","","",""
"","image-keyboard-response","136","41798","0.0-136.0","3TVRFO09GL1W8DC8QKF8WQ4AGWFLXS","A1KAOUCQHCB3WV","3SA4EMRVJVOCGON1OYE6FAUV3KKP05","","40","img/flower4.png","75","42","2","0","1","2","1,0,0,1,1,0,1,0,1","0,0,1,1,0,1,0,1,1","2",""
"","html-keyboard-response","137","42100","0.0-137.0","3TVRFO09GL1W8DC8QKF8WQ4AGWFLXS","A1KAOUCQHCB3WV","3SA4EMRVJVOCGON1OYE6FAUV3KKP05","","null","<img src=""img/flower4.png"" style=""width:200px;border:14px solid red;"">","null","","","","","","","","",""
"","image-keyboard-response","138","42209","0.0-138.0","3TVRFO09GL1W8DC8QKF8WQ4AGWFLXS","A1KAOUCQHCB3WV","3SA4EMRVJVOCGON1OYE6FAUV3KKP05","","108","img/flower5.png","76","109","3","1","3","2","1,0,0,1,1,0,1,0,1","0,0,1,1,0,1,0,1,1","2",""
"","html-keyboard-response","139","42511","0.0-139.0","3TVRFO09GL1W8DC8QKF8WQ4AGWFLXS","A1KAOUCQHCB3WV","3SA4EMRVJVOCGON1OYE6FAUV3KKP05","","null","<img src=""img/flower5.png"" style=""width:200px; border:14px solid green;"">","null","","","","","","","","",""
"","image-keyboard-response","140","42599","0.0-140.0","3TVRFO09GL1W8DC8QKF8WQ4AGWFLXS","A1KAOUCQHCB3WV","3SA4EMRVJVOCGON1OYE6FAUV3KKP05","","85","img/flower1.png","75","87","2","0","2","2","1,0,0,1,1,0,1,0,1","0,0,1,1,0,1,0,1,1","2",""
"","html-keyboard-response","141","42901","0.0-141.0","3TVRFO09GL1W8DC8QKF8WQ4AGWFLXS","A1KAOUCQHCB3WV","3SA4EMRVJVOCGON1OYE6FAUV3KKP05","","null","<img src=""img/flower1.png"" style=""width:200px;border:14px solid red;"">","null","","","","","","","","",""
"","image-keyboard-response","142","43053","0.0-142.0","3TVRFO09GL1W8DC8QKF8WQ4AGWFLXS","A1KAOUCQHCB3WV","3SA4EMRVJVOCGON1OYE6FAUV3KKP05","","150","img/flower5.png","75","151","2","1","3","2","1,0,0,1,1,0,1,0,1","0,0,1,1,0,1,0,1,1","2",""
"","html-keyboard-response","143","43357","0.0-143.0","3TVRFO09GL1W8DC8QKF8WQ4AGWFLXS","A1KAOUCQHCB3WV","3SA4EMRVJVOCGON1OYE6FAUV3KKP05","","null","<img src=""img/flower5.png"" style=""width:200px; border:14px solid green;"">","null","","","","","","","","",""
"","image-keyboard-response","144","43360","0.0-144.0","3TVRFO09GL1W8DC8QKF8WQ4AGWFLXS","A1KAOUCQHCB3WV","3SA4EMRVJVOCGON1OYE6FAUV3KKP05","","0","img/flower1.png","75","3","2","0","2","2","1,0,0,1,1,0,1,0,1","0,0,1,1,0,1,0,1,1","2",""
"","html-keyboard-response","145","43661","0.0-145.0","3TVRFO09GL1W8DC8QKF8WQ4AGWFLXS","A1KAOUCQHCB3WV","3SA4EMRVJVOCGON1OYE6FAUV3KKP05","","null","<img src=""img/flower1.png"" style=""width:200px;border:14px solid red;"">","null","","","","","","","","",""
"","image-keyboard-response","146","43729","0.0-146.0","3TVRFO09GL1W8DC8QKF8WQ4AGWFLXS","A1KAOUCQHCB3WV","3SA4EMRVJVOCGON1OYE6FAUV3KKP05","","67","img/flower4.png","75","67","2","0","1","2","1,0,0,1,1,0,1,0,1","0,0,1,1,0,1,0,1,1","2",""
"","html-keyboard-response","147","44031","0.0-147.0","3TVRFO09GL1W8DC8QKF8WQ4AGWFLXS","A1KAOUCQHCB3WV","3SA4EMRVJVOCGON1OYE6FAUV3KKP05","","null","<img src=""img/flower4.png"" style=""width:200px;border:14px solid red;"">","null","","","","","","","","",""
"","image-keyboard-response","148","44057","0.0-148.0","3TVRFO09GL1W8DC8QKF8WQ4AGWFLXS","A1KAOUCQHCB3WV","3SA4EMRVJVOCGON1OYE6FAUV3KKP05","","24","img/flower5.png","76","25","3","1","3","2","1,0,0,1,1,0,1,0,1","0,0,1,1,0,1,0,1,1","2",""
"","html-keyboard-response","149","44358","0.0-149.0","3TVRFO09GL1W8DC8QKF8WQ4AGWFLXS","A1KAOUCQHCB3WV","3SA4EMRVJVOCGON1OYE6FAUV3KKP05","","null","<img src=""img/flower5.png"" style=""width:200px; border:14px solid green;"">","null","","","","","","","","",""
"","image-keyboard-response","150","44430","0.0-150.0","3TVRFO09GL1W8DC8QKF8WQ4AGWFLXS","A1KAOUCQHCB3WV","3SA4EMRVJVOCGON1OYE6FAUV3KKP05","","69","img/flower5.png","75","71","2","1","3","2","1,0,0,1,1,0,1,0,1","0,0,1,1,0,1,0,1,1","2",""
"","html-keyboard-response","151","44782","0.0-151.0","3TVRFO09GL1W8DC8QKF8WQ4AGWFLXS","A1KAOUCQHCB3WV","3SA4EMRVJVOCGON1OYE6FAUV3KKP05","","null","<img src=""img/flower5.png"" style=""width:200px; border:14px solid green;"">","null","","","","","","","","",""
"","image-keyboard-response","152","44826","0.0-152.0","3TVRFO09GL1W8DC8QKF8WQ4AGWFLXS","A1KAOUCQHCB3WV","3SA4EMRVJVOCGON1OYE6FAUV3KKP05","","43","img/flower4.png","75","43","2","0","1","2","1,0,0,1,1,0,1,0,1","0,0,1,1,0,1,0,1,1","2",""
"","html-keyboard-response","153","45128","0.0-153.0","3TVRFO09GL1W8DC8QKF8WQ4AGWFLXS","A1KAOUCQHCB3WV","3SA4EMRVJVOCGON1OYE6FAUV3KKP05","","null","<img src=""img/flower4.png"" style=""width:200px;border:14px solid red;"">","null","","","","","","","","",""
"","image-keyboard-response","154","45139","0.0-154.0","3TVRFO09GL1W8DC8QKF8WQ4AGWFLXS","A1KAOUCQHCB3WV","3SA4EMRVJVOCGON1OYE6FAUV3KKP05","","10","img/flower4.png","76","11","3","1","1","2","1,0,0,1,1,0,1,0,1","0,0,1,1,0,1,0,1,1","2",""
"","html-keyboard-response","155","45441","0.0-155.0","3TVRFO09GL1W8DC8QKF8WQ4AGWFLXS","A1KAOUCQHCB3WV","3SA4EMRVJVOCGON1OYE6FAUV3KKP05","","null","<img src=""img/flower4.png"" style=""width:200px; border:14px solid green;"">","null","","","","","","","","",""
"","image-keyboard-response","156","45477","0.0-156.0","3TVRFO09GL1W8DC8QKF8WQ4AGWFLXS","A1KAOUCQHCB3WV","3SA4EMRVJVOCGON1OYE6FAUV3KKP05","","34","img/flower1.png","75","36","2","0","2","2","1,0,0,1,1,0,1,0,1","0,0,1,1,0,1,0,1,1","2",""
"","html-keyboard-response","157","45778","0.0-157.0","3TVRFO09GL1W8DC8QKF8WQ4AGWFLXS","A1KAOUCQHCB3WV","3SA4EMRVJVOCGON1OYE6FAUV3KKP05","","null","<img src=""img/flower1.png"" style=""width:200px;border:14px solid red;"">","null","","","","","","","","",""
"","image-keyboard-response","158","45817","0.0-158.0","3TVRFO09GL1W8DC8QKF8WQ4AGWFLXS","A1KAOUCQHCB3WV","3SA4EMRVJVOCGON1OYE6FAUV3KKP05","","38","img/flower5.png","76","38","3","1","3","2","1,0,0,1,1,0,1,0,1","0,0,1,1,0,1,0,1,1","2",""
"","html-keyboard-response","159","46119","0.0-159.0","3TVRFO09GL1W8DC8QKF8WQ4AGWFLXS","A1KAOUCQHCB3WV","3SA4EMRVJVOCGON1OYE6FAUV3KKP05","","null","<img src=""img/flower5.png"" style=""width:200px; border:14px solid green;"">","null","","","","","","","","",""
"","image-keyboard-response","160","46135","0.0-160.0","3TVRFO09GL1W8DC8QKF8WQ4AGWFLXS","A1KAOUCQHCB3WV","3SA4EMRVJVOCGON1OYE6FAUV3KKP05","","14","img/flower4.png","75","15","2","0","1","2","1,0,0,1,1,0,1,0,1","0,0,1,1,0,1,0,1,1","2",""
"","html-keyboard-response","161","46437","0.0-161.0","3TVRFO09GL1W8DC8QKF8WQ4AGWFLXS","A1KAOUCQHCB3WV","3SA4EMRVJVOCGON1OYE6FAUV3KKP05","","null","<img src=""img/flower4.png"" style=""width:200px;border:14px solid red;"">","null","","","","","","","","",""
"","image-keyboard-response","162","46458","0.0-162.0","3TVRFO09GL1W8DC8QKF8WQ4AGWFLXS","A1KAOUCQHCB3WV","3SA4EMRVJVOCGON1OYE6FAUV3KKP05","","19","img/flower4.png","75","20","2","0","1","2","1,0,0,1,1,0,1,0,1","0,0,1,1,0,1,0,1,1","2",""
"","html-keyboard-response","163","46759","0.0-163.0","3TVRFO09GL1W8DC8QKF8WQ4AGWFLXS","A1KAOUCQHCB3WV","3SA4EMRVJVOCGON1OYE6FAUV3KKP05","","null","<img src=""img/flower4.png"" style=""width:200px;border:14px solid red;"">","null","","","","","","","","",""
"","image-keyboard-response","164","46777","0.0-164.0","3TVRFO09GL1W8DC8QKF8WQ4AGWFLXS","A1KAOUCQHCB3WV","3SA4EMRVJVOCGON1OYE6FAUV3KKP05","","17","img/flower5.png","76","17","3","1","3","2","1,0,0,1,1,0,1,0,1","0,0,1,1,0,1,0,1,1","2",""
"","html-keyboard-response","165","47089","0.0-165.0","3TVRFO09GL1W8DC8QKF8WQ4AGWFLXS","A1KAOUCQHCB3WV","3SA4EMRVJVOCGON1OYE6FAUV3KKP05","","null","<img src=""img/flower5.png"" style=""width:200px; border:14px solid green;"">","null","","","","","","","","",""
"","image-keyboard-response","166","47135","0.0-166.0","3TVRFO09GL1W8DC8QKF8WQ4AGWFLXS","A1KAOUCQHCB3WV","3SA4EMRVJVOCGON1OYE6FAUV3KKP05","","43","img/flower4.png","75","45","2","0","1","2","1,0,0,1,1,0,1,0,1","0,0,1,1,0,1,0,1,1","2",""
"","html-keyboard-response","167","47436","0.0-167.0","3TVRFO09GL1W8DC8QKF8WQ4AGWFLXS","A1KAOUCQHCB3WV","3SA4EMRVJVOCGON1OYE6FAUV3KKP05","","null","<img src=""img/flower4.png"" style=""width:200px;border:14px solid red;"">","null","","","","","","","","",""
"","image-keyboard-response","168","47509","0.0-168.0","3TVRFO09GL1W8DC8QKF8WQ4AGWFLXS","A1KAOUCQHCB3WV","3SA4EMRVJVOCGON1OYE6FAUV3KKP05","","69","img/flower4.png","75","71","2","0","1","2","1,0,0,1,1,0,1,0,1","0,0,1,1,0,1,0,1,1","2",""
"","html-keyboard-response","169","47810","0.0-169.0","3TVRFO09GL1W8DC8QKF8WQ4AGWFLXS","A1KAOUCQHCB3WV","3SA4EMRVJVOCGON1OYE6FAUV3KKP05","","null","<img src=""img/flower4.png"" style=""width:200px;border:14px solid red;"">","null","","","","","","","","",""
"","image-keyboard-response","170","47999","0.0-170.0","3TVRFO09GL1W8DC8QKF8WQ4AGWFLXS","A1KAOUCQHCB3WV","3SA4EMRVJVOCGON1OYE6FAUV3KKP05","","186","img/flower4.png","76","188","3","1","1","2","1,0,0,1,1,0,1,0,1","0,0,1,1,0,1,0,1,1","2",""
"","html-keyboard-response","171","48341","0.0-171.0","3TVRFO09GL1W8DC8QKF8WQ4AGWFLXS","A1KAOUCQHCB3WV","3SA4EMRVJVOCGON1OYE6FAUV3KKP05","","null","<img src=""img/flower4.png"" style=""width:200px; border:14px solid green;"">","null","","","","","","","","",""
"","image-keyboard-response","172","48360","0.0-172.0","3TVRFO09GL1W8DC8QKF8WQ4AGWFLXS","A1KAOUCQHCB3WV","3SA4EMRVJVOCGON1OYE6FAUV3KKP05","","17","img/flower4.png","75","18","2","0","1","2","1,0,0,1,1,0,1,0,1","0,0,1,1,0,1,0,1,1","2",""
"","html-keyboard-response","173","48662","0.0-173.0","3TVRFO09GL1W8DC8QKF8WQ4AGWFLXS","A1KAOUCQHCB3WV","3SA4EMRVJVOCGON1OYE6FAUV3KKP05","","null","<img src=""img/flower4.png"" style=""width:200px;border:14px solid red;"">","null","","","","","","","","",""
"","image-keyboard-response","174","48838","0.0-174.0","3TVRFO09GL1W8DC8QKF8WQ4AGWFLXS","A1KAOUCQHCB3WV","3SA4EMRVJVOCGON1OYE6FAUV3KKP05","","175","img/flower5.png","76","175","3","1","3","2","1,0,0,1,1,0,1,0,1","0,0,1,1,0,1,0,1,1","2",""
"","html-keyboard-response","175","49139","0.0-175.0","3TVRFO09GL1W8DC8QKF8WQ4AGWFLXS","A1KAOUCQHCB3WV","3SA4EMRVJVOCGON1OYE6FAUV3KKP05","","null","<img src=""img/flower5.png"" style=""width:200px; border:14px solid green;"">","null","","","","","","","","",""
"","image-keyboard-response","176","49245","0.0-176.0","3TVRFO09GL1W8DC8QKF8WQ4AGWFLXS","A1KAOUCQHCB3WV","3SA4EMRVJVOCGON1OYE6FAUV3KKP05","","104","img/flower1.png","75","105","2","0","2","2","1,0,0,1,1,0,1,0,1","0,0,1,1,0,1,0,1,1","2",""
"","html-keyboard-response","177","49547","0.0-177.0","3TVRFO09GL1W8DC8QKF8WQ4AGWFLXS","A1KAOUCQHCB3WV","3SA4EMRVJVOCGON1OYE6FAUV3KKP05","","null","<img src=""img/flower1.png"" style=""width:200px;border:14px solid red;"">","null","","","","","","","","",""
"","image-keyboard-response","178","49558","0.0-178.0","3TVRFO09GL1W8DC8QKF8WQ4AGWFLXS","A1KAOUCQHCB3WV","3SA4EMRVJVOCGON1OYE6FAUV3KKP05","","10","img/flower5.png","76","10","3","1","3","2","1,0,0,1,1,0,1,0,1","0,0,1,1,0,1,0,1,1","2",""
"","html-keyboard-response","179","49860","0.0-179.0","3TVRFO09GL1W8DC8QKF8WQ4AGWFLXS","A1KAOUCQHCB3WV","3SA4EMRVJVOCGON1OYE6FAUV3KKP05","","null","<img src=""img/flower5.png"" style=""width:200px; border:14px solid green;"">","null","","","","","","","","",""
"","image-keyboard-response","180","49950","0.0-180.0","3TVRFO09GL1W8DC8QKF8WQ4AGWFLXS","A1KAOUCQHCB3WV","3SA4EMRVJVOCGON1OYE6FAUV3KKP05","","86","img/flower4.png","75","89","2","0","1","2","1,0,0,1,1,0,1,0,1","0,0,1,1,0,1,0,1,1","2",""
"","html-keyboard-response","181","50253","0.0-181.0","3TVRFO09GL1W8DC8QKF8WQ4AGWFLXS","A1KAOUCQHCB3WV","3SA4EMRVJVOCGON1OYE6FAUV3KKP05","","null","<img src=""img/flower4.png"" style=""width:200px;border:14px solid red;"">","null","","","","","","","","",""
"","image-keyboard-response","182","50261","0.0-182.0","3TVRFO09GL1W8DC8QKF8WQ4AGWFLXS","A1KAOUCQHCB3WV","3SA4EMRVJVOCGON1OYE6FAUV3KKP05","","6","img/flower3.png","76","7","3","1","1","1","1,0.333,0.333,0.333,1,0.333,0.333,0.333,1","1,0.333,0.333,0.333,1,0.333,0.333,0.333,1","1",""
"","html-keyboard-response","183","50562","0.0-183.0","3TVRFO09GL1W8DC8QKF8WQ4AGWFLXS","A1KAOUCQHCB3WV","3SA4EMRVJVOCGON1OYE6FAUV3KKP05","","null","<img src=""img/flower3.png"" style=""width:200px; border:14px solid green;"">","null","","","","","","","","",""
"","image-keyboard-response","184","50607","0.0-184.0","3TVRFO09GL1W8DC8QKF8WQ4AGWFLXS","A1KAOUCQHCB3WV","3SA4EMRVJVOCGON1OYE6FAUV3KKP05","","43","img/flower2.png","76","45","3","1","3","1","1,0.333,0.333,0.333,1,0.333,0.333,0.333,1","1,0.333,0.333,0.333,1,0.333,0.333,0.333,1","1",""
"","html-keyboard-response","185","50909","0.0-185.0","3TVRFO09GL1W8DC8QKF8WQ4AGWFLXS","A1KAOUCQHCB3WV","3SA4EMRVJVOCGON1OYE6FAUV3KKP05","","null","<img src=""img/flower2.png"" style=""width:200px; border:14px solid green;"">","null","","","","","","","","",""
"","image-keyboard-response","186","51008","0.0-186.0","3TVRFO09GL1W8DC8QKF8WQ4AGWFLXS","A1KAOUCQHCB3WV","3SA4EMRVJVOCGON1OYE6FAUV3KKP05","","97","img/flower6.png","76","98","3","0","2","1","1,0.333,0.333,0.333,1,0.333,0.333,0.333,1","1,0.333,0.333,0.333,1,0.333,0.333,0.333,1","1",""
"","html-keyboard-response","187","51310","0.0-187.0","3TVRFO09GL1W8DC8QKF8WQ4AGWFLXS","A1KAOUCQHCB3WV","3SA4EMRVJVOCGON1OYE6FAUV3KKP05","","null","<img src=""img/flower6.png"" style=""width:200px;border:14px solid red;"">","null","","","","","","","","",""
"","image-keyboard-response","188","51408","0.0-188.0","3TVRFO09GL1W8DC8QKF8WQ4AGWFLXS","A1KAOUCQHCB3WV","3SA4EMRVJVOCGON1OYE6FAUV3KKP05","","95","img/flower3.png","76","97","3","1","1","1","1,0.333,0.333,0.333,1,0.333,0.333,0.333,1","1,0.333,0.333,0.333,1,0.333,0.333,0.333,1","1",""
"","html-keyboard-response","189","51709","0.0-189.0","3TVRFO09GL1W8DC8QKF8WQ4AGWFLXS","A1KAOUCQHCB3WV","3SA4EMRVJVOCGON1OYE6FAUV3KKP05","","null","<img src=""img/flower3.png"" style=""width:200px; border:14px solid green;"">","null","","","","","","","","",""
"","image-keyboard-response","190","51711","0.0-190.0","3TVRFO09GL1W8DC8QKF8WQ4AGWFLXS","A1KAOUCQHCB3WV","3SA4EMRVJVOCGON1OYE6FAUV3KKP05","","1","img/flower6.png","76","2","3","0","2","1","1,0.333,0.333,0.333,1,0.333,0.333,0.333,1","1,0.333,0.333,0.333,1,0.333,0.333,0.333,1","1",""
"","html-keyboard-response","191","52012","0.0-191.0","3TVRFO09GL1W8DC8QKF8WQ4AGWFLXS","A1KAOUCQHCB3WV","3SA4EMRVJVOCGON1OYE6FAUV3KKP05","","null","<img src=""img/flower6.png"" style=""width:200px;border:14px solid red;"">","null","","","","","","","","",""
"","image-keyboard-response","192","52190","0.0-192.0","3TVRFO09GL1W8DC8QKF8WQ4AGWFLXS","A1KAOUCQHCB3WV","3SA4EMRVJVOCGON1OYE6FAUV3KKP05","","176","img/flower3.png","75","177","2","0","1","1","1,0.333,0.333,0.333,1,0.333,0.333,0.333,1","1,0.333,0.333,0.333,1,0.333,0.333,0.333,1","1",""
"","html-keyboard-response","193","52656","0.0-193.0","3TVRFO09GL1W8DC8QKF8WQ4AGWFLXS","A1KAOUCQHCB3WV","3SA4EMRVJVOCGON1OYE6FAUV3KKP05","","null","<img src=""img/flower3.png"" style=""width:200px;border:14px solid red;"">","null","","","","","","","","",""
"","image-keyboard-response","194","52844","0.0-194.0","3TVRFO09GL1W8DC8QKF8WQ4AGWFLXS","A1KAOUCQHCB3WV","3SA4EMRVJVOCGON1OYE6FAUV3KKP05","","187","img/flower2.png","76","189","3","1","3","1","1,0.333,0.333,0.333,1,0.333,0.333,0.333,1","1,0.333,0.333,0.333,1,0.333,0.333,0.333,1","1",""
"","html-keyboard-response","195","53147","0.0-195.0","3TVRFO09GL1W8DC8QKF8WQ4AGWFLXS","A1KAOUCQHCB3WV","3SA4EMRVJVOCGON1OYE6FAUV3KKP05","","null","<img src=""img/flower2.png"" style=""width:200px; border:14px solid green;"">","null","","","","","","","","",""
"","image-keyboard-response","196","53248","0.0-196.0","3TVRFO09GL1W8DC8QKF8WQ4AGWFLXS","A1KAOUCQHCB3WV","3SA4EMRVJVOCGON1OYE6FAUV3KKP05","","99","img/flower3.png","76","101","3","1","1","1","1,0.333,0.333,0.333,1,0.333,0.333,0.333,1","1,0.333,0.333,0.333,1,0.333,0.333,0.333,1","1",""
"","html-keyboard-response","197","53550","0.0-197.0","3TVRFO09GL1W8DC8QKF8WQ4AGWFLXS","A1KAOUCQHCB3WV","3SA4EMRVJVOCGON1OYE6FAUV3KKP05","","null","<img src=""img/flower3.png"" style=""width:200px; border:14px solid green;"">","null","","","","","","","","",""
"","image-keyboard-response","198","53668","0.0-198.0","3TVRFO09GL1W8DC8QKF8WQ4AGWFLXS","A1KAOUCQHCB3WV","3SA4EMRVJVOCGON1OYE6FAUV3KKP05","","115","img/flower3.png","75","117","2","0","1","1","1,0.333,0.333,0.333,1,0.333,0.333,0.333,1","1,0.333,0.333,0.333,1,0.333,0.333,0.333,1","1",""
"","html-keyboard-response","199","53972","0.0-199.0","3TVRFO09GL1W8DC8QKF8WQ4AGWFLXS","A1KAOUCQHCB3WV","3SA4EMRVJVOCGON1OYE6FAUV3KKP05","","null","<img src=""img/flower3.png"" style=""width:200px;border:14px solid red;"">","null","","","","","","","","",""
"","image-keyboard-response","200","54073","0.0-200.0","3TVRFO09GL1W8DC8QKF8WQ4AGWFLXS","A1KAOUCQHCB3WV","3SA4EMRVJVOCGON1OYE6FAUV3KKP05","","97","img/flower2.png","76","99","3","1","3","1","1,0.333,0.333,0.333,1,0.333,0.333,0.333,1","1,0.333,0.333,0.333,1,0.333,0.333,0.333,1","1",""
"","html-keyboard-response","201","54375","0.0-201.0","3TVRFO09GL1W8DC8QKF8WQ4AGWFLXS","A1KAOUCQHCB3WV","3SA4EMRVJVOCGON1OYE6FAUV3KKP05","","null","<img src=""img/flower2.png"" style=""width:200px; border:14px solid green;"">","null","","","","","","","","",""
"","image-keyboard-response","202","54468","0.0-202.0","3TVRFO09GL1W8DC8QKF8WQ4AGWFLXS","A1KAOUCQHCB3WV","3SA4EMRVJVOCGON1OYE6FAUV3KKP05","","91","img/flower3.png","76","92","3","0","1","1","1,0.333,0.333,0.333,1,0.333,0.333,0.333,1","1,0.333,0.333,0.333,1,0.333,0.333,0.333,1","1",""
"","html-keyboard-response","203","54771","0.0-203.0","3TVRFO09GL1W8DC8QKF8WQ4AGWFLXS","A1KAOUCQHCB3WV","3SA4EMRVJVOCGON1OYE6FAUV3KKP05","","null","<img src=""img/flower3.png"" style=""width:200px;border:14px solid red;"">","null","","","","","","","","",""
"","image-keyboard-response","204","54888","0.0-204.0","3TVRFO09GL1W8DC8QKF8WQ4AGWFLXS","A1KAOUCQHCB3WV","3SA4EMRVJVOCGON1OYE6FAUV3KKP05","","116","img/flower3.png","75","117","2","0","1","1","1,0.333,0.333,0.333,1,0.333,0.333,0.333,1","1,0.333,0.333,0.333,1,0.333,0.333,0.333,1","1",""
"","html-keyboard-response","205","55190","0.0-205.0","3TVRFO09GL1W8DC8QKF8WQ4AGWFLXS","A1KAOUCQHCB3WV","3SA4EMRVJVOCGON1OYE6FAUV3KKP05","","null","<img src=""img/flower3.png"" style=""width:200px;border:14px solid red;"">","null","","","","","","","","",""
"","image-keyboard-response","206","55288","0.0-206.0","3TVRFO09GL1W8DC8QKF8WQ4AGWFLXS","A1KAOUCQHCB3WV","3SA4EMRVJVOCGON1OYE6FAUV3KKP05","","95","img/flower2.png","75","97","2","0","3","1","1,0.333,0.333,0.333,1,0.333,0.333,0.333,1","1,0.333,0.333,0.333,1,0.333,0.333,0.333,1","1",""
"","html-keyboard-response","207","55589","0.0-207.0","3TVRFO09GL1W8DC8QKF8WQ4AGWFLXS","A1KAOUCQHCB3WV","3SA4EMRVJVOCGON1OYE6FAUV3KKP05","","null","<img src=""img/flower2.png"" style=""width:200px;border:14px solid red;"">","null","","","","","","","","",""
"","image-keyboard-response","208","55712","0.0-208.0","3TVRFO09GL1W8DC8QKF8WQ4AGWFLXS","A1KAOUCQHCB3WV","3SA4EMRVJVOCGON1OYE6FAUV3KKP05","","119","img/flower6.png","76","121","3","0","2","1","1,0.333,0.333,0.333,1,0.333,0.333,0.333,1","1,0.333,0.333,0.333,1,0.333,0.333,0.333,1","1",""
"","html-keyboard-response","209","56020","0.0-209.0","3TVRFO09GL1W8DC8QKF8WQ4AGWFLXS","A1KAOUCQHCB3WV","3SA4EMRVJVOCGON1OYE6FAUV3KKP05","","null","<img src=""img/flower6.png"" style=""width:200px;border:14px solid red;"">","null","","","","","","","","",""
"","image-keyboard-response","210","56034","0.0-210.0","3TVRFO09GL1W8DC8QKF8WQ4AGWFLXS","A1KAOUCQHCB3WV","3SA4EMRVJVOCGON1OYE6FAUV3KKP05","","12","img/flower3.png","76","14","3","0","1","1","1,0.333,0.333,0.333,1,0.333,0.333,0.333,1","1,0.333,0.333,0.333,1,0.333,0.333,0.333,1","1",""
"","html-keyboard-response","211","56337","0.0-211.0","3TVRFO09GL1W8DC8QKF8WQ4AGWFLXS","A1KAOUCQHCB3WV","3SA4EMRVJVOCGON1OYE6FAUV3KKP05","","null","<img src=""img/flower3.png"" style=""width:200px;border:14px solid red;"">","null","","","","","","","","",""
"","image-keyboard-response","212","56628","0.0-212.0","3TVRFO09GL1W8DC8QKF8WQ4AGWFLXS","A1KAOUCQHCB3WV","3SA4EMRVJVOCGON1OYE6FAUV3KKP05","","283","img/flower6.png","75","287","2","1","2","1","1,0.333,0.333,0.333,1,0.333,0.333,0.333,1","1,0.333,0.333,0.333,1,0.333,0.333,0.333,1","1",""
"","html-keyboard-response","213","56930","0.0-213.0","3TVRFO09GL1W8DC8QKF8WQ4AGWFLXS","A1KAOUCQHCB3WV","3SA4EMRVJVOCGON1OYE6FAUV3KKP05","","null","<img src=""img/flower6.png"" style=""width:200px; border:14px solid green;"">","null","","","","","","","","",""
"","image-keyboard-response","214","56969","0.0-214.0","3TVRFO09GL1W8DC8QKF8WQ4AGWFLXS","A1KAOUCQHCB3WV","3SA4EMRVJVOCGON1OYE6FAUV3KKP05","","36","img/flower3.png","76","38","3","0","1","1","1,0.333,0.333,0.333,1,0.333,0.333,0.333,1","1,0.333,0.333,0.333,1,0.333,0.333,0.333,1","1",""
"","html-keyboard-response","215","57273","0.0-215.0","3TVRFO09GL1W8DC8QKF8WQ4AGWFLXS","A1KAOUCQHCB3WV","3SA4EMRVJVOCGON1OYE6FAUV3KKP05","","null","<img src=""img/flower3.png"" style=""width:200px;border:14px solid red;"">","null","","","","","","","","",""
"","image-keyboard-response","216","57338","0.0-216.0","3TVRFO09GL1W8DC8QKF8WQ4AGWFLXS","A1KAOUCQHCB3WV","3SA4EMRVJVOCGON1OYE6FAUV3KKP05","","60","img/flower2.png","75","63","2","0","3","1","1,0.333,0.333,0.333,1,0.333,0.333,0.333,1","1,0.333,0.333,0.333,1,0.333,0.333,0.333,1","1",""
"","html-keyboard-response","217","57640","0.0-217.0","3TVRFO09GL1W8DC8QKF8WQ4AGWFLXS","A1KAOUCQHCB3WV","3SA4EMRVJVOCGON1OYE6FAUV3KKP05","","null","<img src=""img/flower2.png"" style=""width:200px;border:14px solid red;"">","null","","","","","","","","",""
"","image-keyboard-response","218","57700","0.0-218.0","3TVRFO09GL1W8DC8QKF8WQ4AGWFLXS","A1KAOUCQHCB3WV","3SA4EMRVJVOCGON1OYE6FAUV3KKP05","","57","img/flower2.png","76","59","3","1","3","1","1,0.333,0.333,0.333,1,0.333,0.333,0.333,1","1,0.333,0.333,0.333,1,0.333,0.333,0.333,1","1",""
"","html-keyboard-response","219","58001","0.0-219.0","3TVRFO09GL1W8DC8QKF8WQ4AGWFLXS","A1KAOUCQHCB3WV","3SA4EMRVJVOCGON1OYE6FAUV3KKP05","","null","<img src=""img/flower2.png"" style=""width:200px; border:14px solid green;"">","null","","","","","","","","",""
"","image-keyboard-response","220","58041","0.0-220.0","3TVRFO09GL1W8DC8QKF8WQ4AGWFLXS","A1KAOUCQHCB3WV","3SA4EMRVJVOCGON1OYE6FAUV3KKP05","","36","img/flower2.png","75","38","2","0","3","1","1,0.333,0.333,0.333,1,0.333,0.333,0.333,1","1,0.333,0.333,0.333,1,0.333,0.333,0.333,1","1",""
"","html-keyboard-response","221","58342","0.0-221.0","3TVRFO09GL1W8DC8QKF8WQ4AGWFLXS","A1KAOUCQHCB3WV","3SA4EMRVJVOCGON1OYE6FAUV3KKP05","","null","<img src=""img/flower2.png"" style=""width:200px;border:14px solid red;"">","null","","","","","","","","",""
"","image-keyboard-response","222","58444","0.0-222.0","3TVRFO09GL1W8DC8QKF8WQ4AGWFLXS","A1KAOUCQHCB3WV","3SA4EMRVJVOCGON1OYE6FAUV3KKP05","","100","img/flower2.png","76","101","3","1","3","1","1,0.333,0.333,0.333,1,0.333,0.333,0.333,1","1,0.333,0.333,0.333,1,0.333,0.333,0.333,1","1",""
"","html-keyboard-response","223","58747","0.0-223.0","3TVRFO09GL1W8DC8QKF8WQ4AGWFLXS","A1KAOUCQHCB3WV","3SA4EMRVJVOCGON1OYE6FAUV3KKP05","","null","<img src=""img/flower2.png"" style=""width:200px; border:14px solid green;"">","null","","","","","","","","",""
"","image-keyboard-response","224","58789","0.0-224.0","3TVRFO09GL1W8DC8QKF8WQ4AGWFLXS","A1KAOUCQHCB3WV","3SA4EMRVJVOCGON1OYE6FAUV3KKP05","","40","img/flower2.png","75","42","2","1","3","1","1,0.333,0.333,0.333,1,0.333,0.333,0.333,1","1,0.333,0.333,0.333,1,0.333,0.333,0.333,1","1",""
"","html-keyboard-response","225","59091","0.0-225.0","3TVRFO09GL1W8DC8QKF8WQ4AGWFLXS","A1KAOUCQHCB3WV","3SA4EMRVJVOCGON1OYE6FAUV3KKP05","","null","<img src=""img/flower2.png"" style=""width:200px; border:14px solid green;"">","null","","","","","","","","",""
"","image-keyboard-response","226","59140","0.0-226.0","3TVRFO09GL1W8DC8QKF8WQ4AGWFLXS","A1KAOUCQHCB3WV","3SA4EMRVJVOCGON1OYE6FAUV3KKP05","","45","img/flower2.png","76","48","3","1","3","1","1,0.333,0.333,0.333,1,0.333,0.333,0.333,1","1,0.333,0.333,0.333,1,0.333,0.333,0.333,1","1",""
"","html-keyboard-response","227","59441","0.0-227.0","3TVRFO09GL1W8DC8QKF8WQ4AGWFLXS","A1KAOUCQHCB3WV","3SA4EMRVJVOCGON1OYE6FAUV3KKP05","","null","<img src=""img/flower2.png"" style=""width:200px; border:14px solid green;"">","null","","","","","","","","",""
"","image-keyboard-response","228","59458","0.0-228.0","3TVRFO09GL1W8DC8QKF8WQ4AGWFLXS","A1KAOUCQHCB3WV","3SA4EMRVJVOCGON1OYE6FAUV3KKP05","","14","img/flower6.png","75","16","2","1","2","1","1,0.333,0.333,0.333,1,0.333,0.333,0.333,1","1,0.333,0.333,0.333,1,0.333,0.333,0.333,1","1",""
"","html-keyboard-response","229","59760","0.0-229.0","3TVRFO09GL1W8DC8QKF8WQ4AGWFLXS","A1KAOUCQHCB3WV","3SA4EMRVJVOCGON1OYE6FAUV3KKP05","","null","<img src=""img/flower6.png"" style=""width:200px; border:14px solid green;"">","null","","","","","","","","",""
"","image-keyboard-response","230","59837","0.0-230.0","3TVRFO09GL1W8DC8QKF8WQ4AGWFLXS","A1KAOUCQHCB3WV","3SA4EMRVJVOCGON1OYE6FAUV3KKP05","","75","img/flower3.png","76","77","3","0","1","1","1,0.333,0.333,0.333,1,0.333,0.333,0.333,1","1,0.333,0.333,0.333,1,0.333,0.333,0.333,1","1",""
"","html-keyboard-response","231","60183","0.0-231.0","3TVRFO09GL1W8DC8QKF8WQ4AGWFLXS","A1KAOUCQHCB3WV","3SA4EMRVJVOCGON1OYE6FAUV3KKP05","","null","<img src=""img/flower3.png"" style=""width:200px;border:14px solid red;"">","null","","","","","","","","",""
"","image-keyboard-response","232","60268","0.0-232.0","3TVRFO09GL1W8DC8QKF8WQ4AGWFLXS","A1KAOUCQHCB3WV","3SA4EMRVJVOCGON1OYE6FAUV3KKP05","","84","img/flower2.png","75","84","2","0","3","1","1,0.333,0.333,0.333,1,0.333,0.333,0.333,1","1,0.333,0.333,0.333,1,0.333,0.333,0.333,1","1",""
"","html-keyboard-response","233","60569","0.0-233.0","3TVRFO09GL1W8DC8QKF8WQ4AGWFLXS","A1KAOUCQHCB3WV","3SA4EMRVJVOCGON1OYE6FAUV3KKP05","","null","<img src=""img/flower2.png"" style=""width:200px;border:14px solid red;"">","null","","","","","","","","",""
"","image-keyboard-response","234","60697","0.0-234.0","3TVRFO09GL1W8DC8QKF8WQ4AGWFLXS","A1KAOUCQHCB3WV","3SA4EMRVJVOCGON1OYE6FAUV3KKP05","","126","img/flower2.png","75","127","2","0","3","1","1,0.333,0.333,0.333,1,0.333,0.333,0.333,1","1,0.333,0.333,0.333,1,0.333,0.333,0.333,1","1",""
"","html-keyboard-response","235","60999","0.0-235.0","3TVRFO09GL1W8DC8QKF8WQ4AGWFLXS","A1KAOUCQHCB3WV","3SA4EMRVJVOCGON1OYE6FAUV3KKP05","","null","<img src=""img/flower2.png"" style=""width:200px;border:14px solid red;"">","null","","","","","","","","",""
"","image-keyboard-response","236","61049","0.0-236.0","3TVRFO09GL1W8DC8QKF8WQ4AGWFLXS","A1KAOUCQHCB3WV","3SA4EMRVJVOCGON1OYE6FAUV3KKP05","","49","img/flower6.png","76","50","3","0","2","1","1,0.333,0.333,0.333,1,0.333,0.333,0.333,1","1,0.333,0.333,0.333,1,0.333,0.333,0.333,1","1",""
"","html-keyboard-response","237","61353","0.0-237.0","3TVRFO09GL1W8DC8QKF8WQ4AGWFLXS","A1KAOUCQHCB3WV","3SA4EMRVJVOCGON1OYE6FAUV3KKP05","","null","<img src=""img/flower6.png"" style=""width:200px;border:14px solid red;"">","null","","","","","","","","",""
"","image-keyboard-response","238","61369","0.0-238.0","3TVRFO09GL1W8DC8QKF8WQ4AGWFLXS","A1KAOUCQHCB3WV","3SA4EMRVJVOCGON1OYE6FAUV3KKP05","","14","img/flower6.png","76","15","3","0","2","1","1,0.333,0.333,0.333,1,0.333,0.333,0.333,1","1,0.333,0.333,0.333,1,0.333,0.333,0.333,1","1",""
"","html-keyboard-response","239","61671","0.0-239.0","3TVRFO09GL1W8DC8QKF8WQ4AGWFLXS","A1KAOUCQHCB3WV","3SA4EMRVJVOCGON1OYE6FAUV3KKP05","","null","<img src=""img/flower6.png"" style=""width:200px;border:14px solid red;"">","null","","","","","","","","",""
"","image-keyboard-response","240","61780","0.0-240.0","3TVRFO09GL1W8DC8QKF8WQ4AGWFLXS","A1KAOUCQHCB3WV","3SA4EMRVJVOCGON1OYE6FAUV3KKP05","","106","img/flower3.png","76","108","3","1","1","1","1,0.333,0.333,0.333,1,0.333,0.333,0.333,1","1,0.333,0.333,0.333,1,0.333,0.333,0.333,1","1",""
"","html-keyboard-response","241","62094","0.0-241.0","3TVRFO09GL1W8DC8QKF8WQ4AGWFLXS","A1KAOUCQHCB3WV","3SA4EMRVJVOCGON1OYE6FAUV3KKP05","","null","<img src=""img/flower3.png"" style=""width:200px; border:14px solid green;"">","null","","","","","","","","",""
"","image-keyboard-response","242","62196","0.0-242.0","3TVRFO09GL1W8DC8QKF8WQ4AGWFLXS","A1KAOUCQHCB3WV","3SA4EMRVJVOCGON1OYE6FAUV3KKP05","","93","img/flower2.png","75","98","2","0","3","1","1,0.333,0.333,0.333,1,0.333,0.333,0.333,1","1,0.333,0.333,0.333,1,0.333,0.333,0.333,1","1",""
"","html-keyboard-response","243","62502","0.0-243.0","3TVRFO09GL1W8DC8QKF8WQ4AGWFLXS","A1KAOUCQHCB3WV","3SA4EMRVJVOCGON1OYE6FAUV3KKP05","","null","<img src=""img/flower2.png"" style=""width:200px;border:14px solid red;"">","null","","","","","","","","",""
"","image-keyboard-response","244","62547","0.0-244.0","3TVRFO09GL1W8DC8QKF8WQ4AGWFLXS","A1KAOUCQHCB3WV","3SA4EMRVJVOCGON1OYE6FAUV3KKP05","","42","img/flower6.png","76","43","3","1","2","1","1,0.333,0.333,0.333,1,0.333,0.333,0.333,1","1,0.333,0.333,0.333,1,0.333,0.333,0.333,1","1",""
"","html-keyboard-response","245","62849","0.0-245.0","3TVRFO09GL1W8DC8QKF8WQ4AGWFLXS","A1KAOUCQHCB3WV","3SA4EMRVJVOCGON1OYE6FAUV3KKP05","","null","<img src=""img/flower6.png"" style=""width:200px; border:14px solid green;"">","null","","","","","","","","",""
"","image-keyboard-response","246","62953","0.0-246.0","3TVRFO09GL1W8DC8QKF8WQ4AGWFLXS","A1KAOUCQHCB3WV","3SA4EMRVJVOCGON1OYE6FAUV3KKP05","","102","img/flower3.png","76","103","3","0","1","1","1,0.333,0.333,0.333,1,0.333,0.333,0.333,1","1,0.333,0.333,0.333,1,0.333,0.333,0.333,1","1",""
"","html-keyboard-response","247","63259","0.0-247.0","3TVRFO09GL1W8DC8QKF8WQ4AGWFLXS","A1KAOUCQHCB3WV","3SA4EMRVJVOCGON1OYE6FAUV3KKP05","","null","<img src=""img/flower3.png"" style=""width:200px;border:14px solid red;"">","null","","","","","","","","",""
"","image-keyboard-response","248","63320","0.0-248.0","3TVRFO09GL1W8DC8QKF8WQ4AGWFLXS","A1KAOUCQHCB3WV","3SA4EMRVJVOCGON1OYE6FAUV3KKP05","","56","img/flower6.png","75","60","2","1","2","1","1,0.333,0.333,0.333,1,0.333,0.333,0.333,1","1,0.333,0.333,0.333,1,0.333,0.333,0.333,1","1",""
"","html-keyboard-response","249","63621","0.0-249.0","3TVRFO09GL1W8DC8QKF8WQ4AGWFLXS","A1KAOUCQHCB3WV","3SA4EMRVJVOCGON1OYE6FAUV3KKP05","","null","<img src=""img/flower6.png"" style=""width:200px; border:14px solid green;"">","null","","","","","","","","",""
"","image-keyboard-response","250","63668","0.0-250.0","3TVRFO09GL1W8DC8QKF8WQ4AGWFLXS","A1KAOUCQHCB3WV","3SA4EMRVJVOCGON1OYE6FAUV3KKP05","","43","img/flower3.png","76","45","3","0","1","1","1,0.333,0.333,0.333,1,0.333,0.333,0.333,1","1,0.333,0.333,0.333,1,0.333,0.333,0.333,1","1",""
"","html-keyboard-response","251","63970","0.0-251.0","3TVRFO09GL1W8DC8QKF8WQ4AGWFLXS","A1KAOUCQHCB3WV","3SA4EMRVJVOCGON1OYE6FAUV3KKP05","","null","<img src=""img/flower3.png"" style=""width:200px;border:14px solid red;"">","null","","","","","","","","",""
"","image-keyboard-response","252","64009","0.0-252.0","3TVRFO09GL1W8DC8QKF8WQ4AGWFLXS","A1KAOUCQHCB3WV","3SA4EMRVJVOCGON1OYE6FAUV3KKP05","","37","img/flower6.png","75","39","2","1","2","1","1,0.333,0.333,0.333,1,0.333,0.333,0.333,1","1,0.333,0.333,0.333,1,0.333,0.333,0.333,1","1",""
"","html-keyboard-response","253","64404","0.0-253.0","3TVRFO09GL1W8DC8QKF8WQ4AGWFLXS","A1KAOUCQHCB3WV","3SA4EMRVJVOCGON1OYE6FAUV3KKP05","","null","<img src=""img/flower6.png"" style=""width:200px; border:14px solid green;"">","null","","","","","","","","",""
"","image-keyboard-response","254","64582","0.0-254.0","3TVRFO09GL1W8DC8QKF8WQ4AGWFLXS","A1KAOUCQHCB3WV","3SA4EMRVJVOCGON1OYE6FAUV3KKP05","","177","img/flower6.png","76","178","3","0","2","1","1,0.333,0.333,0.333,1,0.333,0.333,0.333,1","1,0.333,0.333,0.333,1,0.333,0.333,0.333,1","1",""
"","html-keyboard-response","255","64883","0.0-255.0","3TVRFO09GL1W8DC8QKF8WQ4AGWFLXS","A1KAOUCQHCB3WV","3SA4EMRVJVOCGON1OYE6FAUV3KKP05","","null","<img src=""img/flower6.png"" style=""width:200px;border:14px solid red;"">","null","","","","","","","","",""
"","image-keyboard-response","256","64894","0.0-256.0","3TVRFO09GL1W8DC8QKF8WQ4AGWFLXS","A1KAOUCQHCB3WV","3SA4EMRVJVOCGON1OYE6FAUV3KKP05","","7","img/flower2.png","75","10","2","0","3","1","1,0.333,0.333,0.333,1,0.333,0.333,0.333,1","1,0.333,0.333,0.333,1,0.333,0.333,0.333,1","1",""
"","html-keyboard-response","257","65194","0.0-257.0","3TVRFO09GL1W8DC8QKF8WQ4AGWFLXS","A1KAOUCQHCB3WV","3SA4EMRVJVOCGON1OYE6FAUV3KKP05","","null","<img src=""img/flower2.png"" style=""width:200px;border:14px solid red;"">","null","","","","","","","","",""
"","image-keyboard-response","258","65204","0.0-258.0","3TVRFO09GL1W8DC8QKF8WQ4AGWFLXS","A1KAOUCQHCB3WV","3SA4EMRVJVOCGON1OYE6FAUV3KKP05","","8","img/flower6.png","76","9","3","1","2","1","1,0.333,0.333,0.333,1,0.333,0.333,0.333,1","1,0.333,0.333,0.333,1,0.333,0.333,0.333,1","1",""
"","html-keyboard-response","259","65506","0.0-259.0","3TVRFO09GL1W8DC8QKF8WQ4AGWFLXS","A1KAOUCQHCB3WV","3SA4EMRVJVOCGON1OYE6FAUV3KKP05","","null","<img src=""img/flower6.png"" style=""width:200px; border:14px solid green;"">","null","","","","","","","","",""
"","image-keyboard-response","260","65538","0.0-260.0","3TVRFO09GL1W8DC8QKF8WQ4AGWFLXS","A1KAOUCQHCB3WV","3SA4EMRVJVOCGON1OYE6FAUV3KKP05","","31","img/flower6.png","75","31","2","1","2","1","1,0.333,0.333,0.333,1,0.333,0.333,0.333,1","1,0.333,0.333,0.333,1,0.333,0.333,0.333,1","1",""
"","html-keyboard-response","261","65840","0.0-261.0","3TVRFO09GL1W8DC8QKF8WQ4AGWFLXS","A1KAOUCQHCB3WV","3SA4EMRVJVOCGON1OYE6FAUV3KKP05","","null","<img src=""img/flower6.png"" style=""width:200px; border:14px solid green;"">","null","","","","","","","","",""
"","image-keyboard-response","262","65869","0.0-262.0","3TVRFO09GL1W8DC8QKF8WQ4AGWFLXS","A1KAOUCQHCB3WV","3SA4EMRVJVOCGON1OYE6FAUV3KKP05","","26","img/flower6.png","76","28","3","0","2","1","1,0.333,0.333,0.333,1,0.333,0.333,0.333,1","1,0.333,0.333,0.333,1,0.333,0.333,0.333,1","1",""
"","html-keyboard-response","263","66172","0.0-263.0","3TVRFO09GL1W8DC8QKF8WQ4AGWFLXS","A1KAOUCQHCB3WV","3SA4EMRVJVOCGON1OYE6FAUV3KKP05","","null","<img src=""img/flower6.png"" style=""width:200px;border:14px solid red;"">","null","","","","","","","","",""
"","image-keyboard-response","264","66271","0.0-264.0","3TVRFO09GL1W8DC8QKF8WQ4AGWFLXS","A1KAOUCQHCB3WV","3SA4EMRVJVOCGON1OYE6FAUV3KKP05","","98","img/flower6.png","76","98","3","1","2","1","1,0.333,0.333,0.333,1,0.333,0.333,0.333,1","1,0.333,0.333,0.333,1,0.333,0.333,0.333,1","1",""
"","html-keyboard-response","265","66605","0.0-265.0","3TVRFO09GL1W8DC8QKF8WQ4AGWFLXS","A1KAOUCQHCB3WV","3SA4EMRVJVOCGON1OYE6FAUV3KKP05","","null","<img src=""img/flower6.png"" style=""width:200px; border:14px solid green;"">","null","","","","","","","","",""
"","image-keyboard-response","266","66623","0.0-266.0","3TVRFO09GL1W8DC8QKF8WQ4AGWFLXS","A1KAOUCQHCB3WV","3SA4EMRVJVOCGON1OYE6FAUV3KKP05","","16","img/flower2.png","75","17","2","0","3","1","1,0.333,0.333,0.333,1,0.333,0.333,0.333,1","1,0.333,0.333,0.333,1,0.333,0.333,0.333,1","1",""
"","html-keyboard-response","267","66924","0.0-267.0","3TVRFO09GL1W8DC8QKF8WQ4AGWFLXS","A1KAOUCQHCB3WV","3SA4EMRVJVOCGON1OYE6FAUV3KKP05","","null","<img src=""img/flower2.png"" style=""width:200px;border:14px solid red;"">","null","","","","","","","","",""
"","image-keyboard-response","268","66938","0.0-268.0","3TVRFO09GL1W8DC8QKF8WQ4AGWFLXS","A1KAOUCQHCB3WV","3SA4EMRVJVOCGON1OYE6FAUV3KKP05","","12","img/flower3.png","76","13","3","1","1","1","1,0.333,0.333,0.333,1,0.333,0.333,0.333,1","1,0.333,0.333,0.333,1,0.333,0.333,0.333,1","1",""
"","html-keyboard-response","269","67239","0.0-269.0","3TVRFO09GL1W8DC8QKF8WQ4AGWFLXS","A1KAOUCQHCB3WV","3SA4EMRVJVOCGON1OYE6FAUV3KKP05","","null","<img src=""img/flower3.png"" style=""width:200px; border:14px solid green;"">","null","","","","","","","","",""
"","image-keyboard-response","270","67328","0.0-270.0","3TVRFO09GL1W8DC8QKF8WQ4AGWFLXS","A1KAOUCQHCB3WV","3SA4EMRVJVOCGON1OYE6FAUV3KKP05","","87","img/flower2.png","75","88","2","0","3","1","1,0.333,0.333,0.333,1,0.333,0.333,0.333,1","1,0.333,0.333,0.333,1,0.333,0.333,0.333,1","1",""
"","html-keyboard-response","271","67629","0.0-271.0","3TVRFO09GL1W8DC8QKF8WQ4AGWFLXS","A1KAOUCQHCB3WV","3SA4EMRVJVOCGON1OYE6FAUV3KKP05","","null","<img src=""img/flower2.png"" style=""width:200px;border:14px solid red;"">","null","","","","","","","","",""
"","image-keyboard-response","272","67720","0.0-272.0","3TVRFO09GL1W8DC8QKF8WQ4AGWFLXS","A1KAOUCQHCB3WV","3SA4EMRVJVOCGON1OYE6FAUV3KKP05","","88","img/flower3.png","76","90","3","0","1","1","1,0.333,0.333,0.333,1,0.333,0.333,0.333,1","1,0.333,0.333,0.333,1,0.333,0.333,0.333,1","1",""
"","html-keyboard-response","273","68021","0.0-273.0","3TVRFO09GL1W8DC8QKF8WQ4AGWFLXS","A1KAOUCQHCB3WV","3SA4EMRVJVOCGON1OYE6FAUV3KKP05","","null","<img src=""img/flower3.png"" style=""width:200px;border:14px solid red;"">","null","","","","","","","","",""
"","image-keyboard-response","274","68061","0.0-274.0","3TVRFO09GL1W8DC8QKF8WQ4AGWFLXS","A1KAOUCQHCB3WV","3SA4EMRVJVOCGON1OYE6FAUV3KKP05","","38","img/flower3.png","75","40","2","0","1","1","1,0.333,0.333,0.333,1,0.333,0.333,0.333,1","1,0.333,0.333,0.333,1,0.333,0.333,0.333,1","1",""
"","html-keyboard-response","275","68363","0.0-275.0","3TVRFO09GL1W8DC8QKF8WQ4AGWFLXS","A1KAOUCQHCB3WV","3SA4EMRVJVOCGON1OYE6FAUV3KKP05","","null","<img src=""img/flower3.png"" style=""width:200px;border:14px solid red;"">","null","","","","","","","","",""
"","image-keyboard-response","276","68502","0.0-276.0","3TVRFO09GL1W8DC8QKF8WQ4AGWFLXS","A1KAOUCQHCB3WV","3SA4EMRVJVOCGON1OYE6FAUV3KKP05","","136","img/flower6.png","75","137","2","1","2","1","1,0.333,0.333,0.333,1,0.333,0.333,0.333,1","1,0.333,0.333,0.333,1,0.333,0.333,0.333,1","1",""
"","html-keyboard-response","277","68804","0.0-277.0","3TVRFO09GL1W8DC8QKF8WQ4AGWFLXS","A1KAOUCQHCB3WV","3SA4EMRVJVOCGON1OYE6FAUV3KKP05","","null","<img src=""img/flower6.png"" style=""width:200px; border:14px solid green;"">","null","","","","","","","","",""
"","image-keyboard-response","278","68828","0.0-278.0","3TVRFO09GL1W8DC8QKF8WQ4AGWFLXS","A1KAOUCQHCB3WV","3SA4EMRVJVOCGON1OYE6FAUV3KKP05","","23","img/flower3.png","76","25","3","0","1","1","1,0.333,0.333,0.333,1,0.333,0.333,0.333,1","1,0.333,0.333,0.333,1,0.333,0.333,0.333,1","1",""
"","html-keyboard-response","279","69134","0.0-279.0","3TVRFO09GL1W8DC8QKF8WQ4AGWFLXS","A1KAOUCQHCB3WV","3SA4EMRVJVOCGON1OYE6FAUV3KKP05","","null","<img src=""img/flower3.png"" style=""width:200px;border:14px solid red;"">","null","","","","","","","","",""
"","image-keyboard-response","280","69207","0.0-280.0","3TVRFO09GL1W8DC8QKF8WQ4AGWFLXS","A1KAOUCQHCB3WV","3SA4EMRVJVOCGON1OYE6FAUV3KKP05","","70","img/flower3.png","75","72","2","0","1","1","1,0.333,0.333,0.333,1,0.333,0.333,0.333,1","1,0.333,0.333,0.333,1,0.333,0.333,0.333,1","1",""
"","html-keyboard-response","281","69509","0.0-281.0","3TVRFO09GL1W8DC8QKF8WQ4AGWFLXS","A1KAOUCQHCB3WV","3SA4EMRVJVOCGON1OYE6FAUV3KKP05","","null","<img src=""img/flower3.png"" style=""width:200px;border:14px solid red;"">","null","","","","","","","","",""
"","image-keyboard-response","282","69574","0.0-282.0","3TVRFO09GL1W8DC8QKF8WQ4AGWFLXS","A1KAOUCQHCB3WV","3SA4EMRVJVOCGON1OYE6FAUV3KKP05","","61","img/flower6.png","76","64","3","0","2","1","1,0.333,0.333,0.333,1,0.333,0.333,0.333,1","1,0.333,0.333,0.333,1,0.333,0.333,0.333,1","1",""
"","html-keyboard-response","283","69878","0.0-283.0","3TVRFO09GL1W8DC8QKF8WQ4AGWFLXS","A1KAOUCQHCB3WV","3SA4EMRVJVOCGON1OYE6FAUV3KKP05","","null","<img src=""img/flower6.png"" style=""width:200px;border:14px solid red;"">","null","","","","","","","","",""
"","image-keyboard-response","284","70051","0.0-284.0","3TVRFO09GL1W8DC8QKF8WQ4AGWFLXS","A1KAOUCQHCB3WV","3SA4EMRVJVOCGON1OYE6FAUV3KKP05","","171","img/flower3.png","75","172","2","0","1","1","1,0.333,0.333,0.333,1,0.333,0.333,0.333,1","1,0.333,0.333,0.333,1,0.333,0.333,0.333,1","1",""
"","html-keyboard-response","285","70353","0.0-285.0","3TVRFO09GL1W8DC8QKF8WQ4AGWFLXS","A1KAOUCQHCB3WV","3SA4EMRVJVOCGON1OYE6FAUV3KKP05","","null","<img src=""img/flower3.png"" style=""width:200px;border:14px solid red;"">","null","","","","","","","","",""
"","image-keyboard-response","286","70378","0.0-286.0","3TVRFO09GL1W8DC8QKF8WQ4AGWFLXS","A1KAOUCQHCB3WV","3SA4EMRVJVOCGON1OYE6FAUV3KKP05","","23","img/flower2.png","76","24","3","1","3","1","1,0.333,0.333,0.333,1,0.333,0.333,0.333,1","1,0.333,0.333,0.333,1,0.333,0.333,0.333,1","1",""
"","html-keyboard-response","287","70679","0.0-287.0","3TVRFO09GL1W8DC8QKF8WQ4AGWFLXS","A1KAOUCQHCB3WV","3SA4EMRVJVOCGON1OYE6FAUV3KKP05","","null","<img src=""img/flower2.png"" style=""width:200px; border:14px solid green;"">","null","","","","","","","","",""
"","image-keyboard-response","288","70734","0.0-288.0","3TVRFO09GL1W8DC8QKF8WQ4AGWFLXS","A1KAOUCQHCB3WV","3SA4EMRVJVOCGON1OYE6FAUV3KKP05","","52","img/flower2.png","75","54","2","1","3","1","1,0.333,0.333,0.333,1,0.333,0.333,0.333,1","1,0.333,0.333,0.333,1,0.333,0.333,0.333,1","1",""
"","html-keyboard-response","289","71095","0.0-289.0","3TVRFO09GL1W8DC8QKF8WQ4AGWFLXS","A1KAOUCQHCB3WV","3SA4EMRVJVOCGON1OYE6FAUV3KKP05","","null","<img src=""img/flower2.png"" style=""width:200px; border:14px solid green;"">","null","","","","","","","","",""
"","image-keyboard-response","290","71353","0.0-290.0","3TVRFO09GL1W8DC8QKF8WQ4AGWFLXS","A1KAOUCQHCB3WV","3SA4EMRVJVOCGON1OYE6FAUV3KKP05","","256","img/flower6.png","75","257","2","1","2","1","1,0.333,0.333,0.333,1,0.333,0.333,0.333,1","1,0.333,0.333,0.333,1,0.333,0.333,0.333,1","1",""
"","html-keyboard-response","291","71655","0.0-291.0","3TVRFO09GL1W8DC8QKF8WQ4AGWFLXS","A1KAOUCQHCB3WV","3SA4EMRVJVOCGON1OYE6FAUV3KKP05","","null","<img src=""img/flower6.png"" style=""width:200px; border:14px solid green;"">","null","","","","","","","","",""
"","image-keyboard-response","292","71734","0.0-292.0","3TVRFO09GL1W8DC8QKF8WQ4AGWFLXS","A1KAOUCQHCB3WV","3SA4EMRVJVOCGON1OYE6FAUV3KKP05","","76","img/flower3.png","75","78","2","0","1","1","1,0.333,0.333,0.333,1,0.333,0.333,0.333,1","1,0.333,0.333,0.333,1,0.333,0.333,0.333,1","1",""
"","html-keyboard-response","293","72036","0.0-293.0","3TVRFO09GL1W8DC8QKF8WQ4AGWFLXS","A1KAOUCQHCB3WV","3SA4EMRVJVOCGON1OYE6FAUV3KKP05","","null","<img src=""img/flower3.png"" style=""width:200px;border:14px solid red;"">","null","","","","","","","","",""
"","image-keyboard-response","294","72048","0.0-294.0","3TVRFO09GL1W8DC8QKF8WQ4AGWFLXS","A1KAOUCQHCB3WV","3SA4EMRVJVOCGON1OYE6FAUV3KKP05","","10","img/flower2.png","76","11","3","1","3","1","1,0.333,0.333,0.333,1,0.333,0.333,0.333,1","1,0.333,0.333,0.333,1,0.333,0.333,0.333,1","1",""
"","html-keyboard-response","295","72353","0.0-295.0","3TVRFO09GL1W8DC8QKF8WQ4AGWFLXS","A1KAOUCQHCB3WV","3SA4EMRVJVOCGON1OYE6FAUV3KKP05","","null","<img src=""img/flower2.png"" style=""width:200px; border:14px solid green;"">","null","","","","","","","","",""
"","image-keyboard-response","296","72459","0.0-296.0","3TVRFO09GL1W8DC8QKF8WQ4AGWFLXS","A1KAOUCQHCB3WV","3SA4EMRVJVOCGON1OYE6FAUV3KKP05","","100","img/flower3.png","75","104","2","1","1","1","1,0.333,0.333,0.333,1,0.333,0.333,0.333,1","1,0.333,0.333,0.333,1,0.333,0.333,0.333,1","1",""
"","html-keyboard-response","297","72761","0.0-297.0","3TVRFO09GL1W8DC8QKF8WQ4AGWFLXS","A1KAOUCQHCB3WV","3SA4EMRVJVOCGON1OYE6FAUV3KKP05","","null","<img src=""img/flower3.png"" style=""width:200px; border:14px solid green;"">","null","","","","","","","","",""
"","image-keyboard-response","298","72848","0.0-298.0","3TVRFO09GL1W8DC8QKF8WQ4AGWFLXS","A1KAOUCQHCB3WV","3SA4EMRVJVOCGON1OYE6FAUV3KKP05","","85","img/flower2.png","76","86","3","1","3","1","1,0.333,0.333,0.333,1,0.333,0.333,0.333,1","1,0.333,0.333,0.333,1,0.333,0.333,0.333,1","1",""
"","html-keyboard-response","299","73151","0.0-299.0","3TVRFO09GL1W8DC8QKF8WQ4AGWFLXS","A1KAOUCQHCB3WV","3SA4EMRVJVOCGON1OYE6FAUV3KKP05","","null","<img src=""img/flower2.png"" style=""width:200px; border:14px solid green;"">","null","","","","","","","","",""
"","image-keyboard-response","300","73195","0.0-300.0","3TVRFO09GL1W8DC8QKF8WQ4AGWFLXS","A1KAOUCQHCB3WV","3SA4EMRVJVOCGON1OYE6FAUV3KKP05","","40","img/flower2.png","75","44","2","0","3","1","1,0.333,0.333,0.333,1,0.333,0.333,0.333,1","1,0.333,0.333,0.333,1,0.333,0.333,0.333,1","1",""
"","html-keyboard-response","301","73498","0.0-301.0","3TVRFO09GL1W8DC8QKF8WQ4AGWFLXS","A1KAOUCQHCB3WV","3SA4EMRVJVOCGON1OYE6FAUV3KKP05","","null","<img src=""img/flower2.png"" style=""width:200px;border:14px solid red;"">","null","","","","","","","","",""
"","image-keyboard-response","302","73550","0.0-302.0","3TVRFO09GL1W8DC8QKF8WQ4AGWFLXS","A1KAOUCQHCB3WV","3SA4EMRVJVOCGON1OYE6FAUV3KKP05","","49","img/flower2.png","75","51","2","1","3","1","1,0.333,0.333,0.333,1,0.333,0.333,0.333,1","1,0.333,0.333,0.333,1,0.333,0.333,0.333,1","1",""
"","html-keyboard-response","303","73852","0.0-303.0","3TVRFO09GL1W8DC8QKF8WQ4AGWFLXS","A1KAOUCQHCB3WV","3SA4EMRVJVOCGON1OYE6FAUV3KKP05","","null","<img src=""img/flower2.png"" style=""width:200px; border:14px solid green;"">","null","","","","","","","","",""
"","image-keyboard-response","304","73868","0.0-304.0","3TVRFO09GL1W8DC8QKF8WQ4AGWFLXS","A1KAOUCQHCB3WV","3SA4EMRVJVOCGON1OYE6FAUV3KKP05","","13","img/flower2.png","76","14","3","1","3","1","1,0.333,0.333,0.333,1,0.333,0.333,0.333,1","1,0.333,0.333,0.333,1,0.333,0.333,0.333,1","1",""
"","html-keyboard-response","305","74171","0.0-305.0","3TVRFO09GL1W8DC8QKF8WQ4AGWFLXS","A1KAOUCQHCB3WV","3SA4EMRVJVOCGON1OYE6FAUV3KKP05","","null","<img src=""img/flower2.png"" style=""width:200px; border:14px solid green;"">","null","","","","","","","","",""
"","image-keyboard-response","306","74260","0.0-306.0","3TVRFO09GL1W8DC8QKF8WQ4AGWFLXS","A1KAOUCQHCB3WV","3SA4EMRVJVOCGON1OYE6FAUV3KKP05","","87","img/flower3.png","76","89","3","0","1","1","1,0.333,0.333,0.333,1,0.333,0.333,0.333,1","1,0.333,0.333,0.333,1,0.333,0.333,0.333,1","1",""
"","html-keyboard-response","307","74562","0.0-307.0","3TVRFO09GL1W8DC8QKF8WQ4AGWFLXS","A1KAOUCQHCB3WV","3SA4EMRVJVOCGON1OYE6FAUV3KKP05","","null","<img src=""img/flower3.png"" style=""width:200px;border:14px solid red;"">","null","","","","","","","","",""
"","image-keyboard-response","308","74623","0.0-308.0","3TVRFO09GL1W8DC8QKF8WQ4AGWFLXS","A1KAOUCQHCB3WV","3SA4EMRVJVOCGON1OYE6FAUV3KKP05","","57","img/flower6.png","75","59","2","1","2","1","1,0.333,0.333,0.333,1,0.333,0.333,0.333,1","1,0.333,0.333,0.333,1,0.333,0.333,0.333,1","1",""
"","html-keyboard-response","309","74925","0.0-309.0","3TVRFO09GL1W8DC8QKF8WQ4AGWFLXS","A1KAOUCQHCB3WV","3SA4EMRVJVOCGON1OYE6FAUV3KKP05","","null","<img src=""img/flower6.png"" style=""width:200px; border:14px solid green;"">","null","","","","","","","","",""
"","image-keyboard-response","310","74959","0.0-310.0","3TVRFO09GL1W8DC8QKF8WQ4AGWFLXS","A1KAOUCQHCB3WV","3SA4EMRVJVOCGON1OYE6FAUV3KKP05","","33","img/flower2.png","76","35","3","1","3","1","1,0.333,0.333,0.333,1,0.333,0.333,0.333,1","1,0.333,0.333,0.333,1,0.333,0.333,0.333,1","1",""
"","html-keyboard-response","311","75264","0.0-311.0","3TVRFO09GL1W8DC8QKF8WQ4AGWFLXS","A1KAOUCQHCB3WV","3SA4EMRVJVOCGON1OYE6FAUV3KKP05","","null","<img src=""img/flower2.png"" style=""width:200px; border:14px solid green;"">","null","","","","","","","","",""
"","image-keyboard-response","312","75398","0.0-312.0","3TVRFO09GL1W8DC8QKF8WQ4AGWFLXS","A1KAOUCQHCB3WV","3SA4EMRVJVOCGON1OYE6FAUV3KKP05","","132","img/flower2.png","75","133","2","0","3","1","1,0.333,0.333,0.333,1,0.333,0.333,0.333,1","1,0.333,0.333,0.333,1,0.333,0.333,0.333,1","1",""
"","html-keyboard-response","313","75705","0.0-313.0","3TVRFO09GL1W8DC8QKF8WQ4AGWFLXS","A1KAOUCQHCB3WV","3SA4EMRVJVOCGON1OYE6FAUV3KKP05","","null","<img src=""img/flower2.png"" style=""width:200px;border:14px solid red;"">","null","","","","","","","","",""
"","image-keyboard-response","314","75859","0.0-314.0","3TVRFO09GL1W8DC8QKF8WQ4AGWFLXS","A1KAOUCQHCB3WV","3SA4EMRVJVOCGON1OYE6FAUV3KKP05","","152","img/flower3.png","76","153","3","0","1","1","1,0.333,0.333,0.333,1,0.333,0.333,0.333,1","1,0.333,0.333,0.333,1,0.333,0.333,0.333,1","1",""
"","html-keyboard-response","315","76160","0.0-315.0","3TVRFO09GL1W8DC8QKF8WQ4AGWFLXS","A1KAOUCQHCB3WV","3SA4EMRVJVOCGON1OYE6FAUV3KKP05","","null","<img src=""img/flower3.png"" style=""width:200px;border:14px solid red;"">","null","","","","","","","","",""
"","image-keyboard-response","316","76459","0.0-316.0","3TVRFO09GL1W8DC8QKF8WQ4AGWFLXS","A1KAOUCQHCB3WV","3SA4EMRVJVOCGON1OYE6FAUV3KKP05","","296","img/flower6.png","76","299","3","0","2","1","1,0.333,0.333,0.333,1,0.333,0.333,0.333,1","1,0.333,0.333,0.333,1,0.333,0.333,0.333,1","1",""
"","html-keyboard-response","317","76760","0.0-317.0","3TVRFO09GL1W8DC8QKF8WQ4AGWFLXS","A1KAOUCQHCB3WV","3SA4EMRVJVOCGON1OYE6FAUV3KKP05","","null","<img src=""img/flower6.png"" style=""width:200px;border:14px solid red;"">","null","","","","","","","","",""
"","image-keyboard-response","318","76919","0.0-318.0","3TVRFO09GL1W8DC8QKF8WQ4AGWFLXS","A1KAOUCQHCB3WV","3SA4EMRVJVOCGON1OYE6FAUV3KKP05","","151","img/flower2.png","76","156","3","1","3","1","1,0.333,0.333,0.333,1,0.333,0.333,0.333,1","1,0.333,0.333,0.333,1,0.333,0.333,0.333,1","1",""
"","html-keyboard-response","319","77222","0.0-319.0","3TVRFO09GL1W8DC8QKF8WQ4AGWFLXS","A1KAOUCQHCB3WV","3SA4EMRVJVOCGON1OYE6FAUV3KKP05","","null","<img src=""img/flower2.png"" style=""width:200px; border:14px solid green;"">","null","","","","","","","","",""
"","image-keyboard-response","320","77284","0.0-320.0","3TVRFO09GL1W8DC8QKF8WQ4AGWFLXS","A1KAOUCQHCB3WV","3SA4EMRVJVOCGON1OYE6FAUV3KKP05","","53","img/flower3.png","75","56","2","1","1","1","1,0.333,0.333,0.333,1,0.333,0.333,0.333,1","1,0.333,0.333,0.333,1,0.333,0.333,0.333,1","1",""
"","html-keyboard-response","321","77586","0.0-321.0","3TVRFO09GL1W8DC8QKF8WQ4AGWFLXS","A1KAOUCQHCB3WV","3SA4EMRVJVOCGON1OYE6FAUV3KKP05","","null","<img src=""img/flower3.png"" style=""width:200px; border:14px solid green;"">","null","","","","","","","","",""
"","image-keyboard-response","322","77608","0.0-322.0","3TVRFO09GL1W8DC8QKF8WQ4AGWFLXS","A1KAOUCQHCB3WV","3SA4EMRVJVOCGON1OYE6FAUV3KKP05","","19","img/flower6.png","76","21","3","0","2","1","1,0.333,0.333,0.333,1,0.333,0.333,0.333,1","1,0.333,0.333,0.333,1,0.333,0.333,0.333,1","1",""
"","html-keyboard-response","323","77909","0.0-323.0","3TVRFO09GL1W8DC8QKF8WQ4AGWFLXS","A1KAOUCQHCB3WV","3SA4EMRVJVOCGON1OYE6FAUV3KKP05","","null","<img src=""img/flower6.png"" style=""width:200px;border:14px solid red;"">","null","","","","","","","","",""
"","image-keyboard-response","324","78022","0.0-324.0","3TVRFO09GL1W8DC8QKF8WQ4AGWFLXS","A1KAOUCQHCB3WV","3SA4EMRVJVOCGON1OYE6FAUV3KKP05","","112","img/flower6.png","76","112","3","0","2","1","1,0.333,0.333,0.333,1,0.333,0.333,0.333,1","1,0.333,0.333,0.333,1,0.333,0.333,0.333,1","1",""
"","html-keyboard-response","325","78325","0.0-325.0","3TVRFO09GL1W8DC8QKF8WQ4AGWFLXS","A1KAOUCQHCB3WV","3SA4EMRVJVOCGON1OYE6FAUV3KKP05","","null","<img src=""img/flower6.png"" style=""width:200px;border:14px solid red;"">","null","","","","","","","","",""
"","image-keyboard-response","326","78349","0.0-326.0","3TVRFO09GL1W8DC8QKF8WQ4AGWFLXS","A1KAOUCQHCB3WV","3SA4EMRVJVOCGON1OYE6FAUV3KKP05","","22","img/flower6.png","75","23","2","1","2","1","1,0.333,0.333,0.333,1,0.333,0.333,0.333,1","1,0.333,0.333,0.333,1,0.333,0.333,0.333,1","1",""
"","html-keyboard-response","327","78651","0.0-327.0","3TVRFO09GL1W8DC8QKF8WQ4AGWFLXS","A1KAOUCQHCB3WV","3SA4EMRVJVOCGON1OYE6FAUV3KKP05","","null","<img src=""img/flower6.png"" style=""width:200px; border:14px solid green;"">","null","","","","","","","","",""
"","image-keyboard-response","328","78701","0.0-328.0","3TVRFO09GL1W8DC8QKF8WQ4AGWFLXS","A1KAOUCQHCB3WV","3SA4EMRVJVOCGON1OYE6FAUV3KKP05","","45","img/flower6.png","76","49","3","0","2","1","1,0.333,0.333,0.333,1,0.333,0.333,0.333,1","1,0.333,0.333,0.333,1,0.333,0.333,0.333,1","1",""
"","html-keyboard-response","329","79003","0.0-329.0","3TVRFO09GL1W8DC8QKF8WQ4AGWFLXS","A1KAOUCQHCB3WV","3SA4EMRVJVOCGON1OYE6FAUV3KKP05","","null","<img src=""img/flower6.png"" style=""width:200px;border:14px solid red;"">","null","","","","","","","","",""
"","image-keyboard-response","330","79019","0.0-330.0","3TVRFO09GL1W8DC8QKF8WQ4AGWFLXS","A1KAOUCQHCB3WV","3SA4EMRVJVOCGON1OYE6FAUV3KKP05","","14","img/flower2.png","75","15","2","0","3","1","1,0.333,0.333,0.333,1,0.333,0.333,0.333,1","1,0.333,0.333,0.333,1,0.333,0.333,0.333,1","1",""
"","html-keyboard-response","331","79371","0.0-331.0","3TVRFO09GL1W8DC8QKF8WQ4AGWFLXS","A1KAOUCQHCB3WV","3SA4EMRVJVOCGON1OYE6FAUV3KKP05","","null","<img src=""img/flower2.png"" style=""width:200px;border:14px solid red;"">","null","","","","","","","","",""
"","image-keyboard-response","332","79388","0.0-332.0","3TVRFO09GL1W8DC8QKF8WQ4AGWFLXS","A1KAOUCQHCB3WV","3SA4EMRVJVOCGON1OYE6FAUV3KKP05","","15","img/flower6.png","75","15","2","1","2","1","1,0.333,0.333,0.333,1,0.333,0.333,0.333,1","1,0.333,0.333,0.333,1,0.333,0.333,0.333,1","1",""
"","html-keyboard-response","333","79885","0.0-333.0","3TVRFO09GL1W8DC8QKF8WQ4AGWFLXS","A1KAOUCQHCB3WV","3SA4EMRVJVOCGON1OYE6FAUV3KKP05","","null","<img src=""img/flower6.png"" style=""width:200px; border:14px solid green;"">","null","","","","","","","","",""
"","image-keyboard-response","334","79889","0.0-334.0","3TVRFO09GL1W8DC8QKF8WQ4AGWFLXS","A1KAOUCQHCB3WV","3SA4EMRVJVOCGON1OYE6FAUV3KKP05","","2","img/flower2.png","75","3","2","0","3","1","1,0.333,0.333,0.333,1,0.333,0.333,0.333,1","1,0.333,0.333,0.333,1,0.333,0.333,0.333,1","1",""
"","html-keyboard-response","335","80191","0.0-335.0","3TVRFO09GL1W8DC8QKF8WQ4AGWFLXS","A1KAOUCQHCB3WV","3SA4EMRVJVOCGON1OYE6FAUV3KKP05","","null","<img src=""img/flower2.png"" style=""width:200px;border:14px solid red;"">","null","","","","","","","","",""
"","image-keyboard-response","336","80299","0.0-336.0","3TVRFO09GL1W8DC8QKF8WQ4AGWFLXS","A1KAOUCQHCB3WV","3SA4EMRVJVOCGON1OYE6FAUV3KKP05","","106","img/flower3.png","76","108","3","1","1","1","1,0.333,0.333,0.333,1,0.333,0.333,0.333,1","1,0.333,0.333,0.333,1,0.333,0.333,0.333,1","1",""
"","html-keyboard-response","337","80601","0.0-337.0","3TVRFO09GL1W8DC8QKF8WQ4AGWFLXS","A1KAOUCQHCB3WV","3SA4EMRVJVOCGON1OYE6FAUV3KKP05","","null","<img src=""img/flower3.png"" style=""width:200px; border:14px solid green;"">","null","","","","","","","","",""
"","image-keyboard-response","338","80749","0.0-338.0","3TVRFO09GL1W8DC8QKF8WQ4AGWFLXS","A1KAOUCQHCB3WV","3SA4EMRVJVOCGON1OYE6FAUV3KKP05","","147","img/flower3.png","76","148","3","0","1","1","1,0.333,0.333,0.333,1,0.333,0.333,0.333,1","1,0.333,0.333,0.333,1,0.333,0.333,0.333,1","1",""
"","html-keyboard-response","339","81051","0.0-339.0","3TVRFO09GL1W8DC8QKF8WQ4AGWFLXS","A1KAOUCQHCB3WV","3SA4EMRVJVOCGON1OYE6FAUV3KKP05","","null","<img src=""img/flower3.png"" style=""width:200px;border:14px solid red;"">","null","","","","","","","","",""
"","image-keyboard-response","340","81139","0.0-340.0","3TVRFO09GL1W8DC8QKF8WQ4AGWFLXS","A1KAOUCQHCB3WV","3SA4EMRVJVOCGON1OYE6FAUV3KKP05","","84","img/flower3.png","76","86","3","0","1","1","1,0.333,0.333,0.333,1,0.333,0.333,0.333,1","1,0.333,0.333,0.333,1,0.333,0.333,0.333,1","1",""
"","html-keyboard-response","341","81441","0.0-341.0","3TVRFO09GL1W8DC8QKF8WQ4AGWFLXS","A1KAOUCQHCB3WV","3SA4EMRVJVOCGON1OYE6FAUV3KKP05","","null","<img src=""img/flower3.png"" style=""width:200px;border:14px solid red;"">","null","","","","","","","","",""
"","image-keyboard-response","342","81528","0.0-342.0","3TVRFO09GL1W8DC8QKF8WQ4AGWFLXS","A1KAOUCQHCB3WV","3SA4EMRVJVOCGON1OYE6FAUV3KKP05","","84","img/flower6.png","76","86","3","1","2","1","1,0.333,0.333,0.333,1,0.333,0.333,0.333,1","1,0.333,0.333,0.333,1,0.333,0.333,0.333,1","1",""
"","html-keyboard-response","343","81829","0.0-343.0","3TVRFO09GL1W8DC8QKF8WQ4AGWFLXS","A1KAOUCQHCB3WV","3SA4EMRVJVOCGON1OYE6FAUV3KKP05","","null","<img src=""img/flower6.png"" style=""width:200px; border:14px solid green;"">","null","","","","","","","","",""
"","image-keyboard-response","344","81848","0.0-344.0","3TVRFO09GL1W8DC8QKF8WQ4AGWFLXS","A1KAOUCQHCB3WV","3SA4EMRVJVOCGON1OYE6FAUV3KKP05","","17","img/flower6.png","75","18","2","1","2","1","1,0.333,0.333,0.333,1,0.333,0.333,0.333,1","1,0.333,0.333,0.333,1,0.333,0.333,0.333,1","1",""
"","html-keyboard-response","345","82149","0.0-345.0","3TVRFO09GL1W8DC8QKF8WQ4AGWFLXS","A1KAOUCQHCB3WV","3SA4EMRVJVOCGON1OYE6FAUV3KKP05","","null","<img src=""img/flower6.png"" style=""width:200px; border:14px solid green;"">","null","","","","","","","","",""
"","image-keyboard-response","346","82282","0.0-346.0","3TVRFO09GL1W8DC8QKF8WQ4AGWFLXS","A1KAOUCQHCB3WV","3SA4EMRVJVOCGON1OYE6FAUV3KKP05","","132","img/flower3.png","75","133","2","0","1","1","1,0.333,0.333,0.333,1,0.333,0.333,0.333,1","1,0.333,0.333,0.333,1,0.333,0.333,0.333,1","1",""
"","html-keyboard-response","347","82584","0.0-347.0","3TVRFO09GL1W8DC8QKF8WQ4AGWFLXS","A1KAOUCQHCB3WV","3SA4EMRVJVOCGON1OYE6FAUV3KKP05","","null","<img src=""img/flower3.png"" style=""width:200px;border:14px solid red;"">","null","","","","","","","","",""
"","image-keyboard-response","348","82729","0.0-348.0","3TVRFO09GL1W8DC8QKF8WQ4AGWFLXS","A1KAOUCQHCB3WV","3SA4EMRVJVOCGON1OYE6FAUV3KKP05","","144","img/flower3.png","75","146","2","1","1","1","1,0.333,0.333,0.333,1,0.333,0.333,0.333,1","1,0.333,0.333,0.333,1,0.333,0.333,0.333,1","1",""
"","html-keyboard-response","349","83033","0.0-349.0","3TVRFO09GL1W8DC8QKF8WQ4AGWFLXS","A1KAOUCQHCB3WV","3SA4EMRVJVOCGON1OYE6FAUV3KKP05","","null","<img src=""img/flower3.png"" style=""width:200px; border:14px solid green;"">","null","","","","","","","","",""
"","image-keyboard-response","350","83118","0.0-350.0","3TVRFO09GL1W8DC8QKF8WQ4AGWFLXS","A1KAOUCQHCB3WV","3SA4EMRVJVOCGON1OYE6FAUV3KKP05","","84","img/flower2.png","75","84","2","0","3","1","1,0.333,0.333,0.333,1,0.333,0.333,0.333,1","1,0.333,0.333,0.333,1,0.333,0.333,0.333,1","1",""
"","html-keyboard-response","351","83420","0.0-351.0","3TVRFO09GL1W8DC8QKF8WQ4AGWFLXS","A1KAOUCQHCB3WV","3SA4EMRVJVOCGON1OYE6FAUV3KKP05","","null","<img src=""img/flower2.png"" style=""width:200px;border:14px solid red;"">","null","","","","","","","","",""
"","image-keyboard-response","352","83440","0.0-352.0","3TVRFO09GL1W8DC8QKF8WQ4AGWFLXS","A1KAOUCQHCB3WV","3SA4EMRVJVOCGON1OYE6FAUV3KKP05","","17","img/flower6.png","76","18","3","1","2","1","1,0.333,0.333,0.333,1,0.333,0.333,0.333,1","1,0.333,0.333,0.333,1,0.333,0.333,0.333,1","1",""
"","html-keyboard-response","353","83744","0.0-353.0","3TVRFO09GL1W8DC8QKF8WQ4AGWFLXS","A1KAOUCQHCB3WV","3SA4EMRVJVOCGON1OYE6FAUV3KKP05","","null","<img src=""img/flower6.png"" style=""width:200px; border:14px solid green;"">","null","","","","","","","","",""
"","image-keyboard-response","354","83766","0.0-354.0","3TVRFO09GL1W8DC8QKF8WQ4AGWFLXS","A1KAOUCQHCB3WV","3SA4EMRVJVOCGON1OYE6FAUV3KKP05","","19","img/flower3.png","75","20","2","0","1","1","1,0.333,0.333,0.333,1,0.333,0.333,0.333,1","1,0.333,0.333,0.333,1,0.333,0.333,0.333,1","1",""
"","html-keyboard-response","355","84069","0.0-355.0","3TVRFO09GL1W8DC8QKF8WQ4AGWFLXS","A1KAOUCQHCB3WV","3SA4EMRVJVOCGON1OYE6FAUV3KKP05","","null","<img src=""img/flower3.png"" style=""width:200px;border:14px solid red;"">","null","","","","","","","","",""
"","image-keyboard-response","356","84097","0.0-356.0","3TVRFO09GL1W8DC8QKF8WQ4AGWFLXS","A1KAOUCQHCB3WV","3SA4EMRVJVOCGON1OYE6FAUV3KKP05","","25","img/flower6.png","76","27","3","0","2","1","1,0.333,0.333,0.333,1,0.333,0.333,0.333,1","1,0.333,0.333,0.333,1,0.333,0.333,0.333,1","1",""
"","html-keyboard-response","357","84402","0.0-357.0","3TVRFO09GL1W8DC8QKF8WQ4AGWFLXS","A1KAOUCQHCB3WV","3SA4EMRVJVOCGON1OYE6FAUV3KKP05","","null","<img src=""img/flower6.png"" style=""width:200px;border:14px solid red;"">","null","","","","","","","","",""
"","image-keyboard-response","358","84475","0.0-358.0","3TVRFO09GL1W8DC8QKF8WQ4AGWFLXS","A1KAOUCQHCB3WV","3SA4EMRVJVOCGON1OYE6FAUV3KKP05","","62","img/flower6.png","75","67","2","1","2","1","1,0.333,0.333,0.333,1,0.333,0.333,0.333,1","1,0.333,0.333,0.333,1,0.333,0.333,0.333,1","1",""
"","html-keyboard-response","359","84782","0.0-359.0","3TVRFO09GL1W8DC8QKF8WQ4AGWFLXS","A1KAOUCQHCB3WV","3SA4EMRVJVOCGON1OYE6FAUV3KKP05","","null","<img src=""img/flower6.png"" style=""width:200px; border:14px solid green;"">","null","","","","","","","","",""
"","image-keyboard-response","360","84878","0.0-360.0","3TVRFO09GL1W8DC8QKF8WQ4AGWFLXS","A1KAOUCQHCB3WV","3SA4EMRVJVOCGON1OYE6FAUV3KKP05","","94","img/flower2.png","76","95","3","1","3","1","1,0.333,0.333,0.333,1,0.333,0.333,0.333,1","1,0.333,0.333,0.333,1,0.333,0.333,0.333,1","1",""
"","html-keyboard-response","361","85181","0.0-361.0","3TVRFO09GL1W8DC8QKF8WQ4AGWFLXS","A1KAOUCQHCB3WV","3SA4EMRVJVOCGON1OYE6FAUV3KKP05","","null","<img src=""img/flower2.png"" style=""width:200px; border:14px solid green;"">","null","","","","","","","","",""
"","html-keyboard-response","362","87169","0.0-362.0","3TVRFO09GL1W8DC8QKF8WQ4AGWFLXS","A1KAOUCQHCB3WV","3SA4EMRVJVOCGON1OYE6FAUV3KKP05","","","","","","","","","","","","",""
"","instructions","363","88714","0.0-363.0","3TVRFO09GL1W8DC8QKF8WQ4AGWFLXS","A1KAOUCQHCB3WV","3SA4EMRVJVOCGON1OYE6FAUV3KKP05","[{""page_index"":0,""viewing_time"":1543}]","1543","","","","","","","","","","",""
"","survey-text","364","92242","0.0-364.0","3TVRFO09GL1W8DC8QKF8WQ4AGWFLXS","A1KAOUCQHCB3WV","3SA4EMRVJVOCGON1OYE6FAUV3KKP05","","3514","","","","","","","","","","","{""Q0"":""A1KAOUCQHCB3WV""}"
