"success","trial_type","trial_index","time_elapsed","internal_node_id","assignmentID","mturkID","hitID","view_history","rt","stimulus","key_press","reactionTime","a","r","s","cond","reward_cond","reward_cond_actual","reward_matrix_idx","responses"
"true","fullscreen","0","3055","0.0-0.0","3EO896NRAXHJW6FOIP2YR86CZDHTJE","A1KD8SJ4EUQT1Q","3MXX6RQ9EVRTFC527Z18RDK8KW6P4R","","","","","","","","","","","","",""
"","instructions","1","297771","0.0-1.0","3EO896NRAXHJW6FOIP2YR86CZDHTJE","A1KD8SJ4EUQT1Q","3MXX6RQ9EVRTFC527Z18RDK8KW6P4R","[{""page_index"":0,""viewing_time"":2765.7999999523163},{""page_index"":1,""viewing_time"":2420.399999856949},{""page_index"":2,""viewing_time"":2967.100000143051},{""page_index"":3,""viewing_time"":4293.299999952316},{""page_index"":4,""viewing_time"":276840.90000009537},{""page_index"":5,""viewing_time"":1740.3999998569489},{""page_index"":6,""viewing_time"":1821.5},{""page_index"":7,""viewing_time"":1863.9000000953674}]","294713.89999985695","","","","","","","","","","",""
"","image-keyboard-response","2","298426","0.0-2.0","3EO896NRAXHJW6FOIP2YR86CZDHTJE","A1KD8SJ4EUQT1Q","3MXX6RQ9EVRTFC527Z18RDK8KW6P4R","","652.9000000953674","img/flower2.png","75","654.5","2","1","2","1","1,0.333,0.333,0.333,1,0.333,0.333,0.333,1","1,0.333,0.333,0.333,1,0.333,0.333,0.333,1","1",""
"","html-keyboard-response","3","298729","0.0-3.0","3EO896NRAXHJW6FOIP2YR86CZDHTJE","A1KD8SJ4EUQT1Q","3MXX6RQ9EVRTFC527Z18RDK8KW6P4R","","null","<img src=""img/flower2.png"" style=""width:200px; border:14px solid green;"">","null","","","","","","","","",""
"","image-keyboard-response","4","299391","0.0-4.0","3EO896NRAXHJW6FOIP2YR86CZDHTJE","A1KD8SJ4EUQT1Q","3MXX6RQ9EVRTFC527Z18RDK8KW6P4R","","660.1999998092651","img/flower1.png","76","661.5","3","1","3","1","1,0.333,0.333,0.333,1,0.333,0.333,0.333,1","1,0.333,0.333,0.333,1,0.333,0.333,0.333,1","1",""
"","html-keyboard-response","5","299694","0.0-5.0","3EO896NRAXHJW6FOIP2YR86CZDHTJE","A1KD8SJ4EUQT1Q","3MXX6RQ9EVRTFC527Z18RDK8KW6P4R","","null","<img src=""img/flower1.png"" style=""width:200px; border:14px solid green;"">","null","","","","","","","","",""
"","image-keyboard-response","6","300260","0.0-6.0","3EO896NRAXHJW6FOIP2YR86CZDHTJE","A1KD8SJ4EUQT1Q","3MXX6RQ9EVRTFC527Z18RDK8KW6P4R","","564.5999999046326","img/flower1.png","76","565.7000000476837","3","1","3","1","1,0.333,0.333,0.333,1,0.333,0.333,0.333,1","1,0.333,0.333,0.333,1,0.333,0.333,0.333,1","1",""
"","html-keyboard-response","7","300573","0.0-7.0","3EO896NRAXHJW6FOIP2YR86CZDHTJE","A1KD8SJ4EUQT1Q","3MXX6RQ9EVRTFC527Z18RDK8KW6P4R","","null","<img src=""img/flower1.png"" style=""width:200px; border:14px solid green;"">","null","","","","","","","","",""
"","image-keyboard-response","8","301177","0.0-8.0","3EO896NRAXHJW6FOIP2YR86CZDHTJE","A1KD8SJ4EUQT1Q","3MXX6RQ9EVRTFC527Z18RDK8KW6P4R","","602.7000000476837","img/flower2.png","75","603.7999999523163","2","1","2","1","1,0.333,0.333,0.333,1,0.333,0.333,0.333,1","1,0.333,0.333,0.333,1,0.333,0.333,0.333,1","1",""
"","html-keyboard-response","9","301480","0.0-9.0","3EO896NRAXHJW6FOIP2YR86CZDHTJE","A1KD8SJ4EUQT1Q","3MXX6RQ9EVRTFC527Z18RDK8KW6P4R","","null","<img src=""img/flower2.png"" style=""width:200px; border:14px solid green;"">","null","","","","","","","","",""
"","image-keyboard-response","10","302124","0.0-10.0","3EO896NRAXHJW6FOIP2YR86CZDHTJE","A1KD8SJ4EUQT1Q","3MXX6RQ9EVRTFC527Z18RDK8KW6P4R","","643.3999998569489","img/flower3.png","74","644.0999999046326","1","1","1","1","1,0.333,0.333,0.333,1,0.333,0.333,0.333,1","1,0.333,0.333,0.333,1,0.333,0.333,0.333,1","1",""
"","html-keyboard-response","11","302425","0.0-11.0","3EO896NRAXHJW6FOIP2YR86CZDHTJE","A1KD8SJ4EUQT1Q","3MXX6RQ9EVRTFC527Z18RDK8KW6P4R","","null","<img src=""img/flower3.png"" style=""width:200px; border:14px solid green;"">","null","","","","","","","","",""
"","image-keyboard-response","12","302763","0.0-12.0","3EO896NRAXHJW6FOIP2YR86CZDHTJE","A1KD8SJ4EUQT1Q","3MXX6RQ9EVRTFC527Z18RDK8KW6P4R","","336.40000009536743","img/flower3.png","74","337.5","1","1","1","1","1,0.333,0.333,0.333,1,0.333,0.333,0.333,1","1,0.333,0.333,0.333,1,0.333,0.333,0.333,1","1",""
"","html-keyboard-response","13","303064","0.0-13.0","3EO896NRAXHJW6FOIP2YR86CZDHTJE","A1KD8SJ4EUQT1Q","3MXX6RQ9EVRTFC527Z18RDK8KW6P4R","","null","<img src=""img/flower3.png"" style=""width:200px; border:14px solid green;"">","null","","","","","","","","",""
"","image-keyboard-response","14","303649","0.0-14.0","3EO896NRAXHJW6FOIP2YR86CZDHTJE","A1KD8SJ4EUQT1Q","3MXX6RQ9EVRTFC527Z18RDK8KW6P4R","","583.3999998569489","img/flower1.png","75","584.7000000476837","2","0","3","1","1,0.333,0.333,0.333,1,0.333,0.333,0.333,1","1,0.333,0.333,0.333,1,0.333,0.333,0.333,1","1",""
"","html-keyboard-response","15","303951","0.0-15.0","3EO896NRAXHJW6FOIP2YR86CZDHTJE","A1KD8SJ4EUQT1Q","3MXX6RQ9EVRTFC527Z18RDK8KW6P4R","","null","<img src=""img/flower1.png"" style=""width:200px;border:14px solid red;"">","null","","","","","","","","",""
"","image-keyboard-response","16","304499","0.0-16.0","3EO896NRAXHJW6FOIP2YR86CZDHTJE","A1KD8SJ4EUQT1Q","3MXX6RQ9EVRTFC527Z18RDK8KW6P4R","","546.0999999046326","img/flower1.png","75","547.2000000476837","2","0","3","1","1,0.333,0.333,0.333,1,0.333,0.333,0.333,1","1,0.333,0.333,0.333,1,0.333,0.333,0.333,1","1",""
"","html-keyboard-response","17","304801","0.0-17.0","3EO896NRAXHJW6FOIP2YR86CZDHTJE","A1KD8SJ4EUQT1Q","3MXX6RQ9EVRTFC527Z18RDK8KW6P4R","","null","<img src=""img/flower1.png"" style=""width:200px;border:14px solid red;"">","null","","","","","","","","",""
"","image-keyboard-response","18","305533","0.0-18.0","3EO896NRAXHJW6FOIP2YR86CZDHTJE","A1KD8SJ4EUQT1Q","3MXX6RQ9EVRTFC527Z18RDK8KW6P4R","","730.4000000953674","img/flower2.png","75","731.4000000953674","2","1","2","1","1,0.333,0.333,0.333,1,0.333,0.333,0.333,1","1,0.333,0.333,0.333,1,0.333,0.333,0.333,1","1",""
"","html-keyboard-response","19","305835","0.0-19.0","3EO896NRAXHJW6FOIP2YR86CZDHTJE","A1KD8SJ4EUQT1Q","3MXX6RQ9EVRTFC527Z18RDK8KW6P4R","","null","<img src=""img/flower2.png"" style=""width:200px; border:14px solid green;"">","null","","","","","","","","",""
"","image-keyboard-response","20","306443","0.0-20.0","3EO896NRAXHJW6FOIP2YR86CZDHTJE","A1KD8SJ4EUQT1Q","3MXX6RQ9EVRTFC527Z18RDK8KW6P4R","","607.2999999523163","img/flower3.png","76","607.7999999523163","3","1","1","1","1,0.333,0.333,0.333,1,0.333,0.333,0.333,1","1,0.333,0.333,0.333,1,0.333,0.333,0.333,1","1",""
"","html-keyboard-response","21","306744","0.0-21.0","3EO896NRAXHJW6FOIP2YR86CZDHTJE","A1KD8SJ4EUQT1Q","3MXX6RQ9EVRTFC527Z18RDK8KW6P4R","","null","<img src=""img/flower3.png"" style=""width:200px; border:14px solid green;"">","null","","","","","","","","",""
"","image-keyboard-response","22","307363","0.0-22.0","3EO896NRAXHJW6FOIP2YR86CZDHTJE","A1KD8SJ4EUQT1Q","3MXX6RQ9EVRTFC527Z18RDK8KW6P4R","","617.7999999523163","img/flower2.png","75","619.0999999046326","2","1","2","1","1,0.333,0.333,0.333,1,0.333,0.333,0.333,1","1,0.333,0.333,0.333,1,0.333,0.333,0.333,1","1",""
"","html-keyboard-response","23","307666","0.0-23.0","3EO896NRAXHJW6FOIP2YR86CZDHTJE","A1KD8SJ4EUQT1Q","3MXX6RQ9EVRTFC527Z18RDK8KW6P4R","","null","<img src=""img/flower2.png"" style=""width:200px; border:14px solid green;"">","null","","","","","","","","",""
"","image-keyboard-response","24","308203","0.0-24.0","3EO896NRAXHJW6FOIP2YR86CZDHTJE","A1KD8SJ4EUQT1Q","3MXX6RQ9EVRTFC527Z18RDK8KW6P4R","","535.2000000476837","img/flower1.png","74","536.5","1","0","3","1","1,0.333,0.333,0.333,1,0.333,0.333,0.333,1","1,0.333,0.333,0.333,1,0.333,0.333,0.333,1","1",""
"","html-keyboard-response","25","308505","0.0-25.0","3EO896NRAXHJW6FOIP2YR86CZDHTJE","A1KD8SJ4EUQT1Q","3MXX6RQ9EVRTFC527Z18RDK8KW6P4R","","null","<img src=""img/flower1.png"" style=""width:200px;border:14px solid red;"">","null","","","","","","","","",""
"","image-keyboard-response","26","308856","0.0-26.0","3EO896NRAXHJW6FOIP2YR86CZDHTJE","A1KD8SJ4EUQT1Q","3MXX6RQ9EVRTFC527Z18RDK8KW6P4R","","349.10000014305115","img/flower1.png","74","350.09999990463257","1","0","3","1","1,0.333,0.333,0.333,1,0.333,0.333,0.333,1","1,0.333,0.333,0.333,1,0.333,0.333,0.333,1","1",""
"","html-keyboard-response","27","309157","0.0-27.0","3EO896NRAXHJW6FOIP2YR86CZDHTJE","A1KD8SJ4EUQT1Q","3MXX6RQ9EVRTFC527Z18RDK8KW6P4R","","null","<img src=""img/flower1.png"" style=""width:200px;border:14px solid red;"">","null","","","","","","","","",""
"","image-keyboard-response","28","309489","0.0-28.0","3EO896NRAXHJW6FOIP2YR86CZDHTJE","A1KD8SJ4EUQT1Q","3MXX6RQ9EVRTFC527Z18RDK8KW6P4R","","331.2999999523163","img/flower1.png","74","331.7999999523163","1","0","3","1","1,0.333,0.333,0.333,1,0.333,0.333,0.333,1","1,0.333,0.333,0.333,1,0.333,0.333,0.333,1","1",""
"","html-keyboard-response","29","309790","0.0-29.0","3EO896NRAXHJW6FOIP2YR86CZDHTJE","A1KD8SJ4EUQT1Q","3MXX6RQ9EVRTFC527Z18RDK8KW6P4R","","null","<img src=""img/flower1.png"" style=""width:200px;border:14px solid red;"">","null","","","","","","","","",""
"","image-keyboard-response","30","310717","0.0-30.0","3EO896NRAXHJW6FOIP2YR86CZDHTJE","A1KD8SJ4EUQT1Q","3MXX6RQ9EVRTFC527Z18RDK8KW6P4R","","926.2000000476837","img/flower3.png","76","926.7999999523163","3","1","1","1","1,0.333,0.333,0.333,1,0.333,0.333,0.333,1","1,0.333,0.333,0.333,1,0.333,0.333,0.333,1","1",""
"","html-keyboard-response","31","311019","0.0-31.0","3EO896NRAXHJW6FOIP2YR86CZDHTJE","A1KD8SJ4EUQT1Q","3MXX6RQ9EVRTFC527Z18RDK8KW6P4R","","null","<img src=""img/flower3.png"" style=""width:200px; border:14px solid green;"">","null","","","","","","","","",""
"","image-keyboard-response","32","311882","0.0-32.0","3EO896NRAXHJW6FOIP2YR86CZDHTJE","A1KD8SJ4EUQT1Q","3MXX6RQ9EVRTFC527Z18RDK8KW6P4R","","861.7000000476837","img/flower1.png","76","862.7999999523163","3","1","3","1","1,0.333,0.333,0.333,1,0.333,0.333,0.333,1","1,0.333,0.333,0.333,1,0.333,0.333,0.333,1","1",""
"","html-keyboard-response","33","312184","0.0-33.0","3EO896NRAXHJW6FOIP2YR86CZDHTJE","A1KD8SJ4EUQT1Q","3MXX6RQ9EVRTFC527Z18RDK8KW6P4R","","null","<img src=""img/flower1.png"" style=""width:200px; border:14px solid green;"">","null","","","","","","","","",""
"","image-keyboard-response","34","312493","0.0-34.0","3EO896NRAXHJW6FOIP2YR86CZDHTJE","A1KD8SJ4EUQT1Q","3MXX6RQ9EVRTFC527Z18RDK8KW6P4R","","307.7999999523163","img/flower1.png","76","308.80000019073486","3","1","3","1","1,0.333,0.333,0.333,1,0.333,0.333,0.333,1","1,0.333,0.333,0.333,1,0.333,0.333,0.333,1","1",""
"","html-keyboard-response","35","312794","0.0-35.0","3EO896NRAXHJW6FOIP2YR86CZDHTJE","A1KD8SJ4EUQT1Q","3MXX6RQ9EVRTFC527Z18RDK8KW6P4R","","null","<img src=""img/flower1.png"" style=""width:200px; border:14px solid green;"">","null","","","","","","","","",""
"","image-keyboard-response","36","313088","0.0-36.0","3EO896NRAXHJW6FOIP2YR86CZDHTJE","A1KD8SJ4EUQT1Q","3MXX6RQ9EVRTFC527Z18RDK8KW6P4R","","293.5","img/flower1.png","76","293.7999999523163","3","1","3","1","1,0.333,0.333,0.333,1,0.333,0.333,0.333,1","1,0.333,0.333,0.333,1,0.333,0.333,0.333,1","1",""
"","html-keyboard-response","37","313389","0.0-37.0","3EO896NRAXHJW6FOIP2YR86CZDHTJE","A1KD8SJ4EUQT1Q","3MXX6RQ9EVRTFC527Z18RDK8KW6P4R","","null","<img src=""img/flower1.png"" style=""width:200px; border:14px solid green;"">","null","","","","","","","","",""
"","image-keyboard-response","38","313656","0.0-38.0","3EO896NRAXHJW6FOIP2YR86CZDHTJE","A1KD8SJ4EUQT1Q","3MXX6RQ9EVRTFC527Z18RDK8KW6P4R","","264.7000000476837","img/flower1.png","76","265.89999985694885","3","1","3","1","1,0.333,0.333,0.333,1,0.333,0.333,0.333,1","1,0.333,0.333,0.333,1,0.333,0.333,0.333,1","1",""
"","html-keyboard-response","39","313958","0.0-39.0","3EO896NRAXHJW6FOIP2YR86CZDHTJE","A1KD8SJ4EUQT1Q","3MXX6RQ9EVRTFC527Z18RDK8KW6P4R","","null","<img src=""img/flower1.png"" style=""width:200px; border:14px solid green;"">","null","","","","","","","","",""
"","image-keyboard-response","40","314649","0.0-40.0","3EO896NRAXHJW6FOIP2YR86CZDHTJE","A1KD8SJ4EUQT1Q","3MXX6RQ9EVRTFC527Z18RDK8KW6P4R","","689.5999999046326","img/flower3.png","75","690.8000001907349","2","0","1","1","1,0.333,0.333,0.333,1,0.333,0.333,0.333,1","1,0.333,0.333,0.333,1,0.333,0.333,0.333,1","1",""
"","html-keyboard-response","41","314951","0.0-41.0","3EO896NRAXHJW6FOIP2YR86CZDHTJE","A1KD8SJ4EUQT1Q","3MXX6RQ9EVRTFC527Z18RDK8KW6P4R","","null","<img src=""img/flower3.png"" style=""width:200px;border:14px solid red;"">","null","","","","","","","","",""
"","image-keyboard-response","42","315142","0.0-42.0","3EO896NRAXHJW6FOIP2YR86CZDHTJE","A1KD8SJ4EUQT1Q","3MXX6RQ9EVRTFC527Z18RDK8KW6P4R","","190","img/flower3.png","76","191.10000014305115","3","1","1","1","1,0.333,0.333,0.333,1,0.333,0.333,0.333,1","1,0.333,0.333,0.333,1,0.333,0.333,0.333,1","1",""
"","html-keyboard-response","43","315444","0.0-43.0","3EO896NRAXHJW6FOIP2YR86CZDHTJE","A1KD8SJ4EUQT1Q","3MXX6RQ9EVRTFC527Z18RDK8KW6P4R","","null","<img src=""img/flower3.png"" style=""width:200px; border:14px solid green;"">","null","","","","","","","","",""
"","image-keyboard-response","44","315588","0.0-44.0","3EO896NRAXHJW6FOIP2YR86CZDHTJE","A1KD8SJ4EUQT1Q","3MXX6RQ9EVRTFC527Z18RDK8KW6P4R","","143.70000004768372","img/flower2.png","76","144.59999990463257","3","0","2","1","1,0.333,0.333,0.333,1,0.333,0.333,0.333,1","1,0.333,0.333,0.333,1,0.333,0.333,0.333,1","1",""
"","html-keyboard-response","45","315890","0.0-45.0","3EO896NRAXHJW6FOIP2YR86CZDHTJE","A1KD8SJ4EUQT1Q","3MXX6RQ9EVRTFC527Z18RDK8KW6P4R","","null","<img src=""img/flower2.png"" style=""width:200px;border:14px solid red;"">","null","","","","","","","","",""
"","image-keyboard-response","46","316662","0.0-46.0","3EO896NRAXHJW6FOIP2YR86CZDHTJE","A1KD8SJ4EUQT1Q","3MXX6RQ9EVRTFC527Z18RDK8KW6P4R","","770.3999998569489","img/flower3.png","76","771.2000000476837","3","0","1","1","1,0.333,0.333,0.333,1,0.333,0.333,0.333,1","1,0.333,0.333,0.333,1,0.333,0.333,0.333,1","1",""
"","html-keyboard-response","47","316963","0.0-47.0","3EO896NRAXHJW6FOIP2YR86CZDHTJE","A1KD8SJ4EUQT1Q","3MXX6RQ9EVRTFC527Z18RDK8KW6P4R","","null","<img src=""img/flower3.png"" style=""width:200px;border:14px solid red;"">","null","","","","","","","","",""
"","image-keyboard-response","48","317208","0.0-48.0","3EO896NRAXHJW6FOIP2YR86CZDHTJE","A1KD8SJ4EUQT1Q","3MXX6RQ9EVRTFC527Z18RDK8KW6P4R","","243.5","img/flower3.png","76","244.5","3","0","1","1","1,0.333,0.333,0.333,1,0.333,0.333,0.333,1","1,0.333,0.333,0.333,1,0.333,0.333,0.333,1","1",""
"","html-keyboard-response","49","317510","0.0-49.0","3EO896NRAXHJW6FOIP2YR86CZDHTJE","A1KD8SJ4EUQT1Q","3MXX6RQ9EVRTFC527Z18RDK8KW6P4R","","null","<img src=""img/flower3.png"" style=""width:200px;border:14px solid red;"">","null","","","","","","","","",""
"","image-keyboard-response","50","317695","0.0-50.0","3EO896NRAXHJW6FOIP2YR86CZDHTJE","A1KD8SJ4EUQT1Q","3MXX6RQ9EVRTFC527Z18RDK8KW6P4R","","183.90000009536743","img/flower3.png","76","185.09999990463257","3","0","1","1","1,0.333,0.333,0.333,1,0.333,0.333,0.333,1","1,0.333,0.333,0.333,1,0.333,0.333,0.333,1","1",""
"","html-keyboard-response","51","317998","0.0-51.0","3EO896NRAXHJW6FOIP2YR86CZDHTJE","A1KD8SJ4EUQT1Q","3MXX6RQ9EVRTFC527Z18RDK8KW6P4R","","null","<img src=""img/flower3.png"" style=""width:200px;border:14px solid red;"">","null","","","","","","","","",""
"","image-keyboard-response","52","318096","0.0-52.0","3EO896NRAXHJW6FOIP2YR86CZDHTJE","A1KD8SJ4EUQT1Q","3MXX6RQ9EVRTFC527Z18RDK8KW6P4R","","96.59999990463257","img/flower1.png","76","97.59999990463257","3","1","3","1","1,0.333,0.333,0.333,1,0.333,0.333,0.333,1","1,0.333,0.333,0.333,1,0.333,0.333,0.333,1","1",""
"","html-keyboard-response","53","318398","0.0-53.0","3EO896NRAXHJW6FOIP2YR86CZDHTJE","A1KD8SJ4EUQT1Q","3MXX6RQ9EVRTFC527Z18RDK8KW6P4R","","null","<img src=""img/flower1.png"" style=""width:200px; border:14px solid green;"">","null","","","","","","","","",""
"","image-keyboard-response","54","319221","0.0-54.0","3EO896NRAXHJW6FOIP2YR86CZDHTJE","A1KD8SJ4EUQT1Q","3MXX6RQ9EVRTFC527Z18RDK8KW6P4R","","821.5999999046326","img/flower3.png","75","822.7999999523163","2","1","1","1","1,0.333,0.333,0.333,1,0.333,0.333,0.333,1","1,0.333,0.333,0.333,1,0.333,0.333,0.333,1","1",""
"","html-keyboard-response","55","319523","0.0-55.0","3EO896NRAXHJW6FOIP2YR86CZDHTJE","A1KD8SJ4EUQT1Q","3MXX6RQ9EVRTFC527Z18RDK8KW6P4R","","null","<img src=""img/flower3.png"" style=""width:200px; border:14px solid green;"">","null","","","","","","","","",""
"","image-keyboard-response","56","320744","0.0-56.0","3EO896NRAXHJW6FOIP2YR86CZDHTJE","A1KD8SJ4EUQT1Q","3MXX6RQ9EVRTFC527Z18RDK8KW6P4R","","1219.2999999523163","img/flower1.png","76","1220.3000001907349","3","1","3","1","1,0.333,0.333,0.333,1,0.333,0.333,0.333,1","1,0.333,0.333,0.333,1,0.333,0.333,0.333,1","1",""
"","html-keyboard-response","57","321045","0.0-57.0","3EO896NRAXHJW6FOIP2YR86CZDHTJE","A1KD8SJ4EUQT1Q","3MXX6RQ9EVRTFC527Z18RDK8KW6P4R","","null","<img src=""img/flower1.png"" style=""width:200px; border:14px solid green;"">","null","","","","","","","","",""
"","image-keyboard-response","58","321320","0.0-58.0","3EO896NRAXHJW6FOIP2YR86CZDHTJE","A1KD8SJ4EUQT1Q","3MXX6RQ9EVRTFC527Z18RDK8KW6P4R","","273.5","img/flower1.png","76","274.7999999523163","3","1","3","1","1,0.333,0.333,0.333,1,0.333,0.333,0.333,1","1,0.333,0.333,0.333,1,0.333,0.333,0.333,1","1",""
"","html-keyboard-response","59","321622","0.0-59.0","3EO896NRAXHJW6FOIP2YR86CZDHTJE","A1KD8SJ4EUQT1Q","3MXX6RQ9EVRTFC527Z18RDK8KW6P4R","","null","<img src=""img/flower1.png"" style=""width:200px; border:14px solid green;"">","null","","","","","","","","",""
"","image-keyboard-response","60","322283","0.0-60.0","3EO896NRAXHJW6FOIP2YR86CZDHTJE","A1KD8SJ4EUQT1Q","3MXX6RQ9EVRTFC527Z18RDK8KW6P4R","","659.5999999046326","img/flower2.png","75","660.3999998569489","2","1","2","1","1,0.333,0.333,0.333,1,0.333,0.333,0.333,1","1,0.333,0.333,0.333,1,0.333,0.333,0.333,1","1",""
"","html-keyboard-response","61","322583","0.0-61.0","3EO896NRAXHJW6FOIP2YR86CZDHTJE","A1KD8SJ4EUQT1Q","3MXX6RQ9EVRTFC527Z18RDK8KW6P4R","","null","<img src=""img/flower2.png"" style=""width:200px; border:14px solid green;"">","null","","","","","","","","",""
"","image-keyboard-response","62","323678","0.0-62.0","3EO896NRAXHJW6FOIP2YR86CZDHTJE","A1KD8SJ4EUQT1Q","3MXX6RQ9EVRTFC527Z18RDK8KW6P4R","","1094.5","img/flower1.png","76","1094.9000000953674","3","1","3","1","1,0.333,0.333,0.333,1,0.333,0.333,0.333,1","1,0.333,0.333,0.333,1,0.333,0.333,0.333,1","1",""
"","html-keyboard-response","63","323979","0.0-63.0","3EO896NRAXHJW6FOIP2YR86CZDHTJE","A1KD8SJ4EUQT1Q","3MXX6RQ9EVRTFC527Z18RDK8KW6P4R","","null","<img src=""img/flower1.png"" style=""width:200px; border:14px solid green;"">","null","","","","","","","","",""
"","image-keyboard-response","64","324313","0.0-64.0","3EO896NRAXHJW6FOIP2YR86CZDHTJE","A1KD8SJ4EUQT1Q","3MXX6RQ9EVRTFC527Z18RDK8KW6P4R","","333.2000000476837","img/flower1.png","76","333.89999985694885","3","1","3","1","1,0.333,0.333,0.333,1,0.333,0.333,0.333,1","1,0.333,0.333,0.333,1,0.333,0.333,0.333,1","1",""
"","html-keyboard-response","65","324616","0.0-65.0","3EO896NRAXHJW6FOIP2YR86CZDHTJE","A1KD8SJ4EUQT1Q","3MXX6RQ9EVRTFC527Z18RDK8KW6P4R","","null","<img src=""img/flower1.png"" style=""width:200px; border:14px solid green;"">","null","","","","","","","","",""
"","image-keyboard-response","66","325216","0.0-66.0","3EO896NRAXHJW6FOIP2YR86CZDHTJE","A1KD8SJ4EUQT1Q","3MXX6RQ9EVRTFC527Z18RDK8KW6P4R","","598.7999999523163","img/flower3.png","75","599.8999998569489","2","1","1","1","1,0.333,0.333,0.333,1,0.333,0.333,0.333,1","1,0.333,0.333,0.333,1,0.333,0.333,0.333,1","1",""
"","html-keyboard-response","67","325518","0.0-67.0","3EO896NRAXHJW6FOIP2YR86CZDHTJE","A1KD8SJ4EUQT1Q","3MXX6RQ9EVRTFC527Z18RDK8KW6P4R","","null","<img src=""img/flower3.png"" style=""width:200px; border:14px solid green;"">","null","","","","","","","","",""
"","image-keyboard-response","68","326083","0.0-68.0","3EO896NRAXHJW6FOIP2YR86CZDHTJE","A1KD8SJ4EUQT1Q","3MXX6RQ9EVRTFC527Z18RDK8KW6P4R","","561","img/flower1.png","76","562.2000000476837","3","1","3","1","1,0.333,0.333,0.333,1,0.333,0.333,0.333,1","1,0.333,0.333,0.333,1,0.333,0.333,0.333,1","1",""
"","html-keyboard-response","69","326389","0.0-69.0","3EO896NRAXHJW6FOIP2YR86CZDHTJE","A1KD8SJ4EUQT1Q","3MXX6RQ9EVRTFC527Z18RDK8KW6P4R","","null","<img src=""img/flower1.png"" style=""width:200px; border:14px solid green;"">","null","","","","","","","","",""
"","image-keyboard-response","70","326819","0.0-70.0","3EO896NRAXHJW6FOIP2YR86CZDHTJE","A1KD8SJ4EUQT1Q","3MXX6RQ9EVRTFC527Z18RDK8KW6P4R","","428.7999999523163","img/flower3.png","76","429.2999999523163","3","1","1","1","1,0.333,0.333,0.333,1,0.333,0.333,0.333,1","1,0.333,0.333,0.333,1,0.333,0.333,0.333,1","1",""
"","html-keyboard-response","71","327121","0.0-71.0","3EO896NRAXHJW6FOIP2YR86CZDHTJE","A1KD8SJ4EUQT1Q","3MXX6RQ9EVRTFC527Z18RDK8KW6P4R","","null","<img src=""img/flower3.png"" style=""width:200px; border:14px solid green;"">","null","","","","","","","","",""
"","image-keyboard-response","72","327665","0.0-72.0","3EO896NRAXHJW6FOIP2YR86CZDHTJE","A1KD8SJ4EUQT1Q","3MXX6RQ9EVRTFC527Z18RDK8KW6P4R","","543.1000001430511","img/flower2.png","75","544.2000000476837","2","1","2","1","1,0.333,0.333,0.333,1,0.333,0.333,0.333,1","1,0.333,0.333,0.333,1,0.333,0.333,0.333,1","1",""
"","html-keyboard-response","73","327968","0.0-73.0","3EO896NRAXHJW6FOIP2YR86CZDHTJE","A1KD8SJ4EUQT1Q","3MXX6RQ9EVRTFC527Z18RDK8KW6P4R","","null","<img src=""img/flower2.png"" style=""width:200px; border:14px solid green;"">","null","","","","","","","","",""
"","image-keyboard-response","74","328312","0.0-74.0","3EO896NRAXHJW6FOIP2YR86CZDHTJE","A1KD8SJ4EUQT1Q","3MXX6RQ9EVRTFC527Z18RDK8KW6P4R","","342.2000000476837","img/flower2.png","75","343.2000000476837","2","1","2","1","1,0.333,0.333,0.333,1,0.333,0.333,0.333,1","1,0.333,0.333,0.333,1,0.333,0.333,0.333,1","1",""
"","html-keyboard-response","75","328613","0.0-75.0","3EO896NRAXHJW6FOIP2YR86CZDHTJE","A1KD8SJ4EUQT1Q","3MXX6RQ9EVRTFC527Z18RDK8KW6P4R","","null","<img src=""img/flower2.png"" style=""width:200px; border:14px solid green;"">","null","","","","","","","","",""
"","image-keyboard-response","76","329195","0.0-76.0","3EO896NRAXHJW6FOIP2YR86CZDHTJE","A1KD8SJ4EUQT1Q","3MXX6RQ9EVRTFC527Z18RDK8KW6P4R","","581.2999999523163","img/flower3.png","76","581.9000000953674","3","1","1","1","1,0.333,0.333,0.333,1,0.333,0.333,0.333,1","1,0.333,0.333,0.333,1,0.333,0.333,0.333,1","1",""
"","html-keyboard-response","77","329496","0.0-77.0","3EO896NRAXHJW6FOIP2YR86CZDHTJE","A1KD8SJ4EUQT1Q","3MXX6RQ9EVRTFC527Z18RDK8KW6P4R","","null","<img src=""img/flower3.png"" style=""width:200px; border:14px solid green;"">","null","","","","","","","","",""
"","image-keyboard-response","78","329812","0.0-78.0","3EO896NRAXHJW6FOIP2YR86CZDHTJE","A1KD8SJ4EUQT1Q","3MXX6RQ9EVRTFC527Z18RDK8KW6P4R","","314.90000009536743","img/flower2.png","76","315.59999990463257","3","0","2","1","1,0.333,0.333,0.333,1,0.333,0.333,0.333,1","1,0.333,0.333,0.333,1,0.333,0.333,0.333,1","1",""
"","html-keyboard-response","79","330114","0.0-79.0","3EO896NRAXHJW6FOIP2YR86CZDHTJE","A1KD8SJ4EUQT1Q","3MXX6RQ9EVRTFC527Z18RDK8KW6P4R","","null","<img src=""img/flower2.png"" style=""width:200px;border:14px solid red;"">","null","","","","","","","","",""
"","image-keyboard-response","80","330338","0.0-80.0","3EO896NRAXHJW6FOIP2YR86CZDHTJE","A1KD8SJ4EUQT1Q","3MXX6RQ9EVRTFC527Z18RDK8KW6P4R","","223.30000019073486","img/flower2.png","75","224","2","1","2","1","1,0.333,0.333,0.333,1,0.333,0.333,0.333,1","1,0.333,0.333,0.333,1,0.333,0.333,0.333,1","1",""
"","html-keyboard-response","81","330640","0.0-81.0","3EO896NRAXHJW6FOIP2YR86CZDHTJE","A1KD8SJ4EUQT1Q","3MXX6RQ9EVRTFC527Z18RDK8KW6P4R","","null","<img src=""img/flower2.png"" style=""width:200px; border:14px solid green;"">","null","","","","","","","","",""
"","image-keyboard-response","82","330974","0.0-82.0","3EO896NRAXHJW6FOIP2YR86CZDHTJE","A1KD8SJ4EUQT1Q","3MXX6RQ9EVRTFC527Z18RDK8KW6P4R","","333.2999999523163","img/flower2.png","75","334.09999990463257","2","1","2","1","1,0.333,0.333,0.333,1,0.333,0.333,0.333,1","1,0.333,0.333,0.333,1,0.333,0.333,0.333,1","1",""
"","html-keyboard-response","83","331276","0.0-83.0","3EO896NRAXHJW6FOIP2YR86CZDHTJE","A1KD8SJ4EUQT1Q","3MXX6RQ9EVRTFC527Z18RDK8KW6P4R","","null","<img src=""img/flower2.png"" style=""width:200px; border:14px solid green;"">","null","","","","","","","","",""
"","image-keyboard-response","84","331908","0.0-84.0","3EO896NRAXHJW6FOIP2YR86CZDHTJE","A1KD8SJ4EUQT1Q","3MXX6RQ9EVRTFC527Z18RDK8KW6P4R","","630.1000001430511","img/flower1.png","76","631.2000000476837","3","1","3","1","1,0.333,0.333,0.333,1,0.333,0.333,0.333,1","1,0.333,0.333,0.333,1,0.333,0.333,0.333,1","1",""
"","html-keyboard-response","85","332210","0.0-85.0","3EO896NRAXHJW6FOIP2YR86CZDHTJE","A1KD8SJ4EUQT1Q","3MXX6RQ9EVRTFC527Z18RDK8KW6P4R","","null","<img src=""img/flower1.png"" style=""width:200px; border:14px solid green;"">","null","","","","","","","","",""
"","image-keyboard-response","86","332424","0.0-86.0","3EO896NRAXHJW6FOIP2YR86CZDHTJE","A1KD8SJ4EUQT1Q","3MXX6RQ9EVRTFC527Z18RDK8KW6P4R","","212.69999980926514","img/flower1.png","76","213.90000009536743","3","1","3","1","1,0.333,0.333,0.333,1,0.333,0.333,0.333,1","1,0.333,0.333,0.333,1,0.333,0.333,0.333,1","1",""
"","html-keyboard-response","87","332727","0.0-87.0","3EO896NRAXHJW6FOIP2YR86CZDHTJE","A1KD8SJ4EUQT1Q","3MXX6RQ9EVRTFC527Z18RDK8KW6P4R","","null","<img src=""img/flower1.png"" style=""width:200px; border:14px solid green;"">","null","","","","","","","","",""
"","image-keyboard-response","88","332821","0.0-88.0","3EO896NRAXHJW6FOIP2YR86CZDHTJE","A1KD8SJ4EUQT1Q","3MXX6RQ9EVRTFC527Z18RDK8KW6P4R","","92.89999985694885","img/flower2.png","76","94.29999995231628","3","0","2","1","1,0.333,0.333,0.333,1,0.333,0.333,0.333,1","1,0.333,0.333,0.333,1,0.333,0.333,0.333,1","1",""
"","html-keyboard-response","89","333124","0.0-89.0","3EO896NRAXHJW6FOIP2YR86CZDHTJE","A1KD8SJ4EUQT1Q","3MXX6RQ9EVRTFC527Z18RDK8KW6P4R","","null","<img src=""img/flower2.png"" style=""width:200px;border:14px solid red;"">","null","","","","","","","","",""
"","image-keyboard-response","90","333804","0.0-90.0","3EO896NRAXHJW6FOIP2YR86CZDHTJE","A1KD8SJ4EUQT1Q","3MXX6RQ9EVRTFC527Z18RDK8KW6P4R","","679.5999999046326","img/flower1.png","76","680.2000000476837","3","1","3","1","1,0.333,0.333,0.333,1,0.333,0.333,0.333,1","1,0.333,0.333,0.333,1,0.333,0.333,0.333,1","1",""
"","html-keyboard-response","91","334106","0.0-91.0","3EO896NRAXHJW6FOIP2YR86CZDHTJE","A1KD8SJ4EUQT1Q","3MXX6RQ9EVRTFC527Z18RDK8KW6P4R","","null","<img src=""img/flower1.png"" style=""width:200px; border:14px solid green;"">","null","","","","","","","","",""
"","image-keyboard-response","92","334676","0.0-92.0","3EO896NRAXHJW6FOIP2YR86CZDHTJE","A1KD8SJ4EUQT1Q","3MXX6RQ9EVRTFC527Z18RDK8KW6P4R","","568.9000000953674","img/flower3.png","76","569.3999998569489","3","0","1","1","1,0.333,0.333,0.333,1,0.333,0.333,0.333,1","1,0.333,0.333,0.333,1,0.333,0.333,0.333,1","1",""
"","html-keyboard-response","93","334977","0.0-93.0","3EO896NRAXHJW6FOIP2YR86CZDHTJE","A1KD8SJ4EUQT1Q","3MXX6RQ9EVRTFC527Z18RDK8KW6P4R","","null","<img src=""img/flower3.png"" style=""width:200px;border:14px solid red;"">","null","","","","","","","","",""
"","image-keyboard-response","94","335446","0.0-94.0","3EO896NRAXHJW6FOIP2YR86CZDHTJE","A1KD8SJ4EUQT1Q","3MXX6RQ9EVRTFC527Z18RDK8KW6P4R","","467.39999985694885","img/flower3.png","74","468.40000009536743","1","1","1","1","1,0.333,0.333,0.333,1,0.333,0.333,0.333,1","1,0.333,0.333,0.333,1,0.333,0.333,0.333,1","1",""
"","html-keyboard-response","95","335747","0.0-95.0","3EO896NRAXHJW6FOIP2YR86CZDHTJE","A1KD8SJ4EUQT1Q","3MXX6RQ9EVRTFC527Z18RDK8KW6P4R","","null","<img src=""img/flower3.png"" style=""width:200px; border:14px solid green;"">","null","","","","","","","","",""
"","image-keyboard-response","96","336066","0.0-96.0","3EO896NRAXHJW6FOIP2YR86CZDHTJE","A1KD8SJ4EUQT1Q","3MXX6RQ9EVRTFC527Z18RDK8KW6P4R","","318","img/flower3.png","74","318.5","1","1","1","1","1,0.333,0.333,0.333,1,0.333,0.333,0.333,1","1,0.333,0.333,0.333,1,0.333,0.333,0.333,1","1",""
"","html-keyboard-response","97","336368","0.0-97.0","3EO896NRAXHJW6FOIP2YR86CZDHTJE","A1KD8SJ4EUQT1Q","3MXX6RQ9EVRTFC527Z18RDK8KW6P4R","","null","<img src=""img/flower3.png"" style=""width:200px; border:14px solid green;"">","null","","","","","","","","",""
"","image-keyboard-response","98","337137","0.0-98.0","3EO896NRAXHJW6FOIP2YR86CZDHTJE","A1KD8SJ4EUQT1Q","3MXX6RQ9EVRTFC527Z18RDK8KW6P4R","","767.4000000953674","img/flower1.png","76","768.2999999523163","3","1","3","1","1,0.333,0.333,0.333,1,0.333,0.333,0.333,1","1,0.333,0.333,0.333,1,0.333,0.333,0.333,1","1",""
"","html-keyboard-response","99","337438","0.0-99.0","3EO896NRAXHJW6FOIP2YR86CZDHTJE","A1KD8SJ4EUQT1Q","3MXX6RQ9EVRTFC527Z18RDK8KW6P4R","","null","<img src=""img/flower1.png"" style=""width:200px; border:14px solid green;"">","null","","","","","","","","",""
"","image-keyboard-response","100","338057","0.0-100.0","3EO896NRAXHJW6FOIP2YR86CZDHTJE","A1KD8SJ4EUQT1Q","3MXX6RQ9EVRTFC527Z18RDK8KW6P4R","","618","img/flower2.png","75","619.0999999046326","2","1","2","1","1,0.333,0.333,0.333,1,0.333,0.333,0.333,1","1,0.333,0.333,0.333,1,0.333,0.333,0.333,1","1",""
"","html-keyboard-response","101","338359","0.0-101.0","3EO896NRAXHJW6FOIP2YR86CZDHTJE","A1KD8SJ4EUQT1Q","3MXX6RQ9EVRTFC527Z18RDK8KW6P4R","","null","<img src=""img/flower2.png"" style=""width:200px; border:14px solid green;"">","null","","","","","","","","",""
"","image-keyboard-response","102","338643","0.0-102.0","3EO896NRAXHJW6FOIP2YR86CZDHTJE","A1KD8SJ4EUQT1Q","3MXX6RQ9EVRTFC527Z18RDK8KW6P4R","","282.40000009536743","img/flower2.png","75","283.60000014305115","2","1","2","1","1,0.333,0.333,0.333,1,0.333,0.333,0.333,1","1,0.333,0.333,0.333,1,0.333,0.333,0.333,1","1",""
"","html-keyboard-response","103","338946","0.0-103.0","3EO896NRAXHJW6FOIP2YR86CZDHTJE","A1KD8SJ4EUQT1Q","3MXX6RQ9EVRTFC527Z18RDK8KW6P4R","","null","<img src=""img/flower2.png"" style=""width:200px; border:14px solid green;"">","null","","","","","","","","",""
"","image-keyboard-response","104","339230","0.0-104.0","3EO896NRAXHJW6FOIP2YR86CZDHTJE","A1KD8SJ4EUQT1Q","3MXX6RQ9EVRTFC527Z18RDK8KW6P4R","","282.80000019073486","img/flower2.png","75","283.7999999523163","2","1","2","1","1,0.333,0.333,0.333,1,0.333,0.333,0.333,1","1,0.333,0.333,0.333,1,0.333,0.333,0.333,1","1",""
"","html-keyboard-response","105","339534","0.0-105.0","3EO896NRAXHJW6FOIP2YR86CZDHTJE","A1KD8SJ4EUQT1Q","3MXX6RQ9EVRTFC527Z18RDK8KW6P4R","","null","<img src=""img/flower2.png"" style=""width:200px; border:14px solid green;"">","null","","","","","","","","",""
"","image-keyboard-response","106","339737","0.0-106.0","3EO896NRAXHJW6FOIP2YR86CZDHTJE","A1KD8SJ4EUQT1Q","3MXX6RQ9EVRTFC527Z18RDK8KW6P4R","","203","img/flower1.png","75","203.5","2","1","3","1","1,0.333,0.333,0.333,1,0.333,0.333,0.333,1","1,0.333,0.333,0.333,1,0.333,0.333,0.333,1","1",""
"","html-keyboard-response","107","340039","0.0-107.0","3EO896NRAXHJW6FOIP2YR86CZDHTJE","A1KD8SJ4EUQT1Q","3MXX6RQ9EVRTFC527Z18RDK8KW6P4R","","null","<img src=""img/flower1.png"" style=""width:200px; border:14px solid green;"">","null","","","","","","","","",""
"","image-keyboard-response","108","340351","0.0-108.0","3EO896NRAXHJW6FOIP2YR86CZDHTJE","A1KD8SJ4EUQT1Q","3MXX6RQ9EVRTFC527Z18RDK8KW6P4R","","311.39999985694885","img/flower1.png","75","312.39999985694885","2","1","3","1","1,0.333,0.333,0.333,1,0.333,0.333,0.333,1","1,0.333,0.333,0.333,1,0.333,0.333,0.333,1","1",""
"","html-keyboard-response","109","340653","0.0-109.0","3EO896NRAXHJW6FOIP2YR86CZDHTJE","A1KD8SJ4EUQT1Q","3MXX6RQ9EVRTFC527Z18RDK8KW6P4R","","null","<img src=""img/flower1.png"" style=""width:200px; border:14px solid green;"">","null","","","","","","","","",""
"","image-keyboard-response","110","341343","0.0-110.0","3EO896NRAXHJW6FOIP2YR86CZDHTJE","A1KD8SJ4EUQT1Q","3MXX6RQ9EVRTFC527Z18RDK8KW6P4R","","689.4000000953674","img/flower3.png","74","690","1","1","1","1","1,0.333,0.333,0.333,1,0.333,0.333,0.333,1","1,0.333,0.333,0.333,1,0.333,0.333,0.333,1","1",""
"","html-keyboard-response","111","341645","0.0-111.0","3EO896NRAXHJW6FOIP2YR86CZDHTJE","A1KD8SJ4EUQT1Q","3MXX6RQ9EVRTFC527Z18RDK8KW6P4R","","null","<img src=""img/flower3.png"" style=""width:200px; border:14px solid green;"">","null","","","","","","","","",""
"","image-keyboard-response","112","341868","0.0-112.0","3EO896NRAXHJW6FOIP2YR86CZDHTJE","A1KD8SJ4EUQT1Q","3MXX6RQ9EVRTFC527Z18RDK8KW6P4R","","221.29999995231628","img/flower1.png","74","222.59999990463257","1","1","3","1","1,0.333,0.333,0.333,1,0.333,0.333,0.333,1","1,0.333,0.333,0.333,1,0.333,0.333,0.333,1","1",""
"","html-keyboard-response","113","342170","0.0-113.0","3EO896NRAXHJW6FOIP2YR86CZDHTJE","A1KD8SJ4EUQT1Q","3MXX6RQ9EVRTFC527Z18RDK8KW6P4R","","null","<img src=""img/flower1.png"" style=""width:200px; border:14px solid green;"">","null","","","","","","","","",""
"","image-keyboard-response","114","342669","0.0-114.0","3EO896NRAXHJW6FOIP2YR86CZDHTJE","A1KD8SJ4EUQT1Q","3MXX6RQ9EVRTFC527Z18RDK8KW6P4R","","497.90000009536743","img/flower3.png","75","498.7000000476837","2","1","1","1","1,0.333,0.333,0.333,1,0.333,0.333,0.333,1","1,0.333,0.333,0.333,1,0.333,0.333,0.333,1","1",""
"","html-keyboard-response","115","342971","0.0-115.0","3EO896NRAXHJW6FOIP2YR86CZDHTJE","A1KD8SJ4EUQT1Q","3MXX6RQ9EVRTFC527Z18RDK8KW6P4R","","null","<img src=""img/flower3.png"" style=""width:200px; border:14px solid green;"">","null","","","","","","","","",""
"","image-keyboard-response","116","343506","0.0-116.0","3EO896NRAXHJW6FOIP2YR86CZDHTJE","A1KD8SJ4EUQT1Q","3MXX6RQ9EVRTFC527Z18RDK8KW6P4R","","534.7999999523163","img/flower1.png","75","535.3999998569489","2","1","3","1","1,0.333,0.333,0.333,1,0.333,0.333,0.333,1","1,0.333,0.333,0.333,1,0.333,0.333,0.333,1","1",""
"","html-keyboard-response","117","343808","0.0-117.0","3EO896NRAXHJW6FOIP2YR86CZDHTJE","A1KD8SJ4EUQT1Q","3MXX6RQ9EVRTFC527Z18RDK8KW6P4R","","null","<img src=""img/flower1.png"" style=""width:200px; border:14px solid green;"">","null","","","","","","","","",""
"","image-keyboard-response","118","344273","0.0-118.0","3EO896NRAXHJW6FOIP2YR86CZDHTJE","A1KD8SJ4EUQT1Q","3MXX6RQ9EVRTFC527Z18RDK8KW6P4R","","464.2000000476837","img/flower3.png","74","464.7000000476837","1","1","1","1","1,0.333,0.333,0.333,1,0.333,0.333,0.333,1","1,0.333,0.333,0.333,1,0.333,0.333,0.333,1","1",""
"","html-keyboard-response","119","344575","0.0-119.0","3EO896NRAXHJW6FOIP2YR86CZDHTJE","A1KD8SJ4EUQT1Q","3MXX6RQ9EVRTFC527Z18RDK8KW6P4R","","null","<img src=""img/flower3.png"" style=""width:200px; border:14px solid green;"">","null","","","","","","","","",""
"","image-keyboard-response","120","344836","0.0-120.0","3EO896NRAXHJW6FOIP2YR86CZDHTJE","A1KD8SJ4EUQT1Q","3MXX6RQ9EVRTFC527Z18RDK8KW6P4R","","259.5","img/flower2.png","75","260.7000000476837","2","1","2","1","1,0.333,0.333,0.333,1,0.333,0.333,0.333,1","1,0.333,0.333,0.333,1,0.333,0.333,0.333,1","1",""
"","html-keyboard-response","121","345137","0.0-121.0","3EO896NRAXHJW6FOIP2YR86CZDHTJE","A1KD8SJ4EUQT1Q","3MXX6RQ9EVRTFC527Z18RDK8KW6P4R","","null","<img src=""img/flower2.png"" style=""width:200px; border:14px solid green;"">","null","","","","","","","","",""
"","image-keyboard-response","122","345511","0.0-122.0","3EO896NRAXHJW6FOIP2YR86CZDHTJE","A1KD8SJ4EUQT1Q","3MXX6RQ9EVRTFC527Z18RDK8KW6P4R","","373.19999980926514","img/flower2.png","75","374.09999990463257","2","1","2","1","1,0.333,0.333,0.333,1,0.333,0.333,0.333,1","1,0.333,0.333,0.333,1,0.333,0.333,0.333,1","1",""
"","html-keyboard-response","123","345813","0.0-123.0","3EO896NRAXHJW6FOIP2YR86CZDHTJE","A1KD8SJ4EUQT1Q","3MXX6RQ9EVRTFC527Z18RDK8KW6P4R","","null","<img src=""img/flower2.png"" style=""width:200px; border:14px solid green;"">","null","","","","","","","","",""
"","image-keyboard-response","124","346281","0.0-124.0","3EO896NRAXHJW6FOIP2YR86CZDHTJE","A1KD8SJ4EUQT1Q","3MXX6RQ9EVRTFC527Z18RDK8KW6P4R","","467.39999985694885","img/flower3.png","76","467.90000009536743","3","0","1","1","1,0.333,0.333,0.333,1,0.333,0.333,0.333,1","1,0.333,0.333,0.333,1,0.333,0.333,0.333,1","1",""
"","html-keyboard-response","125","346582","0.0-125.0","3EO896NRAXHJW6FOIP2YR86CZDHTJE","A1KD8SJ4EUQT1Q","3MXX6RQ9EVRTFC527Z18RDK8KW6P4R","","null","<img src=""img/flower3.png"" style=""width:200px;border:14px solid red;"">","null","","","","","","","","",""
"","image-keyboard-response","126","346773","0.0-126.0","3EO896NRAXHJW6FOIP2YR86CZDHTJE","A1KD8SJ4EUQT1Q","3MXX6RQ9EVRTFC527Z18RDK8KW6P4R","","190.70000004768372","img/flower3.png","75","191.20000004768372","2","0","1","1","1,0.333,0.333,0.333,1,0.333,0.333,0.333,1","1,0.333,0.333,0.333,1,0.333,0.333,0.333,1","1",""
"","html-keyboard-response","127","347074","0.0-127.0","3EO896NRAXHJW6FOIP2YR86CZDHTJE","A1KD8SJ4EUQT1Q","3MXX6RQ9EVRTFC527Z18RDK8KW6P4R","","null","<img src=""img/flower3.png"" style=""width:200px;border:14px solid red;"">","null","","","","","","","","",""
"","image-keyboard-response","128","347172","0.0-128.0","3EO896NRAXHJW6FOIP2YR86CZDHTJE","A1KD8SJ4EUQT1Q","3MXX6RQ9EVRTFC527Z18RDK8KW6P4R","","97.69999980926514","img/flower2.png","74","98.40000009536743","1","1","2","1","1,0.333,0.333,0.333,1,0.333,0.333,0.333,1","1,0.333,0.333,0.333,1,0.333,0.333,0.333,1","1",""
"","html-keyboard-response","129","347474","0.0-129.0","3EO896NRAXHJW6FOIP2YR86CZDHTJE","A1KD8SJ4EUQT1Q","3MXX6RQ9EVRTFC527Z18RDK8KW6P4R","","null","<img src=""img/flower2.png"" style=""width:200px; border:14px solid green;"">","null","","","","","","","","",""
"","image-keyboard-response","130","347757","0.0-130.0","3EO896NRAXHJW6FOIP2YR86CZDHTJE","A1KD8SJ4EUQT1Q","3MXX6RQ9EVRTFC527Z18RDK8KW6P4R","","281.7000000476837","img/flower2.png","74","282.7999999523163","1","0","2","1","1,0.333,0.333,0.333,1,0.333,0.333,0.333,1","1,0.333,0.333,0.333,1,0.333,0.333,0.333,1","1",""
"","html-keyboard-response","131","348060","0.0-131.0","3EO896NRAXHJW6FOIP2YR86CZDHTJE","A1KD8SJ4EUQT1Q","3MXX6RQ9EVRTFC527Z18RDK8KW6P4R","","null","<img src=""img/flower2.png"" style=""width:200px;border:14px solid red;"">","null","","","","","","","","",""
"","image-keyboard-response","132","348332","0.0-132.0","3EO896NRAXHJW6FOIP2YR86CZDHTJE","A1KD8SJ4EUQT1Q","3MXX6RQ9EVRTFC527Z18RDK8KW6P4R","","271.2999999523163","img/flower3.png","75","272.40000009536743","2","0","1","1","1,0.333,0.333,0.333,1,0.333,0.333,0.333,1","1,0.333,0.333,0.333,1,0.333,0.333,0.333,1","1",""
"","html-keyboard-response","133","348647","0.0-133.0","3EO896NRAXHJW6FOIP2YR86CZDHTJE","A1KD8SJ4EUQT1Q","3MXX6RQ9EVRTFC527Z18RDK8KW6P4R","","null","<img src=""img/flower3.png"" style=""width:200px;border:14px solid red;"">","null","","","","","","","","",""
"","image-keyboard-response","134","348706","0.0-134.0","3EO896NRAXHJW6FOIP2YR86CZDHTJE","A1KD8SJ4EUQT1Q","3MXX6RQ9EVRTFC527Z18RDK8KW6P4R","","58.200000047683716","img/flower2.png","76","58.700000047683716","3","0","2","1","1,0.333,0.333,0.333,1,0.333,0.333,0.333,1","1,0.333,0.333,0.333,1,0.333,0.333,0.333,1","1",""
"","html-keyboard-response","135","349009","0.0-135.0","3EO896NRAXHJW6FOIP2YR86CZDHTJE","A1KD8SJ4EUQT1Q","3MXX6RQ9EVRTFC527Z18RDK8KW6P4R","","null","<img src=""img/flower2.png"" style=""width:200px;border:14px solid red;"">","null","","","","","","","","",""
"","image-keyboard-response","136","349163","0.0-136.0","3EO896NRAXHJW6FOIP2YR86CZDHTJE","A1KD8SJ4EUQT1Q","3MXX6RQ9EVRTFC527Z18RDK8KW6P4R","","153.30000019073486","img/flower1.png","75","154.29999995231628","2","0","3","1","1,0.333,0.333,0.333,1,0.333,0.333,0.333,1","1,0.333,0.333,0.333,1,0.333,0.333,0.333,1","1",""
"","html-keyboard-response","137","349466","0.0-137.0","3EO896NRAXHJW6FOIP2YR86CZDHTJE","A1KD8SJ4EUQT1Q","3MXX6RQ9EVRTFC527Z18RDK8KW6P4R","","null","<img src=""img/flower1.png"" style=""width:200px;border:14px solid red;"">","null","","","","","","","","",""
"","image-keyboard-response","138","349579","0.0-138.0","3EO896NRAXHJW6FOIP2YR86CZDHTJE","A1KD8SJ4EUQT1Q","3MXX6RQ9EVRTFC527Z18RDK8KW6P4R","","112.39999985694885","img/flower3.png","75","113","2","0","1","1","1,0.333,0.333,0.333,1,0.333,0.333,0.333,1","1,0.333,0.333,0.333,1,0.333,0.333,0.333,1","1",""
"","html-keyboard-response","139","349881","0.0-139.0","3EO896NRAXHJW6FOIP2YR86CZDHTJE","A1KD8SJ4EUQT1Q","3MXX6RQ9EVRTFC527Z18RDK8KW6P4R","","null","<img src=""img/flower3.png"" style=""width:200px;border:14px solid red;"">","null","","","","","","","","",""
"","image-keyboard-response","140","349912","0.0-140.0","3EO896NRAXHJW6FOIP2YR86CZDHTJE","A1KD8SJ4EUQT1Q","3MXX6RQ9EVRTFC527Z18RDK8KW6P4R","","29.100000143051147","img/flower2.png","74","30.200000047683716","1","0","2","1","1,0.333,0.333,0.333,1,0.333,0.333,0.333,1","1,0.333,0.333,0.333,1,0.333,0.333,0.333,1","1",""
"","html-keyboard-response","141","350214","0.0-141.0","3EO896NRAXHJW6FOIP2YR86CZDHTJE","A1KD8SJ4EUQT1Q","3MXX6RQ9EVRTFC527Z18RDK8KW6P4R","","null","<img src=""img/flower2.png"" style=""width:200px;border:14px solid red;"">","null","","","","","","","","",""
"","image-keyboard-response","142","350462","0.0-142.0","3EO896NRAXHJW6FOIP2YR86CZDHTJE","A1KD8SJ4EUQT1Q","3MXX6RQ9EVRTFC527Z18RDK8KW6P4R","","247.40000009536743","img/flower2.png","75","248.09999990463257","2","1","2","1","1,0.333,0.333,0.333,1,0.333,0.333,0.333,1","1,0.333,0.333,0.333,1,0.333,0.333,0.333,1","1",""
"","html-keyboard-response","143","350765","0.0-143.0","3EO896NRAXHJW6FOIP2YR86CZDHTJE","A1KD8SJ4EUQT1Q","3MXX6RQ9EVRTFC527Z18RDK8KW6P4R","","null","<img src=""img/flower2.png"" style=""width:200px; border:14px solid green;"">","null","","","","","","","","",""
"","image-keyboard-response","144","350945","0.0-144.0","3EO896NRAXHJW6FOIP2YR86CZDHTJE","A1KD8SJ4EUQT1Q","3MXX6RQ9EVRTFC527Z18RDK8KW6P4R","","179.29999995231628","img/flower2.png","75","180.10000014305115","2","1","2","1","1,0.333,0.333,0.333,1,0.333,0.333,0.333,1","1,0.333,0.333,0.333,1,0.333,0.333,0.333,1","1",""
"","html-keyboard-response","145","351247","0.0-145.0","3EO896NRAXHJW6FOIP2YR86CZDHTJE","A1KD8SJ4EUQT1Q","3MXX6RQ9EVRTFC527Z18RDK8KW6P4R","","null","<img src=""img/flower2.png"" style=""width:200px; border:14px solid green;"">","null","","","","","","","","",""
"","image-keyboard-response","146","351359","0.0-146.0","3EO896NRAXHJW6FOIP2YR86CZDHTJE","A1KD8SJ4EUQT1Q","3MXX6RQ9EVRTFC527Z18RDK8KW6P4R","","111.40000009536743","img/flower2.png","75","111.90000009536743","2","1","2","1","1,0.333,0.333,0.333,1,0.333,0.333,0.333,1","1,0.333,0.333,0.333,1,0.333,0.333,0.333,1","1",""
"","html-keyboard-response","147","351662","0.0-147.0","3EO896NRAXHJW6FOIP2YR86CZDHTJE","A1KD8SJ4EUQT1Q","3MXX6RQ9EVRTFC527Z18RDK8KW6P4R","","null","<img src=""img/flower2.png"" style=""width:200px; border:14px solid green;"">","null","","","","","","","","",""
"","image-keyboard-response","148","351762","0.0-148.0","3EO896NRAXHJW6FOIP2YR86CZDHTJE","A1KD8SJ4EUQT1Q","3MXX6RQ9EVRTFC527Z18RDK8KW6P4R","","98.60000014305115","img/flower3.png","75","99.69999980926514","2","1","1","1","1,0.333,0.333,0.333,1,0.333,0.333,0.333,1","1,0.333,0.333,0.333,1,0.333,0.333,0.333,1","1",""
"","html-keyboard-response","149","352063","0.0-149.0","3EO896NRAXHJW6FOIP2YR86CZDHTJE","A1KD8SJ4EUQT1Q","3MXX6RQ9EVRTFC527Z18RDK8KW6P4R","","null","<img src=""img/flower3.png"" style=""width:200px; border:14px solid green;"">","null","","","","","","","","",""
"","image-keyboard-response","150","352350","0.0-150.0","3EO896NRAXHJW6FOIP2YR86CZDHTJE","A1KD8SJ4EUQT1Q","3MXX6RQ9EVRTFC527Z18RDK8KW6P4R","","285.69999980926514","img/flower3.png","75","286.59999990463257","2","1","1","1","1,0.333,0.333,0.333,1,0.333,0.333,0.333,1","1,0.333,0.333,0.333,1,0.333,0.333,0.333,1","1",""
"","html-keyboard-response","151","352652","0.0-151.0","3EO896NRAXHJW6FOIP2YR86CZDHTJE","A1KD8SJ4EUQT1Q","3MXX6RQ9EVRTFC527Z18RDK8KW6P4R","","null","<img src=""img/flower3.png"" style=""width:200px; border:14px solid green;"">","null","","","","","","","","",""
"","image-keyboard-response","152","352901","0.0-152.0","3EO896NRAXHJW6FOIP2YR86CZDHTJE","A1KD8SJ4EUQT1Q","3MXX6RQ9EVRTFC527Z18RDK8KW6P4R","","247.5","img/flower3.png","75","248.59999990463257","2","0","1","1","1,0.333,0.333,0.333,1,0.333,0.333,0.333,1","1,0.333,0.333,0.333,1,0.333,0.333,0.333,1","1",""
"","html-keyboard-response","153","353217","0.0-153.0","3EO896NRAXHJW6FOIP2YR86CZDHTJE","A1KD8SJ4EUQT1Q","3MXX6RQ9EVRTFC527Z18RDK8KW6P4R","","null","<img src=""img/flower3.png"" style=""width:200px;border:14px solid red;"">","null","","","","","","","","",""
"","image-keyboard-response","154","353887","0.0-154.0","3EO896NRAXHJW6FOIP2YR86CZDHTJE","A1KD8SJ4EUQT1Q","3MXX6RQ9EVRTFC527Z18RDK8KW6P4R","","668.9000000953674","img/flower1.png","74","670","1","0","3","1","1,0.333,0.333,0.333,1,0.333,0.333,0.333,1","1,0.333,0.333,0.333,1,0.333,0.333,0.333,1","1",""
"","html-keyboard-response","155","354189","0.0-155.0","3EO896NRAXHJW6FOIP2YR86CZDHTJE","A1KD8SJ4EUQT1Q","3MXX6RQ9EVRTFC527Z18RDK8KW6P4R","","null","<img src=""img/flower1.png"" style=""width:200px;border:14px solid red;"">","null","","","","","","","","",""
"","image-keyboard-response","156","354293","0.0-156.0","3EO896NRAXHJW6FOIP2YR86CZDHTJE","A1KD8SJ4EUQT1Q","3MXX6RQ9EVRTFC527Z18RDK8KW6P4R","","103","img/flower1.png","76","103.90000009536743","3","1","3","1","1,0.333,0.333,0.333,1,0.333,0.333,0.333,1","1,0.333,0.333,0.333,1,0.333,0.333,0.333,1","1",""
"","html-keyboard-response","157","354595","0.0-157.0","3EO896NRAXHJW6FOIP2YR86CZDHTJE","A1KD8SJ4EUQT1Q","3MXX6RQ9EVRTFC527Z18RDK8KW6P4R","","null","<img src=""img/flower1.png"" style=""width:200px; border:14px solid green;"">","null","","","","","","","","",""
"","image-keyboard-response","158","354703","0.0-158.0","3EO896NRAXHJW6FOIP2YR86CZDHTJE","A1KD8SJ4EUQT1Q","3MXX6RQ9EVRTFC527Z18RDK8KW6P4R","","107.5","img/flower2.png","76","107.89999985694885","3","0","2","1","1,0.333,0.333,0.333,1,0.333,0.333,0.333,1","1,0.333,0.333,0.333,1,0.333,0.333,0.333,1","1",""
"","html-keyboard-response","159","355004","0.0-159.0","3EO896NRAXHJW6FOIP2YR86CZDHTJE","A1KD8SJ4EUQT1Q","3MXX6RQ9EVRTFC527Z18RDK8KW6P4R","","null","<img src=""img/flower2.png"" style=""width:200px;border:14px solid red;"">","null","","","","","","","","",""
"","image-keyboard-response","160","355242","0.0-160.0","3EO896NRAXHJW6FOIP2YR86CZDHTJE","A1KD8SJ4EUQT1Q","3MXX6RQ9EVRTFC527Z18RDK8KW6P4R","","236.70000004768372","img/flower3.png","75","237.5","2","1","1","1","1,0.333,0.333,0.333,1,0.333,0.333,0.333,1","1,0.333,0.333,0.333,1,0.333,0.333,0.333,1","1",""
"","html-keyboard-response","161","355544","0.0-161.0","3EO896NRAXHJW6FOIP2YR86CZDHTJE","A1KD8SJ4EUQT1Q","3MXX6RQ9EVRTFC527Z18RDK8KW6P4R","","null","<img src=""img/flower3.png"" style=""width:200px; border:14px solid green;"">","null","","","","","","","","",""
"","image-keyboard-response","162","356053","0.0-162.0","3EO896NRAXHJW6FOIP2YR86CZDHTJE","A1KD8SJ4EUQT1Q","3MXX6RQ9EVRTFC527Z18RDK8KW6P4R","","506.90000009536743","img/flower2.png","74","508","1","1","2","1","1,0.333,0.333,0.333,1,0.333,0.333,0.333,1","1,0.333,0.333,0.333,1,0.333,0.333,0.333,1","1",""
"","html-keyboard-response","163","356355","0.0-163.0","3EO896NRAXHJW6FOIP2YR86CZDHTJE","A1KD8SJ4EUQT1Q","3MXX6RQ9EVRTFC527Z18RDK8KW6P4R","","null","<img src=""img/flower2.png"" style=""width:200px; border:14px solid green;"">","null","","","","","","","","",""
"","image-keyboard-response","164","356850","0.0-164.0","3EO896NRAXHJW6FOIP2YR86CZDHTJE","A1KD8SJ4EUQT1Q","3MXX6RQ9EVRTFC527Z18RDK8KW6P4R","","493.59999990463257","img/flower3.png","74","494.2000000476837","1","1","1","1","1,0.333,0.333,0.333,1,0.333,0.333,0.333,1","1,0.333,0.333,0.333,1,0.333,0.333,0.333,1","1",""
"","html-keyboard-response","165","357151","0.0-165.0","3EO896NRAXHJW6FOIP2YR86CZDHTJE","A1KD8SJ4EUQT1Q","3MXX6RQ9EVRTFC527Z18RDK8KW6P4R","","null","<img src=""img/flower3.png"" style=""width:200px; border:14px solid green;"">","null","","","","","","","","",""
"","image-keyboard-response","166","357692","0.0-166.0","3EO896NRAXHJW6FOIP2YR86CZDHTJE","A1KD8SJ4EUQT1Q","3MXX6RQ9EVRTFC527Z18RDK8KW6P4R","","539.6000001430511","img/flower1.png","74","540.6000001430511","1","0","3","1","1,0.333,0.333,0.333,1,0.333,0.333,0.333,1","1,0.333,0.333,0.333,1,0.333,0.333,0.333,1","1",""
"","html-keyboard-response","167","357996","0.0-167.0","3EO896NRAXHJW6FOIP2YR86CZDHTJE","A1KD8SJ4EUQT1Q","3MXX6RQ9EVRTFC527Z18RDK8KW6P4R","","null","<img src=""img/flower1.png"" style=""width:200px;border:14px solid red;"">","null","","","","","","","","",""
"","image-keyboard-response","168","358132","0.0-168.0","3EO896NRAXHJW6FOIP2YR86CZDHTJE","A1KD8SJ4EUQT1Q","3MXX6RQ9EVRTFC527Z18RDK8KW6P4R","","134.60000014305115","img/flower2.png","75","135.5","2","1","2","1","1,0.333,0.333,0.333,1,0.333,0.333,0.333,1","1,0.333,0.333,0.333,1,0.333,0.333,0.333,1","1",""
"","html-keyboard-response","169","358434","0.0-169.0","3EO896NRAXHJW6FOIP2YR86CZDHTJE","A1KD8SJ4EUQT1Q","3MXX6RQ9EVRTFC527Z18RDK8KW6P4R","","null","<img src=""img/flower2.png"" style=""width:200px; border:14px solid green;"">","null","","","","","","","","",""
"","image-keyboard-response","170","358606","0.0-170.0","3EO896NRAXHJW6FOIP2YR86CZDHTJE","A1KD8SJ4EUQT1Q","3MXX6RQ9EVRTFC527Z18RDK8KW6P4R","","171.59999990463257","img/flower2.png","75","172","2","1","2","1","1,0.333,0.333,0.333,1,0.333,0.333,0.333,1","1,0.333,0.333,0.333,1,0.333,0.333,0.333,1","1",""
"","html-keyboard-response","171","358907","0.0-171.0","3EO896NRAXHJW6FOIP2YR86CZDHTJE","A1KD8SJ4EUQT1Q","3MXX6RQ9EVRTFC527Z18RDK8KW6P4R","","null","<img src=""img/flower2.png"" style=""width:200px; border:14px solid green;"">","null","","","","","","","","",""
"","image-keyboard-response","172","359022","0.0-172.0","3EO896NRAXHJW6FOIP2YR86CZDHTJE","A1KD8SJ4EUQT1Q","3MXX6RQ9EVRTFC527Z18RDK8KW6P4R","","113.09999990463257","img/flower1.png","75","114.09999990463257","2","0","3","1","1,0.333,0.333,0.333,1,0.333,0.333,0.333,1","1,0.333,0.333,0.333,1,0.333,0.333,0.333,1","1",""
"","html-keyboard-response","173","359323","0.0-173.0","3EO896NRAXHJW6FOIP2YR86CZDHTJE","A1KD8SJ4EUQT1Q","3MXX6RQ9EVRTFC527Z18RDK8KW6P4R","","null","<img src=""img/flower1.png"" style=""width:200px;border:14px solid red;"">","null","","","","","","","","",""
"","image-keyboard-response","174","360239","0.0-174.0","3EO896NRAXHJW6FOIP2YR86CZDHTJE","A1KD8SJ4EUQT1Q","3MXX6RQ9EVRTFC527Z18RDK8KW6P4R","","915","img/flower2.png","75","916.0999999046326","2","1","2","1","1,0.333,0.333,0.333,1,0.333,0.333,0.333,1","1,0.333,0.333,0.333,1,0.333,0.333,0.333,1","1",""
"","html-keyboard-response","175","360542","0.0-175.0","3EO896NRAXHJW6FOIP2YR86CZDHTJE","A1KD8SJ4EUQT1Q","3MXX6RQ9EVRTFC527Z18RDK8KW6P4R","","null","<img src=""img/flower2.png"" style=""width:200px; border:14px solid green;"">","null","","","","","","","","",""
"","image-keyboard-response","176","361097","0.0-176.0","3EO896NRAXHJW6FOIP2YR86CZDHTJE","A1KD8SJ4EUQT1Q","3MXX6RQ9EVRTFC527Z18RDK8KW6P4R","","555.2000000476837","img/flower3.png","76","555.7000000476837","3","0","1","1","1,0.333,0.333,0.333,1,0.333,0.333,0.333,1","1,0.333,0.333,0.333,1,0.333,0.333,0.333,1","1",""
"","html-keyboard-response","177","361399","0.0-177.0","3EO896NRAXHJW6FOIP2YR86CZDHTJE","A1KD8SJ4EUQT1Q","3MXX6RQ9EVRTFC527Z18RDK8KW6P4R","","null","<img src=""img/flower3.png"" style=""width:200px;border:14px solid red;"">","null","","","","","","","","",""
"","image-keyboard-response","178","361957","0.0-178.0","3EO896NRAXHJW6FOIP2YR86CZDHTJE","A1KD8SJ4EUQT1Q","3MXX6RQ9EVRTFC527Z18RDK8KW6P4R","","556.7000000476837","img/flower2.png","76","558","3","0","2","1","1,0.333,0.333,0.333,1,0.333,0.333,0.333,1","1,0.333,0.333,0.333,1,0.333,0.333,0.333,1","1",""
"","html-keyboard-response","179","362259","0.0-179.0","3EO896NRAXHJW6FOIP2YR86CZDHTJE","A1KD8SJ4EUQT1Q","3MXX6RQ9EVRTFC527Z18RDK8KW6P4R","","null","<img src=""img/flower2.png"" style=""width:200px;border:14px solid red;"">","null","","","","","","","","",""
"","image-keyboard-response","180","362260","0.0-180.0","3EO896NRAXHJW6FOIP2YR86CZDHTJE","A1KD8SJ4EUQT1Q","3MXX6RQ9EVRTFC527Z18RDK8KW6P4R","","0.10000014305114746","img/flower3.png","75","0.5999999046325684","2","1","1","1","1,0.333,0.333,0.333,1,0.333,0.333,0.333,1","1,0.333,0.333,0.333,1,0.333,0.333,0.333,1","1",""
"","html-keyboard-response","181","362561","0.0-181.0","3EO896NRAXHJW6FOIP2YR86CZDHTJE","A1KD8SJ4EUQT1Q","3MXX6RQ9EVRTFC527Z18RDK8KW6P4R","","null","<img src=""img/flower3.png"" style=""width:200px; border:14px solid green;"">","null","","","","","","","","",""
"","html-keyboard-response","182","364935","0.0-182.0","3EO896NRAXHJW6FOIP2YR86CZDHTJE","A1KD8SJ4EUQT1Q","3MXX6RQ9EVRTFC527Z18RDK8KW6P4R","","","","","","","","","","","","",""
"","image-keyboard-response","183","365662","0.0-183.0","3EO896NRAXHJW6FOIP2YR86CZDHTJE","A1KD8SJ4EUQT1Q","3MXX6RQ9EVRTFC527Z18RDK8KW6P4R","","725.2999999523163","img/flower4.png","75","726.9000000953674","2","1","2","2","1,0,0,1,1,0,1,0,1","0,1,0,0,1,1,1,1,0","3",""
"","html-keyboard-response","184","365965","0.0-184.0","3EO896NRAXHJW6FOIP2YR86CZDHTJE","A1KD8SJ4EUQT1Q","3MXX6RQ9EVRTFC527Z18RDK8KW6P4R","","null","<img src=""img/flower4.png"" style=""width:200px; border:14px solid green;"">","null","","","","","","","","",""
"","image-keyboard-response","185","366534","0.0-185.0","3EO896NRAXHJW6FOIP2YR86CZDHTJE","A1KD8SJ4EUQT1Q","3MXX6RQ9EVRTFC527Z18RDK8KW6P4R","","566.9000000953674","img/flower5.png","75","567.9000000953674","2","1","1","2","1,0,0,1,1,0,1,0,1","0,1,0,0,1,1,1,1,0","3",""
"","html-keyboard-response","186","366835","0.0-186.0","3EO896NRAXHJW6FOIP2YR86CZDHTJE","A1KD8SJ4EUQT1Q","3MXX6RQ9EVRTFC527Z18RDK8KW6P4R","","null","<img src=""img/flower5.png"" style=""width:200px; border:14px solid green;"">","null","","","","","","","","",""
"","image-keyboard-response","187","367485","0.0-187.0","3EO896NRAXHJW6FOIP2YR86CZDHTJE","A1KD8SJ4EUQT1Q","3MXX6RQ9EVRTFC527Z18RDK8KW6P4R","","648.3999998569489","img/flower4.png","74","649.5999999046326","1","0","2","2","1,0,0,1,1,0,1,0,1","0,1,0,0,1,1,1,1,0","3",""
"","html-keyboard-response","188","367787","0.0-188.0","3EO896NRAXHJW6FOIP2YR86CZDHTJE","A1KD8SJ4EUQT1Q","3MXX6RQ9EVRTFC527Z18RDK8KW6P4R","","null","<img src=""img/flower4.png"" style=""width:200px;border:14px solid red;"">","null","","","","","","","","",""
"","image-keyboard-response","189","368296","0.0-189.0","3EO896NRAXHJW6FOIP2YR86CZDHTJE","A1KD8SJ4EUQT1Q","3MXX6RQ9EVRTFC527Z18RDK8KW6P4R","","507.89999985694885","img/flower4.png","76","508.2999999523163","3","1","2","2","1,0,0,1,1,0,1,0,1","0,1,0,0,1,1,1,1,0","3",""
"","html-keyboard-response","190","368597","0.0-190.0","3EO896NRAXHJW6FOIP2YR86CZDHTJE","A1KD8SJ4EUQT1Q","3MXX6RQ9EVRTFC527Z18RDK8KW6P4R","","null","<img src=""img/flower4.png"" style=""width:200px; border:14px solid green;"">","null","","","","","","","","",""
"","image-keyboard-response","191","369135","0.0-191.0","3EO896NRAXHJW6FOIP2YR86CZDHTJE","A1KD8SJ4EUQT1Q","3MXX6RQ9EVRTFC527Z18RDK8KW6P4R","","535.9000000953674","img/flower5.png","75","537","2","1","1","2","1,0,0,1,1,0,1,0,1","0,1,0,0,1,1,1,1,0","3",""
"","html-keyboard-response","192","369437","0.0-192.0","3EO896NRAXHJW6FOIP2YR86CZDHTJE","A1KD8SJ4EUQT1Q","3MXX6RQ9EVRTFC527Z18RDK8KW6P4R","","null","<img src=""img/flower5.png"" style=""width:200px; border:14px solid green;"">","null","","","","","","","","",""
"","image-keyboard-response","193","369752","0.0-193.0","3EO896NRAXHJW6FOIP2YR86CZDHTJE","A1KD8SJ4EUQT1Q","3MXX6RQ9EVRTFC527Z18RDK8KW6P4R","","313.90000009536743","img/flower4.png","76","315.30000019073486","3","1","2","2","1,0,0,1,1,0,1,0,1","0,1,0,0,1,1,1,1,0","3",""
"","html-keyboard-response","194","370056","0.0-194.0","3EO896NRAXHJW6FOIP2YR86CZDHTJE","A1KD8SJ4EUQT1Q","3MXX6RQ9EVRTFC527Z18RDK8KW6P4R","","null","<img src=""img/flower4.png"" style=""width:200px; border:14px solid green;"">","null","","","","","","","","",""
"","image-keyboard-response","195","370842","0.0-195.0","3EO896NRAXHJW6FOIP2YR86CZDHTJE","A1KD8SJ4EUQT1Q","3MXX6RQ9EVRTFC527Z18RDK8KW6P4R","","785.4000000953674","img/flower6.png","74","786.4000000953674","1","1","3","2","1,0,0,1,1,0,1,0,1","0,1,0,0,1,1,1,1,0","3",""
"","html-keyboard-response","196","371144","0.0-196.0","3EO896NRAXHJW6FOIP2YR86CZDHTJE","A1KD8SJ4EUQT1Q","3MXX6RQ9EVRTFC527Z18RDK8KW6P4R","","null","<img src=""img/flower6.png"" style=""width:200px; border:14px solid green;"">","null","","","","","","","","",""
"","image-keyboard-response","197","371530","0.0-197.0","3EO896NRAXHJW6FOIP2YR86CZDHTJE","A1KD8SJ4EUQT1Q","3MXX6RQ9EVRTFC527Z18RDK8KW6P4R","","384.7000000476837","img/flower4.png","75","385.7999999523163","2","1","2","2","1,0,0,1,1,0,1,0,1","0,1,0,0,1,1,1,1,0","3",""
"","html-keyboard-response","198","371832","0.0-198.0","3EO896NRAXHJW6FOIP2YR86CZDHTJE","A1KD8SJ4EUQT1Q","3MXX6RQ9EVRTFC527Z18RDK8KW6P4R","","null","<img src=""img/flower4.png"" style=""width:200px; border:14px solid green;"">","null","","","","","","","","",""
"","image-keyboard-response","199","372126","0.0-199.0","3EO896NRAXHJW6FOIP2YR86CZDHTJE","A1KD8SJ4EUQT1Q","3MXX6RQ9EVRTFC527Z18RDK8KW6P4R","","292.2999999523163","img/flower4.png","76","293.5","3","1","2","2","1,0,0,1,1,0,1,0,1","0,1,0,0,1,1,1,1,0","3",""
"","html-keyboard-response","200","372428","0.0-200.0","3EO896NRAXHJW6FOIP2YR86CZDHTJE","A1KD8SJ4EUQT1Q","3MXX6RQ9EVRTFC527Z18RDK8KW6P4R","","null","<img src=""img/flower4.png"" style=""width:200px; border:14px solid green;"">","null","","","","","","","","",""
"","image-keyboard-response","201","372592","0.0-201.0","3EO896NRAXHJW6FOIP2YR86CZDHTJE","A1KD8SJ4EUQT1Q","3MXX6RQ9EVRTFC527Z18RDK8KW6P4R","","163","img/flower6.png","75","163.5","2","1","3","2","1,0,0,1,1,0,1,0,1","0,1,0,0,1,1,1,1,0","3",""
"","html-keyboard-response","202","372893","0.0-202.0","3EO896NRAXHJW6FOIP2YR86CZDHTJE","A1KD8SJ4EUQT1Q","3MXX6RQ9EVRTFC527Z18RDK8KW6P4R","","null","<img src=""img/flower6.png"" style=""width:200px; border:14px solid green;"">","null","","","","","","","","",""
"","image-keyboard-response","203","373247","0.0-203.0","3EO896NRAXHJW6FOIP2YR86CZDHTJE","A1KD8SJ4EUQT1Q","3MXX6RQ9EVRTFC527Z18RDK8KW6P4R","","351.7000000476837","img/flower6.png","75","352.7000000476837","2","1","3","2","1,0,0,1,1,0,1,0,1","0,1,0,0,1,1,1,1,0","3",""
"","html-keyboard-response","204","373548","0.0-204.0","3EO896NRAXHJW6FOIP2YR86CZDHTJE","A1KD8SJ4EUQT1Q","3MXX6RQ9EVRTFC527Z18RDK8KW6P4R","","null","<img src=""img/flower6.png"" style=""width:200px; border:14px solid green;"">","null","","","","","","","","",""
"","image-keyboard-response","205","374023","0.0-205.0","3EO896NRAXHJW6FOIP2YR86CZDHTJE","A1KD8SJ4EUQT1Q","3MXX6RQ9EVRTFC527Z18RDK8KW6P4R","","474.5","img/flower4.png","75","475.09999990463257","2","1","2","2","1,0,0,1,1,0,1,0,1","0,1,0,0,1,1,1,1,0","3",""
"","html-keyboard-response","206","374324","0.0-206.0","3EO896NRAXHJW6FOIP2YR86CZDHTJE","A1KD8SJ4EUQT1Q","3MXX6RQ9EVRTFC527Z18RDK8KW6P4R","","null","<img src=""img/flower4.png"" style=""width:200px; border:14px solid green;"">","null","","","","","","","","",""
"","image-keyboard-response","207","374695","0.0-207.0","3EO896NRAXHJW6FOIP2YR86CZDHTJE","A1KD8SJ4EUQT1Q","3MXX6RQ9EVRTFC527Z18RDK8KW6P4R","","369.2000000476837","img/flower5.png","74","370.40000009536743","1","0","1","2","1,0,0,1,1,0,1,0,1","0,1,0,0,1,1,1,1,0","3",""
"","html-keyboard-response","208","374997","0.0-208.0","3EO896NRAXHJW6FOIP2YR86CZDHTJE","A1KD8SJ4EUQT1Q","3MXX6RQ9EVRTFC527Z18RDK8KW6P4R","","null","<img src=""img/flower5.png"" style=""width:200px;border:14px solid red;"">","null","","","","","","","","",""
"","image-keyboard-response","209","375647","0.0-209.0","3EO896NRAXHJW6FOIP2YR86CZDHTJE","A1KD8SJ4EUQT1Q","3MXX6RQ9EVRTFC527Z18RDK8KW6P4R","","649.7000000476837","img/flower6.png","75","650.5","2","1","3","2","1,0,0,1,1,0,1,0,1","0,1,0,0,1,1,1,1,0","3",""
"","html-keyboard-response","210","375949","0.0-210.0","3EO896NRAXHJW6FOIP2YR86CZDHTJE","A1KD8SJ4EUQT1Q","3MXX6RQ9EVRTFC527Z18RDK8KW6P4R","","null","<img src=""img/flower6.png"" style=""width:200px; border:14px solid green;"">","null","","","","","","","","",""
"","image-keyboard-response","211","376375","0.0-211.0","3EO896NRAXHJW6FOIP2YR86CZDHTJE","A1KD8SJ4EUQT1Q","3MXX6RQ9EVRTFC527Z18RDK8KW6P4R","","424.7999999523163","img/flower4.png","75","425.7999999523163","2","1","2","2","1,0,0,1,1,0,1,0,1","0,1,0,0,1,1,1,1,0","3",""
"","html-keyboard-response","212","376676","0.0-212.0","3EO896NRAXHJW6FOIP2YR86CZDHTJE","A1KD8SJ4EUQT1Q","3MXX6RQ9EVRTFC527Z18RDK8KW6P4R","","null","<img src=""img/flower4.png"" style=""width:200px; border:14px solid green;"">","null","","","","","","","","",""
"","image-keyboard-response","213","376937","0.0-213.0","3EO896NRAXHJW6FOIP2YR86CZDHTJE","A1KD8SJ4EUQT1Q","3MXX6RQ9EVRTFC527Z18RDK8KW6P4R","","260.30000019073486","img/flower4.png","75","261.09999990463257","2","1","2","2","1,0,0,1,1,0,1,0,1","0,1,0,0,1,1,1,1,0","3",""
"","html-keyboard-response","214","377240","0.0-214.0","3EO896NRAXHJW6FOIP2YR86CZDHTJE","A1KD8SJ4EUQT1Q","3MXX6RQ9EVRTFC527Z18RDK8KW6P4R","","null","<img src=""img/flower4.png"" style=""width:200px; border:14px solid green;"">","null","","","","","","","","",""
"","image-keyboard-response","215","377903","0.0-215.0","3EO896NRAXHJW6FOIP2YR86CZDHTJE","A1KD8SJ4EUQT1Q","3MXX6RQ9EVRTFC527Z18RDK8KW6P4R","","662.4000000953674","img/flower5.png","76","663.2999999523163","3","0","1","2","1,0,0,1,1,0,1,0,1","0,1,0,0,1,1,1,1,0","3",""
"","html-keyboard-response","216","378205","0.0-216.0","3EO896NRAXHJW6FOIP2YR86CZDHTJE","A1KD8SJ4EUQT1Q","3MXX6RQ9EVRTFC527Z18RDK8KW6P4R","","null","<img src=""img/flower5.png"" style=""width:200px;border:14px solid red;"">","null","","","","","","","","",""
"","image-keyboard-response","217","378449","0.0-217.0","3EO896NRAXHJW6FOIP2YR86CZDHTJE","A1KD8SJ4EUQT1Q","3MXX6RQ9EVRTFC527Z18RDK8KW6P4R","","242.70000004768372","img/flower5.png","74","243.90000009536743","1","0","1","2","1,0,0,1,1,0,1,0,1","0,1,0,0,1,1,1,1,0","3",""
"","html-keyboard-response","218","378751","0.0-218.0","3EO896NRAXHJW6FOIP2YR86CZDHTJE","A1KD8SJ4EUQT1Q","3MXX6RQ9EVRTFC527Z18RDK8KW6P4R","","null","<img src=""img/flower5.png"" style=""width:200px;border:14px solid red;"">","null","","","","","","","","",""
"","image-keyboard-response","219","379168","0.0-219.0","3EO896NRAXHJW6FOIP2YR86CZDHTJE","A1KD8SJ4EUQT1Q","3MXX6RQ9EVRTFC527Z18RDK8KW6P4R","","416.59999990463257","img/flower6.png","75","417.10000014305115","2","1","3","2","1,0,0,1,1,0,1,0,1","0,1,0,0,1,1,1,1,0","3",""
"","html-keyboard-response","220","379471","0.0-220.0","3EO896NRAXHJW6FOIP2YR86CZDHTJE","A1KD8SJ4EUQT1Q","3MXX6RQ9EVRTFC527Z18RDK8KW6P4R","","null","<img src=""img/flower6.png"" style=""width:200px; border:14px solid green;"">","null","","","","","","","","",""
"","image-keyboard-response","221","379845","0.0-221.0","3EO896NRAXHJW6FOIP2YR86CZDHTJE","A1KD8SJ4EUQT1Q","3MXX6RQ9EVRTFC527Z18RDK8KW6P4R","","372.2999999523163","img/flower5.png","75","373.7000000476837","2","1","1","2","1,0,0,1,1,0,1,0,1","0,1,0,0,1,1,1,1,0","3",""
"","html-keyboard-response","222","380147","0.0-222.0","3EO896NRAXHJW6FOIP2YR86CZDHTJE","A1KD8SJ4EUQT1Q","3MXX6RQ9EVRTFC527Z18RDK8KW6P4R","","null","<img src=""img/flower5.png"" style=""width:200px; border:14px solid green;"">","null","","","","","","","","",""
"","image-keyboard-response","223","380407","0.0-223.0","3EO896NRAXHJW6FOIP2YR86CZDHTJE","A1KD8SJ4EUQT1Q","3MXX6RQ9EVRTFC527Z18RDK8KW6P4R","","259","img/flower5.png","75","260.2000000476837","2","1","1","2","1,0,0,1,1,0,1,0,1","0,1,0,0,1,1,1,1,0","3",""
"","html-keyboard-response","224","380710","0.0-224.0","3EO896NRAXHJW6FOIP2YR86CZDHTJE","A1KD8SJ4EUQT1Q","3MXX6RQ9EVRTFC527Z18RDK8KW6P4R","","null","<img src=""img/flower5.png"" style=""width:200px; border:14px solid green;"">","null","","","","","","","","",""
"","image-keyboard-response","225","381526","0.0-225.0","3EO896NRAXHJW6FOIP2YR86CZDHTJE","A1KD8SJ4EUQT1Q","3MXX6RQ9EVRTFC527Z18RDK8KW6P4R","","815.2999999523163","img/flower4.png","75","816.0999999046326","2","1","2","2","1,0,0,1,1,0,1,0,1","0,1,0,0,1,1,1,1,0","3",""
"","html-keyboard-response","226","381828","0.0-226.0","3EO896NRAXHJW6FOIP2YR86CZDHTJE","A1KD8SJ4EUQT1Q","3MXX6RQ9EVRTFC527Z18RDK8KW6P4R","","null","<img src=""img/flower4.png"" style=""width:200px; border:14px solid green;"">","null","","","","","","","","",""
"","image-keyboard-response","227","382050","0.0-227.0","3EO896NRAXHJW6FOIP2YR86CZDHTJE","A1KD8SJ4EUQT1Q","3MXX6RQ9EVRTFC527Z18RDK8KW6P4R","","221.09999990463257","img/flower5.png","75","222.40000009536743","2","1","1","2","1,0,0,1,1,0,1,0,1","0,1,0,0,1,1,1,1,0","3",""
"","html-keyboard-response","228","382352","0.0-228.0","3EO896NRAXHJW6FOIP2YR86CZDHTJE","A1KD8SJ4EUQT1Q","3MXX6RQ9EVRTFC527Z18RDK8KW6P4R","","null","<img src=""img/flower5.png"" style=""width:200px; border:14px solid green;"">","null","","","","","","","","",""
"","image-keyboard-response","229","382619","0.0-229.0","3EO896NRAXHJW6FOIP2YR86CZDHTJE","A1KD8SJ4EUQT1Q","3MXX6RQ9EVRTFC527Z18RDK8KW6P4R","","265.10000014305115","img/flower5.png","75","266.19999980926514","2","1","1","2","1,0,0,1,1,0,1,0,1","0,1,0,0,1,1,1,1,0","3",""
"","html-keyboard-response","230","382921","0.0-230.0","3EO896NRAXHJW6FOIP2YR86CZDHTJE","A1KD8SJ4EUQT1Q","3MXX6RQ9EVRTFC527Z18RDK8KW6P4R","","null","<img src=""img/flower5.png"" style=""width:200px; border:14px solid green;"">","null","","","","","","","","",""
"","image-keyboard-response","231","383094","0.0-231.0","3EO896NRAXHJW6FOIP2YR86CZDHTJE","A1KD8SJ4EUQT1Q","3MXX6RQ9EVRTFC527Z18RDK8KW6P4R","","171.70000004768372","img/flower6.png","75","173.09999990463257","2","1","3","2","1,0,0,1,1,0,1,0,1","0,1,0,0,1,1,1,1,0","3",""
"","html-keyboard-response","232","383396","0.0-232.0","3EO896NRAXHJW6FOIP2YR86CZDHTJE","A1KD8SJ4EUQT1Q","3MXX6RQ9EVRTFC527Z18RDK8KW6P4R","","null","<img src=""img/flower6.png"" style=""width:200px; border:14px solid green;"">","null","","","","","","","","",""
"","image-keyboard-response","233","383590","0.0-233.0","3EO896NRAXHJW6FOIP2YR86CZDHTJE","A1KD8SJ4EUQT1Q","3MXX6RQ9EVRTFC527Z18RDK8KW6P4R","","192.10000014305115","img/flower6.png","75","193.20000004768372","2","1","3","2","1,0,0,1,1,0,1,0,1","0,1,0,0,1,1,1,1,0","3",""
"","html-keyboard-response","234","383892","0.0-234.0","3EO896NRAXHJW6FOIP2YR86CZDHTJE","A1KD8SJ4EUQT1Q","3MXX6RQ9EVRTFC527Z18RDK8KW6P4R","","null","<img src=""img/flower6.png"" style=""width:200px; border:14px solid green;"">","null","","","","","","","","",""
"","image-keyboard-response","235","383981","0.0-235.0","3EO896NRAXHJW6FOIP2YR86CZDHTJE","A1KD8SJ4EUQT1Q","3MXX6RQ9EVRTFC527Z18RDK8KW6P4R","","87.40000009536743","img/flower4.png","75","88","2","1","2","2","1,0,0,1,1,0,1,0,1","0,1,0,0,1,1,1,1,0","3",""
"","html-keyboard-response","236","384282","0.0-236.0","3EO896NRAXHJW6FOIP2YR86CZDHTJE","A1KD8SJ4EUQT1Q","3MXX6RQ9EVRTFC527Z18RDK8KW6P4R","","null","<img src=""img/flower4.png"" style=""width:200px; border:14px solid green;"">","null","","","","","","","","",""
"","image-keyboard-response","237","384434","0.0-237.0","3EO896NRAXHJW6FOIP2YR86CZDHTJE","A1KD8SJ4EUQT1Q","3MXX6RQ9EVRTFC527Z18RDK8KW6P4R","","150.5","img/flower6.png","75","151.60000014305115","2","1","3","2","1,0,0,1,1,0,1,0,1","0,1,0,0,1,1,1,1,0","3",""
"","html-keyboard-response","238","384736","0.0-238.0","3EO896NRAXHJW6FOIP2YR86CZDHTJE","A1KD8SJ4EUQT1Q","3MXX6RQ9EVRTFC527Z18RDK8KW6P4R","","null","<img src=""img/flower6.png"" style=""width:200px; border:14px solid green;"">","null","","","","","","","","",""
"","image-keyboard-response","239","384852","0.0-239.0","3EO896NRAXHJW6FOIP2YR86CZDHTJE","A1KD8SJ4EUQT1Q","3MXX6RQ9EVRTFC527Z18RDK8KW6P4R","","114.70000004768372","img/flower6.png","75","115.70000004768372","2","1","3","2","1,0,0,1,1,0,1,0,1","0,1,0,0,1,1,1,1,0","3",""
"","html-keyboard-response","240","385153","0.0-240.0","3EO896NRAXHJW6FOIP2YR86CZDHTJE","A1KD8SJ4EUQT1Q","3MXX6RQ9EVRTFC527Z18RDK8KW6P4R","","null","<img src=""img/flower6.png"" style=""width:200px; border:14px solid green;"">","null","","","","","","","","",""
"","image-keyboard-response","241","385231","0.0-241.0","3EO896NRAXHJW6FOIP2YR86CZDHTJE","A1KD8SJ4EUQT1Q","3MXX6RQ9EVRTFC527Z18RDK8KW6P4R","","77","img/flower5.png","75","77.59999990463257","2","1","1","2","1,0,0,1,1,0,1,0,1","0,1,0,0,1,1,1,1,0","3",""
"","html-keyboard-response","242","385533","0.0-242.0","3EO896NRAXHJW6FOIP2YR86CZDHTJE","A1KD8SJ4EUQT1Q","3MXX6RQ9EVRTFC527Z18RDK8KW6P4R","","null","<img src=""img/flower5.png"" style=""width:200px; border:14px solid green;"">","null","","","","","","","","",""
"","image-keyboard-response","243","385607","0.0-243.0","3EO896NRAXHJW6FOIP2YR86CZDHTJE","A1KD8SJ4EUQT1Q","3MXX6RQ9EVRTFC527Z18RDK8KW6P4R","","72.80000019073486","img/flower5.png","75","74","2","1","1","2","1,0,0,1,1,0,1,0,1","0,1,0,0,1,1,1,1,0","3",""
"","html-keyboard-response","244","385909","0.0-244.0","3EO896NRAXHJW6FOIP2YR86CZDHTJE","A1KD8SJ4EUQT1Q","3MXX6RQ9EVRTFC527Z18RDK8KW6P4R","","null","<img src=""img/flower5.png"" style=""width:200px; border:14px solid green;"">","null","","","","","","","","",""
"","image-keyboard-response","245","386032","0.0-245.0","3EO896NRAXHJW6FOIP2YR86CZDHTJE","A1KD8SJ4EUQT1Q","3MXX6RQ9EVRTFC527Z18RDK8KW6P4R","","122.5","img/flower6.png","75","123.20000004768372","2","1","3","2","1,0,0,1,1,0,1,0,1","0,1,0,0,1,1,1,1,0","3",""
"","html-keyboard-response","246","386335","0.0-246.0","3EO896NRAXHJW6FOIP2YR86CZDHTJE","A1KD8SJ4EUQT1Q","3MXX6RQ9EVRTFC527Z18RDK8KW6P4R","","null","<img src=""img/flower6.png"" style=""width:200px; border:14px solid green;"">","null","","","","","","","","",""
"","image-keyboard-response","247","386426","0.0-247.0","3EO896NRAXHJW6FOIP2YR86CZDHTJE","A1KD8SJ4EUQT1Q","3MXX6RQ9EVRTFC527Z18RDK8KW6P4R","","89.39999985694885","img/flower5.png","75","90.30000019073486","2","1","1","2","1,0,0,1,1,0,1,0,1","0,1,0,0,1,1,1,1,0","3",""
"","html-keyboard-response","248","386727","0.0-248.0","3EO896NRAXHJW6FOIP2YR86CZDHTJE","A1KD8SJ4EUQT1Q","3MXX6RQ9EVRTFC527Z18RDK8KW6P4R","","null","<img src=""img/flower5.png"" style=""width:200px; border:14px solid green;"">","null","","","","","","","","",""
"","image-keyboard-response","249","386759","0.0-249.0","3EO896NRAXHJW6FOIP2YR86CZDHTJE","A1KD8SJ4EUQT1Q","3MXX6RQ9EVRTFC527Z18RDK8KW6P4R","","31.59999990463257","img/flower6.png","75","32","2","1","3","2","1,0,0,1,1,0,1,0,1","0,1,0,0,1,1,1,1,0","3",""
"","html-keyboard-response","250","387060","0.0-250.0","3EO896NRAXHJW6FOIP2YR86CZDHTJE","A1KD8SJ4EUQT1Q","3MXX6RQ9EVRTFC527Z18RDK8KW6P4R","","null","<img src=""img/flower6.png"" style=""width:200px; border:14px solid green;"">","null","","","","","","","","",""
"","image-keyboard-response","251","387127","0.0-251.0","3EO896NRAXHJW6FOIP2YR86CZDHTJE","A1KD8SJ4EUQT1Q","3MXX6RQ9EVRTFC527Z18RDK8KW6P4R","","66.30000019073486","img/flower5.png","75","67.30000019073486","2","1","1","2","1,0,0,1,1,0,1,0,1","0,1,0,0,1,1,1,1,0","3",""
"","html-keyboard-response","252","387430","0.0-252.0","3EO896NRAXHJW6FOIP2YR86CZDHTJE","A1KD8SJ4EUQT1Q","3MXX6RQ9EVRTFC527Z18RDK8KW6P4R","","null","<img src=""img/flower5.png"" style=""width:200px; border:14px solid green;"">","null","","","","","","","","",""
"","image-keyboard-response","253","387467","0.0-253.0","3EO896NRAXHJW6FOIP2YR86CZDHTJE","A1KD8SJ4EUQT1Q","3MXX6RQ9EVRTFC527Z18RDK8KW6P4R","","36.30000019073486","img/flower4.png","75","37.10000014305115","2","1","2","2","1,0,0,1,1,0,1,0,1","0,1,0,0,1,1,1,1,0","3",""
"","html-keyboard-response","254","387770","0.0-254.0","3EO896NRAXHJW6FOIP2YR86CZDHTJE","A1KD8SJ4EUQT1Q","3MXX6RQ9EVRTFC527Z18RDK8KW6P4R","","null","<img src=""img/flower4.png"" style=""width:200px; border:14px solid green;"">","null","","","","","","","","",""
"","image-keyboard-response","255","387819","0.0-255.0","3EO896NRAXHJW6FOIP2YR86CZDHTJE","A1KD8SJ4EUQT1Q","3MXX6RQ9EVRTFC527Z18RDK8KW6P4R","","46.09999990463257","img/flower4.png","75","47.5","2","1","2","2","1,0,0,1,1,0,1,0,1","0,1,0,0,1,1,1,1,0","3",""
"","html-keyboard-response","256","388122","0.0-256.0","3EO896NRAXHJW6FOIP2YR86CZDHTJE","A1KD8SJ4EUQT1Q","3MXX6RQ9EVRTFC527Z18RDK8KW6P4R","","null","<img src=""img/flower4.png"" style=""width:200px; border:14px solid green;"">","null","","","","","","","","",""
"","image-keyboard-response","257","388188","0.0-257.0","3EO896NRAXHJW6FOIP2YR86CZDHTJE","A1KD8SJ4EUQT1Q","3MXX6RQ9EVRTFC527Z18RDK8KW6P4R","","65.79999995231628","img/flower5.png","75","66.39999985694885","2","1","1","2","1,0,0,1,1,0,1,0,1","0,1,0,0,1,1,1,1,0","3",""
"","html-keyboard-response","258","388490","0.0-258.0","3EO896NRAXHJW6FOIP2YR86CZDHTJE","A1KD8SJ4EUQT1Q","3MXX6RQ9EVRTFC527Z18RDK8KW6P4R","","null","<img src=""img/flower5.png"" style=""width:200px; border:14px solid green;"">","null","","","","","","","","",""
"","image-keyboard-response","259","388520","0.0-259.0","3EO896NRAXHJW6FOIP2YR86CZDHTJE","A1KD8SJ4EUQT1Q","3MXX6RQ9EVRTFC527Z18RDK8KW6P4R","","28.90000009536743","img/flower4.png","75","30.199999809265137","2","1","2","2","1,0,0,1,1,0,1,0,1","0,1,0,0,1,1,1,1,0","3",""
"","html-keyboard-response","260","388823","0.0-260.0","3EO896NRAXHJW6FOIP2YR86CZDHTJE","A1KD8SJ4EUQT1Q","3MXX6RQ9EVRTFC527Z18RDK8KW6P4R","","null","<img src=""img/flower4.png"" style=""width:200px; border:14px solid green;"">","null","","","","","","","","",""
"","image-keyboard-response","261","388833","0.0-261.0","3EO896NRAXHJW6FOIP2YR86CZDHTJE","A1KD8SJ4EUQT1Q","3MXX6RQ9EVRTFC527Z18RDK8KW6P4R","","9.299999952316284","img/flower5.png","75","10.599999904632568","2","1","1","2","1,0,0,1,1,0,1,0,1","0,1,0,0,1,1,1,1,0","3",""
"","html-keyboard-response","262","389136","0.0-262.0","3EO896NRAXHJW6FOIP2YR86CZDHTJE","A1KD8SJ4EUQT1Q","3MXX6RQ9EVRTFC527Z18RDK8KW6P4R","","null","<img src=""img/flower5.png"" style=""width:200px; border:14px solid green;"">","null","","","","","","","","",""
"","image-keyboard-response","263","389157","0.0-263.0","3EO896NRAXHJW6FOIP2YR86CZDHTJE","A1KD8SJ4EUQT1Q","3MXX6RQ9EVRTFC527Z18RDK8KW6P4R","","19.299999952316284","img/flower4.png","75","20.59999990463257","2","1","2","2","1,0,0,1,1,0,1,0,1","0,1,0,0,1,1,1,1,0","3",""
"","html-keyboard-response","264","389459","0.0-264.0","3EO896NRAXHJW6FOIP2YR86CZDHTJE","A1KD8SJ4EUQT1Q","3MXX6RQ9EVRTFC527Z18RDK8KW6P4R","","null","<img src=""img/flower4.png"" style=""width:200px; border:14px solid green;"">","null","","","","","","","","",""
"","image-keyboard-response","265","389753","0.0-265.0","3EO896NRAXHJW6FOIP2YR86CZDHTJE","A1KD8SJ4EUQT1Q","3MXX6RQ9EVRTFC527Z18RDK8KW6P4R","","292.90000009536743","img/flower4.png","75","294.2000000476837","2","1","2","2","1,0,0,1,1,0,1,0,1","0,1,0,0,1,1,1,1,0","3",""
"","html-keyboard-response","266","390055","0.0-266.0","3EO896NRAXHJW6FOIP2YR86CZDHTJE","A1KD8SJ4EUQT1Q","3MXX6RQ9EVRTFC527Z18RDK8KW6P4R","","null","<img src=""img/flower4.png"" style=""width:200px; border:14px solid green;"">","null","","","","","","","","",""
"","image-keyboard-response","267","390095","0.0-267.0","3EO896NRAXHJW6FOIP2YR86CZDHTJE","A1KD8SJ4EUQT1Q","3MXX6RQ9EVRTFC527Z18RDK8KW6P4R","","38.39999985694885","img/flower6.png","75","39.60000014305115","2","1","3","2","1,0,0,1,1,0,1,0,1","0,1,0,0,1,1,1,1,0","3",""
"","html-keyboard-response","268","390398","0.0-268.0","3EO896NRAXHJW6FOIP2YR86CZDHTJE","A1KD8SJ4EUQT1Q","3MXX6RQ9EVRTFC527Z18RDK8KW6P4R","","null","<img src=""img/flower6.png"" style=""width:200px; border:14px solid green;"">","null","","","","","","","","",""
"","image-keyboard-response","269","390413","0.0-269.0","3EO896NRAXHJW6FOIP2YR86CZDHTJE","A1KD8SJ4EUQT1Q","3MXX6RQ9EVRTFC527Z18RDK8KW6P4R","","14","img/flower5.png","75","15.200000047683716","2","1","1","2","1,0,0,1,1,0,1,0,1","0,1,0,0,1,1,1,1,0","3",""
"","html-keyboard-response","270","390715","0.0-270.0","3EO896NRAXHJW6FOIP2YR86CZDHTJE","A1KD8SJ4EUQT1Q","3MXX6RQ9EVRTFC527Z18RDK8KW6P4R","","null","<img src=""img/flower5.png"" style=""width:200px; border:14px solid green;"">","null","","","","","","","","",""
"","image-keyboard-response","271","390725","0.0-271.0","3EO896NRAXHJW6FOIP2YR86CZDHTJE","A1KD8SJ4EUQT1Q","3MXX6RQ9EVRTFC527Z18RDK8KW6P4R","","9.700000047683716","img/flower4.png","75","10.400000095367432","2","1","2","2","1,0,0,1,1,0,1,0,1","0,1,0,0,1,1,1,1,0","3",""
"","html-keyboard-response","272","391027","0.0-272.0","3EO896NRAXHJW6FOIP2YR86CZDHTJE","A1KD8SJ4EUQT1Q","3MXX6RQ9EVRTFC527Z18RDK8KW6P4R","","null","<img src=""img/flower4.png"" style=""width:200px; border:14px solid green;"">","null","","","","","","","","",""
"","image-keyboard-response","273","391416","0.0-273.0","3EO896NRAXHJW6FOIP2YR86CZDHTJE","A1KD8SJ4EUQT1Q","3MXX6RQ9EVRTFC527Z18RDK8KW6P4R","","388.5","img/flower4.png","75","389","2","1","2","2","1,0,0,1,1,0,1,0,1","0,1,0,0,1,1,1,1,0","3",""
"","html-keyboard-response","274","391718","0.0-274.0","3EO896NRAXHJW6FOIP2YR86CZDHTJE","A1KD8SJ4EUQT1Q","3MXX6RQ9EVRTFC527Z18RDK8KW6P4R","","null","<img src=""img/flower4.png"" style=""width:200px; border:14px solid green;"">","null","","","","","","","","",""
"","image-keyboard-response","275","392011","0.0-275.0","3EO896NRAXHJW6FOIP2YR86CZDHTJE","A1KD8SJ4EUQT1Q","3MXX6RQ9EVRTFC527Z18RDK8KW6P4R","","292.2000000476837","img/flower4.png","75","293.40000009536743","2","1","2","2","1,0,0,1,1,0,1,0,1","0,1,0,0,1,1,1,1,0","3",""
"","html-keyboard-response","276","392313","0.0-276.0","3EO896NRAXHJW6FOIP2YR86CZDHTJE","A1KD8SJ4EUQT1Q","3MXX6RQ9EVRTFC527Z18RDK8KW6P4R","","null","<img src=""img/flower4.png"" style=""width:200px; border:14px solid green;"">","null","","","","","","","","",""
"","image-keyboard-response","277","392324","0.0-277.0","3EO896NRAXHJW6FOIP2YR86CZDHTJE","A1KD8SJ4EUQT1Q","3MXX6RQ9EVRTFC527Z18RDK8KW6P4R","","9.799999952316284","img/flower5.png","75","10.400000095367432","2","1","1","2","1,0,0,1,1,0,1,0,1","0,1,0,0,1,1,1,1,0","3",""
"","html-keyboard-response","278","392626","0.0-278.0","3EO896NRAXHJW6FOIP2YR86CZDHTJE","A1KD8SJ4EUQT1Q","3MXX6RQ9EVRTFC527Z18RDK8KW6P4R","","null","<img src=""img/flower5.png"" style=""width:200px; border:14px solid green;"">","null","","","","","","","","",""
"","image-keyboard-response","279","392674","0.0-279.0","3EO896NRAXHJW6FOIP2YR86CZDHTJE","A1KD8SJ4EUQT1Q","3MXX6RQ9EVRTFC527Z18RDK8KW6P4R","","46.39999985694885","img/flower6.png","75","47.700000047683716","2","1","3","2","1,0,0,1,1,0,1,0,1","0,1,0,0,1,1,1,1,0","3",""
"","html-keyboard-response","280","392976","0.0-280.0","3EO896NRAXHJW6FOIP2YR86CZDHTJE","A1KD8SJ4EUQT1Q","3MXX6RQ9EVRTFC527Z18RDK8KW6P4R","","null","<img src=""img/flower6.png"" style=""width:200px; border:14px solid green;"">","null","","","","","","","","",""
"","image-keyboard-response","281","393239","0.0-281.0","3EO896NRAXHJW6FOIP2YR86CZDHTJE","A1KD8SJ4EUQT1Q","3MXX6RQ9EVRTFC527Z18RDK8KW6P4R","","262.40000009536743","img/flower6.png","75","263.40000009536743","2","1","3","2","1,0,0,1,1,0,1,0,1","0,1,0,0,1,1,1,1,0","3",""
"","html-keyboard-response","282","393541","0.0-282.0","3EO896NRAXHJW6FOIP2YR86CZDHTJE","A1KD8SJ4EUQT1Q","3MXX6RQ9EVRTFC527Z18RDK8KW6P4R","","null","<img src=""img/flower6.png"" style=""width:200px; border:14px solid green;"">","null","","","","","","","","",""
"","image-keyboard-response","283","393812","0.0-283.0","3EO896NRAXHJW6FOIP2YR86CZDHTJE","A1KD8SJ4EUQT1Q","3MXX6RQ9EVRTFC527Z18RDK8KW6P4R","","268.7000000476837","img/flower6.png","75","269.90000009536743","2","1","3","2","1,0,0,1,1,0,1,0,1","0,1,0,0,1,1,1,1,0","3",""
"","html-keyboard-response","284","394114","0.0-284.0","3EO896NRAXHJW6FOIP2YR86CZDHTJE","A1KD8SJ4EUQT1Q","3MXX6RQ9EVRTFC527Z18RDK8KW6P4R","","null","<img src=""img/flower6.png"" style=""width:200px; border:14px solid green;"">","null","","","","","","","","",""
"","image-keyboard-response","285","394365","0.0-285.0","3EO896NRAXHJW6FOIP2YR86CZDHTJE","A1KD8SJ4EUQT1Q","3MXX6RQ9EVRTFC527Z18RDK8KW6P4R","","250","img/flower6.png","75","251.09999990463257","2","1","3","2","1,0,0,1,1,0,1,0,1","0,1,0,0,1,1,1,1,0","3",""
"","html-keyboard-response","286","394668","0.0-286.0","3EO896NRAXHJW6FOIP2YR86CZDHTJE","A1KD8SJ4EUQT1Q","3MXX6RQ9EVRTFC527Z18RDK8KW6P4R","","null","<img src=""img/flower6.png"" style=""width:200px; border:14px solid green;"">","null","","","","","","","","",""
"","image-keyboard-response","287","394896","0.0-287.0","3EO896NRAXHJW6FOIP2YR86CZDHTJE","A1KD8SJ4EUQT1Q","3MXX6RQ9EVRTFC527Z18RDK8KW6P4R","","226.90000009536743","img/flower5.png","75","227.60000014305115","2","1","1","2","1,0,0,1,1,0,1,0,1","0,1,0,0,1,1,1,1,0","3",""
"","html-keyboard-response","288","395198","0.0-288.0","3EO896NRAXHJW6FOIP2YR86CZDHTJE","A1KD8SJ4EUQT1Q","3MXX6RQ9EVRTFC527Z18RDK8KW6P4R","","null","<img src=""img/flower5.png"" style=""width:200px; border:14px solid green;"">","null","","","","","","","","",""
"","image-keyboard-response","289","395440","0.0-289.0","3EO896NRAXHJW6FOIP2YR86CZDHTJE","A1KD8SJ4EUQT1Q","3MXX6RQ9EVRTFC527Z18RDK8KW6P4R","","241.40000009536743","img/flower4.png","75","241.89999985694885","2","1","2","2","1,0,0,1,1,0,1,0,1","0,1,0,0,1,1,1,1,0","3",""
"","html-keyboard-response","290","395742","0.0-290.0","3EO896NRAXHJW6FOIP2YR86CZDHTJE","A1KD8SJ4EUQT1Q","3MXX6RQ9EVRTFC527Z18RDK8KW6P4R","","null","<img src=""img/flower4.png"" style=""width:200px; border:14px solid green;"">","null","","","","","","","","",""
"","image-keyboard-response","291","395956","0.0-291.0","3EO896NRAXHJW6FOIP2YR86CZDHTJE","A1KD8SJ4EUQT1Q","3MXX6RQ9EVRTFC527Z18RDK8KW6P4R","","212.89999985694885","img/flower4.png","75","214","2","1","2","2","1,0,0,1,1,0,1,0,1","0,1,0,0,1,1,1,1,0","3",""
"","html-keyboard-response","292","396257","0.0-292.0","3EO896NRAXHJW6FOIP2YR86CZDHTJE","A1KD8SJ4EUQT1Q","3MXX6RQ9EVRTFC527Z18RDK8KW6P4R","","null","<img src=""img/flower4.png"" style=""width:200px; border:14px solid green;"">","null","","","","","","","","",""
"","image-keyboard-response","293","396485","0.0-293.0","3EO896NRAXHJW6FOIP2YR86CZDHTJE","A1KD8SJ4EUQT1Q","3MXX6RQ9EVRTFC527Z18RDK8KW6P4R","","226.29999995231628","img/flower6.png","75","227.19999980926514","2","1","3","2","1,0,0,1,1,0,1,0,1","0,1,0,0,1,1,1,1,0","3",""
"","html-keyboard-response","294","396786","0.0-294.0","3EO896NRAXHJW6FOIP2YR86CZDHTJE","A1KD8SJ4EUQT1Q","3MXX6RQ9EVRTFC527Z18RDK8KW6P4R","","null","<img src=""img/flower6.png"" style=""width:200px; border:14px solid green;"">","null","","","","","","","","",""
"","image-keyboard-response","295","397015","0.0-295.0","3EO896NRAXHJW6FOIP2YR86CZDHTJE","A1KD8SJ4EUQT1Q","3MXX6RQ9EVRTFC527Z18RDK8KW6P4R","","228.19999980926514","img/flower6.png","75","228.90000009536743","2","1","3","2","1,0,0,1,1,0,1,0,1","0,1,0,0,1,1,1,1,0","3",""
"","html-keyboard-response","296","397317","0.0-296.0","3EO896NRAXHJW6FOIP2YR86CZDHTJE","A1KD8SJ4EUQT1Q","3MXX6RQ9EVRTFC527Z18RDK8KW6P4R","","null","<img src=""img/flower6.png"" style=""width:200px; border:14px solid green;"">","null","","","","","","","","",""
"","image-keyboard-response","297","397515","0.0-297.0","3EO896NRAXHJW6FOIP2YR86CZDHTJE","A1KD8SJ4EUQT1Q","3MXX6RQ9EVRTFC527Z18RDK8KW6P4R","","196.29999995231628","img/flower6.png","75","197.60000014305115","2","1","3","2","1,0,0,1,1,0,1,0,1","0,1,0,0,1,1,1,1,0","3",""
"","html-keyboard-response","298","397818","0.0-298.0","3EO896NRAXHJW6FOIP2YR86CZDHTJE","A1KD8SJ4EUQT1Q","3MXX6RQ9EVRTFC527Z18RDK8KW6P4R","","null","<img src=""img/flower6.png"" style=""width:200px; border:14px solid green;"">","null","","","","","","","","",""
"","image-keyboard-response","299","398030","0.0-299.0","3EO896NRAXHJW6FOIP2YR86CZDHTJE","A1KD8SJ4EUQT1Q","3MXX6RQ9EVRTFC527Z18RDK8KW6P4R","","210.70000004768372","img/flower5.png","75","211.90000009536743","2","1","1","2","1,0,0,1,1,0,1,0,1","0,1,0,0,1,1,1,1,0","3",""
"","html-keyboard-response","300","398332","0.0-300.0","3EO896NRAXHJW6FOIP2YR86CZDHTJE","A1KD8SJ4EUQT1Q","3MXX6RQ9EVRTFC527Z18RDK8KW6P4R","","null","<img src=""img/flower5.png"" style=""width:200px; border:14px solid green;"">","null","","","","","","","","",""
"","image-keyboard-response","301","398532","0.0-301.0","3EO896NRAXHJW6FOIP2YR86CZDHTJE","A1KD8SJ4EUQT1Q","3MXX6RQ9EVRTFC527Z18RDK8KW6P4R","","199.09999990463257","img/flower6.png","75","200.20000004768372","2","1","3","2","1,0,0,1,1,0,1,0,1","0,1,0,0,1,1,1,1,0","3",""
"","html-keyboard-response","302","398834","0.0-302.0","3EO896NRAXHJW6FOIP2YR86CZDHTJE","A1KD8SJ4EUQT1Q","3MXX6RQ9EVRTFC527Z18RDK8KW6P4R","","null","<img src=""img/flower6.png"" style=""width:200px; border:14px solid green;"">","null","","","","","","","","",""
"","image-keyboard-response","303","399092","0.0-303.0","3EO896NRAXHJW6FOIP2YR86CZDHTJE","A1KD8SJ4EUQT1Q","3MXX6RQ9EVRTFC527Z18RDK8KW6P4R","","257.10000014305115","img/flower4.png","75","257.90000009536743","2","1","2","2","1,0,0,1,1,0,1,0,1","0,1,0,0,1,1,1,1,0","3",""
"","html-keyboard-response","304","399396","0.0-304.0","3EO896NRAXHJW6FOIP2YR86CZDHTJE","A1KD8SJ4EUQT1Q","3MXX6RQ9EVRTFC527Z18RDK8KW6P4R","","null","<img src=""img/flower4.png"" style=""width:200px; border:14px solid green;"">","null","","","","","","","","",""
"","image-keyboard-response","305","399603","0.0-305.0","3EO896NRAXHJW6FOIP2YR86CZDHTJE","A1KD8SJ4EUQT1Q","3MXX6RQ9EVRTFC527Z18RDK8KW6P4R","","206","img/flower4.png","75","207.20000004768372","2","1","2","2","1,0,0,1,1,0,1,0,1","0,1,0,0,1,1,1,1,0","3",""
"","html-keyboard-response","306","399905","0.0-306.0","3EO896NRAXHJW6FOIP2YR86CZDHTJE","A1KD8SJ4EUQT1Q","3MXX6RQ9EVRTFC527Z18RDK8KW6P4R","","null","<img src=""img/flower4.png"" style=""width:200px; border:14px solid green;"">","null","","","","","","","","",""
"","image-keyboard-response","307","400160","0.0-307.0","3EO896NRAXHJW6FOIP2YR86CZDHTJE","A1KD8SJ4EUQT1Q","3MXX6RQ9EVRTFC527Z18RDK8KW6P4R","","254.09999990463257","img/flower4.png","75","254.5","2","1","2","2","1,0,0,1,1,0,1,0,1","0,1,0,0,1,1,1,1,0","3",""
"","html-keyboard-response","308","400461","0.0-308.0","3EO896NRAXHJW6FOIP2YR86CZDHTJE","A1KD8SJ4EUQT1Q","3MXX6RQ9EVRTFC527Z18RDK8KW6P4R","","null","<img src=""img/flower4.png"" style=""width:200px; border:14px solid green;"">","null","","","","","","","","",""
"","image-keyboard-response","309","400710","0.0-309.0","3EO896NRAXHJW6FOIP2YR86CZDHTJE","A1KD8SJ4EUQT1Q","3MXX6RQ9EVRTFC527Z18RDK8KW6P4R","","247.40000009536743","img/flower5.png","75","248.59999990463257","2","1","1","2","1,0,0,1,1,0,1,0,1","0,1,0,0,1,1,1,1,0","3",""
"","html-keyboard-response","310","401012","0.0-310.0","3EO896NRAXHJW6FOIP2YR86CZDHTJE","A1KD8SJ4EUQT1Q","3MXX6RQ9EVRTFC527Z18RDK8KW6P4R","","null","<img src=""img/flower5.png"" style=""width:200px; border:14px solid green;"">","null","","","","","","","","",""
"","image-keyboard-response","311","401212","0.0-311.0","3EO896NRAXHJW6FOIP2YR86CZDHTJE","A1KD8SJ4EUQT1Q","3MXX6RQ9EVRTFC527Z18RDK8KW6P4R","","198.90000009536743","img/flower4.png","75","200.10000014305115","2","1","2","2","1,0,0,1,1,0,1,0,1","0,1,0,0,1,1,1,1,0","3",""
"","html-keyboard-response","312","401514","0.0-312.0","3EO896NRAXHJW6FOIP2YR86CZDHTJE","A1KD8SJ4EUQT1Q","3MXX6RQ9EVRTFC527Z18RDK8KW6P4R","","null","<img src=""img/flower4.png"" style=""width:200px; border:14px solid green;"">","null","","","","","","","","",""
"","image-keyboard-response","313","401677","0.0-313.0","3EO896NRAXHJW6FOIP2YR86CZDHTJE","A1KD8SJ4EUQT1Q","3MXX6RQ9EVRTFC527Z18RDK8KW6P4R","","161","img/flower6.png","75","162.29999995231628","2","1","3","2","1,0,0,1,1,0,1,0,1","0,1,0,0,1,1,1,1,0","3",""
"","html-keyboard-response","314","401980","0.0-314.0","3EO896NRAXHJW6FOIP2YR86CZDHTJE","A1KD8SJ4EUQT1Q","3MXX6RQ9EVRTFC527Z18RDK8KW6P4R","","null","<img src=""img/flower6.png"" style=""width:200px; border:14px solid green;"">","null","","","","","","","","",""
"","image-keyboard-response","315","402122","0.0-315.0","3EO896NRAXHJW6FOIP2YR86CZDHTJE","A1KD8SJ4EUQT1Q","3MXX6RQ9EVRTFC527Z18RDK8KW6P4R","","140.90000009536743","img/flower6.png","75","142.19999980926514","2","1","3","2","1,0,0,1,1,0,1,0,1","0,1,0,0,1,1,1,1,0","3",""
"","html-keyboard-response","316","402424","0.0-316.0","3EO896NRAXHJW6FOIP2YR86CZDHTJE","A1KD8SJ4EUQT1Q","3MXX6RQ9EVRTFC527Z18RDK8KW6P4R","","null","<img src=""img/flower6.png"" style=""width:200px; border:14px solid green;"">","null","","","","","","","","",""
"","image-keyboard-response","317","402522","0.0-317.0","3EO896NRAXHJW6FOIP2YR86CZDHTJE","A1KD8SJ4EUQT1Q","3MXX6RQ9EVRTFC527Z18RDK8KW6P4R","","97.79999995231628","img/flower6.png","75","98.59999990463257","2","1","3","2","1,0,0,1,1,0,1,0,1","0,1,0,0,1,1,1,1,0","3",""
"","html-keyboard-response","318","402824","0.0-318.0","3EO896NRAXHJW6FOIP2YR86CZDHTJE","A1KD8SJ4EUQT1Q","3MXX6RQ9EVRTFC527Z18RDK8KW6P4R","","null","<img src=""img/flower6.png"" style=""width:200px; border:14px solid green;"">","null","","","","","","","","",""
"","image-keyboard-response","319","402949","0.0-319.0","3EO896NRAXHJW6FOIP2YR86CZDHTJE","A1KD8SJ4EUQT1Q","3MXX6RQ9EVRTFC527Z18RDK8KW6P4R","","122.09999990463257","img/flower6.png","75","123","2","1","3","2","1,0,0,1,1,0,1,0,1","0,1,0,0,1,1,1,1,0","3",""
"","html-keyboard-response","320","403250","0.0-320.0","3EO896NRAXHJW6FOIP2YR86CZDHTJE","A1KD8SJ4EUQT1Q","3MXX6RQ9EVRTFC527Z18RDK8KW6P4R","","null","<img src=""img/flower6.png"" style=""width:200px; border:14px solid green;"">","null","","","","","","","","",""
"","image-keyboard-response","321","403365","0.0-321.0","3EO896NRAXHJW6FOIP2YR86CZDHTJE","A1KD8SJ4EUQT1Q","3MXX6RQ9EVRTFC527Z18RDK8KW6P4R","","114.5","img/flower6.png","75","115.09999990463257","2","1","3","2","1,0,0,1,1,0,1,0,1","0,1,0,0,1,1,1,1,0","3",""
"","html-keyboard-response","322","403667","0.0-322.0","3EO896NRAXHJW6FOIP2YR86CZDHTJE","A1KD8SJ4EUQT1Q","3MXX6RQ9EVRTFC527Z18RDK8KW6P4R","","null","<img src=""img/flower6.png"" style=""width:200px; border:14px solid green;"">","null","","","","","","","","",""
"","image-keyboard-response","323","403750","0.0-323.0","3EO896NRAXHJW6FOIP2YR86CZDHTJE","A1KD8SJ4EUQT1Q","3MXX6RQ9EVRTFC527Z18RDK8KW6P4R","","81.09999990463257","img/flower6.png","75","82.19999980926514","2","1","3","2","1,0,0,1,1,0,1,0,1","0,1,0,0,1,1,1,1,0","3",""
"","html-keyboard-response","324","404051","0.0-324.0","3EO896NRAXHJW6FOIP2YR86CZDHTJE","A1KD8SJ4EUQT1Q","3MXX6RQ9EVRTFC527Z18RDK8KW6P4R","","null","<img src=""img/flower6.png"" style=""width:200px; border:14px solid green;"">","null","","","","","","","","",""
"","image-keyboard-response","325","404162","0.0-325.0","3EO896NRAXHJW6FOIP2YR86CZDHTJE","A1KD8SJ4EUQT1Q","3MXX6RQ9EVRTFC527Z18RDK8KW6P4R","","110.39999985694885","img/flower5.png","75","111.10000014305115","2","1","1","2","1,0,0,1,1,0,1,0,1","0,1,0,0,1,1,1,1,0","3",""
"","html-keyboard-response","326","404464","0.0-326.0","3EO896NRAXHJW6FOIP2YR86CZDHTJE","A1KD8SJ4EUQT1Q","3MXX6RQ9EVRTFC527Z18RDK8KW6P4R","","null","<img src=""img/flower5.png"" style=""width:200px; border:14px solid green;"">","null","","","","","","","","",""
"","image-keyboard-response","327","404563","0.0-327.0","3EO896NRAXHJW6FOIP2YR86CZDHTJE","A1KD8SJ4EUQT1Q","3MXX6RQ9EVRTFC527Z18RDK8KW6P4R","","97.79999995231628","img/flower5.png","75","98.29999995231628","2","1","1","2","1,0,0,1,1,0,1,0,1","0,1,0,0,1,1,1,1,0","3",""
"","html-keyboard-response","328","404864","0.0-328.0","3EO896NRAXHJW6FOIP2YR86CZDHTJE","A1KD8SJ4EUQT1Q","3MXX6RQ9EVRTFC527Z18RDK8KW6P4R","","null","<img src=""img/flower5.png"" style=""width:200px; border:14px solid green;"">","null","","","","","","","","",""
"","image-keyboard-response","329","404943","0.0-329.0","3EO896NRAXHJW6FOIP2YR86CZDHTJE","A1KD8SJ4EUQT1Q","3MXX6RQ9EVRTFC527Z18RDK8KW6P4R","","77.89999985694885","img/flower5.png","75","79.20000004768372","2","1","1","2","1,0,0,1,1,0,1,0,1","0,1,0,0,1,1,1,1,0","3",""
"","html-keyboard-response","330","405246","0.0-330.0","3EO896NRAXHJW6FOIP2YR86CZDHTJE","A1KD8SJ4EUQT1Q","3MXX6RQ9EVRTFC527Z18RDK8KW6P4R","","null","<img src=""img/flower5.png"" style=""width:200px; border:14px solid green;"">","null","","","","","","","","",""
"","image-keyboard-response","331","405355","0.0-331.0","3EO896NRAXHJW6FOIP2YR86CZDHTJE","A1KD8SJ4EUQT1Q","3MXX6RQ9EVRTFC527Z18RDK8KW6P4R","","107.5","img/flower4.png","75","108.79999995231628","2","1","2","2","1,0,0,1,1,0,1,0,1","0,1,0,0,1,1,1,1,0","3",""
"","html-keyboard-response","332","405657","0.0-332.0","3EO896NRAXHJW6FOIP2YR86CZDHTJE","A1KD8SJ4EUQT1Q","3MXX6RQ9EVRTFC527Z18RDK8KW6P4R","","null","<img src=""img/flower4.png"" style=""width:200px; border:14px solid green;"">","null","","","","","","","","",""
"","image-keyboard-response","333","405762","0.0-333.0","3EO896NRAXHJW6FOIP2YR86CZDHTJE","A1KD8SJ4EUQT1Q","3MXX6RQ9EVRTFC527Z18RDK8KW6P4R","","104.09999990463257","img/flower6.png","75","105.5","2","1","3","2","1,0,0,1,1,0,1,0,1","0,1,0,0,1,1,1,1,0","3",""
"","html-keyboard-response","334","406063","0.0-334.0","3EO896NRAXHJW6FOIP2YR86CZDHTJE","A1KD8SJ4EUQT1Q","3MXX6RQ9EVRTFC527Z18RDK8KW6P4R","","null","<img src=""img/flower6.png"" style=""width:200px; border:14px solid green;"">","null","","","","","","","","",""
"","image-keyboard-response","335","406161","0.0-335.0","3EO896NRAXHJW6FOIP2YR86CZDHTJE","A1KD8SJ4EUQT1Q","3MXX6RQ9EVRTFC527Z18RDK8KW6P4R","","96.20000004768372","img/flower5.png","75","97","2","1","1","2","1,0,0,1,1,0,1,0,1","0,1,0,0,1,1,1,1,0","3",""
"","html-keyboard-response","336","406463","0.0-336.0","3EO896NRAXHJW6FOIP2YR86CZDHTJE","A1KD8SJ4EUQT1Q","3MXX6RQ9EVRTFC527Z18RDK8KW6P4R","","null","<img src=""img/flower5.png"" style=""width:200px; border:14px solid green;"">","null","","","","","","","","",""
"","image-keyboard-response","337","406548","0.0-337.0","3EO896NRAXHJW6FOIP2YR86CZDHTJE","A1KD8SJ4EUQT1Q","3MXX6RQ9EVRTFC527Z18RDK8KW6P4R","","85.30000019073486","img/flower5.png","75","85.79999995231628","2","1","1","2","1,0,0,1,1,0,1,0,1","0,1,0,0,1,1,1,1,0","3",""
"","html-keyboard-response","338","406853","0.0-338.0","3EO896NRAXHJW6FOIP2YR86CZDHTJE","A1KD8SJ4EUQT1Q","3MXX6RQ9EVRTFC527Z18RDK8KW6P4R","","null","<img src=""img/flower5.png"" style=""width:200px; border:14px solid green;"">","null","","","","","","","","",""
"","image-keyboard-response","339","406948","0.0-339.0","3EO896NRAXHJW6FOIP2YR86CZDHTJE","A1KD8SJ4EUQT1Q","3MXX6RQ9EVRTFC527Z18RDK8KW6P4R","","93.30000019073486","img/flower5.png","75","94.60000014305115","2","1","1","2","1,0,0,1,1,0,1,0,1","0,1,0,0,1,1,1,1,0","3",""
"","html-keyboard-response","340","407251","0.0-340.0","3EO896NRAXHJW6FOIP2YR86CZDHTJE","A1KD8SJ4EUQT1Q","3MXX6RQ9EVRTFC527Z18RDK8KW6P4R","","null","<img src=""img/flower5.png"" style=""width:200px; border:14px solid green;"">","null","","","","","","","","",""
"","image-keyboard-response","341","407346","0.0-341.0","3EO896NRAXHJW6FOIP2YR86CZDHTJE","A1KD8SJ4EUQT1Q","3MXX6RQ9EVRTFC527Z18RDK8KW6P4R","","93.79999995231628","img/flower5.png","75","95","2","1","1","2","1,0,0,1,1,0,1,0,1","0,1,0,0,1,1,1,1,0","3",""
"","html-keyboard-response","342","407648","0.0-342.0","3EO896NRAXHJW6FOIP2YR86CZDHTJE","A1KD8SJ4EUQT1Q","3MXX6RQ9EVRTFC527Z18RDK8KW6P4R","","null","<img src=""img/flower5.png"" style=""width:200px; border:14px solid green;"">","null","","","","","","","","",""
"","image-keyboard-response","343","407725","0.0-343.0","3EO896NRAXHJW6FOIP2YR86CZDHTJE","A1KD8SJ4EUQT1Q","3MXX6RQ9EVRTFC527Z18RDK8KW6P4R","","76.70000004768372","img/flower6.png","75","77.29999995231628","2","1","3","2","1,0,0,1,1,0,1,0,1","0,1,0,0,1,1,1,1,0","3",""
"","html-keyboard-response","344","408028","0.0-344.0","3EO896NRAXHJW6FOIP2YR86CZDHTJE","A1KD8SJ4EUQT1Q","3MXX6RQ9EVRTFC527Z18RDK8KW6P4R","","null","<img src=""img/flower6.png"" style=""width:200px; border:14px solid green;"">","null","","","","","","","","",""
"","image-keyboard-response","345","408129","0.0-345.0","3EO896NRAXHJW6FOIP2YR86CZDHTJE","A1KD8SJ4EUQT1Q","3MXX6RQ9EVRTFC527Z18RDK8KW6P4R","","100","img/flower4.png","75","100.90000009536743","2","1","2","2","1,0,0,1,1,0,1,0,1","0,1,0,0,1,1,1,1,0","3",""
"","html-keyboard-response","346","408431","0.0-346.0","3EO896NRAXHJW6FOIP2YR86CZDHTJE","A1KD8SJ4EUQT1Q","3MXX6RQ9EVRTFC527Z18RDK8KW6P4R","","null","<img src=""img/flower4.png"" style=""width:200px; border:14px solid green;"">","null","","","","","","","","",""
"","image-keyboard-response","347","408537","0.0-347.0","3EO896NRAXHJW6FOIP2YR86CZDHTJE","A1KD8SJ4EUQT1Q","3MXX6RQ9EVRTFC527Z18RDK8KW6P4R","","105.20000004768372","img/flower4.png","75","106.5","2","1","2","2","1,0,0,1,1,0,1,0,1","0,1,0,0,1,1,1,1,0","3",""
"","html-keyboard-response","348","408839","0.0-348.0","3EO896NRAXHJW6FOIP2YR86CZDHTJE","A1KD8SJ4EUQT1Q","3MXX6RQ9EVRTFC527Z18RDK8KW6P4R","","null","<img src=""img/flower4.png"" style=""width:200px; border:14px solid green;"">","null","","","","","","","","",""
"","image-keyboard-response","349","408945","0.0-349.0","3EO896NRAXHJW6FOIP2YR86CZDHTJE","A1KD8SJ4EUQT1Q","3MXX6RQ9EVRTFC527Z18RDK8KW6P4R","","104.60000014305115","img/flower5.png","75","105.59999990463257","2","1","1","2","1,0,0,1,1,0,1,0,1","0,1,0,0,1,1,1,1,0","3",""
"","html-keyboard-response","350","409246","0.0-350.0","3EO896NRAXHJW6FOIP2YR86CZDHTJE","A1KD8SJ4EUQT1Q","3MXX6RQ9EVRTFC527Z18RDK8KW6P4R","","null","<img src=""img/flower5.png"" style=""width:200px; border:14px solid green;"">","null","","","","","","","","",""
"","image-keyboard-response","351","409349","0.0-351.0","3EO896NRAXHJW6FOIP2YR86CZDHTJE","A1KD8SJ4EUQT1Q","3MXX6RQ9EVRTFC527Z18RDK8KW6P4R","","101.29999995231628","img/flower4.png","75","102.5","2","1","2","2","1,0,0,1,1,0,1,0,1","0,1,0,0,1,1,1,1,0","3",""
"","html-keyboard-response","352","409651","0.0-352.0","3EO896NRAXHJW6FOIP2YR86CZDHTJE","A1KD8SJ4EUQT1Q","3MXX6RQ9EVRTFC527Z18RDK8KW6P4R","","null","<img src=""img/flower4.png"" style=""width:200px; border:14px solid green;"">","null","","","","","","","","",""
"","image-keyboard-response","353","409744","0.0-353.0","3EO896NRAXHJW6FOIP2YR86CZDHTJE","A1KD8SJ4EUQT1Q","3MXX6RQ9EVRTFC527Z18RDK8KW6P4R","","92.09999990463257","img/flower4.png","75","93.30000019073486","2","1","2","2","1,0,0,1,1,0,1,0,1","0,1,0,0,1,1,1,1,0","3",""
"","html-keyboard-response","354","410046","0.0-354.0","3EO896NRAXHJW6FOIP2YR86CZDHTJE","A1KD8SJ4EUQT1Q","3MXX6RQ9EVRTFC527Z18RDK8KW6P4R","","null","<img src=""img/flower4.png"" style=""width:200px; border:14px solid green;"">","null","","","","","","","","",""
"","image-keyboard-response","355","410150","0.0-355.0","3EO896NRAXHJW6FOIP2YR86CZDHTJE","A1KD8SJ4EUQT1Q","3MXX6RQ9EVRTFC527Z18RDK8KW6P4R","","102.39999985694885","img/flower6.png","75","103.40000009536743","2","1","3","2","1,0,0,1,1,0,1,0,1","0,1,0,0,1,1,1,1,0","3",""
"","html-keyboard-response","356","410451","0.0-356.0","3EO896NRAXHJW6FOIP2YR86CZDHTJE","A1KD8SJ4EUQT1Q","3MXX6RQ9EVRTFC527Z18RDK8KW6P4R","","null","<img src=""img/flower6.png"" style=""width:200px; border:14px solid green;"">","null","","","","","","","","",""
"","image-keyboard-response","357","410555","0.0-357.0","3EO896NRAXHJW6FOIP2YR86CZDHTJE","A1KD8SJ4EUQT1Q","3MXX6RQ9EVRTFC527Z18RDK8KW6P4R","","102.09999990463257","img/flower5.png","75","103.29999995231628","2","1","1","2","1,0,0,1,1,0,1,0,1","0,1,0,0,1,1,1,1,0","3",""
"","html-keyboard-response","358","410857","0.0-358.0","3EO896NRAXHJW6FOIP2YR86CZDHTJE","A1KD8SJ4EUQT1Q","3MXX6RQ9EVRTFC527Z18RDK8KW6P4R","","null","<img src=""img/flower5.png"" style=""width:200px; border:14px solid green;"">","null","","","","","","","","",""
"","image-keyboard-response","359","410953","0.0-359.0","3EO896NRAXHJW6FOIP2YR86CZDHTJE","A1KD8SJ4EUQT1Q","3MXX6RQ9EVRTFC527Z18RDK8KW6P4R","","95.20000004768372","img/flower6.png","75","96","2","1","3","2","1,0,0,1,1,0,1,0,1","0,1,0,0,1,1,1,1,0","3",""
"","html-keyboard-response","360","411255","0.0-360.0","3EO896NRAXHJW6FOIP2YR86CZDHTJE","A1KD8SJ4EUQT1Q","3MXX6RQ9EVRTFC527Z18RDK8KW6P4R","","null","<img src=""img/flower6.png"" style=""width:200px; border:14px solid green;"">","null","","","","","","","","",""
"","image-keyboard-response","361","411347","0.0-361.0","3EO896NRAXHJW6FOIP2YR86CZDHTJE","A1KD8SJ4EUQT1Q","3MXX6RQ9EVRTFC527Z18RDK8KW6P4R","","90.79999995231628","img/flower5.png","75","92.19999980926514","2","1","1","2","1,0,0,1,1,0,1,0,1","0,1,0,0,1,1,1,1,0","3",""
"","html-keyboard-response","362","411649","0.0-362.0","3EO896NRAXHJW6FOIP2YR86CZDHTJE","A1KD8SJ4EUQT1Q","3MXX6RQ9EVRTFC527Z18RDK8KW6P4R","","null","<img src=""img/flower5.png"" style=""width:200px; border:14px solid green;"">","null","","","","","","","","",""
