"success","trial_type","trial_index","time_elapsed","internal_node_id","assignmentID","mturkID","hitID","view_history","rt","stimulus","key_press","reactionTime","a","r","s","cond","reward_cond","reward_cond_actual","reward_matrix_idx","responses"
"true","fullscreen","0","3121","0.0-0.0","32Q90QCQ1T7CI739AFDFT16OBXXKER","A1MTQP7TA5RCOB","3XT3KXP24ZKFDDMCDS43FE3AU9W6IW","","","","","","","","","","","","",""
"","instructions","1","36347","0.0-1.0","32Q90QCQ1T7CI739AFDFT16OBXXKER","A1MTQP7TA5RCOB","3XT3KXP24ZKFDDMCDS43FE3AU9W6IW","[{""page_index"":0,""viewing_time"":3444},{""page_index"":1,""viewing_time"":1398},{""page_index"":2,""viewing_time"":1433},{""page_index"":3,""viewing_time"":2142},{""page_index"":2,""viewing_time"":4740},{""page_index"":3,""viewing_time"":3035},{""page_index"":4,""viewing_time"":5029},{""page_index"":5,""viewing_time"":5709},{""page_index"":6,""viewing_time"":3034},{""page_index"":7,""viewing_time"":3260}]","33225","","","","","","","","","","",""
"","image-keyboard-response","2","37254","0.0-2.0","32Q90QCQ1T7CI739AFDFT16OBXXKER","A1MTQP7TA5RCOB","3XT3KXP24ZKFDDMCDS43FE3AU9W6IW","","905","img/flower4.png","76","905","3","0","3","2","1,0,0,1,1,0,1,0,1","0,1,0,0,1,1,1,1,0","3",""
"","html-keyboard-response","3","37556","0.0-3.0","32Q90QCQ1T7CI739AFDFT16OBXXKER","A1MTQP7TA5RCOB","3XT3KXP24ZKFDDMCDS43FE3AU9W6IW","","null","<img src=""img/flower4.png"" style=""width:200px;border:14px solid red;"">","null","","","","","","","","",""
"","image-keyboard-response","4","38749","0.0-4.0","32Q90QCQ1T7CI739AFDFT16OBXXKER","A1MTQP7TA5RCOB","3XT3KXP24ZKFDDMCDS43FE3AU9W6IW","","1193","img/flower1.png","75","1193","2","1","2","2","1,0,0,1,1,0,1,0,1","0,1,0,0,1,1,1,1,0","3",""
"","html-keyboard-response","5","39051","0.0-5.0","32Q90QCQ1T7CI739AFDFT16OBXXKER","A1MTQP7TA5RCOB","3XT3KXP24ZKFDDMCDS43FE3AU9W6IW","","null","<img src=""img/flower1.png"" style=""width:200px; border:14px solid green;"">","null","","","","","","","","",""
"","image-keyboard-response","6","40197","0.0-6.0","32Q90QCQ1T7CI739AFDFT16OBXXKER","A1MTQP7TA5RCOB","3XT3KXP24ZKFDDMCDS43FE3AU9W6IW","","1146","img/flower6.png","74","1146","1","0","1","2","1,0,0,1,1,0,1,0,1","0,1,0,0,1,1,1,1,0","3",""
"","html-keyboard-response","7","40499","0.0-7.0","32Q90QCQ1T7CI739AFDFT16OBXXKER","A1MTQP7TA5RCOB","3XT3KXP24ZKFDDMCDS43FE3AU9W6IW","","null","<img src=""img/flower6.png"" style=""width:200px;border:14px solid red;"">","null","","","","","","","","",""
"","image-keyboard-response","8","41453","0.0-8.0","32Q90QCQ1T7CI739AFDFT16OBXXKER","A1MTQP7TA5RCOB","3XT3KXP24ZKFDDMCDS43FE3AU9W6IW","","954","img/flower4.png","75","955","2","1","3","2","1,0,0,1,1,0,1,0,1","0,1,0,0,1,1,1,1,0","3",""
"","html-keyboard-response","9","41754","0.0-9.0","32Q90QCQ1T7CI739AFDFT16OBXXKER","A1MTQP7TA5RCOB","3XT3KXP24ZKFDDMCDS43FE3AU9W6IW","","null","<img src=""img/flower4.png"" style=""width:200px; border:14px solid green;"">","null","","","","","","","","",""
"","image-keyboard-response","10","42469","0.0-10.0","32Q90QCQ1T7CI739AFDFT16OBXXKER","A1MTQP7TA5RCOB","3XT3KXP24ZKFDDMCDS43FE3AU9W6IW","","713","img/flower4.png","75","715","2","1","3","2","1,0,0,1,1,0,1,0,1","0,1,0,0,1,1,1,1,0","3",""
"","html-keyboard-response","11","42771","0.0-11.0","32Q90QCQ1T7CI739AFDFT16OBXXKER","A1MTQP7TA5RCOB","3XT3KXP24ZKFDDMCDS43FE3AU9W6IW","","null","<img src=""img/flower4.png"" style=""width:200px; border:14px solid green;"">","null","","","","","","","","",""
"","image-keyboard-response","12","43397","0.0-12.0","32Q90QCQ1T7CI739AFDFT16OBXXKER","A1MTQP7TA5RCOB","3XT3KXP24ZKFDDMCDS43FE3AU9W6IW","","626","img/flower4.png","75","627","2","1","3","2","1,0,0,1,1,0,1,0,1","0,1,0,0,1,1,1,1,0","3",""
"","html-keyboard-response","13","43699","0.0-13.0","32Q90QCQ1T7CI739AFDFT16OBXXKER","A1MTQP7TA5RCOB","3XT3KXP24ZKFDDMCDS43FE3AU9W6IW","","null","<img src=""img/flower4.png"" style=""width:200px; border:14px solid green;"">","null","","","","","","","","",""
"","image-keyboard-response","14","44797","0.0-14.0","32Q90QCQ1T7CI739AFDFT16OBXXKER","A1MTQP7TA5RCOB","3XT3KXP24ZKFDDMCDS43FE3AU9W6IW","","1098","img/flower1.png","76","1098","3","1","2","2","1,0,0,1,1,0,1,0,1","0,1,0,0,1,1,1,1,0","3",""
"","html-keyboard-response","15","45099","0.0-15.0","32Q90QCQ1T7CI739AFDFT16OBXXKER","A1MTQP7TA5RCOB","3XT3KXP24ZKFDDMCDS43FE3AU9W6IW","","null","<img src=""img/flower1.png"" style=""width:200px; border:14px solid green;"">","null","","","","","","","","",""
"","image-keyboard-response","16","45645","0.0-16.0","32Q90QCQ1T7CI739AFDFT16OBXXKER","A1MTQP7TA5RCOB","3XT3KXP24ZKFDDMCDS43FE3AU9W6IW","","546","img/flower4.png","75","546","2","1","3","2","1,0,0,1,1,0,1,0,1","0,1,0,0,1,1,1,1,0","3",""
"","html-keyboard-response","17","45947","0.0-17.0","32Q90QCQ1T7CI739AFDFT16OBXXKER","A1MTQP7TA5RCOB","3XT3KXP24ZKFDDMCDS43FE3AU9W6IW","","null","<img src=""img/flower4.png"" style=""width:200px; border:14px solid green;"">","null","","","","","","","","",""
"","image-keyboard-response","18","47325","0.0-18.0","32Q90QCQ1T7CI739AFDFT16OBXXKER","A1MTQP7TA5RCOB","3XT3KXP24ZKFDDMCDS43FE3AU9W6IW","","1378","img/flower6.png","74","1379","1","0","1","2","1,0,0,1,1,0,1,0,1","0,1,0,0,1,1,1,1,0","3",""
"","html-keyboard-response","19","47627","0.0-19.0","32Q90QCQ1T7CI739AFDFT16OBXXKER","A1MTQP7TA5RCOB","3XT3KXP24ZKFDDMCDS43FE3AU9W6IW","","null","<img src=""img/flower6.png"" style=""width:200px;border:14px solid red;"">","null","","","","","","","","",""
"","image-keyboard-response","20","48101","0.0-20.0","32Q90QCQ1T7CI739AFDFT16OBXXKER","A1MTQP7TA5RCOB","3XT3KXP24ZKFDDMCDS43FE3AU9W6IW","","473","img/flower6.png","75","474","2","1","1","2","1,0,0,1,1,0,1,0,1","0,1,0,0,1,1,1,1,0","3",""
"","html-keyboard-response","21","48403","0.0-21.0","32Q90QCQ1T7CI739AFDFT16OBXXKER","A1MTQP7TA5RCOB","3XT3KXP24ZKFDDMCDS43FE3AU9W6IW","","null","<img src=""img/flower6.png"" style=""width:200px; border:14px solid green;"">","null","","","","","","","","",""
"","image-keyboard-response","22","49325","0.0-22.0","32Q90QCQ1T7CI739AFDFT16OBXXKER","A1MTQP7TA5RCOB","3XT3KXP24ZKFDDMCDS43FE3AU9W6IW","","921","img/flower1.png","76","922","3","1","2","2","1,0,0,1,1,0,1,0,1","0,1,0,0,1,1,1,1,0","3",""
"","html-keyboard-response","23","49627","0.0-23.0","32Q90QCQ1T7CI739AFDFT16OBXXKER","A1MTQP7TA5RCOB","3XT3KXP24ZKFDDMCDS43FE3AU9W6IW","","null","<img src=""img/flower1.png"" style=""width:200px; border:14px solid green;"">","null","","","","","","","","",""
"","image-keyboard-response","24","50590","0.0-24.0","32Q90QCQ1T7CI739AFDFT16OBXXKER","A1MTQP7TA5RCOB","3XT3KXP24ZKFDDMCDS43FE3AU9W6IW","","961","img/flower4.png","75","962","2","1","3","2","1,0,0,1,1,0,1,0,1","0,1,0,0,1,1,1,1,0","3",""
"","html-keyboard-response","25","50891","0.0-25.0","32Q90QCQ1T7CI739AFDFT16OBXXKER","A1MTQP7TA5RCOB","3XT3KXP24ZKFDDMCDS43FE3AU9W6IW","","null","<img src=""img/flower4.png"" style=""width:200px; border:14px solid green;"">","null","","","","","","","","",""
"","image-keyboard-response","26","51710","0.0-26.0","32Q90QCQ1T7CI739AFDFT16OBXXKER","A1MTQP7TA5RCOB","3XT3KXP24ZKFDDMCDS43FE3AU9W6IW","","818","img/flower6.png","74","818","1","0","1","2","1,0,0,1,1,0,1,0,1","0,1,0,0,1,1,1,1,0","3",""
"","html-keyboard-response","27","52011","0.0-27.0","32Q90QCQ1T7CI739AFDFT16OBXXKER","A1MTQP7TA5RCOB","3XT3KXP24ZKFDDMCDS43FE3AU9W6IW","","null","<img src=""img/flower6.png"" style=""width:200px;border:14px solid red;"">","null","","","","","","","","",""
"","image-keyboard-response","28","52742","0.0-28.0","32Q90QCQ1T7CI739AFDFT16OBXXKER","A1MTQP7TA5RCOB","3XT3KXP24ZKFDDMCDS43FE3AU9W6IW","","730","img/flower6.png","75","731","2","1","1","2","1,0,0,1,1,0,1,0,1","0,1,0,0,1,1,1,1,0","3",""
"","html-keyboard-response","29","53044","0.0-29.0","32Q90QCQ1T7CI739AFDFT16OBXXKER","A1MTQP7TA5RCOB","3XT3KXP24ZKFDDMCDS43FE3AU9W6IW","","null","<img src=""img/flower6.png"" style=""width:200px; border:14px solid green;"">","null","","","","","","","","",""
"","image-keyboard-response","30","54302","0.0-30.0","32Q90QCQ1T7CI739AFDFT16OBXXKER","A1MTQP7TA5RCOB","3XT3KXP24ZKFDDMCDS43FE3AU9W6IW","","1259","img/flower1.png","76","1259","3","1","2","2","1,0,0,1,1,0,1,0,1","0,1,0,0,1,1,1,1,0","3",""
"","html-keyboard-response","31","54603","0.0-31.0","32Q90QCQ1T7CI739AFDFT16OBXXKER","A1MTQP7TA5RCOB","3XT3KXP24ZKFDDMCDS43FE3AU9W6IW","","null","<img src=""img/flower1.png"" style=""width:200px; border:14px solid green;"">","null","","","","","","","","",""
"","image-keyboard-response","32","55782","0.0-32.0","32Q90QCQ1T7CI739AFDFT16OBXXKER","A1MTQP7TA5RCOB","3XT3KXP24ZKFDDMCDS43FE3AU9W6IW","","1178","img/flower4.png","75","1178","2","1","3","2","1,0,0,1,1,0,1,0,1","0,1,0,0,1,1,1,1,0","3",""
"","html-keyboard-response","33","56083","0.0-33.0","32Q90QCQ1T7CI739AFDFT16OBXXKER","A1MTQP7TA5RCOB","3XT3KXP24ZKFDDMCDS43FE3AU9W6IW","","null","<img src=""img/flower4.png"" style=""width:200px; border:14px solid green;"">","null","","","","","","","","",""
"","image-keyboard-response","34","56877","0.0-34.0","32Q90QCQ1T7CI739AFDFT16OBXXKER","A1MTQP7TA5RCOB","3XT3KXP24ZKFDDMCDS43FE3AU9W6IW","","793","img/flower1.png","76","794","3","1","2","2","1,0,0,1,1,0,1,0,1","0,1,0,0,1,1,1,1,0","3",""
"","html-keyboard-response","35","57179","0.0-35.0","32Q90QCQ1T7CI739AFDFT16OBXXKER","A1MTQP7TA5RCOB","3XT3KXP24ZKFDDMCDS43FE3AU9W6IW","","null","<img src=""img/flower1.png"" style=""width:200px; border:14px solid green;"">","null","","","","","","","","",""
"","image-keyboard-response","36","58213","0.0-36.0","32Q90QCQ1T7CI739AFDFT16OBXXKER","A1MTQP7TA5RCOB","3XT3KXP24ZKFDDMCDS43FE3AU9W6IW","","1033","img/flower6.png","76","1033","3","0","1","2","1,0,0,1,1,0,1,0,1","0,1,0,0,1,1,1,1,0","3",""
"","html-keyboard-response","37","58515","0.0-37.0","32Q90QCQ1T7CI739AFDFT16OBXXKER","A1MTQP7TA5RCOB","3XT3KXP24ZKFDDMCDS43FE3AU9W6IW","","null","<img src=""img/flower6.png"" style=""width:200px;border:14px solid red;"">","null","","","","","","","","",""
"","image-keyboard-response","38","59013","0.0-38.0","32Q90QCQ1T7CI739AFDFT16OBXXKER","A1MTQP7TA5RCOB","3XT3KXP24ZKFDDMCDS43FE3AU9W6IW","","498","img/flower4.png","75","498","2","1","3","2","1,0,0,1,1,0,1,0,1","0,1,0,0,1,1,1,1,0","3",""
"","html-keyboard-response","39","59315","0.0-39.0","32Q90QCQ1T7CI739AFDFT16OBXXKER","A1MTQP7TA5RCOB","3XT3KXP24ZKFDDMCDS43FE3AU9W6IW","","null","<img src=""img/flower4.png"" style=""width:200px; border:14px solid green;"">","null","","","","","","","","",""
"","image-keyboard-response","40","60158","0.0-40.0","32Q90QCQ1T7CI739AFDFT16OBXXKER","A1MTQP7TA5RCOB","3XT3KXP24ZKFDDMCDS43FE3AU9W6IW","","842","img/flower1.png","76","842","3","1","2","2","1,0,0,1,1,0,1,0,1","0,1,0,0,1,1,1,1,0","3",""
"","html-keyboard-response","41","60460","0.0-41.0","32Q90QCQ1T7CI739AFDFT16OBXXKER","A1MTQP7TA5RCOB","3XT3KXP24ZKFDDMCDS43FE3AU9W6IW","","null","<img src=""img/flower1.png"" style=""width:200px; border:14px solid green;"">","null","","","","","","","","",""
"","image-keyboard-response","42","61415","0.0-42.0","32Q90QCQ1T7CI739AFDFT16OBXXKER","A1MTQP7TA5RCOB","3XT3KXP24ZKFDDMCDS43FE3AU9W6IW","","954","img/flower6.png","75","955","2","1","1","2","1,0,0,1,1,0,1,0,1","0,1,0,0,1,1,1,1,0","3",""
"","html-keyboard-response","43","61716","0.0-43.0","32Q90QCQ1T7CI739AFDFT16OBXXKER","A1MTQP7TA5RCOB","3XT3KXP24ZKFDDMCDS43FE3AU9W6IW","","null","<img src=""img/flower6.png"" style=""width:200px; border:14px solid green;"">","null","","","","","","","","",""
"","image-keyboard-response","44","62238","0.0-44.0","32Q90QCQ1T7CI739AFDFT16OBXXKER","A1MTQP7TA5RCOB","3XT3KXP24ZKFDDMCDS43FE3AU9W6IW","","521","img/flower1.png","76","521","3","1","2","2","1,0,0,1,1,0,1,0,1","0,1,0,0,1,1,1,1,0","3",""
"","html-keyboard-response","45","62540","0.0-45.0","32Q90QCQ1T7CI739AFDFT16OBXXKER","A1MTQP7TA5RCOB","3XT3KXP24ZKFDDMCDS43FE3AU9W6IW","","null","<img src=""img/flower1.png"" style=""width:200px; border:14px solid green;"">","null","","","","","","","","",""
"","image-keyboard-response","46","63910","0.0-46.0","32Q90QCQ1T7CI739AFDFT16OBXXKER","A1MTQP7TA5RCOB","3XT3KXP24ZKFDDMCDS43FE3AU9W6IW","","1369","img/flower6.png","74","1369","1","0","1","2","1,0,0,1,1,0,1,0,1","0,1,0,0,1,1,1,1,0","3",""
"","html-keyboard-response","47","64216","0.0-47.0","32Q90QCQ1T7CI739AFDFT16OBXXKER","A1MTQP7TA5RCOB","3XT3KXP24ZKFDDMCDS43FE3AU9W6IW","","null","<img src=""img/flower6.png"" style=""width:200px;border:14px solid red;"">","null","","","","","","","","",""
"","image-keyboard-response","48","64630","0.0-48.0","32Q90QCQ1T7CI739AFDFT16OBXXKER","A1MTQP7TA5RCOB","3XT3KXP24ZKFDDMCDS43FE3AU9W6IW","","413","img/flower1.png","75","413","2","1","2","2","1,0,0,1,1,0,1,0,1","0,1,0,0,1,1,1,1,0","3",""
"","html-keyboard-response","49","64931","0.0-49.0","32Q90QCQ1T7CI739AFDFT16OBXXKER","A1MTQP7TA5RCOB","3XT3KXP24ZKFDDMCDS43FE3AU9W6IW","","null","<img src=""img/flower1.png"" style=""width:200px; border:14px solid green;"">","null","","","","","","","","",""
"","image-keyboard-response","50","66078","0.0-50.0","32Q90QCQ1T7CI739AFDFT16OBXXKER","A1MTQP7TA5RCOB","3XT3KXP24ZKFDDMCDS43FE3AU9W6IW","","1146","img/flower6.png","76","1147","3","0","1","2","1,0,0,1,1,0,1,0,1","0,1,0,0,1,1,1,1,0","3",""
"","html-keyboard-response","51","66380","0.0-51.0","32Q90QCQ1T7CI739AFDFT16OBXXKER","A1MTQP7TA5RCOB","3XT3KXP24ZKFDDMCDS43FE3AU9W6IW","","null","<img src=""img/flower6.png"" style=""width:200px;border:14px solid red;"">","null","","","","","","","","",""
"","image-keyboard-response","52","66862","0.0-52.0","32Q90QCQ1T7CI739AFDFT16OBXXKER","A1MTQP7TA5RCOB","3XT3KXP24ZKFDDMCDS43FE3AU9W6IW","","481","img/flower4.png","75","482","2","1","3","2","1,0,0,1,1,0,1,0,1","0,1,0,0,1,1,1,1,0","3",""
"","html-keyboard-response","53","67164","0.0-53.0","32Q90QCQ1T7CI739AFDFT16OBXXKER","A1MTQP7TA5RCOB","3XT3KXP24ZKFDDMCDS43FE3AU9W6IW","","null","<img src=""img/flower4.png"" style=""width:200px; border:14px solid green;"">","null","","","","","","","","",""
"","image-keyboard-response","54","67821","0.0-54.0","32Q90QCQ1T7CI739AFDFT16OBXXKER","A1MTQP7TA5RCOB","3XT3KXP24ZKFDDMCDS43FE3AU9W6IW","","656","img/flower1.png","75","658","2","1","2","2","1,0,0,1,1,0,1,0,1","0,1,0,0,1,1,1,1,0","3",""
"","html-keyboard-response","55","68123","0.0-55.0","32Q90QCQ1T7CI739AFDFT16OBXXKER","A1MTQP7TA5RCOB","3XT3KXP24ZKFDDMCDS43FE3AU9W6IW","","null","<img src=""img/flower1.png"" style=""width:200px; border:14px solid green;"">","null","","","","","","","","",""
"","image-keyboard-response","56","68773","0.0-56.0","32Q90QCQ1T7CI739AFDFT16OBXXKER","A1MTQP7TA5RCOB","3XT3KXP24ZKFDDMCDS43FE3AU9W6IW","","649","img/flower1.png","75","649","2","1","2","2","1,0,0,1,1,0,1,0,1","0,1,0,0,1,1,1,1,0","3",""
"","html-keyboard-response","57","69075","0.0-57.0","32Q90QCQ1T7CI739AFDFT16OBXXKER","A1MTQP7TA5RCOB","3XT3KXP24ZKFDDMCDS43FE3AU9W6IW","","null","<img src=""img/flower1.png"" style=""width:200px; border:14px solid green;"">","null","","","","","","","","",""
"","image-keyboard-response","58","70061","0.0-58.0","32Q90QCQ1T7CI739AFDFT16OBXXKER","A1MTQP7TA5RCOB","3XT3KXP24ZKFDDMCDS43FE3AU9W6IW","","985","img/flower4.png","76","986","3","0","3","2","1,0,0,1,1,0,1,0,1","0,1,0,0,1,1,1,1,0","3",""
"","html-keyboard-response","59","70363","0.0-59.0","32Q90QCQ1T7CI739AFDFT16OBXXKER","A1MTQP7TA5RCOB","3XT3KXP24ZKFDDMCDS43FE3AU9W6IW","","null","<img src=""img/flower4.png"" style=""width:200px;border:14px solid red;"">","null","","","","","","","","",""
"","image-keyboard-response","60","71494","0.0-60.0","32Q90QCQ1T7CI739AFDFT16OBXXKER","A1MTQP7TA5RCOB","3XT3KXP24ZKFDDMCDS43FE3AU9W6IW","","1130","img/flower6.png","76","1131","3","0","1","2","1,0,0,1,1,0,1,0,1","0,1,0,0,1,1,1,1,0","3",""
"","html-keyboard-response","61","71796","0.0-61.0","32Q90QCQ1T7CI739AFDFT16OBXXKER","A1MTQP7TA5RCOB","3XT3KXP24ZKFDDMCDS43FE3AU9W6IW","","null","<img src=""img/flower6.png"" style=""width:200px;border:14px solid red;"">","null","","","","","","","","",""
"","image-keyboard-response","62","72366","0.0-62.0","32Q90QCQ1T7CI739AFDFT16OBXXKER","A1MTQP7TA5RCOB","3XT3KXP24ZKFDDMCDS43FE3AU9W6IW","","569","img/flower6.png","76","569","3","0","1","2","1,0,0,1,1,0,1,0,1","0,1,0,0,1,1,1,1,0","3",""
"","html-keyboard-response","63","72668","0.0-63.0","32Q90QCQ1T7CI739AFDFT16OBXXKER","A1MTQP7TA5RCOB","3XT3KXP24ZKFDDMCDS43FE3AU9W6IW","","null","<img src=""img/flower6.png"" style=""width:200px;border:14px solid red;"">","null","","","","","","","","",""
"","image-keyboard-response","64","73502","0.0-64.0","32Q90QCQ1T7CI739AFDFT16OBXXKER","A1MTQP7TA5RCOB","3XT3KXP24ZKFDDMCDS43FE3AU9W6IW","","833","img/flower1.png","75","834","2","1","2","2","1,0,0,1,1,0,1,0,1","0,1,0,0,1,1,1,1,0","3",""
"","html-keyboard-response","65","73804","0.0-65.0","32Q90QCQ1T7CI739AFDFT16OBXXKER","A1MTQP7TA5RCOB","3XT3KXP24ZKFDDMCDS43FE3AU9W6IW","","null","<img src=""img/flower1.png"" style=""width:200px; border:14px solid green;"">","null","","","","","","","","",""
"","image-keyboard-response","66","74678","0.0-66.0","32Q90QCQ1T7CI739AFDFT16OBXXKER","A1MTQP7TA5RCOB","3XT3KXP24ZKFDDMCDS43FE3AU9W6IW","","873","img/flower4.png","76","873","3","0","3","2","1,0,0,1,1,0,1,0,1","0,1,0,0,1,1,1,1,0","3",""
"","html-keyboard-response","67","74979","0.0-67.0","32Q90QCQ1T7CI739AFDFT16OBXXKER","A1MTQP7TA5RCOB","3XT3KXP24ZKFDDMCDS43FE3AU9W6IW","","null","<img src=""img/flower4.png"" style=""width:200px;border:14px solid red;"">","null","","","","","","","","",""
"","image-keyboard-response","68","75846","0.0-68.0","32Q90QCQ1T7CI739AFDFT16OBXXKER","A1MTQP7TA5RCOB","3XT3KXP24ZKFDDMCDS43FE3AU9W6IW","","865","img/flower1.png","75","866","2","1","2","2","1,0,0,1,1,0,1,0,1","0,1,0,0,1,1,1,1,0","3",""
"","html-keyboard-response","69","76148","0.0-69.0","32Q90QCQ1T7CI739AFDFT16OBXXKER","A1MTQP7TA5RCOB","3XT3KXP24ZKFDDMCDS43FE3AU9W6IW","","null","<img src=""img/flower1.png"" style=""width:200px; border:14px solid green;"">","null","","","","","","","","",""
"","image-keyboard-response","70","76838","0.0-70.0","32Q90QCQ1T7CI739AFDFT16OBXXKER","A1MTQP7TA5RCOB","3XT3KXP24ZKFDDMCDS43FE3AU9W6IW","","690","img/flower1.png","75","690","2","1","2","2","1,0,0,1,1,0,1,0,1","0,1,0,0,1,1,1,1,0","3",""
"","html-keyboard-response","71","77140","0.0-71.0","32Q90QCQ1T7CI739AFDFT16OBXXKER","A1MTQP7TA5RCOB","3XT3KXP24ZKFDDMCDS43FE3AU9W6IW","","null","<img src=""img/flower1.png"" style=""width:200px; border:14px solid green;"">","null","","","","","","","","",""
"","image-keyboard-response","72","78422","0.0-72.0","32Q90QCQ1T7CI739AFDFT16OBXXKER","A1MTQP7TA5RCOB","3XT3KXP24ZKFDDMCDS43FE3AU9W6IW","","1281","img/flower6.png","76","1281","3","0","1","2","1,0,0,1,1,0,1,0,1","0,1,0,0,1,1,1,1,0","3",""
"","html-keyboard-response","73","78724","0.0-73.0","32Q90QCQ1T7CI739AFDFT16OBXXKER","A1MTQP7TA5RCOB","3XT3KXP24ZKFDDMCDS43FE3AU9W6IW","","null","<img src=""img/flower6.png"" style=""width:200px;border:14px solid red;"">","null","","","","","","","","",""
"","image-keyboard-response","74","79486","0.0-74.0","32Q90QCQ1T7CI739AFDFT16OBXXKER","A1MTQP7TA5RCOB","3XT3KXP24ZKFDDMCDS43FE3AU9W6IW","","763","img/flower6.png","75","763","2","1","1","2","1,0,0,1,1,0,1,0,1","0,1,0,0,1,1,1,1,0","3",""
"","html-keyboard-response","75","79788","0.0-75.0","32Q90QCQ1T7CI739AFDFT16OBXXKER","A1MTQP7TA5RCOB","3XT3KXP24ZKFDDMCDS43FE3AU9W6IW","","null","<img src=""img/flower6.png"" style=""width:200px; border:14px solid green;"">","null","","","","","","","","",""
"","image-keyboard-response","76","80878","0.0-76.0","32Q90QCQ1T7CI739AFDFT16OBXXKER","A1MTQP7TA5RCOB","3XT3KXP24ZKFDDMCDS43FE3AU9W6IW","","1090","img/flower4.png","75","1091","2","1","3","2","1,0,0,1,1,0,1,0,1","0,1,0,0,1,1,1,1,0","3",""
"","html-keyboard-response","77","81180","0.0-77.0","32Q90QCQ1T7CI739AFDFT16OBXXKER","A1MTQP7TA5RCOB","3XT3KXP24ZKFDDMCDS43FE3AU9W6IW","","null","<img src=""img/flower4.png"" style=""width:200px; border:14px solid green;"">","null","","","","","","","","",""
"","image-keyboard-response","78","81878","0.0-78.0","32Q90QCQ1T7CI739AFDFT16OBXXKER","A1MTQP7TA5RCOB","3XT3KXP24ZKFDDMCDS43FE3AU9W6IW","","697","img/flower1.png","76","697","3","1","2","2","1,0,0,1,1,0,1,0,1","0,1,0,0,1,1,1,1,0","3",""
"","html-keyboard-response","79","82179","0.0-79.0","32Q90QCQ1T7CI739AFDFT16OBXXKER","A1MTQP7TA5RCOB","3XT3KXP24ZKFDDMCDS43FE3AU9W6IW","","null","<img src=""img/flower1.png"" style=""width:200px; border:14px solid green;"">","null","","","","","","","","",""
"","image-keyboard-response","80","83006","0.0-80.0","32Q90QCQ1T7CI739AFDFT16OBXXKER","A1MTQP7TA5RCOB","3XT3KXP24ZKFDDMCDS43FE3AU9W6IW","","825","img/flower6.png","75","825","2","1","1","2","1,0,0,1,1,0,1,0,1","0,1,0,0,1,1,1,1,0","3",""
"","html-keyboard-response","81","83307","0.0-81.0","32Q90QCQ1T7CI739AFDFT16OBXXKER","A1MTQP7TA5RCOB","3XT3KXP24ZKFDDMCDS43FE3AU9W6IW","","null","<img src=""img/flower6.png"" style=""width:200px; border:14px solid green;"">","null","","","","","","","","",""
"","image-keyboard-response","82","83806","0.0-82.0","32Q90QCQ1T7CI739AFDFT16OBXXKER","A1MTQP7TA5RCOB","3XT3KXP24ZKFDDMCDS43FE3AU9W6IW","","498","img/flower6.png","76","499","3","0","1","2","1,0,0,1,1,0,1,0,1","0,1,0,0,1,1,1,1,0","3",""
"","html-keyboard-response","83","84108","0.0-83.0","32Q90QCQ1T7CI739AFDFT16OBXXKER","A1MTQP7TA5RCOB","3XT3KXP24ZKFDDMCDS43FE3AU9W6IW","","null","<img src=""img/flower6.png"" style=""width:200px;border:14px solid red;"">","null","","","","","","","","",""
"","image-keyboard-response","84","84750","0.0-84.0","32Q90QCQ1T7CI739AFDFT16OBXXKER","A1MTQP7TA5RCOB","3XT3KXP24ZKFDDMCDS43FE3AU9W6IW","","642","img/flower1.png","75","642","2","1","2","2","1,0,0,1,1,0,1,0,1","0,1,0,0,1,1,1,1,0","3",""
"","html-keyboard-response","85","85052","0.0-85.0","32Q90QCQ1T7CI739AFDFT16OBXXKER","A1MTQP7TA5RCOB","3XT3KXP24ZKFDDMCDS43FE3AU9W6IW","","null","<img src=""img/flower1.png"" style=""width:200px; border:14px solid green;"">","null","","","","","","","","",""
"","image-keyboard-response","86","85782","0.0-86.0","32Q90QCQ1T7CI739AFDFT16OBXXKER","A1MTQP7TA5RCOB","3XT3KXP24ZKFDDMCDS43FE3AU9W6IW","","730","img/flower6.png","75","730","2","1","1","2","1,0,0,1,1,0,1,0,1","0,1,0,0,1,1,1,1,0","3",""
"","html-keyboard-response","87","86084","0.0-87.0","32Q90QCQ1T7CI739AFDFT16OBXXKER","A1MTQP7TA5RCOB","3XT3KXP24ZKFDDMCDS43FE3AU9W6IW","","null","<img src=""img/flower6.png"" style=""width:200px; border:14px solid green;"">","null","","","","","","","","",""
"","image-keyboard-response","88","86718","0.0-88.0","32Q90QCQ1T7CI739AFDFT16OBXXKER","A1MTQP7TA5RCOB","3XT3KXP24ZKFDDMCDS43FE3AU9W6IW","","633","img/flower4.png","75","634","2","1","3","2","1,0,0,1,1,0,1,0,1","0,1,0,0,1,1,1,1,0","3",""
"","html-keyboard-response","89","87019","0.0-89.0","32Q90QCQ1T7CI739AFDFT16OBXXKER","A1MTQP7TA5RCOB","3XT3KXP24ZKFDDMCDS43FE3AU9W6IW","","null","<img src=""img/flower4.png"" style=""width:200px; border:14px solid green;"">","null","","","","","","","","",""
"","image-keyboard-response","90","87590","0.0-90.0","32Q90QCQ1T7CI739AFDFT16OBXXKER","A1MTQP7TA5RCOB","3XT3KXP24ZKFDDMCDS43FE3AU9W6IW","","570","img/flower4.png","75","571","2","1","3","2","1,0,0,1,1,0,1,0,1","0,1,0,0,1,1,1,1,0","3",""
"","html-keyboard-response","91","87892","0.0-91.0","32Q90QCQ1T7CI739AFDFT16OBXXKER","A1MTQP7TA5RCOB","3XT3KXP24ZKFDDMCDS43FE3AU9W6IW","","null","<img src=""img/flower4.png"" style=""width:200px; border:14px solid green;"">","null","","","","","","","","",""
"","image-keyboard-response","92","88517","0.0-92.0","32Q90QCQ1T7CI739AFDFT16OBXXKER","A1MTQP7TA5RCOB","3XT3KXP24ZKFDDMCDS43FE3AU9W6IW","","626","img/flower1.png","76","626","3","1","2","2","1,0,0,1,1,0,1,0,1","0,1,0,0,1,1,1,1,0","3",""
"","html-keyboard-response","93","88820","0.0-93.0","32Q90QCQ1T7CI739AFDFT16OBXXKER","A1MTQP7TA5RCOB","3XT3KXP24ZKFDDMCDS43FE3AU9W6IW","","null","<img src=""img/flower1.png"" style=""width:200px; border:14px solid green;"">","null","","","","","","","","",""
"","image-keyboard-response","94","90062","0.0-94.0","32Q90QCQ1T7CI739AFDFT16OBXXKER","A1MTQP7TA5RCOB","3XT3KXP24ZKFDDMCDS43FE3AU9W6IW","","1242","img/flower6.png","75","1242","2","1","1","2","1,0,0,1,1,0,1,0,1","0,1,0,0,1,1,1,1,0","3",""
"","html-keyboard-response","95","90364","0.0-95.0","32Q90QCQ1T7CI739AFDFT16OBXXKER","A1MTQP7TA5RCOB","3XT3KXP24ZKFDDMCDS43FE3AU9W6IW","","null","<img src=""img/flower6.png"" style=""width:200px; border:14px solid green;"">","null","","","","","","","","",""
"","image-keyboard-response","96","91422","0.0-96.0","32Q90QCQ1T7CI739AFDFT16OBXXKER","A1MTQP7TA5RCOB","3XT3KXP24ZKFDDMCDS43FE3AU9W6IW","","1058","img/flower4.png","75","1058","2","1","3","2","1,0,0,1,1,0,1,0,1","0,1,0,0,1,1,1,1,0","3",""
"","html-keyboard-response","97","91724","0.0-97.0","32Q90QCQ1T7CI739AFDFT16OBXXKER","A1MTQP7TA5RCOB","3XT3KXP24ZKFDDMCDS43FE3AU9W6IW","","null","<img src=""img/flower4.png"" style=""width:200px; border:14px solid green;"">","null","","","","","","","","",""
"","image-keyboard-response","98","92478","0.0-98.0","32Q90QCQ1T7CI739AFDFT16OBXXKER","A1MTQP7TA5RCOB","3XT3KXP24ZKFDDMCDS43FE3AU9W6IW","","754","img/flower1.png","76","754","3","1","2","2","1,0,0,1,1,0,1,0,1","0,1,0,0,1,1,1,1,0","3",""
"","html-keyboard-response","99","92779","0.0-99.0","32Q90QCQ1T7CI739AFDFT16OBXXKER","A1MTQP7TA5RCOB","3XT3KXP24ZKFDDMCDS43FE3AU9W6IW","","null","<img src=""img/flower1.png"" style=""width:200px; border:14px solid green;"">","null","","","","","","","","",""
"","image-keyboard-response","100","93422","0.0-100.0","32Q90QCQ1T7CI739AFDFT16OBXXKER","A1MTQP7TA5RCOB","3XT3KXP24ZKFDDMCDS43FE3AU9W6IW","","641","img/flower6.png","75","642","2","1","1","2","1,0,0,1,1,0,1,0,1","0,1,0,0,1,1,1,1,0","3",""
"","html-keyboard-response","101","93724","0.0-101.0","32Q90QCQ1T7CI739AFDFT16OBXXKER","A1MTQP7TA5RCOB","3XT3KXP24ZKFDDMCDS43FE3AU9W6IW","","null","<img src=""img/flower6.png"" style=""width:200px; border:14px solid green;"">","null","","","","","","","","",""
"","image-keyboard-response","102","94606","0.0-102.0","32Q90QCQ1T7CI739AFDFT16OBXXKER","A1MTQP7TA5RCOB","3XT3KXP24ZKFDDMCDS43FE3AU9W6IW","","881","img/flower4.png","75","882","2","1","3","2","1,0,0,1,1,0,1,0,1","0,1,0,0,1,1,1,1,0","3",""
"","html-keyboard-response","103","94920","0.0-103.0","32Q90QCQ1T7CI739AFDFT16OBXXKER","A1MTQP7TA5RCOB","3XT3KXP24ZKFDDMCDS43FE3AU9W6IW","","null","<img src=""img/flower4.png"" style=""width:200px; border:14px solid green;"">","null","","","","","","","","",""
"","image-keyboard-response","104","95462","0.0-104.0","32Q90QCQ1T7CI739AFDFT16OBXXKER","A1MTQP7TA5RCOB","3XT3KXP24ZKFDDMCDS43FE3AU9W6IW","","542","img/flower1.png","76","543","3","1","2","2","1,0,0,1,1,0,1,0,1","0,1,0,0,1,1,1,1,0","3",""
"","html-keyboard-response","105","95764","0.0-105.0","32Q90QCQ1T7CI739AFDFT16OBXXKER","A1MTQP7TA5RCOB","3XT3KXP24ZKFDDMCDS43FE3AU9W6IW","","null","<img src=""img/flower1.png"" style=""width:200px; border:14px solid green;"">","null","","","","","","","","",""
"","image-keyboard-response","106","96350","0.0-106.0","32Q90QCQ1T7CI739AFDFT16OBXXKER","A1MTQP7TA5RCOB","3XT3KXP24ZKFDDMCDS43FE3AU9W6IW","","587","img/flower4.png","75","588","2","1","3","2","1,0,0,1,1,0,1,0,1","0,1,0,0,1,1,1,1,0","3",""
"","html-keyboard-response","107","96651","0.0-107.0","32Q90QCQ1T7CI739AFDFT16OBXXKER","A1MTQP7TA5RCOB","3XT3KXP24ZKFDDMCDS43FE3AU9W6IW","","null","<img src=""img/flower4.png"" style=""width:200px; border:14px solid green;"">","null","","","","","","","","",""
"","image-keyboard-response","108","97485","0.0-108.0","32Q90QCQ1T7CI739AFDFT16OBXXKER","A1MTQP7TA5RCOB","3XT3KXP24ZKFDDMCDS43FE3AU9W6IW","","834","img/flower6.png","75","835","2","1","1","2","1,0,0,1,1,0,1,0,1","0,1,0,0,1,1,1,1,0","3",""
"","html-keyboard-response","109","97787","0.0-109.0","32Q90QCQ1T7CI739AFDFT16OBXXKER","A1MTQP7TA5RCOB","3XT3KXP24ZKFDDMCDS43FE3AU9W6IW","","null","<img src=""img/flower6.png"" style=""width:200px; border:14px solid green;"">","null","","","","","","","","",""
"","image-keyboard-response","110","98358","0.0-110.0","32Q90QCQ1T7CI739AFDFT16OBXXKER","A1MTQP7TA5RCOB","3XT3KXP24ZKFDDMCDS43FE3AU9W6IW","","571","img/flower6.png","75","572","2","1","1","2","1,0,0,1,1,0,1,0,1","0,1,0,0,1,1,1,1,0","3",""
"","html-keyboard-response","111","98660","0.0-111.0","32Q90QCQ1T7CI739AFDFT16OBXXKER","A1MTQP7TA5RCOB","3XT3KXP24ZKFDDMCDS43FE3AU9W6IW","","null","<img src=""img/flower6.png"" style=""width:200px; border:14px solid green;"">","null","","","","","","","","",""
"","image-keyboard-response","112","99614","0.0-112.0","32Q90QCQ1T7CI739AFDFT16OBXXKER","A1MTQP7TA5RCOB","3XT3KXP24ZKFDDMCDS43FE3AU9W6IW","","952","img/flower4.png","76","954","3","0","3","2","1,0,0,1,1,0,1,0,1","0,1,0,0,1,1,1,1,0","3",""
"","html-keyboard-response","113","99916","0.0-113.0","32Q90QCQ1T7CI739AFDFT16OBXXKER","A1MTQP7TA5RCOB","3XT3KXP24ZKFDDMCDS43FE3AU9W6IW","","null","<img src=""img/flower4.png"" style=""width:200px;border:14px solid red;"">","null","","","","","","","","",""
"","image-keyboard-response","114","100806","0.0-114.0","32Q90QCQ1T7CI739AFDFT16OBXXKER","A1MTQP7TA5RCOB","3XT3KXP24ZKFDDMCDS43FE3AU9W6IW","","889","img/flower1.png","76","890","3","1","2","2","1,0,0,1,1,0,1,0,1","0,1,0,0,1,1,1,1,0","3",""
"","html-keyboard-response","115","101107","0.0-115.0","32Q90QCQ1T7CI739AFDFT16OBXXKER","A1MTQP7TA5RCOB","3XT3KXP24ZKFDDMCDS43FE3AU9W6IW","","null","<img src=""img/flower1.png"" style=""width:200px; border:14px solid green;"">","null","","","","","","","","",""
"","image-keyboard-response","116","101534","0.0-116.0","32Q90QCQ1T7CI739AFDFT16OBXXKER","A1MTQP7TA5RCOB","3XT3KXP24ZKFDDMCDS43FE3AU9W6IW","","426","img/flower1.png","76","426","3","1","2","2","1,0,0,1,1,0,1,0,1","0,1,0,0,1,1,1,1,0","3",""
"","html-keyboard-response","117","101836","0.0-117.0","32Q90QCQ1T7CI739AFDFT16OBXXKER","A1MTQP7TA5RCOB","3XT3KXP24ZKFDDMCDS43FE3AU9W6IW","","null","<img src=""img/flower1.png"" style=""width:200px; border:14px solid green;"">","null","","","","","","","","",""
"","image-keyboard-response","118","102462","0.0-118.0","32Q90QCQ1T7CI739AFDFT16OBXXKER","A1MTQP7TA5RCOB","3XT3KXP24ZKFDDMCDS43FE3AU9W6IW","","625","img/flower4.png","75","626","2","1","3","2","1,0,0,1,1,0,1,0,1","0,1,0,0,1,1,1,1,0","3",""
"","html-keyboard-response","119","102776","0.0-119.0","32Q90QCQ1T7CI739AFDFT16OBXXKER","A1MTQP7TA5RCOB","3XT3KXP24ZKFDDMCDS43FE3AU9W6IW","","null","<img src=""img/flower4.png"" style=""width:200px; border:14px solid green;"">","null","","","","","","","","",""
"","image-keyboard-response","120","103246","0.0-120.0","32Q90QCQ1T7CI739AFDFT16OBXXKER","A1MTQP7TA5RCOB","3XT3KXP24ZKFDDMCDS43FE3AU9W6IW","","469","img/flower4.png","75","469","2","1","3","2","1,0,0,1,1,0,1,0,1","0,1,0,0,1,1,1,1,0","3",""
"","html-keyboard-response","121","103548","0.0-121.0","32Q90QCQ1T7CI739AFDFT16OBXXKER","A1MTQP7TA5RCOB","3XT3KXP24ZKFDDMCDS43FE3AU9W6IW","","null","<img src=""img/flower4.png"" style=""width:200px; border:14px solid green;"">","null","","","","","","","","",""
"","image-keyboard-response","122","104318","0.0-122.0","32Q90QCQ1T7CI739AFDFT16OBXXKER","A1MTQP7TA5RCOB","3XT3KXP24ZKFDDMCDS43FE3AU9W6IW","","770","img/flower1.png","76","770","3","1","2","2","1,0,0,1,1,0,1,0,1","0,1,0,0,1,1,1,1,0","3",""
"","html-keyboard-response","123","104620","0.0-123.0","32Q90QCQ1T7CI739AFDFT16OBXXKER","A1MTQP7TA5RCOB","3XT3KXP24ZKFDDMCDS43FE3AU9W6IW","","null","<img src=""img/flower1.png"" style=""width:200px; border:14px solid green;"">","null","","","","","","","","",""
"","image-keyboard-response","124","105110","0.0-124.0","32Q90QCQ1T7CI739AFDFT16OBXXKER","A1MTQP7TA5RCOB","3XT3KXP24ZKFDDMCDS43FE3AU9W6IW","","490","img/flower1.png","76","491","3","1","2","2","1,0,0,1,1,0,1,0,1","0,1,0,0,1,1,1,1,0","3",""
"","html-keyboard-response","125","105411","0.0-125.0","32Q90QCQ1T7CI739AFDFT16OBXXKER","A1MTQP7TA5RCOB","3XT3KXP24ZKFDDMCDS43FE3AU9W6IW","","null","<img src=""img/flower1.png"" style=""width:200px; border:14px solid green;"">","null","","","","","","","","",""
"","image-keyboard-response","126","106109","0.0-126.0","32Q90QCQ1T7CI739AFDFT16OBXXKER","A1MTQP7TA5RCOB","3XT3KXP24ZKFDDMCDS43FE3AU9W6IW","","697","img/flower4.png","75","697","2","1","3","2","1,0,0,1,1,0,1,0,1","0,1,0,0,1,1,1,1,0","3",""
"","html-keyboard-response","127","106411","0.0-127.0","32Q90QCQ1T7CI739AFDFT16OBXXKER","A1MTQP7TA5RCOB","3XT3KXP24ZKFDDMCDS43FE3AU9W6IW","","null","<img src=""img/flower4.png"" style=""width:200px; border:14px solid green;"">","null","","","","","","","","",""
"","image-keyboard-response","128","106878","0.0-128.0","32Q90QCQ1T7CI739AFDFT16OBXXKER","A1MTQP7TA5RCOB","3XT3KXP24ZKFDDMCDS43FE3AU9W6IW","","467","img/flower4.png","75","468","2","1","3","2","1,0,0,1,1,0,1,0,1","0,1,0,0,1,1,1,1,0","3",""
"","html-keyboard-response","129","107180","0.0-129.0","32Q90QCQ1T7CI739AFDFT16OBXXKER","A1MTQP7TA5RCOB","3XT3KXP24ZKFDDMCDS43FE3AU9W6IW","","null","<img src=""img/flower4.png"" style=""width:200px; border:14px solid green;"">","null","","","","","","","","",""
"","image-keyboard-response","130","107934","0.0-130.0","32Q90QCQ1T7CI739AFDFT16OBXXKER","A1MTQP7TA5RCOB","3XT3KXP24ZKFDDMCDS43FE3AU9W6IW","","754","img/flower4.png","75","755","2","1","3","2","1,0,0,1,1,0,1,0,1","0,1,0,0,1,1,1,1,0","3",""
"","html-keyboard-response","131","108236","0.0-131.0","32Q90QCQ1T7CI739AFDFT16OBXXKER","A1MTQP7TA5RCOB","3XT3KXP24ZKFDDMCDS43FE3AU9W6IW","","null","<img src=""img/flower4.png"" style=""width:200px; border:14px solid green;"">","null","","","","","","","","",""
"","image-keyboard-response","132","108734","0.0-132.0","32Q90QCQ1T7CI739AFDFT16OBXXKER","A1MTQP7TA5RCOB","3XT3KXP24ZKFDDMCDS43FE3AU9W6IW","","497","img/flower4.png","75","498","2","1","3","2","1,0,0,1,1,0,1,0,1","0,1,0,0,1,1,1,1,0","3",""
"","html-keyboard-response","133","109036","0.0-133.0","32Q90QCQ1T7CI739AFDFT16OBXXKER","A1MTQP7TA5RCOB","3XT3KXP24ZKFDDMCDS43FE3AU9W6IW","","null","<img src=""img/flower4.png"" style=""width:200px; border:14px solid green;"">","null","","","","","","","","",""
"","image-keyboard-response","134","109822","0.0-134.0","32Q90QCQ1T7CI739AFDFT16OBXXKER","A1MTQP7TA5RCOB","3XT3KXP24ZKFDDMCDS43FE3AU9W6IW","","785","img/flower6.png","75","787","2","1","1","2","1,0,0,1,1,0,1,0,1","0,1,0,0,1,1,1,1,0","3",""
"","html-keyboard-response","135","110123","0.0-135.0","32Q90QCQ1T7CI739AFDFT16OBXXKER","A1MTQP7TA5RCOB","3XT3KXP24ZKFDDMCDS43FE3AU9W6IW","","null","<img src=""img/flower6.png"" style=""width:200px; border:14px solid green;"">","null","","","","","","","","",""
"","image-keyboard-response","136","110862","0.0-136.0","32Q90QCQ1T7CI739AFDFT16OBXXKER","A1MTQP7TA5RCOB","3XT3KXP24ZKFDDMCDS43FE3AU9W6IW","","739","img/flower1.png","76","740","3","1","2","2","1,0,0,1,1,0,1,0,1","0,1,0,0,1,1,1,1,0","3",""
"","html-keyboard-response","137","111171","0.0-137.0","32Q90QCQ1T7CI739AFDFT16OBXXKER","A1MTQP7TA5RCOB","3XT3KXP24ZKFDDMCDS43FE3AU9W6IW","","null","<img src=""img/flower1.png"" style=""width:200px; border:14px solid green;"">","null","","","","","","","","",""
"","image-keyboard-response","138","112462","0.0-138.0","32Q90QCQ1T7CI739AFDFT16OBXXKER","A1MTQP7TA5RCOB","3XT3KXP24ZKFDDMCDS43FE3AU9W6IW","","1292","img/flower6.png","76","1292","3","0","1","2","1,0,0,1,1,0,1,0,1","0,1,0,0,1,1,1,1,0","3",""
"","html-keyboard-response","139","112763","0.0-139.0","32Q90QCQ1T7CI739AFDFT16OBXXKER","A1MTQP7TA5RCOB","3XT3KXP24ZKFDDMCDS43FE3AU9W6IW","","null","<img src=""img/flower6.png"" style=""width:200px;border:14px solid red;"">","null","","","","","","","","",""
"","image-keyboard-response","140","113654","0.0-140.0","32Q90QCQ1T7CI739AFDFT16OBXXKER","A1MTQP7TA5RCOB","3XT3KXP24ZKFDDMCDS43FE3AU9W6IW","","889","img/flower1.png","75","891","2","1","2","2","1,0,0,1,1,0,1,0,1","0,1,0,0,1,1,1,1,0","3",""
"","html-keyboard-response","141","113956","0.0-141.0","32Q90QCQ1T7CI739AFDFT16OBXXKER","A1MTQP7TA5RCOB","3XT3KXP24ZKFDDMCDS43FE3AU9W6IW","","null","<img src=""img/flower1.png"" style=""width:200px; border:14px solid green;"">","null","","","","","","","","",""
"","image-keyboard-response","142","114670","0.0-142.0","32Q90QCQ1T7CI739AFDFT16OBXXKER","A1MTQP7TA5RCOB","3XT3KXP24ZKFDDMCDS43FE3AU9W6IW","","714","img/flower4.png","76","715","3","0","3","2","1,0,0,1,1,0,1,0,1","0,1,0,0,1,1,1,1,0","3",""
"","html-keyboard-response","143","114972","0.0-143.0","32Q90QCQ1T7CI739AFDFT16OBXXKER","A1MTQP7TA5RCOB","3XT3KXP24ZKFDDMCDS43FE3AU9W6IW","","null","<img src=""img/flower4.png"" style=""width:200px;border:14px solid red;"">","null","","","","","","","","",""
"","image-keyboard-response","144","115846","0.0-144.0","32Q90QCQ1T7CI739AFDFT16OBXXKER","A1MTQP7TA5RCOB","3XT3KXP24ZKFDDMCDS43FE3AU9W6IW","","874","img/flower6.png","75","875","2","1","1","2","1,0,0,1,1,0,1,0,1","0,1,0,0,1,1,1,1,0","3",""
"","html-keyboard-response","145","116148","0.0-145.0","32Q90QCQ1T7CI739AFDFT16OBXXKER","A1MTQP7TA5RCOB","3XT3KXP24ZKFDDMCDS43FE3AU9W6IW","","null","<img src=""img/flower6.png"" style=""width:200px; border:14px solid green;"">","null","","","","","","","","",""
"","image-keyboard-response","146","117214","0.0-146.0","32Q90QCQ1T7CI739AFDFT16OBXXKER","A1MTQP7TA5RCOB","3XT3KXP24ZKFDDMCDS43FE3AU9W6IW","","1065","img/flower4.png","75","1065","2","1","3","2","1,0,0,1,1,0,1,0,1","0,1,0,0,1,1,1,1,0","3",""
"","html-keyboard-response","147","117516","0.0-147.0","32Q90QCQ1T7CI739AFDFT16OBXXKER","A1MTQP7TA5RCOB","3XT3KXP24ZKFDDMCDS43FE3AU9W6IW","","null","<img src=""img/flower4.png"" style=""width:200px; border:14px solid green;"">","null","","","","","","","","",""
"","image-keyboard-response","148","118454","0.0-148.0","32Q90QCQ1T7CI739AFDFT16OBXXKER","A1MTQP7TA5RCOB","3XT3KXP24ZKFDDMCDS43FE3AU9W6IW","","936","img/flower1.png","76","937","3","1","2","2","1,0,0,1,1,0,1,0,1","0,1,0,0,1,1,1,1,0","3",""
"","html-keyboard-response","149","118756","0.0-149.0","32Q90QCQ1T7CI739AFDFT16OBXXKER","A1MTQP7TA5RCOB","3XT3KXP24ZKFDDMCDS43FE3AU9W6IW","","null","<img src=""img/flower1.png"" style=""width:200px; border:14px solid green;"">","null","","","","","","","","",""
"","image-keyboard-response","150","119574","0.0-150.0","32Q90QCQ1T7CI739AFDFT16OBXXKER","A1MTQP7TA5RCOB","3XT3KXP24ZKFDDMCDS43FE3AU9W6IW","","815","img/flower6.png","75","816","2","1","1","2","1,0,0,1,1,0,1,0,1","0,1,0,0,1,1,1,1,0","3",""
"","html-keyboard-response","151","119875","0.0-151.0","32Q90QCQ1T7CI739AFDFT16OBXXKER","A1MTQP7TA5RCOB","3XT3KXP24ZKFDDMCDS43FE3AU9W6IW","","null","<img src=""img/flower6.png"" style=""width:200px; border:14px solid green;"">","null","","","","","","","","",""
"","image-keyboard-response","152","120702","0.0-152.0","32Q90QCQ1T7CI739AFDFT16OBXXKER","A1MTQP7TA5RCOB","3XT3KXP24ZKFDDMCDS43FE3AU9W6IW","","825","img/flower4.png","76","826","3","0","3","2","1,0,0,1,1,0,1,0,1","0,1,0,0,1,1,1,1,0","3",""
"","html-keyboard-response","153","121004","0.0-153.0","32Q90QCQ1T7CI739AFDFT16OBXXKER","A1MTQP7TA5RCOB","3XT3KXP24ZKFDDMCDS43FE3AU9W6IW","","null","<img src=""img/flower4.png"" style=""width:200px;border:14px solid red;"">","null","","","","","","","","",""
"","image-keyboard-response","154","121791","0.0-154.0","32Q90QCQ1T7CI739AFDFT16OBXXKER","A1MTQP7TA5RCOB","3XT3KXP24ZKFDDMCDS43FE3AU9W6IW","","786","img/flower6.png","75","786","2","1","1","2","1,0,0,1,1,0,1,0,1","0,1,0,0,1,1,1,1,0","3",""
"","html-keyboard-response","155","122093","0.0-155.0","32Q90QCQ1T7CI739AFDFT16OBXXKER","A1MTQP7TA5RCOB","3XT3KXP24ZKFDDMCDS43FE3AU9W6IW","","null","<img src=""img/flower6.png"" style=""width:200px; border:14px solid green;"">","null","","","","","","","","",""
"","image-keyboard-response","156","122975","0.0-156.0","32Q90QCQ1T7CI739AFDFT16OBXXKER","A1MTQP7TA5RCOB","3XT3KXP24ZKFDDMCDS43FE3AU9W6IW","","881","img/flower1.png","75","881","2","1","2","2","1,0,0,1,1,0,1,0,1","0,1,0,0,1,1,1,1,0","3",""
"","html-keyboard-response","157","123277","0.0-157.0","32Q90QCQ1T7CI739AFDFT16OBXXKER","A1MTQP7TA5RCOB","3XT3KXP24ZKFDDMCDS43FE3AU9W6IW","","null","<img src=""img/flower1.png"" style=""width:200px; border:14px solid green;"">","null","","","","","","","","",""
"","image-keyboard-response","158","123774","0.0-158.0","32Q90QCQ1T7CI739AFDFT16OBXXKER","A1MTQP7TA5RCOB","3XT3KXP24ZKFDDMCDS43FE3AU9W6IW","","497","img/flower4.png","76","498","3","0","3","2","1,0,0,1,1,0,1,0,1","0,1,0,0,1,1,1,1,0","3",""
"","html-keyboard-response","159","124075","0.0-159.0","32Q90QCQ1T7CI739AFDFT16OBXXKER","A1MTQP7TA5RCOB","3XT3KXP24ZKFDDMCDS43FE3AU9W6IW","","null","<img src=""img/flower4.png"" style=""width:200px;border:14px solid red;"">","null","","","","","","","","",""
"","image-keyboard-response","160","124558","0.0-160.0","32Q90QCQ1T7CI739AFDFT16OBXXKER","A1MTQP7TA5RCOB","3XT3KXP24ZKFDDMCDS43FE3AU9W6IW","","482","img/flower1.png","76","482","3","1","2","2","1,0,0,1,1,0,1,0,1","0,1,0,0,1,1,1,1,0","3",""
"","html-keyboard-response","161","124860","0.0-161.0","32Q90QCQ1T7CI739AFDFT16OBXXKER","A1MTQP7TA5RCOB","3XT3KXP24ZKFDDMCDS43FE3AU9W6IW","","null","<img src=""img/flower1.png"" style=""width:200px; border:14px solid green;"">","null","","","","","","","","",""
"","image-keyboard-response","162","126270","0.0-162.0","32Q90QCQ1T7CI739AFDFT16OBXXKER","A1MTQP7TA5RCOB","3XT3KXP24ZKFDDMCDS43FE3AU9W6IW","","1409","img/flower4.png","75","1410","2","1","3","2","1,0,0,1,1,0,1,0,1","0,1,0,0,1,1,1,1,0","3",""
"","html-keyboard-response","163","126572","0.0-163.0","32Q90QCQ1T7CI739AFDFT16OBXXKER","A1MTQP7TA5RCOB","3XT3KXP24ZKFDDMCDS43FE3AU9W6IW","","null","<img src=""img/flower4.png"" style=""width:200px; border:14px solid green;"">","null","","","","","","","","",""
"","image-keyboard-response","164","127462","0.0-164.0","32Q90QCQ1T7CI739AFDFT16OBXXKER","A1MTQP7TA5RCOB","3XT3KXP24ZKFDDMCDS43FE3AU9W6IW","","888","img/flower6.png","75","888","2","1","1","2","1,0,0,1,1,0,1,0,1","0,1,0,0,1,1,1,1,0","3",""
"","html-keyboard-response","165","127763","0.0-165.0","32Q90QCQ1T7CI739AFDFT16OBXXKER","A1MTQP7TA5RCOB","3XT3KXP24ZKFDDMCDS43FE3AU9W6IW","","null","<img src=""img/flower6.png"" style=""width:200px; border:14px solid green;"">","null","","","","","","","","",""
"","image-keyboard-response","166","128526","0.0-166.0","32Q90QCQ1T7CI739AFDFT16OBXXKER","A1MTQP7TA5RCOB","3XT3KXP24ZKFDDMCDS43FE3AU9W6IW","","762","img/flower1.png","76","764","3","1","2","2","1,0,0,1,1,0,1,0,1","0,1,0,0,1,1,1,1,0","3",""
"","html-keyboard-response","167","128828","0.0-167.0","32Q90QCQ1T7CI739AFDFT16OBXXKER","A1MTQP7TA5RCOB","3XT3KXP24ZKFDDMCDS43FE3AU9W6IW","","null","<img src=""img/flower1.png"" style=""width:200px; border:14px solid green;"">","null","","","","","","","","",""
"","image-keyboard-response","168","129566","0.0-168.0","32Q90QCQ1T7CI739AFDFT16OBXXKER","A1MTQP7TA5RCOB","3XT3KXP24ZKFDDMCDS43FE3AU9W6IW","","738","img/flower4.png","75","738","2","1","3","2","1,0,0,1,1,0,1,0,1","0,1,0,0,1,1,1,1,0","3",""
"","html-keyboard-response","169","129869","0.0-169.0","32Q90QCQ1T7CI739AFDFT16OBXXKER","A1MTQP7TA5RCOB","3XT3KXP24ZKFDDMCDS43FE3AU9W6IW","","null","<img src=""img/flower4.png"" style=""width:200px; border:14px solid green;"">","null","","","","","","","","",""
"","image-keyboard-response","170","130758","0.0-170.0","32Q90QCQ1T7CI739AFDFT16OBXXKER","A1MTQP7TA5RCOB","3XT3KXP24ZKFDDMCDS43FE3AU9W6IW","","888","img/flower6.png","75","889","2","1","1","2","1,0,0,1,1,0,1,0,1","0,1,0,0,1,1,1,1,0","3",""
"","html-keyboard-response","171","131060","0.0-171.0","32Q90QCQ1T7CI739AFDFT16OBXXKER","A1MTQP7TA5RCOB","3XT3KXP24ZKFDDMCDS43FE3AU9W6IW","","null","<img src=""img/flower6.png"" style=""width:200px; border:14px solid green;"">","null","","","","","","","","",""
"","image-keyboard-response","172","131718","0.0-172.0","32Q90QCQ1T7CI739AFDFT16OBXXKER","A1MTQP7TA5RCOB","3XT3KXP24ZKFDDMCDS43FE3AU9W6IW","","658","img/flower1.png","76","659","3","1","2","2","1,0,0,1,1,0,1,0,1","0,1,0,0,1,1,1,1,0","3",""
"","html-keyboard-response","173","132020","0.0-173.0","32Q90QCQ1T7CI739AFDFT16OBXXKER","A1MTQP7TA5RCOB","3XT3KXP24ZKFDDMCDS43FE3AU9W6IW","","null","<img src=""img/flower1.png"" style=""width:200px; border:14px solid green;"">","null","","","","","","","","",""
"","image-keyboard-response","174","132895","0.0-174.0","32Q90QCQ1T7CI739AFDFT16OBXXKER","A1MTQP7TA5RCOB","3XT3KXP24ZKFDDMCDS43FE3AU9W6IW","","874","img/flower6.png","75","875","2","1","1","2","1,0,0,1,1,0,1,0,1","0,1,0,0,1,1,1,1,0","3",""
"","html-keyboard-response","175","133197","0.0-175.0","32Q90QCQ1T7CI739AFDFT16OBXXKER","A1MTQP7TA5RCOB","3XT3KXP24ZKFDDMCDS43FE3AU9W6IW","","null","<img src=""img/flower6.png"" style=""width:200px; border:14px solid green;"">","null","","","","","","","","",""
"","image-keyboard-response","176","134214","0.0-176.0","32Q90QCQ1T7CI739AFDFT16OBXXKER","A1MTQP7TA5RCOB","3XT3KXP24ZKFDDMCDS43FE3AU9W6IW","","1017","img/flower1.png","75","1017","2","1","2","2","1,0,0,1,1,0,1,0,1","0,1,0,0,1,1,1,1,0","3",""
"","html-keyboard-response","177","134521","0.0-177.0","32Q90QCQ1T7CI739AFDFT16OBXXKER","A1MTQP7TA5RCOB","3XT3KXP24ZKFDDMCDS43FE3AU9W6IW","","null","<img src=""img/flower1.png"" style=""width:200px; border:14px solid green;"">","null","","","","","","","","",""
"","image-keyboard-response","178","135358","0.0-178.0","32Q90QCQ1T7CI739AFDFT16OBXXKER","A1MTQP7TA5RCOB","3XT3KXP24ZKFDDMCDS43FE3AU9W6IW","","837","img/flower6.png","75","837","2","1","1","2","1,0,0,1,1,0,1,0,1","0,1,0,0,1,1,1,1,0","3",""
"","html-keyboard-response","179","135661","0.0-179.0","32Q90QCQ1T7CI739AFDFT16OBXXKER","A1MTQP7TA5RCOB","3XT3KXP24ZKFDDMCDS43FE3AU9W6IW","","null","<img src=""img/flower6.png"" style=""width:200px; border:14px solid green;"">","null","","","","","","","","",""
"","image-keyboard-response","180","136214","0.0-180.0","32Q90QCQ1T7CI739AFDFT16OBXXKER","A1MTQP7TA5RCOB","3XT3KXP24ZKFDDMCDS43FE3AU9W6IW","","552","img/flower6.png","75","553","2","1","1","2","1,0,0,1,1,0,1,0,1","0,1,0,0,1,1,1,1,0","3",""
"","html-keyboard-response","181","136516","0.0-181.0","32Q90QCQ1T7CI739AFDFT16OBXXKER","A1MTQP7TA5RCOB","3XT3KXP24ZKFDDMCDS43FE3AU9W6IW","","null","<img src=""img/flower6.png"" style=""width:200px; border:14px solid green;"">","null","","","","","","","","",""
"","image-keyboard-response","182","137686","0.0-182.0","32Q90QCQ1T7CI739AFDFT16OBXXKER","A1MTQP7TA5RCOB","3XT3KXP24ZKFDDMCDS43FE3AU9W6IW","","1170","img/flower2.png","74","1170","1","0","3","1","1,0.333,0.333,0.333,1,0.333,0.333,0.333,1","1,0.333,0.333,0.333,1,0.333,0.333,0.333,1","1",""
"","html-keyboard-response","183","137988","0.0-183.0","32Q90QCQ1T7CI739AFDFT16OBXXKER","A1MTQP7TA5RCOB","3XT3KXP24ZKFDDMCDS43FE3AU9W6IW","","null","<img src=""img/flower2.png"" style=""width:200px;border:14px solid red;"">","null","","","","","","","","",""
"","image-keyboard-response","184","138998","0.0-184.0","32Q90QCQ1T7CI739AFDFT16OBXXKER","A1MTQP7TA5RCOB","3XT3KXP24ZKFDDMCDS43FE3AU9W6IW","","1009","img/flower5.png","74","1010","1","1","1","1","1,0.333,0.333,0.333,1,0.333,0.333,0.333,1","1,0.333,0.333,0.333,1,0.333,0.333,0.333,1","1",""
"","html-keyboard-response","185","139300","0.0-185.0","32Q90QCQ1T7CI739AFDFT16OBXXKER","A1MTQP7TA5RCOB","3XT3KXP24ZKFDDMCDS43FE3AU9W6IW","","null","<img src=""img/flower5.png"" style=""width:200px; border:14px solid green;"">","null","","","","","","","","",""
"","image-keyboard-response","186","140542","0.0-186.0","32Q90QCQ1T7CI739AFDFT16OBXXKER","A1MTQP7TA5RCOB","3XT3KXP24ZKFDDMCDS43FE3AU9W6IW","","1242","img/flower2.png","75","1243","2","0","3","1","1,0.333,0.333,0.333,1,0.333,0.333,0.333,1","1,0.333,0.333,0.333,1,0.333,0.333,0.333,1","1",""
"","html-keyboard-response","187","140844","0.0-187.0","32Q90QCQ1T7CI739AFDFT16OBXXKER","A1MTQP7TA5RCOB","3XT3KXP24ZKFDDMCDS43FE3AU9W6IW","","null","<img src=""img/flower2.png"" style=""width:200px;border:14px solid red;"">","null","","","","","","","","",""
"","image-keyboard-response","188","141767","0.0-188.0","32Q90QCQ1T7CI739AFDFT16OBXXKER","A1MTQP7TA5RCOB","3XT3KXP24ZKFDDMCDS43FE3AU9W6IW","","922","img/flower3.png","76","923","3","0","2","1","1,0.333,0.333,0.333,1,0.333,0.333,0.333,1","1,0.333,0.333,0.333,1,0.333,0.333,0.333,1","1",""
"","html-keyboard-response","189","142068","0.0-189.0","32Q90QCQ1T7CI739AFDFT16OBXXKER","A1MTQP7TA5RCOB","3XT3KXP24ZKFDDMCDS43FE3AU9W6IW","","null","<img src=""img/flower3.png"" style=""width:200px;border:14px solid red;"">","null","","","","","","","","",""
"","image-keyboard-response","190","142631","0.0-190.0","32Q90QCQ1T7CI739AFDFT16OBXXKER","A1MTQP7TA5RCOB","3XT3KXP24ZKFDDMCDS43FE3AU9W6IW","","563","img/flower2.png","74","564","1","1","3","1","1,0.333,0.333,0.333,1,0.333,0.333,0.333,1","1,0.333,0.333,0.333,1,0.333,0.333,0.333,1","1",""
"","html-keyboard-response","191","142933","0.0-191.0","32Q90QCQ1T7CI739AFDFT16OBXXKER","A1MTQP7TA5RCOB","3XT3KXP24ZKFDDMCDS43FE3AU9W6IW","","null","<img src=""img/flower2.png"" style=""width:200px; border:14px solid green;"">","null","","","","","","","","",""
"","image-keyboard-response","192","144439","0.0-192.0","32Q90QCQ1T7CI739AFDFT16OBXXKER","A1MTQP7TA5RCOB","3XT3KXP24ZKFDDMCDS43FE3AU9W6IW","","1505","img/flower3.png","75","1506","2","1","2","1","1,0.333,0.333,0.333,1,0.333,0.333,0.333,1","1,0.333,0.333,0.333,1,0.333,0.333,0.333,1","1",""
"","html-keyboard-response","193","144741","0.0-193.0","32Q90QCQ1T7CI739AFDFT16OBXXKER","A1MTQP7TA5RCOB","3XT3KXP24ZKFDDMCDS43FE3AU9W6IW","","null","<img src=""img/flower3.png"" style=""width:200px; border:14px solid green;"">","null","","","","","","","","",""
"","image-keyboard-response","194","145391","0.0-194.0","32Q90QCQ1T7CI739AFDFT16OBXXKER","A1MTQP7TA5RCOB","3XT3KXP24ZKFDDMCDS43FE3AU9W6IW","","649","img/flower2.png","74","650","1","0","3","1","1,0.333,0.333,0.333,1,0.333,0.333,0.333,1","1,0.333,0.333,0.333,1,0.333,0.333,0.333,1","1",""
"","html-keyboard-response","195","145692","0.0-195.0","32Q90QCQ1T7CI739AFDFT16OBXXKER","A1MTQP7TA5RCOB","3XT3KXP24ZKFDDMCDS43FE3AU9W6IW","","null","<img src=""img/flower2.png"" style=""width:200px;border:14px solid red;"">","null","","","","","","","","",""
"","image-keyboard-response","196","146326","0.0-196.0","32Q90QCQ1T7CI739AFDFT16OBXXKER","A1MTQP7TA5RCOB","3XT3KXP24ZKFDDMCDS43FE3AU9W6IW","","633","img/flower2.png","74","634","1","0","3","1","1,0.333,0.333,0.333,1,0.333,0.333,0.333,1","1,0.333,0.333,0.333,1,0.333,0.333,0.333,1","1",""
"","html-keyboard-response","197","146627","0.0-197.0","32Q90QCQ1T7CI739AFDFT16OBXXKER","A1MTQP7TA5RCOB","3XT3KXP24ZKFDDMCDS43FE3AU9W6IW","","null","<img src=""img/flower2.png"" style=""width:200px;border:14px solid red;"">","null","","","","","","","","",""
"","image-keyboard-response","198","147383","0.0-198.0","32Q90QCQ1T7CI739AFDFT16OBXXKER","A1MTQP7TA5RCOB","3XT3KXP24ZKFDDMCDS43FE3AU9W6IW","","755","img/flower3.png","75","755","2","1","2","1","1,0.333,0.333,0.333,1,0.333,0.333,0.333,1","1,0.333,0.333,0.333,1,0.333,0.333,0.333,1","1",""
"","html-keyboard-response","199","147684","0.0-199.0","32Q90QCQ1T7CI739AFDFT16OBXXKER","A1MTQP7TA5RCOB","3XT3KXP24ZKFDDMCDS43FE3AU9W6IW","","null","<img src=""img/flower3.png"" style=""width:200px; border:14px solid green;"">","null","","","","","","","","",""
"","image-keyboard-response","200","148303","0.0-200.0","32Q90QCQ1T7CI739AFDFT16OBXXKER","A1MTQP7TA5RCOB","3XT3KXP24ZKFDDMCDS43FE3AU9W6IW","","619","img/flower3.png","75","620","2","1","2","1","1,0.333,0.333,0.333,1,0.333,0.333,0.333,1","1,0.333,0.333,0.333,1,0.333,0.333,0.333,1","1",""
"","html-keyboard-response","201","148604","0.0-201.0","32Q90QCQ1T7CI739AFDFT16OBXXKER","A1MTQP7TA5RCOB","3XT3KXP24ZKFDDMCDS43FE3AU9W6IW","","null","<img src=""img/flower3.png"" style=""width:200px; border:14px solid green;"">","null","","","","","","","","",""
"","image-keyboard-response","202","149431","0.0-202.0","32Q90QCQ1T7CI739AFDFT16OBXXKER","A1MTQP7TA5RCOB","3XT3KXP24ZKFDDMCDS43FE3AU9W6IW","","826","img/flower5.png","76","826","3","0","1","1","1,0.333,0.333,0.333,1,0.333,0.333,0.333,1","1,0.333,0.333,0.333,1,0.333,0.333,0.333,1","1",""
"","html-keyboard-response","203","149733","0.0-203.0","32Q90QCQ1T7CI739AFDFT16OBXXKER","A1MTQP7TA5RCOB","3XT3KXP24ZKFDDMCDS43FE3AU9W6IW","","null","<img src=""img/flower5.png"" style=""width:200px;border:14px solid red;"">","null","","","","","","","","",""
"","image-keyboard-response","204","150343","0.0-204.0","32Q90QCQ1T7CI739AFDFT16OBXXKER","A1MTQP7TA5RCOB","3XT3KXP24ZKFDDMCDS43FE3AU9W6IW","","609","img/flower2.png","75","611","2","1","3","1","1,0.333,0.333,0.333,1,0.333,0.333,0.333,1","1,0.333,0.333,0.333,1,0.333,0.333,0.333,1","1",""
"","html-keyboard-response","205","150644","0.0-205.0","32Q90QCQ1T7CI739AFDFT16OBXXKER","A1MTQP7TA5RCOB","3XT3KXP24ZKFDDMCDS43FE3AU9W6IW","","null","<img src=""img/flower2.png"" style=""width:200px; border:14px solid green;"">","null","","","","","","","","",""
"","image-keyboard-response","206","151158","0.0-206.0","32Q90QCQ1T7CI739AFDFT16OBXXKER","A1MTQP7TA5RCOB","3XT3KXP24ZKFDDMCDS43FE3AU9W6IW","","514","img/flower2.png","75","514","2","0","3","1","1,0.333,0.333,0.333,1,0.333,0.333,0.333,1","1,0.333,0.333,0.333,1,0.333,0.333,0.333,1","1",""
"","html-keyboard-response","207","151459","0.0-207.0","32Q90QCQ1T7CI739AFDFT16OBXXKER","A1MTQP7TA5RCOB","3XT3KXP24ZKFDDMCDS43FE3AU9W6IW","","null","<img src=""img/flower2.png"" style=""width:200px;border:14px solid red;"">","null","","","","","","","","",""
"","image-keyboard-response","208","152519","0.0-208.0","32Q90QCQ1T7CI739AFDFT16OBXXKER","A1MTQP7TA5RCOB","3XT3KXP24ZKFDDMCDS43FE3AU9W6IW","","1059","img/flower3.png","76","1059","3","0","2","1","1,0.333,0.333,0.333,1,0.333,0.333,0.333,1","1,0.333,0.333,0.333,1,0.333,0.333,0.333,1","1",""
"","html-keyboard-response","209","152821","0.0-209.0","32Q90QCQ1T7CI739AFDFT16OBXXKER","A1MTQP7TA5RCOB","3XT3KXP24ZKFDDMCDS43FE3AU9W6IW","","null","<img src=""img/flower3.png"" style=""width:200px;border:14px solid red;"">","null","","","","","","","","",""
"","image-keyboard-response","210","153231","0.0-210.0","32Q90QCQ1T7CI739AFDFT16OBXXKER","A1MTQP7TA5RCOB","3XT3KXP24ZKFDDMCDS43FE3AU9W6IW","","409","img/flower2.png","74","409","1","0","3","1","1,0.333,0.333,0.333,1,0.333,0.333,0.333,1","1,0.333,0.333,0.333,1,0.333,0.333,0.333,1","1",""
"","html-keyboard-response","211","153533","0.0-211.0","32Q90QCQ1T7CI739AFDFT16OBXXKER","A1MTQP7TA5RCOB","3XT3KXP24ZKFDDMCDS43FE3AU9W6IW","","null","<img src=""img/flower2.png"" style=""width:200px;border:14px solid red;"">","null","","","","","","","","",""
"","image-keyboard-response","212","153991","0.0-212.0","32Q90QCQ1T7CI739AFDFT16OBXXKER","A1MTQP7TA5RCOB","3XT3KXP24ZKFDDMCDS43FE3AU9W6IW","","457","img/flower3.png","75","458","2","1","2","1","1,0.333,0.333,0.333,1,0.333,0.333,0.333,1","1,0.333,0.333,0.333,1,0.333,0.333,0.333,1","1",""
"","html-keyboard-response","213","154292","0.0-213.0","32Q90QCQ1T7CI739AFDFT16OBXXKER","A1MTQP7TA5RCOB","3XT3KXP24ZKFDDMCDS43FE3AU9W6IW","","null","<img src=""img/flower3.png"" style=""width:200px; border:14px solid green;"">","null","","","","","","","","",""
"","image-keyboard-response","214","154943","0.0-214.0","32Q90QCQ1T7CI739AFDFT16OBXXKER","A1MTQP7TA5RCOB","3XT3KXP24ZKFDDMCDS43FE3AU9W6IW","","650","img/flower2.png","75","652","2","0","3","1","1,0.333,0.333,0.333,1,0.333,0.333,0.333,1","1,0.333,0.333,0.333,1,0.333,0.333,0.333,1","1",""
"","html-keyboard-response","215","155246","0.0-215.0","32Q90QCQ1T7CI739AFDFT16OBXXKER","A1MTQP7TA5RCOB","3XT3KXP24ZKFDDMCDS43FE3AU9W6IW","","null","<img src=""img/flower2.png"" style=""width:200px;border:14px solid red;"">","null","","","","","","","","",""
"","image-keyboard-response","216","156015","0.0-216.0","32Q90QCQ1T7CI739AFDFT16OBXXKER","A1MTQP7TA5RCOB","3XT3KXP24ZKFDDMCDS43FE3AU9W6IW","","768","img/flower3.png","74","768","1","1","2","1","1,0.333,0.333,0.333,1,0.333,0.333,0.333,1","1,0.333,0.333,0.333,1,0.333,0.333,0.333,1","1",""
"","html-keyboard-response","217","156321","0.0-217.0","32Q90QCQ1T7CI739AFDFT16OBXXKER","A1MTQP7TA5RCOB","3XT3KXP24ZKFDDMCDS43FE3AU9W6IW","","null","<img src=""img/flower3.png"" style=""width:200px; border:14px solid green;"">","null","","","","","","","","",""
"","image-keyboard-response","218","156879","0.0-218.0","32Q90QCQ1T7CI739AFDFT16OBXXKER","A1MTQP7TA5RCOB","3XT3KXP24ZKFDDMCDS43FE3AU9W6IW","","557","img/flower3.png","75","558","2","1","2","1","1,0.333,0.333,0.333,1,0.333,0.333,0.333,1","1,0.333,0.333,0.333,1,0.333,0.333,0.333,1","1",""
"","html-keyboard-response","219","157181","0.0-219.0","32Q90QCQ1T7CI739AFDFT16OBXXKER","A1MTQP7TA5RCOB","3XT3KXP24ZKFDDMCDS43FE3AU9W6IW","","null","<img src=""img/flower3.png"" style=""width:200px; border:14px solid green;"">","null","","","","","","","","",""
"","image-keyboard-response","220","157831","0.0-220.0","32Q90QCQ1T7CI739AFDFT16OBXXKER","A1MTQP7TA5RCOB","3XT3KXP24ZKFDDMCDS43FE3AU9W6IW","","648","img/flower5.png","74","650","1","1","1","1","1,0.333,0.333,0.333,1,0.333,0.333,0.333,1","1,0.333,0.333,0.333,1,0.333,0.333,0.333,1","1",""
"","html-keyboard-response","221","158133","0.0-221.0","32Q90QCQ1T7CI739AFDFT16OBXXKER","A1MTQP7TA5RCOB","3XT3KXP24ZKFDDMCDS43FE3AU9W6IW","","null","<img src=""img/flower5.png"" style=""width:200px; border:14px solid green;"">","null","","","","","","","","",""
"","image-keyboard-response","222","158671","0.0-222.0","32Q90QCQ1T7CI739AFDFT16OBXXKER","A1MTQP7TA5RCOB","3XT3KXP24ZKFDDMCDS43FE3AU9W6IW","","538","img/flower5.png","74","538","1","1","1","1","1,0.333,0.333,0.333,1,0.333,0.333,0.333,1","1,0.333,0.333,0.333,1,0.333,0.333,0.333,1","1",""
"","html-keyboard-response","223","158972","0.0-223.0","32Q90QCQ1T7CI739AFDFT16OBXXKER","A1MTQP7TA5RCOB","3XT3KXP24ZKFDDMCDS43FE3AU9W6IW","","null","<img src=""img/flower5.png"" style=""width:200px; border:14px solid green;"">","null","","","","","","","","",""
"","image-keyboard-response","224","160295","0.0-224.0","32Q90QCQ1T7CI739AFDFT16OBXXKER","A1MTQP7TA5RCOB","3XT3KXP24ZKFDDMCDS43FE3AU9W6IW","","1321","img/flower3.png","75","1322","2","1","2","1","1,0.333,0.333,0.333,1,0.333,0.333,0.333,1","1,0.333,0.333,0.333,1,0.333,0.333,0.333,1","1",""
"","html-keyboard-response","225","160597","0.0-225.0","32Q90QCQ1T7CI739AFDFT16OBXXKER","A1MTQP7TA5RCOB","3XT3KXP24ZKFDDMCDS43FE3AU9W6IW","","null","<img src=""img/flower3.png"" style=""width:200px; border:14px solid green;"">","null","","","","","","","","",""
"","image-keyboard-response","226","161367","0.0-226.0","32Q90QCQ1T7CI739AFDFT16OBXXKER","A1MTQP7TA5RCOB","3XT3KXP24ZKFDDMCDS43FE3AU9W6IW","","770","img/flower5.png","74","770","1","1","1","1","1,0.333,0.333,0.333,1,0.333,0.333,0.333,1","1,0.333,0.333,0.333,1,0.333,0.333,0.333,1","1",""
"","html-keyboard-response","227","161669","0.0-227.0","32Q90QCQ1T7CI739AFDFT16OBXXKER","A1MTQP7TA5RCOB","3XT3KXP24ZKFDDMCDS43FE3AU9W6IW","","null","<img src=""img/flower5.png"" style=""width:200px; border:14px solid green;"">","null","","","","","","","","",""
"","image-keyboard-response","228","162191","0.0-228.0","32Q90QCQ1T7CI739AFDFT16OBXXKER","A1MTQP7TA5RCOB","3XT3KXP24ZKFDDMCDS43FE3AU9W6IW","","521","img/flower5.png","74","521","1","1","1","1","1,0.333,0.333,0.333,1,0.333,0.333,0.333,1","1,0.333,0.333,0.333,1,0.333,0.333,0.333,1","1",""
"","html-keyboard-response","229","162492","0.0-229.0","32Q90QCQ1T7CI739AFDFT16OBXXKER","A1MTQP7TA5RCOB","3XT3KXP24ZKFDDMCDS43FE3AU9W6IW","","null","<img src=""img/flower5.png"" style=""width:200px; border:14px solid green;"">","null","","","","","","","","",""
"","image-keyboard-response","230","163598","0.0-230.0","32Q90QCQ1T7CI739AFDFT16OBXXKER","A1MTQP7TA5RCOB","3XT3KXP24ZKFDDMCDS43FE3AU9W6IW","","1106","img/flower2.png","75","1106","2","0","3","1","1,0.333,0.333,0.333,1,0.333,0.333,0.333,1","1,0.333,0.333,0.333,1,0.333,0.333,0.333,1","1",""
"","html-keyboard-response","231","163900","0.0-231.0","32Q90QCQ1T7CI739AFDFT16OBXXKER","A1MTQP7TA5RCOB","3XT3KXP24ZKFDDMCDS43FE3AU9W6IW","","null","<img src=""img/flower2.png"" style=""width:200px;border:14px solid red;"">","null","","","","","","","","",""
"","image-keyboard-response","232","164614","0.0-232.0","32Q90QCQ1T7CI739AFDFT16OBXXKER","A1MTQP7TA5RCOB","3XT3KXP24ZKFDDMCDS43FE3AU9W6IW","","714","img/flower2.png","76","714","3","1","3","1","1,0.333,0.333,0.333,1,0.333,0.333,0.333,1","1,0.333,0.333,0.333,1,0.333,0.333,0.333,1","1",""
"","html-keyboard-response","233","164916","0.0-233.0","32Q90QCQ1T7CI739AFDFT16OBXXKER","A1MTQP7TA5RCOB","3XT3KXP24ZKFDDMCDS43FE3AU9W6IW","","null","<img src=""img/flower2.png"" style=""width:200px; border:14px solid green;"">","null","","","","","","","","",""
"","image-keyboard-response","234","165390","0.0-234.0","32Q90QCQ1T7CI739AFDFT16OBXXKER","A1MTQP7TA5RCOB","3XT3KXP24ZKFDDMCDS43FE3AU9W6IW","","474","img/flower2.png","76","474","3","1","3","1","1,0.333,0.333,0.333,1,0.333,0.333,0.333,1","1,0.333,0.333,0.333,1,0.333,0.333,0.333,1","1",""
"","html-keyboard-response","235","165692","0.0-235.0","32Q90QCQ1T7CI739AFDFT16OBXXKER","A1MTQP7TA5RCOB","3XT3KXP24ZKFDDMCDS43FE3AU9W6IW","","null","<img src=""img/flower2.png"" style=""width:200px; border:14px solid green;"">","null","","","","","","","","",""
"","image-keyboard-response","236","166822","0.0-236.0","32Q90QCQ1T7CI739AFDFT16OBXXKER","A1MTQP7TA5RCOB","3XT3KXP24ZKFDDMCDS43FE3AU9W6IW","","1129","img/flower3.png","75","1129","2","1","2","1","1,0.333,0.333,0.333,1,0.333,0.333,0.333,1","1,0.333,0.333,0.333,1,0.333,0.333,0.333,1","1",""
"","html-keyboard-response","237","167124","0.0-237.0","32Q90QCQ1T7CI739AFDFT16OBXXKER","A1MTQP7TA5RCOB","3XT3KXP24ZKFDDMCDS43FE3AU9W6IW","","null","<img src=""img/flower3.png"" style=""width:200px; border:14px solid green;"">","null","","","","","","","","",""
"","image-keyboard-response","238","167990","0.0-238.0","32Q90QCQ1T7CI739AFDFT16OBXXKER","A1MTQP7TA5RCOB","3XT3KXP24ZKFDDMCDS43FE3AU9W6IW","","866","img/flower5.png","74","866","1","1","1","1","1,0.333,0.333,0.333,1,0.333,0.333,0.333,1","1,0.333,0.333,0.333,1,0.333,0.333,0.333,1","1",""
"","html-keyboard-response","239","168291","0.0-239.0","32Q90QCQ1T7CI739AFDFT16OBXXKER","A1MTQP7TA5RCOB","3XT3KXP24ZKFDDMCDS43FE3AU9W6IW","","null","<img src=""img/flower5.png"" style=""width:200px; border:14px solid green;"">","null","","","","","","","","",""
"","image-keyboard-response","240","169415","0.0-240.0","32Q90QCQ1T7CI739AFDFT16OBXXKER","A1MTQP7TA5RCOB","3XT3KXP24ZKFDDMCDS43FE3AU9W6IW","","1122","img/flower3.png","76","1122","3","0","2","1","1,0.333,0.333,0.333,1,0.333,0.333,0.333,1","1,0.333,0.333,0.333,1,0.333,0.333,0.333,1","1",""
"","html-keyboard-response","241","169716","0.0-241.0","32Q90QCQ1T7CI739AFDFT16OBXXKER","A1MTQP7TA5RCOB","3XT3KXP24ZKFDDMCDS43FE3AU9W6IW","","null","<img src=""img/flower3.png"" style=""width:200px;border:14px solid red;"">","null","","","","","","","","",""
"","image-keyboard-response","242","170255","0.0-242.0","32Q90QCQ1T7CI739AFDFT16OBXXKER","A1MTQP7TA5RCOB","3XT3KXP24ZKFDDMCDS43FE3AU9W6IW","","538","img/flower5.png","76","538","3","0","1","1","1,0.333,0.333,0.333,1,0.333,0.333,0.333,1","1,0.333,0.333,0.333,1,0.333,0.333,0.333,1","1",""
"","html-keyboard-response","243","170556","0.0-243.0","32Q90QCQ1T7CI739AFDFT16OBXXKER","A1MTQP7TA5RCOB","3XT3KXP24ZKFDDMCDS43FE3AU9W6IW","","null","<img src=""img/flower5.png"" style=""width:200px;border:14px solid red;"">","null","","","","","","","","",""
"","image-keyboard-response","244","170926","0.0-244.0","32Q90QCQ1T7CI739AFDFT16OBXXKER","A1MTQP7TA5RCOB","3XT3KXP24ZKFDDMCDS43FE3AU9W6IW","","369","img/flower5.png","74","370","1","1","1","1","1,0.333,0.333,0.333,1,0.333,0.333,0.333,1","1,0.333,0.333,0.333,1,0.333,0.333,0.333,1","1",""
"","html-keyboard-response","245","171229","0.0-245.0","32Q90QCQ1T7CI739AFDFT16OBXXKER","A1MTQP7TA5RCOB","3XT3KXP24ZKFDDMCDS43FE3AU9W6IW","","null","<img src=""img/flower5.png"" style=""width:200px; border:14px solid green;"">","null","","","","","","","","",""
"","image-keyboard-response","246","171998","0.0-246.0","32Q90QCQ1T7CI739AFDFT16OBXXKER","A1MTQP7TA5RCOB","3XT3KXP24ZKFDDMCDS43FE3AU9W6IW","","770","img/flower3.png","75","770","2","1","2","1","1,0.333,0.333,0.333,1,0.333,0.333,0.333,1","1,0.333,0.333,0.333,1,0.333,0.333,0.333,1","1",""
"","html-keyboard-response","247","172301","0.0-247.0","32Q90QCQ1T7CI739AFDFT16OBXXKER","A1MTQP7TA5RCOB","3XT3KXP24ZKFDDMCDS43FE3AU9W6IW","","null","<img src=""img/flower3.png"" style=""width:200px; border:14px solid green;"">","null","","","","","","","","",""
"","image-keyboard-response","248","173814","0.0-248.0","32Q90QCQ1T7CI739AFDFT16OBXXKER","A1MTQP7TA5RCOB","3XT3KXP24ZKFDDMCDS43FE3AU9W6IW","","1513","img/flower2.png","75","1513","2","0","3","1","1,0.333,0.333,0.333,1,0.333,0.333,0.333,1","1,0.333,0.333,0.333,1,0.333,0.333,0.333,1","1",""
"","html-keyboard-response","249","174116","0.0-249.0","32Q90QCQ1T7CI739AFDFT16OBXXKER","A1MTQP7TA5RCOB","3XT3KXP24ZKFDDMCDS43FE3AU9W6IW","","null","<img src=""img/flower2.png"" style=""width:200px;border:14px solid red;"">","null","","","","","","","","",""
"","image-keyboard-response","250","174782","0.0-250.0","32Q90QCQ1T7CI739AFDFT16OBXXKER","A1MTQP7TA5RCOB","3XT3KXP24ZKFDDMCDS43FE3AU9W6IW","","666","img/flower5.png","74","666","1","1","1","1","1,0.333,0.333,0.333,1,0.333,0.333,0.333,1","1,0.333,0.333,0.333,1,0.333,0.333,0.333,1","1",""
"","html-keyboard-response","251","175084","0.0-251.0","32Q90QCQ1T7CI739AFDFT16OBXXKER","A1MTQP7TA5RCOB","3XT3KXP24ZKFDDMCDS43FE3AU9W6IW","","null","<img src=""img/flower5.png"" style=""width:200px; border:14px solid green;"">","null","","","","","","","","",""
"","image-keyboard-response","252","175911","0.0-252.0","32Q90QCQ1T7CI739AFDFT16OBXXKER","A1MTQP7TA5RCOB","3XT3KXP24ZKFDDMCDS43FE3AU9W6IW","","826","img/flower3.png","75","826","2","1","2","1","1,0.333,0.333,0.333,1,0.333,0.333,0.333,1","1,0.333,0.333,0.333,1,0.333,0.333,0.333,1","1",""
"","html-keyboard-response","253","176222","0.0-253.0","32Q90QCQ1T7CI739AFDFT16OBXXKER","A1MTQP7TA5RCOB","3XT3KXP24ZKFDDMCDS43FE3AU9W6IW","","null","<img src=""img/flower3.png"" style=""width:200px; border:14px solid green;"">","null","","","","","","","","",""
"","image-keyboard-response","254","176903","0.0-254.0","32Q90QCQ1T7CI739AFDFT16OBXXKER","A1MTQP7TA5RCOB","3XT3KXP24ZKFDDMCDS43FE3AU9W6IW","","681","img/flower5.png","76","681","3","1","1","1","1,0.333,0.333,0.333,1,0.333,0.333,0.333,1","1,0.333,0.333,0.333,1,0.333,0.333,0.333,1","1",""
"","html-keyboard-response","255","177204","0.0-255.0","32Q90QCQ1T7CI739AFDFT16OBXXKER","A1MTQP7TA5RCOB","3XT3KXP24ZKFDDMCDS43FE3AU9W6IW","","null","<img src=""img/flower5.png"" style=""width:200px; border:14px solid green;"">","null","","","","","","","","",""
"","image-keyboard-response","256","178294","0.0-256.0","32Q90QCQ1T7CI739AFDFT16OBXXKER","A1MTQP7TA5RCOB","3XT3KXP24ZKFDDMCDS43FE3AU9W6IW","","1088","img/flower3.png","76","1089","3","1","2","1","1,0.333,0.333,0.333,1,0.333,0.333,0.333,1","1,0.333,0.333,0.333,1,0.333,0.333,0.333,1","1",""
"","html-keyboard-response","257","178596","0.0-257.0","32Q90QCQ1T7CI739AFDFT16OBXXKER","A1MTQP7TA5RCOB","3XT3KXP24ZKFDDMCDS43FE3AU9W6IW","","null","<img src=""img/flower3.png"" style=""width:200px; border:14px solid green;"">","null","","","","","","","","",""
"","image-keyboard-response","258","179446","0.0-258.0","32Q90QCQ1T7CI739AFDFT16OBXXKER","A1MTQP7TA5RCOB","3XT3KXP24ZKFDDMCDS43FE3AU9W6IW","","849","img/flower5.png","74","850","1","1","1","1","1,0.333,0.333,0.333,1,0.333,0.333,0.333,1","1,0.333,0.333,0.333,1,0.333,0.333,0.333,1","1",""
"","html-keyboard-response","259","179749","0.0-259.0","32Q90QCQ1T7CI739AFDFT16OBXXKER","A1MTQP7TA5RCOB","3XT3KXP24ZKFDDMCDS43FE3AU9W6IW","","null","<img src=""img/flower5.png"" style=""width:200px; border:14px solid green;"">","null","","","","","","","","",""
"","image-keyboard-response","260","180398","0.0-260.0","32Q90QCQ1T7CI739AFDFT16OBXXKER","A1MTQP7TA5RCOB","3XT3KXP24ZKFDDMCDS43FE3AU9W6IW","","649","img/flower3.png","76","649","3","0","2","1","1,0.333,0.333,0.333,1,0.333,0.333,0.333,1","1,0.333,0.333,0.333,1,0.333,0.333,0.333,1","1",""
"","html-keyboard-response","261","180701","0.0-261.0","32Q90QCQ1T7CI739AFDFT16OBXXKER","A1MTQP7TA5RCOB","3XT3KXP24ZKFDDMCDS43FE3AU9W6IW","","null","<img src=""img/flower3.png"" style=""width:200px;border:14px solid red;"">","null","","","","","","","","",""
"","image-keyboard-response","262","181447","0.0-262.0","32Q90QCQ1T7CI739AFDFT16OBXXKER","A1MTQP7TA5RCOB","3XT3KXP24ZKFDDMCDS43FE3AU9W6IW","","744","img/flower3.png","76","745","3","0","2","1","1,0.333,0.333,0.333,1,0.333,0.333,0.333,1","1,0.333,0.333,0.333,1,0.333,0.333,0.333,1","1",""
"","html-keyboard-response","263","181749","0.0-263.0","32Q90QCQ1T7CI739AFDFT16OBXXKER","A1MTQP7TA5RCOB","3XT3KXP24ZKFDDMCDS43FE3AU9W6IW","","null","<img src=""img/flower3.png"" style=""width:200px;border:14px solid red;"">","null","","","","","","","","",""
"","image-keyboard-response","264","182408","0.0-264.0","32Q90QCQ1T7CI739AFDFT16OBXXKER","A1MTQP7TA5RCOB","3XT3KXP24ZKFDDMCDS43FE3AU9W6IW","","657","img/flower5.png","74","657","1","1","1","1","1,0.333,0.333,0.333,1,0.333,0.333,0.333,1","1,0.333,0.333,0.333,1,0.333,0.333,0.333,1","1",""
"","html-keyboard-response","265","182714","0.0-265.0","32Q90QCQ1T7CI739AFDFT16OBXXKER","A1MTQP7TA5RCOB","3XT3KXP24ZKFDDMCDS43FE3AU9W6IW","","null","<img src=""img/flower5.png"" style=""width:200px; border:14px solid green;"">","null","","","","","","","","",""
"","image-keyboard-response","266","183575","0.0-266.0","32Q90QCQ1T7CI739AFDFT16OBXXKER","A1MTQP7TA5RCOB","3XT3KXP24ZKFDDMCDS43FE3AU9W6IW","","861","img/flower3.png","76","862","3","1","2","1","1,0.333,0.333,0.333,1,0.333,0.333,0.333,1","1,0.333,0.333,0.333,1,0.333,0.333,0.333,1","1",""
"","html-keyboard-response","267","183882","0.0-267.0","32Q90QCQ1T7CI739AFDFT16OBXXKER","A1MTQP7TA5RCOB","3XT3KXP24ZKFDDMCDS43FE3AU9W6IW","","null","<img src=""img/flower3.png"" style=""width:200px; border:14px solid green;"">","null","","","","","","","","",""
"","image-keyboard-response","268","184615","0.0-268.0","32Q90QCQ1T7CI739AFDFT16OBXXKER","A1MTQP7TA5RCOB","3XT3KXP24ZKFDDMCDS43FE3AU9W6IW","","734","img/flower5.png","74","734","1","1","1","1","1,0.333,0.333,0.333,1,0.333,0.333,0.333,1","1,0.333,0.333,0.333,1,0.333,0.333,0.333,1","1",""
"","html-keyboard-response","269","184917","0.0-269.0","32Q90QCQ1T7CI739AFDFT16OBXXKER","A1MTQP7TA5RCOB","3XT3KXP24ZKFDDMCDS43FE3AU9W6IW","","null","<img src=""img/flower5.png"" style=""width:200px; border:14px solid green;"">","null","","","","","","","","",""
"","image-keyboard-response","270","185415","0.0-270.0","32Q90QCQ1T7CI739AFDFT16OBXXKER","A1MTQP7TA5RCOB","3XT3KXP24ZKFDDMCDS43FE3AU9W6IW","","498","img/flower5.png","74","498","1","1","1","1","1,0.333,0.333,0.333,1,0.333,0.333,0.333,1","1,0.333,0.333,0.333,1,0.333,0.333,0.333,1","1",""
"","html-keyboard-response","271","185731","0.0-271.0","32Q90QCQ1T7CI739AFDFT16OBXXKER","A1MTQP7TA5RCOB","3XT3KXP24ZKFDDMCDS43FE3AU9W6IW","","null","<img src=""img/flower5.png"" style=""width:200px; border:14px solid green;"">","null","","","","","","","","",""
"","image-keyboard-response","272","186767","0.0-272.0","32Q90QCQ1T7CI739AFDFT16OBXXKER","A1MTQP7TA5RCOB","3XT3KXP24ZKFDDMCDS43FE3AU9W6IW","","1035","img/flower2.png","75","1036","2","0","3","1","1,0.333,0.333,0.333,1,0.333,0.333,0.333,1","1,0.333,0.333,0.333,1,0.333,0.333,0.333,1","1",""
"","html-keyboard-response","273","187068","0.0-273.0","32Q90QCQ1T7CI739AFDFT16OBXXKER","A1MTQP7TA5RCOB","3XT3KXP24ZKFDDMCDS43FE3AU9W6IW","","null","<img src=""img/flower2.png"" style=""width:200px;border:14px solid red;"">","null","","","","","","","","",""
"","image-keyboard-response","274","187983","0.0-274.0","32Q90QCQ1T7CI739AFDFT16OBXXKER","A1MTQP7TA5RCOB","3XT3KXP24ZKFDDMCDS43FE3AU9W6IW","","915","img/flower3.png","76","916","3","0","2","1","1,0.333,0.333,0.333,1,0.333,0.333,0.333,1","1,0.333,0.333,0.333,1,0.333,0.333,0.333,1","1",""
"","html-keyboard-response","275","188285","0.0-275.0","32Q90QCQ1T7CI739AFDFT16OBXXKER","A1MTQP7TA5RCOB","3XT3KXP24ZKFDDMCDS43FE3AU9W6IW","","null","<img src=""img/flower3.png"" style=""width:200px;border:14px solid red;"">","null","","","","","","","","",""
"","image-keyboard-response","276","189159","0.0-276.0","32Q90QCQ1T7CI739AFDFT16OBXXKER","A1MTQP7TA5RCOB","3XT3KXP24ZKFDDMCDS43FE3AU9W6IW","","875","img/flower5.png","74","875","1","1","1","1","1,0.333,0.333,0.333,1,0.333,0.333,0.333,1","1,0.333,0.333,0.333,1,0.333,0.333,0.333,1","1",""
"","html-keyboard-response","277","189460","0.0-277.0","32Q90QCQ1T7CI739AFDFT16OBXXKER","A1MTQP7TA5RCOB","3XT3KXP24ZKFDDMCDS43FE3AU9W6IW","","null","<img src=""img/flower5.png"" style=""width:200px; border:14px solid green;"">","null","","","","","","","","",""
"","image-keyboard-response","278","190287","0.0-278.0","32Q90QCQ1T7CI739AFDFT16OBXXKER","A1MTQP7TA5RCOB","3XT3KXP24ZKFDDMCDS43FE3AU9W6IW","","826","img/flower2.png","76","826","3","1","3","1","1,0.333,0.333,0.333,1,0.333,0.333,0.333,1","1,0.333,0.333,0.333,1,0.333,0.333,0.333,1","1",""
"","html-keyboard-response","279","190588","0.0-279.0","32Q90QCQ1T7CI739AFDFT16OBXXKER","A1MTQP7TA5RCOB","3XT3KXP24ZKFDDMCDS43FE3AU9W6IW","","null","<img src=""img/flower2.png"" style=""width:200px; border:14px solid green;"">","null","","","","","","","","",""
"","image-keyboard-response","280","191367","0.0-280.0","32Q90QCQ1T7CI739AFDFT16OBXXKER","A1MTQP7TA5RCOB","3XT3KXP24ZKFDDMCDS43FE3AU9W6IW","","778","img/flower5.png","74","780","1","1","1","1","1,0.333,0.333,0.333,1,0.333,0.333,0.333,1","1,0.333,0.333,0.333,1,0.333,0.333,0.333,1","1",""
"","html-keyboard-response","281","191668","0.0-281.0","32Q90QCQ1T7CI739AFDFT16OBXXKER","A1MTQP7TA5RCOB","3XT3KXP24ZKFDDMCDS43FE3AU9W6IW","","null","<img src=""img/flower5.png"" style=""width:200px; border:14px solid green;"">","null","","","","","","","","",""
"","image-keyboard-response","282","192247","0.0-282.0","32Q90QCQ1T7CI739AFDFT16OBXXKER","A1MTQP7TA5RCOB","3XT3KXP24ZKFDDMCDS43FE3AU9W6IW","","577","img/flower5.png","74","578","1","1","1","1","1,0.333,0.333,0.333,1,0.333,0.333,0.333,1","1,0.333,0.333,0.333,1,0.333,0.333,0.333,1","1",""
"","html-keyboard-response","283","192548","0.0-283.0","32Q90QCQ1T7CI739AFDFT16OBXXKER","A1MTQP7TA5RCOB","3XT3KXP24ZKFDDMCDS43FE3AU9W6IW","","null","<img src=""img/flower5.png"" style=""width:200px; border:14px solid green;"">","null","","","","","","","","",""
"","image-keyboard-response","284","193407","0.0-284.0","32Q90QCQ1T7CI739AFDFT16OBXXKER","A1MTQP7TA5RCOB","3XT3KXP24ZKFDDMCDS43FE3AU9W6IW","","858","img/flower3.png","75","858","2","1","2","1","1,0.333,0.333,0.333,1,0.333,0.333,0.333,1","1,0.333,0.333,0.333,1,0.333,0.333,0.333,1","1",""
"","html-keyboard-response","285","193709","0.0-285.0","32Q90QCQ1T7CI739AFDFT16OBXXKER","A1MTQP7TA5RCOB","3XT3KXP24ZKFDDMCDS43FE3AU9W6IW","","null","<img src=""img/flower3.png"" style=""width:200px; border:14px solid green;"">","null","","","","","","","","",""
"","image-keyboard-response","286","194167","0.0-286.0","32Q90QCQ1T7CI739AFDFT16OBXXKER","A1MTQP7TA5RCOB","3XT3KXP24ZKFDDMCDS43FE3AU9W6IW","","458","img/flower3.png","75","458","2","1","2","1","1,0.333,0.333,0.333,1,0.333,0.333,0.333,1","1,0.333,0.333,0.333,1,0.333,0.333,0.333,1","1",""
"","html-keyboard-response","287","194469","0.0-287.0","32Q90QCQ1T7CI739AFDFT16OBXXKER","A1MTQP7TA5RCOB","3XT3KXP24ZKFDDMCDS43FE3AU9W6IW","","null","<img src=""img/flower3.png"" style=""width:200px; border:14px solid green;"">","null","","","","","","","","",""
"","image-keyboard-response","288","195831","0.0-288.0","32Q90QCQ1T7CI739AFDFT16OBXXKER","A1MTQP7TA5RCOB","3XT3KXP24ZKFDDMCDS43FE3AU9W6IW","","1362","img/flower2.png","76","1362","3","1","3","1","1,0.333,0.333,0.333,1,0.333,0.333,0.333,1","1,0.333,0.333,0.333,1,0.333,0.333,0.333,1","1",""
"","html-keyboard-response","289","196133","0.0-289.0","32Q90QCQ1T7CI739AFDFT16OBXXKER","A1MTQP7TA5RCOB","3XT3KXP24ZKFDDMCDS43FE3AU9W6IW","","null","<img src=""img/flower2.png"" style=""width:200px; border:14px solid green;"">","null","","","","","","","","",""
"","image-keyboard-response","290","196983","0.0-290.0","32Q90QCQ1T7CI739AFDFT16OBXXKER","A1MTQP7TA5RCOB","3XT3KXP24ZKFDDMCDS43FE3AU9W6IW","","849","img/flower3.png","75","850","2","1","2","1","1,0.333,0.333,0.333,1,0.333,0.333,0.333,1","1,0.333,0.333,0.333,1,0.333,0.333,0.333,1","1",""
"","html-keyboard-response","291","197286","0.0-291.0","32Q90QCQ1T7CI739AFDFT16OBXXKER","A1MTQP7TA5RCOB","3XT3KXP24ZKFDDMCDS43FE3AU9W6IW","","null","<img src=""img/flower3.png"" style=""width:200px; border:14px solid green;"">","null","","","","","","","","",""
"","image-keyboard-response","292","197831","0.0-292.0","32Q90QCQ1T7CI739AFDFT16OBXXKER","A1MTQP7TA5RCOB","3XT3KXP24ZKFDDMCDS43FE3AU9W6IW","","544","img/flower3.png","75","544","2","1","2","1","1,0.333,0.333,0.333,1,0.333,0.333,0.333,1","1,0.333,0.333,0.333,1,0.333,0.333,0.333,1","1",""
"","html-keyboard-response","293","198132","0.0-293.0","32Q90QCQ1T7CI739AFDFT16OBXXKER","A1MTQP7TA5RCOB","3XT3KXP24ZKFDDMCDS43FE3AU9W6IW","","null","<img src=""img/flower3.png"" style=""width:200px; border:14px solid green;"">","null","","","","","","","","",""
"","image-keyboard-response","294","198831","0.0-294.0","32Q90QCQ1T7CI739AFDFT16OBXXKER","A1MTQP7TA5RCOB","3XT3KXP24ZKFDDMCDS43FE3AU9W6IW","","699","img/flower2.png","76","700","3","1","3","1","1,0.333,0.333,0.333,1,0.333,0.333,0.333,1","1,0.333,0.333,0.333,1,0.333,0.333,0.333,1","1",""
"","html-keyboard-response","295","199134","0.0-295.0","32Q90QCQ1T7CI739AFDFT16OBXXKER","A1MTQP7TA5RCOB","3XT3KXP24ZKFDDMCDS43FE3AU9W6IW","","null","<img src=""img/flower2.png"" style=""width:200px; border:14px solid green;"">","null","","","","","","","","",""
"","image-keyboard-response","296","200047","0.0-296.0","32Q90QCQ1T7CI739AFDFT16OBXXKER","A1MTQP7TA5RCOB","3XT3KXP24ZKFDDMCDS43FE3AU9W6IW","","913","img/flower5.png","74","913","1","1","1","1","1,0.333,0.333,0.333,1,0.333,0.333,0.333,1","1,0.333,0.333,0.333,1,0.333,0.333,0.333,1","1",""
"","html-keyboard-response","297","200349","0.0-297.0","32Q90QCQ1T7CI739AFDFT16OBXXKER","A1MTQP7TA5RCOB","3XT3KXP24ZKFDDMCDS43FE3AU9W6IW","","null","<img src=""img/flower5.png"" style=""width:200px; border:14px solid green;"">","null","","","","","","","","",""
"","image-keyboard-response","298","201078","0.0-298.0","32Q90QCQ1T7CI739AFDFT16OBXXKER","A1MTQP7TA5RCOB","3XT3KXP24ZKFDDMCDS43FE3AU9W6IW","","729","img/flower2.png","76","729","3","1","3","1","1,0.333,0.333,0.333,1,0.333,0.333,0.333,1","1,0.333,0.333,0.333,1,0.333,0.333,0.333,1","1",""
"","html-keyboard-response","299","201379","0.0-299.0","32Q90QCQ1T7CI739AFDFT16OBXXKER","A1MTQP7TA5RCOB","3XT3KXP24ZKFDDMCDS43FE3AU9W6IW","","null","<img src=""img/flower2.png"" style=""width:200px; border:14px solid green;"">","null","","","","","","","","",""
"","image-keyboard-response","300","201975","0.0-300.0","32Q90QCQ1T7CI739AFDFT16OBXXKER","A1MTQP7TA5RCOB","3XT3KXP24ZKFDDMCDS43FE3AU9W6IW","","595","img/flower5.png","74","596","1","1","1","1","1,0.333,0.333,0.333,1,0.333,0.333,0.333,1","1,0.333,0.333,0.333,1,0.333,0.333,0.333,1","1",""
"","html-keyboard-response","301","202278","0.0-301.0","32Q90QCQ1T7CI739AFDFT16OBXXKER","A1MTQP7TA5RCOB","3XT3KXP24ZKFDDMCDS43FE3AU9W6IW","","null","<img src=""img/flower5.png"" style=""width:200px; border:14px solid green;"">","null","","","","","","","","",""
"","image-keyboard-response","302","203095","0.0-302.0","32Q90QCQ1T7CI739AFDFT16OBXXKER","A1MTQP7TA5RCOB","3XT3KXP24ZKFDDMCDS43FE3AU9W6IW","","817","img/flower3.png","75","818","2","1","2","1","1,0.333,0.333,0.333,1,0.333,0.333,0.333,1","1,0.333,0.333,0.333,1,0.333,0.333,0.333,1","1",""
"","html-keyboard-response","303","203397","0.0-303.0","32Q90QCQ1T7CI739AFDFT16OBXXKER","A1MTQP7TA5RCOB","3XT3KXP24ZKFDDMCDS43FE3AU9W6IW","","null","<img src=""img/flower3.png"" style=""width:200px; border:14px solid green;"">","null","","","","","","","","",""
"","image-keyboard-response","304","204134","0.0-304.0","32Q90QCQ1T7CI739AFDFT16OBXXKER","A1MTQP7TA5RCOB","3XT3KXP24ZKFDDMCDS43FE3AU9W6IW","","737","img/flower2.png","76","738","3","1","3","1","1,0.333,0.333,0.333,1,0.333,0.333,0.333,1","1,0.333,0.333,0.333,1,0.333,0.333,0.333,1","1",""
"","html-keyboard-response","305","204437","0.0-305.0","32Q90QCQ1T7CI739AFDFT16OBXXKER","A1MTQP7TA5RCOB","3XT3KXP24ZKFDDMCDS43FE3AU9W6IW","","null","<img src=""img/flower2.png"" style=""width:200px; border:14px solid green;"">","null","","","","","","","","",""
"","image-keyboard-response","306","205319","0.0-306.0","32Q90QCQ1T7CI739AFDFT16OBXXKER","A1MTQP7TA5RCOB","3XT3KXP24ZKFDDMCDS43FE3AU9W6IW","","882","img/flower5.png","74","882","1","1","1","1","1,0.333,0.333,0.333,1,0.333,0.333,0.333,1","1,0.333,0.333,0.333,1,0.333,0.333,0.333,1","1",""
"","html-keyboard-response","307","205620","0.0-307.0","32Q90QCQ1T7CI739AFDFT16OBXXKER","A1MTQP7TA5RCOB","3XT3KXP24ZKFDDMCDS43FE3AU9W6IW","","null","<img src=""img/flower5.png"" style=""width:200px; border:14px solid green;"">","null","","","","","","","","",""
"","image-keyboard-response","308","206375","0.0-308.0","32Q90QCQ1T7CI739AFDFT16OBXXKER","A1MTQP7TA5RCOB","3XT3KXP24ZKFDDMCDS43FE3AU9W6IW","","754","img/flower3.png","75","755","2","1","2","1","1,0.333,0.333,0.333,1,0.333,0.333,0.333,1","1,0.333,0.333,0.333,1,0.333,0.333,0.333,1","1",""
"","html-keyboard-response","309","206677","0.0-309.0","32Q90QCQ1T7CI739AFDFT16OBXXKER","A1MTQP7TA5RCOB","3XT3KXP24ZKFDDMCDS43FE3AU9W6IW","","null","<img src=""img/flower3.png"" style=""width:200px; border:14px solid green;"">","null","","","","","","","","",""
"","image-keyboard-response","310","207231","0.0-310.0","32Q90QCQ1T7CI739AFDFT16OBXXKER","A1MTQP7TA5RCOB","3XT3KXP24ZKFDDMCDS43FE3AU9W6IW","","552","img/flower3.png","75","553","2","1","2","1","1,0.333,0.333,0.333,1,0.333,0.333,0.333,1","1,0.333,0.333,0.333,1,0.333,0.333,0.333,1","1",""
"","html-keyboard-response","311","207532","0.0-311.0","32Q90QCQ1T7CI739AFDFT16OBXXKER","A1MTQP7TA5RCOB","3XT3KXP24ZKFDDMCDS43FE3AU9W6IW","","null","<img src=""img/flower3.png"" style=""width:200px; border:14px solid green;"">","null","","","","","","","","",""
"","image-keyboard-response","312","208503","0.0-312.0","32Q90QCQ1T7CI739AFDFT16OBXXKER","A1MTQP7TA5RCOB","3XT3KXP24ZKFDDMCDS43FE3AU9W6IW","","970","img/flower5.png","74","970","1","1","1","1","1,0.333,0.333,0.333,1,0.333,0.333,0.333,1","1,0.333,0.333,0.333,1,0.333,0.333,0.333,1","1",""
"","html-keyboard-response","313","208805","0.0-313.0","32Q90QCQ1T7CI739AFDFT16OBXXKER","A1MTQP7TA5RCOB","3XT3KXP24ZKFDDMCDS43FE3AU9W6IW","","null","<img src=""img/flower5.png"" style=""width:200px; border:14px solid green;"">","null","","","","","","","","",""
"","image-keyboard-response","314","209374","0.0-314.0","32Q90QCQ1T7CI739AFDFT16OBXXKER","A1MTQP7TA5RCOB","3XT3KXP24ZKFDDMCDS43FE3AU9W6IW","","568","img/flower2.png","76","569","3","1","3","1","1,0.333,0.333,0.333,1,0.333,0.333,0.333,1","1,0.333,0.333,0.333,1,0.333,0.333,0.333,1","1",""
"","html-keyboard-response","315","209676","0.0-315.0","32Q90QCQ1T7CI739AFDFT16OBXXKER","A1MTQP7TA5RCOB","3XT3KXP24ZKFDDMCDS43FE3AU9W6IW","","null","<img src=""img/flower2.png"" style=""width:200px; border:14px solid green;"">","null","","","","","","","","",""
"","image-keyboard-response","316","210719","0.0-316.0","32Q90QCQ1T7CI739AFDFT16OBXXKER","A1MTQP7TA5RCOB","3XT3KXP24ZKFDDMCDS43FE3AU9W6IW","","1041","img/flower5.png","74","1043","1","1","1","1","1,0.333,0.333,0.333,1,0.333,0.333,0.333,1","1,0.333,0.333,0.333,1,0.333,0.333,0.333,1","1",""
"","html-keyboard-response","317","211020","0.0-317.0","32Q90QCQ1T7CI739AFDFT16OBXXKER","A1MTQP7TA5RCOB","3XT3KXP24ZKFDDMCDS43FE3AU9W6IW","","null","<img src=""img/flower5.png"" style=""width:200px; border:14px solid green;"">","null","","","","","","","","",""
"","image-keyboard-response","318","211839","0.0-318.0","32Q90QCQ1T7CI739AFDFT16OBXXKER","A1MTQP7TA5RCOB","3XT3KXP24ZKFDDMCDS43FE3AU9W6IW","","818","img/flower2.png","76","818","3","1","3","1","1,0.333,0.333,0.333,1,0.333,0.333,0.333,1","1,0.333,0.333,0.333,1,0.333,0.333,0.333,1","1",""
"","html-keyboard-response","319","212140","0.0-319.0","32Q90QCQ1T7CI739AFDFT16OBXXKER","A1MTQP7TA5RCOB","3XT3KXP24ZKFDDMCDS43FE3AU9W6IW","","null","<img src=""img/flower2.png"" style=""width:200px; border:14px solid green;"">","null","","","","","","","","",""
"","image-keyboard-response","320","212791","0.0-320.0","32Q90QCQ1T7CI739AFDFT16OBXXKER","A1MTQP7TA5RCOB","3XT3KXP24ZKFDDMCDS43FE3AU9W6IW","","650","img/flower5.png","74","651","1","1","1","1","1,0.333,0.333,0.333,1,0.333,0.333,0.333,1","1,0.333,0.333,0.333,1,0.333,0.333,0.333,1","1",""
"","html-keyboard-response","321","213093","0.0-321.0","32Q90QCQ1T7CI739AFDFT16OBXXKER","A1MTQP7TA5RCOB","3XT3KXP24ZKFDDMCDS43FE3AU9W6IW","","null","<img src=""img/flower5.png"" style=""width:200px; border:14px solid green;"">","null","","","","","","","","",""
"","image-keyboard-response","322","213711","0.0-322.0","32Q90QCQ1T7CI739AFDFT16OBXXKER","A1MTQP7TA5RCOB","3XT3KXP24ZKFDDMCDS43FE3AU9W6IW","","618","img/flower2.png","76","618","3","1","3","1","1,0.333,0.333,0.333,1,0.333,0.333,0.333,1","1,0.333,0.333,0.333,1,0.333,0.333,0.333,1","1",""
"","html-keyboard-response","323","214013","0.0-323.0","32Q90QCQ1T7CI739AFDFT16OBXXKER","A1MTQP7TA5RCOB","3XT3KXP24ZKFDDMCDS43FE3AU9W6IW","","null","<img src=""img/flower2.png"" style=""width:200px; border:14px solid green;"">","null","","","","","","","","",""
"","image-keyboard-response","324","214638","0.0-324.0","32Q90QCQ1T7CI739AFDFT16OBXXKER","A1MTQP7TA5RCOB","3XT3KXP24ZKFDDMCDS43FE3AU9W6IW","","624","img/flower2.png","76","625","3","1","3","1","1,0.333,0.333,0.333,1,0.333,0.333,0.333,1","1,0.333,0.333,0.333,1,0.333,0.333,0.333,1","1",""
"","html-keyboard-response","325","214941","0.0-325.0","32Q90QCQ1T7CI739AFDFT16OBXXKER","A1MTQP7TA5RCOB","3XT3KXP24ZKFDDMCDS43FE3AU9W6IW","","null","<img src=""img/flower2.png"" style=""width:200px; border:14px solid green;"">","null","","","","","","","","",""
"","image-keyboard-response","326","215606","0.0-326.0","32Q90QCQ1T7CI739AFDFT16OBXXKER","A1MTQP7TA5RCOB","3XT3KXP24ZKFDDMCDS43FE3AU9W6IW","","665","img/flower5.png","74","666","1","1","1","1","1,0.333,0.333,0.333,1,0.333,0.333,0.333,1","1,0.333,0.333,0.333,1,0.333,0.333,0.333,1","1",""
"","html-keyboard-response","327","215908","0.0-327.0","32Q90QCQ1T7CI739AFDFT16OBXXKER","A1MTQP7TA5RCOB","3XT3KXP24ZKFDDMCDS43FE3AU9W6IW","","null","<img src=""img/flower5.png"" style=""width:200px; border:14px solid green;"">","null","","","","","","","","",""
"","image-keyboard-response","328","216655","0.0-328.0","32Q90QCQ1T7CI739AFDFT16OBXXKER","A1MTQP7TA5RCOB","3XT3KXP24ZKFDDMCDS43FE3AU9W6IW","","746","img/flower3.png","75","747","2","1","2","1","1,0.333,0.333,0.333,1,0.333,0.333,0.333,1","1,0.333,0.333,0.333,1,0.333,0.333,0.333,1","1",""
"","html-keyboard-response","329","216956","0.0-329.0","32Q90QCQ1T7CI739AFDFT16OBXXKER","A1MTQP7TA5RCOB","3XT3KXP24ZKFDDMCDS43FE3AU9W6IW","","null","<img src=""img/flower3.png"" style=""width:200px; border:14px solid green;"">","null","","","","","","","","",""
"","image-keyboard-response","330","217759","0.0-330.0","32Q90QCQ1T7CI739AFDFT16OBXXKER","A1MTQP7TA5RCOB","3XT3KXP24ZKFDDMCDS43FE3AU9W6IW","","802","img/flower2.png","76","803","3","1","3","1","1,0.333,0.333,0.333,1,0.333,0.333,0.333,1","1,0.333,0.333,0.333,1,0.333,0.333,0.333,1","1",""
"","html-keyboard-response","331","218061","0.0-331.0","32Q90QCQ1T7CI739AFDFT16OBXXKER","A1MTQP7TA5RCOB","3XT3KXP24ZKFDDMCDS43FE3AU9W6IW","","null","<img src=""img/flower2.png"" style=""width:200px; border:14px solid green;"">","null","","","","","","","","",""
"","image-keyboard-response","332","218671","0.0-332.0","32Q90QCQ1T7CI739AFDFT16OBXXKER","A1MTQP7TA5RCOB","3XT3KXP24ZKFDDMCDS43FE3AU9W6IW","","608","img/flower2.png","76","610","3","1","3","1","1,0.333,0.333,0.333,1,0.333,0.333,0.333,1","1,0.333,0.333,0.333,1,0.333,0.333,0.333,1","1",""
"","html-keyboard-response","333","218973","0.0-333.0","32Q90QCQ1T7CI739AFDFT16OBXXKER","A1MTQP7TA5RCOB","3XT3KXP24ZKFDDMCDS43FE3AU9W6IW","","null","<img src=""img/flower2.png"" style=""width:200px; border:14px solid green;"">","null","","","","","","","","",""
"","image-keyboard-response","334","219487","0.0-334.0","32Q90QCQ1T7CI739AFDFT16OBXXKER","A1MTQP7TA5RCOB","3XT3KXP24ZKFDDMCDS43FE3AU9W6IW","","513","img/flower2.png","76","514","3","1","3","1","1,0.333,0.333,0.333,1,0.333,0.333,0.333,1","1,0.333,0.333,0.333,1,0.333,0.333,0.333,1","1",""
"","html-keyboard-response","335","219788","0.0-335.0","32Q90QCQ1T7CI739AFDFT16OBXXKER","A1MTQP7TA5RCOB","3XT3KXP24ZKFDDMCDS43FE3AU9W6IW","","null","<img src=""img/flower2.png"" style=""width:200px; border:14px solid green;"">","null","","","","","","","","",""
"","image-keyboard-response","336","220351","0.0-336.0","32Q90QCQ1T7CI739AFDFT16OBXXKER","A1MTQP7TA5RCOB","3XT3KXP24ZKFDDMCDS43FE3AU9W6IW","","561","img/flower5.png","74","563","1","1","1","1","1,0.333,0.333,0.333,1,0.333,0.333,0.333,1","1,0.333,0.333,0.333,1,0.333,0.333,0.333,1","1",""
"","html-keyboard-response","337","220657","0.0-337.0","32Q90QCQ1T7CI739AFDFT16OBXXKER","A1MTQP7TA5RCOB","3XT3KXP24ZKFDDMCDS43FE3AU9W6IW","","null","<img src=""img/flower5.png"" style=""width:200px; border:14px solid green;"">","null","","","","","","","","",""
"","image-keyboard-response","338","221239","0.0-338.0","32Q90QCQ1T7CI739AFDFT16OBXXKER","A1MTQP7TA5RCOB","3XT3KXP24ZKFDDMCDS43FE3AU9W6IW","","581","img/flower2.png","76","581","3","1","3","1","1,0.333,0.333,0.333,1,0.333,0.333,0.333,1","1,0.333,0.333,0.333,1,0.333,0.333,0.333,1","1",""
"","html-keyboard-response","339","221540","0.0-339.0","32Q90QCQ1T7CI739AFDFT16OBXXKER","A1MTQP7TA5RCOB","3XT3KXP24ZKFDDMCDS43FE3AU9W6IW","","null","<img src=""img/flower2.png"" style=""width:200px; border:14px solid green;"">","null","","","","","","","","",""
"","image-keyboard-response","340","222271","0.0-340.0","32Q90QCQ1T7CI739AFDFT16OBXXKER","A1MTQP7TA5RCOB","3XT3KXP24ZKFDDMCDS43FE3AU9W6IW","","729","img/flower3.png","75","731","2","1","2","1","1,0.333,0.333,0.333,1,0.333,0.333,0.333,1","1,0.333,0.333,0.333,1,0.333,0.333,0.333,1","1",""
"","html-keyboard-response","341","222573","0.0-341.0","32Q90QCQ1T7CI739AFDFT16OBXXKER","A1MTQP7TA5RCOB","3XT3KXP24ZKFDDMCDS43FE3AU9W6IW","","null","<img src=""img/flower3.png"" style=""width:200px; border:14px solid green;"">","null","","","","","","","","",""
"","image-keyboard-response","342","223615","0.0-342.0","32Q90QCQ1T7CI739AFDFT16OBXXKER","A1MTQP7TA5RCOB","3XT3KXP24ZKFDDMCDS43FE3AU9W6IW","","1042","img/flower5.png","74","1042","1","1","1","1","1,0.333,0.333,0.333,1,0.333,0.333,0.333,1","1,0.333,0.333,0.333,1,0.333,0.333,0.333,1","1",""
"","html-keyboard-response","343","223916","0.0-343.0","32Q90QCQ1T7CI739AFDFT16OBXXKER","A1MTQP7TA5RCOB","3XT3KXP24ZKFDDMCDS43FE3AU9W6IW","","null","<img src=""img/flower5.png"" style=""width:200px; border:14px solid green;"">","null","","","","","","","","",""
"","image-keyboard-response","344","224487","0.0-344.0","32Q90QCQ1T7CI739AFDFT16OBXXKER","A1MTQP7TA5RCOB","3XT3KXP24ZKFDDMCDS43FE3AU9W6IW","","571","img/flower5.png","74","571","1","1","1","1","1,0.333,0.333,0.333,1,0.333,0.333,0.333,1","1,0.333,0.333,0.333,1,0.333,0.333,0.333,1","1",""
"","html-keyboard-response","345","224789","0.0-345.0","32Q90QCQ1T7CI739AFDFT16OBXXKER","A1MTQP7TA5RCOB","3XT3KXP24ZKFDDMCDS43FE3AU9W6IW","","null","<img src=""img/flower5.png"" style=""width:200px; border:14px solid green;"">","null","","","","","","","","",""
"","image-keyboard-response","346","225999","0.0-346.0","32Q90QCQ1T7CI739AFDFT16OBXXKER","A1MTQP7TA5RCOB","3XT3KXP24ZKFDDMCDS43FE3AU9W6IW","","1209","img/flower3.png","75","1210","2","1","2","1","1,0.333,0.333,0.333,1,0.333,0.333,0.333,1","1,0.333,0.333,0.333,1,0.333,0.333,0.333,1","1",""
"","html-keyboard-response","347","226301","0.0-347.0","32Q90QCQ1T7CI739AFDFT16OBXXKER","A1MTQP7TA5RCOB","3XT3KXP24ZKFDDMCDS43FE3AU9W6IW","","null","<img src=""img/flower3.png"" style=""width:200px; border:14px solid green;"">","null","","","","","","","","",""
"","image-keyboard-response","348","227007","0.0-348.0","32Q90QCQ1T7CI739AFDFT16OBXXKER","A1MTQP7TA5RCOB","3XT3KXP24ZKFDDMCDS43FE3AU9W6IW","","706","img/flower2.png","76","706","3","1","3","1","1,0.333,0.333,0.333,1,0.333,0.333,0.333,1","1,0.333,0.333,0.333,1,0.333,0.333,0.333,1","1",""
"","html-keyboard-response","349","227309","0.0-349.0","32Q90QCQ1T7CI739AFDFT16OBXXKER","A1MTQP7TA5RCOB","3XT3KXP24ZKFDDMCDS43FE3AU9W6IW","","null","<img src=""img/flower2.png"" style=""width:200px; border:14px solid green;"">","null","","","","","","","","",""
"","image-keyboard-response","350","227767","0.0-350.0","32Q90QCQ1T7CI739AFDFT16OBXXKER","A1MTQP7TA5RCOB","3XT3KXP24ZKFDDMCDS43FE3AU9W6IW","","457","img/flower2.png","76","458","3","1","3","1","1,0.333,0.333,0.333,1,0.333,0.333,0.333,1","1,0.333,0.333,0.333,1,0.333,0.333,0.333,1","1",""
"","html-keyboard-response","351","228068","0.0-351.0","32Q90QCQ1T7CI739AFDFT16OBXXKER","A1MTQP7TA5RCOB","3XT3KXP24ZKFDDMCDS43FE3AU9W6IW","","null","<img src=""img/flower2.png"" style=""width:200px; border:14px solid green;"">","null","","","","","","","","",""
"","image-keyboard-response","352","228927","0.0-352.0","32Q90QCQ1T7CI739AFDFT16OBXXKER","A1MTQP7TA5RCOB","3XT3KXP24ZKFDDMCDS43FE3AU9W6IW","","858","img/flower3.png","75","858","2","1","2","1","1,0.333,0.333,0.333,1,0.333,0.333,0.333,1","1,0.333,0.333,0.333,1,0.333,0.333,0.333,1","1",""
"","html-keyboard-response","353","229229","0.0-353.0","32Q90QCQ1T7CI739AFDFT16OBXXKER","A1MTQP7TA5RCOB","3XT3KXP24ZKFDDMCDS43FE3AU9W6IW","","null","<img src=""img/flower3.png"" style=""width:200px; border:14px solid green;"">","null","","","","","","","","",""
"","image-keyboard-response","354","229895","0.0-354.0","32Q90QCQ1T7CI739AFDFT16OBXXKER","A1MTQP7TA5RCOB","3XT3KXP24ZKFDDMCDS43FE3AU9W6IW","","665","img/flower2.png","76","666","3","1","3","1","1,0.333,0.333,0.333,1,0.333,0.333,0.333,1","1,0.333,0.333,0.333,1,0.333,0.333,0.333,1","1",""
"","html-keyboard-response","355","230197","0.0-355.0","32Q90QCQ1T7CI739AFDFT16OBXXKER","A1MTQP7TA5RCOB","3XT3KXP24ZKFDDMCDS43FE3AU9W6IW","","null","<img src=""img/flower2.png"" style=""width:200px; border:14px solid green;"">","null","","","","","","","","",""
"","image-keyboard-response","356","230983","0.0-356.0","32Q90QCQ1T7CI739AFDFT16OBXXKER","A1MTQP7TA5RCOB","3XT3KXP24ZKFDDMCDS43FE3AU9W6IW","","784","img/flower5.png","74","786","1","1","1","1","1,0.333,0.333,0.333,1,0.333,0.333,0.333,1","1,0.333,0.333,0.333,1,0.333,0.333,0.333,1","1",""
"","html-keyboard-response","357","231285","0.0-357.0","32Q90QCQ1T7CI739AFDFT16OBXXKER","A1MTQP7TA5RCOB","3XT3KXP24ZKFDDMCDS43FE3AU9W6IW","","null","<img src=""img/flower5.png"" style=""width:200px; border:14px solid green;"">","null","","","","","","","","",""
"","image-keyboard-response","358","232423","0.0-358.0","32Q90QCQ1T7CI739AFDFT16OBXXKER","A1MTQP7TA5RCOB","3XT3KXP24ZKFDDMCDS43FE3AU9W6IW","","1134","img/flower3.png","75","1135","2","1","2","1","1,0.333,0.333,0.333,1,0.333,0.333,0.333,1","1,0.333,0.333,0.333,1,0.333,0.333,0.333,1","1",""
"","html-keyboard-response","359","232725","0.0-359.0","32Q90QCQ1T7CI739AFDFT16OBXXKER","A1MTQP7TA5RCOB","3XT3KXP24ZKFDDMCDS43FE3AU9W6IW","","null","<img src=""img/flower3.png"" style=""width:200px; border:14px solid green;"">","null","","","","","","","","",""
"","image-keyboard-response","360","233415","0.0-360.0","32Q90QCQ1T7CI739AFDFT16OBXXKER","A1MTQP7TA5RCOB","3XT3KXP24ZKFDDMCDS43FE3AU9W6IW","","689","img/flower5.png","74","691","1","1","1","1","1,0.333,0.333,0.333,1,0.333,0.333,0.333,1","1,0.333,0.333,0.333,1,0.333,0.333,0.333,1","1",""
"","html-keyboard-response","361","233717","0.0-361.0","32Q90QCQ1T7CI739AFDFT16OBXXKER","A1MTQP7TA5RCOB","3XT3KXP24ZKFDDMCDS43FE3AU9W6IW","","null","<img src=""img/flower5.png"" style=""width:200px; border:14px solid green;"">","null","","","","","","","","",""
"","html-keyboard-response","362","237703","0.0-362.0","32Q90QCQ1T7CI739AFDFT16OBXXKER","A1MTQP7TA5RCOB","3XT3KXP24ZKFDDMCDS43FE3AU9W6IW","","","","","","","","","","","","",""
"","instructions","363","243616","0.0-363.0","32Q90QCQ1T7CI739AFDFT16OBXXKER","A1MTQP7TA5RCOB","3XT3KXP24ZKFDDMCDS43FE3AU9W6IW","[{""page_index"":0,""viewing_time"":5911}]","5911","","","","","","","","","","",""
"","survey-text","364","249784","0.0-364.0","32Q90QCQ1T7CI739AFDFT16OBXXKER","A1MTQP7TA5RCOB","3XT3KXP24ZKFDDMCDS43FE3AU9W6IW","","6164","","","","","","","","","","","{""Q0"":""A1MTQP7TA5RCOB""}"
