"success","trial_type","trial_index","time_elapsed","internal_node_id","assignmentID","mturkID","hitID","view_history","rt","stimulus","key_press","reactionTime","a","r","s","cond","reward_cond","reward_cond_actual","reward_matrix_idx","responses"
"true","fullscreen","0","4529","0.0-0.0","3OB0CAO74IBJMMJS4VMCNCIC1S4HY5","A1NVJB5O4H7ZCJ","3HUR21WDDUBEMSLDIXZW1FAIHWSYXN","","","","","","","","","","","","",""
"","instructions","1","36717","0.0-1.0","3OB0CAO74IBJMMJS4VMCNCIC1S4HY5","A1NVJB5O4H7ZCJ","3HUR21WDDUBEMSLDIXZW1FAIHWSYXN","[{""page_index"":0,""viewing_time"":2516.300000190735},{""page_index"":1,""viewing_time"":4407.699999809265},{""page_index"":2,""viewing_time"":1913.1000001430511},{""page_index"":3,""viewing_time"":1800.0999999046326},{""page_index"":4,""viewing_time"":6280.799999952316},{""page_index"":5,""viewing_time"":5776.900000095367},{""page_index"":6,""viewing_time"":3136.2000000476837},{""page_index"":7,""viewing_time"":6354.200000047684}]","32185.800000190735","","","","","","","","","","",""
"","image-keyboard-response","2","38670","0.0-2.0","3OB0CAO74IBJMMJS4VMCNCIC1S4HY5","A1NVJB5O4H7ZCJ","3HUR21WDDUBEMSLDIXZW1FAIHWSYXN","","1949.7999999523163","img/flower1.png","74","1953.0999999046326","1","1","2","2","1,0,0,1,1,0,1,0,1","1,0,0,1,1,0,1,0,1","1",""
"","html-keyboard-response","3","38975","0.0-3.0","3OB0CAO74IBJMMJS4VMCNCIC1S4HY5","A1NVJB5O4H7ZCJ","3HUR21WDDUBEMSLDIXZW1FAIHWSYXN","","null","<img src=""img/flower1.png"" style=""width:200px; border:14px solid green;"">","null","","","","","","","","",""
"","image-keyboard-response","4","39824","0.0-4.0","3OB0CAO74IBJMMJS4VMCNCIC1S4HY5","A1NVJB5O4H7ZCJ","3HUR21WDDUBEMSLDIXZW1FAIHWSYXN","","845.0999999046326","img/flower2.png","75","847.5999999046326","2","0","1","2","1,0,0,1,1,0,1,0,1","1,0,0,1,1,0,1,0,1","1",""
"","html-keyboard-response","5","40127","0.0-5.0","3OB0CAO74IBJMMJS4VMCNCIC1S4HY5","A1NVJB5O4H7ZCJ","3HUR21WDDUBEMSLDIXZW1FAIHWSYXN","","null","<img src=""img/flower2.png"" style=""width:200px;border:14px solid red;"">","null","","","","","","","","",""
"","image-keyboard-response","6","40900","0.0-6.0","3OB0CAO74IBJMMJS4VMCNCIC1S4HY5","A1NVJB5O4H7ZCJ","3HUR21WDDUBEMSLDIXZW1FAIHWSYXN","","769.4000000953674","img/flower3.png","74","771.9000000953674","1","1","3","2","1,0,0,1,1,0,1,0,1","1,0,0,1,1,0,1,0,1","1",""
"","html-keyboard-response","7","41218","0.0-7.0","3OB0CAO74IBJMMJS4VMCNCIC1S4HY5","A1NVJB5O4H7ZCJ","3HUR21WDDUBEMSLDIXZW1FAIHWSYXN","","null","<img src=""img/flower3.png"" style=""width:200px; border:14px solid green;"">","null","","","","","","","","",""
"","image-keyboard-response","8","42181","0.0-8.0","3OB0CAO74IBJMMJS4VMCNCIC1S4HY5","A1NVJB5O4H7ZCJ","3HUR21WDDUBEMSLDIXZW1FAIHWSYXN","","959.7000000476837","img/flower3.png","74","962","1","1","3","2","1,0,0,1,1,0,1,0,1","1,0,0,1,1,0,1,0,1","1",""
"","html-keyboard-response","9","42485","0.0-9.0","3OB0CAO74IBJMMJS4VMCNCIC1S4HY5","A1NVJB5O4H7ZCJ","3HUR21WDDUBEMSLDIXZW1FAIHWSYXN","","null","<img src=""img/flower3.png"" style=""width:200px; border:14px solid green;"">","null","","","","","","","","",""
"","image-keyboard-response","10","43421","0.0-10.0","3OB0CAO74IBJMMJS4VMCNCIC1S4HY5","A1NVJB5O4H7ZCJ","3HUR21WDDUBEMSLDIXZW1FAIHWSYXN","","933.5999999046326","img/flower1.png","76","936","3","0","2","2","1,0,0,1,1,0,1,0,1","1,0,0,1,1,0,1,0,1","1",""
"","html-keyboard-response","11","43725","0.0-11.0","3OB0CAO74IBJMMJS4VMCNCIC1S4HY5","A1NVJB5O4H7ZCJ","3HUR21WDDUBEMSLDIXZW1FAIHWSYXN","","null","<img src=""img/flower1.png"" style=""width:200px;border:14px solid red;"">","null","","","","","","","","",""
"","image-keyboard-response","12","44840","0.0-12.0","3OB0CAO74IBJMMJS4VMCNCIC1S4HY5","A1NVJB5O4H7ZCJ","3HUR21WDDUBEMSLDIXZW1FAIHWSYXN","","1112.2999999523163","img/flower2.png","76","1114.4000000953674","3","0","1","2","1,0,0,1,1,0,1,0,1","1,0,0,1,1,0,1,0,1","1",""
"","html-keyboard-response","13","45144","0.0-13.0","3OB0CAO74IBJMMJS4VMCNCIC1S4HY5","A1NVJB5O4H7ZCJ","3HUR21WDDUBEMSLDIXZW1FAIHWSYXN","","null","<img src=""img/flower2.png"" style=""width:200px;border:14px solid red;"">","null","","","","","","","","",""
"","image-keyboard-response","14","45791","0.0-14.0","3OB0CAO74IBJMMJS4VMCNCIC1S4HY5","A1NVJB5O4H7ZCJ","3HUR21WDDUBEMSLDIXZW1FAIHWSYXN","","645.5","img/flower2.png","75","647.1000001430511","2","0","1","2","1,0,0,1,1,0,1,0,1","1,0,0,1,1,0,1,0,1","1",""
"","html-keyboard-response","15","46094","0.0-15.0","3OB0CAO74IBJMMJS4VMCNCIC1S4HY5","A1NVJB5O4H7ZCJ","3HUR21WDDUBEMSLDIXZW1FAIHWSYXN","","null","<img src=""img/flower2.png"" style=""width:200px;border:14px solid red;"">","null","","","","","","","","",""
"","image-keyboard-response","16","46886","0.0-16.0","3OB0CAO74IBJMMJS4VMCNCIC1S4HY5","A1NVJB5O4H7ZCJ","3HUR21WDDUBEMSLDIXZW1FAIHWSYXN","","788.6000001430511","img/flower1.png","74","791.2999999523163","1","1","2","2","1,0,0,1,1,0,1,0,1","1,0,0,1,1,0,1,0,1","1",""
"","html-keyboard-response","17","47189","0.0-17.0","3OB0CAO74IBJMMJS4VMCNCIC1S4HY5","A1NVJB5O4H7ZCJ","3HUR21WDDUBEMSLDIXZW1FAIHWSYXN","","null","<img src=""img/flower1.png"" style=""width:200px; border:14px solid green;"">","null","","","","","","","","",""
"","image-keyboard-response","18","48024","0.0-18.0","3OB0CAO74IBJMMJS4VMCNCIC1S4HY5","A1NVJB5O4H7ZCJ","3HUR21WDDUBEMSLDIXZW1FAIHWSYXN","","832","img/flower1.png","74","834.2999999523163","1","1","2","2","1,0,0,1,1,0,1,0,1","1,0,0,1,1,0,1,0,1","1",""
"","html-keyboard-response","19","48328","0.0-19.0","3OB0CAO74IBJMMJS4VMCNCIC1S4HY5","A1NVJB5O4H7ZCJ","3HUR21WDDUBEMSLDIXZW1FAIHWSYXN","","null","<img src=""img/flower1.png"" style=""width:200px; border:14px solid green;"">","null","","","","","","","","",""
"","image-keyboard-response","20","48840","0.0-20.0","3OB0CAO74IBJMMJS4VMCNCIC1S4HY5","A1NVJB5O4H7ZCJ","3HUR21WDDUBEMSLDIXZW1FAIHWSYXN","","508.7999999523163","img/flower1.png","74","511.5","1","1","2","2","1,0,0,1,1,0,1,0,1","1,0,0,1,1,0,1,0,1","1",""
"","html-keyboard-response","21","49144","0.0-21.0","3OB0CAO74IBJMMJS4VMCNCIC1S4HY5","A1NVJB5O4H7ZCJ","3HUR21WDDUBEMSLDIXZW1FAIHWSYXN","","null","<img src=""img/flower1.png"" style=""width:200px; border:14px solid green;"">","null","","","","","","","","",""
"","image-keyboard-response","22","49728","0.0-22.0","3OB0CAO74IBJMMJS4VMCNCIC1S4HY5","A1NVJB5O4H7ZCJ","3HUR21WDDUBEMSLDIXZW1FAIHWSYXN","","581.2000000476837","img/flower2.png","74","583.3999998569489","1","1","1","2","1,0,0,1,1,0,1,0,1","1,0,0,1,1,0,1,0,1","1",""
"","html-keyboard-response","23","50031","0.0-23.0","3OB0CAO74IBJMMJS4VMCNCIC1S4HY5","A1NVJB5O4H7ZCJ","3HUR21WDDUBEMSLDIXZW1FAIHWSYXN","","null","<img src=""img/flower2.png"" style=""width:200px; border:14px solid green;"">","null","","","","","","","","",""
"","image-keyboard-response","24","50735","0.0-24.0","3OB0CAO74IBJMMJS4VMCNCIC1S4HY5","A1NVJB5O4H7ZCJ","3HUR21WDDUBEMSLDIXZW1FAIHWSYXN","","701.5","img/flower1.png","74","703.6000001430511","1","1","2","2","1,0,0,1,1,0,1,0,1","1,0,0,1,1,0,1,0,1","1",""
"","html-keyboard-response","25","51038","0.0-25.0","3OB0CAO74IBJMMJS4VMCNCIC1S4HY5","A1NVJB5O4H7ZCJ","3HUR21WDDUBEMSLDIXZW1FAIHWSYXN","","null","<img src=""img/flower1.png"" style=""width:200px; border:14px solid green;"">","null","","","","","","","","",""
"","image-keyboard-response","26","51575","0.0-26.0","3OB0CAO74IBJMMJS4VMCNCIC1S4HY5","A1NVJB5O4H7ZCJ","3HUR21WDDUBEMSLDIXZW1FAIHWSYXN","","535.7999999523163","img/flower1.png","74","537.4000000953674","1","1","2","2","1,0,0,1,1,0,1,0,1","1,0,0,1,1,0,1,0,1","1",""
"","html-keyboard-response","27","51879","0.0-27.0","3OB0CAO74IBJMMJS4VMCNCIC1S4HY5","A1NVJB5O4H7ZCJ","3HUR21WDDUBEMSLDIXZW1FAIHWSYXN","","null","<img src=""img/flower1.png"" style=""width:200px; border:14px solid green;"">","null","","","","","","","","",""
"","image-keyboard-response","28","52831","0.0-28.0","3OB0CAO74IBJMMJS4VMCNCIC1S4HY5","A1NVJB5O4H7ZCJ","3HUR21WDDUBEMSLDIXZW1FAIHWSYXN","","949.2000000476837","img/flower3.png","75","951.5","2","0","3","2","1,0,0,1,1,0,1,0,1","1,0,0,1,1,0,1,0,1","1",""
"","html-keyboard-response","29","53142","0.0-29.0","3OB0CAO74IBJMMJS4VMCNCIC1S4HY5","A1NVJB5O4H7ZCJ","3HUR21WDDUBEMSLDIXZW1FAIHWSYXN","","null","<img src=""img/flower3.png"" style=""width:200px;border:14px solid red;"">","null","","","","","","","","",""
"","image-keyboard-response","30","53536","0.0-30.0","3OB0CAO74IBJMMJS4VMCNCIC1S4HY5","A1NVJB5O4H7ZCJ","3HUR21WDDUBEMSLDIXZW1FAIHWSYXN","","390.69999980926514","img/flower1.png","74","393.2000000476837","1","1","2","2","1,0,0,1,1,0,1,0,1","1,0,0,1,1,0,1,0,1","1",""
"","html-keyboard-response","31","53839","0.0-31.0","3OB0CAO74IBJMMJS4VMCNCIC1S4HY5","A1NVJB5O4H7ZCJ","3HUR21WDDUBEMSLDIXZW1FAIHWSYXN","","null","<img src=""img/flower1.png"" style=""width:200px; border:14px solid green;"">","null","","","","","","","","",""
"","image-keyboard-response","32","54391","0.0-32.0","3OB0CAO74IBJMMJS4VMCNCIC1S4HY5","A1NVJB5O4H7ZCJ","3HUR21WDDUBEMSLDIXZW1FAIHWSYXN","","549.1999998092651","img/flower2.png","74","551.5999999046326","1","1","1","2","1,0,0,1,1,0,1,0,1","1,0,0,1,1,0,1,0,1","1",""
"","html-keyboard-response","33","54695","0.0-33.0","3OB0CAO74IBJMMJS4VMCNCIC1S4HY5","A1NVJB5O4H7ZCJ","3HUR21WDDUBEMSLDIXZW1FAIHWSYXN","","null","<img src=""img/flower2.png"" style=""width:200px; border:14px solid green;"">","null","","","","","","","","",""
"","image-keyboard-response","34","55447","0.0-34.0","3OB0CAO74IBJMMJS4VMCNCIC1S4HY5","A1NVJB5O4H7ZCJ","3HUR21WDDUBEMSLDIXZW1FAIHWSYXN","","751.3999998569489","img/flower3.png","74","753","1","1","3","2","1,0,0,1,1,0,1,0,1","1,0,0,1,1,0,1,0,1","1",""
"","html-keyboard-response","35","55751","0.0-35.0","3OB0CAO74IBJMMJS4VMCNCIC1S4HY5","A1NVJB5O4H7ZCJ","3HUR21WDDUBEMSLDIXZW1FAIHWSYXN","","null","<img src=""img/flower3.png"" style=""width:200px; border:14px solid green;"">","null","","","","","","","","",""
"","image-keyboard-response","36","56326","0.0-36.0","3OB0CAO74IBJMMJS4VMCNCIC1S4HY5","A1NVJB5O4H7ZCJ","3HUR21WDDUBEMSLDIXZW1FAIHWSYXN","","573.3000001907349","img/flower3.png","74","574.5","1","1","3","2","1,0,0,1,1,0,1,0,1","1,0,0,1,1,0,1,0,1","1",""
"","html-keyboard-response","37","56629","0.0-37.0","3OB0CAO74IBJMMJS4VMCNCIC1S4HY5","A1NVJB5O4H7ZCJ","3HUR21WDDUBEMSLDIXZW1FAIHWSYXN","","null","<img src=""img/flower3.png"" style=""width:200px; border:14px solid green;"">","null","","","","","","","","",""
"","image-keyboard-response","38","57327","0.0-38.0","3OB0CAO74IBJMMJS4VMCNCIC1S4HY5","A1NVJB5O4H7ZCJ","3HUR21WDDUBEMSLDIXZW1FAIHWSYXN","","696","img/flower2.png","74","698.2000000476837","1","1","1","2","1,0,0,1,1,0,1,0,1","1,0,0,1,1,0,1,0,1","1",""
"","html-keyboard-response","39","57631","0.0-39.0","3OB0CAO74IBJMMJS4VMCNCIC1S4HY5","A1NVJB5O4H7ZCJ","3HUR21WDDUBEMSLDIXZW1FAIHWSYXN","","null","<img src=""img/flower2.png"" style=""width:200px; border:14px solid green;"">","null","","","","","","","","",""
"","image-keyboard-response","40","58143","0.0-40.0","3OB0CAO74IBJMMJS4VMCNCIC1S4HY5","A1NVJB5O4H7ZCJ","3HUR21WDDUBEMSLDIXZW1FAIHWSYXN","","509.69999980926514","img/flower3.png","74","512","1","1","3","2","1,0,0,1,1,0,1,0,1","1,0,0,1,1,0,1,0,1","1",""
"","html-keyboard-response","41","58448","0.0-41.0","3OB0CAO74IBJMMJS4VMCNCIC1S4HY5","A1NVJB5O4H7ZCJ","3HUR21WDDUBEMSLDIXZW1FAIHWSYXN","","null","<img src=""img/flower3.png"" style=""width:200px; border:14px solid green;"">","null","","","","","","","","",""
"","image-keyboard-response","42","59029","0.0-42.0","3OB0CAO74IBJMMJS4VMCNCIC1S4HY5","A1NVJB5O4H7ZCJ","3HUR21WDDUBEMSLDIXZW1FAIHWSYXN","","578.7999999523163","img/flower3.png","74","580.8999998569489","1","1","3","2","1,0,0,1,1,0,1,0,1","1,0,0,1,1,0,1,0,1","1",""
"","html-keyboard-response","43","59331","0.0-43.0","3OB0CAO74IBJMMJS4VMCNCIC1S4HY5","A1NVJB5O4H7ZCJ","3HUR21WDDUBEMSLDIXZW1FAIHWSYXN","","null","<img src=""img/flower3.png"" style=""width:200px; border:14px solid green;"">","null","","","","","","","","",""
"","image-keyboard-response","44","59912","0.0-44.0","3OB0CAO74IBJMMJS4VMCNCIC1S4HY5","A1NVJB5O4H7ZCJ","3HUR21WDDUBEMSLDIXZW1FAIHWSYXN","","577.2999999523163","img/flower1.png","74","579.6000001430511","1","1","2","2","1,0,0,1,1,0,1,0,1","1,0,0,1,1,0,1,0,1","1",""
"","html-keyboard-response","45","60215","0.0-45.0","3OB0CAO74IBJMMJS4VMCNCIC1S4HY5","A1NVJB5O4H7ZCJ","3HUR21WDDUBEMSLDIXZW1FAIHWSYXN","","null","<img src=""img/flower1.png"" style=""width:200px; border:14px solid green;"">","null","","","","","","","","",""
"","image-keyboard-response","46","60731","0.0-46.0","3OB0CAO74IBJMMJS4VMCNCIC1S4HY5","A1NVJB5O4H7ZCJ","3HUR21WDDUBEMSLDIXZW1FAIHWSYXN","","512.2000000476837","img/flower3.png","74","515.0999999046326","1","1","3","2","1,0,0,1,1,0,1,0,1","1,0,0,1,1,0,1,0,1","1",""
"","html-keyboard-response","47","61034","0.0-47.0","3OB0CAO74IBJMMJS4VMCNCIC1S4HY5","A1NVJB5O4H7ZCJ","3HUR21WDDUBEMSLDIXZW1FAIHWSYXN","","null","<img src=""img/flower3.png"" style=""width:200px; border:14px solid green;"">","null","","","","","","","","",""
"","image-keyboard-response","48","61581","0.0-48.0","3OB0CAO74IBJMMJS4VMCNCIC1S4HY5","A1NVJB5O4H7ZCJ","3HUR21WDDUBEMSLDIXZW1FAIHWSYXN","","544.0999999046326","img/flower3.png","76","546","3","1","3","2","1,0,0,1,1,0,1,0,1","1,0,0,1,1,0,1,0,1","1",""
"","html-keyboard-response","49","61883","0.0-49.0","3OB0CAO74IBJMMJS4VMCNCIC1S4HY5","A1NVJB5O4H7ZCJ","3HUR21WDDUBEMSLDIXZW1FAIHWSYXN","","null","<img src=""img/flower3.png"" style=""width:200px; border:14px solid green;"">","null","","","","","","","","",""
"","image-keyboard-response","50","62719","0.0-50.0","3OB0CAO74IBJMMJS4VMCNCIC1S4HY5","A1NVJB5O4H7ZCJ","3HUR21WDDUBEMSLDIXZW1FAIHWSYXN","","833.8999998569489","img/flower2.png","75","836.2000000476837","2","0","1","2","1,0,0,1,1,0,1,0,1","1,0,0,1,1,0,1,0,1","1",""
"","html-keyboard-response","51","63023","0.0-51.0","3OB0CAO74IBJMMJS4VMCNCIC1S4HY5","A1NVJB5O4H7ZCJ","3HUR21WDDUBEMSLDIXZW1FAIHWSYXN","","null","<img src=""img/flower2.png"" style=""width:200px;border:14px solid red;"">","null","","","","","","","","",""
"","image-keyboard-response","52","63447","0.0-52.0","3OB0CAO74IBJMMJS4VMCNCIC1S4HY5","A1NVJB5O4H7ZCJ","3HUR21WDDUBEMSLDIXZW1FAIHWSYXN","","421.69999980926514","img/flower2.png","76","423.90000009536743","3","0","1","2","1,0,0,1,1,0,1,0,1","1,0,0,1,1,0,1,0,1","1",""
"","html-keyboard-response","53","63752","0.0-53.0","3OB0CAO74IBJMMJS4VMCNCIC1S4HY5","A1NVJB5O4H7ZCJ","3HUR21WDDUBEMSLDIXZW1FAIHWSYXN","","null","<img src=""img/flower2.png"" style=""width:200px;border:14px solid red;"">","null","","","","","","","","",""
"","image-keyboard-response","54","64233","0.0-54.0","3OB0CAO74IBJMMJS4VMCNCIC1S4HY5","A1NVJB5O4H7ZCJ","3HUR21WDDUBEMSLDIXZW1FAIHWSYXN","","477.5","img/flower2.png","74","479.7999999523163","1","1","1","2","1,0,0,1,1,0,1,0,1","1,0,0,1,1,0,1,0,1","1",""
"","html-keyboard-response","55","64536","0.0-55.0","3OB0CAO74IBJMMJS4VMCNCIC1S4HY5","A1NVJB5O4H7ZCJ","3HUR21WDDUBEMSLDIXZW1FAIHWSYXN","","null","<img src=""img/flower2.png"" style=""width:200px; border:14px solid green;"">","null","","","","","","","","",""
"","image-keyboard-response","56","64984","0.0-56.0","3OB0CAO74IBJMMJS4VMCNCIC1S4HY5","A1NVJB5O4H7ZCJ","3HUR21WDDUBEMSLDIXZW1FAIHWSYXN","","445","img/flower3.png","74","447.2000000476837","1","1","3","2","1,0,0,1,1,0,1,0,1","1,0,0,1,1,0,1,0,1","1",""
"","html-keyboard-response","57","65288","0.0-57.0","3OB0CAO74IBJMMJS4VMCNCIC1S4HY5","A1NVJB5O4H7ZCJ","3HUR21WDDUBEMSLDIXZW1FAIHWSYXN","","null","<img src=""img/flower3.png"" style=""width:200px; border:14px solid green;"">","null","","","","","","","","",""
"","image-keyboard-response","58","65955","0.0-58.0","3OB0CAO74IBJMMJS4VMCNCIC1S4HY5","A1NVJB5O4H7ZCJ","3HUR21WDDUBEMSLDIXZW1FAIHWSYXN","","664.3000001907349","img/flower2.png","74","666.7000000476837","1","1","1","2","1,0,0,1,1,0,1,0,1","1,0,0,1,1,0,1,0,1","1",""
"","html-keyboard-response","59","66270","0.0-59.0","3OB0CAO74IBJMMJS4VMCNCIC1S4HY5","A1NVJB5O4H7ZCJ","3HUR21WDDUBEMSLDIXZW1FAIHWSYXN","","null","<img src=""img/flower2.png"" style=""width:200px; border:14px solid green;"">","null","","","","","","","","",""
"","image-keyboard-response","60","66727","0.0-60.0","3OB0CAO74IBJMMJS4VMCNCIC1S4HY5","A1NVJB5O4H7ZCJ","3HUR21WDDUBEMSLDIXZW1FAIHWSYXN","","453.30000019073486","img/flower1.png","74","455.7999999523163","1","1","2","2","1,0,0,1,1,0,1,0,1","1,0,0,1,1,0,1,0,1","1",""
"","html-keyboard-response","61","67031","0.0-61.0","3OB0CAO74IBJMMJS4VMCNCIC1S4HY5","A1NVJB5O4H7ZCJ","3HUR21WDDUBEMSLDIXZW1FAIHWSYXN","","null","<img src=""img/flower1.png"" style=""width:200px; border:14px solid green;"">","null","","","","","","","","",""
"","image-keyboard-response","62","67467","0.0-62.0","3OB0CAO74IBJMMJS4VMCNCIC1S4HY5","A1NVJB5O4H7ZCJ","3HUR21WDDUBEMSLDIXZW1FAIHWSYXN","","433.09999990463257","img/flower2.png","74","435.40000009536743","1","1","1","2","1,0,0,1,1,0,1,0,1","1,0,0,1,1,0,1,0,1","1",""
"","html-keyboard-response","63","67771","0.0-63.0","3OB0CAO74IBJMMJS4VMCNCIC1S4HY5","A1NVJB5O4H7ZCJ","3HUR21WDDUBEMSLDIXZW1FAIHWSYXN","","null","<img src=""img/flower2.png"" style=""width:200px; border:14px solid green;"">","null","","","","","","","","",""
"","image-keyboard-response","64","68523","0.0-64.0","3OB0CAO74IBJMMJS4VMCNCIC1S4HY5","A1NVJB5O4H7ZCJ","3HUR21WDDUBEMSLDIXZW1FAIHWSYXN","","749.6999998092651","img/flower3.png","74","752","1","1","3","2","1,0,0,1,1,0,1,0,1","1,0,0,1,1,0,1,0,1","1",""
"","html-keyboard-response","65","68827","0.0-65.0","3OB0CAO74IBJMMJS4VMCNCIC1S4HY5","A1NVJB5O4H7ZCJ","3HUR21WDDUBEMSLDIXZW1FAIHWSYXN","","null","<img src=""img/flower3.png"" style=""width:200px; border:14px solid green;"">","null","","","","","","","","",""
"","image-keyboard-response","66","69297","0.0-66.0","3OB0CAO74IBJMMJS4VMCNCIC1S4HY5","A1NVJB5O4H7ZCJ","3HUR21WDDUBEMSLDIXZW1FAIHWSYXN","","467.5","img/flower2.png","74","469.5","1","1","1","2","1,0,0,1,1,0,1,0,1","1,0,0,1,1,0,1,0,1","1",""
"","html-keyboard-response","67","69599","0.0-67.0","3OB0CAO74IBJMMJS4VMCNCIC1S4HY5","A1NVJB5O4H7ZCJ","3HUR21WDDUBEMSLDIXZW1FAIHWSYXN","","null","<img src=""img/flower2.png"" style=""width:200px; border:14px solid green;"">","null","","","","","","","","",""
"","image-keyboard-response","68","70107","0.0-68.0","3OB0CAO74IBJMMJS4VMCNCIC1S4HY5","A1NVJB5O4H7ZCJ","3HUR21WDDUBEMSLDIXZW1FAIHWSYXN","","505","img/flower1.png","74","507.2000000476837","1","1","2","2","1,0,0,1,1,0,1,0,1","1,0,0,1,1,0,1,0,1","1",""
"","html-keyboard-response","69","70410","0.0-69.0","3OB0CAO74IBJMMJS4VMCNCIC1S4HY5","A1NVJB5O4H7ZCJ","3HUR21WDDUBEMSLDIXZW1FAIHWSYXN","","null","<img src=""img/flower1.png"" style=""width:200px; border:14px solid green;"">","null","","","","","","","","",""
"","image-keyboard-response","70","70947","0.0-70.0","3OB0CAO74IBJMMJS4VMCNCIC1S4HY5","A1NVJB5O4H7ZCJ","3HUR21WDDUBEMSLDIXZW1FAIHWSYXN","","534.3000001907349","img/flower3.png","74","536.7999999523163","1","1","3","2","1,0,0,1,1,0,1,0,1","1,0,0,1,1,0,1,0,1","1",""
"","html-keyboard-response","71","71251","0.0-71.0","3OB0CAO74IBJMMJS4VMCNCIC1S4HY5","A1NVJB5O4H7ZCJ","3HUR21WDDUBEMSLDIXZW1FAIHWSYXN","","null","<img src=""img/flower3.png"" style=""width:200px; border:14px solid green;"">","null","","","","","","","","",""
"","image-keyboard-response","72","71763","0.0-72.0","3OB0CAO74IBJMMJS4VMCNCIC1S4HY5","A1NVJB5O4H7ZCJ","3HUR21WDDUBEMSLDIXZW1FAIHWSYXN","","508.2999999523163","img/flower3.png","74","511.10000014305115","1","1","3","2","1,0,0,1,1,0,1,0,1","1,0,0,1,1,0,1,0,1","1",""
"","html-keyboard-response","73","72065","0.0-73.0","3OB0CAO74IBJMMJS4VMCNCIC1S4HY5","A1NVJB5O4H7ZCJ","3HUR21WDDUBEMSLDIXZW1FAIHWSYXN","","null","<img src=""img/flower3.png"" style=""width:200px; border:14px solid green;"">","null","","","","","","","","",""
"","image-keyboard-response","74","72511","0.0-74.0","3OB0CAO74IBJMMJS4VMCNCIC1S4HY5","A1NVJB5O4H7ZCJ","3HUR21WDDUBEMSLDIXZW1FAIHWSYXN","","442.2999999523163","img/flower3.png","74","444.69999980926514","1","1","3","2","1,0,0,1,1,0,1,0,1","1,0,0,1,1,0,1,0,1","1",""
"","html-keyboard-response","75","72814","0.0-75.0","3OB0CAO74IBJMMJS4VMCNCIC1S4HY5","A1NVJB5O4H7ZCJ","3HUR21WDDUBEMSLDIXZW1FAIHWSYXN","","null","<img src=""img/flower3.png"" style=""width:200px; border:14px solid green;"">","null","","","","","","","","",""
"","image-keyboard-response","76","73356","0.0-76.0","3OB0CAO74IBJMMJS4VMCNCIC1S4HY5","A1NVJB5O4H7ZCJ","3HUR21WDDUBEMSLDIXZW1FAIHWSYXN","","538.9000000953674","img/flower2.png","74","541.2000000476837","1","1","1","2","1,0,0,1,1,0,1,0,1","1,0,0,1,1,0,1,0,1","1",""
"","html-keyboard-response","77","73659","0.0-77.0","3OB0CAO74IBJMMJS4VMCNCIC1S4HY5","A1NVJB5O4H7ZCJ","3HUR21WDDUBEMSLDIXZW1FAIHWSYXN","","null","<img src=""img/flower2.png"" style=""width:200px; border:14px solid green;"">","null","","","","","","","","",""
"","image-keyboard-response","78","74163","0.0-78.0","3OB0CAO74IBJMMJS4VMCNCIC1S4HY5","A1NVJB5O4H7ZCJ","3HUR21WDDUBEMSLDIXZW1FAIHWSYXN","","501.09999990463257","img/flower2.png","74","503.2999999523163","1","1","1","2","1,0,0,1,1,0,1,0,1","1,0,0,1,1,0,1,0,1","1",""
"","html-keyboard-response","79","74466","0.0-79.0","3OB0CAO74IBJMMJS4VMCNCIC1S4HY5","A1NVJB5O4H7ZCJ","3HUR21WDDUBEMSLDIXZW1FAIHWSYXN","","null","<img src=""img/flower2.png"" style=""width:200px; border:14px solid green;"">","null","","","","","","","","",""
"","image-keyboard-response","80","75035","0.0-80.0","3OB0CAO74IBJMMJS4VMCNCIC1S4HY5","A1NVJB5O4H7ZCJ","3HUR21WDDUBEMSLDIXZW1FAIHWSYXN","","565.7999999523163","img/flower1.png","76","568.2999999523163","3","0","2","2","1,0,0,1,1,0,1,0,1","1,0,0,1,1,0,1,0,1","1",""
"","html-keyboard-response","81","75338","0.0-81.0","3OB0CAO74IBJMMJS4VMCNCIC1S4HY5","A1NVJB5O4H7ZCJ","3HUR21WDDUBEMSLDIXZW1FAIHWSYXN","","null","<img src=""img/flower1.png"" style=""width:200px;border:14px solid red;"">","null","","","","","","","","",""
"","image-keyboard-response","82","75871","0.0-82.0","3OB0CAO74IBJMMJS4VMCNCIC1S4HY5","A1NVJB5O4H7ZCJ","3HUR21WDDUBEMSLDIXZW1FAIHWSYXN","","529.7999999523163","img/flower1.png","76","532","3","0","2","2","1,0,0,1,1,0,1,0,1","1,0,0,1,1,0,1,0,1","1",""
"","html-keyboard-response","83","76174","0.0-83.0","3OB0CAO74IBJMMJS4VMCNCIC1S4HY5","A1NVJB5O4H7ZCJ","3HUR21WDDUBEMSLDIXZW1FAIHWSYXN","","null","<img src=""img/flower1.png"" style=""width:200px;border:14px solid red;"">","null","","","","","","","","",""
"","image-keyboard-response","84","76675","0.0-84.0","3OB0CAO74IBJMMJS4VMCNCIC1S4HY5","A1NVJB5O4H7ZCJ","3HUR21WDDUBEMSLDIXZW1FAIHWSYXN","","498.7000000476837","img/flower3.png","75","500.19999980926514","2","0","3","2","1,0,0,1,1,0,1,0,1","1,0,0,1,1,0,1,0,1","1",""
"","html-keyboard-response","85","76979","0.0-85.0","3OB0CAO74IBJMMJS4VMCNCIC1S4HY5","A1NVJB5O4H7ZCJ","3HUR21WDDUBEMSLDIXZW1FAIHWSYXN","","null","<img src=""img/flower3.png"" style=""width:200px;border:14px solid red;"">","null","","","","","","","","",""
"","image-keyboard-response","86","77423","0.0-86.0","3OB0CAO74IBJMMJS4VMCNCIC1S4HY5","A1NVJB5O4H7ZCJ","3HUR21WDDUBEMSLDIXZW1FAIHWSYXN","","441.60000014305115","img/flower1.png","74","443.7999999523163","1","1","2","2","1,0,0,1,1,0,1,0,1","1,0,0,1,1,0,1,0,1","1",""
"","html-keyboard-response","87","77726","0.0-87.0","3OB0CAO74IBJMMJS4VMCNCIC1S4HY5","A1NVJB5O4H7ZCJ","3HUR21WDDUBEMSLDIXZW1FAIHWSYXN","","null","<img src=""img/flower1.png"" style=""width:200px; border:14px solid green;"">","null","","","","","","","","",""
"","image-keyboard-response","88","78136","0.0-88.0","3OB0CAO74IBJMMJS4VMCNCIC1S4HY5","A1NVJB5O4H7ZCJ","3HUR21WDDUBEMSLDIXZW1FAIHWSYXN","","407.90000009536743","img/flower3.png","74","409.7000000476837","1","1","3","2","1,0,0,1,1,0,1,0,1","1,0,0,1,1,0,1,0,1","1",""
"","html-keyboard-response","89","78437","0.0-89.0","3OB0CAO74IBJMMJS4VMCNCIC1S4HY5","A1NVJB5O4H7ZCJ","3HUR21WDDUBEMSLDIXZW1FAIHWSYXN","","null","<img src=""img/flower3.png"" style=""width:200px; border:14px solid green;"">","null","","","","","","","","",""
"","image-keyboard-response","90","78767","0.0-90.0","3OB0CAO74IBJMMJS4VMCNCIC1S4HY5","A1NVJB5O4H7ZCJ","3HUR21WDDUBEMSLDIXZW1FAIHWSYXN","","326.7000000476837","img/flower3.png","74","329","1","1","3","2","1,0,0,1,1,0,1,0,1","1,0,0,1,1,0,1,0,1","1",""
"","html-keyboard-response","91","79070","0.0-91.0","3OB0CAO74IBJMMJS4VMCNCIC1S4HY5","A1NVJB5O4H7ZCJ","3HUR21WDDUBEMSLDIXZW1FAIHWSYXN","","null","<img src=""img/flower3.png"" style=""width:200px; border:14px solid green;"">","null","","","","","","","","",""
"","image-keyboard-response","92","79360","0.0-92.0","3OB0CAO74IBJMMJS4VMCNCIC1S4HY5","A1NVJB5O4H7ZCJ","3HUR21WDDUBEMSLDIXZW1FAIHWSYXN","","287.09999990463257","img/flower3.png","74","289.40000009536743","1","1","3","2","1,0,0,1,1,0,1,0,1","1,0,0,1,1,0,1,0,1","1",""
"","html-keyboard-response","93","79663","0.0-93.0","3OB0CAO74IBJMMJS4VMCNCIC1S4HY5","A1NVJB5O4H7ZCJ","3HUR21WDDUBEMSLDIXZW1FAIHWSYXN","","null","<img src=""img/flower3.png"" style=""width:200px; border:14px solid green;"">","null","","","","","","","","",""
"","image-keyboard-response","94","79927","0.0-94.0","3OB0CAO74IBJMMJS4VMCNCIC1S4HY5","A1NVJB5O4H7ZCJ","3HUR21WDDUBEMSLDIXZW1FAIHWSYXN","","261","img/flower2.png","74","263.2000000476837","1","1","1","2","1,0,0,1,1,0,1,0,1","1,0,0,1,1,0,1,0,1","1",""
"","html-keyboard-response","95","80230","0.0-95.0","3OB0CAO74IBJMMJS4VMCNCIC1S4HY5","A1NVJB5O4H7ZCJ","3HUR21WDDUBEMSLDIXZW1FAIHWSYXN","","null","<img src=""img/flower2.png"" style=""width:200px; border:14px solid green;"">","null","","","","","","","","",""
"","image-keyboard-response","96","80343","0.0-96.0","3OB0CAO74IBJMMJS4VMCNCIC1S4HY5","A1NVJB5O4H7ZCJ","3HUR21WDDUBEMSLDIXZW1FAIHWSYXN","","110.5","img/flower1.png","74","112.70000004768372","1","1","2","2","1,0,0,1,1,0,1,0,1","1,0,0,1,1,0,1,0,1","1",""
"","html-keyboard-response","97","80645","0.0-97.0","3OB0CAO74IBJMMJS4VMCNCIC1S4HY5","A1NVJB5O4H7ZCJ","3HUR21WDDUBEMSLDIXZW1FAIHWSYXN","","null","<img src=""img/flower1.png"" style=""width:200px; border:14px solid green;"">","null","","","","","","","","",""
"","image-keyboard-response","98","80887","0.0-98.0","3OB0CAO74IBJMMJS4VMCNCIC1S4HY5","A1NVJB5O4H7ZCJ","3HUR21WDDUBEMSLDIXZW1FAIHWSYXN","","238.5","img/flower2.png","74","240.90000009536743","1","1","1","2","1,0,0,1,1,0,1,0,1","1,0,0,1,1,0,1,0,1","1",""
"","html-keyboard-response","99","81190","0.0-99.0","3OB0CAO74IBJMMJS4VMCNCIC1S4HY5","A1NVJB5O4H7ZCJ","3HUR21WDDUBEMSLDIXZW1FAIHWSYXN","","null","<img src=""img/flower2.png"" style=""width:200px; border:14px solid green;"">","null","","","","","","","","",""
"","image-keyboard-response","100","81279","0.0-100.0","3OB0CAO74IBJMMJS4VMCNCIC1S4HY5","A1NVJB5O4H7ZCJ","3HUR21WDDUBEMSLDIXZW1FAIHWSYXN","","85.79999995231628","img/flower2.png","74","88.19999980926514","1","1","1","2","1,0,0,1,1,0,1,0,1","1,0,0,1,1,0,1,0,1","1",""
"","html-keyboard-response","101","81582","0.0-101.0","3OB0CAO74IBJMMJS4VMCNCIC1S4HY5","A1NVJB5O4H7ZCJ","3HUR21WDDUBEMSLDIXZW1FAIHWSYXN","","null","<img src=""img/flower2.png"" style=""width:200px; border:14px solid green;"">","null","","","","","","","","",""
"","image-keyboard-response","102","81743","0.0-102.0","3OB0CAO74IBJMMJS4VMCNCIC1S4HY5","A1NVJB5O4H7ZCJ","3HUR21WDDUBEMSLDIXZW1FAIHWSYXN","","158.09999990463257","img/flower1.png","74","160.59999990463257","1","1","2","2","1,0,0,1,1,0,1,0,1","1,0,0,1,1,0,1,0,1","1",""
"","html-keyboard-response","103","82056","0.0-103.0","3OB0CAO74IBJMMJS4VMCNCIC1S4HY5","A1NVJB5O4H7ZCJ","3HUR21WDDUBEMSLDIXZW1FAIHWSYXN","","null","<img src=""img/flower1.png"" style=""width:200px; border:14px solid green;"">","null","","","","","","","","",""
"","image-keyboard-response","104","82167","0.0-104.0","3OB0CAO74IBJMMJS4VMCNCIC1S4HY5","A1NVJB5O4H7ZCJ","3HUR21WDDUBEMSLDIXZW1FAIHWSYXN","","107.59999990463257","img/flower3.png","74","109.90000009536743","1","1","3","2","1,0,0,1,1,0,1,0,1","1,0,0,1,1,0,1,0,1","1",""
"","html-keyboard-response","105","82471","0.0-105.0","3OB0CAO74IBJMMJS4VMCNCIC1S4HY5","A1NVJB5O4H7ZCJ","3HUR21WDDUBEMSLDIXZW1FAIHWSYXN","","null","<img src=""img/flower3.png"" style=""width:200px; border:14px solid green;"">","null","","","","","","","","",""
"","image-keyboard-response","106","82551","0.0-106.0","3OB0CAO74IBJMMJS4VMCNCIC1S4HY5","A1NVJB5O4H7ZCJ","3HUR21WDDUBEMSLDIXZW1FAIHWSYXN","","77","img/flower2.png","74","79.40000009536743","1","1","1","2","1,0,0,1,1,0,1,0,1","1,0,0,1,1,0,1,0,1","1",""
"","html-keyboard-response","107","82854","0.0-107.0","3OB0CAO74IBJMMJS4VMCNCIC1S4HY5","A1NVJB5O4H7ZCJ","3HUR21WDDUBEMSLDIXZW1FAIHWSYXN","","null","<img src=""img/flower2.png"" style=""width:200px; border:14px solid green;"">","null","","","","","","","","",""
"","image-keyboard-response","108","82975","0.0-108.0","3OB0CAO74IBJMMJS4VMCNCIC1S4HY5","A1NVJB5O4H7ZCJ","3HUR21WDDUBEMSLDIXZW1FAIHWSYXN","","117.79999995231628","img/flower3.png","74","120.20000004768372","1","1","3","2","1,0,0,1,1,0,1,0,1","1,0,0,1,1,0,1,0,1","1",""
"","html-keyboard-response","109","83280","0.0-109.0","3OB0CAO74IBJMMJS4VMCNCIC1S4HY5","A1NVJB5O4H7ZCJ","3HUR21WDDUBEMSLDIXZW1FAIHWSYXN","","null","<img src=""img/flower3.png"" style=""width:200px; border:14px solid green;"">","null","","","","","","","","",""
"","image-keyboard-response","110","83343","0.0-110.0","3OB0CAO74IBJMMJS4VMCNCIC1S4HY5","A1NVJB5O4H7ZCJ","3HUR21WDDUBEMSLDIXZW1FAIHWSYXN","","59.5","img/flower1.png","74","61.799999952316284","1","1","2","2","1,0,0,1,1,0,1,0,1","1,0,0,1,1,0,1,0,1","1",""
"","html-keyboard-response","111","83646","0.0-111.0","3OB0CAO74IBJMMJS4VMCNCIC1S4HY5","A1NVJB5O4H7ZCJ","3HUR21WDDUBEMSLDIXZW1FAIHWSYXN","","null","<img src=""img/flower1.png"" style=""width:200px; border:14px solid green;"">","null","","","","","","","","",""
"","image-keyboard-response","112","83719","0.0-112.0","3OB0CAO74IBJMMJS4VMCNCIC1S4HY5","A1NVJB5O4H7ZCJ","3HUR21WDDUBEMSLDIXZW1FAIHWSYXN","","71.10000014305115","img/flower3.png","74","72.89999985694885","1","1","3","2","1,0,0,1,1,0,1,0,1","1,0,0,1,1,0,1,0,1","1",""
"","html-keyboard-response","113","84022","0.0-113.0","3OB0CAO74IBJMMJS4VMCNCIC1S4HY5","A1NVJB5O4H7ZCJ","3HUR21WDDUBEMSLDIXZW1FAIHWSYXN","","null","<img src=""img/flower3.png"" style=""width:200px; border:14px solid green;"">","null","","","","","","","","",""
"","image-keyboard-response","114","84119","0.0-114.0","3OB0CAO74IBJMMJS4VMCNCIC1S4HY5","A1NVJB5O4H7ZCJ","3HUR21WDDUBEMSLDIXZW1FAIHWSYXN","","94.79999995231628","img/flower1.png","74","97","1","1","2","2","1,0,0,1,1,0,1,0,1","1,0,0,1,1,0,1,0,1","1",""
"","html-keyboard-response","115","84422","0.0-115.0","3OB0CAO74IBJMMJS4VMCNCIC1S4HY5","A1NVJB5O4H7ZCJ","3HUR21WDDUBEMSLDIXZW1FAIHWSYXN","","null","<img src=""img/flower1.png"" style=""width:200px; border:14px solid green;"">","null","","","","","","","","",""
"","image-keyboard-response","116","84519","0.0-116.0","3OB0CAO74IBJMMJS4VMCNCIC1S4HY5","A1NVJB5O4H7ZCJ","3HUR21WDDUBEMSLDIXZW1FAIHWSYXN","","94.29999995231628","img/flower2.png","74","96.60000014305115","1","1","1","2","1,0,0,1,1,0,1,0,1","1,0,0,1,1,0,1,0,1","1",""
"","html-keyboard-response","117","84823","0.0-117.0","3OB0CAO74IBJMMJS4VMCNCIC1S4HY5","A1NVJB5O4H7ZCJ","3HUR21WDDUBEMSLDIXZW1FAIHWSYXN","","null","<img src=""img/flower2.png"" style=""width:200px; border:14px solid green;"">","null","","","","","","","","",""
"","image-keyboard-response","118","84903","0.0-118.0","3OB0CAO74IBJMMJS4VMCNCIC1S4HY5","A1NVJB5O4H7ZCJ","3HUR21WDDUBEMSLDIXZW1FAIHWSYXN","","78.89999985694885","img/flower2.png","74","80.19999980926514","1","1","1","2","1,0,0,1,1,0,1,0,1","1,0,0,1,1,0,1,0,1","1",""
"","html-keyboard-response","119","85205","0.0-119.0","3OB0CAO74IBJMMJS4VMCNCIC1S4HY5","A1NVJB5O4H7ZCJ","3HUR21WDDUBEMSLDIXZW1FAIHWSYXN","","null","<img src=""img/flower2.png"" style=""width:200px; border:14px solid green;"">","null","","","","","","","","",""
"","image-keyboard-response","120","85383","0.0-120.0","3OB0CAO74IBJMMJS4VMCNCIC1S4HY5","A1NVJB5O4H7ZCJ","3HUR21WDDUBEMSLDIXZW1FAIHWSYXN","","174.60000014305115","img/flower2.png","74","176.90000009536743","1","1","1","2","1,0,0,1,1,0,1,0,1","1,0,0,1,1,0,1,0,1","1",""
"","html-keyboard-response","121","85686","0.0-121.0","3OB0CAO74IBJMMJS4VMCNCIC1S4HY5","A1NVJB5O4H7ZCJ","3HUR21WDDUBEMSLDIXZW1FAIHWSYXN","","null","<img src=""img/flower2.png"" style=""width:200px; border:14px solid green;"">","null","","","","","","","","",""
"","image-keyboard-response","122","85767","0.0-122.0","3OB0CAO74IBJMMJS4VMCNCIC1S4HY5","A1NVJB5O4H7ZCJ","3HUR21WDDUBEMSLDIXZW1FAIHWSYXN","","78.30000019073486","img/flower1.png","74","80.70000004768372","1","1","2","2","1,0,0,1,1,0,1,0,1","1,0,0,1,1,0,1,0,1","1",""
"","html-keyboard-response","123","86071","0.0-123.0","3OB0CAO74IBJMMJS4VMCNCIC1S4HY5","A1NVJB5O4H7ZCJ","3HUR21WDDUBEMSLDIXZW1FAIHWSYXN","","null","<img src=""img/flower1.png"" style=""width:200px; border:14px solid green;"">","null","","","","","","","","",""
"","image-keyboard-response","124","86135","0.0-124.0","3OB0CAO74IBJMMJS4VMCNCIC1S4HY5","A1NVJB5O4H7ZCJ","3HUR21WDDUBEMSLDIXZW1FAIHWSYXN","","62.09999990463257","img/flower1.png","74","64.39999985694885","1","1","2","2","1,0,0,1,1,0,1,0,1","1,0,0,1,1,0,1,0,1","1",""
"","html-keyboard-response","125","86439","0.0-125.0","3OB0CAO74IBJMMJS4VMCNCIC1S4HY5","A1NVJB5O4H7ZCJ","3HUR21WDDUBEMSLDIXZW1FAIHWSYXN","","null","<img src=""img/flower1.png"" style=""width:200px; border:14px solid green;"">","null","","","","","","","","",""
"","image-keyboard-response","126","86511","0.0-126.0","3OB0CAO74IBJMMJS4VMCNCIC1S4HY5","A1NVJB5O4H7ZCJ","3HUR21WDDUBEMSLDIXZW1FAIHWSYXN","","68.59999990463257","img/flower3.png","74","70.90000009536743","1","1","3","2","1,0,0,1,1,0,1,0,1","1,0,0,1,1,0,1,0,1","1",""
"","html-keyboard-response","127","86815","0.0-127.0","3OB0CAO74IBJMMJS4VMCNCIC1S4HY5","A1NVJB5O4H7ZCJ","3HUR21WDDUBEMSLDIXZW1FAIHWSYXN","","null","<img src=""img/flower3.png"" style=""width:200px; border:14px solid green;"">","null","","","","","","","","",""
"","image-keyboard-response","128","86942","0.0-128.0","3OB0CAO74IBJMMJS4VMCNCIC1S4HY5","A1NVJB5O4H7ZCJ","3HUR21WDDUBEMSLDIXZW1FAIHWSYXN","","118.80000019073486","img/flower2.png","74","121.39999985694885","1","1","1","2","1,0,0,1,1,0,1,0,1","1,0,0,1,1,0,1,0,1","1",""
"","html-keyboard-response","129","87245","0.0-129.0","3OB0CAO74IBJMMJS4VMCNCIC1S4HY5","A1NVJB5O4H7ZCJ","3HUR21WDDUBEMSLDIXZW1FAIHWSYXN","","null","<img src=""img/flower2.png"" style=""width:200px; border:14px solid green;"">","null","","","","","","","","",""
"","image-keyboard-response","130","87303","0.0-130.0","3OB0CAO74IBJMMJS4VMCNCIC1S4HY5","A1NVJB5O4H7ZCJ","3HUR21WDDUBEMSLDIXZW1FAIHWSYXN","","54.40000009536743","img/flower2.png","74","56.90000009536743","1","1","1","2","1,0,0,1,1,0,1,0,1","1,0,0,1,1,0,1,0,1","1",""
"","html-keyboard-response","131","87606","0.0-131.0","3OB0CAO74IBJMMJS4VMCNCIC1S4HY5","A1NVJB5O4H7ZCJ","3HUR21WDDUBEMSLDIXZW1FAIHWSYXN","","null","<img src=""img/flower2.png"" style=""width:200px; border:14px solid green;"">","null","","","","","","","","",""
"","image-keyboard-response","132","87685","0.0-132.0","3OB0CAO74IBJMMJS4VMCNCIC1S4HY5","A1NVJB5O4H7ZCJ","3HUR21WDDUBEMSLDIXZW1FAIHWSYXN","","75.5","img/flower3.png","74","78","1","1","3","2","1,0,0,1,1,0,1,0,1","1,0,0,1,1,0,1,0,1","1",""
"","html-keyboard-response","133","87987","0.0-133.0","3OB0CAO74IBJMMJS4VMCNCIC1S4HY5","A1NVJB5O4H7ZCJ","3HUR21WDDUBEMSLDIXZW1FAIHWSYXN","","null","<img src=""img/flower3.png"" style=""width:200px; border:14px solid green;"">","null","","","","","","","","",""
"","image-keyboard-response","134","88071","0.0-134.0","3OB0CAO74IBJMMJS4VMCNCIC1S4HY5","A1NVJB5O4H7ZCJ","3HUR21WDDUBEMSLDIXZW1FAIHWSYXN","","80.70000004768372","img/flower3.png","74","82.90000009536743","1","1","3","2","1,0,0,1,1,0,1,0,1","1,0,0,1,1,0,1,0,1","1",""
"","html-keyboard-response","135","88374","0.0-135.0","3OB0CAO74IBJMMJS4VMCNCIC1S4HY5","A1NVJB5O4H7ZCJ","3HUR21WDDUBEMSLDIXZW1FAIHWSYXN","","null","<img src=""img/flower3.png"" style=""width:200px; border:14px solid green;"">","null","","","","","","","","",""
"","image-keyboard-response","136","88551","0.0-136.0","3OB0CAO74IBJMMJS4VMCNCIC1S4HY5","A1NVJB5O4H7ZCJ","3HUR21WDDUBEMSLDIXZW1FAIHWSYXN","","174","img/flower1.png","74","176.29999995231628","1","1","2","2","1,0,0,1,1,0,1,0,1","1,0,0,1,1,0,1,0,1","1",""
"","html-keyboard-response","137","88855","0.0-137.0","3OB0CAO74IBJMMJS4VMCNCIC1S4HY5","A1NVJB5O4H7ZCJ","3HUR21WDDUBEMSLDIXZW1FAIHWSYXN","","null","<img src=""img/flower1.png"" style=""width:200px; border:14px solid green;"">","null","","","","","","","","",""
"","image-keyboard-response","138","88948","0.0-138.0","3OB0CAO74IBJMMJS4VMCNCIC1S4HY5","A1NVJB5O4H7ZCJ","3HUR21WDDUBEMSLDIXZW1FAIHWSYXN","","91.90000009536743","img/flower2.png","74","92.79999995231628","1","1","1","2","1,0,0,1,1,0,1,0,1","1,0,0,1,1,0,1,0,1","1",""
"","html-keyboard-response","139","89249","0.0-139.0","3OB0CAO74IBJMMJS4VMCNCIC1S4HY5","A1NVJB5O4H7ZCJ","3HUR21WDDUBEMSLDIXZW1FAIHWSYXN","","null","<img src=""img/flower2.png"" style=""width:200px; border:14px solid green;"">","null","","","","","","","","",""
"","image-keyboard-response","140","89398","0.0-140.0","3OB0CAO74IBJMMJS4VMCNCIC1S4HY5","A1NVJB5O4H7ZCJ","3HUR21WDDUBEMSLDIXZW1FAIHWSYXN","","145.90000009536743","img/flower3.png","74","147.90000009536743","1","1","3","2","1,0,0,1,1,0,1,0,1","1,0,0,1,1,0,1,0,1","1",""
"","html-keyboard-response","141","89700","0.0-141.0","3OB0CAO74IBJMMJS4VMCNCIC1S4HY5","A1NVJB5O4H7ZCJ","3HUR21WDDUBEMSLDIXZW1FAIHWSYXN","","null","<img src=""img/flower3.png"" style=""width:200px; border:14px solid green;"">","null","","","","","","","","",""
"","image-keyboard-response","142","89845","0.0-142.0","3OB0CAO74IBJMMJS4VMCNCIC1S4HY5","A1NVJB5O4H7ZCJ","3HUR21WDDUBEMSLDIXZW1FAIHWSYXN","","141.70000004768372","img/flower1.png","74","143.39999985694885","1","1","2","2","1,0,0,1,1,0,1,0,1","1,0,0,1,1,0,1,0,1","1",""
"","html-keyboard-response","143","90146","0.0-143.0","3OB0CAO74IBJMMJS4VMCNCIC1S4HY5","A1NVJB5O4H7ZCJ","3HUR21WDDUBEMSLDIXZW1FAIHWSYXN","","null","<img src=""img/flower1.png"" style=""width:200px; border:14px solid green;"">","null","","","","","","","","",""
"","image-keyboard-response","144","90277","0.0-144.0","3OB0CAO74IBJMMJS4VMCNCIC1S4HY5","A1NVJB5O4H7ZCJ","3HUR21WDDUBEMSLDIXZW1FAIHWSYXN","","128","img/flower3.png","74","129.70000004768372","1","1","3","2","1,0,0,1,1,0,1,0,1","1,0,0,1,1,0,1,0,1","1",""
"","html-keyboard-response","145","90579","0.0-145.0","3OB0CAO74IBJMMJS4VMCNCIC1S4HY5","A1NVJB5O4H7ZCJ","3HUR21WDDUBEMSLDIXZW1FAIHWSYXN","","null","<img src=""img/flower3.png"" style=""width:200px; border:14px solid green;"">","null","","","","","","","","",""
"","image-keyboard-response","146","90669","0.0-146.0","3OB0CAO74IBJMMJS4VMCNCIC1S4HY5","A1NVJB5O4H7ZCJ","3HUR21WDDUBEMSLDIXZW1FAIHWSYXN","","87.60000014305115","img/flower3.png","74","89.59999990463257","1","1","3","2","1,0,0,1,1,0,1,0,1","1,0,0,1,1,0,1,0,1","1",""
"","html-keyboard-response","147","90971","0.0-147.0","3OB0CAO74IBJMMJS4VMCNCIC1S4HY5","A1NVJB5O4H7ZCJ","3HUR21WDDUBEMSLDIXZW1FAIHWSYXN","","null","<img src=""img/flower3.png"" style=""width:200px; border:14px solid green;"">","null","","","","","","","","",""
"","image-keyboard-response","148","91095","0.0-148.0","3OB0CAO74IBJMMJS4VMCNCIC1S4HY5","A1NVJB5O4H7ZCJ","3HUR21WDDUBEMSLDIXZW1FAIHWSYXN","","120.40000009536743","img/flower2.png","74","122.90000009536743","1","1","1","2","1,0,0,1,1,0,1,0,1","1,0,0,1,1,0,1,0,1","1",""
"","html-keyboard-response","149","91399","0.0-149.0","3OB0CAO74IBJMMJS4VMCNCIC1S4HY5","A1NVJB5O4H7ZCJ","3HUR21WDDUBEMSLDIXZW1FAIHWSYXN","","null","<img src=""img/flower2.png"" style=""width:200px; border:14px solid green;"">","null","","","","","","","","",""
"","image-keyboard-response","150","91479","0.0-150.0","3OB0CAO74IBJMMJS4VMCNCIC1S4HY5","A1NVJB5O4H7ZCJ","3HUR21WDDUBEMSLDIXZW1FAIHWSYXN","","77","img/flower3.png","74","79.29999995231628","1","1","3","2","1,0,0,1,1,0,1,0,1","1,0,0,1,1,0,1,0,1","1",""
"","html-keyboard-response","151","91782","0.0-151.0","3OB0CAO74IBJMMJS4VMCNCIC1S4HY5","A1NVJB5O4H7ZCJ","3HUR21WDDUBEMSLDIXZW1FAIHWSYXN","","null","<img src=""img/flower3.png"" style=""width:200px; border:14px solid green;"">","null","","","","","","","","",""
"","image-keyboard-response","152","91911","0.0-152.0","3OB0CAO74IBJMMJS4VMCNCIC1S4HY5","A1NVJB5O4H7ZCJ","3HUR21WDDUBEMSLDIXZW1FAIHWSYXN","","126.5","img/flower2.png","74","128.20000004768372","1","1","1","2","1,0,0,1,1,0,1,0,1","1,0,0,1,1,0,1,0,1","1",""
"","html-keyboard-response","153","92214","0.0-153.0","3OB0CAO74IBJMMJS4VMCNCIC1S4HY5","A1NVJB5O4H7ZCJ","3HUR21WDDUBEMSLDIXZW1FAIHWSYXN","","null","<img src=""img/flower2.png"" style=""width:200px; border:14px solid green;"">","null","","","","","","","","",""
"","image-keyboard-response","154","92351","0.0-154.0","3OB0CAO74IBJMMJS4VMCNCIC1S4HY5","A1NVJB5O4H7ZCJ","3HUR21WDDUBEMSLDIXZW1FAIHWSYXN","","133.80000019073486","img/flower1.png","74","136.30000019073486","1","1","2","2","1,0,0,1,1,0,1,0,1","1,0,0,1,1,0,1,0,1","1",""
"","html-keyboard-response","155","92669","0.0-155.0","3OB0CAO74IBJMMJS4VMCNCIC1S4HY5","A1NVJB5O4H7ZCJ","3HUR21WDDUBEMSLDIXZW1FAIHWSYXN","","null","<img src=""img/flower1.png"" style=""width:200px; border:14px solid green;"">","null","","","","","","","","",""
"","image-keyboard-response","156","92829","0.0-156.0","3OB0CAO74IBJMMJS4VMCNCIC1S4HY5","A1NVJB5O4H7ZCJ","3HUR21WDDUBEMSLDIXZW1FAIHWSYXN","","157.20000004768372","img/flower2.png","74","159.40000009536743","1","1","1","2","1,0,0,1,1,0,1,0,1","1,0,0,1,1,0,1,0,1","1",""
"","html-keyboard-response","157","93131","0.0-157.0","3OB0CAO74IBJMMJS4VMCNCIC1S4HY5","A1NVJB5O4H7ZCJ","3HUR21WDDUBEMSLDIXZW1FAIHWSYXN","","null","<img src=""img/flower2.png"" style=""width:200px; border:14px solid green;"">","null","","","","","","","","",""
"","image-keyboard-response","158","93247","0.0-158.0","3OB0CAO74IBJMMJS4VMCNCIC1S4HY5","A1NVJB5O4H7ZCJ","3HUR21WDDUBEMSLDIXZW1FAIHWSYXN","","112.70000004768372","img/flower1.png","74","115.40000009536743","1","1","2","2","1,0,0,1,1,0,1,0,1","1,0,0,1,1,0,1,0,1","1",""
"","html-keyboard-response","159","93550","0.0-159.0","3OB0CAO74IBJMMJS4VMCNCIC1S4HY5","A1NVJB5O4H7ZCJ","3HUR21WDDUBEMSLDIXZW1FAIHWSYXN","","null","<img src=""img/flower1.png"" style=""width:200px; border:14px solid green;"">","null","","","","","","","","",""
"","image-keyboard-response","160","93669","0.0-160.0","3OB0CAO74IBJMMJS4VMCNCIC1S4HY5","A1NVJB5O4H7ZCJ","3HUR21WDDUBEMSLDIXZW1FAIHWSYXN","","116.80000019073486","img/flower1.png","74","118.90000009536743","1","1","2","2","1,0,0,1,1,0,1,0,1","1,0,0,1,1,0,1,0,1","1",""
"","html-keyboard-response","161","93987","0.0-161.0","3OB0CAO74IBJMMJS4VMCNCIC1S4HY5","A1NVJB5O4H7ZCJ","3HUR21WDDUBEMSLDIXZW1FAIHWSYXN","","null","<img src=""img/flower1.png"" style=""width:200px; border:14px solid green;"">","null","","","","","","","","",""
"","image-keyboard-response","162","94023","0.0-162.0","3OB0CAO74IBJMMJS4VMCNCIC1S4HY5","A1NVJB5O4H7ZCJ","3HUR21WDDUBEMSLDIXZW1FAIHWSYXN","","33.5","img/flower2.png","74","35.69999980926514","1","1","1","2","1,0,0,1,1,0,1,0,1","1,0,0,1,1,0,1,0,1","1",""
"","html-keyboard-response","163","94326","0.0-163.0","3OB0CAO74IBJMMJS4VMCNCIC1S4HY5","A1NVJB5O4H7ZCJ","3HUR21WDDUBEMSLDIXZW1FAIHWSYXN","","null","<img src=""img/flower2.png"" style=""width:200px; border:14px solid green;"">","null","","","","","","","","",""
"","image-keyboard-response","164","94407","0.0-164.0","3OB0CAO74IBJMMJS4VMCNCIC1S4HY5","A1NVJB5O4H7ZCJ","3HUR21WDDUBEMSLDIXZW1FAIHWSYXN","","78.29999995231628","img/flower2.png","74","80.59999990463257","1","1","1","2","1,0,0,1,1,0,1,0,1","1,0,0,1,1,0,1,0,1","1",""
"","html-keyboard-response","165","94711","0.0-165.0","3OB0CAO74IBJMMJS4VMCNCIC1S4HY5","A1NVJB5O4H7ZCJ","3HUR21WDDUBEMSLDIXZW1FAIHWSYXN","","null","<img src=""img/flower2.png"" style=""width:200px; border:14px solid green;"">","null","","","","","","","","",""
"","image-keyboard-response","166","94798","0.0-166.0","3OB0CAO74IBJMMJS4VMCNCIC1S4HY5","A1NVJB5O4H7ZCJ","3HUR21WDDUBEMSLDIXZW1FAIHWSYXN","","84.40000009536743","img/flower1.png","74","86.10000014305115","1","1","2","2","1,0,0,1,1,0,1,0,1","1,0,0,1,1,0,1,0,1","1",""
"","html-keyboard-response","167","95101","0.0-167.0","3OB0CAO74IBJMMJS4VMCNCIC1S4HY5","A1NVJB5O4H7ZCJ","3HUR21WDDUBEMSLDIXZW1FAIHWSYXN","","null","<img src=""img/flower1.png"" style=""width:200px; border:14px solid green;"">","null","","","","","","","","",""
"","image-keyboard-response","168","95231","0.0-168.0","3OB0CAO74IBJMMJS4VMCNCIC1S4HY5","A1NVJB5O4H7ZCJ","3HUR21WDDUBEMSLDIXZW1FAIHWSYXN","","127.20000004768372","img/flower3.png","74","129.29999995231628","1","1","3","2","1,0,0,1,1,0,1,0,1","1,0,0,1,1,0,1,0,1","1",""
"","html-keyboard-response","169","95533","0.0-169.0","3OB0CAO74IBJMMJS4VMCNCIC1S4HY5","A1NVJB5O4H7ZCJ","3HUR21WDDUBEMSLDIXZW1FAIHWSYXN","","null","<img src=""img/flower3.png"" style=""width:200px; border:14px solid green;"">","null","","","","","","","","",""
"","image-keyboard-response","170","95628","0.0-170.0","3OB0CAO74IBJMMJS4VMCNCIC1S4HY5","A1NVJB5O4H7ZCJ","3HUR21WDDUBEMSLDIXZW1FAIHWSYXN","","92.39999985694885","img/flower1.png","76","94.70000004768372","3","0","2","2","1,0,0,1,1,0,1,0,1","1,0,0,1,1,0,1,0,1","1",""
"","html-keyboard-response","171","95931","0.0-171.0","3OB0CAO74IBJMMJS4VMCNCIC1S4HY5","A1NVJB5O4H7ZCJ","3HUR21WDDUBEMSLDIXZW1FAIHWSYXN","","null","<img src=""img/flower1.png"" style=""width:200px;border:14px solid red;"">","null","","","","","","","","",""
"","image-keyboard-response","172","96130","0.0-172.0","3OB0CAO74IBJMMJS4VMCNCIC1S4HY5","A1NVJB5O4H7ZCJ","3HUR21WDDUBEMSLDIXZW1FAIHWSYXN","","196.80000019073486","img/flower1.png","74","199","1","1","2","2","1,0,0,1,1,0,1,0,1","1,0,0,1,1,0,1,0,1","1",""
"","html-keyboard-response","173","96434","0.0-173.0","3OB0CAO74IBJMMJS4VMCNCIC1S4HY5","A1NVJB5O4H7ZCJ","3HUR21WDDUBEMSLDIXZW1FAIHWSYXN","","null","<img src=""img/flower1.png"" style=""width:200px; border:14px solid green;"">","null","","","","","","","","",""
"","image-keyboard-response","174","96555","0.0-174.0","3OB0CAO74IBJMMJS4VMCNCIC1S4HY5","A1NVJB5O4H7ZCJ","3HUR21WDDUBEMSLDIXZW1FAIHWSYXN","","118.70000004768372","img/flower3.png","74","120.89999985694885","1","1","3","2","1,0,0,1,1,0,1,0,1","1,0,0,1,1,0,1,0,1","1",""
"","html-keyboard-response","175","96859","0.0-175.0","3OB0CAO74IBJMMJS4VMCNCIC1S4HY5","A1NVJB5O4H7ZCJ","3HUR21WDDUBEMSLDIXZW1FAIHWSYXN","","null","<img src=""img/flower3.png"" style=""width:200px; border:14px solid green;"">","null","","","","","","","","",""
"","image-keyboard-response","176","96925","0.0-176.0","3OB0CAO74IBJMMJS4VMCNCIC1S4HY5","A1NVJB5O4H7ZCJ","3HUR21WDDUBEMSLDIXZW1FAIHWSYXN","","63.39999985694885","img/flower2.png","74","65.29999995231628","1","1","1","2","1,0,0,1,1,0,1,0,1","1,0,0,1,1,0,1,0,1","1",""
"","html-keyboard-response","177","97228","0.0-177.0","3OB0CAO74IBJMMJS4VMCNCIC1S4HY5","A1NVJB5O4H7ZCJ","3HUR21WDDUBEMSLDIXZW1FAIHWSYXN","","null","<img src=""img/flower2.png"" style=""width:200px; border:14px solid green;"">","null","","","","","","","","",""
"","image-keyboard-response","178","97287","0.0-178.0","3OB0CAO74IBJMMJS4VMCNCIC1S4HY5","A1NVJB5O4H7ZCJ","3HUR21WDDUBEMSLDIXZW1FAIHWSYXN","","56.09999990463257","img/flower1.png","74","58.5","1","1","2","2","1,0,0,1,1,0,1,0,1","1,0,0,1,1,0,1,0,1","1",""
"","html-keyboard-response","179","97590","0.0-179.0","3OB0CAO74IBJMMJS4VMCNCIC1S4HY5","A1NVJB5O4H7ZCJ","3HUR21WDDUBEMSLDIXZW1FAIHWSYXN","","null","<img src=""img/flower1.png"" style=""width:200px; border:14px solid green;"">","null","","","","","","","","",""
"","image-keyboard-response","180","97743","0.0-180.0","3OB0CAO74IBJMMJS4VMCNCIC1S4HY5","A1NVJB5O4H7ZCJ","3HUR21WDDUBEMSLDIXZW1FAIHWSYXN","","149.59999990463257","img/flower1.png","75","151.90000009536743","2","1","2","2","1,0,0,1,1,0,1,0,1","1,0,0,1,1,0,1,0,1","1",""
"","html-keyboard-response","181","98046","0.0-181.0","3OB0CAO74IBJMMJS4VMCNCIC1S4HY5","A1NVJB5O4H7ZCJ","3HUR21WDDUBEMSLDIXZW1FAIHWSYXN","","null","<img src=""img/flower1.png"" style=""width:200px; border:14px solid green;"">","null","","","","","","","","",""
"","image-keyboard-response","182","98343","0.0-182.0","3OB0CAO74IBJMMJS4VMCNCIC1S4HY5","A1NVJB5O4H7ZCJ","3HUR21WDDUBEMSLDIXZW1FAIHWSYXN","","294.39999985694885","img/flower6.png","74","297","1","1","3","1","1,0.333,0.333,0.333,1,0.333,0.333,0.333,1","1,0.333,0.333,0.333,1,0.333,0.333,0.333,1","1",""
"","html-keyboard-response","183","98646","0.0-183.0","3OB0CAO74IBJMMJS4VMCNCIC1S4HY5","A1NVJB5O4H7ZCJ","3HUR21WDDUBEMSLDIXZW1FAIHWSYXN","","null","<img src=""img/flower6.png"" style=""width:200px; border:14px solid green;"">","null","","","","","","","","",""
"","image-keyboard-response","184","98820","0.0-184.0","3OB0CAO74IBJMMJS4VMCNCIC1S4HY5","A1NVJB5O4H7ZCJ","3HUR21WDDUBEMSLDIXZW1FAIHWSYXN","","171","img/flower4.png","74","172.70000004768372","1","1","1","1","1,0.333,0.333,0.333,1,0.333,0.333,0.333,1","1,0.333,0.333,0.333,1,0.333,0.333,0.333,1","1",""
"","html-keyboard-response","185","99122","0.0-185.0","3OB0CAO74IBJMMJS4VMCNCIC1S4HY5","A1NVJB5O4H7ZCJ","3HUR21WDDUBEMSLDIXZW1FAIHWSYXN","","null","<img src=""img/flower4.png"" style=""width:200px; border:14px solid green;"">","null","","","","","","","","",""
"","image-keyboard-response","186","99788","0.0-186.0","3OB0CAO74IBJMMJS4VMCNCIC1S4HY5","A1NVJB5O4H7ZCJ","3HUR21WDDUBEMSLDIXZW1FAIHWSYXN","","662.7999999523163","img/flower5.png","75","665.4000000953674","2","1","2","1","1,0.333,0.333,0.333,1,0.333,0.333,0.333,1","1,0.333,0.333,0.333,1,0.333,0.333,0.333,1","1",""
"","html-keyboard-response","187","100091","0.0-187.0","3OB0CAO74IBJMMJS4VMCNCIC1S4HY5","A1NVJB5O4H7ZCJ","3HUR21WDDUBEMSLDIXZW1FAIHWSYXN","","null","<img src=""img/flower5.png"" style=""width:200px; border:14px solid green;"">","null","","","","","","","","",""
"","image-keyboard-response","188","101296","0.0-188.0","3OB0CAO74IBJMMJS4VMCNCIC1S4HY5","A1NVJB5O4H7ZCJ","3HUR21WDDUBEMSLDIXZW1FAIHWSYXN","","1202.2999999523163","img/flower6.png","75","1204.2000000476837","2","0","3","1","1,0.333,0.333,0.333,1,0.333,0.333,0.333,1","1,0.333,0.333,0.333,1,0.333,0.333,0.333,1","1",""
"","html-keyboard-response","189","101598","0.0-189.0","3OB0CAO74IBJMMJS4VMCNCIC1S4HY5","A1NVJB5O4H7ZCJ","3HUR21WDDUBEMSLDIXZW1FAIHWSYXN","","null","<img src=""img/flower6.png"" style=""width:200px;border:14px solid red;"">","null","","","","","","","","",""
"","image-keyboard-response","190","102251","0.0-190.0","3OB0CAO74IBJMMJS4VMCNCIC1S4HY5","A1NVJB5O4H7ZCJ","3HUR21WDDUBEMSLDIXZW1FAIHWSYXN","","651.5","img/flower6.png","76","653.0999999046326","3","1","3","1","1,0.333,0.333,0.333,1,0.333,0.333,0.333,1","1,0.333,0.333,0.333,1,0.333,0.333,0.333,1","1",""
"","html-keyboard-response","191","102554","0.0-191.0","3OB0CAO74IBJMMJS4VMCNCIC1S4HY5","A1NVJB5O4H7ZCJ","3HUR21WDDUBEMSLDIXZW1FAIHWSYXN","","null","<img src=""img/flower6.png"" style=""width:200px; border:14px solid green;"">","null","","","","","","","","",""
"","image-keyboard-response","192","103203","0.0-192.0","3OB0CAO74IBJMMJS4VMCNCIC1S4HY5","A1NVJB5O4H7ZCJ","3HUR21WDDUBEMSLDIXZW1FAIHWSYXN","","647.5","img/flower5.png","74","648.7000000476837","1","0","2","1","1,0.333,0.333,0.333,1,0.333,0.333,0.333,1","1,0.333,0.333,0.333,1,0.333,0.333,0.333,1","1",""
"","html-keyboard-response","193","103506","0.0-193.0","3OB0CAO74IBJMMJS4VMCNCIC1S4HY5","A1NVJB5O4H7ZCJ","3HUR21WDDUBEMSLDIXZW1FAIHWSYXN","","null","<img src=""img/flower5.png"" style=""width:200px;border:14px solid red;"">","null","","","","","","","","",""
"","image-keyboard-response","194","104730","0.0-194.0","3OB0CAO74IBJMMJS4VMCNCIC1S4HY5","A1NVJB5O4H7ZCJ","3HUR21WDDUBEMSLDIXZW1FAIHWSYXN","","1221.1000001430511","img/flower4.png","74","1223.5","1","1","1","1","1,0.333,0.333,0.333,1,0.333,0.333,0.333,1","1,0.333,0.333,0.333,1,0.333,0.333,0.333,1","1",""
"","html-keyboard-response","195","105034","0.0-195.0","3OB0CAO74IBJMMJS4VMCNCIC1S4HY5","A1NVJB5O4H7ZCJ","3HUR21WDDUBEMSLDIXZW1FAIHWSYXN","","null","<img src=""img/flower4.png"" style=""width:200px; border:14px solid green;"">","null","","","","","","","","",""
"","image-keyboard-response","196","106171","0.0-196.0","3OB0CAO74IBJMMJS4VMCNCIC1S4HY5","A1NVJB5O4H7ZCJ","3HUR21WDDUBEMSLDIXZW1FAIHWSYXN","","1135.6000001430511","img/flower5.png","75","1136.9000000953674","2","1","2","1","1,0.333,0.333,0.333,1,0.333,0.333,0.333,1","1,0.333,0.333,0.333,1,0.333,0.333,0.333,1","1",""
"","html-keyboard-response","197","106473","0.0-197.0","3OB0CAO74IBJMMJS4VMCNCIC1S4HY5","A1NVJB5O4H7ZCJ","3HUR21WDDUBEMSLDIXZW1FAIHWSYXN","","null","<img src=""img/flower5.png"" style=""width:200px; border:14px solid green;"">","null","","","","","","","","",""
"","image-keyboard-response","198","107194","0.0-198.0","3OB0CAO74IBJMMJS4VMCNCIC1S4HY5","A1NVJB5O4H7ZCJ","3HUR21WDDUBEMSLDIXZW1FAIHWSYXN","","717.9000000953674","img/flower4.png","76","720.3000001907349","3","0","1","1","1,0.333,0.333,0.333,1,0.333,0.333,0.333,1","1,0.333,0.333,0.333,1,0.333,0.333,0.333,1","1",""
"","html-keyboard-response","199","107497","0.0-199.0","3OB0CAO74IBJMMJS4VMCNCIC1S4HY5","A1NVJB5O4H7ZCJ","3HUR21WDDUBEMSLDIXZW1FAIHWSYXN","","null","<img src=""img/flower4.png"" style=""width:200px;border:14px solid red;"">","null","","","","","","","","",""
"","image-keyboard-response","200","108130","0.0-200.0","3OB0CAO74IBJMMJS4VMCNCIC1S4HY5","A1NVJB5O4H7ZCJ","3HUR21WDDUBEMSLDIXZW1FAIHWSYXN","","630.5","img/flower5.png","75","632.7999999523163","2","1","2","1","1,0.333,0.333,0.333,1,0.333,0.333,0.333,1","1,0.333,0.333,0.333,1,0.333,0.333,0.333,1","1",""
"","html-keyboard-response","201","108434","0.0-201.0","3OB0CAO74IBJMMJS4VMCNCIC1S4HY5","A1NVJB5O4H7ZCJ","3HUR21WDDUBEMSLDIXZW1FAIHWSYXN","","null","<img src=""img/flower5.png"" style=""width:200px; border:14px solid green;"">","null","","","","","","","","",""
"","image-keyboard-response","202","109008","0.0-202.0","3OB0CAO74IBJMMJS4VMCNCIC1S4HY5","A1NVJB5O4H7ZCJ","3HUR21WDDUBEMSLDIXZW1FAIHWSYXN","","571.5","img/flower5.png","75","573.3999998569489","2","1","2","1","1,0.333,0.333,0.333,1,0.333,0.333,0.333,1","1,0.333,0.333,0.333,1,0.333,0.333,0.333,1","1",""
"","html-keyboard-response","203","109311","0.0-203.0","3OB0CAO74IBJMMJS4VMCNCIC1S4HY5","A1NVJB5O4H7ZCJ","3HUR21WDDUBEMSLDIXZW1FAIHWSYXN","","null","<img src=""img/flower5.png"" style=""width:200px; border:14px solid green;"">","null","","","","","","","","",""
"","image-keyboard-response","204","109924","0.0-204.0","3OB0CAO74IBJMMJS4VMCNCIC1S4HY5","A1NVJB5O4H7ZCJ","3HUR21WDDUBEMSLDIXZW1FAIHWSYXN","","611.3999998569489","img/flower5.png","75","612.9000000953674","2","1","2","1","1,0.333,0.333,0.333,1,0.333,0.333,0.333,1","1,0.333,0.333,0.333,1,0.333,0.333,0.333,1","1",""
"","html-keyboard-response","205","110227","0.0-205.0","3OB0CAO74IBJMMJS4VMCNCIC1S4HY5","A1NVJB5O4H7ZCJ","3HUR21WDDUBEMSLDIXZW1FAIHWSYXN","","null","<img src=""img/flower5.png"" style=""width:200px; border:14px solid green;"">","null","","","","","","","","",""
"","image-keyboard-response","206","110690","0.0-206.0","3OB0CAO74IBJMMJS4VMCNCIC1S4HY5","A1NVJB5O4H7ZCJ","3HUR21WDDUBEMSLDIXZW1FAIHWSYXN","","458.2999999523163","img/flower5.png","75","460.59999990463257","2","1","2","1","1,0.333,0.333,0.333,1,0.333,0.333,0.333,1","1,0.333,0.333,0.333,1,0.333,0.333,0.333,1","1",""
"","html-keyboard-response","207","110993","0.0-207.0","3OB0CAO74IBJMMJS4VMCNCIC1S4HY5","A1NVJB5O4H7ZCJ","3HUR21WDDUBEMSLDIXZW1FAIHWSYXN","","null","<img src=""img/flower5.png"" style=""width:200px; border:14px solid green;"">","null","","","","","","","","",""
"","image-keyboard-response","208","111330","0.0-208.0","3OB0CAO74IBJMMJS4VMCNCIC1S4HY5","A1NVJB5O4H7ZCJ","3HUR21WDDUBEMSLDIXZW1FAIHWSYXN","","334","img/flower5.png","75","336.2999999523163","2","1","2","1","1,0.333,0.333,0.333,1,0.333,0.333,0.333,1","1,0.333,0.333,0.333,1,0.333,0.333,0.333,1","1",""
"","html-keyboard-response","209","111633","0.0-209.0","3OB0CAO74IBJMMJS4VMCNCIC1S4HY5","A1NVJB5O4H7ZCJ","3HUR21WDDUBEMSLDIXZW1FAIHWSYXN","","null","<img src=""img/flower5.png"" style=""width:200px; border:14px solid green;"">","null","","","","","","","","",""
"","image-keyboard-response","210","111834","0.0-210.0","3OB0CAO74IBJMMJS4VMCNCIC1S4HY5","A1NVJB5O4H7ZCJ","3HUR21WDDUBEMSLDIXZW1FAIHWSYXN","","198.20000004768372","img/flower6.png","75","200.59999990463257","2","1","3","1","1,0.333,0.333,0.333,1,0.333,0.333,0.333,1","1,0.333,0.333,0.333,1,0.333,0.333,0.333,1","1",""
"","html-keyboard-response","211","112138","0.0-211.0","3OB0CAO74IBJMMJS4VMCNCIC1S4HY5","A1NVJB5O4H7ZCJ","3HUR21WDDUBEMSLDIXZW1FAIHWSYXN","","null","<img src=""img/flower6.png"" style=""width:200px; border:14px solid green;"">","null","","","","","","","","",""
"","image-keyboard-response","212","112475","0.0-212.0","3OB0CAO74IBJMMJS4VMCNCIC1S4HY5","A1NVJB5O4H7ZCJ","3HUR21WDDUBEMSLDIXZW1FAIHWSYXN","","335.09999990463257","img/flower6.png","75","337","2","0","3","1","1,0.333,0.333,0.333,1,0.333,0.333,0.333,1","1,0.333,0.333,0.333,1,0.333,0.333,0.333,1","1",""
"","html-keyboard-response","213","112778","0.0-213.0","3OB0CAO74IBJMMJS4VMCNCIC1S4HY5","A1NVJB5O4H7ZCJ","3HUR21WDDUBEMSLDIXZW1FAIHWSYXN","","null","<img src=""img/flower6.png"" style=""width:200px;border:14px solid red;"">","null","","","","","","","","",""
"","image-keyboard-response","214","113530","0.0-214.0","3OB0CAO74IBJMMJS4VMCNCIC1S4HY5","A1NVJB5O4H7ZCJ","3HUR21WDDUBEMSLDIXZW1FAIHWSYXN","","749.1999998092651","img/flower5.png","75","751.2999999523163","2","1","2","1","1,0.333,0.333,0.333,1,0.333,0.333,0.333,1","1,0.333,0.333,0.333,1,0.333,0.333,0.333,1","1",""
"","html-keyboard-response","215","113834","0.0-215.0","3OB0CAO74IBJMMJS4VMCNCIC1S4HY5","A1NVJB5O4H7ZCJ","3HUR21WDDUBEMSLDIXZW1FAIHWSYXN","","null","<img src=""img/flower5.png"" style=""width:200px; border:14px solid green;"">","null","","","","","","","","",""
"","image-keyboard-response","216","114467","0.0-216.0","3OB0CAO74IBJMMJS4VMCNCIC1S4HY5","A1NVJB5O4H7ZCJ","3HUR21WDDUBEMSLDIXZW1FAIHWSYXN","","629.8999998569489","img/flower4.png","76","632.4000000953674","3","0","1","1","1,0.333,0.333,0.333,1,0.333,0.333,0.333,1","1,0.333,0.333,0.333,1,0.333,0.333,0.333,1","1",""
"","html-keyboard-response","217","114770","0.0-217.0","3OB0CAO74IBJMMJS4VMCNCIC1S4HY5","A1NVJB5O4H7ZCJ","3HUR21WDDUBEMSLDIXZW1FAIHWSYXN","","null","<img src=""img/flower4.png"" style=""width:200px;border:14px solid red;"">","null","","","","","","","","",""
"","image-keyboard-response","218","115184","0.0-218.0","3OB0CAO74IBJMMJS4VMCNCIC1S4HY5","A1NVJB5O4H7ZCJ","3HUR21WDDUBEMSLDIXZW1FAIHWSYXN","","411.7999999523163","img/flower6.png","75","413.69999980926514","2","0","3","1","1,0.333,0.333,0.333,1,0.333,0.333,0.333,1","1,0.333,0.333,0.333,1,0.333,0.333,0.333,1","1",""
"","html-keyboard-response","219","115487","0.0-219.0","3OB0CAO74IBJMMJS4VMCNCIC1S4HY5","A1NVJB5O4H7ZCJ","3HUR21WDDUBEMSLDIXZW1FAIHWSYXN","","null","<img src=""img/flower6.png"" style=""width:200px;border:14px solid red;"">","null","","","","","","","","",""
"","image-keyboard-response","220","116019","0.0-220.0","3OB0CAO74IBJMMJS4VMCNCIC1S4HY5","A1NVJB5O4H7ZCJ","3HUR21WDDUBEMSLDIXZW1FAIHWSYXN","","528.5","img/flower5.png","76","531","3","1","2","1","1,0.333,0.333,0.333,1,0.333,0.333,0.333,1","1,0.333,0.333,0.333,1,0.333,0.333,0.333,1","1",""
"","html-keyboard-response","221","116322","0.0-221.0","3OB0CAO74IBJMMJS4VMCNCIC1S4HY5","A1NVJB5O4H7ZCJ","3HUR21WDDUBEMSLDIXZW1FAIHWSYXN","","null","<img src=""img/flower5.png"" style=""width:200px; border:14px solid green;"">","null","","","","","","","","",""
"","image-keyboard-response","222","117011","0.0-222.0","3OB0CAO74IBJMMJS4VMCNCIC1S4HY5","A1NVJB5O4H7ZCJ","3HUR21WDDUBEMSLDIXZW1FAIHWSYXN","","685.6000001430511","img/flower6.png","76","687.8000001907349","3","1","3","1","1,0.333,0.333,0.333,1,0.333,0.333,0.333,1","1,0.333,0.333,0.333,1,0.333,0.333,0.333,1","1",""
"","html-keyboard-response","223","117328","0.0-223.0","3OB0CAO74IBJMMJS4VMCNCIC1S4HY5","A1NVJB5O4H7ZCJ","3HUR21WDDUBEMSLDIXZW1FAIHWSYXN","","null","<img src=""img/flower6.png"" style=""width:200px; border:14px solid green;"">","null","","","","","","","","",""
"","image-keyboard-response","224","117971","0.0-224.0","3OB0CAO74IBJMMJS4VMCNCIC1S4HY5","A1NVJB5O4H7ZCJ","3HUR21WDDUBEMSLDIXZW1FAIHWSYXN","","640.1000001430511","img/flower4.png","76","642.3999998569489","3","1","1","1","1,0.333,0.333,0.333,1,0.333,0.333,0.333,1","1,0.333,0.333,0.333,1,0.333,0.333,0.333,1","1",""
"","html-keyboard-response","225","118276","0.0-225.0","3OB0CAO74IBJMMJS4VMCNCIC1S4HY5","A1NVJB5O4H7ZCJ","3HUR21WDDUBEMSLDIXZW1FAIHWSYXN","","null","<img src=""img/flower4.png"" style=""width:200px; border:14px solid green;"">","null","","","","","","","","",""
"","image-keyboard-response","226","119032","0.0-226.0","3OB0CAO74IBJMMJS4VMCNCIC1S4HY5","A1NVJB5O4H7ZCJ","3HUR21WDDUBEMSLDIXZW1FAIHWSYXN","","753.7999999523163","img/flower5.png","76","755.2999999523163","3","0","2","1","1,0.333,0.333,0.333,1,0.333,0.333,0.333,1","1,0.333,0.333,0.333,1,0.333,0.333,0.333,1","1",""
"","html-keyboard-response","227","119334","0.0-227.0","3OB0CAO74IBJMMJS4VMCNCIC1S4HY5","A1NVJB5O4H7ZCJ","3HUR21WDDUBEMSLDIXZW1FAIHWSYXN","","null","<img src=""img/flower5.png"" style=""width:200px;border:14px solid red;"">","null","","","","","","","","",""
"","image-keyboard-response","228","119786","0.0-228.0","3OB0CAO74IBJMMJS4VMCNCIC1S4HY5","A1NVJB5O4H7ZCJ","3HUR21WDDUBEMSLDIXZW1FAIHWSYXN","","449.90000009536743","img/flower6.png","75","452","2","1","3","1","1,0.333,0.333,0.333,1,0.333,0.333,0.333,1","1,0.333,0.333,0.333,1,0.333,0.333,0.333,1","1",""
"","html-keyboard-response","229","120090","0.0-229.0","3OB0CAO74IBJMMJS4VMCNCIC1S4HY5","A1NVJB5O4H7ZCJ","3HUR21WDDUBEMSLDIXZW1FAIHWSYXN","","null","<img src=""img/flower6.png"" style=""width:200px; border:14px solid green;"">","null","","","","","","","","",""
"","image-keyboard-response","230","120611","0.0-230.0","3OB0CAO74IBJMMJS4VMCNCIC1S4HY5","A1NVJB5O4H7ZCJ","3HUR21WDDUBEMSLDIXZW1FAIHWSYXN","","518.8999998569489","img/flower5.png","75","521.1999998092651","2","1","2","1","1,0.333,0.333,0.333,1,0.333,0.333,0.333,1","1,0.333,0.333,0.333,1,0.333,0.333,0.333,1","1",""
"","html-keyboard-response","231","120915","0.0-231.0","3OB0CAO74IBJMMJS4VMCNCIC1S4HY5","A1NVJB5O4H7ZCJ","3HUR21WDDUBEMSLDIXZW1FAIHWSYXN","","null","<img src=""img/flower5.png"" style=""width:200px; border:14px solid green;"">","null","","","","","","","","",""
"","image-keyboard-response","232","121530","0.0-232.0","3OB0CAO74IBJMMJS4VMCNCIC1S4HY5","A1NVJB5O4H7ZCJ","3HUR21WDDUBEMSLDIXZW1FAIHWSYXN","","612.7999999523163","img/flower6.png","76","615.0999999046326","3","1","3","1","1,0.333,0.333,0.333,1,0.333,0.333,0.333,1","1,0.333,0.333,0.333,1,0.333,0.333,0.333,1","1",""
"","html-keyboard-response","233","121834","0.0-233.0","3OB0CAO74IBJMMJS4VMCNCIC1S4HY5","A1NVJB5O4H7ZCJ","3HUR21WDDUBEMSLDIXZW1FAIHWSYXN","","null","<img src=""img/flower6.png"" style=""width:200px; border:14px solid green;"">","null","","","","","","","","",""
"","image-keyboard-response","234","122539","0.0-234.0","3OB0CAO74IBJMMJS4VMCNCIC1S4HY5","A1NVJB5O4H7ZCJ","3HUR21WDDUBEMSLDIXZW1FAIHWSYXN","","702.5","img/flower4.png","75","704.9000000953674","2","0","1","1","1,0.333,0.333,0.333,1,0.333,0.333,0.333,1","1,0.333,0.333,0.333,1,0.333,0.333,0.333,1","1",""
"","html-keyboard-response","235","122842","0.0-235.0","3OB0CAO74IBJMMJS4VMCNCIC1S4HY5","A1NVJB5O4H7ZCJ","3HUR21WDDUBEMSLDIXZW1FAIHWSYXN","","null","<img src=""img/flower4.png"" style=""width:200px;border:14px solid red;"">","null","","","","","","","","",""
"","image-keyboard-response","236","123438","0.0-236.0","3OB0CAO74IBJMMJS4VMCNCIC1S4HY5","A1NVJB5O4H7ZCJ","3HUR21WDDUBEMSLDIXZW1FAIHWSYXN","","593.6999998092651","img/flower6.png","76","596","3","1","3","1","1,0.333,0.333,0.333,1,0.333,0.333,0.333,1","1,0.333,0.333,0.333,1,0.333,0.333,0.333,1","1",""
"","html-keyboard-response","237","123742","0.0-237.0","3OB0CAO74IBJMMJS4VMCNCIC1S4HY5","A1NVJB5O4H7ZCJ","3HUR21WDDUBEMSLDIXZW1FAIHWSYXN","","null","<img src=""img/flower6.png"" style=""width:200px; border:14px solid green;"">","null","","","","","","","","",""
"","image-keyboard-response","238","124644","0.0-238.0","3OB0CAO74IBJMMJS4VMCNCIC1S4HY5","A1NVJB5O4H7ZCJ","3HUR21WDDUBEMSLDIXZW1FAIHWSYXN","","900.2000000476837","img/flower5.png","75","902","2","1","2","1","1,0.333,0.333,0.333,1,0.333,0.333,0.333,1","1,0.333,0.333,0.333,1,0.333,0.333,0.333,1","1",""
"","html-keyboard-response","239","124947","0.0-239.0","3OB0CAO74IBJMMJS4VMCNCIC1S4HY5","A1NVJB5O4H7ZCJ","3HUR21WDDUBEMSLDIXZW1FAIHWSYXN","","null","<img src=""img/flower5.png"" style=""width:200px; border:14px solid green;"">","null","","","","","","","","",""
"","image-keyboard-response","240","125750","0.0-240.0","3OB0CAO74IBJMMJS4VMCNCIC1S4HY5","A1NVJB5O4H7ZCJ","3HUR21WDDUBEMSLDIXZW1FAIHWSYXN","","801.7000000476837","img/flower5.png","75","803.2000000476837","2","1","2","1","1,0.333,0.333,0.333,1,0.333,0.333,0.333,1","1,0.333,0.333,0.333,1,0.333,0.333,0.333,1","1",""
"","html-keyboard-response","241","126054","0.0-241.0","3OB0CAO74IBJMMJS4VMCNCIC1S4HY5","A1NVJB5O4H7ZCJ","3HUR21WDDUBEMSLDIXZW1FAIHWSYXN","","null","<img src=""img/flower5.png"" style=""width:200px; border:14px solid green;"">","null","","","","","","","","",""
"","image-keyboard-response","242","126710","0.0-242.0","3OB0CAO74IBJMMJS4VMCNCIC1S4HY5","A1NVJB5O4H7ZCJ","3HUR21WDDUBEMSLDIXZW1FAIHWSYXN","","654.1999998092651","img/flower4.png","76","656.0999999046326","3","0","1","1","1,0.333,0.333,0.333,1,0.333,0.333,0.333,1","1,0.333,0.333,0.333,1,0.333,0.333,0.333,1","1",""
"","html-keyboard-response","243","127013","0.0-243.0","3OB0CAO74IBJMMJS4VMCNCIC1S4HY5","A1NVJB5O4H7ZCJ","3HUR21WDDUBEMSLDIXZW1FAIHWSYXN","","null","<img src=""img/flower4.png"" style=""width:200px;border:14px solid red;"">","null","","","","","","","","",""
"","image-keyboard-response","244","127591","0.0-244.0","3OB0CAO74IBJMMJS4VMCNCIC1S4HY5","A1NVJB5O4H7ZCJ","3HUR21WDDUBEMSLDIXZW1FAIHWSYXN","","575","img/flower5.png","75","577.0999999046326","2","1","2","1","1,0.333,0.333,0.333,1,0.333,0.333,0.333,1","1,0.333,0.333,0.333,1,0.333,0.333,0.333,1","1",""
"","html-keyboard-response","245","127894","0.0-245.0","3OB0CAO74IBJMMJS4VMCNCIC1S4HY5","A1NVJB5O4H7ZCJ","3HUR21WDDUBEMSLDIXZW1FAIHWSYXN","","null","<img src=""img/flower5.png"" style=""width:200px; border:14px solid green;"">","null","","","","","","","","",""
"","image-keyboard-response","246","128326","0.0-246.0","3OB0CAO74IBJMMJS4VMCNCIC1S4HY5","A1NVJB5O4H7ZCJ","3HUR21WDDUBEMSLDIXZW1FAIHWSYXN","","429","img/flower5.png","75","431.2000000476837","2","1","2","1","1,0.333,0.333,0.333,1,0.333,0.333,0.333,1","1,0.333,0.333,0.333,1,0.333,0.333,0.333,1","1",""
"","html-keyboard-response","247","128629","0.0-247.0","3OB0CAO74IBJMMJS4VMCNCIC1S4HY5","A1NVJB5O4H7ZCJ","3HUR21WDDUBEMSLDIXZW1FAIHWSYXN","","null","<img src=""img/flower5.png"" style=""width:200px; border:14px solid green;"">","null","","","","","","","","",""
"","image-keyboard-response","248","129261","0.0-248.0","3OB0CAO74IBJMMJS4VMCNCIC1S4HY5","A1NVJB5O4H7ZCJ","3HUR21WDDUBEMSLDIXZW1FAIHWSYXN","","629.5","img/flower4.png","76","631.4000000953674","3","1","1","1","1,0.333,0.333,0.333,1,0.333,0.333,0.333,1","1,0.333,0.333,0.333,1,0.333,0.333,0.333,1","1",""
"","html-keyboard-response","249","129564","0.0-249.0","3OB0CAO74IBJMMJS4VMCNCIC1S4HY5","A1NVJB5O4H7ZCJ","3HUR21WDDUBEMSLDIXZW1FAIHWSYXN","","null","<img src=""img/flower4.png"" style=""width:200px; border:14px solid green;"">","null","","","","","","","","",""
"","image-keyboard-response","250","129918","0.0-250.0","3OB0CAO74IBJMMJS4VMCNCIC1S4HY5","A1NVJB5O4H7ZCJ","3HUR21WDDUBEMSLDIXZW1FAIHWSYXN","","351.80000019073486","img/flower4.png","75","354.09999990463257","2","0","1","1","1,0.333,0.333,0.333,1,0.333,0.333,0.333,1","1,0.333,0.333,0.333,1,0.333,0.333,0.333,1","1",""
"","html-keyboard-response","251","130221","0.0-251.0","3OB0CAO74IBJMMJS4VMCNCIC1S4HY5","A1NVJB5O4H7ZCJ","3HUR21WDDUBEMSLDIXZW1FAIHWSYXN","","null","<img src=""img/flower4.png"" style=""width:200px;border:14px solid red;"">","null","","","","","","","","",""
"","image-keyboard-response","252","130550","0.0-252.0","3OB0CAO74IBJMMJS4VMCNCIC1S4HY5","A1NVJB5O4H7ZCJ","3HUR21WDDUBEMSLDIXZW1FAIHWSYXN","","326.09999990463257","img/flower4.png","76","328.40000009536743","3","0","1","1","1,0.333,0.333,0.333,1,0.333,0.333,0.333,1","1,0.333,0.333,0.333,1,0.333,0.333,0.333,1","1",""
"","html-keyboard-response","253","130854","0.0-253.0","3OB0CAO74IBJMMJS4VMCNCIC1S4HY5","A1NVJB5O4H7ZCJ","3HUR21WDDUBEMSLDIXZW1FAIHWSYXN","","null","<img src=""img/flower4.png"" style=""width:200px;border:14px solid red;"">","null","","","","","","","","",""
"","image-keyboard-response","254","131534","0.0-254.0","3OB0CAO74IBJMMJS4VMCNCIC1S4HY5","A1NVJB5O4H7ZCJ","3HUR21WDDUBEMSLDIXZW1FAIHWSYXN","","677.8999998569489","img/flower6.png","76","679.5","3","1","3","1","1,0.333,0.333,0.333,1,0.333,0.333,0.333,1","1,0.333,0.333,0.333,1,0.333,0.333,0.333,1","1",""
"","html-keyboard-response","255","131838","0.0-255.0","3OB0CAO74IBJMMJS4VMCNCIC1S4HY5","A1NVJB5O4H7ZCJ","3HUR21WDDUBEMSLDIXZW1FAIHWSYXN","","null","<img src=""img/flower6.png"" style=""width:200px; border:14px solid green;"">","null","","","","","","","","",""
"","image-keyboard-response","256","132508","0.0-256.0","3OB0CAO74IBJMMJS4VMCNCIC1S4HY5","A1NVJB5O4H7ZCJ","3HUR21WDDUBEMSLDIXZW1FAIHWSYXN","","667.8999998569489","img/flower6.png","76","669.7999999523163","3","1","3","1","1,0.333,0.333,0.333,1,0.333,0.333,0.333,1","1,0.333,0.333,0.333,1,0.333,0.333,0.333,1","1",""
"","html-keyboard-response","257","132812","0.0-257.0","3OB0CAO74IBJMMJS4VMCNCIC1S4HY5","A1NVJB5O4H7ZCJ","3HUR21WDDUBEMSLDIXZW1FAIHWSYXN","","null","<img src=""img/flower6.png"" style=""width:200px; border:14px solid green;"">","null","","","","","","","","",""
"","image-keyboard-response","258","133414","0.0-258.0","3OB0CAO74IBJMMJS4VMCNCIC1S4HY5","A1NVJB5O4H7ZCJ","3HUR21WDDUBEMSLDIXZW1FAIHWSYXN","","599.9000000953674","img/flower4.png","75","602.1000001430511","2","0","1","1","1,0.333,0.333,0.333,1,0.333,0.333,0.333,1","1,0.333,0.333,0.333,1,0.333,0.333,0.333,1","1",""
"","html-keyboard-response","259","133718","0.0-259.0","3OB0CAO74IBJMMJS4VMCNCIC1S4HY5","A1NVJB5O4H7ZCJ","3HUR21WDDUBEMSLDIXZW1FAIHWSYXN","","null","<img src=""img/flower4.png"" style=""width:200px;border:14px solid red;"">","null","","","","","","","","",""
"","image-keyboard-response","260","134214","0.0-260.0","3OB0CAO74IBJMMJS4VMCNCIC1S4HY5","A1NVJB5O4H7ZCJ","3HUR21WDDUBEMSLDIXZW1FAIHWSYXN","","493.40000009536743","img/flower4.png","76","495.60000014305115","3","0","1","1","1,0.333,0.333,0.333,1,0.333,0.333,0.333,1","1,0.333,0.333,0.333,1,0.333,0.333,0.333,1","1",""
"","html-keyboard-response","261","134517","0.0-261.0","3OB0CAO74IBJMMJS4VMCNCIC1S4HY5","A1NVJB5O4H7ZCJ","3HUR21WDDUBEMSLDIXZW1FAIHWSYXN","","null","<img src=""img/flower4.png"" style=""width:200px;border:14px solid red;"">","null","","","","","","","","",""
"","image-keyboard-response","262","135210","0.0-262.0","3OB0CAO74IBJMMJS4VMCNCIC1S4HY5","A1NVJB5O4H7ZCJ","3HUR21WDDUBEMSLDIXZW1FAIHWSYXN","","690","img/flower6.png","76","692.2000000476837","3","1","3","1","1,0.333,0.333,0.333,1,0.333,0.333,0.333,1","1,0.333,0.333,0.333,1,0.333,0.333,0.333,1","1",""
"","html-keyboard-response","263","135513","0.0-263.0","3OB0CAO74IBJMMJS4VMCNCIC1S4HY5","A1NVJB5O4H7ZCJ","3HUR21WDDUBEMSLDIXZW1FAIHWSYXN","","null","<img src=""img/flower6.png"" style=""width:200px; border:14px solid green;"">","null","","","","","","","","",""
"","image-keyboard-response","264","135906","0.0-264.0","3OB0CAO74IBJMMJS4VMCNCIC1S4HY5","A1NVJB5O4H7ZCJ","3HUR21WDDUBEMSLDIXZW1FAIHWSYXN","","390.5","img/flower6.png","76","392.60000014305115","3","1","3","1","1,0.333,0.333,0.333,1,0.333,0.333,0.333,1","1,0.333,0.333,0.333,1,0.333,0.333,0.333,1","1",""
"","html-keyboard-response","265","136209","0.0-265.0","3OB0CAO74IBJMMJS4VMCNCIC1S4HY5","A1NVJB5O4H7ZCJ","3HUR21WDDUBEMSLDIXZW1FAIHWSYXN","","null","<img src=""img/flower6.png"" style=""width:200px; border:14px solid green;"">","null","","","","","","","","",""
"","image-keyboard-response","266","136778","0.0-266.0","3OB0CAO74IBJMMJS4VMCNCIC1S4HY5","A1NVJB5O4H7ZCJ","3HUR21WDDUBEMSLDIXZW1FAIHWSYXN","","565.7999999523163","img/flower4.png","75","568.1000001430511","2","0","1","1","1,0.333,0.333,0.333,1,0.333,0.333,0.333,1","1,0.333,0.333,0.333,1,0.333,0.333,0.333,1","1",""
"","html-keyboard-response","267","137081","0.0-267.0","3OB0CAO74IBJMMJS4VMCNCIC1S4HY5","A1NVJB5O4H7ZCJ","3HUR21WDDUBEMSLDIXZW1FAIHWSYXN","","null","<img src=""img/flower4.png"" style=""width:200px;border:14px solid red;"">","null","","","","","","","","",""
"","image-keyboard-response","268","137687","0.0-268.0","3OB0CAO74IBJMMJS4VMCNCIC1S4HY5","A1NVJB5O4H7ZCJ","3HUR21WDDUBEMSLDIXZW1FAIHWSYXN","","603.4000000953674","img/flower5.png","76","605.1999998092651","3","0","2","1","1,0.333,0.333,0.333,1,0.333,0.333,0.333,1","1,0.333,0.333,0.333,1,0.333,0.333,0.333,1","1",""
"","html-keyboard-response","269","137989","0.0-269.0","3OB0CAO74IBJMMJS4VMCNCIC1S4HY5","A1NVJB5O4H7ZCJ","3HUR21WDDUBEMSLDIXZW1FAIHWSYXN","","null","<img src=""img/flower5.png"" style=""width:200px;border:14px solid red;"">","null","","","","","","","","",""
"","image-keyboard-response","270","138426","0.0-270.0","3OB0CAO74IBJMMJS4VMCNCIC1S4HY5","A1NVJB5O4H7ZCJ","3HUR21WDDUBEMSLDIXZW1FAIHWSYXN","","435.09999990463257","img/flower4.png","75","437.5","2","0","1","1","1,0.333,0.333,0.333,1,0.333,0.333,0.333,1","1,0.333,0.333,0.333,1,0.333,0.333,0.333,1","1",""
"","html-keyboard-response","271","138729","0.0-271.0","3OB0CAO74IBJMMJS4VMCNCIC1S4HY5","A1NVJB5O4H7ZCJ","3HUR21WDDUBEMSLDIXZW1FAIHWSYXN","","null","<img src=""img/flower4.png"" style=""width:200px;border:14px solid red;"">","null","","","","","","","","",""
"","image-keyboard-response","272","139522","0.0-272.0","3OB0CAO74IBJMMJS4VMCNCIC1S4HY5","A1NVJB5O4H7ZCJ","3HUR21WDDUBEMSLDIXZW1FAIHWSYXN","","790.7999999523163","img/flower6.png","76","792.1999998092651","3","1","3","1","1,0.333,0.333,0.333,1,0.333,0.333,0.333,1","1,0.333,0.333,0.333,1,0.333,0.333,0.333,1","1",""
"","html-keyboard-response","273","139825","0.0-273.0","3OB0CAO74IBJMMJS4VMCNCIC1S4HY5","A1NVJB5O4H7ZCJ","3HUR21WDDUBEMSLDIXZW1FAIHWSYXN","","null","<img src=""img/flower6.png"" style=""width:200px; border:14px solid green;"">","null","","","","","","","","",""
"","image-keyboard-response","274","140378","0.0-274.0","3OB0CAO74IBJMMJS4VMCNCIC1S4HY5","A1NVJB5O4H7ZCJ","3HUR21WDDUBEMSLDIXZW1FAIHWSYXN","","550.5","img/flower6.png","76","553","3","1","3","1","1,0.333,0.333,0.333,1,0.333,0.333,0.333,1","1,0.333,0.333,0.333,1,0.333,0.333,0.333,1","1",""
"","html-keyboard-response","275","140682","0.0-275.0","3OB0CAO74IBJMMJS4VMCNCIC1S4HY5","A1NVJB5O4H7ZCJ","3HUR21WDDUBEMSLDIXZW1FAIHWSYXN","","null","<img src=""img/flower6.png"" style=""width:200px; border:14px solid green;"">","null","","","","","","","","",""
"","image-keyboard-response","276","141259","0.0-276.0","3OB0CAO74IBJMMJS4VMCNCIC1S4HY5","A1NVJB5O4H7ZCJ","3HUR21WDDUBEMSLDIXZW1FAIHWSYXN","","575","img/flower6.png","76","580.1000001430511","3","1","3","1","1,0.333,0.333,0.333,1,0.333,0.333,0.333,1","1,0.333,0.333,0.333,1,0.333,0.333,0.333,1","1",""
"","html-keyboard-response","277","141566","0.0-277.0","3OB0CAO74IBJMMJS4VMCNCIC1S4HY5","A1NVJB5O4H7ZCJ","3HUR21WDDUBEMSLDIXZW1FAIHWSYXN","","null","<img src=""img/flower6.png"" style=""width:200px; border:14px solid green;"">","null","","","","","","","","",""
"","image-keyboard-response","278","142114","0.0-278.0","3OB0CAO74IBJMMJS4VMCNCIC1S4HY5","A1NVJB5O4H7ZCJ","3HUR21WDDUBEMSLDIXZW1FAIHWSYXN","","546.4000000953674","img/flower4.png","76","548.4000000953674","3","0","1","1","1,0.333,0.333,0.333,1,0.333,0.333,0.333,1","1,0.333,0.333,0.333,1,0.333,0.333,0.333,1","1",""
"","html-keyboard-response","279","142418","0.0-279.0","3OB0CAO74IBJMMJS4VMCNCIC1S4HY5","A1NVJB5O4H7ZCJ","3HUR21WDDUBEMSLDIXZW1FAIHWSYXN","","null","<img src=""img/flower4.png"" style=""width:200px;border:14px solid red;"">","null","","","","","","","","",""
"","image-keyboard-response","280","143176","0.0-280.0","3OB0CAO74IBJMMJS4VMCNCIC1S4HY5","A1NVJB5O4H7ZCJ","3HUR21WDDUBEMSLDIXZW1FAIHWSYXN","","755.8000001907349","img/flower4.png","75","757.8999998569489","2","1","1","1","1,0.333,0.333,0.333,1,0.333,0.333,0.333,1","1,0.333,0.333,0.333,1,0.333,0.333,0.333,1","1",""
"","html-keyboard-response","281","143480","0.0-281.0","3OB0CAO74IBJMMJS4VMCNCIC1S4HY5","A1NVJB5O4H7ZCJ","3HUR21WDDUBEMSLDIXZW1FAIHWSYXN","","null","<img src=""img/flower4.png"" style=""width:200px; border:14px solid green;"">","null","","","","","","","","",""
"","image-keyboard-response","282","144138","0.0-282.0","3OB0CAO74IBJMMJS4VMCNCIC1S4HY5","A1NVJB5O4H7ZCJ","3HUR21WDDUBEMSLDIXZW1FAIHWSYXN","","655.6000001430511","img/flower5.png","75","657.8999998569489","2","1","2","1","1,0.333,0.333,0.333,1,0.333,0.333,0.333,1","1,0.333,0.333,0.333,1,0.333,0.333,0.333,1","1",""
"","html-keyboard-response","283","144441","0.0-283.0","3OB0CAO74IBJMMJS4VMCNCIC1S4HY5","A1NVJB5O4H7ZCJ","3HUR21WDDUBEMSLDIXZW1FAIHWSYXN","","null","<img src=""img/flower5.png"" style=""width:200px; border:14px solid green;"">","null","","","","","","","","",""
"","image-keyboard-response","284","145202","0.0-284.0","3OB0CAO74IBJMMJS4VMCNCIC1S4HY5","A1NVJB5O4H7ZCJ","3HUR21WDDUBEMSLDIXZW1FAIHWSYXN","","759","img/flower4.png","76","760.7999999523163","3","0","1","1","1,0.333,0.333,0.333,1,0.333,0.333,0.333,1","1,0.333,0.333,0.333,1,0.333,0.333,0.333,1","1",""
"","html-keyboard-response","285","145504","0.0-285.0","3OB0CAO74IBJMMJS4VMCNCIC1S4HY5","A1NVJB5O4H7ZCJ","3HUR21WDDUBEMSLDIXZW1FAIHWSYXN","","null","<img src=""img/flower4.png"" style=""width:200px;border:14px solid red;"">","null","","","","","","","","",""
"","image-keyboard-response","286","146034","0.0-286.0","3OB0CAO74IBJMMJS4VMCNCIC1S4HY5","A1NVJB5O4H7ZCJ","3HUR21WDDUBEMSLDIXZW1FAIHWSYXN","","526.5","img/flower6.png","75","528.7000000476837","2","1","3","1","1,0.333,0.333,0.333,1,0.333,0.333,0.333,1","1,0.333,0.333,0.333,1,0.333,0.333,0.333,1","1",""
"","html-keyboard-response","287","146337","0.0-287.0","3OB0CAO74IBJMMJS4VMCNCIC1S4HY5","A1NVJB5O4H7ZCJ","3HUR21WDDUBEMSLDIXZW1FAIHWSYXN","","null","<img src=""img/flower6.png"" style=""width:200px; border:14px solid green;"">","null","","","","","","","","",""
"","image-keyboard-response","288","146962","0.0-288.0","3OB0CAO74IBJMMJS4VMCNCIC1S4HY5","A1NVJB5O4H7ZCJ","3HUR21WDDUBEMSLDIXZW1FAIHWSYXN","","622","img/flower5.png","75","624.2000000476837","2","1","2","1","1,0.333,0.333,0.333,1,0.333,0.333,0.333,1","1,0.333,0.333,0.333,1,0.333,0.333,0.333,1","1",""
"","html-keyboard-response","289","147266","0.0-289.0","3OB0CAO74IBJMMJS4VMCNCIC1S4HY5","A1NVJB5O4H7ZCJ","3HUR21WDDUBEMSLDIXZW1FAIHWSYXN","","null","<img src=""img/flower5.png"" style=""width:200px; border:14px solid green;"">","null","","","","","","","","",""
"","image-keyboard-response","290","147659","0.0-290.0","3OB0CAO74IBJMMJS4VMCNCIC1S4HY5","A1NVJB5O4H7ZCJ","3HUR21WDDUBEMSLDIXZW1FAIHWSYXN","","389.7999999523163","img/flower5.png","75","392.39999985694885","2","1","2","1","1,0.333,0.333,0.333,1,0.333,0.333,0.333,1","1,0.333,0.333,0.333,1,0.333,0.333,0.333,1","1",""
"","html-keyboard-response","291","147963","0.0-291.0","3OB0CAO74IBJMMJS4VMCNCIC1S4HY5","A1NVJB5O4H7ZCJ","3HUR21WDDUBEMSLDIXZW1FAIHWSYXN","","null","<img src=""img/flower5.png"" style=""width:200px; border:14px solid green;"">","null","","","","","","","","",""
"","image-keyboard-response","292","148298","0.0-292.0","3OB0CAO74IBJMMJS4VMCNCIC1S4HY5","A1NVJB5O4H7ZCJ","3HUR21WDDUBEMSLDIXZW1FAIHWSYXN","","332.59999990463257","img/flower4.png","75","334.90000009536743","2","0","1","1","1,0.333,0.333,0.333,1,0.333,0.333,0.333,1","1,0.333,0.333,0.333,1,0.333,0.333,0.333,1","1",""
"","html-keyboard-response","293","148602","0.0-293.0","3OB0CAO74IBJMMJS4VMCNCIC1S4HY5","A1NVJB5O4H7ZCJ","3HUR21WDDUBEMSLDIXZW1FAIHWSYXN","","null","<img src=""img/flower4.png"" style=""width:200px;border:14px solid red;"">","null","","","","","","","","",""
"","image-keyboard-response","294","149335","0.0-294.0","3OB0CAO74IBJMMJS4VMCNCIC1S4HY5","A1NVJB5O4H7ZCJ","3HUR21WDDUBEMSLDIXZW1FAIHWSYXN","","731.0999999046326","img/flower4.png","76","732.9000000953674","3","1","1","1","1,0.333,0.333,0.333,1,0.333,0.333,0.333,1","1,0.333,0.333,0.333,1,0.333,0.333,0.333,1","1",""
"","html-keyboard-response","295","149638","0.0-295.0","3OB0CAO74IBJMMJS4VMCNCIC1S4HY5","A1NVJB5O4H7ZCJ","3HUR21WDDUBEMSLDIXZW1FAIHWSYXN","","null","<img src=""img/flower4.png"" style=""width:200px; border:14px solid green;"">","null","","","","","","","","",""
"","image-keyboard-response","296","150090","0.0-296.0","3OB0CAO74IBJMMJS4VMCNCIC1S4HY5","A1NVJB5O4H7ZCJ","3HUR21WDDUBEMSLDIXZW1FAIHWSYXN","","449.5","img/flower4.png","76","451.7999999523163","3","0","1","1","1,0.333,0.333,0.333,1,0.333,0.333,0.333,1","1,0.333,0.333,0.333,1,0.333,0.333,0.333,1","1",""
"","html-keyboard-response","297","150394","0.0-297.0","3OB0CAO74IBJMMJS4VMCNCIC1S4HY5","A1NVJB5O4H7ZCJ","3HUR21WDDUBEMSLDIXZW1FAIHWSYXN","","null","<img src=""img/flower4.png"" style=""width:200px;border:14px solid red;"">","null","","","","","","","","",""
"","image-keyboard-response","298","151199","0.0-298.0","3OB0CAO74IBJMMJS4VMCNCIC1S4HY5","A1NVJB5O4H7ZCJ","3HUR21WDDUBEMSLDIXZW1FAIHWSYXN","","802.7999999523163","img/flower5.png","75","804.5999999046326","2","1","2","1","1,0.333,0.333,0.333,1,0.333,0.333,0.333,1","1,0.333,0.333,0.333,1,0.333,0.333,0.333,1","1",""
"","html-keyboard-response","299","151501","0.0-299.0","3OB0CAO74IBJMMJS4VMCNCIC1S4HY5","A1NVJB5O4H7ZCJ","3HUR21WDDUBEMSLDIXZW1FAIHWSYXN","","null","<img src=""img/flower5.png"" style=""width:200px; border:14px solid green;"">","null","","","","","","","","",""
"","image-keyboard-response","300","151882","0.0-300.0","3OB0CAO74IBJMMJS4VMCNCIC1S4HY5","A1NVJB5O4H7ZCJ","3HUR21WDDUBEMSLDIXZW1FAIHWSYXN","","377.90000009536743","img/flower5.png","75","380.2000000476837","2","1","2","1","1,0.333,0.333,0.333,1,0.333,0.333,0.333,1","1,0.333,0.333,0.333,1,0.333,0.333,0.333,1","1",""
"","html-keyboard-response","301","152185","0.0-301.0","3OB0CAO74IBJMMJS4VMCNCIC1S4HY5","A1NVJB5O4H7ZCJ","3HUR21WDDUBEMSLDIXZW1FAIHWSYXN","","null","<img src=""img/flower5.png"" style=""width:200px; border:14px solid green;"">","null","","","","","","","","",""
"","image-keyboard-response","302","152419","0.0-302.0","3OB0CAO74IBJMMJS4VMCNCIC1S4HY5","A1NVJB5O4H7ZCJ","3HUR21WDDUBEMSLDIXZW1FAIHWSYXN","","231.20000004768372","img/flower6.png","75","233.70000004768372","2","1","3","1","1,0.333,0.333,0.333,1,0.333,0.333,0.333,1","1,0.333,0.333,0.333,1,0.333,0.333,0.333,1","1",""
"","html-keyboard-response","303","152728","0.0-303.0","3OB0CAO74IBJMMJS4VMCNCIC1S4HY5","A1NVJB5O4H7ZCJ","3HUR21WDDUBEMSLDIXZW1FAIHWSYXN","","null","<img src=""img/flower6.png"" style=""width:200px; border:14px solid green;"">","null","","","","","","","","",""
"","image-keyboard-response","304","153354","0.0-304.0","3OB0CAO74IBJMMJS4VMCNCIC1S4HY5","A1NVJB5O4H7ZCJ","3HUR21WDDUBEMSLDIXZW1FAIHWSYXN","","623.4000000953674","img/flower4.png","75","625.7000000476837","2","1","1","1","1,0.333,0.333,0.333,1,0.333,0.333,0.333,1","1,0.333,0.333,0.333,1,0.333,0.333,0.333,1","1",""
"","html-keyboard-response","305","153657","0.0-305.0","3OB0CAO74IBJMMJS4VMCNCIC1S4HY5","A1NVJB5O4H7ZCJ","3HUR21WDDUBEMSLDIXZW1FAIHWSYXN","","null","<img src=""img/flower4.png"" style=""width:200px; border:14px solid green;"">","null","","","","","","","","",""
"","image-keyboard-response","306","154098","0.0-306.0","3OB0CAO74IBJMMJS4VMCNCIC1S4HY5","A1NVJB5O4H7ZCJ","3HUR21WDDUBEMSLDIXZW1FAIHWSYXN","","438","img/flower4.png","75","440.7000000476837","2","0","1","1","1,0.333,0.333,0.333,1,0.333,0.333,0.333,1","1,0.333,0.333,0.333,1,0.333,0.333,0.333,1","1",""
"","html-keyboard-response","307","154402","0.0-307.0","3OB0CAO74IBJMMJS4VMCNCIC1S4HY5","A1NVJB5O4H7ZCJ","3HUR21WDDUBEMSLDIXZW1FAIHWSYXN","","null","<img src=""img/flower4.png"" style=""width:200px;border:14px solid red;"">","null","","","","","","","","",""
"","image-keyboard-response","308","154866","0.0-308.0","3OB0CAO74IBJMMJS4VMCNCIC1S4HY5","A1NVJB5O4H7ZCJ","3HUR21WDDUBEMSLDIXZW1FAIHWSYXN","","460.7999999523163","img/flower4.png","75","463.2000000476837","2","1","1","1","1,0.333,0.333,0.333,1,0.333,0.333,0.333,1","1,0.333,0.333,0.333,1,0.333,0.333,0.333,1","1",""
"","html-keyboard-response","309","155169","0.0-309.0","3OB0CAO74IBJMMJS4VMCNCIC1S4HY5","A1NVJB5O4H7ZCJ","3HUR21WDDUBEMSLDIXZW1FAIHWSYXN","","null","<img src=""img/flower4.png"" style=""width:200px; border:14px solid green;"">","null","","","","","","","","",""
"","image-keyboard-response","310","155802","0.0-310.0","3OB0CAO74IBJMMJS4VMCNCIC1S4HY5","A1NVJB5O4H7ZCJ","3HUR21WDDUBEMSLDIXZW1FAIHWSYXN","","629.8999998569489","img/flower5.png","76","632.2999999523163","3","0","2","1","1,0.333,0.333,0.333,1,0.333,0.333,0.333,1","1,0.333,0.333,0.333,1,0.333,0.333,0.333,1","1",""
"","html-keyboard-response","311","156107","0.0-311.0","3OB0CAO74IBJMMJS4VMCNCIC1S4HY5","A1NVJB5O4H7ZCJ","3HUR21WDDUBEMSLDIXZW1FAIHWSYXN","","null","<img src=""img/flower5.png"" style=""width:200px;border:14px solid red;"">","null","","","","","","","","",""
"","image-keyboard-response","312","156434","0.0-312.0","3OB0CAO74IBJMMJS4VMCNCIC1S4HY5","A1NVJB5O4H7ZCJ","3HUR21WDDUBEMSLDIXZW1FAIHWSYXN","","323.90000009536743","img/flower6.png","75","326.7999999523163","2","0","3","1","1,0.333,0.333,0.333,1,0.333,0.333,0.333,1","1,0.333,0.333,0.333,1,0.333,0.333,0.333,1","1",""
"","html-keyboard-response","313","156737","0.0-313.0","3OB0CAO74IBJMMJS4VMCNCIC1S4HY5","A1NVJB5O4H7ZCJ","3HUR21WDDUBEMSLDIXZW1FAIHWSYXN","","null","<img src=""img/flower6.png"" style=""width:200px;border:14px solid red;"">","null","","","","","","","","",""
"","image-keyboard-response","314","157195","0.0-314.0","3OB0CAO74IBJMMJS4VMCNCIC1S4HY5","A1NVJB5O4H7ZCJ","3HUR21WDDUBEMSLDIXZW1FAIHWSYXN","","454.7999999523163","img/flower6.png","75","457.2000000476837","2","0","3","1","1,0.333,0.333,0.333,1,0.333,0.333,0.333,1","1,0.333,0.333,0.333,1,0.333,0.333,0.333,1","1",""
"","html-keyboard-response","315","157498","0.0-315.0","3OB0CAO74IBJMMJS4VMCNCIC1S4HY5","A1NVJB5O4H7ZCJ","3HUR21WDDUBEMSLDIXZW1FAIHWSYXN","","null","<img src=""img/flower6.png"" style=""width:200px;border:14px solid red;"">","null","","","","","","","","",""
"","image-keyboard-response","316","158011","0.0-316.0","3OB0CAO74IBJMMJS4VMCNCIC1S4HY5","A1NVJB5O4H7ZCJ","3HUR21WDDUBEMSLDIXZW1FAIHWSYXN","","510.2000000476837","img/flower5.png","76","512.6000001430511","3","0","2","1","1,0.333,0.333,0.333,1,0.333,0.333,0.333,1","1,0.333,0.333,0.333,1,0.333,0.333,0.333,1","1",""
"","html-keyboard-response","317","158314","0.0-317.0","3OB0CAO74IBJMMJS4VMCNCIC1S4HY5","A1NVJB5O4H7ZCJ","3HUR21WDDUBEMSLDIXZW1FAIHWSYXN","","null","<img src=""img/flower5.png"" style=""width:200px;border:14px solid red;"">","null","","","","","","","","",""
"","image-keyboard-response","318","159044","0.0-318.0","3OB0CAO74IBJMMJS4VMCNCIC1S4HY5","A1NVJB5O4H7ZCJ","3HUR21WDDUBEMSLDIXZW1FAIHWSYXN","","727.5999999046326","img/flower5.png","75","729.7999999523163","2","1","2","1","1,0.333,0.333,0.333,1,0.333,0.333,0.333,1","1,0.333,0.333,0.333,1,0.333,0.333,0.333,1","1",""
"","html-keyboard-response","319","159347","0.0-319.0","3OB0CAO74IBJMMJS4VMCNCIC1S4HY5","A1NVJB5O4H7ZCJ","3HUR21WDDUBEMSLDIXZW1FAIHWSYXN","","null","<img src=""img/flower5.png"" style=""width:200px; border:14px solid green;"">","null","","","","","","","","",""
"","image-keyboard-response","320","159966","0.0-320.0","3OB0CAO74IBJMMJS4VMCNCIC1S4HY5","A1NVJB5O4H7ZCJ","3HUR21WDDUBEMSLDIXZW1FAIHWSYXN","","616.2999999523163","img/flower4.png","76","618.5999999046326","3","1","1","1","1,0.333,0.333,0.333,1,0.333,0.333,0.333,1","1,0.333,0.333,0.333,1,0.333,0.333,0.333,1","1",""
"","html-keyboard-response","321","160269","0.0-321.0","3OB0CAO74IBJMMJS4VMCNCIC1S4HY5","A1NVJB5O4H7ZCJ","3HUR21WDDUBEMSLDIXZW1FAIHWSYXN","","null","<img src=""img/flower4.png"" style=""width:200px; border:14px solid green;"">","null","","","","","","","","",""
"","image-keyboard-response","322","160830","0.0-322.0","3OB0CAO74IBJMMJS4VMCNCIC1S4HY5","A1NVJB5O4H7ZCJ","3HUR21WDDUBEMSLDIXZW1FAIHWSYXN","","558.6000001430511","img/flower6.png","76","561","3","1","3","1","1,0.333,0.333,0.333,1,0.333,0.333,0.333,1","1,0.333,0.333,0.333,1,0.333,0.333,0.333,1","1",""
"","html-keyboard-response","323","161135","0.0-323.0","3OB0CAO74IBJMMJS4VMCNCIC1S4HY5","A1NVJB5O4H7ZCJ","3HUR21WDDUBEMSLDIXZW1FAIHWSYXN","","null","<img src=""img/flower6.png"" style=""width:200px; border:14px solid green;"">","null","","","","","","","","",""
"","image-keyboard-response","324","162182","0.0-324.0","3OB0CAO74IBJMMJS4VMCNCIC1S4HY5","A1NVJB5O4H7ZCJ","3HUR21WDDUBEMSLDIXZW1FAIHWSYXN","","1043.7999999523163","img/flower4.png","75","1046.3999998569489","2","0","1","1","1,0.333,0.333,0.333,1,0.333,0.333,0.333,1","1,0.333,0.333,0.333,1,0.333,0.333,0.333,1","1",""
"","html-keyboard-response","325","162486","0.0-325.0","3OB0CAO74IBJMMJS4VMCNCIC1S4HY5","A1NVJB5O4H7ZCJ","3HUR21WDDUBEMSLDIXZW1FAIHWSYXN","","null","<img src=""img/flower4.png"" style=""width:200px;border:14px solid red;"">","null","","","","","","","","",""
"","image-keyboard-response","326","163654","0.0-326.0","3OB0CAO74IBJMMJS4VMCNCIC1S4HY5","A1NVJB5O4H7ZCJ","3HUR21WDDUBEMSLDIXZW1FAIHWSYXN","","1165.5","img/flower4.png","76","1167.9000000953674","3","1","1","1","1,0.333,0.333,0.333,1,0.333,0.333,0.333,1","1,0.333,0.333,0.333,1,0.333,0.333,0.333,1","1",""
"","html-keyboard-response","327","163957","0.0-327.0","3OB0CAO74IBJMMJS4VMCNCIC1S4HY5","A1NVJB5O4H7ZCJ","3HUR21WDDUBEMSLDIXZW1FAIHWSYXN","","null","<img src=""img/flower4.png"" style=""width:200px; border:14px solid green;"">","null","","","","","","","","",""
"","image-keyboard-response","328","164645","0.0-328.0","3OB0CAO74IBJMMJS4VMCNCIC1S4HY5","A1NVJB5O4H7ZCJ","3HUR21WDDUBEMSLDIXZW1FAIHWSYXN","","685.7999999523163","img/flower6.png","76","688","3","1","3","1","1,0.333,0.333,0.333,1,0.333,0.333,0.333,1","1,0.333,0.333,0.333,1,0.333,0.333,0.333,1","1",""
"","html-keyboard-response","329","164949","0.0-329.0","3OB0CAO74IBJMMJS4VMCNCIC1S4HY5","A1NVJB5O4H7ZCJ","3HUR21WDDUBEMSLDIXZW1FAIHWSYXN","","null","<img src=""img/flower6.png"" style=""width:200px; border:14px solid green;"">","null","","","","","","","","",""
"","image-keyboard-response","330","165503","0.0-330.0","3OB0CAO74IBJMMJS4VMCNCIC1S4HY5","A1NVJB5O4H7ZCJ","3HUR21WDDUBEMSLDIXZW1FAIHWSYXN","","552.6000001430511","img/flower6.png","76","554.4000000953674","3","1","3","1","1,0.333,0.333,0.333,1,0.333,0.333,0.333,1","1,0.333,0.333,0.333,1,0.333,0.333,0.333,1","1",""
"","html-keyboard-response","331","165807","0.0-331.0","3OB0CAO74IBJMMJS4VMCNCIC1S4HY5","A1NVJB5O4H7ZCJ","3HUR21WDDUBEMSLDIXZW1FAIHWSYXN","","null","<img src=""img/flower6.png"" style=""width:200px; border:14px solid green;"">","null","","","","","","","","",""
"","image-keyboard-response","332","166597","0.0-332.0","3OB0CAO74IBJMMJS4VMCNCIC1S4HY5","A1NVJB5O4H7ZCJ","3HUR21WDDUBEMSLDIXZW1FAIHWSYXN","","786.7000000476837","img/flower5.png","75","788.7999999523163","2","1","2","1","1,0.333,0.333,0.333,1,0.333,0.333,0.333,1","1,0.333,0.333,0.333,1,0.333,0.333,0.333,1","1",""
"","html-keyboard-response","333","166899","0.0-333.0","3OB0CAO74IBJMMJS4VMCNCIC1S4HY5","A1NVJB5O4H7ZCJ","3HUR21WDDUBEMSLDIXZW1FAIHWSYXN","","null","<img src=""img/flower5.png"" style=""width:200px; border:14px solid green;"">","null","","","","","","","","",""
"","image-keyboard-response","334","167438","0.0-334.0","3OB0CAO74IBJMMJS4VMCNCIC1S4HY5","A1NVJB5O4H7ZCJ","3HUR21WDDUBEMSLDIXZW1FAIHWSYXN","","535.7000000476837","img/flower4.png","76","538.1000001430511","3","0","1","1","1,0.333,0.333,0.333,1,0.333,0.333,0.333,1","1,0.333,0.333,0.333,1,0.333,0.333,0.333,1","1",""
"","html-keyboard-response","335","167742","0.0-335.0","3OB0CAO74IBJMMJS4VMCNCIC1S4HY5","A1NVJB5O4H7ZCJ","3HUR21WDDUBEMSLDIXZW1FAIHWSYXN","","null","<img src=""img/flower4.png"" style=""width:200px;border:14px solid red;"">","null","","","","","","","","",""
"","image-keyboard-response","336","169246","0.0-336.0","3OB0CAO74IBJMMJS4VMCNCIC1S4HY5","A1NVJB5O4H7ZCJ","3HUR21WDDUBEMSLDIXZW1FAIHWSYXN","","1500.5","img/flower5.png","75","1502.7999999523163","2","1","2","1","1,0.333,0.333,0.333,1,0.333,0.333,0.333,1","1,0.333,0.333,0.333,1,0.333,0.333,0.333,1","1",""
"","html-keyboard-response","337","169549","0.0-337.0","3OB0CAO74IBJMMJS4VMCNCIC1S4HY5","A1NVJB5O4H7ZCJ","3HUR21WDDUBEMSLDIXZW1FAIHWSYXN","","null","<img src=""img/flower5.png"" style=""width:200px; border:14px solid green;"">","null","","","","","","","","",""
"","image-keyboard-response","338","170421","0.0-338.0","3OB0CAO74IBJMMJS4VMCNCIC1S4HY5","A1NVJB5O4H7ZCJ","3HUR21WDDUBEMSLDIXZW1FAIHWSYXN","","869.4000000953674","img/flower6.png","74","873.7000000476837","1","1","3","1","1,0.333,0.333,0.333,1,0.333,0.333,0.333,1","1,0.333,0.333,0.333,1,0.333,0.333,0.333,1","1",""
"","html-keyboard-response","339","170727","0.0-339.0","3OB0CAO74IBJMMJS4VMCNCIC1S4HY5","A1NVJB5O4H7ZCJ","3HUR21WDDUBEMSLDIXZW1FAIHWSYXN","","null","<img src=""img/flower6.png"" style=""width:200px; border:14px solid green;"">","null","","","","","","","","",""
"","image-keyboard-response","340","171685","0.0-340.0","3OB0CAO74IBJMMJS4VMCNCIC1S4HY5","A1NVJB5O4H7ZCJ","3HUR21WDDUBEMSLDIXZW1FAIHWSYXN","","956.2999999523163","img/flower5.png","74","957.5999999046326","1","0","2","1","1,0.333,0.333,0.333,1,0.333,0.333,0.333,1","1,0.333,0.333,0.333,1,0.333,0.333,0.333,1","1",""
"","html-keyboard-response","341","171988","0.0-341.0","3OB0CAO74IBJMMJS4VMCNCIC1S4HY5","A1NVJB5O4H7ZCJ","3HUR21WDDUBEMSLDIXZW1FAIHWSYXN","","null","<img src=""img/flower5.png"" style=""width:200px;border:14px solid red;"">","null","","","","","","","","",""
"","image-keyboard-response","342","172918","0.0-342.0","3OB0CAO74IBJMMJS4VMCNCIC1S4HY5","A1NVJB5O4H7ZCJ","3HUR21WDDUBEMSLDIXZW1FAIHWSYXN","","926.9000000953674","img/flower6.png","74","929.4000000953674","1","0","3","1","1,0.333,0.333,0.333,1,0.333,0.333,0.333,1","1,0.333,0.333,0.333,1,0.333,0.333,0.333,1","1",""
"","html-keyboard-response","343","173231","0.0-343.0","3OB0CAO74IBJMMJS4VMCNCIC1S4HY5","A1NVJB5O4H7ZCJ","3HUR21WDDUBEMSLDIXZW1FAIHWSYXN","","null","<img src=""img/flower6.png"" style=""width:200px;border:14px solid red;"">","null","","","","","","","","",""
"","image-keyboard-response","344","173990","0.0-344.0","3OB0CAO74IBJMMJS4VMCNCIC1S4HY5","A1NVJB5O4H7ZCJ","3HUR21WDDUBEMSLDIXZW1FAIHWSYXN","","757.1000001430511","img/flower4.png","76","759.2999999523163","3","1","1","1","1,0.333,0.333,0.333,1,0.333,0.333,0.333,1","1,0.333,0.333,0.333,1,0.333,0.333,0.333,1","1",""
"","html-keyboard-response","345","174294","0.0-345.0","3OB0CAO74IBJMMJS4VMCNCIC1S4HY5","A1NVJB5O4H7ZCJ","3HUR21WDDUBEMSLDIXZW1FAIHWSYXN","","null","<img src=""img/flower4.png"" style=""width:200px; border:14px solid green;"">","null","","","","","","","","",""
"","image-keyboard-response","346","174833","0.0-346.0","3OB0CAO74IBJMMJS4VMCNCIC1S4HY5","A1NVJB5O4H7ZCJ","3HUR21WDDUBEMSLDIXZW1FAIHWSYXN","","538.0999999046326","img/flower6.png","76","539.8000001907349","3","1","3","1","1,0.333,0.333,0.333,1,0.333,0.333,0.333,1","1,0.333,0.333,0.333,1,0.333,0.333,0.333,1","1",""
"","html-keyboard-response","347","175136","0.0-347.0","3OB0CAO74IBJMMJS4VMCNCIC1S4HY5","A1NVJB5O4H7ZCJ","3HUR21WDDUBEMSLDIXZW1FAIHWSYXN","","null","<img src=""img/flower6.png"" style=""width:200px; border:14px solid green;"">","null","","","","","","","","",""
"","image-keyboard-response","348","175934","0.0-348.0","3OB0CAO74IBJMMJS4VMCNCIC1S4HY5","A1NVJB5O4H7ZCJ","3HUR21WDDUBEMSLDIXZW1FAIHWSYXN","","795.2000000476837","img/flower4.png","76","797.2000000476837","3","0","1","1","1,0.333,0.333,0.333,1,0.333,0.333,0.333,1","1,0.333,0.333,0.333,1,0.333,0.333,0.333,1","1",""
"","html-keyboard-response","349","176237","0.0-349.0","3OB0CAO74IBJMMJS4VMCNCIC1S4HY5","A1NVJB5O4H7ZCJ","3HUR21WDDUBEMSLDIXZW1FAIHWSYXN","","null","<img src=""img/flower4.png"" style=""width:200px;border:14px solid red;"">","null","","","","","","","","",""
"","image-keyboard-response","350","176718","0.0-350.0","3OB0CAO74IBJMMJS4VMCNCIC1S4HY5","A1NVJB5O4H7ZCJ","3HUR21WDDUBEMSLDIXZW1FAIHWSYXN","","477.2999999523163","img/flower5.png","75","479.90000009536743","2","1","2","1","1,0.333,0.333,0.333,1,0.333,0.333,0.333,1","1,0.333,0.333,0.333,1,0.333,0.333,0.333,1","1",""
"","html-keyboard-response","351","177020","0.0-351.0","3OB0CAO74IBJMMJS4VMCNCIC1S4HY5","A1NVJB5O4H7ZCJ","3HUR21WDDUBEMSLDIXZW1FAIHWSYXN","","null","<img src=""img/flower5.png"" style=""width:200px; border:14px solid green;"">","null","","","","","","","","",""
"","image-keyboard-response","352","177639","0.0-352.0","3OB0CAO74IBJMMJS4VMCNCIC1S4HY5","A1NVJB5O4H7ZCJ","3HUR21WDDUBEMSLDIXZW1FAIHWSYXN","","615.7000000476837","img/flower6.png","76","617.8999998569489","3","1","3","1","1,0.333,0.333,0.333,1,0.333,0.333,0.333,1","1,0.333,0.333,0.333,1,0.333,0.333,0.333,1","1",""
"","html-keyboard-response","353","177942","0.0-353.0","3OB0CAO74IBJMMJS4VMCNCIC1S4HY5","A1NVJB5O4H7ZCJ","3HUR21WDDUBEMSLDIXZW1FAIHWSYXN","","null","<img src=""img/flower6.png"" style=""width:200px; border:14px solid green;"">","null","","","","","","","","",""
"","image-keyboard-response","354","178650","0.0-354.0","3OB0CAO74IBJMMJS4VMCNCIC1S4HY5","A1NVJB5O4H7ZCJ","3HUR21WDDUBEMSLDIXZW1FAIHWSYXN","","705","img/flower4.png","75","707.2999999523163","2","1","1","1","1,0.333,0.333,0.333,1,0.333,0.333,0.333,1","1,0.333,0.333,0.333,1,0.333,0.333,0.333,1","1",""
"","html-keyboard-response","355","178953","0.0-355.0","3OB0CAO74IBJMMJS4VMCNCIC1S4HY5","A1NVJB5O4H7ZCJ","3HUR21WDDUBEMSLDIXZW1FAIHWSYXN","","null","<img src=""img/flower4.png"" style=""width:200px; border:14px solid green;"">","null","","","","","","","","",""
"","image-keyboard-response","356","179497","0.0-356.0","3OB0CAO74IBJMMJS4VMCNCIC1S4HY5","A1NVJB5O4H7ZCJ","3HUR21WDDUBEMSLDIXZW1FAIHWSYXN","","542.2000000476837","img/flower6.png","76","543.9000000953674","3","1","3","1","1,0.333,0.333,0.333,1,0.333,0.333,0.333,1","1,0.333,0.333,0.333,1,0.333,0.333,0.333,1","1",""
"","html-keyboard-response","357","179802","0.0-357.0","3OB0CAO74IBJMMJS4VMCNCIC1S4HY5","A1NVJB5O4H7ZCJ","3HUR21WDDUBEMSLDIXZW1FAIHWSYXN","","null","<img src=""img/flower6.png"" style=""width:200px; border:14px solid green;"">","null","","","","","","","","",""
"","image-keyboard-response","358","180504","0.0-358.0","3OB0CAO74IBJMMJS4VMCNCIC1S4HY5","A1NVJB5O4H7ZCJ","3HUR21WDDUBEMSLDIXZW1FAIHWSYXN","","699.4000000953674","img/flower5.png","75","701.2999999523163","2","1","2","1","1,0.333,0.333,0.333,1,0.333,0.333,0.333,1","1,0.333,0.333,0.333,1,0.333,0.333,0.333,1","1",""
"","html-keyboard-response","359","180805","0.0-359.0","3OB0CAO74IBJMMJS4VMCNCIC1S4HY5","A1NVJB5O4H7ZCJ","3HUR21WDDUBEMSLDIXZW1FAIHWSYXN","","null","<img src=""img/flower5.png"" style=""width:200px; border:14px solid green;"">","null","","","","","","","","",""
"","image-keyboard-response","360","181258","0.0-360.0","3OB0CAO74IBJMMJS4VMCNCIC1S4HY5","A1NVJB5O4H7ZCJ","3HUR21WDDUBEMSLDIXZW1FAIHWSYXN","","450.2999999523163","img/flower6.png","76","452.5","3","1","3","1","1,0.333,0.333,0.333,1,0.333,0.333,0.333,1","1,0.333,0.333,0.333,1,0.333,0.333,0.333,1","1",""
"","html-keyboard-response","361","181561","0.0-361.0","3OB0CAO74IBJMMJS4VMCNCIC1S4HY5","A1NVJB5O4H7ZCJ","3HUR21WDDUBEMSLDIXZW1FAIHWSYXN","","null","<img src=""img/flower6.png"" style=""width:200px; border:14px solid green;"">","null","","","","","","","","",""
"","html-keyboard-response","362","187494","0.0-362.0","3OB0CAO74IBJMMJS4VMCNCIC1S4HY5","A1NVJB5O4H7ZCJ","3HUR21WDDUBEMSLDIXZW1FAIHWSYXN","","","","","","","","","","","","",""
"","instructions","363","191181","0.0-363.0","3OB0CAO74IBJMMJS4VMCNCIC1S4HY5","A1NVJB5O4H7ZCJ","3HUR21WDDUBEMSLDIXZW1FAIHWSYXN","[{""page_index"":0,""viewing_time"":3686}]","3686.300000190735","","","","","","","","","","",""
"","survey-text","364","197064","0.0-364.0","3OB0CAO74IBJMMJS4VMCNCIC1S4HY5","A1NVJB5O4H7ZCJ","3HUR21WDDUBEMSLDIXZW1FAIHWSYXN","","5876.900000095367","","","","","","","","","","","{""Q0"":""A1NVJB5O4H7ZCJ""}"
