"rt","url","trial_type","trial_index","time_elapsed","internal_node_id","assignmentID","mturkID","hitID","success","view_history","stimulus","key_press","reactionTime","a","r","s","cond","reward_cond","reward_cond_actual","reward_matrix_idx","responses"
"21462.19999998808","consent.html","external-html","0","21508","0.0-0.0","352YTHGROWZ3OF58FOY57NE55PPH4Z","A1RATFICCKLCQ","3AQN9REUTF20OMGWRXYK787Q1B1YD0","","","","","","","","","","","","",""
"","","fullscreen","1","24899","0.0-1.0","352YTHGROWZ3OF58FOY57NE55PPH4Z","A1RATFICCKLCQ","3AQN9REUTF20OMGWRXYK787Q1B1YD0","true","","","","","","","","","","","",""
"108927.5","","instructions","2","133829","0.0-2.0","352YTHGROWZ3OF58FOY57NE55PPH4Z","A1RATFICCKLCQ","3AQN9REUTF20OMGWRXYK787Q1B1YD0","","[{""page_index"":0,""viewing_time"":10783},{""page_index"":1,""viewing_time"":16495.59999999404},{""page_index"":2,""viewing_time"":15408.300000011921},{""page_index"":3,""viewing_time"":14040.09999999404},{""page_index"":4,""viewing_time"":8711.800000011921},{""page_index"":5,""viewing_time"":36528},{""page_index"":6,""viewing_time"":6960.0999999940395}]","","","","","","","","","","",""
"34647","","instructions","3","168476","0.0-3.0","352YTHGROWZ3OF58FOY57NE55PPH4Z","A1RATFICCKLCQ","3AQN9REUTF20OMGWRXYK787Q1B1YD0","","[{""page_index"":0,""viewing_time"":34646.80000001192}]","","","","","","","","","","",""
"1417","","image-keyboard-response","4","169894","0.0-4.0","352YTHGROWZ3OF58FOY57NE55PPH4Z","A1RATFICCKLCQ","3AQN9REUTF20OMGWRXYK787Q1B1YD0","","","img/flower5.png","75","1418.0999999940395","2","1","2","","","","",""
"null","","html-keyboard-response","5","170207","0.0-5.0","352YTHGROWZ3OF58FOY57NE55PPH4Z","A1RATFICCKLCQ","3AQN9REUTF20OMGWRXYK787Q1B1YD0","","","<img src=""img/flower5.png"" style=""width:200px; border:14px solid green;"">","null","","","","","","","","",""
"1091.5999999940395","","image-keyboard-response","6","171300","0.0-6.0","352YTHGROWZ3OF58FOY57NE55PPH4Z","A1RATFICCKLCQ","3AQN9REUTF20OMGWRXYK787Q1B1YD0","","","img/flower4.png","74","1092.5","1","1","1","","","","",""
"null","","html-keyboard-response","7","171610","0.0-7.0","352YTHGROWZ3OF58FOY57NE55PPH4Z","A1RATFICCKLCQ","3AQN9REUTF20OMGWRXYK787Q1B1YD0","","","<img src=""img/flower4.png"" style=""width:200px; border:14px solid green;"">","null","","","","","","","","",""
"1194.300000011921","","image-keyboard-response","8","172805","0.0-8.0","352YTHGROWZ3OF58FOY57NE55PPH4Z","A1RATFICCKLCQ","3AQN9REUTF20OMGWRXYK787Q1B1YD0","","","img/flower4.png","74","1195.199999988079","1","1","1","","","","",""
"null","","html-keyboard-response","9","173118","0.0-9.0","352YTHGROWZ3OF58FOY57NE55PPH4Z","A1RATFICCKLCQ","3AQN9REUTF20OMGWRXYK787Q1B1YD0","","","<img src=""img/flower4.png"" style=""width:200px; border:14px solid green;"">","null","","","","","","","","",""
"1206.5999999940395","","image-keyboard-response","10","174325","0.0-10.0","352YTHGROWZ3OF58FOY57NE55PPH4Z","A1RATFICCKLCQ","3AQN9REUTF20OMGWRXYK787Q1B1YD0","","","img/flower6.png","76","1207.5","3","1","3","","","","",""
"null","","html-keyboard-response","11","174637","0.0-11.0","352YTHGROWZ3OF58FOY57NE55PPH4Z","A1RATFICCKLCQ","3AQN9REUTF20OMGWRXYK787Q1B1YD0","","","<img src=""img/flower6.png"" style=""width:200px; border:14px solid green;"">","null","","","","","","","","",""
"1254.5999999940395","","image-keyboard-response","12","175893","0.0-12.0","352YTHGROWZ3OF58FOY57NE55PPH4Z","A1RATFICCKLCQ","3AQN9REUTF20OMGWRXYK787Q1B1YD0","","","img/flower4.png","74","1255.3999999761581","1","0","1","","","","",""
"null","","html-keyboard-response","13","176206","0.0-13.0","352YTHGROWZ3OF58FOY57NE55PPH4Z","A1RATFICCKLCQ","3AQN9REUTF20OMGWRXYK787Q1B1YD0","","","<img src=""img/flower4.png"" style=""width:200px;border:14px solid red;"">","null","","","","","","","","",""
"726.3999999761581","","image-keyboard-response","14","176933","0.0-14.0","352YTHGROWZ3OF58FOY57NE55PPH4Z","A1RATFICCKLCQ","3AQN9REUTF20OMGWRXYK787Q1B1YD0","","","img/flower5.png","75","727.3000000119209","2","0","2","","","","",""
"null","","html-keyboard-response","15","177239","0.0-15.0","352YTHGROWZ3OF58FOY57NE55PPH4Z","A1RATFICCKLCQ","3AQN9REUTF20OMGWRXYK787Q1B1YD0","","","<img src=""img/flower5.png"" style=""width:200px;border:14px solid red;"">","null","","","","","","","","",""
"892.4000000059605","","image-keyboard-response","16","178133","0.0-16.0","352YTHGROWZ3OF58FOY57NE55PPH4Z","A1RATFICCKLCQ","3AQN9REUTF20OMGWRXYK787Q1B1YD0","","","img/flower6.png","76","893.2999999821186","3","1","3","","","","",""
"null","","html-keyboard-response","17","178435","0.0-17.0","352YTHGROWZ3OF58FOY57NE55PPH4Z","A1RATFICCKLCQ","3AQN9REUTF20OMGWRXYK787Q1B1YD0","","","<img src=""img/flower6.png"" style=""width:200px; border:14px solid green;"">","null","","","","","","","","",""
"754.5999999940395","","image-keyboard-response","18","179190","0.0-18.0","352YTHGROWZ3OF58FOY57NE55PPH4Z","A1RATFICCKLCQ","3AQN9REUTF20OMGWRXYK787Q1B1YD0","","","img/flower6.png","76","755.4000000059605","3","1","3","","","","",""
"null","","html-keyboard-response","19","179502","0.0-19.0","352YTHGROWZ3OF58FOY57NE55PPH4Z","A1RATFICCKLCQ","3AQN9REUTF20OMGWRXYK787Q1B1YD0","","","<img src=""img/flower6.png"" style=""width:200px; border:14px solid green;"">","null","","","","","","","","",""
"869.8000000119209","","image-keyboard-response","20","180373","0.0-20.0","352YTHGROWZ3OF58FOY57NE55PPH4Z","A1RATFICCKLCQ","3AQN9REUTF20OMGWRXYK787Q1B1YD0","","","img/flower6.png","76","870.2999999821186","3","0","3","","","","",""
"null","","html-keyboard-response","21","180674","0.0-21.0","352YTHGROWZ3OF58FOY57NE55PPH4Z","A1RATFICCKLCQ","3AQN9REUTF20OMGWRXYK787Q1B1YD0","","","<img src=""img/flower6.png"" style=""width:200px;border:14px solid red;"">","null","","","","","","","","",""
"1314.800000011921","","image-keyboard-response","22","181990","0.0-22.0","352YTHGROWZ3OF58FOY57NE55PPH4Z","A1RATFICCKLCQ","3AQN9REUTF20OMGWRXYK787Q1B1YD0","","","img/flower6.png","76","1315.699999988079","3","1","3","","","","",""
"null","","html-keyboard-response","23","182299","0.0-23.0","352YTHGROWZ3OF58FOY57NE55PPH4Z","A1RATFICCKLCQ","3AQN9REUTF20OMGWRXYK787Q1B1YD0","","","<img src=""img/flower6.png"" style=""width:200px; border:14px solid green;"">","null","","","","","","","","",""
"1047.5999999940395","","image-keyboard-response","24","183348","0.0-24.0","352YTHGROWZ3OF58FOY57NE55PPH4Z","A1RATFICCKLCQ","3AQN9REUTF20OMGWRXYK787Q1B1YD0","","","img/flower6.png","76","1048.5","3","1","3","","","","",""
"null","","html-keyboard-response","25","183663","0.0-25.0","352YTHGROWZ3OF58FOY57NE55PPH4Z","A1RATFICCKLCQ","3AQN9REUTF20OMGWRXYK787Q1B1YD0","","","<img src=""img/flower6.png"" style=""width:200px; border:14px solid green;"">","null","","","","","","","","",""
"1125.300000011921","","image-keyboard-response","26","184790","0.0-26.0","352YTHGROWZ3OF58FOY57NE55PPH4Z","A1RATFICCKLCQ","3AQN9REUTF20OMGWRXYK787Q1B1YD0","","","img/flower5.png","75","1126.4000000059605","2","1","2","","","","",""
"null","","html-keyboard-response","27","185103","0.0-27.0","352YTHGROWZ3OF58FOY57NE55PPH4Z","A1RATFICCKLCQ","3AQN9REUTF20OMGWRXYK787Q1B1YD0","","","<img src=""img/flower5.png"" style=""width:200px; border:14px solid green;"">","null","","","","","","","","",""
"698.5999999940395","","image-keyboard-response","28","185803","0.0-28.0","352YTHGROWZ3OF58FOY57NE55PPH4Z","A1RATFICCKLCQ","3AQN9REUTF20OMGWRXYK787Q1B1YD0","","","img/flower4.png","74","699.4000000059605","1","0","1","","","","",""
"null","","html-keyboard-response","29","186112","0.0-29.0","352YTHGROWZ3OF58FOY57NE55PPH4Z","A1RATFICCKLCQ","3AQN9REUTF20OMGWRXYK787Q1B1YD0","","","<img src=""img/flower4.png"" style=""width:200px;border:14px solid red;"">","null","","","","","","","","",""
"868","","image-keyboard-response","30","186981","0.0-30.0","352YTHGROWZ3OF58FOY57NE55PPH4Z","A1RATFICCKLCQ","3AQN9REUTF20OMGWRXYK787Q1B1YD0","","","img/flower4.png","74","868.7999999821186","1","1","1","","","","",""
"null","","html-keyboard-response","31","187297","0.0-31.0","352YTHGROWZ3OF58FOY57NE55PPH4Z","A1RATFICCKLCQ","3AQN9REUTF20OMGWRXYK787Q1B1YD0","","","<img src=""img/flower4.png"" style=""width:200px; border:14px solid green;"">","null","","","","","","","","",""
"641.7000000178814","","image-keyboard-response","32","187940","0.0-32.0","352YTHGROWZ3OF58FOY57NE55PPH4Z","A1RATFICCKLCQ","3AQN9REUTF20OMGWRXYK787Q1B1YD0","","","img/flower4.png","74","642.5","1","1","1","","","","",""
"null","","html-keyboard-response","33","188248","0.0-33.0","352YTHGROWZ3OF58FOY57NE55PPH4Z","A1RATFICCKLCQ","3AQN9REUTF20OMGWRXYK787Q1B1YD0","","","<img src=""img/flower4.png"" style=""width:200px; border:14px solid green;"">","null","","","","","","","","",""
"779.7000000178814","","image-keyboard-response","34","189029","0.0-34.0","352YTHGROWZ3OF58FOY57NE55PPH4Z","A1RATFICCKLCQ","3AQN9REUTF20OMGWRXYK787Q1B1YD0","","","img/flower5.png","75","780.5","2","1","2","","","","",""
"null","","html-keyboard-response","35","189331","0.0-35.0","352YTHGROWZ3OF58FOY57NE55PPH4Z","A1RATFICCKLCQ","3AQN9REUTF20OMGWRXYK787Q1B1YD0","","","<img src=""img/flower5.png"" style=""width:200px; border:14px solid green;"">","null","","","","","","","","",""
"706.4000000059605","","image-keyboard-response","36","190038","0.0-36.0","352YTHGROWZ3OF58FOY57NE55PPH4Z","A1RATFICCKLCQ","3AQN9REUTF20OMGWRXYK787Q1B1YD0","","","img/flower5.png","75","706.9000000059605","2","1","2","","","","",""
"null","","html-keyboard-response","37","190352","0.0-37.0","352YTHGROWZ3OF58FOY57NE55PPH4Z","A1RATFICCKLCQ","3AQN9REUTF20OMGWRXYK787Q1B1YD0","","","<img src=""img/flower5.png"" style=""width:200px; border:14px solid green;"">","null","","","","","","","","",""
"820.3999999761581","","image-keyboard-response","38","191173","0.0-38.0","352YTHGROWZ3OF58FOY57NE55PPH4Z","A1RATFICCKLCQ","3AQN9REUTF20OMGWRXYK787Q1B1YD0","","","img/flower4.png","74","821.0999999940395","1","1","1","","","","",""
"null","","html-keyboard-response","39","191481","0.0-39.0","352YTHGROWZ3OF58FOY57NE55PPH4Z","A1RATFICCKLCQ","3AQN9REUTF20OMGWRXYK787Q1B1YD0","","","<img src=""img/flower4.png"" style=""width:200px; border:14px solid green;"">","null","","","","","","","","",""
"762.8000000119209","","image-keyboard-response","40","192245","0.0-40.0","352YTHGROWZ3OF58FOY57NE55PPH4Z","A1RATFICCKLCQ","3AQN9REUTF20OMGWRXYK787Q1B1YD0","","","img/flower5.png","75","763.7000000178814","2","1","2","","","","",""
"null","","html-keyboard-response","41","192550","0.0-41.0","352YTHGROWZ3OF58FOY57NE55PPH4Z","A1RATFICCKLCQ","3AQN9REUTF20OMGWRXYK787Q1B1YD0","","","<img src=""img/flower5.png"" style=""width:200px; border:14px solid green;"">","null","","","","","","","","",""
"781.8000000119209","","image-keyboard-response","42","193333","0.0-42.0","352YTHGROWZ3OF58FOY57NE55PPH4Z","A1RATFICCKLCQ","3AQN9REUTF20OMGWRXYK787Q1B1YD0","","","img/flower5.png","75","782.6999999880791","2","0","2","","","","",""
"null","","html-keyboard-response","43","193647","0.0-43.0","352YTHGROWZ3OF58FOY57NE55PPH4Z","A1RATFICCKLCQ","3AQN9REUTF20OMGWRXYK787Q1B1YD0","","","<img src=""img/flower5.png"" style=""width:200px;border:14px solid red;"">","null","","","","","","","","",""
"1716.4000000059605","","image-keyboard-response","44","195365","0.0-44.0","352YTHGROWZ3OF58FOY57NE55PPH4Z","A1RATFICCKLCQ","3AQN9REUTF20OMGWRXYK787Q1B1YD0","","","img/flower4.png","74","1717.4000000059605","1","1","1","","","","",""
"null","","html-keyboard-response","45","195676","0.0-45.0","352YTHGROWZ3OF58FOY57NE55PPH4Z","A1RATFICCKLCQ","3AQN9REUTF20OMGWRXYK787Q1B1YD0","","","<img src=""img/flower4.png"" style=""width:200px; border:14px solid green;"">","null","","","","","","","","",""
"1239.7999999821186","","image-keyboard-response","46","196917","0.0-46.0","352YTHGROWZ3OF58FOY57NE55PPH4Z","A1RATFICCKLCQ","3AQN9REUTF20OMGWRXYK787Q1B1YD0","","","img/flower6.png","76","1240.800000011921","3","1","3","","","","",""
"null","","html-keyboard-response","47","197232","0.0-47.0","352YTHGROWZ3OF58FOY57NE55PPH4Z","A1RATFICCKLCQ","3AQN9REUTF20OMGWRXYK787Q1B1YD0","","","<img src=""img/flower6.png"" style=""width:200px; border:14px solid green;"">","null","","","","","","","","",""
"770.9000000059605","","image-keyboard-response","48","198004","0.0-48.0","352YTHGROWZ3OF58FOY57NE55PPH4Z","A1RATFICCKLCQ","3AQN9REUTF20OMGWRXYK787Q1B1YD0","","","img/flower6.png","76","771.5999999940395","3","1","3","","","","",""
"null","","html-keyboard-response","49","198312","0.0-49.0","352YTHGROWZ3OF58FOY57NE55PPH4Z","A1RATFICCKLCQ","3AQN9REUTF20OMGWRXYK787Q1B1YD0","","","<img src=""img/flower6.png"" style=""width:200px; border:14px solid green;"">","null","","","","","","","","",""
"1163.7000000178814","","image-keyboard-response","50","199476","0.0-50.0","352YTHGROWZ3OF58FOY57NE55PPH4Z","A1RATFICCKLCQ","3AQN9REUTF20OMGWRXYK787Q1B1YD0","","","img/flower6.png","76","1164.199999988079","3","1","3","","","","",""
"null","","html-keyboard-response","51","199802","0.0-51.0","352YTHGROWZ3OF58FOY57NE55PPH4Z","A1RATFICCKLCQ","3AQN9REUTF20OMGWRXYK787Q1B1YD0","","","<img src=""img/flower6.png"" style=""width:200px; border:14px solid green;"">","null","","","","","","","","",""
"906","","image-keyboard-response","52","200709","0.0-52.0","352YTHGROWZ3OF58FOY57NE55PPH4Z","A1RATFICCKLCQ","3AQN9REUTF20OMGWRXYK787Q1B1YD0","","","img/flower5.png","75","906.5999999940395","2","1","2","","","","",""
"null","","html-keyboard-response","53","201012","0.0-53.0","352YTHGROWZ3OF58FOY57NE55PPH4Z","A1RATFICCKLCQ","3AQN9REUTF20OMGWRXYK787Q1B1YD0","","","<img src=""img/flower5.png"" style=""width:200px; border:14px solid green;"">","null","","","","","","","","",""
"784.3000000119209","","image-keyboard-response","54","201798","0.0-54.0","352YTHGROWZ3OF58FOY57NE55PPH4Z","A1RATFICCKLCQ","3AQN9REUTF20OMGWRXYK787Q1B1YD0","","","img/flower5.png","75","785.1000000238419","2","1","2","","","","",""
"null","","html-keyboard-response","55","202104","0.0-55.0","352YTHGROWZ3OF58FOY57NE55PPH4Z","A1RATFICCKLCQ","3AQN9REUTF20OMGWRXYK787Q1B1YD0","","","<img src=""img/flower5.png"" style=""width:200px; border:14px solid green;"">","null","","","","","","","","",""
"589.1000000238419","","image-keyboard-response","56","202693","0.0-56.0","352YTHGROWZ3OF58FOY57NE55PPH4Z","A1RATFICCKLCQ","3AQN9REUTF20OMGWRXYK787Q1B1YD0","","","img/flower5.png","75","589.5","2","1","2","","","","",""
"null","","html-keyboard-response","57","203004","0.0-57.0","352YTHGROWZ3OF58FOY57NE55PPH4Z","A1RATFICCKLCQ","3AQN9REUTF20OMGWRXYK787Q1B1YD0","","","<img src=""img/flower5.png"" style=""width:200px; border:14px solid green;"">","null","","","","","","","","",""
"712.7000000178814","","image-keyboard-response","58","203718","0.0-58.0","352YTHGROWZ3OF58FOY57NE55PPH4Z","A1RATFICCKLCQ","3AQN9REUTF20OMGWRXYK787Q1B1YD0","","","img/flower4.png","74","713.7000000178814","1","1","1","","","","",""
"null","","html-keyboard-response","59","204032","0.0-59.0","352YTHGROWZ3OF58FOY57NE55PPH4Z","A1RATFICCKLCQ","3AQN9REUTF20OMGWRXYK787Q1B1YD0","","","<img src=""img/flower4.png"" style=""width:200px; border:14px solid green;"">","null","","","","","","","","",""
"595.7999999821186","","image-keyboard-response","60","204629","0.0-60.0","352YTHGROWZ3OF58FOY57NE55PPH4Z","A1RATFICCKLCQ","3AQN9REUTF20OMGWRXYK787Q1B1YD0","","","img/flower4.png","74","596.8000000119209","1","0","1","","","","",""
"null","","html-keyboard-response","61","204931","0.0-61.0","352YTHGROWZ3OF58FOY57NE55PPH4Z","A1RATFICCKLCQ","3AQN9REUTF20OMGWRXYK787Q1B1YD0","","","<img src=""img/flower4.png"" style=""width:200px;border:14px solid red;"">","null","","","","","","","","",""
"2065","","image-keyboard-response","62","206997","0.0-62.0","352YTHGROWZ3OF58FOY57NE55PPH4Z","A1RATFICCKLCQ","3AQN9REUTF20OMGWRXYK787Q1B1YD0","","","img/flower6.png","76","2066","3","0","3","","","","",""
"null","","html-keyboard-response","63","207302","0.0-63.0","352YTHGROWZ3OF58FOY57NE55PPH4Z","A1RATFICCKLCQ","3AQN9REUTF20OMGWRXYK787Q1B1YD0","","","<img src=""img/flower6.png"" style=""width:200px;border:14px solid red;"">","null","","","","","","","","",""
"34901.59999999404","","instructions","64","242204","0.0-64.0","352YTHGROWZ3OF58FOY57NE55PPH4Z","A1RATFICCKLCQ","3AQN9REUTF20OMGWRXYK787Q1B1YD0","","[{""page_index"":0,""viewing_time"":11773},{""page_index"":1,""viewing_time"":23128.399999976158}]","","","","","","","","","","",""
"2039.5999999940395","","image-keyboard-response","65","244245","0.0-65.0","352YTHGROWZ3OF58FOY57NE55PPH4Z","A1RATFICCKLCQ","3AQN9REUTF20OMGWRXYK787Q1B1YD0","","","img/flower6.png","76","2040.5","3","0","3","","","","",""
"null","","html-keyboard-response","66","244559","0.0-66.0","352YTHGROWZ3OF58FOY57NE55PPH4Z","A1RATFICCKLCQ","3AQN9REUTF20OMGWRXYK787Q1B1YD0","","","<img src=""img/flower6.png"" style=""width:200px;border:14px solid red;"">","null","","","","","","","","",""
"949","","image-keyboard-response","67","245509","0.0-67.0","352YTHGROWZ3OF58FOY57NE55PPH4Z","A1RATFICCKLCQ","3AQN9REUTF20OMGWRXYK787Q1B1YD0","","","img/flower6.png","74","949.6000000238419","1","1","3","","","","",""
"null","","html-keyboard-response","68","245826","0.0-68.0","352YTHGROWZ3OF58FOY57NE55PPH4Z","A1RATFICCKLCQ","3AQN9REUTF20OMGWRXYK787Q1B1YD0","","","<img src=""img/flower6.png"" style=""width:200px; border:14px solid green;"">","null","","","","","","","","",""
"1297.5999999940395","","image-keyboard-response","69","247125","0.0-69.0","352YTHGROWZ3OF58FOY57NE55PPH4Z","A1RATFICCKLCQ","3AQN9REUTF20OMGWRXYK787Q1B1YD0","","","img/flower4.png","74","1298.4000000059605","1","1","1","","","","",""
"null","","html-keyboard-response","70","247426","0.0-70.0","352YTHGROWZ3OF58FOY57NE55PPH4Z","A1RATFICCKLCQ","3AQN9REUTF20OMGWRXYK787Q1B1YD0","","","<img src=""img/flower4.png"" style=""width:200px; border:14px solid green;"">","null","","","","","","","","",""
"1346.0999999940395","","image-keyboard-response","71","248773","0.0-71.0","352YTHGROWZ3OF58FOY57NE55PPH4Z","A1RATFICCKLCQ","3AQN9REUTF20OMGWRXYK787Q1B1YD0","","","img/flower6.png","74","1346.9000000059605","1","0","3","","","","",""
"null","","html-keyboard-response","72","249077","0.0-72.0","352YTHGROWZ3OF58FOY57NE55PPH4Z","A1RATFICCKLCQ","3AQN9REUTF20OMGWRXYK787Q1B1YD0","","","<img src=""img/flower6.png"" style=""width:200px;border:14px solid red;"">","null","","","","","","","","",""
"1104.7999999821186","","image-keyboard-response","73","250182","0.0-73.0","352YTHGROWZ3OF58FOY57NE55PPH4Z","A1RATFICCKLCQ","3AQN9REUTF20OMGWRXYK787Q1B1YD0","","","img/flower4.png","74","1105.5","1","0","1","","","","",""
"null","","html-keyboard-response","74","250489","0.0-74.0","352YTHGROWZ3OF58FOY57NE55PPH4Z","A1RATFICCKLCQ","3AQN9REUTF20OMGWRXYK787Q1B1YD0","","","<img src=""img/flower4.png"" style=""width:200px;border:14px solid red;"">","null","","","","","","","","",""
"1131.0999999940395","","image-keyboard-response","75","251621","0.0-75.0","352YTHGROWZ3OF58FOY57NE55PPH4Z","A1RATFICCKLCQ","3AQN9REUTF20OMGWRXYK787Q1B1YD0","","","img/flower6.png","76","1131.5999999940395","3","0","3","","","","",""
"null","","html-keyboard-response","76","251922","0.0-76.0","352YTHGROWZ3OF58FOY57NE55PPH4Z","A1RATFICCKLCQ","3AQN9REUTF20OMGWRXYK787Q1B1YD0","","","<img src=""img/flower6.png"" style=""width:200px;border:14px solid red;"">","null","","","","","","","","",""
"1586","","image-keyboard-response","77","253509","0.0-77.0","352YTHGROWZ3OF58FOY57NE55PPH4Z","A1RATFICCKLCQ","3AQN9REUTF20OMGWRXYK787Q1B1YD0","","","img/flower5.png","75","1586.800000011921","2","1","2","","","","",""
"null","","html-keyboard-response","78","253823","0.0-78.0","352YTHGROWZ3OF58FOY57NE55PPH4Z","A1RATFICCKLCQ","3AQN9REUTF20OMGWRXYK787Q1B1YD0","","","<img src=""img/flower5.png"" style=""width:200px; border:14px solid green;"">","null","","","","","","","","",""
"1076.699999988079","","image-keyboard-response","79","254901","0.0-79.0","352YTHGROWZ3OF58FOY57NE55PPH4Z","A1RATFICCKLCQ","3AQN9REUTF20OMGWRXYK787Q1B1YD0","","","img/flower6.png","76","1077.5","3","1","3","","","","",""
"null","","html-keyboard-response","80","255211","0.0-80.0","352YTHGROWZ3OF58FOY57NE55PPH4Z","A1RATFICCKLCQ","3AQN9REUTF20OMGWRXYK787Q1B1YD0","","","<img src=""img/flower6.png"" style=""width:200px; border:14px solid green;"">","null","","","","","","","","",""
"922.7000000178814","","image-keyboard-response","81","256135","0.0-81.0","352YTHGROWZ3OF58FOY57NE55PPH4Z","A1RATFICCKLCQ","3AQN9REUTF20OMGWRXYK787Q1B1YD0","","","img/flower6.png","76","923.5999999940395","3","1","3","","","","",""
"null","","html-keyboard-response","82","256450","0.0-82.0","352YTHGROWZ3OF58FOY57NE55PPH4Z","A1RATFICCKLCQ","3AQN9REUTF20OMGWRXYK787Q1B1YD0","","","<img src=""img/flower6.png"" style=""width:200px; border:14px solid green;"">","null","","","","","","","","",""
"1409.300000011921","","image-keyboard-response","83","257860","0.0-83.0","352YTHGROWZ3OF58FOY57NE55PPH4Z","A1RATFICCKLCQ","3AQN9REUTF20OMGWRXYK787Q1B1YD0","","","img/flower5.png","75","1410.0999999940395","2","1","2","","","","",""
"null","","html-keyboard-response","84","258170","0.0-84.0","352YTHGROWZ3OF58FOY57NE55PPH4Z","A1RATFICCKLCQ","3AQN9REUTF20OMGWRXYK787Q1B1YD0","","","<img src=""img/flower5.png"" style=""width:200px; border:14px solid green;"">","null","","","","","","","","",""
"1129.2999999821186","","image-keyboard-response","85","259300","0.0-85.0","352YTHGROWZ3OF58FOY57NE55PPH4Z","A1RATFICCKLCQ","3AQN9REUTF20OMGWRXYK787Q1B1YD0","","","img/flower4.png","74","1130.2000000178814","1","1","1","","","","",""
"null","","html-keyboard-response","86","259606","0.0-86.0","352YTHGROWZ3OF58FOY57NE55PPH4Z","A1RATFICCKLCQ","3AQN9REUTF20OMGWRXYK787Q1B1YD0","","","<img src=""img/flower4.png"" style=""width:200px; border:14px solid green;"">","null","","","","","","","","",""
"1023.5999999940395","","image-keyboard-response","87","260631","0.0-87.0","352YTHGROWZ3OF58FOY57NE55PPH4Z","A1RATFICCKLCQ","3AQN9REUTF20OMGWRXYK787Q1B1YD0","","","img/flower5.png","75","1024.5","2","1","2","","","","",""
"null","","html-keyboard-response","88","260933","0.0-88.0","352YTHGROWZ3OF58FOY57NE55PPH4Z","A1RATFICCKLCQ","3AQN9REUTF20OMGWRXYK787Q1B1YD0","","","<img src=""img/flower5.png"" style=""width:200px; border:14px solid green;"">","null","","","","","","","","",""
"911.5999999940395","","image-keyboard-response","89","261845","0.0-89.0","352YTHGROWZ3OF58FOY57NE55PPH4Z","A1RATFICCKLCQ","3AQN9REUTF20OMGWRXYK787Q1B1YD0","","","img/flower4.png","74","912.1999999880791","1","1","1","","","","",""
"null","","html-keyboard-response","90","262161","0.0-90.0","352YTHGROWZ3OF58FOY57NE55PPH4Z","A1RATFICCKLCQ","3AQN9REUTF20OMGWRXYK787Q1B1YD0","","","<img src=""img/flower4.png"" style=""width:200px; border:14px solid green;"">","null","","","","","","","","",""
"2114.2999999821186","","image-keyboard-response","91","264277","0.0-91.0","352YTHGROWZ3OF58FOY57NE55PPH4Z","A1RATFICCKLCQ","3AQN9REUTF20OMGWRXYK787Q1B1YD0","","","img/flower4.png","74","2115.300000011921","1","1","1","","","","",""
"null","","html-keyboard-response","92","264591","0.0-92.0","352YTHGROWZ3OF58FOY57NE55PPH4Z","A1RATFICCKLCQ","3AQN9REUTF20OMGWRXYK787Q1B1YD0","","","<img src=""img/flower4.png"" style=""width:200px; border:14px solid green;"">","null","","","","","","","","",""
"932.9000000059605","","image-keyboard-response","93","265526","0.0-93.0","352YTHGROWZ3OF58FOY57NE55PPH4Z","A1RATFICCKLCQ","3AQN9REUTF20OMGWRXYK787Q1B1YD0","","","img/flower5.png","75","934","2","1","2","","","","",""
"null","","html-keyboard-response","94","265830","0.0-94.0","352YTHGROWZ3OF58FOY57NE55PPH4Z","A1RATFICCKLCQ","3AQN9REUTF20OMGWRXYK787Q1B1YD0","","","<img src=""img/flower5.png"" style=""width:200px; border:14px solid green;"">","null","","","","","","","","",""
"1294.0999999940395","","image-keyboard-response","95","267125","0.0-95.0","352YTHGROWZ3OF58FOY57NE55PPH4Z","A1RATFICCKLCQ","3AQN9REUTF20OMGWRXYK787Q1B1YD0","","","img/flower4.png","75","1294.7999999821186","2","0","1","","","","",""
"null","","html-keyboard-response","96","267431","0.0-96.0","352YTHGROWZ3OF58FOY57NE55PPH4Z","A1RATFICCKLCQ","3AQN9REUTF20OMGWRXYK787Q1B1YD0","","","<img src=""img/flower4.png"" style=""width:200px;border:14px solid red;"">","null","","","","","","","","",""
"973.3000000119209","","image-keyboard-response","97","268406","0.0-97.0","352YTHGROWZ3OF58FOY57NE55PPH4Z","A1RATFICCKLCQ","3AQN9REUTF20OMGWRXYK787Q1B1YD0","","","img/flower5.png","75","974.1999999880791","2","1","2","","","","",""
"null","","html-keyboard-response","98","268711","0.0-98.0","352YTHGROWZ3OF58FOY57NE55PPH4Z","A1RATFICCKLCQ","3AQN9REUTF20OMGWRXYK787Q1B1YD0","","","<img src=""img/flower5.png"" style=""width:200px; border:14px solid green;"">","null","","","","","","","","",""
"1229.2000000178814","","image-keyboard-response","99","269941","0.0-99.0","352YTHGROWZ3OF58FOY57NE55PPH4Z","A1RATFICCKLCQ","3AQN9REUTF20OMGWRXYK787Q1B1YD0","","","img/flower6.png","76","1230.0999999940395","3","1","3","","","","",""
"null","","html-keyboard-response","100","270251","0.0-100.0","352YTHGROWZ3OF58FOY57NE55PPH4Z","A1RATFICCKLCQ","3AQN9REUTF20OMGWRXYK787Q1B1YD0","","","<img src=""img/flower6.png"" style=""width:200px; border:14px solid green;"">","null","","","","","","","","",""
"1178.800000011921","","image-keyboard-response","101","271430","0.0-101.0","352YTHGROWZ3OF58FOY57NE55PPH4Z","A1RATFICCKLCQ","3AQN9REUTF20OMGWRXYK787Q1B1YD0","","","img/flower4.png","74","1179.5","1","0","1","","","","",""
"null","","html-keyboard-response","102","271735","0.0-102.0","352YTHGROWZ3OF58FOY57NE55PPH4Z","A1RATFICCKLCQ","3AQN9REUTF20OMGWRXYK787Q1B1YD0","","","<img src=""img/flower4.png"" style=""width:200px;border:14px solid red;"">","null","","","","","","","","",""
"924.9000000059605","","image-keyboard-response","103","272662","0.0-103.0","352YTHGROWZ3OF58FOY57NE55PPH4Z","A1RATFICCKLCQ","3AQN9REUTF20OMGWRXYK787Q1B1YD0","","","img/flower5.png","75","926","2","0","2","","","","",""
"null","","html-keyboard-response","104","272992","0.0-104.0","352YTHGROWZ3OF58FOY57NE55PPH4Z","A1RATFICCKLCQ","3AQN9REUTF20OMGWRXYK787Q1B1YD0","","","<img src=""img/flower5.png"" style=""width:200px;border:14px solid red;"">","null","","","","","","","","",""
"2772.9000000059605","","image-keyboard-response","105","275766","0.0-105.0","352YTHGROWZ3OF58FOY57NE55PPH4Z","A1RATFICCKLCQ","3AQN9REUTF20OMGWRXYK787Q1B1YD0","","","img/flower6.png","74","2774","1","1","3","","","","",""
"null","","html-keyboard-response","106","276075","0.0-106.0","352YTHGROWZ3OF58FOY57NE55PPH4Z","A1RATFICCKLCQ","3AQN9REUTF20OMGWRXYK787Q1B1YD0","","","<img src=""img/flower6.png"" style=""width:200px; border:14px solid green;"">","null","","","","","","","","",""
"1688","","image-keyboard-response","107","277764","0.0-107.0","352YTHGROWZ3OF58FOY57NE55PPH4Z","A1RATFICCKLCQ","3AQN9REUTF20OMGWRXYK787Q1B1YD0","","","img/flower4.png","75","1688.699999988079","2","0","1","","","","",""
"null","","html-keyboard-response","108","278066","0.0-108.0","352YTHGROWZ3OF58FOY57NE55PPH4Z","A1RATFICCKLCQ","3AQN9REUTF20OMGWRXYK787Q1B1YD0","","","<img src=""img/flower4.png"" style=""width:200px;border:14px solid red;"">","null","","","","","","","","",""
"1570.699999988079","","image-keyboard-response","109","279637","0.0-109.0","352YTHGROWZ3OF58FOY57NE55PPH4Z","A1RATFICCKLCQ","3AQN9REUTF20OMGWRXYK787Q1B1YD0","","","img/flower5.png","75","1571.4000000059605","2","1","2","","","","",""
"null","","html-keyboard-response","110","279945","0.0-110.0","352YTHGROWZ3OF58FOY57NE55PPH4Z","A1RATFICCKLCQ","3AQN9REUTF20OMGWRXYK787Q1B1YD0","","","<img src=""img/flower5.png"" style=""width:200px; border:14px solid green;"">","null","","","","","","","","",""
"1371.0999999940395","","image-keyboard-response","111","281317","0.0-111.0","352YTHGROWZ3OF58FOY57NE55PPH4Z","A1RATFICCKLCQ","3AQN9REUTF20OMGWRXYK787Q1B1YD0","","","img/flower6.png","74","1371.699999988079","1","0","3","","","","",""
"null","","html-keyboard-response","112","281622","0.0-112.0","352YTHGROWZ3OF58FOY57NE55PPH4Z","A1RATFICCKLCQ","3AQN9REUTF20OMGWRXYK787Q1B1YD0","","","<img src=""img/flower6.png"" style=""width:200px;border:14px solid red;"">","null","","","","","","","","",""
"767","","image-keyboard-response","113","282390","0.0-113.0","352YTHGROWZ3OF58FOY57NE55PPH4Z","A1RATFICCKLCQ","3AQN9REUTF20OMGWRXYK787Q1B1YD0","","","img/flower4.png","74","767.8000000119209","1","1","1","","","","",""
"null","","html-keyboard-response","114","282692","0.0-114.0","352YTHGROWZ3OF58FOY57NE55PPH4Z","A1RATFICCKLCQ","3AQN9REUTF20OMGWRXYK787Q1B1YD0","","","<img src=""img/flower4.png"" style=""width:200px; border:14px solid green;"">","null","","","","","","","","",""
"847.2000000178814","","image-keyboard-response","115","283541","0.0-115.0","352YTHGROWZ3OF58FOY57NE55PPH4Z","A1RATFICCKLCQ","3AQN9REUTF20OMGWRXYK787Q1B1YD0","","","img/flower5.png","75","848.2999999821186","2","0","2","","","","",""
"null","","html-keyboard-response","116","283851","0.0-116.0","352YTHGROWZ3OF58FOY57NE55PPH4Z","A1RATFICCKLCQ","3AQN9REUTF20OMGWRXYK787Q1B1YD0","","","<img src=""img/flower5.png"" style=""width:200px;border:14px solid red;"">","null","","","","","","","","",""
"3073.4000000059605","","image-keyboard-response","117","286925","0.0-117.0","352YTHGROWZ3OF58FOY57NE55PPH4Z","A1RATFICCKLCQ","3AQN9REUTF20OMGWRXYK787Q1B1YD0","","","img/flower4.png","75","3074.0999999940395","2","1","1","","","","",""
"null","","html-keyboard-response","118","287236","0.0-118.0","352YTHGROWZ3OF58FOY57NE55PPH4Z","A1RATFICCKLCQ","3AQN9REUTF20OMGWRXYK787Q1B1YD0","","","<img src=""img/flower4.png"" style=""width:200px; border:14px solid green;"">","null","","","","","","","","",""
"2831.699999988079","","image-keyboard-response","119","290069","0.0-119.0","352YTHGROWZ3OF58FOY57NE55PPH4Z","A1RATFICCKLCQ","3AQN9REUTF20OMGWRXYK787Q1B1YD0","","","img/flower5.png","74","2832.4000000059605","1","0","2","","","","",""
"null","","html-keyboard-response","120","290373","0.0-120.0","352YTHGROWZ3OF58FOY57NE55PPH4Z","A1RATFICCKLCQ","3AQN9REUTF20OMGWRXYK787Q1B1YD0","","","<img src=""img/flower5.png"" style=""width:200px;border:14px solid red;"">","null","","","","","","","","",""
"1055.5","","image-keyboard-response","121","291430","0.0-121.0","352YTHGROWZ3OF58FOY57NE55PPH4Z","A1RATFICCKLCQ","3AQN9REUTF20OMGWRXYK787Q1B1YD0","","","img/flower6.png","76","1056.4000000059605","3","1","3","","","","",""
"null","","html-keyboard-response","122","291733","0.0-122.0","352YTHGROWZ3OF58FOY57NE55PPH4Z","A1RATFICCKLCQ","3AQN9REUTF20OMGWRXYK787Q1B1YD0","","","<img src=""img/flower6.png"" style=""width:200px; border:14px solid green;"">","null","","","","","","","","",""
"1072.5999999940395","","image-keyboard-response","123","292806","0.0-123.0","352YTHGROWZ3OF58FOY57NE55PPH4Z","A1RATFICCKLCQ","3AQN9REUTF20OMGWRXYK787Q1B1YD0","","","img/flower5.png","75","1073.5","2","1","2","","","","",""
"null","","html-keyboard-response","124","293116","0.0-124.0","352YTHGROWZ3OF58FOY57NE55PPH4Z","A1RATFICCKLCQ","3AQN9REUTF20OMGWRXYK787Q1B1YD0","","","<img src=""img/flower5.png"" style=""width:200px; border:14px solid green;"">","null","","","","","","","","",""
"4751.699999988079","","instructions","125","297868","0.0-125.0","352YTHGROWZ3OF58FOY57NE55PPH4Z","A1RATFICCKLCQ","3AQN9REUTF20OMGWRXYK787Q1B1YD0","","[{""page_index"":0,""viewing_time"":4751.5}]","","","","","","","","","","",""
"1288.2000000178814","","image-keyboard-response","126","299157","0.0-126.0","352YTHGROWZ3OF58FOY57NE55PPH4Z","A1RATFICCKLCQ","3AQN9REUTF20OMGWRXYK787Q1B1YD0","","","img/flower3.png","74","1288.8999999761581","1","1","1","1","1,0.333,0.333,0.333,1,0.333,0.333,0.333,1","1,0.333,0.333,0.333,1,0.333,0.333,0.333,1","1",""
"null","","html-keyboard-response","127","299460","0.0-127.0","352YTHGROWZ3OF58FOY57NE55PPH4Z","A1RATFICCKLCQ","3AQN9REUTF20OMGWRXYK787Q1B1YD0","","","<img src=""img/flower3.png"" style=""width:200px; border:14px solid green;"">","null","","","","","","","","",""
"1248.5","","image-keyboard-response","128","300710","0.0-128.0","352YTHGROWZ3OF58FOY57NE55PPH4Z","A1RATFICCKLCQ","3AQN9REUTF20OMGWRXYK787Q1B1YD0","","","img/flower1.png","75","1249.4000000059605","2","1","2","1","1,0.333,0.333,0.333,1,0.333,0.333,0.333,1","1,0.333,0.333,0.333,1,0.333,0.333,0.333,1","1",""
"null","","html-keyboard-response","129","301020","0.0-129.0","352YTHGROWZ3OF58FOY57NE55PPH4Z","A1RATFICCKLCQ","3AQN9REUTF20OMGWRXYK787Q1B1YD0","","","<img src=""img/flower1.png"" style=""width:200px; border:14px solid green;"">","null","","","","","","","","",""
"1400.5999999940395","","image-keyboard-response","130","302422","0.0-130.0","352YTHGROWZ3OF58FOY57NE55PPH4Z","A1RATFICCKLCQ","3AQN9REUTF20OMGWRXYK787Q1B1YD0","","","img/flower4.png","74","1401.5999999940395","1","1","3","1","1,0.333,0.333,0.333,1,0.333,0.333,0.333,1","1,0.333,0.333,0.333,1,0.333,0.333,0.333,1","1",""
"null","","html-keyboard-response","131","302733","0.0-131.0","352YTHGROWZ3OF58FOY57NE55PPH4Z","A1RATFICCKLCQ","3AQN9REUTF20OMGWRXYK787Q1B1YD0","","","<img src=""img/flower4.png"" style=""width:200px; border:14px solid green;"">","null","","","","","","","","",""
"1048.699999988079","","image-keyboard-response","132","303783","0.0-132.0","352YTHGROWZ3OF58FOY57NE55PPH4Z","A1RATFICCKLCQ","3AQN9REUTF20OMGWRXYK787Q1B1YD0","","","img/flower4.png","74","1049.7000000178814","1","1","3","1","1,0.333,0.333,0.333,1,0.333,0.333,0.333,1","1,0.333,0.333,0.333,1,0.333,0.333,0.333,1","1",""
"null","","html-keyboard-response","133","304086","0.0-133.0","352YTHGROWZ3OF58FOY57NE55PPH4Z","A1RATFICCKLCQ","3AQN9REUTF20OMGWRXYK787Q1B1YD0","","","<img src=""img/flower4.png"" style=""width:200px; border:14px solid green;"">","null","","","","","","","","",""
"1181.5999999940395","","image-keyboard-response","134","305269","0.0-134.0","352YTHGROWZ3OF58FOY57NE55PPH4Z","A1RATFICCKLCQ","3AQN9REUTF20OMGWRXYK787Q1B1YD0","","","img/flower1.png","75","1182.5","2","1","2","1","1,0.333,0.333,0.333,1,0.333,0.333,0.333,1","1,0.333,0.333,0.333,1,0.333,0.333,0.333,1","1",""
"null","","html-keyboard-response","135","305572","0.0-135.0","352YTHGROWZ3OF58FOY57NE55PPH4Z","A1RATFICCKLCQ","3AQN9REUTF20OMGWRXYK787Q1B1YD0","","","<img src=""img/flower1.png"" style=""width:200px; border:14px solid green;"">","null","","","","","","","","",""
"1024.9000000059605","","image-keyboard-response","136","306598","0.0-136.0","352YTHGROWZ3OF58FOY57NE55PPH4Z","A1RATFICCKLCQ","3AQN9REUTF20OMGWRXYK787Q1B1YD0","","","img/flower3.png","74","1025.699999988079","1","1","1","1","1,0.333,0.333,0.333,1,0.333,0.333,0.333,1","1,0.333,0.333,0.333,1,0.333,0.333,0.333,1","1",""
"null","","html-keyboard-response","137","306899","0.0-137.0","352YTHGROWZ3OF58FOY57NE55PPH4Z","A1RATFICCKLCQ","3AQN9REUTF20OMGWRXYK787Q1B1YD0","","","<img src=""img/flower3.png"" style=""width:200px; border:14px solid green;"">","null","","","","","","","","",""
"2273.0999999940395","","image-keyboard-response","138","309173","0.0-138.0","352YTHGROWZ3OF58FOY57NE55PPH4Z","A1RATFICCKLCQ","3AQN9REUTF20OMGWRXYK787Q1B1YD0","","","img/flower1.png","75","2273.9000000059605","2","1","2","1","1,0.333,0.333,0.333,1,0.333,0.333,0.333,1","1,0.333,0.333,0.333,1,0.333,0.333,0.333,1","1",""
"null","","html-keyboard-response","139","309483","0.0-139.0","352YTHGROWZ3OF58FOY57NE55PPH4Z","A1RATFICCKLCQ","3AQN9REUTF20OMGWRXYK787Q1B1YD0","","","<img src=""img/flower1.png"" style=""width:200px; border:14px solid green;"">","null","","","","","","","","",""
"1705.9000000059605","","image-keyboard-response","140","311190","0.0-140.0","352YTHGROWZ3OF58FOY57NE55PPH4Z","A1RATFICCKLCQ","3AQN9REUTF20OMGWRXYK787Q1B1YD0","","","img/flower3.png","74","1706.5999999940395","1","1","1","1","1,0.333,0.333,0.333,1,0.333,0.333,0.333,1","1,0.333,0.333,0.333,1,0.333,0.333,0.333,1","1",""
"null","","html-keyboard-response","141","311495","0.0-141.0","352YTHGROWZ3OF58FOY57NE55PPH4Z","A1RATFICCKLCQ","3AQN9REUTF20OMGWRXYK787Q1B1YD0","","","<img src=""img/flower3.png"" style=""width:200px; border:14px solid green;"">","null","","","","","","","","",""
"1389.0999999940395","","image-keyboard-response","142","312885","0.0-142.0","352YTHGROWZ3OF58FOY57NE55PPH4Z","A1RATFICCKLCQ","3AQN9REUTF20OMGWRXYK787Q1B1YD0","","","img/flower4.png","74","1389.800000011921","1","0","3","1","1,0.333,0.333,0.333,1,0.333,0.333,0.333,1","1,0.333,0.333,0.333,1,0.333,0.333,0.333,1","1",""
"null","","html-keyboard-response","143","313189","0.0-143.0","352YTHGROWZ3OF58FOY57NE55PPH4Z","A1RATFICCKLCQ","3AQN9REUTF20OMGWRXYK787Q1B1YD0","","","<img src=""img/flower4.png"" style=""width:200px;border:14px solid red;"">","null","","","","","","","","",""
"942.5999999940395","","image-keyboard-response","144","314133","0.0-144.0","352YTHGROWZ3OF58FOY57NE55PPH4Z","A1RATFICCKLCQ","3AQN9REUTF20OMGWRXYK787Q1B1YD0","","","img/flower1.png","75","943.3999999761581","2","1","2","1","1,0.333,0.333,0.333,1,0.333,0.333,0.333,1","1,0.333,0.333,0.333,1,0.333,0.333,0.333,1","1",""
"null","","html-keyboard-response","145","314446","0.0-145.0","352YTHGROWZ3OF58FOY57NE55PPH4Z","A1RATFICCKLCQ","3AQN9REUTF20OMGWRXYK787Q1B1YD0","","","<img src=""img/flower1.png"" style=""width:200px; border:14px solid green;"">","null","","","","","","","","",""
"1462.0999999940395","","image-keyboard-response","146","315909","0.0-146.0","352YTHGROWZ3OF58FOY57NE55PPH4Z","A1RATFICCKLCQ","3AQN9REUTF20OMGWRXYK787Q1B1YD0","","","img/flower3.png","75","1462.9000000059605","2","0","1","1","1,0.333,0.333,0.333,1,0.333,0.333,0.333,1","1,0.333,0.333,0.333,1,0.333,0.333,0.333,1","1",""
"null","","html-keyboard-response","147","316218","0.0-147.0","352YTHGROWZ3OF58FOY57NE55PPH4Z","A1RATFICCKLCQ","3AQN9REUTF20OMGWRXYK787Q1B1YD0","","","<img src=""img/flower3.png"" style=""width:200px;border:14px solid red;"">","null","","","","","","","","",""
"1131.699999988079","","image-keyboard-response","148","317350","0.0-148.0","352YTHGROWZ3OF58FOY57NE55PPH4Z","A1RATFICCKLCQ","3AQN9REUTF20OMGWRXYK787Q1B1YD0","","","img/flower1.png","75","1132.2000000178814","2","1","2","1","1,0.333,0.333,0.333,1,0.333,0.333,0.333,1","1,0.333,0.333,0.333,1,0.333,0.333,0.333,1","1",""
"null","","html-keyboard-response","149","317662","0.0-149.0","352YTHGROWZ3OF58FOY57NE55PPH4Z","A1RATFICCKLCQ","3AQN9REUTF20OMGWRXYK787Q1B1YD0","","","<img src=""img/flower1.png"" style=""width:200px; border:14px solid green;"">","null","","","","","","","","",""
"901.2999999821186","","image-keyboard-response","150","318565","0.0-150.0","352YTHGROWZ3OF58FOY57NE55PPH4Z","A1RATFICCKLCQ","3AQN9REUTF20OMGWRXYK787Q1B1YD0","","","img/flower4.png","74","902.0999999940395","1","0","3","1","1,0.333,0.333,0.333,1,0.333,0.333,0.333,1","1,0.333,0.333,0.333,1,0.333,0.333,0.333,1","1",""
"null","","html-keyboard-response","151","318877","0.0-151.0","352YTHGROWZ3OF58FOY57NE55PPH4Z","A1RATFICCKLCQ","3AQN9REUTF20OMGWRXYK787Q1B1YD0","","","<img src=""img/flower4.png"" style=""width:200px;border:14px solid red;"">","null","","","","","","","","",""
"1191.2999999821186","","image-keyboard-response","152","320069","0.0-152.0","352YTHGROWZ3OF58FOY57NE55PPH4Z","A1RATFICCKLCQ","3AQN9REUTF20OMGWRXYK787Q1B1YD0","","","img/flower3.png","74","1192.300000011921","1","1","1","1","1,0.333,0.333,0.333,1,0.333,0.333,0.333,1","1,0.333,0.333,0.333,1,0.333,0.333,0.333,1","1",""
"null","","html-keyboard-response","153","320380","0.0-153.0","352YTHGROWZ3OF58FOY57NE55PPH4Z","A1RATFICCKLCQ","3AQN9REUTF20OMGWRXYK787Q1B1YD0","","","<img src=""img/flower3.png"" style=""width:200px; border:14px solid green;"">","null","","","","","","","","",""
"1207.3999999761581","","image-keyboard-response","154","321589","0.0-154.0","352YTHGROWZ3OF58FOY57NE55PPH4Z","A1RATFICCKLCQ","3AQN9REUTF20OMGWRXYK787Q1B1YD0","","","img/flower3.png","74","1208.300000011921","1","1","1","1","1,0.333,0.333,0.333,1,0.333,0.333,0.333,1","1,0.333,0.333,0.333,1,0.333,0.333,0.333,1","1",""
"null","","html-keyboard-response","155","321901","0.0-155.0","352YTHGROWZ3OF58FOY57NE55PPH4Z","A1RATFICCKLCQ","3AQN9REUTF20OMGWRXYK787Q1B1YD0","","","<img src=""img/flower3.png"" style=""width:200px; border:14px solid green;"">","null","","","","","","","","",""
"855.0999999940395","","image-keyboard-response","156","322757","0.0-156.0","352YTHGROWZ3OF58FOY57NE55PPH4Z","A1RATFICCKLCQ","3AQN9REUTF20OMGWRXYK787Q1B1YD0","","","img/flower4.png","76","856","3","1","3","1","1,0.333,0.333,0.333,1,0.333,0.333,0.333,1","1,0.333,0.333,0.333,1,0.333,0.333,0.333,1","1",""
"null","","html-keyboard-response","157","323058","0.0-157.0","352YTHGROWZ3OF58FOY57NE55PPH4Z","A1RATFICCKLCQ","3AQN9REUTF20OMGWRXYK787Q1B1YD0","","","<img src=""img/flower4.png"" style=""width:200px; border:14px solid green;"">","null","","","","","","","","",""
"834","","image-keyboard-response","158","323893","0.0-158.0","352YTHGROWZ3OF58FOY57NE55PPH4Z","A1RATFICCKLCQ","3AQN9REUTF20OMGWRXYK787Q1B1YD0","","","img/flower1.png","75","834.9000000059605","2","1","2","1","1,0.333,0.333,0.333,1,0.333,0.333,0.333,1","1,0.333,0.333,0.333,1,0.333,0.333,0.333,1","1",""
"null","","html-keyboard-response","159","324201","0.0-159.0","352YTHGROWZ3OF58FOY57NE55PPH4Z","A1RATFICCKLCQ","3AQN9REUTF20OMGWRXYK787Q1B1YD0","","","<img src=""img/flower1.png"" style=""width:200px; border:14px solid green;"">","null","","","","","","","","",""
"1229.5","","image-keyboard-response","160","325431","0.0-160.0","352YTHGROWZ3OF58FOY57NE55PPH4Z","A1RATFICCKLCQ","3AQN9REUTF20OMGWRXYK787Q1B1YD0","","","img/flower4.png","76","1230.1000000238419","3","1","3","1","1,0.333,0.333,0.333,1,0.333,0.333,0.333,1","1,0.333,0.333,0.333,1,0.333,0.333,0.333,1","1",""
"null","","html-keyboard-response","161","325742","0.0-161.0","352YTHGROWZ3OF58FOY57NE55PPH4Z","A1RATFICCKLCQ","3AQN9REUTF20OMGWRXYK787Q1B1YD0","","","<img src=""img/flower4.png"" style=""width:200px; border:14px solid green;"">","null","","","","","","","","",""
"726.5999999940395","","image-keyboard-response","162","326469","0.0-162.0","352YTHGROWZ3OF58FOY57NE55PPH4Z","A1RATFICCKLCQ","3AQN9REUTF20OMGWRXYK787Q1B1YD0","","","img/flower1.png","75","727.4000000059605","2","1","2","1","1,0.333,0.333,0.333,1,0.333,0.333,0.333,1","1,0.333,0.333,0.333,1,0.333,0.333,0.333,1","1",""
"null","","html-keyboard-response","163","326780","0.0-163.0","352YTHGROWZ3OF58FOY57NE55PPH4Z","A1RATFICCKLCQ","3AQN9REUTF20OMGWRXYK787Q1B1YD0","","","<img src=""img/flower1.png"" style=""width:200px; border:14px solid green;"">","null","","","","","","","","",""
"777","","image-keyboard-response","164","327558","0.0-164.0","352YTHGROWZ3OF58FOY57NE55PPH4Z","A1RATFICCKLCQ","3AQN9REUTF20OMGWRXYK787Q1B1YD0","","","img/flower1.png","75","778.0999999940395","2","1","2","1","1,0.333,0.333,0.333,1,0.333,0.333,0.333,1","1,0.333,0.333,0.333,1,0.333,0.333,0.333,1","1",""
"null","","html-keyboard-response","165","327861","0.0-165.0","352YTHGROWZ3OF58FOY57NE55PPH4Z","A1RATFICCKLCQ","3AQN9REUTF20OMGWRXYK787Q1B1YD0","","","<img src=""img/flower1.png"" style=""width:200px; border:14px solid green;"">","null","","","","","","","","",""
"975.0999999940395","","image-keyboard-response","166","328838","0.0-166.0","352YTHGROWZ3OF58FOY57NE55PPH4Z","A1RATFICCKLCQ","3AQN9REUTF20OMGWRXYK787Q1B1YD0","","","img/flower4.png","76","976.4000000059605","3","1","3","1","1,0.333,0.333,0.333,1,0.333,0.333,0.333,1","1,0.333,0.333,0.333,1,0.333,0.333,0.333,1","1",""
"null","","html-keyboard-response","167","329140","0.0-167.0","352YTHGROWZ3OF58FOY57NE55PPH4Z","A1RATFICCKLCQ","3AQN9REUTF20OMGWRXYK787Q1B1YD0","","","<img src=""img/flower4.png"" style=""width:200px; border:14px solid green;"">","null","","","","","","","","",""
"687.5999999940395","","image-keyboard-response","168","329829","0.0-168.0","352YTHGROWZ3OF58FOY57NE55PPH4Z","A1RATFICCKLCQ","3AQN9REUTF20OMGWRXYK787Q1B1YD0","","","img/flower3.png","74","688.6000000238419","1","1","1","1","1,0.333,0.333,0.333,1,0.333,0.333,0.333,1","1,0.333,0.333,0.333,1,0.333,0.333,0.333,1","1",""
"null","","html-keyboard-response","169","330140","0.0-169.0","352YTHGROWZ3OF58FOY57NE55PPH4Z","A1RATFICCKLCQ","3AQN9REUTF20OMGWRXYK787Q1B1YD0","","","<img src=""img/flower3.png"" style=""width:200px; border:14px solid green;"">","null","","","","","","","","",""
"712.8999999761581","","image-keyboard-response","170","330853","0.0-170.0","352YTHGROWZ3OF58FOY57NE55PPH4Z","A1RATFICCKLCQ","3AQN9REUTF20OMGWRXYK787Q1B1YD0","","","img/flower3.png","74","713.5999999940395","1","1","1","1","1,0.333,0.333,0.333,1,0.333,0.333,0.333,1","1,0.333,0.333,0.333,1,0.333,0.333,0.333,1","1",""
"null","","html-keyboard-response","171","331162","0.0-171.0","352YTHGROWZ3OF58FOY57NE55PPH4Z","A1RATFICCKLCQ","3AQN9REUTF20OMGWRXYK787Q1B1YD0","","","<img src=""img/flower3.png"" style=""width:200px; border:14px solid green;"">","null","","","","","","","","",""
"922","","image-keyboard-response","172","332085","0.0-172.0","352YTHGROWZ3OF58FOY57NE55PPH4Z","A1RATFICCKLCQ","3AQN9REUTF20OMGWRXYK787Q1B1YD0","","","img/flower3.png","74","922.9000000059605","1","1","1","1","1,0.333,0.333,0.333,1,0.333,0.333,0.333,1","1,0.333,0.333,0.333,1,0.333,0.333,0.333,1","1",""
"null","","html-keyboard-response","173","332398","0.0-173.0","352YTHGROWZ3OF58FOY57NE55PPH4Z","A1RATFICCKLCQ","3AQN9REUTF20OMGWRXYK787Q1B1YD0","","","<img src=""img/flower3.png"" style=""width:200px; border:14px solid green;"">","null","","","","","","","","",""
"693.7999999821186","","image-keyboard-response","174","333092","0.0-174.0","352YTHGROWZ3OF58FOY57NE55PPH4Z","A1RATFICCKLCQ","3AQN9REUTF20OMGWRXYK787Q1B1YD0","","","img/flower1.png","75","694.4000000059605","2","1","2","1","1,0.333,0.333,0.333,1,0.333,0.333,0.333,1","1,0.333,0.333,0.333,1,0.333,0.333,0.333,1","1",""
"null","","html-keyboard-response","175","333403","0.0-175.0","352YTHGROWZ3OF58FOY57NE55PPH4Z","A1RATFICCKLCQ","3AQN9REUTF20OMGWRXYK787Q1B1YD0","","","<img src=""img/flower1.png"" style=""width:200px; border:14px solid green;"">","null","","","","","","","","",""
"761.2000000178814","","image-keyboard-response","176","334165","0.0-176.0","352YTHGROWZ3OF58FOY57NE55PPH4Z","A1RATFICCKLCQ","3AQN9REUTF20OMGWRXYK787Q1B1YD0","","","img/flower4.png","76","762.0999999940395","3","1","3","1","1,0.333,0.333,0.333,1,0.333,0.333,0.333,1","1,0.333,0.333,0.333,1,0.333,0.333,0.333,1","1",""
"null","","html-keyboard-response","177","334468","0.0-177.0","352YTHGROWZ3OF58FOY57NE55PPH4Z","A1RATFICCKLCQ","3AQN9REUTF20OMGWRXYK787Q1B1YD0","","","<img src=""img/flower4.png"" style=""width:200px; border:14px solid green;"">","null","","","","","","","","",""
"944.0999999940395","","image-keyboard-response","178","335413","0.0-178.0","352YTHGROWZ3OF58FOY57NE55PPH4Z","A1RATFICCKLCQ","3AQN9REUTF20OMGWRXYK787Q1B1YD0","","","img/flower1.png","75","945","2","1","2","1","1,0.333,0.333,0.333,1,0.333,0.333,0.333,1","1,0.333,0.333,0.333,1,0.333,0.333,0.333,1","1",""
"null","","html-keyboard-response","179","335730","0.0-179.0","352YTHGROWZ3OF58FOY57NE55PPH4Z","A1RATFICCKLCQ","3AQN9REUTF20OMGWRXYK787Q1B1YD0","","","<img src=""img/flower1.png"" style=""width:200px; border:14px solid green;"">","null","","","","","","","","",""
"707.1999999880791","","image-keyboard-response","180","336438","0.0-180.0","352YTHGROWZ3OF58FOY57NE55PPH4Z","A1RATFICCKLCQ","3AQN9REUTF20OMGWRXYK787Q1B1YD0","","","img/flower3.png","74","708","1","1","1","1","1,0.333,0.333,0.333,1,0.333,0.333,0.333,1","1,0.333,0.333,0.333,1,0.333,0.333,0.333,1","1",""
"null","","html-keyboard-response","181","336749","0.0-181.0","352YTHGROWZ3OF58FOY57NE55PPH4Z","A1RATFICCKLCQ","3AQN9REUTF20OMGWRXYK787Q1B1YD0","","","<img src=""img/flower3.png"" style=""width:200px; border:14px solid green;"">","null","","","","","","","","",""
"663.3000000119209","","image-keyboard-response","182","337413","0.0-182.0","352YTHGROWZ3OF58FOY57NE55PPH4Z","A1RATFICCKLCQ","3AQN9REUTF20OMGWRXYK787Q1B1YD0","","","img/flower1.png","75","664.0999999940395","2","1","2","1","1,0.333,0.333,0.333,1,0.333,0.333,0.333,1","1,0.333,0.333,0.333,1,0.333,0.333,0.333,1","1",""
"null","","html-keyboard-response","183","337722","0.0-183.0","352YTHGROWZ3OF58FOY57NE55PPH4Z","A1RATFICCKLCQ","3AQN9REUTF20OMGWRXYK787Q1B1YD0","","","<img src=""img/flower1.png"" style=""width:200px; border:14px solid green;"">","null","","","","","","","","",""
"714.6999999880791","","image-keyboard-response","184","338437","0.0-184.0","352YTHGROWZ3OF58FOY57NE55PPH4Z","A1RATFICCKLCQ","3AQN9REUTF20OMGWRXYK787Q1B1YD0","","","img/flower4.png","76","715.2999999821186","3","1","3","1","1,0.333,0.333,0.333,1,0.333,0.333,0.333,1","1,0.333,0.333,0.333,1,0.333,0.333,0.333,1","1",""
"null","","html-keyboard-response","185","338743","0.0-185.0","352YTHGROWZ3OF58FOY57NE55PPH4Z","A1RATFICCKLCQ","3AQN9REUTF20OMGWRXYK787Q1B1YD0","","","<img src=""img/flower4.png"" style=""width:200px; border:14px solid green;"">","null","","","","","","","","",""
"1116.300000011921","","image-keyboard-response","186","339861","0.0-186.0","352YTHGROWZ3OF58FOY57NE55PPH4Z","A1RATFICCKLCQ","3AQN9REUTF20OMGWRXYK787Q1B1YD0","","","img/flower4.png","76","1117.1000000238419","3","1","3","1","1,0.333,0.333,0.333,1,0.333,0.333,0.333,1","1,0.333,0.333,0.333,1,0.333,0.333,0.333,1","1",""
"null","","html-keyboard-response","187","340173","0.0-187.0","352YTHGROWZ3OF58FOY57NE55PPH4Z","A1RATFICCKLCQ","3AQN9REUTF20OMGWRXYK787Q1B1YD0","","","<img src=""img/flower4.png"" style=""width:200px; border:14px solid green;"">","null","","","","","","","","",""
"599","","image-keyboard-response","188","340773","0.0-188.0","352YTHGROWZ3OF58FOY57NE55PPH4Z","A1RATFICCKLCQ","3AQN9REUTF20OMGWRXYK787Q1B1YD0","","","img/flower1.png","75","599.7000000178814","2","1","2","1","1,0.333,0.333,0.333,1,0.333,0.333,0.333,1","1,0.333,0.333,0.333,1,0.333,0.333,0.333,1","1",""
"null","","html-keyboard-response","189","341084","0.0-189.0","352YTHGROWZ3OF58FOY57NE55PPH4Z","A1RATFICCKLCQ","3AQN9REUTF20OMGWRXYK787Q1B1YD0","","","<img src=""img/flower1.png"" style=""width:200px; border:14px solid green;"">","null","","","","","","","","",""
"647.6999999880791","","image-keyboard-response","190","341733","0.0-190.0","352YTHGROWZ3OF58FOY57NE55PPH4Z","A1RATFICCKLCQ","3AQN9REUTF20OMGWRXYK787Q1B1YD0","","","img/flower3.png","74","648.5","1","1","1","1","1,0.333,0.333,0.333,1,0.333,0.333,0.333,1","1,0.333,0.333,0.333,1,0.333,0.333,0.333,1","1",""
"null","","html-keyboard-response","191","342041","0.0-191.0","352YTHGROWZ3OF58FOY57NE55PPH4Z","A1RATFICCKLCQ","3AQN9REUTF20OMGWRXYK787Q1B1YD0","","","<img src=""img/flower3.png"" style=""width:200px; border:14px solid green;"">","null","","","","","","","","",""
"780.0999999940395","","image-keyboard-response","192","342822","0.0-192.0","352YTHGROWZ3OF58FOY57NE55PPH4Z","A1RATFICCKLCQ","3AQN9REUTF20OMGWRXYK787Q1B1YD0","","","img/flower3.png","74","781","1","1","1","1","1,0.333,0.333,0.333,1,0.333,0.333,0.333,1","1,0.333,0.333,0.333,1,0.333,0.333,0.333,1","1",""
"null","","html-keyboard-response","193","343131","0.0-193.0","352YTHGROWZ3OF58FOY57NE55PPH4Z","A1RATFICCKLCQ","3AQN9REUTF20OMGWRXYK787Q1B1YD0","","","<img src=""img/flower3.png"" style=""width:200px; border:14px solid green;"">","null","","","","","","","","",""
"616.8999999761581","","image-keyboard-response","194","343749","0.0-194.0","352YTHGROWZ3OF58FOY57NE55PPH4Z","A1RATFICCKLCQ","3AQN9REUTF20OMGWRXYK787Q1B1YD0","","","img/flower1.png","75","617.9000000059605","2","1","2","1","1,0.333,0.333,0.333,1,0.333,0.333,0.333,1","1,0.333,0.333,0.333,1,0.333,0.333,0.333,1","1",""
"null","","html-keyboard-response","195","344050","0.0-195.0","352YTHGROWZ3OF58FOY57NE55PPH4Z","A1RATFICCKLCQ","3AQN9REUTF20OMGWRXYK787Q1B1YD0","","","<img src=""img/flower1.png"" style=""width:200px; border:14px solid green;"">","null","","","","","","","","",""
"1025.2999999821186","","image-keyboard-response","196","345077","0.0-196.0","352YTHGROWZ3OF58FOY57NE55PPH4Z","A1RATFICCKLCQ","3AQN9REUTF20OMGWRXYK787Q1B1YD0","","","img/flower1.png","75","1026.1000000238419","2","1","2","1","1,0.333,0.333,0.333,1,0.333,0.333,0.333,1","1,0.333,0.333,0.333,1,0.333,0.333,0.333,1","1",""
"null","","html-keyboard-response","197","345378","0.0-197.0","352YTHGROWZ3OF58FOY57NE55PPH4Z","A1RATFICCKLCQ","3AQN9REUTF20OMGWRXYK787Q1B1YD0","","","<img src=""img/flower1.png"" style=""width:200px; border:14px solid green;"">","null","","","","","","","","",""
"657.9000000059605","","image-keyboard-response","198","346037","0.0-198.0","352YTHGROWZ3OF58FOY57NE55PPH4Z","A1RATFICCKLCQ","3AQN9REUTF20OMGWRXYK787Q1B1YD0","","","img/flower1.png","75","658.7999999821186","2","1","2","1","1,0.333,0.333,0.333,1,0.333,0.333,0.333,1","1,0.333,0.333,0.333,1,0.333,0.333,0.333,1","1",""
"null","","html-keyboard-response","199","346344","0.0-199.0","352YTHGROWZ3OF58FOY57NE55PPH4Z","A1RATFICCKLCQ","3AQN9REUTF20OMGWRXYK787Q1B1YD0","","","<img src=""img/flower1.png"" style=""width:200px; border:14px solid green;"">","null","","","","","","","","",""
"798.4000000059605","","image-keyboard-response","200","347143","0.0-200.0","352YTHGROWZ3OF58FOY57NE55PPH4Z","A1RATFICCKLCQ","3AQN9REUTF20OMGWRXYK787Q1B1YD0","","","img/flower4.png","76","798.9000000059605","3","1","3","1","1,0.333,0.333,0.333,1,0.333,0.333,0.333,1","1,0.333,0.333,0.333,1,0.333,0.333,0.333,1","1",""
"null","","html-keyboard-response","201","347457","0.0-201.0","352YTHGROWZ3OF58FOY57NE55PPH4Z","A1RATFICCKLCQ","3AQN9REUTF20OMGWRXYK787Q1B1YD0","","","<img src=""img/flower4.png"" style=""width:200px; border:14px solid green;"">","null","","","","","","","","",""
"721.6000000238419","","image-keyboard-response","202","348180","0.0-202.0","352YTHGROWZ3OF58FOY57NE55PPH4Z","A1RATFICCKLCQ","3AQN9REUTF20OMGWRXYK787Q1B1YD0","","","img/flower3.png","74","722.3000000119209","1","1","1","1","1,0.333,0.333,0.333,1,0.333,0.333,0.333,1","1,0.333,0.333,0.333,1,0.333,0.333,0.333,1","1",""
"null","","html-keyboard-response","203","348489","0.0-203.0","352YTHGROWZ3OF58FOY57NE55PPH4Z","A1RATFICCKLCQ","3AQN9REUTF20OMGWRXYK787Q1B1YD0","","","<img src=""img/flower3.png"" style=""width:200px; border:14px solid green;"">","null","","","","","","","","",""
"730.8000000119209","","image-keyboard-response","204","349221","0.0-204.0","352YTHGROWZ3OF58FOY57NE55PPH4Z","A1RATFICCKLCQ","3AQN9REUTF20OMGWRXYK787Q1B1YD0","","","img/flower3.png","74","731.5999999940395","1","1","1","1","1,0.333,0.333,0.333,1,0.333,0.333,0.333,1","1,0.333,0.333,0.333,1,0.333,0.333,0.333,1","1",""
"null","","html-keyboard-response","205","349527","0.0-205.0","352YTHGROWZ3OF58FOY57NE55PPH4Z","A1RATFICCKLCQ","3AQN9REUTF20OMGWRXYK787Q1B1YD0","","","<img src=""img/flower3.png"" style=""width:200px; border:14px solid green;"">","null","","","","","","","","",""
"796.5","","image-keyboard-response","206","350324","0.0-206.0","352YTHGROWZ3OF58FOY57NE55PPH4Z","A1RATFICCKLCQ","3AQN9REUTF20OMGWRXYK787Q1B1YD0","","","img/flower4.png","76","797.4000000059605","3","1","3","1","1,0.333,0.333,0.333,1,0.333,0.333,0.333,1","1,0.333,0.333,0.333,1,0.333,0.333,0.333,1","1",""
"null","","html-keyboard-response","207","350635","0.0-207.0","352YTHGROWZ3OF58FOY57NE55PPH4Z","A1RATFICCKLCQ","3AQN9REUTF20OMGWRXYK787Q1B1YD0","","","<img src=""img/flower4.png"" style=""width:200px; border:14px solid green;"">","null","","","","","","","","",""
"761.0999999940395","","image-keyboard-response","208","351397","0.0-208.0","352YTHGROWZ3OF58FOY57NE55PPH4Z","A1RATFICCKLCQ","3AQN9REUTF20OMGWRXYK787Q1B1YD0","","","img/flower1.png","75","762.0999999940395","2","1","2","1","1,0.333,0.333,0.333,1,0.333,0.333,0.333,1","1,0.333,0.333,0.333,1,0.333,0.333,0.333,1","1",""
"null","","html-keyboard-response","209","351709","0.0-209.0","352YTHGROWZ3OF58FOY57NE55PPH4Z","A1RATFICCKLCQ","3AQN9REUTF20OMGWRXYK787Q1B1YD0","","","<img src=""img/flower1.png"" style=""width:200px; border:14px solid green;"">","null","","","","","","","","",""
"1511.199999988079","","image-keyboard-response","210","353221","0.0-210.0","352YTHGROWZ3OF58FOY57NE55PPH4Z","A1RATFICCKLCQ","3AQN9REUTF20OMGWRXYK787Q1B1YD0","","","img/flower4.png","76","1511.7000000178814","3","1","3","1","1,0.333,0.333,0.333,1,0.333,0.333,0.333,1","1,0.333,0.333,0.333,1,0.333,0.333,0.333,1","1",""
"null","","html-keyboard-response","211","353523","0.0-211.0","352YTHGROWZ3OF58FOY57NE55PPH4Z","A1RATFICCKLCQ","3AQN9REUTF20OMGWRXYK787Q1B1YD0","","","<img src=""img/flower4.png"" style=""width:200px; border:14px solid green;"">","null","","","","","","","","",""
"639.9000000059605","","image-keyboard-response","212","354165","0.0-212.0","352YTHGROWZ3OF58FOY57NE55PPH4Z","A1RATFICCKLCQ","3AQN9REUTF20OMGWRXYK787Q1B1YD0","","","img/flower1.png","75","640.8000000119209","2","1","2","1","1,0.333,0.333,0.333,1,0.333,0.333,0.333,1","1,0.333,0.333,0.333,1,0.333,0.333,0.333,1","1",""
"null","","html-keyboard-response","213","354470","0.0-213.0","352YTHGROWZ3OF58FOY57NE55PPH4Z","A1RATFICCKLCQ","3AQN9REUTF20OMGWRXYK787Q1B1YD0","","","<img src=""img/flower1.png"" style=""width:200px; border:14px solid green;"">","null","","","","","","","","",""
"1789.9000000059605","","image-keyboard-response","214","356262","0.0-214.0","352YTHGROWZ3OF58FOY57NE55PPH4Z","A1RATFICCKLCQ","3AQN9REUTF20OMGWRXYK787Q1B1YD0","","","img/flower4.png","76","1791.0999999940395","3","1","3","1","1,0.333,0.333,0.333,1,0.333,0.333,0.333,1","1,0.333,0.333,0.333,1,0.333,0.333,0.333,1","1",""
"null","","html-keyboard-response","215","356569","0.0-215.0","352YTHGROWZ3OF58FOY57NE55PPH4Z","A1RATFICCKLCQ","3AQN9REUTF20OMGWRXYK787Q1B1YD0","","","<img src=""img/flower4.png"" style=""width:200px; border:14px solid green;"">","null","","","","","","","","",""
"684.2000000178814","","image-keyboard-response","216","357254","0.0-216.0","352YTHGROWZ3OF58FOY57NE55PPH4Z","A1RATFICCKLCQ","3AQN9REUTF20OMGWRXYK787Q1B1YD0","","","img/flower4.png","76","685.2999999821186","3","1","3","1","1,0.333,0.333,0.333,1,0.333,0.333,0.333,1","1,0.333,0.333,0.333,1,0.333,0.333,0.333,1","1",""
"null","","html-keyboard-response","217","357558","0.0-217.0","352YTHGROWZ3OF58FOY57NE55PPH4Z","A1RATFICCKLCQ","3AQN9REUTF20OMGWRXYK787Q1B1YD0","","","<img src=""img/flower4.png"" style=""width:200px; border:14px solid green;"">","null","","","","","","","","",""
"685.5999999940395","","image-keyboard-response","218","358245","0.0-218.0","352YTHGROWZ3OF58FOY57NE55PPH4Z","A1RATFICCKLCQ","3AQN9REUTF20OMGWRXYK787Q1B1YD0","","","img/flower1.png","75","686.4000000059605","2","1","2","1","1,0.333,0.333,0.333,1,0.333,0.333,0.333,1","1,0.333,0.333,0.333,1,0.333,0.333,0.333,1","1",""
"null","","html-keyboard-response","219","358553","0.0-219.0","352YTHGROWZ3OF58FOY57NE55PPH4Z","A1RATFICCKLCQ","3AQN9REUTF20OMGWRXYK787Q1B1YD0","","","<img src=""img/flower1.png"" style=""width:200px; border:14px solid green;"">","null","","","","","","","","",""
"667.4000000059605","","image-keyboard-response","220","359221","0.0-220.0","352YTHGROWZ3OF58FOY57NE55PPH4Z","A1RATFICCKLCQ","3AQN9REUTF20OMGWRXYK787Q1B1YD0","","","img/flower3.png","74","668.2000000178814","1","1","1","1","1,0.333,0.333,0.333,1,0.333,0.333,0.333,1","1,0.333,0.333,0.333,1,0.333,0.333,0.333,1","1",""
"null","","html-keyboard-response","221","359526","0.0-221.0","352YTHGROWZ3OF58FOY57NE55PPH4Z","A1RATFICCKLCQ","3AQN9REUTF20OMGWRXYK787Q1B1YD0","","","<img src=""img/flower3.png"" style=""width:200px; border:14px solid green;"">","null","","","","","","","","",""
"669.0999999940395","","image-keyboard-response","222","360196","0.0-222.0","352YTHGROWZ3OF58FOY57NE55PPH4Z","A1RATFICCKLCQ","3AQN9REUTF20OMGWRXYK787Q1B1YD0","","","img/flower3.png","74","669.6999999880791","1","1","1","1","1,0.333,0.333,0.333,1,0.333,0.333,0.333,1","1,0.333,0.333,0.333,1,0.333,0.333,0.333,1","1",""
"null","","html-keyboard-response","223","360501","0.0-223.0","352YTHGROWZ3OF58FOY57NE55PPH4Z","A1RATFICCKLCQ","3AQN9REUTF20OMGWRXYK787Q1B1YD0","","","<img src=""img/flower3.png"" style=""width:200px; border:14px solid green;"">","null","","","","","","","","",""
"702.7999999821186","","image-keyboard-response","224","361205","0.0-224.0","352YTHGROWZ3OF58FOY57NE55PPH4Z","A1RATFICCKLCQ","3AQN9REUTF20OMGWRXYK787Q1B1YD0","","","img/flower4.png","75","703.7999999821186","2","0","3","1","1,0.333,0.333,0.333,1,0.333,0.333,0.333,1","1,0.333,0.333,0.333,1,0.333,0.333,0.333,1","1",""
"null","","html-keyboard-response","225","361522","0.0-225.0","352YTHGROWZ3OF58FOY57NE55PPH4Z","A1RATFICCKLCQ","3AQN9REUTF20OMGWRXYK787Q1B1YD0","","","<img src=""img/flower4.png"" style=""width:200px;border:14px solid red;"">","null","","","","","","","","",""
"785.4000000059605","","image-keyboard-response","226","362309","0.0-226.0","352YTHGROWZ3OF58FOY57NE55PPH4Z","A1RATFICCKLCQ","3AQN9REUTF20OMGWRXYK787Q1B1YD0","","","img/flower1.png","75","786.2999999821186","2","1","2","1","1,0.333,0.333,0.333,1,0.333,0.333,0.333,1","1,0.333,0.333,0.333,1,0.333,0.333,0.333,1","1",""
"null","","html-keyboard-response","227","362615","0.0-227.0","352YTHGROWZ3OF58FOY57NE55PPH4Z","A1RATFICCKLCQ","3AQN9REUTF20OMGWRXYK787Q1B1YD0","","","<img src=""img/flower1.png"" style=""width:200px; border:14px solid green;"">","null","","","","","","","","",""
"589.5","","image-keyboard-response","228","363204","0.0-228.0","352YTHGROWZ3OF58FOY57NE55PPH4Z","A1RATFICCKLCQ","3AQN9REUTF20OMGWRXYK787Q1B1YD0","","","img/flower4.png","76","590.5999999940395","3","1","3","1","1,0.333,0.333,0.333,1,0.333,0.333,0.333,1","1,0.333,0.333,0.333,1,0.333,0.333,0.333,1","1",""
"null","","html-keyboard-response","229","363517","0.0-229.0","352YTHGROWZ3OF58FOY57NE55PPH4Z","A1RATFICCKLCQ","3AQN9REUTF20OMGWRXYK787Q1B1YD0","","","<img src=""img/flower4.png"" style=""width:200px; border:14px solid green;"">","null","","","","","","","","",""
"678.6999999880791","","image-keyboard-response","230","364196","0.0-230.0","352YTHGROWZ3OF58FOY57NE55PPH4Z","A1RATFICCKLCQ","3AQN9REUTF20OMGWRXYK787Q1B1YD0","","","img/flower4.png","76","679.4000000059605","3","1","3","1","1,0.333,0.333,0.333,1,0.333,0.333,0.333,1","1,0.333,0.333,0.333,1,0.333,0.333,0.333,1","1",""
"null","","html-keyboard-response","231","364509","0.0-231.0","352YTHGROWZ3OF58FOY57NE55PPH4Z","A1RATFICCKLCQ","3AQN9REUTF20OMGWRXYK787Q1B1YD0","","","<img src=""img/flower4.png"" style=""width:200px; border:14px solid green;"">","null","","","","","","","","",""
"645.5999999940395","","image-keyboard-response","232","365156","0.0-232.0","352YTHGROWZ3OF58FOY57NE55PPH4Z","A1RATFICCKLCQ","3AQN9REUTF20OMGWRXYK787Q1B1YD0","","","img/flower4.png","76","646.4000000059605","3","1","3","1","1,0.333,0.333,0.333,1,0.333,0.333,0.333,1","1,0.333,0.333,0.333,1,0.333,0.333,0.333,1","1",""
"null","","html-keyboard-response","233","365472","0.0-233.0","352YTHGROWZ3OF58FOY57NE55PPH4Z","A1RATFICCKLCQ","3AQN9REUTF20OMGWRXYK787Q1B1YD0","","","<img src=""img/flower4.png"" style=""width:200px; border:14px solid green;"">","null","","","","","","","","",""
"867.1999999880791","","image-keyboard-response","234","366340","0.0-234.0","352YTHGROWZ3OF58FOY57NE55PPH4Z","A1RATFICCKLCQ","3AQN9REUTF20OMGWRXYK787Q1B1YD0","","","img/flower3.png","74","868","1","1","1","1","1,0.333,0.333,0.333,1,0.333,0.333,0.333,1","1,0.333,0.333,0.333,1,0.333,0.333,0.333,1","1",""
"null","","html-keyboard-response","235","366645","0.0-235.0","352YTHGROWZ3OF58FOY57NE55PPH4Z","A1RATFICCKLCQ","3AQN9REUTF20OMGWRXYK787Q1B1YD0","","","<img src=""img/flower3.png"" style=""width:200px; border:14px solid green;"">","null","","","","","","","","",""
"670.8000000119209","","image-keyboard-response","236","367317","0.0-236.0","352YTHGROWZ3OF58FOY57NE55PPH4Z","A1RATFICCKLCQ","3AQN9REUTF20OMGWRXYK787Q1B1YD0","","","img/flower1.png","75","671.5999999940395","2","1","2","1","1,0.333,0.333,0.333,1,0.333,0.333,0.333,1","1,0.333,0.333,0.333,1,0.333,0.333,0.333,1","1",""
"null","","html-keyboard-response","237","367625","0.0-237.0","352YTHGROWZ3OF58FOY57NE55PPH4Z","A1RATFICCKLCQ","3AQN9REUTF20OMGWRXYK787Q1B1YD0","","","<img src=""img/flower1.png"" style=""width:200px; border:14px solid green;"">","null","","","","","","","","",""
"745.2000000178814","","image-keyboard-response","238","368371","0.0-238.0","352YTHGROWZ3OF58FOY57NE55PPH4Z","A1RATFICCKLCQ","3AQN9REUTF20OMGWRXYK787Q1B1YD0","","","img/flower3.png","74","745.8000000119209","1","1","1","1","1,0.333,0.333,0.333,1,0.333,0.333,0.333,1","1,0.333,0.333,0.333,1,0.333,0.333,0.333,1","1",""
"null","","html-keyboard-response","239","368687","0.0-239.0","352YTHGROWZ3OF58FOY57NE55PPH4Z","A1RATFICCKLCQ","3AQN9REUTF20OMGWRXYK787Q1B1YD0","","","<img src=""img/flower3.png"" style=""width:200px; border:14px solid green;"">","null","","","","","","","","",""
"627.3000000119209","","image-keyboard-response","240","369315","0.0-240.0","352YTHGROWZ3OF58FOY57NE55PPH4Z","A1RATFICCKLCQ","3AQN9REUTF20OMGWRXYK787Q1B1YD0","","","img/flower1.png","75","628","2","1","2","1","1,0.333,0.333,0.333,1,0.333,0.333,0.333,1","1,0.333,0.333,0.333,1,0.333,0.333,0.333,1","1",""
"null","","html-keyboard-response","241","369619","0.0-241.0","352YTHGROWZ3OF58FOY57NE55PPH4Z","A1RATFICCKLCQ","3AQN9REUTF20OMGWRXYK787Q1B1YD0","","","<img src=""img/flower1.png"" style=""width:200px; border:14px solid green;"">","null","","","","","","","","",""
"928.5","","image-keyboard-response","242","370549","0.0-242.0","352YTHGROWZ3OF58FOY57NE55PPH4Z","A1RATFICCKLCQ","3AQN9REUTF20OMGWRXYK787Q1B1YD0","","","img/flower1.png","75","929.2000000178814","2","1","2","1","1,0.333,0.333,0.333,1,0.333,0.333,0.333,1","1,0.333,0.333,0.333,1,0.333,0.333,0.333,1","1",""
"null","","html-keyboard-response","243","370864","0.0-243.0","352YTHGROWZ3OF58FOY57NE55PPH4Z","A1RATFICCKLCQ","3AQN9REUTF20OMGWRXYK787Q1B1YD0","","","<img src=""img/flower1.png"" style=""width:200px; border:14px solid green;"">","null","","","","","","","","",""
"707.1999999880791","","image-keyboard-response","244","371572","0.0-244.0","352YTHGROWZ3OF58FOY57NE55PPH4Z","A1RATFICCKLCQ","3AQN9REUTF20OMGWRXYK787Q1B1YD0","","","img/flower4.png","76","707.9000000059605","3","1","3","1","1,0.333,0.333,0.333,1,0.333,0.333,0.333,1","1,0.333,0.333,0.333,1,0.333,0.333,0.333,1","1",""
"null","","html-keyboard-response","245","371875","0.0-245.0","352YTHGROWZ3OF58FOY57NE55PPH4Z","A1RATFICCKLCQ","3AQN9REUTF20OMGWRXYK787Q1B1YD0","","","<img src=""img/flower4.png"" style=""width:200px; border:14px solid green;"">","null","","","","","","","","",""
"624.6000000238419","","image-keyboard-response","246","372500","0.0-246.0","352YTHGROWZ3OF58FOY57NE55PPH4Z","A1RATFICCKLCQ","3AQN9REUTF20OMGWRXYK787Q1B1YD0","","","img/flower1.png","75","625.1999999880791","2","1","2","1","1,0.333,0.333,0.333,1,0.333,0.333,0.333,1","1,0.333,0.333,0.333,1,0.333,0.333,0.333,1","1",""
"null","","html-keyboard-response","247","372814","0.0-247.0","352YTHGROWZ3OF58FOY57NE55PPH4Z","A1RATFICCKLCQ","3AQN9REUTF20OMGWRXYK787Q1B1YD0","","","<img src=""img/flower1.png"" style=""width:200px; border:14px solid green;"">","null","","","","","","","","",""
"965.1999999880791","","image-keyboard-response","248","373780","0.0-248.0","352YTHGROWZ3OF58FOY57NE55PPH4Z","A1RATFICCKLCQ","3AQN9REUTF20OMGWRXYK787Q1B1YD0","","","img/flower4.png","76","966","3","1","3","1","1,0.333,0.333,0.333,1,0.333,0.333,0.333,1","1,0.333,0.333,0.333,1,0.333,0.333,0.333,1","1",""
"null","","html-keyboard-response","249","374089","0.0-249.0","352YTHGROWZ3OF58FOY57NE55PPH4Z","A1RATFICCKLCQ","3AQN9REUTF20OMGWRXYK787Q1B1YD0","","","<img src=""img/flower4.png"" style=""width:200px; border:14px solid green;"">","null","","","","","","","","",""
"681.9000000059605","","image-keyboard-response","250","374772","0.0-250.0","352YTHGROWZ3OF58FOY57NE55PPH4Z","A1RATFICCKLCQ","3AQN9REUTF20OMGWRXYK787Q1B1YD0","","","img/flower1.png","75","682.6999999880791","2","1","2","1","1,0.333,0.333,0.333,1,0.333,0.333,0.333,1","1,0.333,0.333,0.333,1,0.333,0.333,0.333,1","1",""
"null","","html-keyboard-response","251","375073","0.0-251.0","352YTHGROWZ3OF58FOY57NE55PPH4Z","A1RATFICCKLCQ","3AQN9REUTF20OMGWRXYK787Q1B1YD0","","","<img src=""img/flower1.png"" style=""width:200px; border:14px solid green;"">","null","","","","","","","","",""
"674","","image-keyboard-response","252","375748","0.0-252.0","352YTHGROWZ3OF58FOY57NE55PPH4Z","A1RATFICCKLCQ","3AQN9REUTF20OMGWRXYK787Q1B1YD0","","","img/flower3.png","74","675","1","1","1","1","1,0.333,0.333,0.333,1,0.333,0.333,0.333,1","1,0.333,0.333,0.333,1,0.333,0.333,0.333,1","1",""
"null","","html-keyboard-response","253","376054","0.0-253.0","352YTHGROWZ3OF58FOY57NE55PPH4Z","A1RATFICCKLCQ","3AQN9REUTF20OMGWRXYK787Q1B1YD0","","","<img src=""img/flower3.png"" style=""width:200px; border:14px solid green;"">","null","","","","","","","","",""
"1230.199999988079","","image-keyboard-response","254","377285","0.0-254.0","352YTHGROWZ3OF58FOY57NE55PPH4Z","A1RATFICCKLCQ","3AQN9REUTF20OMGWRXYK787Q1B1YD0","","","img/flower4.png","76","1230.800000011921","3","1","3","1","1,0.333,0.333,0.333,1,0.333,0.333,0.333,1","1,0.333,0.333,0.333,1,0.333,0.333,0.333,1","1",""
"null","","html-keyboard-response","255","377595","0.0-255.0","352YTHGROWZ3OF58FOY57NE55PPH4Z","A1RATFICCKLCQ","3AQN9REUTF20OMGWRXYK787Q1B1YD0","","","<img src=""img/flower4.png"" style=""width:200px; border:14px solid green;"">","null","","","","","","","","",""
"714.1999999880791","","image-keyboard-response","256","378310","0.0-256.0","352YTHGROWZ3OF58FOY57NE55PPH4Z","A1RATFICCKLCQ","3AQN9REUTF20OMGWRXYK787Q1B1YD0","","","img/flower3.png","74","715","1","1","1","1","1,0.333,0.333,0.333,1,0.333,0.333,0.333,1","1,0.333,0.333,0.333,1,0.333,0.333,0.333,1","1",""
"null","","html-keyboard-response","257","378613","0.0-257.0","352YTHGROWZ3OF58FOY57NE55PPH4Z","A1RATFICCKLCQ","3AQN9REUTF20OMGWRXYK787Q1B1YD0","","","<img src=""img/flower3.png"" style=""width:200px; border:14px solid green;"">","null","","","","","","","","",""
"862.5","","image-keyboard-response","258","379476","0.0-258.0","352YTHGROWZ3OF58FOY57NE55PPH4Z","A1RATFICCKLCQ","3AQN9REUTF20OMGWRXYK787Q1B1YD0","","","img/flower4.png","76","863.6999999880791","3","1","3","1","1,0.333,0.333,0.333,1,0.333,0.333,0.333,1","1,0.333,0.333,0.333,1,0.333,0.333,0.333,1","1",""
"null","","html-keyboard-response","259","379788","0.0-259.0","352YTHGROWZ3OF58FOY57NE55PPH4Z","A1RATFICCKLCQ","3AQN9REUTF20OMGWRXYK787Q1B1YD0","","","<img src=""img/flower4.png"" style=""width:200px; border:14px solid green;"">","null","","","","","","","","",""
"967.7000000178814","","image-keyboard-response","260","380757","0.0-260.0","352YTHGROWZ3OF58FOY57NE55PPH4Z","A1RATFICCKLCQ","3AQN9REUTF20OMGWRXYK787Q1B1YD0","","","img/flower3.png","74","968.6999999880791","1","1","1","1","1,0.333,0.333,0.333,1,0.333,0.333,0.333,1","1,0.333,0.333,0.333,1,0.333,0.333,0.333,1","1",""
"null","","html-keyboard-response","261","381059","0.0-261.0","352YTHGROWZ3OF58FOY57NE55PPH4Z","A1RATFICCKLCQ","3AQN9REUTF20OMGWRXYK787Q1B1YD0","","","<img src=""img/flower3.png"" style=""width:200px; border:14px solid green;"">","null","","","","","","","","",""
"1295.1000000238419","","image-keyboard-response","262","382355","0.0-262.0","352YTHGROWZ3OF58FOY57NE55PPH4Z","A1RATFICCKLCQ","3AQN9REUTF20OMGWRXYK787Q1B1YD0","","","img/flower3.png","74","1295.699999988079","1","1","1","1","1,0.333,0.333,0.333,1,0.333,0.333,0.333,1","1,0.333,0.333,0.333,1,0.333,0.333,0.333,1","1",""
"null","","html-keyboard-response","263","382662","0.0-263.0","352YTHGROWZ3OF58FOY57NE55PPH4Z","A1RATFICCKLCQ","3AQN9REUTF20OMGWRXYK787Q1B1YD0","","","<img src=""img/flower3.png"" style=""width:200px; border:14px solid green;"">","null","","","","","","","","",""
"1133.7000000178814","","image-keyboard-response","264","383797","0.0-264.0","352YTHGROWZ3OF58FOY57NE55PPH4Z","A1RATFICCKLCQ","3AQN9REUTF20OMGWRXYK787Q1B1YD0","","","img/flower4.png","76","1134.7000000178814","3","1","3","1","1,0.333,0.333,0.333,1,0.333,0.333,0.333,1","1,0.333,0.333,0.333,1,0.333,0.333,0.333,1","1",""
"null","","html-keyboard-response","265","384112","0.0-265.0","352YTHGROWZ3OF58FOY57NE55PPH4Z","A1RATFICCKLCQ","3AQN9REUTF20OMGWRXYK787Q1B1YD0","","","<img src=""img/flower4.png"" style=""width:200px; border:14px solid green;"">","null","","","","","","","","",""
"692.3000000119209","","image-keyboard-response","266","384805","0.0-266.0","352YTHGROWZ3OF58FOY57NE55PPH4Z","A1RATFICCKLCQ","3AQN9REUTF20OMGWRXYK787Q1B1YD0","","","img/flower1.png","75","693","2","1","2","1","1,0.333,0.333,0.333,1,0.333,0.333,0.333,1","1,0.333,0.333,0.333,1,0.333,0.333,0.333,1","1",""
"null","","html-keyboard-response","267","385112","0.0-267.0","352YTHGROWZ3OF58FOY57NE55PPH4Z","A1RATFICCKLCQ","3AQN9REUTF20OMGWRXYK787Q1B1YD0","","","<img src=""img/flower1.png"" style=""width:200px; border:14px solid green;"">","null","","","","","","","","",""
"778.9000000059605","","image-keyboard-response","268","385892","0.0-268.0","352YTHGROWZ3OF58FOY57NE55PPH4Z","A1RATFICCKLCQ","3AQN9REUTF20OMGWRXYK787Q1B1YD0","","","img/flower1.png","75","779.9000000059605","2","1","2","1","1,0.333,0.333,0.333,1,0.333,0.333,0.333,1","1,0.333,0.333,0.333,1,0.333,0.333,0.333,1","1",""
"null","","html-keyboard-response","269","386207","0.0-269.0","352YTHGROWZ3OF58FOY57NE55PPH4Z","A1RATFICCKLCQ","3AQN9REUTF20OMGWRXYK787Q1B1YD0","","","<img src=""img/flower1.png"" style=""width:200px; border:14px solid green;"">","null","","","","","","","","",""
"644.5","","image-keyboard-response","270","386852","0.0-270.0","352YTHGROWZ3OF58FOY57NE55PPH4Z","A1RATFICCKLCQ","3AQN9REUTF20OMGWRXYK787Q1B1YD0","","","img/flower3.png","74","645","1","1","1","1","1,0.333,0.333,0.333,1,0.333,0.333,0.333,1","1,0.333,0.333,0.333,1,0.333,0.333,0.333,1","1",""
"null","","html-keyboard-response","271","387160","0.0-271.0","352YTHGROWZ3OF58FOY57NE55PPH4Z","A1RATFICCKLCQ","3AQN9REUTF20OMGWRXYK787Q1B1YD0","","","<img src=""img/flower3.png"" style=""width:200px; border:14px solid green;"">","null","","","","","","","","",""
"778.3000000119209","","image-keyboard-response","272","387940","0.0-272.0","352YTHGROWZ3OF58FOY57NE55PPH4Z","A1RATFICCKLCQ","3AQN9REUTF20OMGWRXYK787Q1B1YD0","","","img/flower3.png","74","779.0999999940395","1","1","1","1","1,0.333,0.333,0.333,1,0.333,0.333,0.333,1","1,0.333,0.333,0.333,1,0.333,0.333,0.333,1","1",""
"null","","html-keyboard-response","273","388250","0.0-273.0","352YTHGROWZ3OF58FOY57NE55PPH4Z","A1RATFICCKLCQ","3AQN9REUTF20OMGWRXYK787Q1B1YD0","","","<img src=""img/flower3.png"" style=""width:200px; border:14px solid green;"">","null","","","","","","","","",""
"905.1999999880791","","image-keyboard-response","274","389156","0.0-274.0","352YTHGROWZ3OF58FOY57NE55PPH4Z","A1RATFICCKLCQ","3AQN9REUTF20OMGWRXYK787Q1B1YD0","","","img/flower3.png","74","905.8000000119209","1","1","1","1","1,0.333,0.333,0.333,1,0.333,0.333,0.333,1","1,0.333,0.333,0.333,1,0.333,0.333,0.333,1","1",""
"null","","html-keyboard-response","275","389459","0.0-275.0","352YTHGROWZ3OF58FOY57NE55PPH4Z","A1RATFICCKLCQ","3AQN9REUTF20OMGWRXYK787Q1B1YD0","","","<img src=""img/flower3.png"" style=""width:200px; border:14px solid green;"">","null","","","","","","","","",""
"944.5","","image-keyboard-response","276","390405","0.0-276.0","352YTHGROWZ3OF58FOY57NE55PPH4Z","A1RATFICCKLCQ","3AQN9REUTF20OMGWRXYK787Q1B1YD0","","","img/flower4.png","76","945.5999999940395","3","1","3","1","1,0.333,0.333,0.333,1,0.333,0.333,0.333,1","1,0.333,0.333,0.333,1,0.333,0.333,0.333,1","1",""
"null","","html-keyboard-response","277","390716","0.0-277.0","352YTHGROWZ3OF58FOY57NE55PPH4Z","A1RATFICCKLCQ","3AQN9REUTF20OMGWRXYK787Q1B1YD0","","","<img src=""img/flower4.png"" style=""width:200px; border:14px solid green;"">","null","","","","","","","","",""
"679.5","","image-keyboard-response","278","391397","0.0-278.0","352YTHGROWZ3OF58FOY57NE55PPH4Z","A1RATFICCKLCQ","3AQN9REUTF20OMGWRXYK787Q1B1YD0","","","img/flower1.png","75","680.2999999821186","2","1","2","1","1,0.333,0.333,0.333,1,0.333,0.333,0.333,1","1,0.333,0.333,0.333,1,0.333,0.333,0.333,1","1",""
"null","","html-keyboard-response","279","391709","0.0-279.0","352YTHGROWZ3OF58FOY57NE55PPH4Z","A1RATFICCKLCQ","3AQN9REUTF20OMGWRXYK787Q1B1YD0","","","<img src=""img/flower1.png"" style=""width:200px; border:14px solid green;"">","null","","","","","","","","",""
"870.2000000178814","","image-keyboard-response","280","392580","0.0-280.0","352YTHGROWZ3OF58FOY57NE55PPH4Z","A1RATFICCKLCQ","3AQN9REUTF20OMGWRXYK787Q1B1YD0","","","img/flower1.png","75","871.0999999940395","2","1","2","1","1,0.333,0.333,0.333,1,0.333,0.333,0.333,1","1,0.333,0.333,0.333,1,0.333,0.333,0.333,1","1",""
"null","","html-keyboard-response","281","392885","0.0-281.0","352YTHGROWZ3OF58FOY57NE55PPH4Z","A1RATFICCKLCQ","3AQN9REUTF20OMGWRXYK787Q1B1YD0","","","<img src=""img/flower1.png"" style=""width:200px; border:14px solid green;"">","null","","","","","","","","",""
"749.3000000119209","","image-keyboard-response","282","393636","0.0-282.0","352YTHGROWZ3OF58FOY57NE55PPH4Z","A1RATFICCKLCQ","3AQN9REUTF20OMGWRXYK787Q1B1YD0","","","img/flower3.png","74","750.2999999821186","1","1","1","1","1,0.333,0.333,0.333,1,0.333,0.333,0.333,1","1,0.333,0.333,0.333,1,0.333,0.333,0.333,1","1",""
"null","","html-keyboard-response","283","393938","0.0-283.0","352YTHGROWZ3OF58FOY57NE55PPH4Z","A1RATFICCKLCQ","3AQN9REUTF20OMGWRXYK787Q1B1YD0","","","<img src=""img/flower3.png"" style=""width:200px; border:14px solid green;"">","null","","","","","","","","",""
"721.3999999761581","","image-keyboard-response","284","394660","0.0-284.0","352YTHGROWZ3OF58FOY57NE55PPH4Z","A1RATFICCKLCQ","3AQN9REUTF20OMGWRXYK787Q1B1YD0","","","img/flower3.png","74","722.1999999880791","1","1","1","1","1,0.333,0.333,0.333,1,0.333,0.333,0.333,1","1,0.333,0.333,0.333,1,0.333,0.333,0.333,1","1",""
"null","","html-keyboard-response","285","394978","0.0-285.0","352YTHGROWZ3OF58FOY57NE55PPH4Z","A1RATFICCKLCQ","3AQN9REUTF20OMGWRXYK787Q1B1YD0","","","<img src=""img/flower3.png"" style=""width:200px; border:14px solid green;"">","null","","","","","","","","",""
"1200.300000011921","","image-keyboard-response","286","396179","0.0-286.0","352YTHGROWZ3OF58FOY57NE55PPH4Z","A1RATFICCKLCQ","3AQN9REUTF20OMGWRXYK787Q1B1YD0","","","img/flower4.png","76","1201.199999988079","3","1","3","1","1,0.333,0.333,0.333,1,0.333,0.333,0.333,1","1,0.333,0.333,0.333,1,0.333,0.333,0.333,1","1",""
"null","","html-keyboard-response","287","396480","0.0-287.0","352YTHGROWZ3OF58FOY57NE55PPH4Z","A1RATFICCKLCQ","3AQN9REUTF20OMGWRXYK787Q1B1YD0","","","<img src=""img/flower4.png"" style=""width:200px; border:14px solid green;"">","null","","","","","","","","",""
"802.9000000059605","","image-keyboard-response","288","397284","0.0-288.0","352YTHGROWZ3OF58FOY57NE55PPH4Z","A1RATFICCKLCQ","3AQN9REUTF20OMGWRXYK787Q1B1YD0","","","img/flower1.png","75","803.6999999880791","2","1","2","1","1,0.333,0.333,0.333,1,0.333,0.333,0.333,1","1,0.333,0.333,0.333,1,0.333,0.333,0.333,1","1",""
"null","","html-keyboard-response","289","397593","0.0-289.0","352YTHGROWZ3OF58FOY57NE55PPH4Z","A1RATFICCKLCQ","3AQN9REUTF20OMGWRXYK787Q1B1YD0","","","<img src=""img/flower1.png"" style=""width:200px; border:14px solid green;"">","null","","","","","","","","",""
"666.3000000119209","","image-keyboard-response","290","398260","0.0-290.0","352YTHGROWZ3OF58FOY57NE55PPH4Z","A1RATFICCKLCQ","3AQN9REUTF20OMGWRXYK787Q1B1YD0","","","img/flower3.png","74","667.0999999940395","1","1","1","1","1,0.333,0.333,0.333,1,0.333,0.333,0.333,1","1,0.333,0.333,0.333,1,0.333,0.333,0.333,1","1",""
"null","","html-keyboard-response","291","398570","0.0-291.0","352YTHGROWZ3OF58FOY57NE55PPH4Z","A1RATFICCKLCQ","3AQN9REUTF20OMGWRXYK787Q1B1YD0","","","<img src=""img/flower3.png"" style=""width:200px; border:14px solid green;"">","null","","","","","","","","",""
"715.6000000238419","","image-keyboard-response","292","399287","0.0-292.0","352YTHGROWZ3OF58FOY57NE55PPH4Z","A1RATFICCKLCQ","3AQN9REUTF20OMGWRXYK787Q1B1YD0","","","img/flower4.png","76","716.5","3","1","3","1","1,0.333,0.333,0.333,1,0.333,0.333,0.333,1","1,0.333,0.333,0.333,1,0.333,0.333,0.333,1","1",""
"null","","html-keyboard-response","293","399604","0.0-293.0","352YTHGROWZ3OF58FOY57NE55PPH4Z","A1RATFICCKLCQ","3AQN9REUTF20OMGWRXYK787Q1B1YD0","","","<img src=""img/flower4.png"" style=""width:200px; border:14px solid green;"">","null","","","","","","","","",""
"637.3000000119209","","image-keyboard-response","294","400243","0.0-294.0","352YTHGROWZ3OF58FOY57NE55PPH4Z","A1RATFICCKLCQ","3AQN9REUTF20OMGWRXYK787Q1B1YD0","","","img/flower4.png","76","638.1999999880791","3","1","3","1","1,0.333,0.333,0.333,1,0.333,0.333,0.333,1","1,0.333,0.333,0.333,1,0.333,0.333,0.333,1","1",""
"null","","html-keyboard-response","295","400544","0.0-295.0","352YTHGROWZ3OF58FOY57NE55PPH4Z","A1RATFICCKLCQ","3AQN9REUTF20OMGWRXYK787Q1B1YD0","","","<img src=""img/flower4.png"" style=""width:200px; border:14px solid green;"">","null","","","","","","","","",""
"770.1999999880791","","image-keyboard-response","296","401315","0.0-296.0","352YTHGROWZ3OF58FOY57NE55PPH4Z","A1RATFICCKLCQ","3AQN9REUTF20OMGWRXYK787Q1B1YD0","","","img/flower1.png","75","770.9000000059605","2","1","2","1","1,0.333,0.333,0.333,1,0.333,0.333,0.333,1","1,0.333,0.333,0.333,1,0.333,0.333,0.333,1","1",""
"null","","html-keyboard-response","297","401627","0.0-297.0","352YTHGROWZ3OF58FOY57NE55PPH4Z","A1RATFICCKLCQ","3AQN9REUTF20OMGWRXYK787Q1B1YD0","","","<img src=""img/flower1.png"" style=""width:200px; border:14px solid green;"">","null","","","","","","","","",""
"760.0999999940395","","image-keyboard-response","298","402388","0.0-298.0","352YTHGROWZ3OF58FOY57NE55PPH4Z","A1RATFICCKLCQ","3AQN9REUTF20OMGWRXYK787Q1B1YD0","","","img/flower3.png","74","761.1000000238419","1","1","1","1","1,0.333,0.333,0.333,1,0.333,0.333,0.333,1","1,0.333,0.333,0.333,1,0.333,0.333,0.333,1","1",""
"null","","html-keyboard-response","299","402693","0.0-299.0","352YTHGROWZ3OF58FOY57NE55PPH4Z","A1RATFICCKLCQ","3AQN9REUTF20OMGWRXYK787Q1B1YD0","","","<img src=""img/flower3.png"" style=""width:200px; border:14px solid green;"">","null","","","","","","","","",""
"910.6999999880791","","image-keyboard-response","300","403605","0.0-300.0","352YTHGROWZ3OF58FOY57NE55PPH4Z","A1RATFICCKLCQ","3AQN9REUTF20OMGWRXYK787Q1B1YD0","","","img/flower4.png","76","911.7999999821186","3","1","3","1","1,0.333,0.333,0.333,1,0.333,0.333,0.333,1","1,0.333,0.333,0.333,1,0.333,0.333,0.333,1","1",""
"null","","html-keyboard-response","301","403922","0.0-301.0","352YTHGROWZ3OF58FOY57NE55PPH4Z","A1RATFICCKLCQ","3AQN9REUTF20OMGWRXYK787Q1B1YD0","","","<img src=""img/flower4.png"" style=""width:200px; border:14px solid green;"">","null","","","","","","","","",""
"609","","image-keyboard-response","302","404532","0.0-302.0","352YTHGROWZ3OF58FOY57NE55PPH4Z","A1RATFICCKLCQ","3AQN9REUTF20OMGWRXYK787Q1B1YD0","","","img/flower4.png","76","610","3","1","3","1","1,0.333,0.333,0.333,1,0.333,0.333,0.333,1","1,0.333,0.333,0.333,1,0.333,0.333,0.333,1","1",""
"null","","html-keyboard-response","303","404837","0.0-303.0","352YTHGROWZ3OF58FOY57NE55PPH4Z","A1RATFICCKLCQ","3AQN9REUTF20OMGWRXYK787Q1B1YD0","","","<img src=""img/flower4.png"" style=""width:200px; border:14px solid green;"">","null","","","","","","","","",""
"733","","image-keyboard-response","304","405571","0.0-304.0","352YTHGROWZ3OF58FOY57NE55PPH4Z","A1RATFICCKLCQ","3AQN9REUTF20OMGWRXYK787Q1B1YD0","","","img/flower3.png","74","733.6000000238419","1","1","1","1","1,0.333,0.333,0.333,1,0.333,0.333,0.333,1","1,0.333,0.333,0.333,1,0.333,0.333,0.333,1","1",""
"null","","html-keyboard-response","305","405878","0.0-305.0","352YTHGROWZ3OF58FOY57NE55PPH4Z","A1RATFICCKLCQ","3AQN9REUTF20OMGWRXYK787Q1B1YD0","","","<img src=""img/flower3.png"" style=""width:200px; border:14px solid green;"">","null","","","","","","","","",""
"","","html-keyboard-response","306","412043","0.0-306.0","352YTHGROWZ3OF58FOY57NE55PPH4Z","A1RATFICCKLCQ","3AQN9REUTF20OMGWRXYK787Q1B1YD0","","","","","","","","","","","","",""
"1367.2999999821186","","image-keyboard-response","307","413411","0.0-307.0","352YTHGROWZ3OF58FOY57NE55PPH4Z","A1RATFICCKLCQ","3AQN9REUTF20OMGWRXYK787Q1B1YD0","","","img/flower2.png","74","1368","1","0","1","2","1,0,0,1,1,0,1,0,1","0,0,1,1,0,1,0,1,1","2",""
"null","","html-keyboard-response","308","413720","0.0-308.0","352YTHGROWZ3OF58FOY57NE55PPH4Z","A1RATFICCKLCQ","3AQN9REUTF20OMGWRXYK787Q1B1YD0","","","<img src=""img/flower2.png"" style=""width:200px;border:14px solid red;"">","null","","","","","","","","",""
"1339.699999988079","","image-keyboard-response","309","415060","0.0-309.0","352YTHGROWZ3OF58FOY57NE55PPH4Z","A1RATFICCKLCQ","3AQN9REUTF20OMGWRXYK787Q1B1YD0","","","img/flower5.png","74","1340.699999988079","1","1","2","2","1,0,0,1,1,0,1,0,1","0,0,1,1,0,1,0,1,1","2",""
"null","","html-keyboard-response","310","415369","0.0-310.0","352YTHGROWZ3OF58FOY57NE55PPH4Z","A1RATFICCKLCQ","3AQN9REUTF20OMGWRXYK787Q1B1YD0","","","<img src=""img/flower5.png"" style=""width:200px; border:14px solid green;"">","null","","","","","","","","",""
"1736.8999999761581","","image-keyboard-response","311","417107","0.0-311.0","352YTHGROWZ3OF58FOY57NE55PPH4Z","A1RATFICCKLCQ","3AQN9REUTF20OMGWRXYK787Q1B1YD0","","","img/flower6.png","76","1737.2999999821186","3","1","3","2","1,0,0,1,1,0,1,0,1","0,0,1,1,0,1,0,1,1","2",""
"null","","html-keyboard-response","312","417416","0.0-312.0","352YTHGROWZ3OF58FOY57NE55PPH4Z","A1RATFICCKLCQ","3AQN9REUTF20OMGWRXYK787Q1B1YD0","","","<img src=""img/flower6.png"" style=""width:200px; border:14px solid green;"">","null","","","","","","","","",""
"1083.199999988079","","image-keyboard-response","313","418500","0.0-313.0","352YTHGROWZ3OF58FOY57NE55PPH4Z","A1RATFICCKLCQ","3AQN9REUTF20OMGWRXYK787Q1B1YD0","","","img/flower5.png","74","1083.9000000059605","1","1","2","2","1,0,0,1,1,0,1,0,1","0,0,1,1,0,1,0,1,1","2",""
"null","","html-keyboard-response","314","418803","0.0-314.0","352YTHGROWZ3OF58FOY57NE55PPH4Z","A1RATFICCKLCQ","3AQN9REUTF20OMGWRXYK787Q1B1YD0","","","<img src=""img/flower5.png"" style=""width:200px; border:14px solid green;"">","null","","","","","","","","",""
"943.1999999880791","","image-keyboard-response","315","419748","0.0-315.0","352YTHGROWZ3OF58FOY57NE55PPH4Z","A1RATFICCKLCQ","3AQN9REUTF20OMGWRXYK787Q1B1YD0","","","img/flower2.png","75","944.0999999940395","2","0","1","2","1,0,0,1,1,0,1,0,1","0,0,1,1,0,1,0,1,1","2",""
"null","","html-keyboard-response","316","420049","0.0-316.0","352YTHGROWZ3OF58FOY57NE55PPH4Z","A1RATFICCKLCQ","3AQN9REUTF20OMGWRXYK787Q1B1YD0","","","<img src=""img/flower2.png"" style=""width:200px;border:14px solid red;"">","null","","","","","","","","",""
"754.0999999940395","","image-keyboard-response","317","420804","0.0-317.0","352YTHGROWZ3OF58FOY57NE55PPH4Z","A1RATFICCKLCQ","3AQN9REUTF20OMGWRXYK787Q1B1YD0","","","img/flower6.png","76","754.8000000119209","3","1","3","2","1,0,0,1,1,0,1,0,1","0,0,1,1,0,1,0,1,1","2",""
"null","","html-keyboard-response","318","421114","0.0-318.0","352YTHGROWZ3OF58FOY57NE55PPH4Z","A1RATFICCKLCQ","3AQN9REUTF20OMGWRXYK787Q1B1YD0","","","<img src=""img/flower6.png"" style=""width:200px; border:14px solid green;"">","null","","","","","","","","",""
"1145.699999988079","","image-keyboard-response","319","422261","0.0-319.0","352YTHGROWZ3OF58FOY57NE55PPH4Z","A1RATFICCKLCQ","3AQN9REUTF20OMGWRXYK787Q1B1YD0","","","img/flower6.png","74","1146.5","1","0","3","2","1,0,0,1,1,0,1,0,1","0,0,1,1,0,1,0,1,1","2",""
"null","","html-keyboard-response","320","422566","0.0-320.0","352YTHGROWZ3OF58FOY57NE55PPH4Z","A1RATFICCKLCQ","3AQN9REUTF20OMGWRXYK787Q1B1YD0","","","<img src=""img/flower6.png"" style=""width:200px;border:14px solid red;"">","null","","","","","","","","",""
"1148.5","","image-keyboard-response","321","423716","0.0-321.0","352YTHGROWZ3OF58FOY57NE55PPH4Z","A1RATFICCKLCQ","3AQN9REUTF20OMGWRXYK787Q1B1YD0","","","img/flower2.png","76","1149.0999999940395","3","1","1","2","1,0,0,1,1,0,1,0,1","0,0,1,1,0,1,0,1,1","2",""
"null","","html-keyboard-response","322","424020","0.0-322.0","352YTHGROWZ3OF58FOY57NE55PPH4Z","A1RATFICCKLCQ","3AQN9REUTF20OMGWRXYK787Q1B1YD0","","","<img src=""img/flower2.png"" style=""width:200px; border:14px solid green;"">","null","","","","","","","","",""
"752.6000000238419","","image-keyboard-response","323","424773","0.0-323.0","352YTHGROWZ3OF58FOY57NE55PPH4Z","A1RATFICCKLCQ","3AQN9REUTF20OMGWRXYK787Q1B1YD0","","","img/flower2.png","76","753.1999999880791","3","1","1","2","1,0,0,1,1,0,1,0,1","0,0,1,1,0,1,0,1,1","2",""
"null","","html-keyboard-response","324","425086","0.0-324.0","352YTHGROWZ3OF58FOY57NE55PPH4Z","A1RATFICCKLCQ","3AQN9REUTF20OMGWRXYK787Q1B1YD0","","","<img src=""img/flower2.png"" style=""width:200px; border:14px solid green;"">","null","","","","","","","","",""
"629.6999999880791","","image-keyboard-response","325","425717","0.0-325.0","352YTHGROWZ3OF58FOY57NE55PPH4Z","A1RATFICCKLCQ","3AQN9REUTF20OMGWRXYK787Q1B1YD0","","","img/flower2.png","76","630.8000000119209","3","1","1","2","1,0,0,1,1,0,1,0,1","0,0,1,1,0,1,0,1,1","2",""
"null","","html-keyboard-response","326","426026","0.0-326.0","352YTHGROWZ3OF58FOY57NE55PPH4Z","A1RATFICCKLCQ","3AQN9REUTF20OMGWRXYK787Q1B1YD0","","","<img src=""img/flower2.png"" style=""width:200px; border:14px solid green;"">","null","","","","","","","","",""
"874","","image-keyboard-response","327","426901","0.0-327.0","352YTHGROWZ3OF58FOY57NE55PPH4Z","A1RATFICCKLCQ","3AQN9REUTF20OMGWRXYK787Q1B1YD0","","","img/flower2.png","76","874.7999999821186","3","1","1","2","1,0,0,1,1,0,1,0,1","0,0,1,1,0,1,0,1,1","2",""
"null","","html-keyboard-response","328","427208","0.0-328.0","352YTHGROWZ3OF58FOY57NE55PPH4Z","A1RATFICCKLCQ","3AQN9REUTF20OMGWRXYK787Q1B1YD0","","","<img src=""img/flower2.png"" style=""width:200px; border:14px solid green;"">","null","","","","","","","","",""
"971.9000000059605","","image-keyboard-response","329","428181","0.0-329.0","352YTHGROWZ3OF58FOY57NE55PPH4Z","A1RATFICCKLCQ","3AQN9REUTF20OMGWRXYK787Q1B1YD0","","","img/flower5.png","74","973","1","1","2","2","1,0,0,1,1,0,1,0,1","0,0,1,1,0,1,0,1,1","2",""
"null","","html-keyboard-response","330","428495","0.0-330.0","352YTHGROWZ3OF58FOY57NE55PPH4Z","A1RATFICCKLCQ","3AQN9REUTF20OMGWRXYK787Q1B1YD0","","","<img src=""img/flower5.png"" style=""width:200px; border:14px solid green;"">","null","","","","","","","","",""
"982.0999999940395","","image-keyboard-response","331","429478","0.0-331.0","352YTHGROWZ3OF58FOY57NE55PPH4Z","A1RATFICCKLCQ","3AQN9REUTF20OMGWRXYK787Q1B1YD0","","","img/flower6.png","76","982.6999999880791","3","1","3","2","1,0,0,1,1,0,1,0,1","0,0,1,1,0,1,0,1,1","2",""
"null","","html-keyboard-response","332","429790","0.0-332.0","352YTHGROWZ3OF58FOY57NE55PPH4Z","A1RATFICCKLCQ","3AQN9REUTF20OMGWRXYK787Q1B1YD0","","","<img src=""img/flower6.png"" style=""width:200px; border:14px solid green;"">","null","","","","","","","","",""
"1029.9000000059605","","image-keyboard-response","333","430821","0.0-333.0","352YTHGROWZ3OF58FOY57NE55PPH4Z","A1RATFICCKLCQ","3AQN9REUTF20OMGWRXYK787Q1B1YD0","","","img/flower5.png","74","1030.800000011921","1","1","2","2","1,0,0,1,1,0,1,0,1","0,0,1,1,0,1,0,1,1","2",""
"null","","html-keyboard-response","334","431128","0.0-334.0","352YTHGROWZ3OF58FOY57NE55PPH4Z","A1RATFICCKLCQ","3AQN9REUTF20OMGWRXYK787Q1B1YD0","","","<img src=""img/flower5.png"" style=""width:200px; border:14px solid green;"">","null","","","","","","","","",""
"907.8000000119209","","image-keyboard-response","335","432038","0.0-335.0","352YTHGROWZ3OF58FOY57NE55PPH4Z","A1RATFICCKLCQ","3AQN9REUTF20OMGWRXYK787Q1B1YD0","","","img/flower5.png","74","909","1","1","2","2","1,0,0,1,1,0,1,0,1","0,0,1,1,0,1,0,1,1","2",""
"null","","html-keyboard-response","336","432341","0.0-336.0","352YTHGROWZ3OF58FOY57NE55PPH4Z","A1RATFICCKLCQ","3AQN9REUTF20OMGWRXYK787Q1B1YD0","","","<img src=""img/flower5.png"" style=""width:200px; border:14px solid green;"">","null","","","","","","","","",""
"784.9000000059605","","image-keyboard-response","337","433126","0.0-337.0","352YTHGROWZ3OF58FOY57NE55PPH4Z","A1RATFICCKLCQ","3AQN9REUTF20OMGWRXYK787Q1B1YD0","","","img/flower2.png","76","785.8000000119209","3","1","1","2","1,0,0,1,1,0,1,0,1","0,0,1,1,0,1,0,1,1","2",""
"null","","html-keyboard-response","338","433440","0.0-338.0","352YTHGROWZ3OF58FOY57NE55PPH4Z","A1RATFICCKLCQ","3AQN9REUTF20OMGWRXYK787Q1B1YD0","","","<img src=""img/flower2.png"" style=""width:200px; border:14px solid green;"">","null","","","","","","","","",""
"850.9000000059605","","image-keyboard-response","339","434292","0.0-339.0","352YTHGROWZ3OF58FOY57NE55PPH4Z","A1RATFICCKLCQ","3AQN9REUTF20OMGWRXYK787Q1B1YD0","","","img/flower5.png","74","851.7999999821186","1","1","2","2","1,0,0,1,1,0,1,0,1","0,0,1,1,0,1,0,1,1","2",""
"null","","html-keyboard-response","340","434605","0.0-340.0","352YTHGROWZ3OF58FOY57NE55PPH4Z","A1RATFICCKLCQ","3AQN9REUTF20OMGWRXYK787Q1B1YD0","","","<img src=""img/flower5.png"" style=""width:200px; border:14px solid green;"">","null","","","","","","","","",""
"887.5","","image-keyboard-response","341","435493","0.0-341.0","352YTHGROWZ3OF58FOY57NE55PPH4Z","A1RATFICCKLCQ","3AQN9REUTF20OMGWRXYK787Q1B1YD0","","","img/flower2.png","76","888.0999999940395","3","1","1","2","1,0,0,1,1,0,1,0,1","0,0,1,1,0,1,0,1,1","2",""
"null","","html-keyboard-response","342","435805","0.0-342.0","352YTHGROWZ3OF58FOY57NE55PPH4Z","A1RATFICCKLCQ","3AQN9REUTF20OMGWRXYK787Q1B1YD0","","","<img src=""img/flower2.png"" style=""width:200px; border:14px solid green;"">","null","","","","","","","","",""
"1110.199999988079","","image-keyboard-response","343","436916","0.0-343.0","352YTHGROWZ3OF58FOY57NE55PPH4Z","A1RATFICCKLCQ","3AQN9REUTF20OMGWRXYK787Q1B1YD0","","","img/flower6.png","76","1111","3","1","3","2","1,0,0,1,1,0,1,0,1","0,0,1,1,0,1,0,1,1","2",""
"null","","html-keyboard-response","344","437231","0.0-344.0","352YTHGROWZ3OF58FOY57NE55PPH4Z","A1RATFICCKLCQ","3AQN9REUTF20OMGWRXYK787Q1B1YD0","","","<img src=""img/flower6.png"" style=""width:200px; border:14px solid green;"">","null","","","","","","","","",""
"868.5999999940395","","image-keyboard-response","345","438101","0.0-345.0","352YTHGROWZ3OF58FOY57NE55PPH4Z","A1RATFICCKLCQ","3AQN9REUTF20OMGWRXYK787Q1B1YD0","","","img/flower6.png","76","869.6999999880791","3","1","3","2","1,0,0,1,1,0,1,0,1","0,0,1,1,0,1,0,1,1","2",""
"null","","html-keyboard-response","346","438417","0.0-346.0","352YTHGROWZ3OF58FOY57NE55PPH4Z","A1RATFICCKLCQ","3AQN9REUTF20OMGWRXYK787Q1B1YD0","","","<img src=""img/flower6.png"" style=""width:200px; border:14px solid green;"">","null","","","","","","","","",""
"658.3000000119209","","image-keyboard-response","347","439076","0.0-347.0","352YTHGROWZ3OF58FOY57NE55PPH4Z","A1RATFICCKLCQ","3AQN9REUTF20OMGWRXYK787Q1B1YD0","","","img/flower6.png","76","659.2000000178814","3","1","3","2","1,0,0,1,1,0,1,0,1","0,0,1,1,0,1,0,1,1","2",""
"null","","html-keyboard-response","348","439380","0.0-348.0","352YTHGROWZ3OF58FOY57NE55PPH4Z","A1RATFICCKLCQ","3AQN9REUTF20OMGWRXYK787Q1B1YD0","","","<img src=""img/flower6.png"" style=""width:200px; border:14px solid green;"">","null","","","","","","","","",""
"1552.0999999940395","","image-keyboard-response","349","440933","0.0-349.0","352YTHGROWZ3OF58FOY57NE55PPH4Z","A1RATFICCKLCQ","3AQN9REUTF20OMGWRXYK787Q1B1YD0","","","img/flower5.png","76","1552.8999999761581","3","1","2","2","1,0,0,1,1,0,1,0,1","0,0,1,1,0,1,0,1,1","2",""
"null","","html-keyboard-response","350","441257","0.0-350.0","352YTHGROWZ3OF58FOY57NE55PPH4Z","A1RATFICCKLCQ","3AQN9REUTF20OMGWRXYK787Q1B1YD0","","","<img src=""img/flower5.png"" style=""width:200px; border:14px solid green;"">","null","","","","","","","","",""
"651.1999999880791","","image-keyboard-response","351","441909","0.0-351.0","352YTHGROWZ3OF58FOY57NE55PPH4Z","A1RATFICCKLCQ","3AQN9REUTF20OMGWRXYK787Q1B1YD0","","","img/flower5.png","76","652.0999999940395","3","1","2","2","1,0,0,1,1,0,1,0,1","0,0,1,1,0,1,0,1,1","2",""
"null","","html-keyboard-response","352","442216","0.0-352.0","352YTHGROWZ3OF58FOY57NE55PPH4Z","A1RATFICCKLCQ","3AQN9REUTF20OMGWRXYK787Q1B1YD0","","","<img src=""img/flower5.png"" style=""width:200px; border:14px solid green;"">","null","","","","","","","","",""
"939.7000000178814","","image-keyboard-response","353","443157","0.0-353.0","352YTHGROWZ3OF58FOY57NE55PPH4Z","A1RATFICCKLCQ","3AQN9REUTF20OMGWRXYK787Q1B1YD0","","","img/flower6.png","76","940.5999999940395","3","1","3","2","1,0,0,1,1,0,1,0,1","0,0,1,1,0,1,0,1,1","2",""
"null","","html-keyboard-response","354","443470","0.0-354.0","352YTHGROWZ3OF58FOY57NE55PPH4Z","A1RATFICCKLCQ","3AQN9REUTF20OMGWRXYK787Q1B1YD0","","","<img src=""img/flower6.png"" style=""width:200px; border:14px solid green;"">","null","","","","","","","","",""
"1109.7999999821186","","image-keyboard-response","355","444581","0.0-355.0","352YTHGROWZ3OF58FOY57NE55PPH4Z","A1RATFICCKLCQ","3AQN9REUTF20OMGWRXYK787Q1B1YD0","","","img/flower2.png","76","1110.699999988079","3","1","1","2","1,0,0,1,1,0,1,0,1","0,0,1,1,0,1,0,1,1","2",""
"null","","html-keyboard-response","356","444893","0.0-356.0","352YTHGROWZ3OF58FOY57NE55PPH4Z","A1RATFICCKLCQ","3AQN9REUTF20OMGWRXYK787Q1B1YD0","","","<img src=""img/flower2.png"" style=""width:200px; border:14px solid green;"">","null","","","","","","","","",""
"1398.199999988079","","image-keyboard-response","357","446293","0.0-357.0","352YTHGROWZ3OF58FOY57NE55PPH4Z","A1RATFICCKLCQ","3AQN9REUTF20OMGWRXYK787Q1B1YD0","","","img/flower5.png","76","1399.2000000178814","3","1","2","2","1,0,0,1,1,0,1,0,1","0,0,1,1,0,1,0,1,1","2",""
"null","","html-keyboard-response","358","446606","0.0-358.0","352YTHGROWZ3OF58FOY57NE55PPH4Z","A1RATFICCKLCQ","3AQN9REUTF20OMGWRXYK787Q1B1YD0","","","<img src=""img/flower5.png"" style=""width:200px; border:14px solid green;"">","null","","","","","","","","",""
"772.9000000059605","","image-keyboard-response","359","447380","0.0-359.0","352YTHGROWZ3OF58FOY57NE55PPH4Z","A1RATFICCKLCQ","3AQN9REUTF20OMGWRXYK787Q1B1YD0","","","img/flower6.png","76","773.8000000119209","3","1","3","2","1,0,0,1,1,0,1,0,1","0,0,1,1,0,1,0,1,1","2",""
"null","","html-keyboard-response","360","447694","0.0-360.0","352YTHGROWZ3OF58FOY57NE55PPH4Z","A1RATFICCKLCQ","3AQN9REUTF20OMGWRXYK787Q1B1YD0","","","<img src=""img/flower6.png"" style=""width:200px; border:14px solid green;"">","null","","","","","","","","",""
"772.8000000119209","","image-keyboard-response","361","448468","0.0-361.0","352YTHGROWZ3OF58FOY57NE55PPH4Z","A1RATFICCKLCQ","3AQN9REUTF20OMGWRXYK787Q1B1YD0","","","img/flower2.png","76","773.5999999940395","3","1","1","2","1,0,0,1,1,0,1,0,1","0,0,1,1,0,1,0,1,1","2",""
"null","","html-keyboard-response","362","448776","0.0-362.0","352YTHGROWZ3OF58FOY57NE55PPH4Z","A1RATFICCKLCQ","3AQN9REUTF20OMGWRXYK787Q1B1YD0","","","<img src=""img/flower2.png"" style=""width:200px; border:14px solid green;"">","null","","","","","","","","",""
"843.5999999940395","","image-keyboard-response","363","449620","0.0-363.0","352YTHGROWZ3OF58FOY57NE55PPH4Z","A1RATFICCKLCQ","3AQN9REUTF20OMGWRXYK787Q1B1YD0","","","img/flower5.png","76","844.2999999821186","3","1","2","2","1,0,0,1,1,0,1,0,1","0,0,1,1,0,1,0,1,1","2",""
"null","","html-keyboard-response","364","449925","0.0-364.0","352YTHGROWZ3OF58FOY57NE55PPH4Z","A1RATFICCKLCQ","3AQN9REUTF20OMGWRXYK787Q1B1YD0","","","<img src=""img/flower5.png"" style=""width:200px; border:14px solid green;"">","null","","","","","","","","",""
"798","","image-keyboard-response","365","450724","0.0-365.0","352YTHGROWZ3OF58FOY57NE55PPH4Z","A1RATFICCKLCQ","3AQN9REUTF20OMGWRXYK787Q1B1YD0","","","img/flower6.png","76","799","3","1","3","2","1,0,0,1,1,0,1,0,1","0,0,1,1,0,1,0,1,1","2",""
"null","","html-keyboard-response","366","451026","0.0-366.0","352YTHGROWZ3OF58FOY57NE55PPH4Z","A1RATFICCKLCQ","3AQN9REUTF20OMGWRXYK787Q1B1YD0","","","<img src=""img/flower6.png"" style=""width:200px; border:14px solid green;"">","null","","","","","","","","",""
"658.2000000178814","","image-keyboard-response","367","451685","0.0-367.0","352YTHGROWZ3OF58FOY57NE55PPH4Z","A1RATFICCKLCQ","3AQN9REUTF20OMGWRXYK787Q1B1YD0","","","img/flower2.png","76","659","3","1","1","2","1,0,0,1,1,0,1,0,1","0,0,1,1,0,1,0,1,1","2",""
"null","","html-keyboard-response","368","451997","0.0-368.0","352YTHGROWZ3OF58FOY57NE55PPH4Z","A1RATFICCKLCQ","3AQN9REUTF20OMGWRXYK787Q1B1YD0","","","<img src=""img/flower2.png"" style=""width:200px; border:14px solid green;"">","null","","","","","","","","",""
