"success","trial_type","trial_index","time_elapsed","internal_node_id","assignmentID","mturkID","hitID","view_history","rt","stimulus","key_press","reactionTime","a","r","s","cond","reward_cond","reward_cond_actual","reward_matrix_idx","responses"
"true","fullscreen","0","8945","0.0-0.0","3YT88D1N09K989NCLVWJAA2RKY53KX","A1ROEDVMTO9Y3X","3UDTAB6HH6LRO17U79I9TKUGYFV09C","","","","","","","","","","","","",""
"","instructions","1","24792","0.0-1.0","3YT88D1N09K989NCLVWJAA2RKY53KX","A1ROEDVMTO9Y3X","3UDTAB6HH6LRO17U79I9TKUGYFV09C","[{""page_index"":0,""viewing_time"":2500.2999999970198},{""page_index"":1,""viewing_time"":3671.8999999910593},{""page_index"":2,""viewing_time"":792.9000000059605},{""page_index"":3,""viewing_time"":2495.0999999940395},{""page_index"":4,""viewing_time"":1160.2000000029802},{""page_index"":5,""viewing_time"":2167.7000000029802},{""page_index"":6,""viewing_time"":1776.4000000059605},{""page_index"":7,""viewing_time"":1279.5999999940395}]","15844.29999999702","","","","","","","","","","",""
"","image-keyboard-response","2","25401","0.0-2.0","3YT88D1N09K989NCLVWJAA2RKY53KX","A1ROEDVMTO9Y3X","3UDTAB6HH6LRO17U79I9TKUGYFV09C","","606.9000000059605","img/flower5.png","74","608.4000000059605","1","0","1","2","1,0,0,1,1,0,1,0,1","0,0,1,1,0,1,0,1,1","2",""
"","html-keyboard-response","3","25707","0.0-3.0","3YT88D1N09K989NCLVWJAA2RKY53KX","A1ROEDVMTO9Y3X","3UDTAB6HH6LRO17U79I9TKUGYFV09C","","null","<img src=""img/flower5.png"" style=""width:200px;border:14px solid red;"">","null","","","","","","","","",""
"","image-keyboard-response","4","25895","0.0-4.0","3YT88D1N09K989NCLVWJAA2RKY53KX","A1ROEDVMTO9Y3X","3UDTAB6HH6LRO17U79I9TKUGYFV09C","","187","img/flower4.png","75","188.19999998807907","2","0","2","2","1,0,0,1,1,0,1,0,1","0,0,1,1,0,1,0,1,1","2",""
"","html-keyboard-response","5","26208","0.0-5.0","3YT88D1N09K989NCLVWJAA2RKY53KX","A1ROEDVMTO9Y3X","3UDTAB6HH6LRO17U79I9TKUGYFV09C","","null","<img src=""img/flower4.png"" style=""width:200px;border:14px solid red;"">","null","","","","","","","","",""
"","image-keyboard-response","6","26402","0.0-6.0","3YT88D1N09K989NCLVWJAA2RKY53KX","A1ROEDVMTO9Y3X","3UDTAB6HH6LRO17U79I9TKUGYFV09C","","191.79999999701977","img/flower5.png","76","193","3","1","1","2","1,0,0,1,1,0,1,0,1","0,0,1,1,0,1,0,1,1","2",""
"","html-keyboard-response","7","26706","0.0-7.0","3YT88D1N09K989NCLVWJAA2RKY53KX","A1ROEDVMTO9Y3X","3UDTAB6HH6LRO17U79I9TKUGYFV09C","","null","<img src=""img/flower5.png"" style=""width:200px; border:14px solid green;"">","null","","","","","","","","",""
"","image-keyboard-response","8","27052","0.0-8.0","3YT88D1N09K989NCLVWJAA2RKY53KX","A1ROEDVMTO9Y3X","3UDTAB6HH6LRO17U79I9TKUGYFV09C","","343.80000001192093","img/flower5.png","76","345.20000000298023","3","1","1","2","1,0,0,1,1,0,1,0,1","0,0,1,1,0,1,0,1,1","2",""
"","html-keyboard-response","9","27356","0.0-9.0","3YT88D1N09K989NCLVWJAA2RKY53KX","A1ROEDVMTO9Y3X","3UDTAB6HH6LRO17U79I9TKUGYFV09C","","null","<img src=""img/flower5.png"" style=""width:200px; border:14px solid green;"">","null","","","","","","","","",""
"","image-keyboard-response","10","27862","0.0-10.0","3YT88D1N09K989NCLVWJAA2RKY53KX","A1ROEDVMTO9Y3X","3UDTAB6HH6LRO17U79I9TKUGYFV09C","","504.80000001192093","img/flower3.png","76","506","3","1","3","2","1,0,0,1,1,0,1,0,1","0,0,1,1,0,1,0,1,1","2",""
"","html-keyboard-response","11","28167","0.0-11.0","3YT88D1N09K989NCLVWJAA2RKY53KX","A1ROEDVMTO9Y3X","3UDTAB6HH6LRO17U79I9TKUGYFV09C","","null","<img src=""img/flower3.png"" style=""width:200px; border:14px solid green;"">","null","","","","","","","","",""
"","image-keyboard-response","12","28566","0.0-12.0","3YT88D1N09K989NCLVWJAA2RKY53KX","A1ROEDVMTO9Y3X","3UDTAB6HH6LRO17U79I9TKUGYFV09C","","397.70000000298023","img/flower5.png","76","398.5","3","1","1","2","1,0,0,1,1,0,1,0,1","0,0,1,1,0,1,0,1,1","2",""
"","html-keyboard-response","13","28871","0.0-13.0","3YT88D1N09K989NCLVWJAA2RKY53KX","A1ROEDVMTO9Y3X","3UDTAB6HH6LRO17U79I9TKUGYFV09C","","null","<img src=""img/flower5.png"" style=""width:200px; border:14px solid green;"">","null","","","","","","","","",""
"","image-keyboard-response","14","29313","0.0-14.0","3YT88D1N09K989NCLVWJAA2RKY53KX","A1ROEDVMTO9Y3X","3UDTAB6HH6LRO17U79I9TKUGYFV09C","","441.40000000596046","img/flower3.png","76","442.09999999403954","3","1","3","2","1,0,0,1,1,0,1,0,1","0,0,1,1,0,1,0,1,1","2",""
"","html-keyboard-response","15","29616","0.0-15.0","3YT88D1N09K989NCLVWJAA2RKY53KX","A1ROEDVMTO9Y3X","3UDTAB6HH6LRO17U79I9TKUGYFV09C","","null","<img src=""img/flower3.png"" style=""width:200px; border:14px solid green;"">","null","","","","","","","","",""
"","image-keyboard-response","16","29993","0.0-16.0","3YT88D1N09K989NCLVWJAA2RKY53KX","A1ROEDVMTO9Y3X","3UDTAB6HH6LRO17U79I9TKUGYFV09C","","376.29999999701977","img/flower5.png","76","377","3","1","1","2","1,0,0,1,1,0,1,0,1","0,0,1,1,0,1,0,1,1","2",""
"","html-keyboard-response","17","30296","0.0-17.0","3YT88D1N09K989NCLVWJAA2RKY53KX","A1ROEDVMTO9Y3X","3UDTAB6HH6LRO17U79I9TKUGYFV09C","","null","<img src=""img/flower5.png"" style=""width:200px; border:14px solid green;"">","null","","","","","","","","",""
"","image-keyboard-response","18","30850","0.0-18.0","3YT88D1N09K989NCLVWJAA2RKY53KX","A1ROEDVMTO9Y3X","3UDTAB6HH6LRO17U79I9TKUGYFV09C","","553.2000000029802","img/flower5.png","74","554.2000000029802","1","0","1","2","1,0,0,1,1,0,1,0,1","0,0,1,1,0,1,0,1,1","2",""
"","html-keyboard-response","19","31152","0.0-19.0","3YT88D1N09K989NCLVWJAA2RKY53KX","A1ROEDVMTO9Y3X","3UDTAB6HH6LRO17U79I9TKUGYFV09C","","null","<img src=""img/flower5.png"" style=""width:200px;border:14px solid red;"">","null","","","","","","","","",""
"","image-keyboard-response","20","31519","0.0-20.0","3YT88D1N09K989NCLVWJAA2RKY53KX","A1ROEDVMTO9Y3X","3UDTAB6HH6LRO17U79I9TKUGYFV09C","","366.29999999701977","img/flower3.png","75","367.29999999701977","2","1","3","2","1,0,0,1,1,0,1,0,1","0,0,1,1,0,1,0,1,1","2",""
"","html-keyboard-response","21","31822","0.0-21.0","3YT88D1N09K989NCLVWJAA2RKY53KX","A1ROEDVMTO9Y3X","3UDTAB6HH6LRO17U79I9TKUGYFV09C","","null","<img src=""img/flower3.png"" style=""width:200px; border:14px solid green;"">","null","","","","","","","","",""
"","image-keyboard-response","22","32185","0.0-22.0","3YT88D1N09K989NCLVWJAA2RKY53KX","A1ROEDVMTO9Y3X","3UDTAB6HH6LRO17U79I9TKUGYFV09C","","362.29999999701977","img/flower4.png","75","363","2","0","2","2","1,0,0,1,1,0,1,0,1","0,0,1,1,0,1,0,1,1","2",""
"","html-keyboard-response","23","32487","0.0-23.0","3YT88D1N09K989NCLVWJAA2RKY53KX","A1ROEDVMTO9Y3X","3UDTAB6HH6LRO17U79I9TKUGYFV09C","","null","<img src=""img/flower4.png"" style=""width:200px;border:14px solid red;"">","null","","","","","","","","",""
"","image-keyboard-response","24","32884","0.0-24.0","3YT88D1N09K989NCLVWJAA2RKY53KX","A1ROEDVMTO9Y3X","3UDTAB6HH6LRO17U79I9TKUGYFV09C","","395.3999999910593","img/flower5.png","76","396.40000000596046","3","1","1","2","1,0,0,1,1,0,1,0,1","0,0,1,1,0,1,0,1,1","2",""
"","html-keyboard-response","25","33186","0.0-25.0","3YT88D1N09K989NCLVWJAA2RKY53KX","A1ROEDVMTO9Y3X","3UDTAB6HH6LRO17U79I9TKUGYFV09C","","null","<img src=""img/flower5.png"" style=""width:200px; border:14px solid green;"">","null","","","","","","","","",""
"","image-keyboard-response","26","33548","0.0-26.0","3YT88D1N09K989NCLVWJAA2RKY53KX","A1ROEDVMTO9Y3X","3UDTAB6HH6LRO17U79I9TKUGYFV09C","","360.29999999701977","img/flower4.png","76","361.5","3","1","2","2","1,0,0,1,1,0,1,0,1","0,0,1,1,0,1,0,1,1","2",""
"","html-keyboard-response","27","33850","0.0-27.0","3YT88D1N09K989NCLVWJAA2RKY53KX","A1ROEDVMTO9Y3X","3UDTAB6HH6LRO17U79I9TKUGYFV09C","","null","<img src=""img/flower4.png"" style=""width:200px; border:14px solid green;"">","null","","","","","","","","",""
"","image-keyboard-response","28","34279","0.0-28.0","3YT88D1N09K989NCLVWJAA2RKY53KX","A1ROEDVMTO9Y3X","3UDTAB6HH6LRO17U79I9TKUGYFV09C","","427","img/flower3.png","76","428.19999998807907","3","1","3","2","1,0,0,1,1,0,1,0,1","0,0,1,1,0,1,0,1,1","2",""
"","html-keyboard-response","29","34592","0.0-29.0","3YT88D1N09K989NCLVWJAA2RKY53KX","A1ROEDVMTO9Y3X","3UDTAB6HH6LRO17U79I9TKUGYFV09C","","null","<img src=""img/flower3.png"" style=""width:200px; border:14px solid green;"">","null","","","","","","","","",""
"","image-keyboard-response","30","35013","0.0-30.0","3YT88D1N09K989NCLVWJAA2RKY53KX","A1ROEDVMTO9Y3X","3UDTAB6HH6LRO17U79I9TKUGYFV09C","","419.5","img/flower5.png","76","420.79999999701977","3","1","1","2","1,0,0,1,1,0,1,0,1","0,0,1,1,0,1,0,1,1","2",""
"","html-keyboard-response","31","35315","0.0-31.0","3YT88D1N09K989NCLVWJAA2RKY53KX","A1ROEDVMTO9Y3X","3UDTAB6HH6LRO17U79I9TKUGYFV09C","","null","<img src=""img/flower5.png"" style=""width:200px; border:14px solid green;"">","null","","","","","","","","",""
"","image-keyboard-response","32","35773","0.0-32.0","3YT88D1N09K989NCLVWJAA2RKY53KX","A1ROEDVMTO9Y3X","3UDTAB6HH6LRO17U79I9TKUGYFV09C","","457.1000000089407","img/flower4.png","76","458.20000000298023","3","1","2","2","1,0,0,1,1,0,1,0,1","0,0,1,1,0,1,0,1,1","2",""
"","html-keyboard-response","33","36075","0.0-33.0","3YT88D1N09K989NCLVWJAA2RKY53KX","A1ROEDVMTO9Y3X","3UDTAB6HH6LRO17U79I9TKUGYFV09C","","null","<img src=""img/flower4.png"" style=""width:200px; border:14px solid green;"">","null","","","","","","","","",""
"","image-keyboard-response","34","36448","0.0-34.0","3YT88D1N09K989NCLVWJAA2RKY53KX","A1ROEDVMTO9Y3X","3UDTAB6HH6LRO17U79I9TKUGYFV09C","","371.59999999403954","img/flower4.png","76","372.79999999701977","3","1","2","2","1,0,0,1,1,0,1,0,1","0,0,1,1,0,1,0,1,1","2",""
"","html-keyboard-response","35","36750","0.0-35.0","3YT88D1N09K989NCLVWJAA2RKY53KX","A1ROEDVMTO9Y3X","3UDTAB6HH6LRO17U79I9TKUGYFV09C","","null","<img src=""img/flower4.png"" style=""width:200px; border:14px solid green;"">","null","","","","","","","","",""
"","image-keyboard-response","36","37139","0.0-36.0","3YT88D1N09K989NCLVWJAA2RKY53KX","A1ROEDVMTO9Y3X","3UDTAB6HH6LRO17U79I9TKUGYFV09C","","387.29999999701977","img/flower5.png","76","387.90000000596046","3","1","1","2","1,0,0,1,1,0,1,0,1","0,0,1,1,0,1,0,1,1","2",""
"","html-keyboard-response","37","37440","0.0-37.0","3YT88D1N09K989NCLVWJAA2RKY53KX","A1ROEDVMTO9Y3X","3UDTAB6HH6LRO17U79I9TKUGYFV09C","","null","<img src=""img/flower5.png"" style=""width:200px; border:14px solid green;"">","null","","","","","","","","",""
"","image-keyboard-response","38","37817","0.0-38.0","3YT88D1N09K989NCLVWJAA2RKY53KX","A1ROEDVMTO9Y3X","3UDTAB6HH6LRO17U79I9TKUGYFV09C","","376.5","img/flower4.png","76","377.20000000298023","3","1","2","2","1,0,0,1,1,0,1,0,1","0,0,1,1,0,1,0,1,1","2",""
"","html-keyboard-response","39","38118","0.0-39.0","3YT88D1N09K989NCLVWJAA2RKY53KX","A1ROEDVMTO9Y3X","3UDTAB6HH6LRO17U79I9TKUGYFV09C","","null","<img src=""img/flower4.png"" style=""width:200px; border:14px solid green;"">","null","","","","","","","","",""
"","image-keyboard-response","40","38515","0.0-40.0","3YT88D1N09K989NCLVWJAA2RKY53KX","A1ROEDVMTO9Y3X","3UDTAB6HH6LRO17U79I9TKUGYFV09C","","395.3999999910593","img/flower5.png","76","396.40000000596046","3","1","1","2","1,0,0,1,1,0,1,0,1","0,0,1,1,0,1,0,1,1","2",""
"","html-keyboard-response","41","38817","0.0-41.0","3YT88D1N09K989NCLVWJAA2RKY53KX","A1ROEDVMTO9Y3X","3UDTAB6HH6LRO17U79I9TKUGYFV09C","","null","<img src=""img/flower5.png"" style=""width:200px; border:14px solid green;"">","null","","","","","","","","",""
"","image-keyboard-response","42","39250","0.0-42.0","3YT88D1N09K989NCLVWJAA2RKY53KX","A1ROEDVMTO9Y3X","3UDTAB6HH6LRO17U79I9TKUGYFV09C","","431.20000000298023","img/flower4.png","76","432.5","3","1","2","2","1,0,0,1,1,0,1,0,1","0,0,1,1,0,1,0,1,1","2",""
"","html-keyboard-response","43","39553","0.0-43.0","3YT88D1N09K989NCLVWJAA2RKY53KX","A1ROEDVMTO9Y3X","3UDTAB6HH6LRO17U79I9TKUGYFV09C","","null","<img src=""img/flower4.png"" style=""width:200px; border:14px solid green;"">","null","","","","","","","","",""
"","image-keyboard-response","44","39813","0.0-44.0","3YT88D1N09K989NCLVWJAA2RKY53KX","A1ROEDVMTO9Y3X","3UDTAB6HH6LRO17U79I9TKUGYFV09C","","259.29999999701977","img/flower5.png","75","260.5","2","0","1","2","1,0,0,1,1,0,1,0,1","0,0,1,1,0,1,0,1,1","2",""
"","html-keyboard-response","45","40115","0.0-45.0","3YT88D1N09K989NCLVWJAA2RKY53KX","A1ROEDVMTO9Y3X","3UDTAB6HH6LRO17U79I9TKUGYFV09C","","null","<img src=""img/flower5.png"" style=""width:200px;border:14px solid red;"">","null","","","","","","","","",""
"","image-keyboard-response","46","40440","0.0-46.0","3YT88D1N09K989NCLVWJAA2RKY53KX","A1ROEDVMTO9Y3X","3UDTAB6HH6LRO17U79I9TKUGYFV09C","","324.09999999403954","img/flower4.png","74","324.90000000596046","1","1","2","2","1,0,0,1,1,0,1,0,1","0,0,1,1,0,1,0,1,1","2",""
"","html-keyboard-response","47","40743","0.0-47.0","3YT88D1N09K989NCLVWJAA2RKY53KX","A1ROEDVMTO9Y3X","3UDTAB6HH6LRO17U79I9TKUGYFV09C","","null","<img src=""img/flower4.png"" style=""width:200px; border:14px solid green;"">","null","","","","","","","","",""
"","image-keyboard-response","48","41154","0.0-48.0","3YT88D1N09K989NCLVWJAA2RKY53KX","A1ROEDVMTO9Y3X","3UDTAB6HH6LRO17U79I9TKUGYFV09C","","410.29999999701977","img/flower5.png","74","411.5","1","0","1","2","1,0,0,1,1,0,1,0,1","0,0,1,1,0,1,0,1,1","2",""
"","html-keyboard-response","49","41456","0.0-49.0","3YT88D1N09K989NCLVWJAA2RKY53KX","A1ROEDVMTO9Y3X","3UDTAB6HH6LRO17U79I9TKUGYFV09C","","null","<img src=""img/flower5.png"" style=""width:200px;border:14px solid red;"">","null","","","","","","","","",""
"","image-keyboard-response","50","41743","0.0-50.0","3YT88D1N09K989NCLVWJAA2RKY53KX","A1ROEDVMTO9Y3X","3UDTAB6HH6LRO17U79I9TKUGYFV09C","","286.19999998807907","img/flower4.png","76","286.70000000298023","3","1","2","2","1,0,0,1,1,0,1,0,1","0,0,1,1,0,1,0,1,1","2",""
"","html-keyboard-response","51","42044","0.0-51.0","3YT88D1N09K989NCLVWJAA2RKY53KX","A1ROEDVMTO9Y3X","3UDTAB6HH6LRO17U79I9TKUGYFV09C","","null","<img src=""img/flower4.png"" style=""width:200px; border:14px solid green;"">","null","","","","","","","","",""
"","image-keyboard-response","52","42402","0.0-52.0","3YT88D1N09K989NCLVWJAA2RKY53KX","A1ROEDVMTO9Y3X","3UDTAB6HH6LRO17U79I9TKUGYFV09C","","356.29999999701977","img/flower5.png","76","357.5","3","1","1","2","1,0,0,1,1,0,1,0,1","0,0,1,1,0,1,0,1,1","2",""
"","html-keyboard-response","53","42705","0.0-53.0","3YT88D1N09K989NCLVWJAA2RKY53KX","A1ROEDVMTO9Y3X","3UDTAB6HH6LRO17U79I9TKUGYFV09C","","null","<img src=""img/flower5.png"" style=""width:200px; border:14px solid green;"">","null","","","","","","","","",""
"","image-keyboard-response","54","43079","0.0-54.0","3YT88D1N09K989NCLVWJAA2RKY53KX","A1ROEDVMTO9Y3X","3UDTAB6HH6LRO17U79I9TKUGYFV09C","","372.90000000596046","img/flower4.png","76","373.5","3","1","2","2","1,0,0,1,1,0,1,0,1","0,0,1,1,0,1,0,1,1","2",""
"","html-keyboard-response","55","43393","0.0-55.0","3YT88D1N09K989NCLVWJAA2RKY53KX","A1ROEDVMTO9Y3X","3UDTAB6HH6LRO17U79I9TKUGYFV09C","","null","<img src=""img/flower4.png"" style=""width:200px; border:14px solid green;"">","null","","","","","","","","",""
"","image-keyboard-response","56","43733","0.0-56.0","3YT88D1N09K989NCLVWJAA2RKY53KX","A1ROEDVMTO9Y3X","3UDTAB6HH6LRO17U79I9TKUGYFV09C","","338.70000000298023","img/flower3.png","76","339.90000000596046","3","1","3","2","1,0,0,1,1,0,1,0,1","0,0,1,1,0,1,0,1,1","2",""
"","html-keyboard-response","57","44036","0.0-57.0","3YT88D1N09K989NCLVWJAA2RKY53KX","A1ROEDVMTO9Y3X","3UDTAB6HH6LRO17U79I9TKUGYFV09C","","null","<img src=""img/flower3.png"" style=""width:200px; border:14px solid green;"">","null","","","","","","","","",""
"","image-keyboard-response","58","44348","0.0-58.0","3YT88D1N09K989NCLVWJAA2RKY53KX","A1ROEDVMTO9Y3X","3UDTAB6HH6LRO17U79I9TKUGYFV09C","","311.59999999403954","img/flower4.png","76","312.29999999701977","3","1","2","2","1,0,0,1,1,0,1,0,1","0,0,1,1,0,1,0,1,1","2",""
"","html-keyboard-response","59","44650","0.0-59.0","3YT88D1N09K989NCLVWJAA2RKY53KX","A1ROEDVMTO9Y3X","3UDTAB6HH6LRO17U79I9TKUGYFV09C","","null","<img src=""img/flower4.png"" style=""width:200px; border:14px solid green;"">","null","","","","","","","","",""
"","image-keyboard-response","60","44946","0.0-60.0","3YT88D1N09K989NCLVWJAA2RKY53KX","A1ROEDVMTO9Y3X","3UDTAB6HH6LRO17U79I9TKUGYFV09C","","295.29999999701977","img/flower5.png","76","296.20000000298023","3","1","1","2","1,0,0,1,1,0,1,0,1","0,0,1,1,0,1,0,1,1","2",""
"","html-keyboard-response","61","45248","0.0-61.0","3YT88D1N09K989NCLVWJAA2RKY53KX","A1ROEDVMTO9Y3X","3UDTAB6HH6LRO17U79I9TKUGYFV09C","","null","<img src=""img/flower5.png"" style=""width:200px; border:14px solid green;"">","null","","","","","","","","",""
"","image-keyboard-response","62","45568","0.0-62.0","3YT88D1N09K989NCLVWJAA2RKY53KX","A1ROEDVMTO9Y3X","3UDTAB6HH6LRO17U79I9TKUGYFV09C","","318.70000000298023","img/flower3.png","76","319.90000000596046","3","1","3","2","1,0,0,1,1,0,1,0,1","0,0,1,1,0,1,0,1,1","2",""
"","html-keyboard-response","63","45870","0.0-63.0","3YT88D1N09K989NCLVWJAA2RKY53KX","A1ROEDVMTO9Y3X","3UDTAB6HH6LRO17U79I9TKUGYFV09C","","null","<img src=""img/flower3.png"" style=""width:200px; border:14px solid green;"">","null","","","","","","","","",""
"","image-keyboard-response","64","46224","0.0-64.0","3YT88D1N09K989NCLVWJAA2RKY53KX","A1ROEDVMTO9Y3X","3UDTAB6HH6LRO17U79I9TKUGYFV09C","","352.5","img/flower3.png","76","353.20000000298023","3","1","3","2","1,0,0,1,1,0,1,0,1","0,0,1,1,0,1,0,1,1","2",""
"","html-keyboard-response","65","46527","0.0-65.0","3YT88D1N09K989NCLVWJAA2RKY53KX","A1ROEDVMTO9Y3X","3UDTAB6HH6LRO17U79I9TKUGYFV09C","","null","<img src=""img/flower3.png"" style=""width:200px; border:14px solid green;"">","null","","","","","","","","",""
"","image-keyboard-response","66","46782","0.0-66.0","3YT88D1N09K989NCLVWJAA2RKY53KX","A1ROEDVMTO9Y3X","3UDTAB6HH6LRO17U79I9TKUGYFV09C","","253.59999999403954","img/flower5.png","76","254.90000000596046","3","1","1","2","1,0,0,1,1,0,1,0,1","0,0,1,1,0,1,0,1,1","2",""
"","html-keyboard-response","67","47084","0.0-67.0","3YT88D1N09K989NCLVWJAA2RKY53KX","A1ROEDVMTO9Y3X","3UDTAB6HH6LRO17U79I9TKUGYFV09C","","null","<img src=""img/flower5.png"" style=""width:200px; border:14px solid green;"">","null","","","","","","","","",""
"","image-keyboard-response","68","47585","0.0-68.0","3YT88D1N09K989NCLVWJAA2RKY53KX","A1ROEDVMTO9Y3X","3UDTAB6HH6LRO17U79I9TKUGYFV09C","","499.5","img/flower3.png","76","500.70000000298023","3","1","3","2","1,0,0,1,1,0,1,0,1","0,0,1,1,0,1,0,1,1","2",""
"","html-keyboard-response","69","47887","0.0-69.0","3YT88D1N09K989NCLVWJAA2RKY53KX","A1ROEDVMTO9Y3X","3UDTAB6HH6LRO17U79I9TKUGYFV09C","","null","<img src=""img/flower3.png"" style=""width:200px; border:14px solid green;"">","null","","","","","","","","",""
"","image-keyboard-response","70","48780","0.0-70.0","3YT88D1N09K989NCLVWJAA2RKY53KX","A1ROEDVMTO9Y3X","3UDTAB6HH6LRO17U79I9TKUGYFV09C","","892","img/flower3.png","74","892.6999999880791","1","0","3","2","1,0,0,1,1,0,1,0,1","0,0,1,1,0,1,0,1,1","2",""
"","html-keyboard-response","71","49081","0.0-71.0","3YT88D1N09K989NCLVWJAA2RKY53KX","A1ROEDVMTO9Y3X","3UDTAB6HH6LRO17U79I9TKUGYFV09C","","null","<img src=""img/flower3.png"" style=""width:200px;border:14px solid red;"">","null","","","","","","","","",""
"","image-keyboard-response","72","49587","0.0-72.0","3YT88D1N09K989NCLVWJAA2RKY53KX","A1ROEDVMTO9Y3X","3UDTAB6HH6LRO17U79I9TKUGYFV09C","","504","img/flower4.png","76","505.29999999701977","3","1","2","2","1,0,0,1,1,0,1,0,1","0,0,1,1,0,1,0,1,1","2",""
"","html-keyboard-response","73","49889","0.0-73.0","3YT88D1N09K989NCLVWJAA2RKY53KX","A1ROEDVMTO9Y3X","3UDTAB6HH6LRO17U79I9TKUGYFV09C","","null","<img src=""img/flower4.png"" style=""width:200px; border:14px solid green;"">","null","","","","","","","","",""
"","image-keyboard-response","74","50137","0.0-74.0","3YT88D1N09K989NCLVWJAA2RKY53KX","A1ROEDVMTO9Y3X","3UDTAB6HH6LRO17U79I9TKUGYFV09C","","247.1000000089407","img/flower5.png","76","248","3","1","1","2","1,0,0,1,1,0,1,0,1","0,0,1,1,0,1,0,1,1","2",""
"","html-keyboard-response","75","50439","0.0-75.0","3YT88D1N09K989NCLVWJAA2RKY53KX","A1ROEDVMTO9Y3X","3UDTAB6HH6LRO17U79I9TKUGYFV09C","","null","<img src=""img/flower5.png"" style=""width:200px; border:14px solid green;"">","null","","","","","","","","",""
"","image-keyboard-response","76","50701","0.0-76.0","3YT88D1N09K989NCLVWJAA2RKY53KX","A1ROEDVMTO9Y3X","3UDTAB6HH6LRO17U79I9TKUGYFV09C","","260.20000000298023","img/flower4.png","76","261.3999999910593","3","1","2","2","1,0,0,1,1,0,1,0,1","0,0,1,1,0,1,0,1,1","2",""
"","html-keyboard-response","77","51003","0.0-77.0","3YT88D1N09K989NCLVWJAA2RKY53KX","A1ROEDVMTO9Y3X","3UDTAB6HH6LRO17U79I9TKUGYFV09C","","null","<img src=""img/flower4.png"" style=""width:200px; border:14px solid green;"">","null","","","","","","","","",""
"","image-keyboard-response","78","51308","0.0-78.0","3YT88D1N09K989NCLVWJAA2RKY53KX","A1ROEDVMTO9Y3X","3UDTAB6HH6LRO17U79I9TKUGYFV09C","","303.90000000596046","img/flower3.png","76","304.59999999403954","3","1","3","2","1,0,0,1,1,0,1,0,1","0,0,1,1,0,1,0,1,1","2",""
"","html-keyboard-response","79","51610","0.0-79.0","3YT88D1N09K989NCLVWJAA2RKY53KX","A1ROEDVMTO9Y3X","3UDTAB6HH6LRO17U79I9TKUGYFV09C","","null","<img src=""img/flower3.png"" style=""width:200px; border:14px solid green;"">","null","","","","","","","","",""
"","image-keyboard-response","80","51881","0.0-80.0","3YT88D1N09K989NCLVWJAA2RKY53KX","A1ROEDVMTO9Y3X","3UDTAB6HH6LRO17U79I9TKUGYFV09C","","269.8999999910593","img/flower3.png","76","271","3","1","3","2","1,0,0,1,1,0,1,0,1","0,0,1,1,0,1,0,1,1","2",""
"","html-keyboard-response","81","52183","0.0-81.0","3YT88D1N09K989NCLVWJAA2RKY53KX","A1ROEDVMTO9Y3X","3UDTAB6HH6LRO17U79I9TKUGYFV09C","","null","<img src=""img/flower3.png"" style=""width:200px; border:14px solid green;"">","null","","","","","","","","",""
"","image-keyboard-response","82","52515","0.0-82.0","3YT88D1N09K989NCLVWJAA2RKY53KX","A1ROEDVMTO9Y3X","3UDTAB6HH6LRO17U79I9TKUGYFV09C","","330.5","img/flower4.png","76","331.79999999701977","3","1","2","2","1,0,0,1,1,0,1,0,1","0,0,1,1,0,1,0,1,1","2",""
"","html-keyboard-response","83","52817","0.0-83.0","3YT88D1N09K989NCLVWJAA2RKY53KX","A1ROEDVMTO9Y3X","3UDTAB6HH6LRO17U79I9TKUGYFV09C","","null","<img src=""img/flower4.png"" style=""width:200px; border:14px solid green;"">","null","","","","","","","","",""
"","image-keyboard-response","84","53214","0.0-84.0","3YT88D1N09K989NCLVWJAA2RKY53KX","A1ROEDVMTO9Y3X","3UDTAB6HH6LRO17U79I9TKUGYFV09C","","395.69999998807907","img/flower4.png","76","396.79999999701977","3","1","2","2","1,0,0,1,1,0,1,0,1","0,0,1,1,0,1,0,1,1","2",""
"","html-keyboard-response","85","53516","0.0-85.0","3YT88D1N09K989NCLVWJAA2RKY53KX","A1ROEDVMTO9Y3X","3UDTAB6HH6LRO17U79I9TKUGYFV09C","","null","<img src=""img/flower4.png"" style=""width:200px; border:14px solid green;"">","null","","","","","","","","",""
"","image-keyboard-response","86","53779","0.0-86.0","3YT88D1N09K989NCLVWJAA2RKY53KX","A1ROEDVMTO9Y3X","3UDTAB6HH6LRO17U79I9TKUGYFV09C","","261.29999999701977","img/flower3.png","76","262.5","3","1","3","2","1,0,0,1,1,0,1,0,1","0,0,1,1,0,1,0,1,1","2",""
"","html-keyboard-response","87","54081","0.0-87.0","3YT88D1N09K989NCLVWJAA2RKY53KX","A1ROEDVMTO9Y3X","3UDTAB6HH6LRO17U79I9TKUGYFV09C","","null","<img src=""img/flower3.png"" style=""width:200px; border:14px solid green;"">","null","","","","","","","","",""
"","image-keyboard-response","88","54298","0.0-88.0","3YT88D1N09K989NCLVWJAA2RKY53KX","A1ROEDVMTO9Y3X","3UDTAB6HH6LRO17U79I9TKUGYFV09C","","215.3999999910593","img/flower4.png","76","216.70000000298023","3","1","2","2","1,0,0,1,1,0,1,0,1","0,0,1,1,0,1,0,1,1","2",""
"","html-keyboard-response","89","54600","0.0-89.0","3YT88D1N09K989NCLVWJAA2RKY53KX","A1ROEDVMTO9Y3X","3UDTAB6HH6LRO17U79I9TKUGYFV09C","","null","<img src=""img/flower4.png"" style=""width:200px; border:14px solid green;"">","null","","","","","","","","",""
"","image-keyboard-response","90","54820","0.0-90.0","3YT88D1N09K989NCLVWJAA2RKY53KX","A1ROEDVMTO9Y3X","3UDTAB6HH6LRO17U79I9TKUGYFV09C","","218","img/flower5.png","76","219.1000000089407","3","1","1","2","1,0,0,1,1,0,1,0,1","0,0,1,1,0,1,0,1,1","2",""
"","html-keyboard-response","91","55121","0.0-91.0","3YT88D1N09K989NCLVWJAA2RKY53KX","A1ROEDVMTO9Y3X","3UDTAB6HH6LRO17U79I9TKUGYFV09C","","null","<img src=""img/flower5.png"" style=""width:200px; border:14px solid green;"">","null","","","","","","","","",""
"","image-keyboard-response","92","55589","0.0-92.0","3YT88D1N09K989NCLVWJAA2RKY53KX","A1ROEDVMTO9Y3X","3UDTAB6HH6LRO17U79I9TKUGYFV09C","","467.1000000089407","img/flower4.png","76","467.79999999701977","3","1","2","2","1,0,0,1,1,0,1,0,1","0,0,1,1,0,1,0,1,1","2",""
"","html-keyboard-response","93","55890","0.0-93.0","3YT88D1N09K989NCLVWJAA2RKY53KX","A1ROEDVMTO9Y3X","3UDTAB6HH6LRO17U79I9TKUGYFV09C","","null","<img src=""img/flower4.png"" style=""width:200px; border:14px solid green;"">","null","","","","","","","","",""
"","image-keyboard-response","94","56287","0.0-94.0","3YT88D1N09K989NCLVWJAA2RKY53KX","A1ROEDVMTO9Y3X","3UDTAB6HH6LRO17U79I9TKUGYFV09C","","395.59999999403954","img/flower4.png","76","396.5","3","1","2","2","1,0,0,1,1,0,1,0,1","0,0,1,1,0,1,0,1,1","2",""
"","html-keyboard-response","95","56590","0.0-95.0","3YT88D1N09K989NCLVWJAA2RKY53KX","A1ROEDVMTO9Y3X","3UDTAB6HH6LRO17U79I9TKUGYFV09C","","null","<img src=""img/flower4.png"" style=""width:200px; border:14px solid green;"">","null","","","","","","","","",""
"","image-keyboard-response","96","56938","0.0-96.0","3YT88D1N09K989NCLVWJAA2RKY53KX","A1ROEDVMTO9Y3X","3UDTAB6HH6LRO17U79I9TKUGYFV09C","","347","img/flower3.png","76","347.90000000596046","3","1","3","2","1,0,0,1,1,0,1,0,1","0,0,1,1,0,1,0,1,1","2",""
"","html-keyboard-response","97","57241","0.0-97.0","3YT88D1N09K989NCLVWJAA2RKY53KX","A1ROEDVMTO9Y3X","3UDTAB6HH6LRO17U79I9TKUGYFV09C","","null","<img src=""img/flower3.png"" style=""width:200px; border:14px solid green;"">","null","","","","","","","","",""
"","image-keyboard-response","98","57622","0.0-98.0","3YT88D1N09K989NCLVWJAA2RKY53KX","A1ROEDVMTO9Y3X","3UDTAB6HH6LRO17U79I9TKUGYFV09C","","380.90000000596046","img/flower4.png","76","381.3999999910593","3","1","2","2","1,0,0,1,1,0,1,0,1","0,0,1,1,0,1,0,1,1","2",""
"","html-keyboard-response","99","57924","0.0-99.0","3YT88D1N09K989NCLVWJAA2RKY53KX","A1ROEDVMTO9Y3X","3UDTAB6HH6LRO17U79I9TKUGYFV09C","","null","<img src=""img/flower4.png"" style=""width:200px; border:14px solid green;"">","null","","","","","","","","",""
"","image-keyboard-response","100","58162","0.0-100.0","3YT88D1N09K989NCLVWJAA2RKY53KX","A1ROEDVMTO9Y3X","3UDTAB6HH6LRO17U79I9TKUGYFV09C","","237.20000000298023","img/flower3.png","76","237.6000000089407","3","1","3","2","1,0,0,1,1,0,1,0,1","0,0,1,1,0,1,0,1,1","2",""
"","html-keyboard-response","101","58464","0.0-101.0","3YT88D1N09K989NCLVWJAA2RKY53KX","A1ROEDVMTO9Y3X","3UDTAB6HH6LRO17U79I9TKUGYFV09C","","null","<img src=""img/flower3.png"" style=""width:200px; border:14px solid green;"">","null","","","","","","","","",""
"","image-keyboard-response","102","58711","0.0-102.0","3YT88D1N09K989NCLVWJAA2RKY53KX","A1ROEDVMTO9Y3X","3UDTAB6HH6LRO17U79I9TKUGYFV09C","","245.79999999701977","img/flower4.png","76","247.1000000089407","3","1","2","2","1,0,0,1,1,0,1,0,1","0,0,1,1,0,1,0,1,1","2",""
"","html-keyboard-response","103","59028","0.0-103.0","3YT88D1N09K989NCLVWJAA2RKY53KX","A1ROEDVMTO9Y3X","3UDTAB6HH6LRO17U79I9TKUGYFV09C","","null","<img src=""img/flower4.png"" style=""width:200px; border:14px solid green;"">","null","","","","","","","","",""
"","image-keyboard-response","104","60170","0.0-104.0","3YT88D1N09K989NCLVWJAA2RKY53KX","A1ROEDVMTO9Y3X","3UDTAB6HH6LRO17U79I9TKUGYFV09C","","1141.9000000059605","img/flower3.png","76","1143.2000000029802","3","1","3","2","1,0,0,1,1,0,1,0,1","0,0,1,1,0,1,0,1,1","2",""
"","html-keyboard-response","105","60473","0.0-105.0","3YT88D1N09K989NCLVWJAA2RKY53KX","A1ROEDVMTO9Y3X","3UDTAB6HH6LRO17U79I9TKUGYFV09C","","null","<img src=""img/flower3.png"" style=""width:200px; border:14px solid green;"">","null","","","","","","","","",""
"","image-keyboard-response","106","60771","0.0-106.0","3YT88D1N09K989NCLVWJAA2RKY53KX","A1ROEDVMTO9Y3X","3UDTAB6HH6LRO17U79I9TKUGYFV09C","","296.69999998807907","img/flower5.png","76","298","3","1","1","2","1,0,0,1,1,0,1,0,1","0,0,1,1,0,1,0,1,1","2",""
"","html-keyboard-response","107","61074","0.0-107.0","3YT88D1N09K989NCLVWJAA2RKY53KX","A1ROEDVMTO9Y3X","3UDTAB6HH6LRO17U79I9TKUGYFV09C","","null","<img src=""img/flower5.png"" style=""width:200px; border:14px solid green;"">","null","","","","","","","","",""
"","image-keyboard-response","108","61534","0.0-108.0","3YT88D1N09K989NCLVWJAA2RKY53KX","A1ROEDVMTO9Y3X","3UDTAB6HH6LRO17U79I9TKUGYFV09C","","458.29999999701977","img/flower3.png","76","459.30000001192093","3","1","3","2","1,0,0,1,1,0,1,0,1","0,0,1,1,0,1,0,1,1","2",""
"","html-keyboard-response","109","61836","0.0-109.0","3YT88D1N09K989NCLVWJAA2RKY53KX","A1ROEDVMTO9Y3X","3UDTAB6HH6LRO17U79I9TKUGYFV09C","","null","<img src=""img/flower3.png"" style=""width:200px; border:14px solid green;"">","null","","","","","","","","",""
"","image-keyboard-response","110","61937","0.0-110.0","3YT88D1N09K989NCLVWJAA2RKY53KX","A1ROEDVMTO9Y3X","3UDTAB6HH6LRO17U79I9TKUGYFV09C","","100.29999999701977","img/flower4.png","76","100.79999999701977","3","1","2","2","1,0,0,1,1,0,1,0,1","0,0,1,1,0,1,0,1,1","2",""
"","html-keyboard-response","111","62238","0.0-111.0","3YT88D1N09K989NCLVWJAA2RKY53KX","A1ROEDVMTO9Y3X","3UDTAB6HH6LRO17U79I9TKUGYFV09C","","null","<img src=""img/flower4.png"" style=""width:200px; border:14px solid green;"">","null","","","","","","","","",""
"","image-keyboard-response","112","62646","0.0-112.0","3YT88D1N09K989NCLVWJAA2RKY53KX","A1ROEDVMTO9Y3X","3UDTAB6HH6LRO17U79I9TKUGYFV09C","","407.29999999701977","img/flower4.png","76","408","3","1","2","2","1,0,0,1,1,0,1,0,1","0,0,1,1,0,1,0,1,1","2",""
"","html-keyboard-response","113","62947","0.0-113.0","3YT88D1N09K989NCLVWJAA2RKY53KX","A1ROEDVMTO9Y3X","3UDTAB6HH6LRO17U79I9TKUGYFV09C","","null","<img src=""img/flower4.png"" style=""width:200px; border:14px solid green;"">","null","","","","","","","","",""
"","image-keyboard-response","114","63419","0.0-114.0","3YT88D1N09K989NCLVWJAA2RKY53KX","A1ROEDVMTO9Y3X","3UDTAB6HH6LRO17U79I9TKUGYFV09C","","470.1000000089407","img/flower3.png","76","471.3999999910593","3","1","3","2","1,0,0,1,1,0,1,0,1","0,0,1,1,0,1,0,1,1","2",""
"","html-keyboard-response","115","63724","0.0-115.0","3YT88D1N09K989NCLVWJAA2RKY53KX","A1ROEDVMTO9Y3X","3UDTAB6HH6LRO17U79I9TKUGYFV09C","","null","<img src=""img/flower3.png"" style=""width:200px; border:14px solid green;"">","null","","","","","","","","",""
"","image-keyboard-response","116","64680","0.0-116.0","3YT88D1N09K989NCLVWJAA2RKY53KX","A1ROEDVMTO9Y3X","3UDTAB6HH6LRO17U79I9TKUGYFV09C","","954.5999999940395","img/flower3.png","76","955.7999999970198","3","1","3","2","1,0,0,1,1,0,1,0,1","0,0,1,1,0,1,0,1,1","2",""
"","html-keyboard-response","117","64982","0.0-117.0","3YT88D1N09K989NCLVWJAA2RKY53KX","A1ROEDVMTO9Y3X","3UDTAB6HH6LRO17U79I9TKUGYFV09C","","null","<img src=""img/flower3.png"" style=""width:200px; border:14px solid green;"">","null","","","","","","","","",""
"","image-keyboard-response","118","65477","0.0-118.0","3YT88D1N09K989NCLVWJAA2RKY53KX","A1ROEDVMTO9Y3X","3UDTAB6HH6LRO17U79I9TKUGYFV09C","","493.09999999403954","img/flower5.png","76","494.5","3","1","1","2","1,0,0,1,1,0,1,0,1","0,0,1,1,0,1,0,1,1","2",""
"","html-keyboard-response","119","65780","0.0-119.0","3YT88D1N09K989NCLVWJAA2RKY53KX","A1ROEDVMTO9Y3X","3UDTAB6HH6LRO17U79I9TKUGYFV09C","","null","<img src=""img/flower5.png"" style=""width:200px; border:14px solid green;"">","null","","","","","","","","",""
"","image-keyboard-response","120","66059","0.0-120.0","3YT88D1N09K989NCLVWJAA2RKY53KX","A1ROEDVMTO9Y3X","3UDTAB6HH6LRO17U79I9TKUGYFV09C","","277.90000000596046","img/flower5.png","76","279.1000000089407","3","1","1","2","1,0,0,1,1,0,1,0,1","0,0,1,1,0,1,0,1,1","2",""
"","html-keyboard-response","121","66361","0.0-121.0","3YT88D1N09K989NCLVWJAA2RKY53KX","A1ROEDVMTO9Y3X","3UDTAB6HH6LRO17U79I9TKUGYFV09C","","null","<img src=""img/flower5.png"" style=""width:200px; border:14px solid green;"">","null","","","","","","","","",""
"","image-keyboard-response","122","67019","0.0-122.0","3YT88D1N09K989NCLVWJAA2RKY53KX","A1ROEDVMTO9Y3X","3UDTAB6HH6LRO17U79I9TKUGYFV09C","","656.4000000059605","img/flower3.png","76","657.7000000029802","3","1","3","2","1,0,0,1,1,0,1,0,1","0,0,1,1,0,1,0,1,1","2",""
"","html-keyboard-response","123","67322","0.0-123.0","3YT88D1N09K989NCLVWJAA2RKY53KX","A1ROEDVMTO9Y3X","3UDTAB6HH6LRO17U79I9TKUGYFV09C","","null","<img src=""img/flower3.png"" style=""width:200px; border:14px solid green;"">","null","","","","","","","","",""
"","image-keyboard-response","124","67502","0.0-124.0","3YT88D1N09K989NCLVWJAA2RKY53KX","A1ROEDVMTO9Y3X","3UDTAB6HH6LRO17U79I9TKUGYFV09C","","179","img/flower3.png","76","180.29999999701977","3","1","3","2","1,0,0,1,1,0,1,0,1","0,0,1,1,0,1,0,1,1","2",""
"","html-keyboard-response","125","67805","0.0-125.0","3YT88D1N09K989NCLVWJAA2RKY53KX","A1ROEDVMTO9Y3X","3UDTAB6HH6LRO17U79I9TKUGYFV09C","","null","<img src=""img/flower3.png"" style=""width:200px; border:14px solid green;"">","null","","","","","","","","",""
"","image-keyboard-response","126","68094","0.0-126.0","3YT88D1N09K989NCLVWJAA2RKY53KX","A1ROEDVMTO9Y3X","3UDTAB6HH6LRO17U79I9TKUGYFV09C","","288.70000000298023","img/flower3.png","76","289.3999999910593","3","1","3","2","1,0,0,1,1,0,1,0,1","0,0,1,1,0,1,0,1,1","2",""
"","html-keyboard-response","127","68396","0.0-127.0","3YT88D1N09K989NCLVWJAA2RKY53KX","A1ROEDVMTO9Y3X","3UDTAB6HH6LRO17U79I9TKUGYFV09C","","null","<img src=""img/flower3.png"" style=""width:200px; border:14px solid green;"">","null","","","","","","","","",""
"","image-keyboard-response","128","68681","0.0-128.0","3YT88D1N09K989NCLVWJAA2RKY53KX","A1ROEDVMTO9Y3X","3UDTAB6HH6LRO17U79I9TKUGYFV09C","","283.59999999403954","img/flower5.png","76","284.59999999403954","3","1","1","2","1,0,0,1,1,0,1,0,1","0,0,1,1,0,1,0,1,1","2",""
"","html-keyboard-response","129","68983","0.0-129.0","3YT88D1N09K989NCLVWJAA2RKY53KX","A1ROEDVMTO9Y3X","3UDTAB6HH6LRO17U79I9TKUGYFV09C","","null","<img src=""img/flower5.png"" style=""width:200px; border:14px solid green;"">","null","","","","","","","","",""
"","image-keyboard-response","130","69123","0.0-130.0","3YT88D1N09K989NCLVWJAA2RKY53KX","A1ROEDVMTO9Y3X","3UDTAB6HH6LRO17U79I9TKUGYFV09C","","138.40000000596046","img/flower5.png","76","139.29999999701977","3","1","1","2","1,0,0,1,1,0,1,0,1","0,0,1,1,0,1,0,1,1","2",""
"","html-keyboard-response","131","69425","0.0-131.0","3YT88D1N09K989NCLVWJAA2RKY53KX","A1ROEDVMTO9Y3X","3UDTAB6HH6LRO17U79I9TKUGYFV09C","","null","<img src=""img/flower5.png"" style=""width:200px; border:14px solid green;"">","null","","","","","","","","",""
"","image-keyboard-response","132","69739","0.0-132.0","3YT88D1N09K989NCLVWJAA2RKY53KX","A1ROEDVMTO9Y3X","3UDTAB6HH6LRO17U79I9TKUGYFV09C","","313.09999999403954","img/flower3.png","76","313.90000000596046","3","1","3","2","1,0,0,1,1,0,1,0,1","0,0,1,1,0,1,0,1,1","2",""
"","html-keyboard-response","133","70041","0.0-133.0","3YT88D1N09K989NCLVWJAA2RKY53KX","A1ROEDVMTO9Y3X","3UDTAB6HH6LRO17U79I9TKUGYFV09C","","null","<img src=""img/flower3.png"" style=""width:200px; border:14px solid green;"">","null","","","","","","","","",""
"","image-keyboard-response","134","70271","0.0-134.0","3YT88D1N09K989NCLVWJAA2RKY53KX","A1ROEDVMTO9Y3X","3UDTAB6HH6LRO17U79I9TKUGYFV09C","","228.79999999701977","img/flower4.png","76","230","3","1","2","2","1,0,0,1,1,0,1,0,1","0,0,1,1,0,1,0,1,1","2",""
"","html-keyboard-response","135","70573","0.0-135.0","3YT88D1N09K989NCLVWJAA2RKY53KX","A1ROEDVMTO9Y3X","3UDTAB6HH6LRO17U79I9TKUGYFV09C","","null","<img src=""img/flower4.png"" style=""width:200px; border:14px solid green;"">","null","","","","","","","","",""
"","image-keyboard-response","136","70698","0.0-136.0","3YT88D1N09K989NCLVWJAA2RKY53KX","A1ROEDVMTO9Y3X","3UDTAB6HH6LRO17U79I9TKUGYFV09C","","123.6000000089407","img/flower3.png","76","124.79999999701977","3","1","3","2","1,0,0,1,1,0,1,0,1","0,0,1,1,0,1,0,1,1","2",""
"","html-keyboard-response","137","71005","0.0-137.0","3YT88D1N09K989NCLVWJAA2RKY53KX","A1ROEDVMTO9Y3X","3UDTAB6HH6LRO17U79I9TKUGYFV09C","","null","<img src=""img/flower3.png"" style=""width:200px; border:14px solid green;"">","null","","","","","","","","",""
"","image-keyboard-response","138","71236","0.0-138.0","3YT88D1N09K989NCLVWJAA2RKY53KX","A1ROEDVMTO9Y3X","3UDTAB6HH6LRO17U79I9TKUGYFV09C","","229.40000000596046","img/flower3.png","76","230.79999999701977","3","1","3","2","1,0,0,1,1,0,1,0,1","0,0,1,1,0,1,0,1,1","2",""
"","html-keyboard-response","139","71538","0.0-139.0","3YT88D1N09K989NCLVWJAA2RKY53KX","A1ROEDVMTO9Y3X","3UDTAB6HH6LRO17U79I9TKUGYFV09C","","null","<img src=""img/flower3.png"" style=""width:200px; border:14px solid green;"">","null","","","","","","","","",""
"","image-keyboard-response","140","72053","0.0-140.0","3YT88D1N09K989NCLVWJAA2RKY53KX","A1ROEDVMTO9Y3X","3UDTAB6HH6LRO17U79I9TKUGYFV09C","","513.2999999970198","img/flower5.png","76","514.5","3","1","1","2","1,0,0,1,1,0,1,0,1","0,0,1,1,0,1,0,1,1","2",""
"","html-keyboard-response","141","72354","0.0-141.0","3YT88D1N09K989NCLVWJAA2RKY53KX","A1ROEDVMTO9Y3X","3UDTAB6HH6LRO17U79I9TKUGYFV09C","","null","<img src=""img/flower5.png"" style=""width:200px; border:14px solid green;"">","null","","","","","","","","",""
"","image-keyboard-response","142","72506","0.0-142.0","3YT88D1N09K989NCLVWJAA2RKY53KX","A1ROEDVMTO9Y3X","3UDTAB6HH6LRO17U79I9TKUGYFV09C","","150.70000000298023","img/flower5.png","76","151.8999999910593","3","1","1","2","1,0,0,1,1,0,1,0,1","0,0,1,1,0,1,0,1,1","2",""
"","html-keyboard-response","143","72809","0.0-143.0","3YT88D1N09K989NCLVWJAA2RKY53KX","A1ROEDVMTO9Y3X","3UDTAB6HH6LRO17U79I9TKUGYFV09C","","null","<img src=""img/flower5.png"" style=""width:200px; border:14px solid green;"">","null","","","","","","","","",""
"","image-keyboard-response","144","72975","0.0-144.0","3YT88D1N09K989NCLVWJAA2RKY53KX","A1ROEDVMTO9Y3X","3UDTAB6HH6LRO17U79I9TKUGYFV09C","","164.29999999701977","img/flower4.png","76","165.40000000596046","3","1","2","2","1,0,0,1,1,0,1,0,1","0,0,1,1,0,1,0,1,1","2",""
"","html-keyboard-response","145","73277","0.0-145.0","3YT88D1N09K989NCLVWJAA2RKY53KX","A1ROEDVMTO9Y3X","3UDTAB6HH6LRO17U79I9TKUGYFV09C","","null","<img src=""img/flower4.png"" style=""width:200px; border:14px solid green;"">","null","","","","","","","","",""
"","image-keyboard-response","146","73573","0.0-146.0","3YT88D1N09K989NCLVWJAA2RKY53KX","A1ROEDVMTO9Y3X","3UDTAB6HH6LRO17U79I9TKUGYFV09C","","294.40000000596046","img/flower4.png","76","295.59999999403954","3","1","2","2","1,0,0,1,1,0,1,0,1","0,0,1,1,0,1,0,1,1","2",""
"","html-keyboard-response","147","73876","0.0-147.0","3YT88D1N09K989NCLVWJAA2RKY53KX","A1ROEDVMTO9Y3X","3UDTAB6HH6LRO17U79I9TKUGYFV09C","","null","<img src=""img/flower4.png"" style=""width:200px; border:14px solid green;"">","null","","","","","","","","",""
"","image-keyboard-response","148","74212","0.0-148.0","3YT88D1N09K989NCLVWJAA2RKY53KX","A1ROEDVMTO9Y3X","3UDTAB6HH6LRO17U79I9TKUGYFV09C","","334.90000000596046","img/flower5.png","76","335.79999999701977","3","1","1","2","1,0,0,1,1,0,1,0,1","0,0,1,1,0,1,0,1,1","2",""
"","html-keyboard-response","149","74514","0.0-149.0","3YT88D1N09K989NCLVWJAA2RKY53KX","A1ROEDVMTO9Y3X","3UDTAB6HH6LRO17U79I9TKUGYFV09C","","null","<img src=""img/flower5.png"" style=""width:200px; border:14px solid green;"">","null","","","","","","","","",""
"","image-keyboard-response","150","75029","0.0-150.0","3YT88D1N09K989NCLVWJAA2RKY53KX","A1ROEDVMTO9Y3X","3UDTAB6HH6LRO17U79I9TKUGYFV09C","","514.0999999940395","img/flower3.png","76","515.2999999970198","3","1","3","2","1,0,0,1,1,0,1,0,1","0,0,1,1,0,1,0,1,1","2",""
"","html-keyboard-response","151","75333","0.0-151.0","3YT88D1N09K989NCLVWJAA2RKY53KX","A1ROEDVMTO9Y3X","3UDTAB6HH6LRO17U79I9TKUGYFV09C","","null","<img src=""img/flower3.png"" style=""width:200px; border:14px solid green;"">","null","","","","","","","","",""
"","image-keyboard-response","152","75740","0.0-152.0","3YT88D1N09K989NCLVWJAA2RKY53KX","A1ROEDVMTO9Y3X","3UDTAB6HH6LRO17U79I9TKUGYFV09C","","405.79999999701977","img/flower5.png","76","407","3","1","1","2","1,0,0,1,1,0,1,0,1","0,0,1,1,0,1,0,1,1","2",""
"","html-keyboard-response","153","76047","0.0-153.0","3YT88D1N09K989NCLVWJAA2RKY53KX","A1ROEDVMTO9Y3X","3UDTAB6HH6LRO17U79I9TKUGYFV09C","","null","<img src=""img/flower5.png"" style=""width:200px; border:14px solid green;"">","null","","","","","","","","",""
"","image-keyboard-response","154","76439","0.0-154.0","3YT88D1N09K989NCLVWJAA2RKY53KX","A1ROEDVMTO9Y3X","3UDTAB6HH6LRO17U79I9TKUGYFV09C","","390.80000001192093","img/flower3.png","76","392","3","1","3","2","1,0,0,1,1,0,1,0,1","0,0,1,1,0,1,0,1,1","2",""
"","html-keyboard-response","155","76742","0.0-155.0","3YT88D1N09K989NCLVWJAA2RKY53KX","A1ROEDVMTO9Y3X","3UDTAB6HH6LRO17U79I9TKUGYFV09C","","null","<img src=""img/flower3.png"" style=""width:200px; border:14px solid green;"">","null","","","","","","","","",""
"","image-keyboard-response","156","77069","0.0-156.0","3YT88D1N09K989NCLVWJAA2RKY53KX","A1ROEDVMTO9Y3X","3UDTAB6HH6LRO17U79I9TKUGYFV09C","","325.90000000596046","img/flower3.png","76","327.20000000298023","3","1","3","2","1,0,0,1,1,0,1,0,1","0,0,1,1,0,1,0,1,1","2",""
"","html-keyboard-response","157","77372","0.0-157.0","3YT88D1N09K989NCLVWJAA2RKY53KX","A1ROEDVMTO9Y3X","3UDTAB6HH6LRO17U79I9TKUGYFV09C","","null","<img src=""img/flower3.png"" style=""width:200px; border:14px solid green;"">","null","","","","","","","","",""
"","image-keyboard-response","158","77683","0.0-158.0","3YT88D1N09K989NCLVWJAA2RKY53KX","A1ROEDVMTO9Y3X","3UDTAB6HH6LRO17U79I9TKUGYFV09C","","309.09999999403954","img/flower4.png","76","310.6000000089407","3","1","2","2","1,0,0,1,1,0,1,0,1","0,0,1,1,0,1,0,1,1","2",""
"","html-keyboard-response","159","77986","0.0-159.0","3YT88D1N09K989NCLVWJAA2RKY53KX","A1ROEDVMTO9Y3X","3UDTAB6HH6LRO17U79I9TKUGYFV09C","","null","<img src=""img/flower4.png"" style=""width:200px; border:14px solid green;"">","null","","","","","","","","",""
"","image-keyboard-response","160","78177","0.0-160.0","3YT88D1N09K989NCLVWJAA2RKY53KX","A1ROEDVMTO9Y3X","3UDTAB6HH6LRO17U79I9TKUGYFV09C","","189.8999999910593","img/flower5.png","76","191","3","1","1","2","1,0,0,1,1,0,1,0,1","0,0,1,1,0,1,0,1,1","2",""
"","html-keyboard-response","161","78479","0.0-161.0","3YT88D1N09K989NCLVWJAA2RKY53KX","A1ROEDVMTO9Y3X","3UDTAB6HH6LRO17U79I9TKUGYFV09C","","null","<img src=""img/flower5.png"" style=""width:200px; border:14px solid green;"">","null","","","","","","","","",""
"","image-keyboard-response","162","78639","0.0-162.0","3YT88D1N09K989NCLVWJAA2RKY53KX","A1ROEDVMTO9Y3X","3UDTAB6HH6LRO17U79I9TKUGYFV09C","","158.09999999403954","img/flower5.png","76","159.29999999701977","3","1","1","2","1,0,0,1,1,0,1,0,1","0,0,1,1,0,1,0,1,1","2",""
"","html-keyboard-response","163","78941","0.0-163.0","3YT88D1N09K989NCLVWJAA2RKY53KX","A1ROEDVMTO9Y3X","3UDTAB6HH6LRO17U79I9TKUGYFV09C","","null","<img src=""img/flower5.png"" style=""width:200px; border:14px solid green;"">","null","","","","","","","","",""
"","image-keyboard-response","164","79202","0.0-164.0","3YT88D1N09K989NCLVWJAA2RKY53KX","A1ROEDVMTO9Y3X","3UDTAB6HH6LRO17U79I9TKUGYFV09C","","260","img/flower5.png","76","261.09999999403954","3","1","1","2","1,0,0,1,1,0,1,0,1","0,0,1,1,0,1,0,1,1","2",""
"","html-keyboard-response","165","79505","0.0-165.0","3YT88D1N09K989NCLVWJAA2RKY53KX","A1ROEDVMTO9Y3X","3UDTAB6HH6LRO17U79I9TKUGYFV09C","","null","<img src=""img/flower5.png"" style=""width:200px; border:14px solid green;"">","null","","","","","","","","",""
"","image-keyboard-response","166","79612","0.0-166.0","3YT88D1N09K989NCLVWJAA2RKY53KX","A1ROEDVMTO9Y3X","3UDTAB6HH6LRO17U79I9TKUGYFV09C","","105.5","img/flower4.png","76","106.79999999701977","3","1","2","2","1,0,0,1,1,0,1,0,1","0,0,1,1,0,1,0,1,1","2",""
"","html-keyboard-response","167","79913","0.0-167.0","3YT88D1N09K989NCLVWJAA2RKY53KX","A1ROEDVMTO9Y3X","3UDTAB6HH6LRO17U79I9TKUGYFV09C","","null","<img src=""img/flower4.png"" style=""width:200px; border:14px solid green;"">","null","","","","","","","","",""
"","image-keyboard-response","168","80087","0.0-168.0","3YT88D1N09K989NCLVWJAA2RKY53KX","A1ROEDVMTO9Y3X","3UDTAB6HH6LRO17U79I9TKUGYFV09C","","172.40000000596046","img/flower5.png","76","173.6000000089407","3","1","1","2","1,0,0,1,1,0,1,0,1","0,0,1,1,0,1,0,1,1","2",""
"","html-keyboard-response","169","80390","0.0-169.0","3YT88D1N09K989NCLVWJAA2RKY53KX","A1ROEDVMTO9Y3X","3UDTAB6HH6LRO17U79I9TKUGYFV09C","","null","<img src=""img/flower5.png"" style=""width:200px; border:14px solid green;"">","null","","","","","","","","",""
"","image-keyboard-response","170","80584","0.0-170.0","3YT88D1N09K989NCLVWJAA2RKY53KX","A1ROEDVMTO9Y3X","3UDTAB6HH6LRO17U79I9TKUGYFV09C","","193","img/flower3.png","76","194.1000000089407","3","1","3","2","1,0,0,1,1,0,1,0,1","0,0,1,1,0,1,0,1,1","2",""
"","html-keyboard-response","171","80887","0.0-171.0","3YT88D1N09K989NCLVWJAA2RKY53KX","A1ROEDVMTO9Y3X","3UDTAB6HH6LRO17U79I9TKUGYFV09C","","null","<img src=""img/flower3.png"" style=""width:200px; border:14px solid green;"">","null","","","","","","","","",""
"","image-keyboard-response","172","81060","0.0-172.0","3YT88D1N09K989NCLVWJAA2RKY53KX","A1ROEDVMTO9Y3X","3UDTAB6HH6LRO17U79I9TKUGYFV09C","","172","img/flower3.png","76","173.20000000298023","3","1","3","2","1,0,0,1,1,0,1,0,1","0,0,1,1,0,1,0,1,1","2",""
"","html-keyboard-response","173","81362","0.0-173.0","3YT88D1N09K989NCLVWJAA2RKY53KX","A1ROEDVMTO9Y3X","3UDTAB6HH6LRO17U79I9TKUGYFV09C","","null","<img src=""img/flower3.png"" style=""width:200px; border:14px solid green;"">","null","","","","","","","","",""
"","image-keyboard-response","174","81589","0.0-174.0","3YT88D1N09K989NCLVWJAA2RKY53KX","A1ROEDVMTO9Y3X","3UDTAB6HH6LRO17U79I9TKUGYFV09C","","225.1000000089407","img/flower4.png","76","226.3999999910593","3","1","2","2","1,0,0,1,1,0,1,0,1","0,0,1,1,0,1,0,1,1","2",""
"","html-keyboard-response","175","81892","0.0-175.0","3YT88D1N09K989NCLVWJAA2RKY53KX","A1ROEDVMTO9Y3X","3UDTAB6HH6LRO17U79I9TKUGYFV09C","","null","<img src=""img/flower4.png"" style=""width:200px; border:14px solid green;"">","null","","","","","","","","",""
"","image-keyboard-response","176","82270","0.0-176.0","3YT88D1N09K989NCLVWJAA2RKY53KX","A1ROEDVMTO9Y3X","3UDTAB6HH6LRO17U79I9TKUGYFV09C","","376.40000000596046","img/flower4.png","76","377.70000000298023","3","1","2","2","1,0,0,1,1,0,1,0,1","0,0,1,1,0,1,0,1,1","2",""
"","html-keyboard-response","177","82572","0.0-177.0","3YT88D1N09K989NCLVWJAA2RKY53KX","A1ROEDVMTO9Y3X","3UDTAB6HH6LRO17U79I9TKUGYFV09C","","null","<img src=""img/flower4.png"" style=""width:200px; border:14px solid green;"">","null","","","","","","","","",""
"","image-keyboard-response","178","82892","0.0-178.0","3YT88D1N09K989NCLVWJAA2RKY53KX","A1ROEDVMTO9Y3X","3UDTAB6HH6LRO17U79I9TKUGYFV09C","","318.59999999403954","img/flower3.png","76","319.79999999701977","3","1","3","2","1,0,0,1,1,0,1,0,1","0,0,1,1,0,1,0,1,1","2",""
"","html-keyboard-response","179","83195","0.0-179.0","3YT88D1N09K989NCLVWJAA2RKY53KX","A1ROEDVMTO9Y3X","3UDTAB6HH6LRO17U79I9TKUGYFV09C","","null","<img src=""img/flower3.png"" style=""width:200px; border:14px solid green;"">","null","","","","","","","","",""
"","image-keyboard-response","180","83430","0.0-180.0","3YT88D1N09K989NCLVWJAA2RKY53KX","A1ROEDVMTO9Y3X","3UDTAB6HH6LRO17U79I9TKUGYFV09C","","233.59999999403954","img/flower4.png","76","234.79999999701977","3","1","2","2","1,0,0,1,1,0,1,0,1","0,0,1,1,0,1,0,1,1","2",""
"","html-keyboard-response","181","83732","0.0-181.0","3YT88D1N09K989NCLVWJAA2RKY53KX","A1ROEDVMTO9Y3X","3UDTAB6HH6LRO17U79I9TKUGYFV09C","","null","<img src=""img/flower4.png"" style=""width:200px; border:14px solid green;"">","null","","","","","","","","",""
"","image-keyboard-response","182","84326","0.0-182.0","3YT88D1N09K989NCLVWJAA2RKY53KX","A1ROEDVMTO9Y3X","3UDTAB6HH6LRO17U79I9TKUGYFV09C","","592.7000000029802","img/flower6.png","76","593.3000000119209","3","0","1","1","1,0.333,0.333,0.333,1,0.333,0.333,0.333,1","1,0.333,0.333,0.333,1,0.333,0.333,0.333,1","1",""
"","html-keyboard-response","183","84628","0.0-183.0","3YT88D1N09K989NCLVWJAA2RKY53KX","A1ROEDVMTO9Y3X","3UDTAB6HH6LRO17U79I9TKUGYFV09C","","null","<img src=""img/flower6.png"" style=""width:200px;border:14px solid red;"">","null","","","","","","","","",""
"","image-keyboard-response","184","85538","0.0-184.0","3YT88D1N09K989NCLVWJAA2RKY53KX","A1ROEDVMTO9Y3X","3UDTAB6HH6LRO17U79I9TKUGYFV09C","","908.2000000029802","img/flower2.png","75","909.8000000119209","2","1","2","1","1,0.333,0.333,0.333,1,0.333,0.333,0.333,1","1,0.333,0.333,0.333,1,0.333,0.333,0.333,1","1",""
"","html-keyboard-response","185","85841","0.0-185.0","3YT88D1N09K989NCLVWJAA2RKY53KX","A1ROEDVMTO9Y3X","3UDTAB6HH6LRO17U79I9TKUGYFV09C","","null","<img src=""img/flower2.png"" style=""width:200px; border:14px solid green;"">","null","","","","","","","","",""
"","image-keyboard-response","186","86263","0.0-186.0","3YT88D1N09K989NCLVWJAA2RKY53KX","A1ROEDVMTO9Y3X","3UDTAB6HH6LRO17U79I9TKUGYFV09C","","421.59999999403954","img/flower1.png","75","422.20000000298023","2","0","3","1","1,0.333,0.333,0.333,1,0.333,0.333,0.333,1","1,0.333,0.333,0.333,1,0.333,0.333,0.333,1","1",""
"","html-keyboard-response","187","86566","0.0-187.0","3YT88D1N09K989NCLVWJAA2RKY53KX","A1ROEDVMTO9Y3X","3UDTAB6HH6LRO17U79I9TKUGYFV09C","","null","<img src=""img/flower1.png"" style=""width:200px;border:14px solid red;"">","null","","","","","","","","",""
"","image-keyboard-response","188","86901","0.0-188.0","3YT88D1N09K989NCLVWJAA2RKY53KX","A1ROEDVMTO9Y3X","3UDTAB6HH6LRO17U79I9TKUGYFV09C","","333.29999999701977","img/flower1.png","76","334.29999999701977","3","1","3","1","1,0.333,0.333,0.333,1,0.333,0.333,0.333,1","1,0.333,0.333,0.333,1,0.333,0.333,0.333,1","1",""
"","html-keyboard-response","189","87202","0.0-189.0","3YT88D1N09K989NCLVWJAA2RKY53KX","A1ROEDVMTO9Y3X","3UDTAB6HH6LRO17U79I9TKUGYFV09C","","null","<img src=""img/flower1.png"" style=""width:200px; border:14px solid green;"">","null","","","","","","","","",""
"","image-keyboard-response","190","87369","0.0-190.0","3YT88D1N09K989NCLVWJAA2RKY53KX","A1ROEDVMTO9Y3X","3UDTAB6HH6LRO17U79I9TKUGYFV09C","","164.90000000596046","img/flower1.png","76","166","3","1","3","1","1,0.333,0.333,0.333,1,0.333,0.333,0.333,1","1,0.333,0.333,0.333,1,0.333,0.333,0.333,1","1",""
"","html-keyboard-response","191","87670","0.0-191.0","3YT88D1N09K989NCLVWJAA2RKY53KX","A1ROEDVMTO9Y3X","3UDTAB6HH6LRO17U79I9TKUGYFV09C","","null","<img src=""img/flower1.png"" style=""width:200px; border:14px solid green;"">","null","","","","","","","","",""
"","image-keyboard-response","192","87876","0.0-192.0","3YT88D1N09K989NCLVWJAA2RKY53KX","A1ROEDVMTO9Y3X","3UDTAB6HH6LRO17U79I9TKUGYFV09C","","204.90000000596046","img/flower1.png","76","205.90000000596046","3","1","3","1","1,0.333,0.333,0.333,1,0.333,0.333,0.333,1","1,0.333,0.333,0.333,1,0.333,0.333,0.333,1","1",""
"","html-keyboard-response","193","88178","0.0-193.0","3YT88D1N09K989NCLVWJAA2RKY53KX","A1ROEDVMTO9Y3X","3UDTAB6HH6LRO17U79I9TKUGYFV09C","","null","<img src=""img/flower1.png"" style=""width:200px; border:14px solid green;"">","null","","","","","","","","",""
"","image-keyboard-response","194","88348","0.0-194.0","3YT88D1N09K989NCLVWJAA2RKY53KX","A1ROEDVMTO9Y3X","3UDTAB6HH6LRO17U79I9TKUGYFV09C","","168","img/flower6.png","76","168.90000000596046","3","1","1","1","1,0.333,0.333,0.333,1,0.333,0.333,0.333,1","1,0.333,0.333,0.333,1,0.333,0.333,0.333,1","1",""
"","html-keyboard-response","195","88649","0.0-195.0","3YT88D1N09K989NCLVWJAA2RKY53KX","A1ROEDVMTO9Y3X","3UDTAB6HH6LRO17U79I9TKUGYFV09C","","null","<img src=""img/flower6.png"" style=""width:200px; border:14px solid green;"">","null","","","","","","","","",""
"","image-keyboard-response","196","88939","0.0-196.0","3YT88D1N09K989NCLVWJAA2RKY53KX","A1ROEDVMTO9Y3X","3UDTAB6HH6LRO17U79I9TKUGYFV09C","","288.29999999701977","img/flower2.png","76","289.6000000089407","3","1","2","1","1,0.333,0.333,0.333,1,0.333,0.333,0.333,1","1,0.333,0.333,0.333,1,0.333,0.333,0.333,1","1",""
"","html-keyboard-response","197","89241","0.0-197.0","3YT88D1N09K989NCLVWJAA2RKY53KX","A1ROEDVMTO9Y3X","3UDTAB6HH6LRO17U79I9TKUGYFV09C","","null","<img src=""img/flower2.png"" style=""width:200px; border:14px solid green;"">","null","","","","","","","","",""
"","image-keyboard-response","198","89483","0.0-198.0","3YT88D1N09K989NCLVWJAA2RKY53KX","A1ROEDVMTO9Y3X","3UDTAB6HH6LRO17U79I9TKUGYFV09C","","241.09999999403954","img/flower2.png","76","241.79999999701977","3","0","2","1","1,0.333,0.333,0.333,1,0.333,0.333,0.333,1","1,0.333,0.333,0.333,1,0.333,0.333,0.333,1","1",""
"","html-keyboard-response","199","89785","0.0-199.0","3YT88D1N09K989NCLVWJAA2RKY53KX","A1ROEDVMTO9Y3X","3UDTAB6HH6LRO17U79I9TKUGYFV09C","","null","<img src=""img/flower2.png"" style=""width:200px;border:14px solid red;"">","null","","","","","","","","",""
"","image-keyboard-response","200","89983","0.0-200.0","3YT88D1N09K989NCLVWJAA2RKY53KX","A1ROEDVMTO9Y3X","3UDTAB6HH6LRO17U79I9TKUGYFV09C","","197.5","img/flower1.png","76","198.19999998807907","3","1","3","1","1,0.333,0.333,0.333,1,0.333,0.333,0.333,1","1,0.333,0.333,0.333,1,0.333,0.333,0.333,1","1",""
"","html-keyboard-response","201","90289","0.0-201.0","3YT88D1N09K989NCLVWJAA2RKY53KX","A1ROEDVMTO9Y3X","3UDTAB6HH6LRO17U79I9TKUGYFV09C","","null","<img src=""img/flower1.png"" style=""width:200px; border:14px solid green;"">","null","","","","","","","","",""
"","image-keyboard-response","202","90720","0.0-202.0","3YT88D1N09K989NCLVWJAA2RKY53KX","A1ROEDVMTO9Y3X","3UDTAB6HH6LRO17U79I9TKUGYFV09C","","430.20000000298023","img/flower1.png","75","430.8999999910593","2","0","3","1","1,0.333,0.333,0.333,1,0.333,0.333,0.333,1","1,0.333,0.333,0.333,1,0.333,0.333,0.333,1","1",""
"","html-keyboard-response","203","91035","0.0-203.0","3YT88D1N09K989NCLVWJAA2RKY53KX","A1ROEDVMTO9Y3X","3UDTAB6HH6LRO17U79I9TKUGYFV09C","","null","<img src=""img/flower1.png"" style=""width:200px;border:14px solid red;"">","null","","","","","","","","",""
"","image-keyboard-response","204","91252","0.0-204.0","3YT88D1N09K989NCLVWJAA2RKY53KX","A1ROEDVMTO9Y3X","3UDTAB6HH6LRO17U79I9TKUGYFV09C","","215.69999998807907","img/flower2.png","76","216.90000000596046","3","0","2","1","1,0.333,0.333,0.333,1,0.333,0.333,0.333,1","1,0.333,0.333,0.333,1,0.333,0.333,0.333,1","1",""
"","html-keyboard-response","205","91554","0.0-205.0","3YT88D1N09K989NCLVWJAA2RKY53KX","A1ROEDVMTO9Y3X","3UDTAB6HH6LRO17U79I9TKUGYFV09C","","null","<img src=""img/flower2.png"" style=""width:200px;border:14px solid red;"">","null","","","","","","","","",""
"","image-keyboard-response","206","91827","0.0-206.0","3YT88D1N09K989NCLVWJAA2RKY53KX","A1ROEDVMTO9Y3X","3UDTAB6HH6LRO17U79I9TKUGYFV09C","","271.6000000089407","img/flower6.png","74","272.59999999403954","1","1","1","1","1,0.333,0.333,0.333,1,0.333,0.333,0.333,1","1,0.333,0.333,0.333,1,0.333,0.333,0.333,1","1",""
"","html-keyboard-response","207","92143","0.0-207.0","3YT88D1N09K989NCLVWJAA2RKY53KX","A1ROEDVMTO9Y3X","3UDTAB6HH6LRO17U79I9TKUGYFV09C","","null","<img src=""img/flower6.png"" style=""width:200px; border:14px solid green;"">","null","","","","","","","","",""
"","image-keyboard-response","208","92456","0.0-208.0","3YT88D1N09K989NCLVWJAA2RKY53KX","A1ROEDVMTO9Y3X","3UDTAB6HH6LRO17U79I9TKUGYFV09C","","312","img/flower2.png","74","312.70000000298023","1","0","2","1","1,0.333,0.333,0.333,1,0.333,0.333,0.333,1","1,0.333,0.333,0.333,1,0.333,0.333,0.333,1","1",""
"","html-keyboard-response","209","92759","0.0-209.0","3YT88D1N09K989NCLVWJAA2RKY53KX","A1ROEDVMTO9Y3X","3UDTAB6HH6LRO17U79I9TKUGYFV09C","","null","<img src=""img/flower2.png"" style=""width:200px;border:14px solid red;"">","null","","","","","","","","",""
"","image-keyboard-response","210","93125","0.0-210.0","3YT88D1N09K989NCLVWJAA2RKY53KX","A1ROEDVMTO9Y3X","3UDTAB6HH6LRO17U79I9TKUGYFV09C","","364.59999999403954","img/flower1.png","76","365.70000000298023","3","1","3","1","1,0.333,0.333,0.333,1,0.333,0.333,0.333,1","1,0.333,0.333,0.333,1,0.333,0.333,0.333,1","1",""
"","html-keyboard-response","211","93427","0.0-211.0","3YT88D1N09K989NCLVWJAA2RKY53KX","A1ROEDVMTO9Y3X","3UDTAB6HH6LRO17U79I9TKUGYFV09C","","null","<img src=""img/flower1.png"" style=""width:200px; border:14px solid green;"">","null","","","","","","","","",""
"","image-keyboard-response","212","93892","0.0-212.0","3YT88D1N09K989NCLVWJAA2RKY53KX","A1ROEDVMTO9Y3X","3UDTAB6HH6LRO17U79I9TKUGYFV09C","","463.70000000298023","img/flower1.png","76","464.79999999701977","3","1","3","1","1,0.333,0.333,0.333,1,0.333,0.333,0.333,1","1,0.333,0.333,0.333,1,0.333,0.333,0.333,1","1",""
"","html-keyboard-response","213","94195","0.0-213.0","3YT88D1N09K989NCLVWJAA2RKY53KX","A1ROEDVMTO9Y3X","3UDTAB6HH6LRO17U79I9TKUGYFV09C","","null","<img src=""img/flower1.png"" style=""width:200px; border:14px solid green;"">","null","","","","","","","","",""
"","image-keyboard-response","214","94579","0.0-214.0","3YT88D1N09K989NCLVWJAA2RKY53KX","A1ROEDVMTO9Y3X","3UDTAB6HH6LRO17U79I9TKUGYFV09C","","383.5","img/flower2.png","76","384.29999999701977","3","0","2","1","1,0.333,0.333,0.333,1,0.333,0.333,0.333,1","1,0.333,0.333,0.333,1,0.333,0.333,0.333,1","1",""
"","html-keyboard-response","215","94881","0.0-215.0","3YT88D1N09K989NCLVWJAA2RKY53KX","A1ROEDVMTO9Y3X","3UDTAB6HH6LRO17U79I9TKUGYFV09C","","null","<img src=""img/flower2.png"" style=""width:200px;border:14px solid red;"">","null","","","","","","","","",""
"","image-keyboard-response","216","95238","0.0-216.0","3YT88D1N09K989NCLVWJAA2RKY53KX","A1ROEDVMTO9Y3X","3UDTAB6HH6LRO17U79I9TKUGYFV09C","","356.20000000298023","img/flower6.png","75","356.69999998807907","2","0","1","1","1,0.333,0.333,0.333,1,0.333,0.333,0.333,1","1,0.333,0.333,0.333,1,0.333,0.333,0.333,1","1",""
"","html-keyboard-response","217","95540","0.0-217.0","3YT88D1N09K989NCLVWJAA2RKY53KX","A1ROEDVMTO9Y3X","3UDTAB6HH6LRO17U79I9TKUGYFV09C","","null","<img src=""img/flower6.png"" style=""width:200px;border:14px solid red;"">","null","","","","","","","","",""
"","image-keyboard-response","218","95760","0.0-218.0","3YT88D1N09K989NCLVWJAA2RKY53KX","A1ROEDVMTO9Y3X","3UDTAB6HH6LRO17U79I9TKUGYFV09C","","218.5","img/flower2.png","76","219.79999999701977","3","0","2","1","1,0.333,0.333,0.333,1,0.333,0.333,0.333,1","1,0.333,0.333,0.333,1,0.333,0.333,0.333,1","1",""
"","html-keyboard-response","219","96063","0.0-219.0","3YT88D1N09K989NCLVWJAA2RKY53KX","A1ROEDVMTO9Y3X","3UDTAB6HH6LRO17U79I9TKUGYFV09C","","null","<img src=""img/flower2.png"" style=""width:200px;border:14px solid red;"">","null","","","","","","","","",""
"","image-keyboard-response","220","96658","0.0-220.0","3YT88D1N09K989NCLVWJAA2RKY53KX","A1ROEDVMTO9Y3X","3UDTAB6HH6LRO17U79I9TKUGYFV09C","","594.0999999940395","img/flower6.png","76","595.4000000059605","3","0","1","1","1,0.333,0.333,0.333,1,0.333,0.333,0.333,1","1,0.333,0.333,0.333,1,0.333,0.333,0.333,1","1",""
"","html-keyboard-response","221","96961","0.0-221.0","3YT88D1N09K989NCLVWJAA2RKY53KX","A1ROEDVMTO9Y3X","3UDTAB6HH6LRO17U79I9TKUGYFV09C","","null","<img src=""img/flower6.png"" style=""width:200px;border:14px solid red;"">","null","","","","","","","","",""
"","image-keyboard-response","222","97643","0.0-222.0","3YT88D1N09K989NCLVWJAA2RKY53KX","A1ROEDVMTO9Y3X","3UDTAB6HH6LRO17U79I9TKUGYFV09C","","680.5","img/flower6.png","74","681.9000000059605","1","1","1","1","1,0.333,0.333,0.333,1,0.333,0.333,0.333,1","1,0.333,0.333,0.333,1,0.333,0.333,0.333,1","1",""
"","html-keyboard-response","223","97945","0.0-223.0","3YT88D1N09K989NCLVWJAA2RKY53KX","A1ROEDVMTO9Y3X","3UDTAB6HH6LRO17U79I9TKUGYFV09C","","null","<img src=""img/flower6.png"" style=""width:200px; border:14px solid green;"">","null","","","","","","","","",""
"","image-keyboard-response","224","98369","0.0-224.0","3YT88D1N09K989NCLVWJAA2RKY53KX","A1ROEDVMTO9Y3X","3UDTAB6HH6LRO17U79I9TKUGYFV09C","","423.3999999910593","img/flower2.png","74","424","1","0","2","1","1,0.333,0.333,0.333,1,0.333,0.333,0.333,1","1,0.333,0.333,0.333,1,0.333,0.333,0.333,1","1",""
"","html-keyboard-response","225","98671","0.0-225.0","3YT88D1N09K989NCLVWJAA2RKY53KX","A1ROEDVMTO9Y3X","3UDTAB6HH6LRO17U79I9TKUGYFV09C","","null","<img src=""img/flower2.png"" style=""width:200px;border:14px solid red;"">","null","","","","","","","","",""
"","image-keyboard-response","226","98833","0.0-226.0","3YT88D1N09K989NCLVWJAA2RKY53KX","A1ROEDVMTO9Y3X","3UDTAB6HH6LRO17U79I9TKUGYFV09C","","161.1000000089407","img/flower1.png","76","161.70000000298023","3","1","3","1","1,0.333,0.333,0.333,1,0.333,0.333,0.333,1","1,0.333,0.333,0.333,1,0.333,0.333,0.333,1","1",""
"","html-keyboard-response","227","99134","0.0-227.0","3YT88D1N09K989NCLVWJAA2RKY53KX","A1ROEDVMTO9Y3X","3UDTAB6HH6LRO17U79I9TKUGYFV09C","","null","<img src=""img/flower1.png"" style=""width:200px; border:14px solid green;"">","null","","","","","","","","",""
"","image-keyboard-response","228","99438","0.0-228.0","3YT88D1N09K989NCLVWJAA2RKY53KX","A1ROEDVMTO9Y3X","3UDTAB6HH6LRO17U79I9TKUGYFV09C","","303.5","img/flower2.png","76","304","3","0","2","1","1,0.333,0.333,0.333,1,0.333,0.333,0.333,1","1,0.333,0.333,0.333,1,0.333,0.333,0.333,1","1",""
"","html-keyboard-response","229","99740","0.0-229.0","3YT88D1N09K989NCLVWJAA2RKY53KX","A1ROEDVMTO9Y3X","3UDTAB6HH6LRO17U79I9TKUGYFV09C","","null","<img src=""img/flower2.png"" style=""width:200px;border:14px solid red;"">","null","","","","","","","","",""
"","image-keyboard-response","230","99969","0.0-230.0","3YT88D1N09K989NCLVWJAA2RKY53KX","A1ROEDVMTO9Y3X","3UDTAB6HH6LRO17U79I9TKUGYFV09C","","227.79999999701977","img/flower1.png","76","228.90000000596046","3","1","3","1","1,0.333,0.333,0.333,1,0.333,0.333,0.333,1","1,0.333,0.333,0.333,1,0.333,0.333,0.333,1","1",""
"","html-keyboard-response","231","100271","0.0-231.0","3YT88D1N09K989NCLVWJAA2RKY53KX","A1ROEDVMTO9Y3X","3UDTAB6HH6LRO17U79I9TKUGYFV09C","","null","<img src=""img/flower1.png"" style=""width:200px; border:14px solid green;"">","null","","","","","","","","",""
"","image-keyboard-response","232","100542","0.0-232.0","3YT88D1N09K989NCLVWJAA2RKY53KX","A1ROEDVMTO9Y3X","3UDTAB6HH6LRO17U79I9TKUGYFV09C","","268.8999999910593","img/flower6.png","76","270.1000000089407","3","1","1","1","1,0.333,0.333,0.333,1,0.333,0.333,0.333,1","1,0.333,0.333,0.333,1,0.333,0.333,0.333,1","1",""
"","html-keyboard-response","233","100843","0.0-233.0","3YT88D1N09K989NCLVWJAA2RKY53KX","A1ROEDVMTO9Y3X","3UDTAB6HH6LRO17U79I9TKUGYFV09C","","null","<img src=""img/flower6.png"" style=""width:200px; border:14px solid green;"">","null","","","","","","","","",""
"","image-keyboard-response","234","101114","0.0-234.0","3YT88D1N09K989NCLVWJAA2RKY53KX","A1ROEDVMTO9Y3X","3UDTAB6HH6LRO17U79I9TKUGYFV09C","","270.5","img/flower6.png","76","271","3","0","1","1","1,0.333,0.333,0.333,1,0.333,0.333,0.333,1","1,0.333,0.333,0.333,1,0.333,0.333,0.333,1","1",""
"","html-keyboard-response","235","101416","0.0-235.0","3YT88D1N09K989NCLVWJAA2RKY53KX","A1ROEDVMTO9Y3X","3UDTAB6HH6LRO17U79I9TKUGYFV09C","","null","<img src=""img/flower6.png"" style=""width:200px;border:14px solid red;"">","null","","","","","","","","",""
"","image-keyboard-response","236","101766","0.0-236.0","3YT88D1N09K989NCLVWJAA2RKY53KX","A1ROEDVMTO9Y3X","3UDTAB6HH6LRO17U79I9TKUGYFV09C","","348","img/flower2.png","76","349.29999999701977","3","0","2","1","1,0.333,0.333,0.333,1,0.333,0.333,0.333,1","1,0.333,0.333,0.333,1,0.333,0.333,0.333,1","1",""
"","html-keyboard-response","237","102068","0.0-237.0","3YT88D1N09K989NCLVWJAA2RKY53KX","A1ROEDVMTO9Y3X","3UDTAB6HH6LRO17U79I9TKUGYFV09C","","null","<img src=""img/flower2.png"" style=""width:200px;border:14px solid red;"">","null","","","","","","","","",""
"","image-keyboard-response","238","102616","0.0-238.0","3YT88D1N09K989NCLVWJAA2RKY53KX","A1ROEDVMTO9Y3X","3UDTAB6HH6LRO17U79I9TKUGYFV09C","","547.2000000029802","img/flower6.png","76","548","3","1","1","1","1,0.333,0.333,0.333,1,0.333,0.333,0.333,1","1,0.333,0.333,0.333,1,0.333,0.333,0.333,1","1",""
"","html-keyboard-response","239","102917","0.0-239.0","3YT88D1N09K989NCLVWJAA2RKY53KX","A1ROEDVMTO9Y3X","3UDTAB6HH6LRO17U79I9TKUGYFV09C","","null","<img src=""img/flower6.png"" style=""width:200px; border:14px solid green;"">","null","","","","","","","","",""
"","image-keyboard-response","240","103109","0.0-240.0","3YT88D1N09K989NCLVWJAA2RKY53KX","A1ROEDVMTO9Y3X","3UDTAB6HH6LRO17U79I9TKUGYFV09C","","191.20000000298023","img/flower6.png","75","191.90000000596046","2","0","1","1","1,0.333,0.333,0.333,1,0.333,0.333,0.333,1","1,0.333,0.333,0.333,1,0.333,0.333,0.333,1","1",""
"","html-keyboard-response","241","103411","0.0-241.0","3YT88D1N09K989NCLVWJAA2RKY53KX","A1ROEDVMTO9Y3X","3UDTAB6HH6LRO17U79I9TKUGYFV09C","","null","<img src=""img/flower6.png"" style=""width:200px;border:14px solid red;"">","null","","","","","","","","",""
"","image-keyboard-response","242","103626","0.0-242.0","3YT88D1N09K989NCLVWJAA2RKY53KX","A1ROEDVMTO9Y3X","3UDTAB6HH6LRO17U79I9TKUGYFV09C","","213.3999999910593","img/flower2.png","76","214.79999999701977","3","1","2","1","1,0.333,0.333,0.333,1,0.333,0.333,0.333,1","1,0.333,0.333,0.333,1,0.333,0.333,0.333,1","1",""
"","html-keyboard-response","243","103928","0.0-243.0","3YT88D1N09K989NCLVWJAA2RKY53KX","A1ROEDVMTO9Y3X","3UDTAB6HH6LRO17U79I9TKUGYFV09C","","null","<img src=""img/flower2.png"" style=""width:200px; border:14px solid green;"">","null","","","","","","","","",""
"","image-keyboard-response","244","104222","0.0-244.0","3YT88D1N09K989NCLVWJAA2RKY53KX","A1ROEDVMTO9Y3X","3UDTAB6HH6LRO17U79I9TKUGYFV09C","","291.80000001192093","img/flower6.png","76","293.20000000298023","3","0","1","1","1,0.333,0.333,0.333,1,0.333,0.333,0.333,1","1,0.333,0.333,0.333,1,0.333,0.333,0.333,1","1",""
"","html-keyboard-response","245","104524","0.0-245.0","3YT88D1N09K989NCLVWJAA2RKY53KX","A1ROEDVMTO9Y3X","3UDTAB6HH6LRO17U79I9TKUGYFV09C","","null","<img src=""img/flower6.png"" style=""width:200px;border:14px solid red;"">","null","","","","","","","","",""
"","image-keyboard-response","246","104710","0.0-246.0","3YT88D1N09K989NCLVWJAA2RKY53KX","A1ROEDVMTO9Y3X","3UDTAB6HH6LRO17U79I9TKUGYFV09C","","185","img/flower2.png","76","185.29999999701977","3","1","2","1","1,0.333,0.333,0.333,1,0.333,0.333,0.333,1","1,0.333,0.333,0.333,1,0.333,0.333,0.333,1","1",""
"","html-keyboard-response","247","105012","0.0-247.0","3YT88D1N09K989NCLVWJAA2RKY53KX","A1ROEDVMTO9Y3X","3UDTAB6HH6LRO17U79I9TKUGYFV09C","","null","<img src=""img/flower2.png"" style=""width:200px; border:14px solid green;"">","null","","","","","","","","",""
"","image-keyboard-response","248","105205","0.0-248.0","3YT88D1N09K989NCLVWJAA2RKY53KX","A1ROEDVMTO9Y3X","3UDTAB6HH6LRO17U79I9TKUGYFV09C","","191.90000000596046","img/flower1.png","76","193","3","1","3","1","1,0.333,0.333,0.333,1,0.333,0.333,0.333,1","1,0.333,0.333,0.333,1,0.333,0.333,0.333,1","1",""
"","html-keyboard-response","249","105507","0.0-249.0","3YT88D1N09K989NCLVWJAA2RKY53KX","A1ROEDVMTO9Y3X","3UDTAB6HH6LRO17U79I9TKUGYFV09C","","null","<img src=""img/flower1.png"" style=""width:200px; border:14px solid green;"">","null","","","","","","","","",""
"","image-keyboard-response","250","105713","0.0-250.0","3YT88D1N09K989NCLVWJAA2RKY53KX","A1ROEDVMTO9Y3X","3UDTAB6HH6LRO17U79I9TKUGYFV09C","","204.1000000089407","img/flower2.png","76","205.29999999701977","3","1","2","1","1,0.333,0.333,0.333,1,0.333,0.333,0.333,1","1,0.333,0.333,0.333,1,0.333,0.333,0.333,1","1",""
"","html-keyboard-response","251","106016","0.0-251.0","3YT88D1N09K989NCLVWJAA2RKY53KX","A1ROEDVMTO9Y3X","3UDTAB6HH6LRO17U79I9TKUGYFV09C","","null","<img src=""img/flower2.png"" style=""width:200px; border:14px solid green;"">","null","","","","","","","","",""
"","image-keyboard-response","252","106490","0.0-252.0","3YT88D1N09K989NCLVWJAA2RKY53KX","A1ROEDVMTO9Y3X","3UDTAB6HH6LRO17U79I9TKUGYFV09C","","472.79999999701977","img/flower1.png","76","473.90000000596046","3","1","3","1","1,0.333,0.333,0.333,1,0.333,0.333,0.333,1","1,0.333,0.333,0.333,1,0.333,0.333,0.333,1","1",""
"","html-keyboard-response","253","106791","0.0-253.0","3YT88D1N09K989NCLVWJAA2RKY53KX","A1ROEDVMTO9Y3X","3UDTAB6HH6LRO17U79I9TKUGYFV09C","","null","<img src=""img/flower1.png"" style=""width:200px; border:14px solid green;"">","null","","","","","","","","",""
"","image-keyboard-response","254","107451","0.0-254.0","3YT88D1N09K989NCLVWJAA2RKY53KX","A1ROEDVMTO9Y3X","3UDTAB6HH6LRO17U79I9TKUGYFV09C","","658.5999999940395","img/flower6.png","76","659.7000000029802","3","0","1","1","1,0.333,0.333,0.333,1,0.333,0.333,0.333,1","1,0.333,0.333,0.333,1,0.333,0.333,0.333,1","1",""
"","html-keyboard-response","255","107753","0.0-255.0","3YT88D1N09K989NCLVWJAA2RKY53KX","A1ROEDVMTO9Y3X","3UDTAB6HH6LRO17U79I9TKUGYFV09C","","null","<img src=""img/flower6.png"" style=""width:200px;border:14px solid red;"">","null","","","","","","","","",""
"","image-keyboard-response","256","108220","0.0-256.0","3YT88D1N09K989NCLVWJAA2RKY53KX","A1ROEDVMTO9Y3X","3UDTAB6HH6LRO17U79I9TKUGYFV09C","","465.8999999910593","img/flower6.png","76","466.90000000596046","3","1","1","1","1,0.333,0.333,0.333,1,0.333,0.333,0.333,1","1,0.333,0.333,0.333,1,0.333,0.333,0.333,1","1",""
"","html-keyboard-response","257","108522","0.0-257.0","3YT88D1N09K989NCLVWJAA2RKY53KX","A1ROEDVMTO9Y3X","3UDTAB6HH6LRO17U79I9TKUGYFV09C","","null","<img src=""img/flower6.png"" style=""width:200px; border:14px solid green;"">","null","","","","","","","","",""
"","image-keyboard-response","258","109063","0.0-258.0","3YT88D1N09K989NCLVWJAA2RKY53KX","A1ROEDVMTO9Y3X","3UDTAB6HH6LRO17U79I9TKUGYFV09C","","540.6000000089407","img/flower2.png","76","541.5","3","0","2","1","1,0.333,0.333,0.333,1,0.333,0.333,0.333,1","1,0.333,0.333,0.333,1,0.333,0.333,0.333,1","1",""
"","html-keyboard-response","259","109365","0.0-259.0","3YT88D1N09K989NCLVWJAA2RKY53KX","A1ROEDVMTO9Y3X","3UDTAB6HH6LRO17U79I9TKUGYFV09C","","null","<img src=""img/flower2.png"" style=""width:200px;border:14px solid red;"">","null","","","","","","","","",""
"","image-keyboard-response","260","109932","0.0-260.0","3YT88D1N09K989NCLVWJAA2RKY53KX","A1ROEDVMTO9Y3X","3UDTAB6HH6LRO17U79I9TKUGYFV09C","","566.2000000029802","img/flower2.png","75","566.8999999910593","2","1","2","1","1,0.333,0.333,0.333,1,0.333,0.333,0.333,1","1,0.333,0.333,0.333,1,0.333,0.333,0.333,1","1",""
"","html-keyboard-response","261","110235","0.0-261.0","3YT88D1N09K989NCLVWJAA2RKY53KX","A1ROEDVMTO9Y3X","3UDTAB6HH6LRO17U79I9TKUGYFV09C","","null","<img src=""img/flower2.png"" style=""width:200px; border:14px solid green;"">","null","","","","","","","","",""
"","image-keyboard-response","262","110561","0.0-262.0","3YT88D1N09K989NCLVWJAA2RKY53KX","A1ROEDVMTO9Y3X","3UDTAB6HH6LRO17U79I9TKUGYFV09C","","325.59999999403954","img/flower1.png","75","326.29999999701977","2","0","3","1","1,0.333,0.333,0.333,1,0.333,0.333,0.333,1","1,0.333,0.333,0.333,1,0.333,0.333,0.333,1","1",""
"","html-keyboard-response","263","110863","0.0-263.0","3YT88D1N09K989NCLVWJAA2RKY53KX","A1ROEDVMTO9Y3X","3UDTAB6HH6LRO17U79I9TKUGYFV09C","","null","<img src=""img/flower1.png"" style=""width:200px;border:14px solid red;"">","null","","","","","","","","",""
"","image-keyboard-response","264","111418","0.0-264.0","3YT88D1N09K989NCLVWJAA2RKY53KX","A1ROEDVMTO9Y3X","3UDTAB6HH6LRO17U79I9TKUGYFV09C","","553.9000000059605","img/flower6.png","76","554.4000000059605","3","1","1","1","1,0.333,0.333,0.333,1,0.333,0.333,0.333,1","1,0.333,0.333,0.333,1,0.333,0.333,0.333,1","1",""
"","html-keyboard-response","265","111719","0.0-265.0","3YT88D1N09K989NCLVWJAA2RKY53KX","A1ROEDVMTO9Y3X","3UDTAB6HH6LRO17U79I9TKUGYFV09C","","null","<img src=""img/flower6.png"" style=""width:200px; border:14px solid green;"">","null","","","","","","","","",""
"","image-keyboard-response","266","112979","0.0-266.0","3YT88D1N09K989NCLVWJAA2RKY53KX","A1ROEDVMTO9Y3X","3UDTAB6HH6LRO17U79I9TKUGYFV09C","","1258.1000000089407","img/flower6.png","76","1259.5","3","0","1","1","1,0.333,0.333,0.333,1,0.333,0.333,0.333,1","1,0.333,0.333,0.333,1,0.333,0.333,0.333,1","1",""
"","html-keyboard-response","267","113282","0.0-267.0","3YT88D1N09K989NCLVWJAA2RKY53KX","A1ROEDVMTO9Y3X","3UDTAB6HH6LRO17U79I9TKUGYFV09C","","null","<img src=""img/flower6.png"" style=""width:200px;border:14px solid red;"">","null","","","","","","","","",""
"","image-keyboard-response","268","113431","0.0-268.0","3YT88D1N09K989NCLVWJAA2RKY53KX","A1ROEDVMTO9Y3X","3UDTAB6HH6LRO17U79I9TKUGYFV09C","","147.79999999701977","img/flower1.png","76","148.79999999701977","3","1","3","1","1,0.333,0.333,0.333,1,0.333,0.333,0.333,1","1,0.333,0.333,0.333,1,0.333,0.333,0.333,1","1",""
"","html-keyboard-response","269","113740","0.0-269.0","3YT88D1N09K989NCLVWJAA2RKY53KX","A1ROEDVMTO9Y3X","3UDTAB6HH6LRO17U79I9TKUGYFV09C","","null","<img src=""img/flower1.png"" style=""width:200px; border:14px solid green;"">","null","","","","","","","","",""
"","image-keyboard-response","270","114237","0.0-270.0","3YT88D1N09K989NCLVWJAA2RKY53KX","A1ROEDVMTO9Y3X","3UDTAB6HH6LRO17U79I9TKUGYFV09C","","494.80000001192093","img/flower6.png","76","496.20000000298023","3","0","1","1","1,0.333,0.333,0.333,1,0.333,0.333,0.333,1","1,0.333,0.333,0.333,1,0.333,0.333,0.333,1","1",""
"","html-keyboard-response","271","114539","0.0-271.0","3YT88D1N09K989NCLVWJAA2RKY53KX","A1ROEDVMTO9Y3X","3UDTAB6HH6LRO17U79I9TKUGYFV09C","","null","<img src=""img/flower6.png"" style=""width:200px;border:14px solid red;"">","null","","","","","","","","",""
"","image-keyboard-response","272","114853","0.0-272.0","3YT88D1N09K989NCLVWJAA2RKY53KX","A1ROEDVMTO9Y3X","3UDTAB6HH6LRO17U79I9TKUGYFV09C","","312","img/flower6.png","76","313.19999998807907","3","1","1","1","1,0.333,0.333,0.333,1,0.333,0.333,0.333,1","1,0.333,0.333,0.333,1,0.333,0.333,0.333,1","1",""
"","html-keyboard-response","273","115155","0.0-273.0","3YT88D1N09K989NCLVWJAA2RKY53KX","A1ROEDVMTO9Y3X","3UDTAB6HH6LRO17U79I9TKUGYFV09C","","null","<img src=""img/flower6.png"" style=""width:200px; border:14px solid green;"">","null","","","","","","","","",""
"","image-keyboard-response","274","115506","0.0-274.0","3YT88D1N09K989NCLVWJAA2RKY53KX","A1ROEDVMTO9Y3X","3UDTAB6HH6LRO17U79I9TKUGYFV09C","","350","img/flower2.png","76","350.90000000596046","3","0","2","1","1,0.333,0.333,0.333,1,0.333,0.333,0.333,1","1,0.333,0.333,0.333,1,0.333,0.333,0.333,1","1",""
"","html-keyboard-response","275","115809","0.0-275.0","3YT88D1N09K989NCLVWJAA2RKY53KX","A1ROEDVMTO9Y3X","3UDTAB6HH6LRO17U79I9TKUGYFV09C","","null","<img src=""img/flower2.png"" style=""width:200px;border:14px solid red;"">","null","","","","","","","","",""
"","image-keyboard-response","276","116322","0.0-276.0","3YT88D1N09K989NCLVWJAA2RKY53KX","A1ROEDVMTO9Y3X","3UDTAB6HH6LRO17U79I9TKUGYFV09C","","512","img/flower2.png","76","513.0999999940395","3","0","2","1","1,0.333,0.333,0.333,1,0.333,0.333,0.333,1","1,0.333,0.333,0.333,1,0.333,0.333,0.333,1","1",""
"","html-keyboard-response","277","116624","0.0-277.0","3YT88D1N09K989NCLVWJAA2RKY53KX","A1ROEDVMTO9Y3X","3UDTAB6HH6LRO17U79I9TKUGYFV09C","","null","<img src=""img/flower2.png"" style=""width:200px;border:14px solid red;"">","null","","","","","","","","",""
"","image-keyboard-response","278","116924","0.0-278.0","3YT88D1N09K989NCLVWJAA2RKY53KX","A1ROEDVMTO9Y3X","3UDTAB6HH6LRO17U79I9TKUGYFV09C","","299.40000000596046","img/flower2.png","75","300.1000000089407","2","1","2","1","1,0.333,0.333,0.333,1,0.333,0.333,0.333,1","1,0.333,0.333,0.333,1,0.333,0.333,0.333,1","1",""
"","html-keyboard-response","279","117226","0.0-279.0","3YT88D1N09K989NCLVWJAA2RKY53KX","A1ROEDVMTO9Y3X","3UDTAB6HH6LRO17U79I9TKUGYFV09C","","null","<img src=""img/flower2.png"" style=""width:200px; border:14px solid green;"">","null","","","","","","","","",""
"","image-keyboard-response","280","117869","0.0-280.0","3YT88D1N09K989NCLVWJAA2RKY53KX","A1ROEDVMTO9Y3X","3UDTAB6HH6LRO17U79I9TKUGYFV09C","","641.7999999970198","img/flower1.png","76","642.3000000119209","3","1","3","1","1,0.333,0.333,0.333,1,0.333,0.333,0.333,1","1,0.333,0.333,0.333,1,0.333,0.333,0.333,1","1",""
"","html-keyboard-response","281","118170","0.0-281.0","3YT88D1N09K989NCLVWJAA2RKY53KX","A1ROEDVMTO9Y3X","3UDTAB6HH6LRO17U79I9TKUGYFV09C","","null","<img src=""img/flower1.png"" style=""width:200px; border:14px solid green;"">","null","","","","","","","","",""
"","image-keyboard-response","282","118464","0.0-282.0","3YT88D1N09K989NCLVWJAA2RKY53KX","A1ROEDVMTO9Y3X","3UDTAB6HH6LRO17U79I9TKUGYFV09C","","292.79999999701977","img/flower2.png","76","293.79999999701977","3","0","2","1","1,0.333,0.333,0.333,1,0.333,0.333,0.333,1","1,0.333,0.333,0.333,1,0.333,0.333,0.333,1","1",""
"","html-keyboard-response","283","118765","0.0-283.0","3YT88D1N09K989NCLVWJAA2RKY53KX","A1ROEDVMTO9Y3X","3UDTAB6HH6LRO17U79I9TKUGYFV09C","","null","<img src=""img/flower2.png"" style=""width:200px;border:14px solid red;"">","null","","","","","","","","",""
"","image-keyboard-response","284","119325","0.0-284.0","3YT88D1N09K989NCLVWJAA2RKY53KX","A1ROEDVMTO9Y3X","3UDTAB6HH6LRO17U79I9TKUGYFV09C","","558.2000000029802","img/flower1.png","76","559.4000000059605","3","1","3","1","1,0.333,0.333,0.333,1,0.333,0.333,0.333,1","1,0.333,0.333,0.333,1,0.333,0.333,0.333,1","1",""
"","html-keyboard-response","285","119627","0.0-285.0","3YT88D1N09K989NCLVWJAA2RKY53KX","A1ROEDVMTO9Y3X","3UDTAB6HH6LRO17U79I9TKUGYFV09C","","null","<img src=""img/flower1.png"" style=""width:200px; border:14px solid green;"">","null","","","","","","","","",""
"","image-keyboard-response","286","120166","0.0-286.0","3YT88D1N09K989NCLVWJAA2RKY53KX","A1ROEDVMTO9Y3X","3UDTAB6HH6LRO17U79I9TKUGYFV09C","","536.6000000089407","img/flower6.png","76","537.7999999970198","3","0","1","1","1,0.333,0.333,0.333,1,0.333,0.333,0.333,1","1,0.333,0.333,0.333,1,0.333,0.333,0.333,1","1",""
"","html-keyboard-response","287","120468","0.0-287.0","3YT88D1N09K989NCLVWJAA2RKY53KX","A1ROEDVMTO9Y3X","3UDTAB6HH6LRO17U79I9TKUGYFV09C","","null","<img src=""img/flower6.png"" style=""width:200px;border:14px solid red;"">","null","","","","","","","","",""
"","image-keyboard-response","288","120905","0.0-288.0","3YT88D1N09K989NCLVWJAA2RKY53KX","A1ROEDVMTO9Y3X","3UDTAB6HH6LRO17U79I9TKUGYFV09C","","436.40000000596046","img/flower1.png","76","437.09999999403954","3","1","3","1","1,0.333,0.333,0.333,1,0.333,0.333,0.333,1","1,0.333,0.333,0.333,1,0.333,0.333,0.333,1","1",""
"","html-keyboard-response","289","121207","0.0-289.0","3YT88D1N09K989NCLVWJAA2RKY53KX","A1ROEDVMTO9Y3X","3UDTAB6HH6LRO17U79I9TKUGYFV09C","","null","<img src=""img/flower1.png"" style=""width:200px; border:14px solid green;"">","null","","","","","","","","",""
"","image-keyboard-response","290","121596","0.0-290.0","3YT88D1N09K989NCLVWJAA2RKY53KX","A1ROEDVMTO9Y3X","3UDTAB6HH6LRO17U79I9TKUGYFV09C","","387.59999999403954","img/flower2.png","76","388.79999999701977","3","0","2","1","1,0.333,0.333,0.333,1,0.333,0.333,0.333,1","1,0.333,0.333,0.333,1,0.333,0.333,0.333,1","1",""
"","html-keyboard-response","291","121898","0.0-291.0","3YT88D1N09K989NCLVWJAA2RKY53KX","A1ROEDVMTO9Y3X","3UDTAB6HH6LRO17U79I9TKUGYFV09C","","null","<img src=""img/flower2.png"" style=""width:200px;border:14px solid red;"">","null","","","","","","","","",""
"","image-keyboard-response","292","122177","0.0-292.0","3YT88D1N09K989NCLVWJAA2RKY53KX","A1ROEDVMTO9Y3X","3UDTAB6HH6LRO17U79I9TKUGYFV09C","","277.5","img/flower6.png","76","278.70000000298023","3","0","1","1","1,0.333,0.333,0.333,1,0.333,0.333,0.333,1","1,0.333,0.333,0.333,1,0.333,0.333,0.333,1","1",""
"","html-keyboard-response","293","122478","0.0-293.0","3YT88D1N09K989NCLVWJAA2RKY53KX","A1ROEDVMTO9Y3X","3UDTAB6HH6LRO17U79I9TKUGYFV09C","","null","<img src=""img/flower6.png"" style=""width:200px;border:14px solid red;"">","null","","","","","","","","",""
"","image-keyboard-response","294","122745","0.0-294.0","3YT88D1N09K989NCLVWJAA2RKY53KX","A1ROEDVMTO9Y3X","3UDTAB6HH6LRO17U79I9TKUGYFV09C","","265.6000000089407","img/flower1.png","76","266.29999999701977","3","1","3","1","1,0.333,0.333,0.333,1,0.333,0.333,0.333,1","1,0.333,0.333,0.333,1,0.333,0.333,0.333,1","1",""
"","html-keyboard-response","295","123047","0.0-295.0","3YT88D1N09K989NCLVWJAA2RKY53KX","A1ROEDVMTO9Y3X","3UDTAB6HH6LRO17U79I9TKUGYFV09C","","null","<img src=""img/flower1.png"" style=""width:200px; border:14px solid green;"">","null","","","","","","","","",""
"","image-keyboard-response","296","123609","0.0-296.0","3YT88D1N09K989NCLVWJAA2RKY53KX","A1ROEDVMTO9Y3X","3UDTAB6HH6LRO17U79I9TKUGYFV09C","","560.5","img/flower2.png","75","561.8000000119209","2","1","2","1","1,0.333,0.333,0.333,1,0.333,0.333,0.333,1","1,0.333,0.333,0.333,1,0.333,0.333,0.333,1","1",""
"","html-keyboard-response","297","123911","0.0-297.0","3YT88D1N09K989NCLVWJAA2RKY53KX","A1ROEDVMTO9Y3X","3UDTAB6HH6LRO17U79I9TKUGYFV09C","","null","<img src=""img/flower2.png"" style=""width:200px; border:14px solid green;"">","null","","","","","","","","",""
"","image-keyboard-response","298","124476","0.0-298.0","3YT88D1N09K989NCLVWJAA2RKY53KX","A1ROEDVMTO9Y3X","3UDTAB6HH6LRO17U79I9TKUGYFV09C","","564.4000000059605","img/flower6.png","75","565.2999999970198","2","1","1","1","1,0.333,0.333,0.333,1,0.333,0.333,0.333,1","1,0.333,0.333,0.333,1,0.333,0.333,0.333,1","1",""
"","html-keyboard-response","299","124778","0.0-299.0","3YT88D1N09K989NCLVWJAA2RKY53KX","A1ROEDVMTO9Y3X","3UDTAB6HH6LRO17U79I9TKUGYFV09C","","null","<img src=""img/flower6.png"" style=""width:200px; border:14px solid green;"">","null","","","","","","","","",""
"","image-keyboard-response","300","125589","0.0-300.0","3YT88D1N09K989NCLVWJAA2RKY53KX","A1ROEDVMTO9Y3X","3UDTAB6HH6LRO17U79I9TKUGYFV09C","","809.5999999940395","img/flower6.png","76","810.7999999970198","3","0","1","1","1,0.333,0.333,0.333,1,0.333,0.333,0.333,1","1,0.333,0.333,0.333,1,0.333,0.333,0.333,1","1",""
"","html-keyboard-response","301","125891","0.0-301.0","3YT88D1N09K989NCLVWJAA2RKY53KX","A1ROEDVMTO9Y3X","3UDTAB6HH6LRO17U79I9TKUGYFV09C","","null","<img src=""img/flower6.png"" style=""width:200px;border:14px solid red;"">","null","","","","","","","","",""
"","image-keyboard-response","302","126432","0.0-302.0","3YT88D1N09K989NCLVWJAA2RKY53KX","A1ROEDVMTO9Y3X","3UDTAB6HH6LRO17U79I9TKUGYFV09C","","539.6000000089407","img/flower2.png","75","540.3999999910593","2","1","2","1","1,0.333,0.333,0.333,1,0.333,0.333,0.333,1","1,0.333,0.333,0.333,1,0.333,0.333,0.333,1","1",""
"","html-keyboard-response","303","126734","0.0-303.0","3YT88D1N09K989NCLVWJAA2RKY53KX","A1ROEDVMTO9Y3X","3UDTAB6HH6LRO17U79I9TKUGYFV09C","","null","<img src=""img/flower2.png"" style=""width:200px; border:14px solid green;"">","null","","","","","","","","",""
"","image-keyboard-response","304","128209","0.0-304.0","3YT88D1N09K989NCLVWJAA2RKY53KX","A1ROEDVMTO9Y3X","3UDTAB6HH6LRO17U79I9TKUGYFV09C","","1474","img/flower6.png","76","1475.3999999910593","3","0","1","1","1,0.333,0.333,0.333,1,0.333,0.333,0.333,1","1,0.333,0.333,0.333,1,0.333,0.333,0.333,1","1",""
"","html-keyboard-response","305","128513","0.0-305.0","3YT88D1N09K989NCLVWJAA2RKY53KX","A1ROEDVMTO9Y3X","3UDTAB6HH6LRO17U79I9TKUGYFV09C","","null","<img src=""img/flower6.png"" style=""width:200px;border:14px solid red;"">","null","","","","","","","","",""
"","image-keyboard-response","306","128627","0.0-306.0","3YT88D1N09K989NCLVWJAA2RKY53KX","A1ROEDVMTO9Y3X","3UDTAB6HH6LRO17U79I9TKUGYFV09C","","113.09999999403954","img/flower1.png","76","114","3","1","3","1","1,0.333,0.333,0.333,1,0.333,0.333,0.333,1","1,0.333,0.333,0.333,1,0.333,0.333,0.333,1","1",""
"","html-keyboard-response","307","128928","0.0-307.0","3YT88D1N09K989NCLVWJAA2RKY53KX","A1ROEDVMTO9Y3X","3UDTAB6HH6LRO17U79I9TKUGYFV09C","","null","<img src=""img/flower1.png"" style=""width:200px; border:14px solid green;"">","null","","","","","","","","",""
"","image-keyboard-response","308","129282","0.0-308.0","3YT88D1N09K989NCLVWJAA2RKY53KX","A1ROEDVMTO9Y3X","3UDTAB6HH6LRO17U79I9TKUGYFV09C","","352.09999999403954","img/flower2.png","76","353.40000000596046","3","1","2","1","1,0.333,0.333,0.333,1,0.333,0.333,0.333,1","1,0.333,0.333,0.333,1,0.333,0.333,0.333,1","1",""
"","html-keyboard-response","309","129584","0.0-309.0","3YT88D1N09K989NCLVWJAA2RKY53KX","A1ROEDVMTO9Y3X","3UDTAB6HH6LRO17U79I9TKUGYFV09C","","null","<img src=""img/flower2.png"" style=""width:200px; border:14px solid green;"">","null","","","","","","","","",""
"","image-keyboard-response","310","131492","0.0-310.0","3YT88D1N09K989NCLVWJAA2RKY53KX","A1ROEDVMTO9Y3X","3UDTAB6HH6LRO17U79I9TKUGYFV09C","","1906.7999999970198","img/flower2.png","74","1907.7000000029802","1","0","2","1","1,0.333,0.333,0.333,1,0.333,0.333,0.333,1","1,0.333,0.333,0.333,1,0.333,0.333,0.333,1","1",""
"","html-keyboard-response","311","131800","0.0-311.0","3YT88D1N09K989NCLVWJAA2RKY53KX","A1ROEDVMTO9Y3X","3UDTAB6HH6LRO17U79I9TKUGYFV09C","","null","<img src=""img/flower2.png"" style=""width:200px;border:14px solid red;"">","null","","","","","","","","",""
"","image-keyboard-response","312","132277","0.0-312.0","3YT88D1N09K989NCLVWJAA2RKY53KX","A1ROEDVMTO9Y3X","3UDTAB6HH6LRO17U79I9TKUGYFV09C","","476","img/flower6.png","76","477","3","0","1","1","1,0.333,0.333,0.333,1,0.333,0.333,0.333,1","1,0.333,0.333,0.333,1,0.333,0.333,0.333,1","1",""
"","html-keyboard-response","313","132579","0.0-313.0","3YT88D1N09K989NCLVWJAA2RKY53KX","A1ROEDVMTO9Y3X","3UDTAB6HH6LRO17U79I9TKUGYFV09C","","null","<img src=""img/flower6.png"" style=""width:200px;border:14px solid red;"">","null","","","","","","","","",""
"","image-keyboard-response","314","132810","0.0-314.0","3YT88D1N09K989NCLVWJAA2RKY53KX","A1ROEDVMTO9Y3X","3UDTAB6HH6LRO17U79I9TKUGYFV09C","","229.59999999403954","img/flower6.png","76","230.5","3","0","1","1","1,0.333,0.333,0.333,1,0.333,0.333,0.333,1","1,0.333,0.333,0.333,1,0.333,0.333,0.333,1","1",""
"","html-keyboard-response","315","133125","0.0-315.0","3YT88D1N09K989NCLVWJAA2RKY53KX","A1ROEDVMTO9Y3X","3UDTAB6HH6LRO17U79I9TKUGYFV09C","","null","<img src=""img/flower6.png"" style=""width:200px;border:14px solid red;"">","null","","","","","","","","",""
"","image-keyboard-response","316","133289","0.0-316.0","3YT88D1N09K989NCLVWJAA2RKY53KX","A1ROEDVMTO9Y3X","3UDTAB6HH6LRO17U79I9TKUGYFV09C","","162.59999999403954","img/flower1.png","75","163.3999999910593","2","0","3","1","1,0.333,0.333,0.333,1,0.333,0.333,0.333,1","1,0.333,0.333,0.333,1,0.333,0.333,0.333,1","1",""
"","html-keyboard-response","317","133590","0.0-317.0","3YT88D1N09K989NCLVWJAA2RKY53KX","A1ROEDVMTO9Y3X","3UDTAB6HH6LRO17U79I9TKUGYFV09C","","null","<img src=""img/flower1.png"" style=""width:200px;border:14px solid red;"">","null","","","","","","","","",""
"","image-keyboard-response","318","134527","0.0-318.0","3YT88D1N09K989NCLVWJAA2RKY53KX","A1ROEDVMTO9Y3X","3UDTAB6HH6LRO17U79I9TKUGYFV09C","","935.6999999880791","img/flower2.png","74","936.5999999940395","1","1","2","1","1,0.333,0.333,0.333,1,0.333,0.333,0.333,1","1,0.333,0.333,0.333,1,0.333,0.333,0.333,1","1",""
"","html-keyboard-response","319","134829","0.0-319.0","3YT88D1N09K989NCLVWJAA2RKY53KX","A1ROEDVMTO9Y3X","3UDTAB6HH6LRO17U79I9TKUGYFV09C","","null","<img src=""img/flower2.png"" style=""width:200px; border:14px solid green;"">","null","","","","","","","","",""
"","image-keyboard-response","320","135253","0.0-320.0","3YT88D1N09K989NCLVWJAA2RKY53KX","A1ROEDVMTO9Y3X","3UDTAB6HH6LRO17U79I9TKUGYFV09C","","422.79999999701977","img/flower1.png","74","423.6000000089407","1","0","3","1","1,0.333,0.333,0.333,1,0.333,0.333,0.333,1","1,0.333,0.333,0.333,1,0.333,0.333,0.333,1","1",""
"","html-keyboard-response","321","135555","0.0-321.0","3YT88D1N09K989NCLVWJAA2RKY53KX","A1ROEDVMTO9Y3X","3UDTAB6HH6LRO17U79I9TKUGYFV09C","","null","<img src=""img/flower1.png"" style=""width:200px;border:14px solid red;"">","null","","","","","","","","",""
"","image-keyboard-response","322","135802","0.0-322.0","3YT88D1N09K989NCLVWJAA2RKY53KX","A1ROEDVMTO9Y3X","3UDTAB6HH6LRO17U79I9TKUGYFV09C","","245.30000001192093","img/flower2.png","76","246.70000000298023","3","0","2","1","1,0.333,0.333,0.333,1,0.333,0.333,0.333,1","1,0.333,0.333,0.333,1,0.333,0.333,0.333,1","1",""
"","html-keyboard-response","323","136105","0.0-323.0","3YT88D1N09K989NCLVWJAA2RKY53KX","A1ROEDVMTO9Y3X","3UDTAB6HH6LRO17U79I9TKUGYFV09C","","null","<img src=""img/flower2.png"" style=""width:200px;border:14px solid red;"">","null","","","","","","","","",""
"","image-keyboard-response","324","136262","0.0-324.0","3YT88D1N09K989NCLVWJAA2RKY53KX","A1ROEDVMTO9Y3X","3UDTAB6HH6LRO17U79I9TKUGYFV09C","","155.6000000089407","img/flower2.png","76","156.20000000298023","3","1","2","1","1,0.333,0.333,0.333,1,0.333,0.333,0.333,1","1,0.333,0.333,0.333,1,0.333,0.333,0.333,1","1",""
"","html-keyboard-response","325","136563","0.0-325.0","3YT88D1N09K989NCLVWJAA2RKY53KX","A1ROEDVMTO9Y3X","3UDTAB6HH6LRO17U79I9TKUGYFV09C","","null","<img src=""img/flower2.png"" style=""width:200px; border:14px solid green;"">","null","","","","","","","","",""
"","image-keyboard-response","326","136875","0.0-326.0","3YT88D1N09K989NCLVWJAA2RKY53KX","A1ROEDVMTO9Y3X","3UDTAB6HH6LRO17U79I9TKUGYFV09C","","310","img/flower2.png","76","311.1000000089407","3","0","2","1","1,0.333,0.333,0.333,1,0.333,0.333,0.333,1","1,0.333,0.333,0.333,1,0.333,0.333,0.333,1","1",""
"","html-keyboard-response","327","137176","0.0-327.0","3YT88D1N09K989NCLVWJAA2RKY53KX","A1ROEDVMTO9Y3X","3UDTAB6HH6LRO17U79I9TKUGYFV09C","","null","<img src=""img/flower2.png"" style=""width:200px;border:14px solid red;"">","null","","","","","","","","",""
"","image-keyboard-response","328","137826","0.0-328.0","3YT88D1N09K989NCLVWJAA2RKY53KX","A1ROEDVMTO9Y3X","3UDTAB6HH6LRO17U79I9TKUGYFV09C","","649.5","img/flower1.png","76","650.4000000059605","3","1","3","1","1,0.333,0.333,0.333,1,0.333,0.333,0.333,1","1,0.333,0.333,0.333,1,0.333,0.333,0.333,1","1",""
"","html-keyboard-response","329","138129","0.0-329.0","3YT88D1N09K989NCLVWJAA2RKY53KX","A1ROEDVMTO9Y3X","3UDTAB6HH6LRO17U79I9TKUGYFV09C","","null","<img src=""img/flower1.png"" style=""width:200px; border:14px solid green;"">","null","","","","","","","","",""
"","image-keyboard-response","330","138558","0.0-330.0","3YT88D1N09K989NCLVWJAA2RKY53KX","A1ROEDVMTO9Y3X","3UDTAB6HH6LRO17U79I9TKUGYFV09C","","428.20000000298023","img/flower6.png","76","428.8999999910593","3","0","1","1","1,0.333,0.333,0.333,1,0.333,0.333,0.333,1","1,0.333,0.333,0.333,1,0.333,0.333,0.333,1","1",""
"","html-keyboard-response","331","138859","0.0-331.0","3YT88D1N09K989NCLVWJAA2RKY53KX","A1ROEDVMTO9Y3X","3UDTAB6HH6LRO17U79I9TKUGYFV09C","","null","<img src=""img/flower6.png"" style=""width:200px;border:14px solid red;"">","null","","","","","","","","",""
"","image-keyboard-response","332","139613","0.0-332.0","3YT88D1N09K989NCLVWJAA2RKY53KX","A1ROEDVMTO9Y3X","3UDTAB6HH6LRO17U79I9TKUGYFV09C","","752.5","img/flower6.png","76","753.1999999880791","3","0","1","1","1,0.333,0.333,0.333,1,0.333,0.333,0.333,1","1,0.333,0.333,0.333,1,0.333,0.333,0.333,1","1",""
"","html-keyboard-response","333","139916","0.0-333.0","3YT88D1N09K989NCLVWJAA2RKY53KX","A1ROEDVMTO9Y3X","3UDTAB6HH6LRO17U79I9TKUGYFV09C","","null","<img src=""img/flower6.png"" style=""width:200px;border:14px solid red;"">","null","","","","","","","","",""
"","image-keyboard-response","334","140481","0.0-334.0","3YT88D1N09K989NCLVWJAA2RKY53KX","A1ROEDVMTO9Y3X","3UDTAB6HH6LRO17U79I9TKUGYFV09C","","563","img/flower2.png","75","564.1000000089407","2","1","2","1","1,0.333,0.333,0.333,1,0.333,0.333,0.333,1","1,0.333,0.333,0.333,1,0.333,0.333,0.333,1","1",""
"","html-keyboard-response","335","140783","0.0-335.0","3YT88D1N09K989NCLVWJAA2RKY53KX","A1ROEDVMTO9Y3X","3UDTAB6HH6LRO17U79I9TKUGYFV09C","","null","<img src=""img/flower2.png"" style=""width:200px; border:14px solid green;"">","null","","","","","","","","",""
"","image-keyboard-response","336","141251","0.0-336.0","3YT88D1N09K989NCLVWJAA2RKY53KX","A1ROEDVMTO9Y3X","3UDTAB6HH6LRO17U79I9TKUGYFV09C","","466.30000001192093","img/flower1.png","76","467.5","3","1","3","1","1,0.333,0.333,0.333,1,0.333,0.333,0.333,1","1,0.333,0.333,0.333,1,0.333,0.333,0.333,1","1",""
"","html-keyboard-response","337","141553","0.0-337.0","3YT88D1N09K989NCLVWJAA2RKY53KX","A1ROEDVMTO9Y3X","3UDTAB6HH6LRO17U79I9TKUGYFV09C","","null","<img src=""img/flower1.png"" style=""width:200px; border:14px solid green;"">","null","","","","","","","","",""
"","image-keyboard-response","338","141970","0.0-338.0","3YT88D1N09K989NCLVWJAA2RKY53KX","A1ROEDVMTO9Y3X","3UDTAB6HH6LRO17U79I9TKUGYFV09C","","415.90000000596046","img/flower1.png","76","416.70000000298023","3","1","3","1","1,0.333,0.333,0.333,1,0.333,0.333,0.333,1","1,0.333,0.333,0.333,1,0.333,0.333,0.333,1","1",""
"","html-keyboard-response","339","142273","0.0-339.0","3YT88D1N09K989NCLVWJAA2RKY53KX","A1ROEDVMTO9Y3X","3UDTAB6HH6LRO17U79I9TKUGYFV09C","","null","<img src=""img/flower1.png"" style=""width:200px; border:14px solid green;"">","null","","","","","","","","",""
"","image-keyboard-response","340","142867","0.0-340.0","3YT88D1N09K989NCLVWJAA2RKY53KX","A1ROEDVMTO9Y3X","3UDTAB6HH6LRO17U79I9TKUGYFV09C","","593.0999999940395","img/flower6.png","76","594.2000000029802","3","0","1","1","1,0.333,0.333,0.333,1,0.333,0.333,0.333,1","1,0.333,0.333,0.333,1,0.333,0.333,0.333,1","1",""
"","html-keyboard-response","341","143169","0.0-341.0","3YT88D1N09K989NCLVWJAA2RKY53KX","A1ROEDVMTO9Y3X","3UDTAB6HH6LRO17U79I9TKUGYFV09C","","null","<img src=""img/flower6.png"" style=""width:200px;border:14px solid red;"">","null","","","","","","","","",""
"","image-keyboard-response","342","143570","0.0-342.0","3YT88D1N09K989NCLVWJAA2RKY53KX","A1ROEDVMTO9Y3X","3UDTAB6HH6LRO17U79I9TKUGYFV09C","","399","img/flower1.png","75","400.09999999403954","2","1","3","1","1,0.333,0.333,0.333,1,0.333,0.333,0.333,1","1,0.333,0.333,0.333,1,0.333,0.333,0.333,1","1",""
"","html-keyboard-response","343","143871","0.0-343.0","3YT88D1N09K989NCLVWJAA2RKY53KX","A1ROEDVMTO9Y3X","3UDTAB6HH6LRO17U79I9TKUGYFV09C","","null","<img src=""img/flower1.png"" style=""width:200px; border:14px solid green;"">","null","","","","","","","","",""
"","image-keyboard-response","344","144368","0.0-344.0","3YT88D1N09K989NCLVWJAA2RKY53KX","A1ROEDVMTO9Y3X","3UDTAB6HH6LRO17U79I9TKUGYFV09C","","495.70000000298023","img/flower6.png","75","496.5","2","0","1","1","1,0.333,0.333,0.333,1,0.333,0.333,0.333,1","1,0.333,0.333,0.333,1,0.333,0.333,0.333,1","1",""
"","html-keyboard-response","345","144670","0.0-345.0","3YT88D1N09K989NCLVWJAA2RKY53KX","A1ROEDVMTO9Y3X","3UDTAB6HH6LRO17U79I9TKUGYFV09C","","null","<img src=""img/flower6.png"" style=""width:200px;border:14px solid red;"">","null","","","","","","","","",""
"","image-keyboard-response","346","145081","0.0-346.0","3YT88D1N09K989NCLVWJAA2RKY53KX","A1ROEDVMTO9Y3X","3UDTAB6HH6LRO17U79I9TKUGYFV09C","","409.29999999701977","img/flower1.png","74","410.40000000596046","1","0","3","1","1,0.333,0.333,0.333,1,0.333,0.333,0.333,1","1,0.333,0.333,0.333,1,0.333,0.333,0.333,1","1",""
"","html-keyboard-response","347","145383","0.0-347.0","3YT88D1N09K989NCLVWJAA2RKY53KX","A1ROEDVMTO9Y3X","3UDTAB6HH6LRO17U79I9TKUGYFV09C","","null","<img src=""img/flower1.png"" style=""width:200px;border:14px solid red;"">","null","","","","","","","","",""
"","image-keyboard-response","348","145625","0.0-348.0","3YT88D1N09K989NCLVWJAA2RKY53KX","A1ROEDVMTO9Y3X","3UDTAB6HH6LRO17U79I9TKUGYFV09C","","241.20000000298023","img/flower6.png","76","242.29999999701977","3","0","1","1","1,0.333,0.333,0.333,1,0.333,0.333,0.333,1","1,0.333,0.333,0.333,1,0.333,0.333,0.333,1","1",""
"","html-keyboard-response","349","145926","0.0-349.0","3YT88D1N09K989NCLVWJAA2RKY53KX","A1ROEDVMTO9Y3X","3UDTAB6HH6LRO17U79I9TKUGYFV09C","","null","<img src=""img/flower6.png"" style=""width:200px;border:14px solid red;"">","null","","","","","","","","",""
"","image-keyboard-response","350","146205","0.0-350.0","3YT88D1N09K989NCLVWJAA2RKY53KX","A1ROEDVMTO9Y3X","3UDTAB6HH6LRO17U79I9TKUGYFV09C","","278.40000000596046","img/flower6.png","76","278.79999999701977","3","1","1","1","1,0.333,0.333,0.333,1,0.333,0.333,0.333,1","1,0.333,0.333,0.333,1,0.333,0.333,0.333,1","1",""
"","html-keyboard-response","351","146506","0.0-351.0","3YT88D1N09K989NCLVWJAA2RKY53KX","A1ROEDVMTO9Y3X","3UDTAB6HH6LRO17U79I9TKUGYFV09C","","null","<img src=""img/flower6.png"" style=""width:200px; border:14px solid green;"">","null","","","","","","","","",""
"","image-keyboard-response","352","147661","0.0-352.0","3YT88D1N09K989NCLVWJAA2RKY53KX","A1ROEDVMTO9Y3X","3UDTAB6HH6LRO17U79I9TKUGYFV09C","","1153.4000000059605","img/flower1.png","76","1154.5999999940395","3","1","3","1","1,0.333,0.333,0.333,1,0.333,0.333,0.333,1","1,0.333,0.333,0.333,1,0.333,0.333,0.333,1","1",""
"","html-keyboard-response","353","147962","0.0-353.0","3YT88D1N09K989NCLVWJAA2RKY53KX","A1ROEDVMTO9Y3X","3UDTAB6HH6LRO17U79I9TKUGYFV09C","","null","<img src=""img/flower1.png"" style=""width:200px; border:14px solid green;"">","null","","","","","","","","",""
"","image-keyboard-response","354","148314","0.0-354.0","3YT88D1N09K989NCLVWJAA2RKY53KX","A1ROEDVMTO9Y3X","3UDTAB6HH6LRO17U79I9TKUGYFV09C","","349.59999999403954","img/flower2.png","76","350.70000000298023","3","0","2","1","1,0.333,0.333,0.333,1,0.333,0.333,0.333,1","1,0.333,0.333,0.333,1,0.333,0.333,0.333,1","1",""
"","html-keyboard-response","355","148615","0.0-355.0","3YT88D1N09K989NCLVWJAA2RKY53KX","A1ROEDVMTO9Y3X","3UDTAB6HH6LRO17U79I9TKUGYFV09C","","null","<img src=""img/flower2.png"" style=""width:200px;border:14px solid red;"">","null","","","","","","","","",""
"","image-keyboard-response","356","149063","0.0-356.0","3YT88D1N09K989NCLVWJAA2RKY53KX","A1ROEDVMTO9Y3X","3UDTAB6HH6LRO17U79I9TKUGYFV09C","","446.40000000596046","img/flower1.png","75","447.5","2","0","3","1","1,0.333,0.333,0.333,1,0.333,0.333,0.333,1","1,0.333,0.333,0.333,1,0.333,0.333,0.333,1","1",""
"","html-keyboard-response","357","149364","0.0-357.0","3YT88D1N09K989NCLVWJAA2RKY53KX","A1ROEDVMTO9Y3X","3UDTAB6HH6LRO17U79I9TKUGYFV09C","","null","<img src=""img/flower1.png"" style=""width:200px;border:14px solid red;"">","null","","","","","","","","",""
"","image-keyboard-response","358","149831","0.0-358.0","3YT88D1N09K989NCLVWJAA2RKY53KX","A1ROEDVMTO9Y3X","3UDTAB6HH6LRO17U79I9TKUGYFV09C","","464.79999999701977","img/flower1.png","74","466","1","1","3","1","1,0.333,0.333,0.333,1,0.333,0.333,0.333,1","1,0.333,0.333,0.333,1,0.333,0.333,0.333,1","1",""
"","html-keyboard-response","359","150133","0.0-359.0","3YT88D1N09K989NCLVWJAA2RKY53KX","A1ROEDVMTO9Y3X","3UDTAB6HH6LRO17U79I9TKUGYFV09C","","null","<img src=""img/flower1.png"" style=""width:200px; border:14px solid green;"">","null","","","","","","","","",""
"","image-keyboard-response","360","150520","0.0-360.0","3YT88D1N09K989NCLVWJAA2RKY53KX","A1ROEDVMTO9Y3X","3UDTAB6HH6LRO17U79I9TKUGYFV09C","","385.90000000596046","img/flower1.png","74","386.79999999701977","1","0","3","1","1,0.333,0.333,0.333,1,0.333,0.333,0.333,1","1,0.333,0.333,0.333,1,0.333,0.333,0.333,1","1",""
"","html-keyboard-response","361","150822","0.0-361.0","3YT88D1N09K989NCLVWJAA2RKY53KX","A1ROEDVMTO9Y3X","3UDTAB6HH6LRO17U79I9TKUGYFV09C","","null","<img src=""img/flower1.png"" style=""width:200px;border:14px solid red;"">","null","","","","","","","","",""
"","html-keyboard-response","362","153216","0.0-362.0","3YT88D1N09K989NCLVWJAA2RKY53KX","A1ROEDVMTO9Y3X","3UDTAB6HH6LRO17U79I9TKUGYFV09C","","","","","","","","","","","","",""
"","instructions","363","154009","0.0-363.0","3YT88D1N09K989NCLVWJAA2RKY53KX","A1ROEDVMTO9Y3X","3UDTAB6HH6LRO17U79I9TKUGYFV09C","[{""page_index"":0,""viewing_time"":792.2000000029802}]","792.2999999970198","","","","","","","","","","",""
"","survey-text","364","156969","0.0-364.0","3YT88D1N09K989NCLVWJAA2RKY53KX","A1ROEDVMTO9Y3X","3UDTAB6HH6LRO17U79I9TKUGYFV09C","","2957.6000000089407","","","","","","","","","","","{""Q0"":""A1ROEDVMTO9Y3X""}"
