"success","trial_type","trial_index","time_elapsed","internal_node_id","assignmentID","mturkID","hitID","view_history","rt","stimulus","key_press","reactionTime","a","r","s","cond","reward_cond","reward_cond_actual","reward_matrix_idx","responses"
"true","fullscreen","0","2084","0.0-0.0","351SEKWQS132GPPCZWFB2WG70GZMDT","A1SLJKNSNHOJRN","3PIOQ99R7Y8STPN46QFY0SD7JTFNU0","","","","","","","","","","","","",""
"","instructions","1","16590","0.0-1.0","351SEKWQS132GPPCZWFB2WG70GZMDT","A1SLJKNSNHOJRN","3PIOQ99R7Y8STPN46QFY0SD7JTFNU0","[{""page_index"":0,""viewing_time"":2282.5},{""page_index"":1,""viewing_time"":2299.7999999523163},{""page_index"":2,""viewing_time"":882},{""page_index"":3,""viewing_time"":1318},{""page_index"":4,""viewing_time"":2858},{""page_index"":5,""viewing_time"":1906},{""page_index"":6,""viewing_time"":1000},{""page_index"":7,""viewing_time"":1958.1000001430511}]","14504.700000047684","","","","","","","","","","",""
"","image-keyboard-response","2","17755","0.0-2.0","351SEKWQS132GPPCZWFB2WG70GZMDT","A1SLJKNSNHOJRN","3PIOQ99R7Y8STPN46QFY0SD7JTFNU0","","1164.7000000476837","img/flower2.png","74","1165.7000000476837","1","0","2","1","1,0.333,0.333,0.333,1,0.333,0.333,0.333,1","1,0.333,0.333,0.333,1,0.333,0.333,0.333,1","1",""
"","html-keyboard-response","3","18066","0.0-3.0","351SEKWQS132GPPCZWFB2WG70GZMDT","A1SLJKNSNHOJRN","3PIOQ99R7Y8STPN46QFY0SD7JTFNU0","","null","<img src=""img/flower2.png"" style=""width:200px;border:14px solid red;"">","null","","","","","","","","",""
"","image-keyboard-response","4","18875","0.0-4.0","351SEKWQS132GPPCZWFB2WG70GZMDT","A1SLJKNSNHOJRN","3PIOQ99R7Y8STPN46QFY0SD7JTFNU0","","808.2000000476837","img/flower2.png","75","808.7000000476837","2","1","2","1","1,0.333,0.333,0.333,1,0.333,0.333,0.333,1","1,0.333,0.333,0.333,1,0.333,0.333,0.333,1","1",""
"","html-keyboard-response","5","19194","0.0-5.0","351SEKWQS132GPPCZWFB2WG70GZMDT","A1SLJKNSNHOJRN","3PIOQ99R7Y8STPN46QFY0SD7JTFNU0","","null","<img src=""img/flower2.png"" style=""width:200px; border:14px solid green;"">","null","","","","","","","","",""
"","image-keyboard-response","6","20283","0.0-6.0","351SEKWQS132GPPCZWFB2WG70GZMDT","A1SLJKNSNHOJRN","3PIOQ99R7Y8STPN46QFY0SD7JTFNU0","","1088.4000000953674","img/flower6.png","74","1089.2000000476837","1","1","1","1","1,0.333,0.333,0.333,1,0.333,0.333,0.333,1","1,0.333,0.333,0.333,1,0.333,0.333,0.333,1","1",""
"","html-keyboard-response","7","20596","0.0-7.0","351SEKWQS132GPPCZWFB2WG70GZMDT","A1SLJKNSNHOJRN","3PIOQ99R7Y8STPN46QFY0SD7JTFNU0","","null","<img src=""img/flower6.png"" style=""width:200px; border:14px solid green;"">","null","","","","","","","","",""
"","image-keyboard-response","8","21155","0.0-8.0","351SEKWQS132GPPCZWFB2WG70GZMDT","A1SLJKNSNHOJRN","3PIOQ99R7Y8STPN46QFY0SD7JTFNU0","","557.5999999046326","img/flower6.png","74","558.7000000476837","1","1","1","1","1,0.333,0.333,0.333,1,0.333,0.333,0.333,1","1,0.333,0.333,0.333,1,0.333,0.333,0.333,1","1",""
"","html-keyboard-response","9","21472","0.0-9.0","351SEKWQS132GPPCZWFB2WG70GZMDT","A1SLJKNSNHOJRN","3PIOQ99R7Y8STPN46QFY0SD7JTFNU0","","null","<img src=""img/flower6.png"" style=""width:200px; border:14px solid green;"">","null","","","","","","","","",""
"","image-keyboard-response","10","22027","0.0-10.0","351SEKWQS132GPPCZWFB2WG70GZMDT","A1SLJKNSNHOJRN","3PIOQ99R7Y8STPN46QFY0SD7JTFNU0","","554.5999999046326","img/flower5.png","76","555.3999998569489","3","1","3","1","1,0.333,0.333,0.333,1,0.333,0.333,0.333,1","1,0.333,0.333,0.333,1,0.333,0.333,0.333,1","1",""
"","html-keyboard-response","11","22334","0.0-11.0","351SEKWQS132GPPCZWFB2WG70GZMDT","A1SLJKNSNHOJRN","3PIOQ99R7Y8STPN46QFY0SD7JTFNU0","","null","<img src=""img/flower5.png"" style=""width:200px; border:14px solid green;"">","null","","","","","","","","",""
"","image-keyboard-response","12","22675","0.0-12.0","351SEKWQS132GPPCZWFB2WG70GZMDT","A1SLJKNSNHOJRN","3PIOQ99R7Y8STPN46QFY0SD7JTFNU0","","339.7000000476837","img/flower5.png","76","340.5","3","1","3","1","1,0.333,0.333,0.333,1,0.333,0.333,0.333,1","1,0.333,0.333,0.333,1,0.333,0.333,0.333,1","1",""
"","html-keyboard-response","13","22988","0.0-13.0","351SEKWQS132GPPCZWFB2WG70GZMDT","A1SLJKNSNHOJRN","3PIOQ99R7Y8STPN46QFY0SD7JTFNU0","","null","<img src=""img/flower5.png"" style=""width:200px; border:14px solid green;"">","null","","","","","","","","",""
"","image-keyboard-response","14","23315","0.0-14.0","351SEKWQS132GPPCZWFB2WG70GZMDT","A1SLJKNSNHOJRN","3PIOQ99R7Y8STPN46QFY0SD7JTFNU0","","326.09999990463257","img/flower5.png","76","326.7999999523163","3","1","3","1","1,0.333,0.333,0.333,1,0.333,0.333,0.333,1","1,0.333,0.333,0.333,1,0.333,0.333,0.333,1","1",""
"","html-keyboard-response","15","23626","0.0-15.0","351SEKWQS132GPPCZWFB2WG70GZMDT","A1SLJKNSNHOJRN","3PIOQ99R7Y8STPN46QFY0SD7JTFNU0","","null","<img src=""img/flower5.png"" style=""width:200px; border:14px solid green;"">","null","","","","","","","","",""
"","image-keyboard-response","16","24587","0.0-16.0","351SEKWQS132GPPCZWFB2WG70GZMDT","A1SLJKNSNHOJRN","3PIOQ99R7Y8STPN46QFY0SD7JTFNU0","","960.2999999523163","img/flower2.png","75","960.9000000953674","2","1","2","1","1,0.333,0.333,0.333,1,0.333,0.333,0.333,1","1,0.333,0.333,0.333,1,0.333,0.333,0.333,1","1",""
"","html-keyboard-response","17","24890","0.0-17.0","351SEKWQS132GPPCZWFB2WG70GZMDT","A1SLJKNSNHOJRN","3PIOQ99R7Y8STPN46QFY0SD7JTFNU0","","null","<img src=""img/flower2.png"" style=""width:200px; border:14px solid green;"">","null","","","","","","","","",""
"","image-keyboard-response","18","25779","0.0-18.0","351SEKWQS132GPPCZWFB2WG70GZMDT","A1SLJKNSNHOJRN","3PIOQ99R7Y8STPN46QFY0SD7JTFNU0","","887.5","img/flower5.png","76","888.6000001430511","3","1","3","1","1,0.333,0.333,0.333,1,0.333,0.333,0.333,1","1,0.333,0.333,0.333,1,0.333,0.333,0.333,1","1",""
"","html-keyboard-response","19","26095","0.0-19.0","351SEKWQS132GPPCZWFB2WG70GZMDT","A1SLJKNSNHOJRN","3PIOQ99R7Y8STPN46QFY0SD7JTFNU0","","null","<img src=""img/flower5.png"" style=""width:200px; border:14px solid green;"">","null","","","","","","","","",""
"","image-keyboard-response","20","26435","0.0-20.0","351SEKWQS132GPPCZWFB2WG70GZMDT","A1SLJKNSNHOJRN","3PIOQ99R7Y8STPN46QFY0SD7JTFNU0","","338.90000009536743","img/flower5.png","76","339.60000014305115","3","1","3","1","1,0.333,0.333,0.333,1,0.333,0.333,0.333,1","1,0.333,0.333,0.333,1,0.333,0.333,0.333,1","1",""
"","html-keyboard-response","21","26746","0.0-21.0","351SEKWQS132GPPCZWFB2WG70GZMDT","A1SLJKNSNHOJRN","3PIOQ99R7Y8STPN46QFY0SD7JTFNU0","","null","<img src=""img/flower5.png"" style=""width:200px; border:14px solid green;"">","null","","","","","","","","",""
"","image-keyboard-response","22","27075","0.0-22.0","351SEKWQS132GPPCZWFB2WG70GZMDT","A1SLJKNSNHOJRN","3PIOQ99R7Y8STPN46QFY0SD7JTFNU0","","327.89999985694885","img/flower5.png","76","328.40000009536743","3","1","3","1","1,0.333,0.333,0.333,1,0.333,0.333,0.333,1","1,0.333,0.333,0.333,1,0.333,0.333,0.333,1","1",""
"","html-keyboard-response","23","27391","0.0-23.0","351SEKWQS132GPPCZWFB2WG70GZMDT","A1SLJKNSNHOJRN","3PIOQ99R7Y8STPN46QFY0SD7JTFNU0","","null","<img src=""img/flower5.png"" style=""width:200px; border:14px solid green;"">","null","","","","","","","","",""
"","image-keyboard-response","24","27899","0.0-24.0","351SEKWQS132GPPCZWFB2WG70GZMDT","A1SLJKNSNHOJRN","3PIOQ99R7Y8STPN46QFY0SD7JTFNU0","","507.09999990463257","img/flower2.png","75","507.7000000476837","2","1","2","1","1,0.333,0.333,0.333,1,0.333,0.333,0.333,1","1,0.333,0.333,0.333,1,0.333,0.333,0.333,1","1",""
"","html-keyboard-response","25","28205","0.0-25.0","351SEKWQS132GPPCZWFB2WG70GZMDT","A1SLJKNSNHOJRN","3PIOQ99R7Y8STPN46QFY0SD7JTFNU0","","null","<img src=""img/flower2.png"" style=""width:200px; border:14px solid green;"">","null","","","","","","","","",""
"","image-keyboard-response","26","28667","0.0-26.0","351SEKWQS132GPPCZWFB2WG70GZMDT","A1SLJKNSNHOJRN","3PIOQ99R7Y8STPN46QFY0SD7JTFNU0","","461","img/flower6.png","74","461.89999985694885","1","1","1","1","1,0.333,0.333,0.333,1,0.333,0.333,0.333,1","1,0.333,0.333,0.333,1,0.333,0.333,0.333,1","1",""
"","html-keyboard-response","27","28969","0.0-27.0","351SEKWQS132GPPCZWFB2WG70GZMDT","A1SLJKNSNHOJRN","3PIOQ99R7Y8STPN46QFY0SD7JTFNU0","","null","<img src=""img/flower6.png"" style=""width:200px; border:14px solid green;"">","null","","","","","","","","",""
"","image-keyboard-response","28","29315","0.0-28.0","351SEKWQS132GPPCZWFB2WG70GZMDT","A1SLJKNSNHOJRN","3PIOQ99R7Y8STPN46QFY0SD7JTFNU0","","345.10000014305115","img/flower6.png","74","345.60000014305115","1","1","1","1","1,0.333,0.333,0.333,1,0.333,0.333,0.333,1","1,0.333,0.333,0.333,1,0.333,0.333,0.333,1","1",""
"","html-keyboard-response","29","29617","0.0-29.0","351SEKWQS132GPPCZWFB2WG70GZMDT","A1SLJKNSNHOJRN","3PIOQ99R7Y8STPN46QFY0SD7JTFNU0","","null","<img src=""img/flower6.png"" style=""width:200px; border:14px solid green;"">","null","","","","","","","","",""
"","image-keyboard-response","30","30051","0.0-30.0","351SEKWQS132GPPCZWFB2WG70GZMDT","A1SLJKNSNHOJRN","3PIOQ99R7Y8STPN46QFY0SD7JTFNU0","","433.2999999523163","img/flower2.png","75","433.90000009536743","2","1","2","1","1,0.333,0.333,0.333,1,0.333,0.333,0.333,1","1,0.333,0.333,0.333,1,0.333,0.333,0.333,1","1",""
"","html-keyboard-response","31","30353","0.0-31.0","351SEKWQS132GPPCZWFB2WG70GZMDT","A1SLJKNSNHOJRN","3PIOQ99R7Y8STPN46QFY0SD7JTFNU0","","null","<img src=""img/flower2.png"" style=""width:200px; border:14px solid green;"">","null","","","","","","","","",""
"","image-keyboard-response","32","30675","0.0-32.0","351SEKWQS132GPPCZWFB2WG70GZMDT","A1SLJKNSNHOJRN","3PIOQ99R7Y8STPN46QFY0SD7JTFNU0","","321.5","img/flower2.png","75","322.2000000476837","2","1","2","1","1,0.333,0.333,0.333,1,0.333,0.333,0.333,1","1,0.333,0.333,0.333,1,0.333,0.333,0.333,1","1",""
"","html-keyboard-response","33","30977","0.0-33.0","351SEKWQS132GPPCZWFB2WG70GZMDT","A1SLJKNSNHOJRN","3PIOQ99R7Y8STPN46QFY0SD7JTFNU0","","null","<img src=""img/flower2.png"" style=""width:200px; border:14px solid green;"">","null","","","","","","","","",""
"","image-keyboard-response","34","31291","0.0-34.0","351SEKWQS132GPPCZWFB2WG70GZMDT","A1SLJKNSNHOJRN","3PIOQ99R7Y8STPN46QFY0SD7JTFNU0","","313.59999990463257","img/flower2.png","75","314.09999990463257","2","1","2","1","1,0.333,0.333,0.333,1,0.333,0.333,0.333,1","1,0.333,0.333,0.333,1,0.333,0.333,0.333,1","1",""
"","html-keyboard-response","35","31593","0.0-35.0","351SEKWQS132GPPCZWFB2WG70GZMDT","A1SLJKNSNHOJRN","3PIOQ99R7Y8STPN46QFY0SD7JTFNU0","","null","<img src=""img/flower2.png"" style=""width:200px; border:14px solid green;"">","null","","","","","","","","",""
"","image-keyboard-response","36","31987","0.0-36.0","351SEKWQS132GPPCZWFB2WG70GZMDT","A1SLJKNSNHOJRN","3PIOQ99R7Y8STPN46QFY0SD7JTFNU0","","393.39999985694885","img/flower6.png","76","394","3","0","1","1","1,0.333,0.333,0.333,1,0.333,0.333,0.333,1","1,0.333,0.333,0.333,1,0.333,0.333,0.333,1","1",""
"","html-keyboard-response","37","32289","0.0-37.0","351SEKWQS132GPPCZWFB2WG70GZMDT","A1SLJKNSNHOJRN","3PIOQ99R7Y8STPN46QFY0SD7JTFNU0","","null","<img src=""img/flower6.png"" style=""width:200px;border:14px solid red;"">","null","","","","","","","","",""
"","image-keyboard-response","38","32667","0.0-38.0","351SEKWQS132GPPCZWFB2WG70GZMDT","A1SLJKNSNHOJRN","3PIOQ99R7Y8STPN46QFY0SD7JTFNU0","","376.90000009536743","img/flower6.png","74","377.5","1","1","1","1","1,0.333,0.333,0.333,1,0.333,0.333,0.333,1","1,0.333,0.333,0.333,1,0.333,0.333,0.333,1","1",""
"","html-keyboard-response","39","32968","0.0-39.0","351SEKWQS132GPPCZWFB2WG70GZMDT","A1SLJKNSNHOJRN","3PIOQ99R7Y8STPN46QFY0SD7JTFNU0","","null","<img src=""img/flower6.png"" style=""width:200px; border:14px solid green;"">","null","","","","","","","","",""
"","image-keyboard-response","40","33307","0.0-40.0","351SEKWQS132GPPCZWFB2WG70GZMDT","A1SLJKNSNHOJRN","3PIOQ99R7Y8STPN46QFY0SD7JTFNU0","","337.7999999523163","img/flower6.png","74","338.39999985694885","1","1","1","1","1,0.333,0.333,0.333,1,0.333,0.333,0.333,1","1,0.333,0.333,0.333,1,0.333,0.333,0.333,1","1",""
"","html-keyboard-response","41","33608","0.0-41.0","351SEKWQS132GPPCZWFB2WG70GZMDT","A1SLJKNSNHOJRN","3PIOQ99R7Y8STPN46QFY0SD7JTFNU0","","null","<img src=""img/flower6.png"" style=""width:200px; border:14px solid green;"">","null","","","","","","","","",""
"","image-keyboard-response","42","33923","0.0-42.0","351SEKWQS132GPPCZWFB2WG70GZMDT","A1SLJKNSNHOJRN","3PIOQ99R7Y8STPN46QFY0SD7JTFNU0","","314.09999990463257","img/flower6.png","74","314.7000000476837","1","1","1","1","1,0.333,0.333,0.333,1,0.333,0.333,0.333,1","1,0.333,0.333,0.333,1,0.333,0.333,0.333,1","1",""
"","html-keyboard-response","43","34225","0.0-43.0","351SEKWQS132GPPCZWFB2WG70GZMDT","A1SLJKNSNHOJRN","3PIOQ99R7Y8STPN46QFY0SD7JTFNU0","","null","<img src=""img/flower6.png"" style=""width:200px; border:14px solid green;"">","null","","","","","","","","",""
"","image-keyboard-response","44","34627","0.0-44.0","351SEKWQS132GPPCZWFB2WG70GZMDT","A1SLJKNSNHOJRN","3PIOQ99R7Y8STPN46QFY0SD7JTFNU0","","401","img/flower2.png","76","401.7000000476837","3","1","2","1","1,0.333,0.333,0.333,1,0.333,0.333,0.333,1","1,0.333,0.333,0.333,1,0.333,0.333,0.333,1","1",""
"","html-keyboard-response","45","34929","0.0-45.0","351SEKWQS132GPPCZWFB2WG70GZMDT","A1SLJKNSNHOJRN","3PIOQ99R7Y8STPN46QFY0SD7JTFNU0","","null","<img src=""img/flower2.png"" style=""width:200px; border:14px solid green;"">","null","","","","","","","","",""
"","image-keyboard-response","46","36187","0.0-46.0","351SEKWQS132GPPCZWFB2WG70GZMDT","A1SLJKNSNHOJRN","3PIOQ99R7Y8STPN46QFY0SD7JTFNU0","","1256.7999999523163","img/flower5.png","76","1257.5","3","1","3","1","1,0.333,0.333,0.333,1,0.333,0.333,0.333,1","1,0.333,0.333,0.333,1,0.333,0.333,0.333,1","1",""
"","html-keyboard-response","47","36489","0.0-47.0","351SEKWQS132GPPCZWFB2WG70GZMDT","A1SLJKNSNHOJRN","3PIOQ99R7Y8STPN46QFY0SD7JTFNU0","","null","<img src=""img/flower5.png"" style=""width:200px; border:14px solid green;"">","null","","","","","","","","",""
"","image-keyboard-response","48","37243","0.0-48.0","351SEKWQS132GPPCZWFB2WG70GZMDT","A1SLJKNSNHOJRN","3PIOQ99R7Y8STPN46QFY0SD7JTFNU0","","753.2999999523163","img/flower6.png","74","753.7999999523163","1","1","1","1","1,0.333,0.333,0.333,1,0.333,0.333,0.333,1","1,0.333,0.333,0.333,1,0.333,0.333,0.333,1","1",""
"","html-keyboard-response","49","37558","0.0-49.0","351SEKWQS132GPPCZWFB2WG70GZMDT","A1SLJKNSNHOJRN","3PIOQ99R7Y8STPN46QFY0SD7JTFNU0","","null","<img src=""img/flower6.png"" style=""width:200px; border:14px solid green;"">","null","","","","","","","","",""
"","image-keyboard-response","50","37891","0.0-50.0","351SEKWQS132GPPCZWFB2WG70GZMDT","A1SLJKNSNHOJRN","3PIOQ99R7Y8STPN46QFY0SD7JTFNU0","","332.2999999523163","img/flower6.png","74","332.7999999523163","1","1","1","1","1,0.333,0.333,0.333,1,0.333,0.333,0.333,1","1,0.333,0.333,0.333,1,0.333,0.333,0.333,1","1",""
"","html-keyboard-response","51","38193","0.0-51.0","351SEKWQS132GPPCZWFB2WG70GZMDT","A1SLJKNSNHOJRN","3PIOQ99R7Y8STPN46QFY0SD7JTFNU0","","null","<img src=""img/flower6.png"" style=""width:200px; border:14px solid green;"">","null","","","","","","","","",""
"","image-keyboard-response","52","38891","0.0-52.0","351SEKWQS132GPPCZWFB2WG70GZMDT","A1SLJKNSNHOJRN","3PIOQ99R7Y8STPN46QFY0SD7JTFNU0","","697.1999998092651","img/flower5.png","76","697.8000001907349","3","1","3","1","1,0.333,0.333,0.333,1,0.333,0.333,0.333,1","1,0.333,0.333,0.333,1,0.333,0.333,0.333,1","1",""
"","html-keyboard-response","53","39193","0.0-53.0","351SEKWQS132GPPCZWFB2WG70GZMDT","A1SLJKNSNHOJRN","3PIOQ99R7Y8STPN46QFY0SD7JTFNU0","","null","<img src=""img/flower5.png"" style=""width:200px; border:14px solid green;"">","null","","","","","","","","",""
"","image-keyboard-response","54","39827","0.0-54.0","351SEKWQS132GPPCZWFB2WG70GZMDT","A1SLJKNSNHOJRN","3PIOQ99R7Y8STPN46QFY0SD7JTFNU0","","632.7999999523163","img/flower2.png","75","633.3999998569489","2","1","2","1","1,0.333,0.333,0.333,1,0.333,0.333,0.333,1","1,0.333,0.333,0.333,1,0.333,0.333,0.333,1","1",""
"","html-keyboard-response","55","40128","0.0-55.0","351SEKWQS132GPPCZWFB2WG70GZMDT","A1SLJKNSNHOJRN","3PIOQ99R7Y8STPN46QFY0SD7JTFNU0","","null","<img src=""img/flower2.png"" style=""width:200px; border:14px solid green;"">","null","","","","","","","","",""
"","image-keyboard-response","56","40451","0.0-56.0","351SEKWQS132GPPCZWFB2WG70GZMDT","A1SLJKNSNHOJRN","3PIOQ99R7Y8STPN46QFY0SD7JTFNU0","","322.2000000476837","img/flower2.png","75","322.90000009536743","2","1","2","1","1,0.333,0.333,0.333,1,0.333,0.333,0.333,1","1,0.333,0.333,0.333,1,0.333,0.333,0.333,1","1",""
"","html-keyboard-response","57","40752","0.0-57.0","351SEKWQS132GPPCZWFB2WG70GZMDT","A1SLJKNSNHOJRN","3PIOQ99R7Y8STPN46QFY0SD7JTFNU0","","null","<img src=""img/flower2.png"" style=""width:200px; border:14px solid green;"">","null","","","","","","","","",""
"","image-keyboard-response","58","41075","0.0-58.0","351SEKWQS132GPPCZWFB2WG70GZMDT","A1SLJKNSNHOJRN","3PIOQ99R7Y8STPN46QFY0SD7JTFNU0","","321.90000009536743","img/flower2.png","75","322.5","2","1","2","1","1,0.333,0.333,0.333,1,0.333,0.333,0.333,1","1,0.333,0.333,0.333,1,0.333,0.333,0.333,1","1",""
"","html-keyboard-response","59","41376","0.0-59.0","351SEKWQS132GPPCZWFB2WG70GZMDT","A1SLJKNSNHOJRN","3PIOQ99R7Y8STPN46QFY0SD7JTFNU0","","null","<img src=""img/flower2.png"" style=""width:200px; border:14px solid green;"">","null","","","","","","","","",""
"","image-keyboard-response","60","42011","0.0-60.0","351SEKWQS132GPPCZWFB2WG70GZMDT","A1SLJKNSNHOJRN","3PIOQ99R7Y8STPN46QFY0SD7JTFNU0","","634.2999999523163","img/flower5.png","76","634.9000000953674","3","1","3","1","1,0.333,0.333,0.333,1,0.333,0.333,0.333,1","1,0.333,0.333,0.333,1,0.333,0.333,0.333,1","1",""
"","html-keyboard-response","61","42312","0.0-61.0","351SEKWQS132GPPCZWFB2WG70GZMDT","A1SLJKNSNHOJRN","3PIOQ99R7Y8STPN46QFY0SD7JTFNU0","","null","<img src=""img/flower5.png"" style=""width:200px; border:14px solid green;"">","null","","","","","","","","",""
"","image-keyboard-response","62","42923","0.0-62.0","351SEKWQS132GPPCZWFB2WG70GZMDT","A1SLJKNSNHOJRN","3PIOQ99R7Y8STPN46QFY0SD7JTFNU0","","610.0999999046326","img/flower6.png","74","610.7999999523163","1","1","1","1","1,0.333,0.333,0.333,1,0.333,0.333,0.333,1","1,0.333,0.333,0.333,1,0.333,0.333,0.333,1","1",""
"","html-keyboard-response","63","43224","0.0-63.0","351SEKWQS132GPPCZWFB2WG70GZMDT","A1SLJKNSNHOJRN","3PIOQ99R7Y8STPN46QFY0SD7JTFNU0","","null","<img src=""img/flower6.png"" style=""width:200px; border:14px solid green;"">","null","","","","","","","","",""
"","image-keyboard-response","64","44011","0.0-64.0","351SEKWQS132GPPCZWFB2WG70GZMDT","A1SLJKNSNHOJRN","3PIOQ99R7Y8STPN46QFY0SD7JTFNU0","","786.2000000476837","img/flower2.png","75","786.8999998569489","2","1","2","1","1,0.333,0.333,0.333,1,0.333,0.333,0.333,1","1,0.333,0.333,0.333,1,0.333,0.333,0.333,1","1",""
"","html-keyboard-response","65","44313","0.0-65.0","351SEKWQS132GPPCZWFB2WG70GZMDT","A1SLJKNSNHOJRN","3PIOQ99R7Y8STPN46QFY0SD7JTFNU0","","null","<img src=""img/flower2.png"" style=""width:200px; border:14px solid green;"">","null","","","","","","","","",""
"","image-keyboard-response","66","44891","0.0-66.0","351SEKWQS132GPPCZWFB2WG70GZMDT","A1SLJKNSNHOJRN","3PIOQ99R7Y8STPN46QFY0SD7JTFNU0","","577.6000001430511","img/flower6.png","74","578.0999999046326","1","1","1","1","1,0.333,0.333,0.333,1,0.333,0.333,0.333,1","1,0.333,0.333,0.333,1,0.333,0.333,0.333,1","1",""
"","html-keyboard-response","67","45193","0.0-67.0","351SEKWQS132GPPCZWFB2WG70GZMDT","A1SLJKNSNHOJRN","3PIOQ99R7Y8STPN46QFY0SD7JTFNU0","","null","<img src=""img/flower6.png"" style=""width:200px; border:14px solid green;"">","null","","","","","","","","",""
"","image-keyboard-response","68","45659","0.0-68.0","351SEKWQS132GPPCZWFB2WG70GZMDT","A1SLJKNSNHOJRN","3PIOQ99R7Y8STPN46QFY0SD7JTFNU0","","465.40000009536743","img/flower6.png","74","465.90000009536743","1","1","1","1","1,0.333,0.333,0.333,1,0.333,0.333,0.333,1","1,0.333,0.333,0.333,1,0.333,0.333,0.333,1","1",""
"","html-keyboard-response","69","45961","0.0-69.0","351SEKWQS132GPPCZWFB2WG70GZMDT","A1SLJKNSNHOJRN","3PIOQ99R7Y8STPN46QFY0SD7JTFNU0","","null","<img src=""img/flower6.png"" style=""width:200px; border:14px solid green;"">","null","","","","","","","","",""
"","image-keyboard-response","70","46315","0.0-70.0","351SEKWQS132GPPCZWFB2WG70GZMDT","A1SLJKNSNHOJRN","3PIOQ99R7Y8STPN46QFY0SD7JTFNU0","","353","img/flower6.png","74","353.7000000476837","1","1","1","1","1,0.333,0.333,0.333,1,0.333,0.333,0.333,1","1,0.333,0.333,0.333,1,0.333,0.333,0.333,1","1",""
"","html-keyboard-response","71","46616","0.0-71.0","351SEKWQS132GPPCZWFB2WG70GZMDT","A1SLJKNSNHOJRN","3PIOQ99R7Y8STPN46QFY0SD7JTFNU0","","null","<img src=""img/flower6.png"" style=""width:200px; border:14px solid green;"">","null","","","","","","","","",""
"","image-keyboard-response","72","47339","0.0-72.0","351SEKWQS132GPPCZWFB2WG70GZMDT","A1SLJKNSNHOJRN","3PIOQ99R7Y8STPN46QFY0SD7JTFNU0","","721.7000000476837","img/flower5.png","76","722.2999999523163","3","1","3","1","1,0.333,0.333,0.333,1,0.333,0.333,0.333,1","1,0.333,0.333,0.333,1,0.333,0.333,0.333,1","1",""
"","html-keyboard-response","73","47641","0.0-73.0","351SEKWQS132GPPCZWFB2WG70GZMDT","A1SLJKNSNHOJRN","3PIOQ99R7Y8STPN46QFY0SD7JTFNU0","","null","<img src=""img/flower5.png"" style=""width:200px; border:14px solid green;"">","null","","","","","","","","",""
"","image-keyboard-response","74","47947","0.0-74.0","351SEKWQS132GPPCZWFB2WG70GZMDT","A1SLJKNSNHOJRN","3PIOQ99R7Y8STPN46QFY0SD7JTFNU0","","305.2000000476837","img/flower5.png","76","305.60000014305115","3","1","3","1","1,0.333,0.333,0.333,1,0.333,0.333,0.333,1","1,0.333,0.333,0.333,1,0.333,0.333,0.333,1","1",""
"","html-keyboard-response","75","48248","0.0-75.0","351SEKWQS132GPPCZWFB2WG70GZMDT","A1SLJKNSNHOJRN","3PIOQ99R7Y8STPN46QFY0SD7JTFNU0","","null","<img src=""img/flower5.png"" style=""width:200px; border:14px solid green;"">","null","","","","","","","","",""
"","image-keyboard-response","76","48579","0.0-76.0","351SEKWQS132GPPCZWFB2WG70GZMDT","A1SLJKNSNHOJRN","3PIOQ99R7Y8STPN46QFY0SD7JTFNU0","","330.2999999523163","img/flower5.png","76","330.7999999523163","3","1","3","1","1,0.333,0.333,0.333,1,0.333,0.333,0.333,1","1,0.333,0.333,0.333,1,0.333,0.333,0.333,1","1",""
"","html-keyboard-response","77","48881","0.0-77.0","351SEKWQS132GPPCZWFB2WG70GZMDT","A1SLJKNSNHOJRN","3PIOQ99R7Y8STPN46QFY0SD7JTFNU0","","null","<img src=""img/flower5.png"" style=""width:200px; border:14px solid green;"">","null","","","","","","","","",""
"","image-keyboard-response","78","49211","0.0-78.0","351SEKWQS132GPPCZWFB2WG70GZMDT","A1SLJKNSNHOJRN","3PIOQ99R7Y8STPN46QFY0SD7JTFNU0","","329.40000009536743","img/flower5.png","76","330","3","1","3","1","1,0.333,0.333,0.333,1,0.333,0.333,0.333,1","1,0.333,0.333,0.333,1,0.333,0.333,0.333,1","1",""
"","html-keyboard-response","79","49513","0.0-79.0","351SEKWQS132GPPCZWFB2WG70GZMDT","A1SLJKNSNHOJRN","3PIOQ99R7Y8STPN46QFY0SD7JTFNU0","","null","<img src=""img/flower5.png"" style=""width:200px; border:14px solid green;"">","null","","","","","","","","",""
"","image-keyboard-response","80","50123","0.0-80.0","351SEKWQS132GPPCZWFB2WG70GZMDT","A1SLJKNSNHOJRN","3PIOQ99R7Y8STPN46QFY0SD7JTFNU0","","609.1999998092651","img/flower2.png","75","609.7999999523163","2","1","2","1","1,0.333,0.333,0.333,1,0.333,0.333,0.333,1","1,0.333,0.333,0.333,1,0.333,0.333,0.333,1","1",""
"","html-keyboard-response","81","50424","0.0-81.0","351SEKWQS132GPPCZWFB2WG70GZMDT","A1SLJKNSNHOJRN","3PIOQ99R7Y8STPN46QFY0SD7JTFNU0","","null","<img src=""img/flower2.png"" style=""width:200px; border:14px solid green;"">","null","","","","","","","","",""
"","image-keyboard-response","82","51059","0.0-82.0","351SEKWQS132GPPCZWFB2WG70GZMDT","A1SLJKNSNHOJRN","3PIOQ99R7Y8STPN46QFY0SD7JTFNU0","","633.9000000953674","img/flower5.png","76","634.4000000953674","3","1","3","1","1,0.333,0.333,0.333,1,0.333,0.333,0.333,1","1,0.333,0.333,0.333,1,0.333,0.333,0.333,1","1",""
"","html-keyboard-response","83","51360","0.0-83.0","351SEKWQS132GPPCZWFB2WG70GZMDT","A1SLJKNSNHOJRN","3PIOQ99R7Y8STPN46QFY0SD7JTFNU0","","null","<img src=""img/flower5.png"" style=""width:200px; border:14px solid green;"">","null","","","","","","","","",""
"","image-keyboard-response","84","51811","0.0-84.0","351SEKWQS132GPPCZWFB2WG70GZMDT","A1SLJKNSNHOJRN","3PIOQ99R7Y8STPN46QFY0SD7JTFNU0","","450.09999990463257","img/flower2.png","75","450.80000019073486","2","1","2","1","1,0.333,0.333,0.333,1,0.333,0.333,0.333,1","1,0.333,0.333,0.333,1,0.333,0.333,0.333,1","1",""
"","html-keyboard-response","85","52116","0.0-85.0","351SEKWQS132GPPCZWFB2WG70GZMDT","A1SLJKNSNHOJRN","3PIOQ99R7Y8STPN46QFY0SD7JTFNU0","","null","<img src=""img/flower2.png"" style=""width:200px; border:14px solid green;"">","null","","","","","","","","",""
"","image-keyboard-response","86","52459","0.0-86.0","351SEKWQS132GPPCZWFB2WG70GZMDT","A1SLJKNSNHOJRN","3PIOQ99R7Y8STPN46QFY0SD7JTFNU0","","342.2000000476837","img/flower2.png","75","342.7000000476837","2","1","2","1","1,0.333,0.333,0.333,1,0.333,0.333,0.333,1","1,0.333,0.333,0.333,1,0.333,0.333,0.333,1","1",""
"","html-keyboard-response","87","52761","0.0-87.0","351SEKWQS132GPPCZWFB2WG70GZMDT","A1SLJKNSNHOJRN","3PIOQ99R7Y8STPN46QFY0SD7JTFNU0","","null","<img src=""img/flower2.png"" style=""width:200px; border:14px solid green;"">","null","","","","","","","","",""
"","image-keyboard-response","88","53099","0.0-88.0","351SEKWQS132GPPCZWFB2WG70GZMDT","A1SLJKNSNHOJRN","3PIOQ99R7Y8STPN46QFY0SD7JTFNU0","","337.2000000476837","img/flower2.png","75","337.89999985694885","2","1","2","1","1,0.333,0.333,0.333,1,0.333,0.333,0.333,1","1,0.333,0.333,0.333,1,0.333,0.333,0.333,1","1",""
"","html-keyboard-response","89","53401","0.0-89.0","351SEKWQS132GPPCZWFB2WG70GZMDT","A1SLJKNSNHOJRN","3PIOQ99R7Y8STPN46QFY0SD7JTFNU0","","null","<img src=""img/flower2.png"" style=""width:200px; border:14px solid green;"">","null","","","","","","","","",""
"","image-keyboard-response","90","54059","0.0-90.0","351SEKWQS132GPPCZWFB2WG70GZMDT","A1SLJKNSNHOJRN","3PIOQ99R7Y8STPN46QFY0SD7JTFNU0","","657","img/flower6.png","74","657.7000000476837","1","1","1","1","1,0.333,0.333,0.333,1,0.333,0.333,0.333,1","1,0.333,0.333,0.333,1,0.333,0.333,0.333,1","1",""
"","html-keyboard-response","91","54360","0.0-91.0","351SEKWQS132GPPCZWFB2WG70GZMDT","A1SLJKNSNHOJRN","3PIOQ99R7Y8STPN46QFY0SD7JTFNU0","","null","<img src=""img/flower6.png"" style=""width:200px; border:14px solid green;"">","null","","","","","","","","",""
"","image-keyboard-response","92","54675","0.0-92.0","351SEKWQS132GPPCZWFB2WG70GZMDT","A1SLJKNSNHOJRN","3PIOQ99R7Y8STPN46QFY0SD7JTFNU0","","314.09999990463257","img/flower6.png","74","314.7000000476837","1","1","1","1","1,0.333,0.333,0.333,1,0.333,0.333,0.333,1","1,0.333,0.333,0.333,1,0.333,0.333,0.333,1","1",""
"","html-keyboard-response","93","54977","0.0-93.0","351SEKWQS132GPPCZWFB2WG70GZMDT","A1SLJKNSNHOJRN","3PIOQ99R7Y8STPN46QFY0SD7JTFNU0","","null","<img src=""img/flower6.png"" style=""width:200px; border:14px solid green;"">","null","","","","","","","","",""
"","image-keyboard-response","94","55659","0.0-94.0","351SEKWQS132GPPCZWFB2WG70GZMDT","A1SLJKNSNHOJRN","3PIOQ99R7Y8STPN46QFY0SD7JTFNU0","","681","img/flower5.png","76","681.5999999046326","3","1","3","1","1,0.333,0.333,0.333,1,0.333,0.333,0.333,1","1,0.333,0.333,0.333,1,0.333,0.333,0.333,1","1",""
"","html-keyboard-response","95","55960","0.0-95.0","351SEKWQS132GPPCZWFB2WG70GZMDT","A1SLJKNSNHOJRN","3PIOQ99R7Y8STPN46QFY0SD7JTFNU0","","null","<img src=""img/flower5.png"" style=""width:200px; border:14px solid green;"">","null","","","","","","","","",""
"","image-keyboard-response","96","56651","0.0-96.0","351SEKWQS132GPPCZWFB2WG70GZMDT","A1SLJKNSNHOJRN","3PIOQ99R7Y8STPN46QFY0SD7JTFNU0","","690.2000000476837","img/flower6.png","74","690.7000000476837","1","1","1","1","1,0.333,0.333,0.333,1,0.333,0.333,0.333,1","1,0.333,0.333,0.333,1,0.333,0.333,0.333,1","1",""
"","html-keyboard-response","97","56952","0.0-97.0","351SEKWQS132GPPCZWFB2WG70GZMDT","A1SLJKNSNHOJRN","3PIOQ99R7Y8STPN46QFY0SD7JTFNU0","","null","<img src=""img/flower6.png"" style=""width:200px; border:14px solid green;"">","null","","","","","","","","",""
"","image-keyboard-response","98","57547","0.0-98.0","351SEKWQS132GPPCZWFB2WG70GZMDT","A1SLJKNSNHOJRN","3PIOQ99R7Y8STPN46QFY0SD7JTFNU0","","594.2999999523163","img/flower2.png","75","594.9000000953674","2","1","2","1","1,0.333,0.333,0.333,1,0.333,0.333,0.333,1","1,0.333,0.333,0.333,1,0.333,0.333,0.333,1","1",""
"","html-keyboard-response","99","57849","0.0-99.0","351SEKWQS132GPPCZWFB2WG70GZMDT","A1SLJKNSNHOJRN","3PIOQ99R7Y8STPN46QFY0SD7JTFNU0","","null","<img src=""img/flower2.png"" style=""width:200px; border:14px solid green;"">","null","","","","","","","","",""
"","image-keyboard-response","100","59155","0.0-100.0","351SEKWQS132GPPCZWFB2WG70GZMDT","A1SLJKNSNHOJRN","3PIOQ99R7Y8STPN46QFY0SD7JTFNU0","","1305.2000000476837","img/flower5.png","76","1306","3","1","3","1","1,0.333,0.333,0.333,1,0.333,0.333,0.333,1","1,0.333,0.333,0.333,1,0.333,0.333,0.333,1","1",""
"","html-keyboard-response","101","59457","0.0-101.0","351SEKWQS132GPPCZWFB2WG70GZMDT","A1SLJKNSNHOJRN","3PIOQ99R7Y8STPN46QFY0SD7JTFNU0","","null","<img src=""img/flower5.png"" style=""width:200px; border:14px solid green;"">","null","","","","","","","","",""
"","image-keyboard-response","102","60115","0.0-102.0","351SEKWQS132GPPCZWFB2WG70GZMDT","A1SLJKNSNHOJRN","3PIOQ99R7Y8STPN46QFY0SD7JTFNU0","","656.8999998569489","img/flower6.png","74","657.6999998092651","1","1","1","1","1,0.333,0.333,0.333,1,0.333,0.333,0.333,1","1,0.333,0.333,0.333,1,0.333,0.333,0.333,1","1",""
"","html-keyboard-response","103","60417","0.0-103.0","351SEKWQS132GPPCZWFB2WG70GZMDT","A1SLJKNSNHOJRN","3PIOQ99R7Y8STPN46QFY0SD7JTFNU0","","null","<img src=""img/flower6.png"" style=""width:200px; border:14px solid green;"">","null","","","","","","","","",""
"","image-keyboard-response","104","61051","0.0-104.0","351SEKWQS132GPPCZWFB2WG70GZMDT","A1SLJKNSNHOJRN","3PIOQ99R7Y8STPN46QFY0SD7JTFNU0","","633.7000000476837","img/flower2.png","75","634.0999999046326","2","1","2","1","1,0.333,0.333,0.333,1,0.333,0.333,0.333,1","1,0.333,0.333,0.333,1,0.333,0.333,0.333,1","1",""
"","html-keyboard-response","105","61352","0.0-105.0","351SEKWQS132GPPCZWFB2WG70GZMDT","A1SLJKNSNHOJRN","3PIOQ99R7Y8STPN46QFY0SD7JTFNU0","","null","<img src=""img/flower2.png"" style=""width:200px; border:14px solid green;"">","null","","","","","","","","",""
"","image-keyboard-response","106","61971","0.0-106.0","351SEKWQS132GPPCZWFB2WG70GZMDT","A1SLJKNSNHOJRN","3PIOQ99R7Y8STPN46QFY0SD7JTFNU0","","617.9000000953674","img/flower6.png","76","618.5","3","0","1","1","1,0.333,0.333,0.333,1,0.333,0.333,0.333,1","1,0.333,0.333,0.333,1,0.333,0.333,0.333,1","1",""
"","html-keyboard-response","107","62273","0.0-107.0","351SEKWQS132GPPCZWFB2WG70GZMDT","A1SLJKNSNHOJRN","3PIOQ99R7Y8STPN46QFY0SD7JTFNU0","","null","<img src=""img/flower6.png"" style=""width:200px;border:14px solid red;"">","null","","","","","","","","",""
"","image-keyboard-response","108","62315","0.0-108.0","351SEKWQS132GPPCZWFB2WG70GZMDT","A1SLJKNSNHOJRN","3PIOQ99R7Y8STPN46QFY0SD7JTFNU0","","41.10000014305115","img/flower6.png","74","41.59999990463257","1","1","1","1","1,0.333,0.333,0.333,1,0.333,0.333,0.333,1","1,0.333,0.333,0.333,1,0.333,0.333,0.333,1","1",""
"","html-keyboard-response","109","62616","0.0-109.0","351SEKWQS132GPPCZWFB2WG70GZMDT","A1SLJKNSNHOJRN","3PIOQ99R7Y8STPN46QFY0SD7JTFNU0","","null","<img src=""img/flower6.png"" style=""width:200px; border:14px solid green;"">","null","","","","","","","","",""
"","image-keyboard-response","110","63323","0.0-110.0","351SEKWQS132GPPCZWFB2WG70GZMDT","A1SLJKNSNHOJRN","3PIOQ99R7Y8STPN46QFY0SD7JTFNU0","","705.7000000476837","img/flower5.png","76","706.4000000953674","3","1","3","1","1,0.333,0.333,0.333,1,0.333,0.333,0.333,1","1,0.333,0.333,0.333,1,0.333,0.333,0.333,1","1",""
"","html-keyboard-response","111","63624","0.0-111.0","351SEKWQS132GPPCZWFB2WG70GZMDT","A1SLJKNSNHOJRN","3PIOQ99R7Y8STPN46QFY0SD7JTFNU0","","null","<img src=""img/flower5.png"" style=""width:200px; border:14px solid green;"">","null","","","","","","","","",""
"","image-keyboard-response","112","64075","0.0-112.0","351SEKWQS132GPPCZWFB2WG70GZMDT","A1SLJKNSNHOJRN","3PIOQ99R7Y8STPN46QFY0SD7JTFNU0","","449.40000009536743","img/flower5.png","76","450.2999999523163","3","1","3","1","1,0.333,0.333,0.333,1,0.333,0.333,0.333,1","1,0.333,0.333,0.333,1,0.333,0.333,0.333,1","1",""
"","html-keyboard-response","113","64376","0.0-113.0","351SEKWQS132GPPCZWFB2WG70GZMDT","A1SLJKNSNHOJRN","3PIOQ99R7Y8STPN46QFY0SD7JTFNU0","","null","<img src=""img/flower5.png"" style=""width:200px; border:14px solid green;"">","null","","","","","","","","",""
"","image-keyboard-response","114","64979","0.0-114.0","351SEKWQS132GPPCZWFB2WG70GZMDT","A1SLJKNSNHOJRN","3PIOQ99R7Y8STPN46QFY0SD7JTFNU0","","602","img/flower2.png","75","602.7000000476837","2","1","2","1","1,0.333,0.333,0.333,1,0.333,0.333,0.333,1","1,0.333,0.333,0.333,1,0.333,0.333,0.333,1","1",""
"","html-keyboard-response","115","65280","0.0-115.0","351SEKWQS132GPPCZWFB2WG70GZMDT","A1SLJKNSNHOJRN","3PIOQ99R7Y8STPN46QFY0SD7JTFNU0","","null","<img src=""img/flower2.png"" style=""width:200px; border:14px solid green;"">","null","","","","","","","","",""
"","image-keyboard-response","116","65947","0.0-116.0","351SEKWQS132GPPCZWFB2WG70GZMDT","A1SLJKNSNHOJRN","3PIOQ99R7Y8STPN46QFY0SD7JTFNU0","","665.9000000953674","img/flower6.png","74","666.4000000953674","1","1","1","1","1,0.333,0.333,0.333,1,0.333,0.333,0.333,1","1,0.333,0.333,0.333,1,0.333,0.333,0.333,1","1",""
"","html-keyboard-response","117","66249","0.0-117.0","351SEKWQS132GPPCZWFB2WG70GZMDT","A1SLJKNSNHOJRN","3PIOQ99R7Y8STPN46QFY0SD7JTFNU0","","null","<img src=""img/flower6.png"" style=""width:200px; border:14px solid green;"">","null","","","","","","","","",""
"","image-keyboard-response","118","66843","0.0-118.0","351SEKWQS132GPPCZWFB2WG70GZMDT","A1SLJKNSNHOJRN","3PIOQ99R7Y8STPN46QFY0SD7JTFNU0","","592.8999998569489","img/flower5.png","75","593.6000001430511","2","0","3","1","1,0.333,0.333,0.333,1,0.333,0.333,0.333,1","1,0.333,0.333,0.333,1,0.333,0.333,0.333,1","1",""
"","html-keyboard-response","119","67145","0.0-119.0","351SEKWQS132GPPCZWFB2WG70GZMDT","A1SLJKNSNHOJRN","3PIOQ99R7Y8STPN46QFY0SD7JTFNU0","","null","<img src=""img/flower5.png"" style=""width:200px;border:14px solid red;"">","null","","","","","","","","",""
"","image-keyboard-response","120","67715","0.0-120.0","351SEKWQS132GPPCZWFB2WG70GZMDT","A1SLJKNSNHOJRN","3PIOQ99R7Y8STPN46QFY0SD7JTFNU0","","569","img/flower2.png","75","569.7999999523163","2","1","2","1","1,0.333,0.333,0.333,1,0.333,0.333,0.333,1","1,0.333,0.333,0.333,1,0.333,0.333,0.333,1","1",""
"","html-keyboard-response","121","68029","0.0-121.0","351SEKWQS132GPPCZWFB2WG70GZMDT","A1SLJKNSNHOJRN","3PIOQ99R7Y8STPN46QFY0SD7JTFNU0","","null","<img src=""img/flower2.png"" style=""width:200px; border:14px solid green;"">","null","","","","","","","","",""
"","image-keyboard-response","122","68531","0.0-122.0","351SEKWQS132GPPCZWFB2WG70GZMDT","A1SLJKNSNHOJRN","3PIOQ99R7Y8STPN46QFY0SD7JTFNU0","","501.09999990463257","img/flower5.png","76","501.60000014305115","3","1","3","1","1,0.333,0.333,0.333,1,0.333,0.333,0.333,1","1,0.333,0.333,0.333,1,0.333,0.333,0.333,1","1",""
"","html-keyboard-response","123","68832","0.0-123.0","351SEKWQS132GPPCZWFB2WG70GZMDT","A1SLJKNSNHOJRN","3PIOQ99R7Y8STPN46QFY0SD7JTFNU0","","null","<img src=""img/flower5.png"" style=""width:200px; border:14px solid green;"">","null","","","","","","","","",""
"","image-keyboard-response","124","69395","0.0-124.0","351SEKWQS132GPPCZWFB2WG70GZMDT","A1SLJKNSNHOJRN","3PIOQ99R7Y8STPN46QFY0SD7JTFNU0","","562.1000001430511","img/flower2.png","75","562.7999999523163","2","1","2","1","1,0.333,0.333,0.333,1,0.333,0.333,0.333,1","1,0.333,0.333,0.333,1,0.333,0.333,0.333,1","1",""
"","html-keyboard-response","125","69697","0.0-125.0","351SEKWQS132GPPCZWFB2WG70GZMDT","A1SLJKNSNHOJRN","3PIOQ99R7Y8STPN46QFY0SD7JTFNU0","","null","<img src=""img/flower2.png"" style=""width:200px; border:14px solid green;"">","null","","","","","","","","",""
"","image-keyboard-response","126","70099","0.0-126.0","351SEKWQS132GPPCZWFB2WG70GZMDT","A1SLJKNSNHOJRN","3PIOQ99R7Y8STPN46QFY0SD7JTFNU0","","400.7000000476837","img/flower2.png","75","401.2999999523163","2","1","2","1","1,0.333,0.333,0.333,1,0.333,0.333,0.333,1","1,0.333,0.333,0.333,1,0.333,0.333,0.333,1","1",""
"","html-keyboard-response","127","70401","0.0-127.0","351SEKWQS132GPPCZWFB2WG70GZMDT","A1SLJKNSNHOJRN","3PIOQ99R7Y8STPN46QFY0SD7JTFNU0","","null","<img src=""img/flower2.png"" style=""width:200px; border:14px solid green;"">","null","","","","","","","","",""
"","image-keyboard-response","128","71027","0.0-128.0","351SEKWQS132GPPCZWFB2WG70GZMDT","A1SLJKNSNHOJRN","3PIOQ99R7Y8STPN46QFY0SD7JTFNU0","","624.8000001907349","img/flower6.png","74","625.6000001430511","1","1","1","1","1,0.333,0.333,0.333,1,0.333,0.333,0.333,1","1,0.333,0.333,0.333,1,0.333,0.333,0.333,1","1",""
"","html-keyboard-response","129","71328","0.0-129.0","351SEKWQS132GPPCZWFB2WG70GZMDT","A1SLJKNSNHOJRN","3PIOQ99R7Y8STPN46QFY0SD7JTFNU0","","null","<img src=""img/flower6.png"" style=""width:200px; border:14px solid green;"">","null","","","","","","","","",""
"","image-keyboard-response","130","71923","0.0-130.0","351SEKWQS132GPPCZWFB2WG70GZMDT","A1SLJKNSNHOJRN","3PIOQ99R7Y8STPN46QFY0SD7JTFNU0","","594.1999998092651","img/flower5.png","76","594.7000000476837","3","1","3","1","1,0.333,0.333,0.333,1,0.333,0.333,0.333,1","1,0.333,0.333,0.333,1,0.333,0.333,0.333,1","1",""
"","html-keyboard-response","131","72225","0.0-131.0","351SEKWQS132GPPCZWFB2WG70GZMDT","A1SLJKNSNHOJRN","3PIOQ99R7Y8STPN46QFY0SD7JTFNU0","","null","<img src=""img/flower5.png"" style=""width:200px; border:14px solid green;"">","null","","","","","","","","",""
"","image-keyboard-response","132","72579","0.0-132.0","351SEKWQS132GPPCZWFB2WG70GZMDT","A1SLJKNSNHOJRN","3PIOQ99R7Y8STPN46QFY0SD7JTFNU0","","352.5","img/flower5.png","76","353.19999980926514","3","1","3","1","1,0.333,0.333,0.333,1,0.333,0.333,0.333,1","1,0.333,0.333,0.333,1,0.333,0.333,0.333,1","1",""
"","html-keyboard-response","133","72880","0.0-133.0","351SEKWQS132GPPCZWFB2WG70GZMDT","A1SLJKNSNHOJRN","3PIOQ99R7Y8STPN46QFY0SD7JTFNU0","","null","<img src=""img/flower5.png"" style=""width:200px; border:14px solid green;"">","null","","","","","","","","",""
"","image-keyboard-response","134","73507","0.0-134.0","351SEKWQS132GPPCZWFB2WG70GZMDT","A1SLJKNSNHOJRN","3PIOQ99R7Y8STPN46QFY0SD7JTFNU0","","626.4000000953674","img/flower6.png","74","626.8999998569489","1","1","1","1","1,0.333,0.333,0.333,1,0.333,0.333,0.333,1","1,0.333,0.333,0.333,1,0.333,0.333,0.333,1","1",""
"","html-keyboard-response","135","73808","0.0-135.0","351SEKWQS132GPPCZWFB2WG70GZMDT","A1SLJKNSNHOJRN","3PIOQ99R7Y8STPN46QFY0SD7JTFNU0","","null","<img src=""img/flower6.png"" style=""width:200px; border:14px solid green;"">","null","","","","","","","","",""
"","image-keyboard-response","136","74499","0.0-136.0","351SEKWQS132GPPCZWFB2WG70GZMDT","A1SLJKNSNHOJRN","3PIOQ99R7Y8STPN46QFY0SD7JTFNU0","","689.9000000953674","img/flower5.png","76","690.7000000476837","3","1","3","1","1,0.333,0.333,0.333,1,0.333,0.333,0.333,1","1,0.333,0.333,0.333,1,0.333,0.333,0.333,1","1",""
"","html-keyboard-response","137","74801","0.0-137.0","351SEKWQS132GPPCZWFB2WG70GZMDT","A1SLJKNSNHOJRN","3PIOQ99R7Y8STPN46QFY0SD7JTFNU0","","null","<img src=""img/flower5.png"" style=""width:200px; border:14px solid green;"">","null","","","","","","","","",""
"","image-keyboard-response","138","75683","0.0-138.0","351SEKWQS132GPPCZWFB2WG70GZMDT","A1SLJKNSNHOJRN","3PIOQ99R7Y8STPN46QFY0SD7JTFNU0","","881.4000000953674","img/flower2.png","74","882","1","1","2","1","1,0.333,0.333,0.333,1,0.333,0.333,0.333,1","1,0.333,0.333,0.333,1,0.333,0.333,0.333,1","1",""
"","html-keyboard-response","139","75985","0.0-139.0","351SEKWQS132GPPCZWFB2WG70GZMDT","A1SLJKNSNHOJRN","3PIOQ99R7Y8STPN46QFY0SD7JTFNU0","","null","<img src=""img/flower2.png"" style=""width:200px; border:14px solid green;"">","null","","","","","","","","",""
"","image-keyboard-response","140","76851","0.0-140.0","351SEKWQS132GPPCZWFB2WG70GZMDT","A1SLJKNSNHOJRN","3PIOQ99R7Y8STPN46QFY0SD7JTFNU0","","865.2999999523163","img/flower5.png","76","865.8999998569489","3","1","3","1","1,0.333,0.333,0.333,1,0.333,0.333,0.333,1","1,0.333,0.333,0.333,1,0.333,0.333,0.333,1","1",""
"","html-keyboard-response","141","77152","0.0-141.0","351SEKWQS132GPPCZWFB2WG70GZMDT","A1SLJKNSNHOJRN","3PIOQ99R7Y8STPN46QFY0SD7JTFNU0","","null","<img src=""img/flower5.png"" style=""width:200px; border:14px solid green;"">","null","","","","","","","","",""
"","image-keyboard-response","142","77515","0.0-142.0","351SEKWQS132GPPCZWFB2WG70GZMDT","A1SLJKNSNHOJRN","3PIOQ99R7Y8STPN46QFY0SD7JTFNU0","","362.2000000476837","img/flower5.png","76","362.7999999523163","3","1","3","1","1,0.333,0.333,0.333,1,0.333,0.333,0.333,1","1,0.333,0.333,0.333,1,0.333,0.333,0.333,1","1",""
"","html-keyboard-response","143","77817","0.0-143.0","351SEKWQS132GPPCZWFB2WG70GZMDT","A1SLJKNSNHOJRN","3PIOQ99R7Y8STPN46QFY0SD7JTFNU0","","null","<img src=""img/flower5.png"" style=""width:200px; border:14px solid green;"">","null","","","","","","","","",""
"","image-keyboard-response","144","78411","0.0-144.0","351SEKWQS132GPPCZWFB2WG70GZMDT","A1SLJKNSNHOJRN","3PIOQ99R7Y8STPN46QFY0SD7JTFNU0","","592.5999999046326","img/flower6.png","74","593.1000001430511","1","1","1","1","1,0.333,0.333,0.333,1,0.333,0.333,0.333,1","1,0.333,0.333,0.333,1,0.333,0.333,0.333,1","1",""
"","html-keyboard-response","145","78712","0.0-145.0","351SEKWQS132GPPCZWFB2WG70GZMDT","A1SLJKNSNHOJRN","3PIOQ99R7Y8STPN46QFY0SD7JTFNU0","","null","<img src=""img/flower6.png"" style=""width:200px; border:14px solid green;"">","null","","","","","","","","",""
"","image-keyboard-response","146","79107","0.0-146.0","351SEKWQS132GPPCZWFB2WG70GZMDT","A1SLJKNSNHOJRN","3PIOQ99R7Y8STPN46QFY0SD7JTFNU0","","393.90000009536743","img/flower6.png","74","394.60000014305115","1","1","1","1","1,0.333,0.333,0.333,1,0.333,0.333,0.333,1","1,0.333,0.333,0.333,1,0.333,0.333,0.333,1","1",""
"","html-keyboard-response","147","79408","0.0-147.0","351SEKWQS132GPPCZWFB2WG70GZMDT","A1SLJKNSNHOJRN","3PIOQ99R7Y8STPN46QFY0SD7JTFNU0","","null","<img src=""img/flower6.png"" style=""width:200px; border:14px solid green;"">","null","","","","","","","","",""
"","image-keyboard-response","148","80339","0.0-148.0","351SEKWQS132GPPCZWFB2WG70GZMDT","A1SLJKNSNHOJRN","3PIOQ99R7Y8STPN46QFY0SD7JTFNU0","","929.9000000953674","img/flower5.png","75","930.5999999046326","2","0","3","1","1,0.333,0.333,0.333,1,0.333,0.333,0.333,1","1,0.333,0.333,0.333,1,0.333,0.333,0.333,1","1",""
"","html-keyboard-response","149","80641","0.0-149.0","351SEKWQS132GPPCZWFB2WG70GZMDT","A1SLJKNSNHOJRN","3PIOQ99R7Y8STPN46QFY0SD7JTFNU0","","null","<img src=""img/flower5.png"" style=""width:200px;border:14px solid red;"">","null","","","","","","","","",""
"","image-keyboard-response","150","81147","0.0-150.0","351SEKWQS132GPPCZWFB2WG70GZMDT","A1SLJKNSNHOJRN","3PIOQ99R7Y8STPN46QFY0SD7JTFNU0","","505.09999990463257","img/flower2.png","75","505.7000000476837","2","1","2","1","1,0.333,0.333,0.333,1,0.333,0.333,0.333,1","1,0.333,0.333,0.333,1,0.333,0.333,0.333,1","1",""
"","html-keyboard-response","151","81449","0.0-151.0","351SEKWQS132GPPCZWFB2WG70GZMDT","A1SLJKNSNHOJRN","3PIOQ99R7Y8STPN46QFY0SD7JTFNU0","","null","<img src=""img/flower2.png"" style=""width:200px; border:14px solid green;"">","null","","","","","","","","",""
"","image-keyboard-response","152","82035","0.0-152.0","351SEKWQS132GPPCZWFB2WG70GZMDT","A1SLJKNSNHOJRN","3PIOQ99R7Y8STPN46QFY0SD7JTFNU0","","585.5","img/flower6.png","74","586.1000001430511","1","1","1","1","1,0.333,0.333,0.333,1,0.333,0.333,0.333,1","1,0.333,0.333,0.333,1,0.333,0.333,0.333,1","1",""
"","html-keyboard-response","153","82337","0.0-153.0","351SEKWQS132GPPCZWFB2WG70GZMDT","A1SLJKNSNHOJRN","3PIOQ99R7Y8STPN46QFY0SD7JTFNU0","","null","<img src=""img/flower6.png"" style=""width:200px; border:14px solid green;"">","null","","","","","","","","",""
"","image-keyboard-response","154","82699","0.0-154.0","351SEKWQS132GPPCZWFB2WG70GZMDT","A1SLJKNSNHOJRN","3PIOQ99R7Y8STPN46QFY0SD7JTFNU0","","360.80000019073486","img/flower6.png","74","361.2000000476837","1","1","1","1","1,0.333,0.333,0.333,1,0.333,0.333,0.333,1","1,0.333,0.333,0.333,1,0.333,0.333,0.333,1","1",""
"","html-keyboard-response","155","83000","0.0-155.0","351SEKWQS132GPPCZWFB2WG70GZMDT","A1SLJKNSNHOJRN","3PIOQ99R7Y8STPN46QFY0SD7JTFNU0","","null","<img src=""img/flower6.png"" style=""width:200px; border:14px solid green;"">","null","","","","","","","","",""
"","image-keyboard-response","156","83675","0.0-156.0","351SEKWQS132GPPCZWFB2WG70GZMDT","A1SLJKNSNHOJRN","3PIOQ99R7Y8STPN46QFY0SD7JTFNU0","","674.2000000476837","img/flower2.png","75","674.7000000476837","2","1","2","1","1,0.333,0.333,0.333,1,0.333,0.333,0.333,1","1,0.333,0.333,0.333,1,0.333,0.333,0.333,1","1",""
"","html-keyboard-response","157","83988","0.0-157.0","351SEKWQS132GPPCZWFB2WG70GZMDT","A1SLJKNSNHOJRN","3PIOQ99R7Y8STPN46QFY0SD7JTFNU0","","null","<img src=""img/flower2.png"" style=""width:200px; border:14px solid green;"">","null","","","","","","","","",""
"","image-keyboard-response","158","84579","0.0-158.0","351SEKWQS132GPPCZWFB2WG70GZMDT","A1SLJKNSNHOJRN","3PIOQ99R7Y8STPN46QFY0SD7JTFNU0","","590.3999998569489","img/flower6.png","74","591","1","1","1","1","1,0.333,0.333,0.333,1,0.333,0.333,0.333,1","1,0.333,0.333,0.333,1,0.333,0.333,0.333,1","1",""
"","html-keyboard-response","159","84881","0.0-159.0","351SEKWQS132GPPCZWFB2WG70GZMDT","A1SLJKNSNHOJRN","3PIOQ99R7Y8STPN46QFY0SD7JTFNU0","","null","<img src=""img/flower6.png"" style=""width:200px; border:14px solid green;"">","null","","","","","","","","",""
"","image-keyboard-response","160","85443","0.0-160.0","351SEKWQS132GPPCZWFB2WG70GZMDT","A1SLJKNSNHOJRN","3PIOQ99R7Y8STPN46QFY0SD7JTFNU0","","561.1000001430511","img/flower5.png","75","561.7000000476837","2","0","3","1","1,0.333,0.333,0.333,1,0.333,0.333,0.333,1","1,0.333,0.333,0.333,1,0.333,0.333,0.333,1","1",""
"","html-keyboard-response","161","85749","0.0-161.0","351SEKWQS132GPPCZWFB2WG70GZMDT","A1SLJKNSNHOJRN","3PIOQ99R7Y8STPN46QFY0SD7JTFNU0","","null","<img src=""img/flower5.png"" style=""width:200px;border:14px solid red;"">","null","","","","","","","","",""
"","image-keyboard-response","162","86307","0.0-162.0","351SEKWQS132GPPCZWFB2WG70GZMDT","A1SLJKNSNHOJRN","3PIOQ99R7Y8STPN46QFY0SD7JTFNU0","","557.2999999523163","img/flower2.png","75","557.8999998569489","2","1","2","1","1,0.333,0.333,0.333,1,0.333,0.333,0.333,1","1,0.333,0.333,0.333,1,0.333,0.333,0.333,1","1",""
"","html-keyboard-response","163","86608","0.0-163.0","351SEKWQS132GPPCZWFB2WG70GZMDT","A1SLJKNSNHOJRN","3PIOQ99R7Y8STPN46QFY0SD7JTFNU0","","null","<img src=""img/flower2.png"" style=""width:200px; border:14px solid green;"">","null","","","","","","","","",""
"","image-keyboard-response","164","87347","0.0-164.0","351SEKWQS132GPPCZWFB2WG70GZMDT","A1SLJKNSNHOJRN","3PIOQ99R7Y8STPN46QFY0SD7JTFNU0","","738.1000001430511","img/flower6.png","74","738.5999999046326","1","1","1","1","1,0.333,0.333,0.333,1,0.333,0.333,0.333,1","1,0.333,0.333,0.333,1,0.333,0.333,0.333,1","1",""
"","html-keyboard-response","165","87648","0.0-165.0","351SEKWQS132GPPCZWFB2WG70GZMDT","A1SLJKNSNHOJRN","3PIOQ99R7Y8STPN46QFY0SD7JTFNU0","","null","<img src=""img/flower6.png"" style=""width:200px; border:14px solid green;"">","null","","","","","","","","",""
"","image-keyboard-response","166","88331","0.0-166.0","351SEKWQS132GPPCZWFB2WG70GZMDT","A1SLJKNSNHOJRN","3PIOQ99R7Y8STPN46QFY0SD7JTFNU0","","682.2000000476837","img/flower5.png","76","682.6999998092651","3","1","3","1","1,0.333,0.333,0.333,1,0.333,0.333,0.333,1","1,0.333,0.333,0.333,1,0.333,0.333,0.333,1","1",""
"","html-keyboard-response","167","88633","0.0-167.0","351SEKWQS132GPPCZWFB2WG70GZMDT","A1SLJKNSNHOJRN","3PIOQ99R7Y8STPN46QFY0SD7JTFNU0","","null","<img src=""img/flower5.png"" style=""width:200px; border:14px solid green;"">","null","","","","","","","","",""
"","image-keyboard-response","168","89195","0.0-168.0","351SEKWQS132GPPCZWFB2WG70GZMDT","A1SLJKNSNHOJRN","3PIOQ99R7Y8STPN46QFY0SD7JTFNU0","","561","img/flower2.png","75","561.6000001430511","2","1","2","1","1,0.333,0.333,0.333,1,0.333,0.333,0.333,1","1,0.333,0.333,0.333,1,0.333,0.333,0.333,1","1",""
"","html-keyboard-response","169","89497","0.0-169.0","351SEKWQS132GPPCZWFB2WG70GZMDT","A1SLJKNSNHOJRN","3PIOQ99R7Y8STPN46QFY0SD7JTFNU0","","null","<img src=""img/flower2.png"" style=""width:200px; border:14px solid green;"">","null","","","","","","","","",""
"","image-keyboard-response","170","90019","0.0-170.0","351SEKWQS132GPPCZWFB2WG70GZMDT","A1SLJKNSNHOJRN","3PIOQ99R7Y8STPN46QFY0SD7JTFNU0","","521.5999999046326","img/flower6.png","74","522","1","1","1","1","1,0.333,0.333,0.333,1,0.333,0.333,0.333,1","1,0.333,0.333,0.333,1,0.333,0.333,0.333,1","1",""
"","html-keyboard-response","171","90321","0.0-171.0","351SEKWQS132GPPCZWFB2WG70GZMDT","A1SLJKNSNHOJRN","3PIOQ99R7Y8STPN46QFY0SD7JTFNU0","","null","<img src=""img/flower6.png"" style=""width:200px; border:14px solid green;"">","null","","","","","","","","",""
"","image-keyboard-response","172","90835","0.0-172.0","351SEKWQS132GPPCZWFB2WG70GZMDT","A1SLJKNSNHOJRN","3PIOQ99R7Y8STPN46QFY0SD7JTFNU0","","513.2000000476837","img/flower5.png","76","513.7999999523163","3","1","3","1","1,0.333,0.333,0.333,1,0.333,0.333,0.333,1","1,0.333,0.333,0.333,1,0.333,0.333,0.333,1","1",""
"","html-keyboard-response","173","91136","0.0-173.0","351SEKWQS132GPPCZWFB2WG70GZMDT","A1SLJKNSNHOJRN","3PIOQ99R7Y8STPN46QFY0SD7JTFNU0","","null","<img src=""img/flower5.png"" style=""width:200px; border:14px solid green;"">","null","","","","","","","","",""
"","image-keyboard-response","174","91715","0.0-174.0","351SEKWQS132GPPCZWFB2WG70GZMDT","A1SLJKNSNHOJRN","3PIOQ99R7Y8STPN46QFY0SD7JTFNU0","","578","img/flower2.png","75","578.8000001907349","2","1","2","1","1,0.333,0.333,0.333,1,0.333,0.333,0.333,1","1,0.333,0.333,0.333,1,0.333,0.333,0.333,1","1",""
"","html-keyboard-response","175","92031","0.0-175.0","351SEKWQS132GPPCZWFB2WG70GZMDT","A1SLJKNSNHOJRN","3PIOQ99R7Y8STPN46QFY0SD7JTFNU0","","null","<img src=""img/flower2.png"" style=""width:200px; border:14px solid green;"">","null","","","","","","","","",""
"","image-keyboard-response","176","92771","0.0-176.0","351SEKWQS132GPPCZWFB2WG70GZMDT","A1SLJKNSNHOJRN","3PIOQ99R7Y8STPN46QFY0SD7JTFNU0","","739","img/flower5.png","76","739.7000000476837","3","1","3","1","1,0.333,0.333,0.333,1,0.333,0.333,0.333,1","1,0.333,0.333,0.333,1,0.333,0.333,0.333,1","1",""
"","html-keyboard-response","177","93073","0.0-177.0","351SEKWQS132GPPCZWFB2WG70GZMDT","A1SLJKNSNHOJRN","3PIOQ99R7Y8STPN46QFY0SD7JTFNU0","","null","<img src=""img/flower5.png"" style=""width:200px; border:14px solid green;"">","null","","","","","","","","",""
"","image-keyboard-response","178","93539","0.0-178.0","351SEKWQS132GPPCZWFB2WG70GZMDT","A1SLJKNSNHOJRN","3PIOQ99R7Y8STPN46QFY0SD7JTFNU0","","464.90000009536743","img/flower2.png","75","465.60000014305115","2","1","2","1","1,0.333,0.333,0.333,1,0.333,0.333,0.333,1","1,0.333,0.333,0.333,1,0.333,0.333,0.333,1","1",""
"","html-keyboard-response","179","93841","0.0-179.0","351SEKWQS132GPPCZWFB2WG70GZMDT","A1SLJKNSNHOJRN","3PIOQ99R7Y8STPN46QFY0SD7JTFNU0","","null","<img src=""img/flower2.png"" style=""width:200px; border:14px solid green;"">","null","","","","","","","","",""
"","image-keyboard-response","180","94315","0.0-180.0","351SEKWQS132GPPCZWFB2WG70GZMDT","A1SLJKNSNHOJRN","3PIOQ99R7Y8STPN46QFY0SD7JTFNU0","","472.90000009536743","img/flower2.png","75","473.5","2","1","2","1","1,0.333,0.333,0.333,1,0.333,0.333,0.333,1","1,0.333,0.333,0.333,1,0.333,0.333,0.333,1","1",""
"","html-keyboard-response","181","94617","0.0-181.0","351SEKWQS132GPPCZWFB2WG70GZMDT","A1SLJKNSNHOJRN","3PIOQ99R7Y8STPN46QFY0SD7JTFNU0","","null","<img src=""img/flower2.png"" style=""width:200px; border:14px solid green;"">","null","","","","","","","","",""
"","html-keyboard-response","182","97005","0.0-182.0","351SEKWQS132GPPCZWFB2WG70GZMDT","A1SLJKNSNHOJRN","3PIOQ99R7Y8STPN46QFY0SD7JTFNU0","","","","","","","","","","","","",""
"","image-keyboard-response","183","98403","0.0-183.0","351SEKWQS132GPPCZWFB2WG70GZMDT","A1SLJKNSNHOJRN","3PIOQ99R7Y8STPN46QFY0SD7JTFNU0","","1396.7000000476837","img/flower1.png","75","1397.5","2","1","2","2","1,0,0,1,1,0,1,0,1","0,1,0,0,1,1,1,1,0","3",""
"","html-keyboard-response","184","98705","0.0-184.0","351SEKWQS132GPPCZWFB2WG70GZMDT","A1SLJKNSNHOJRN","3PIOQ99R7Y8STPN46QFY0SD7JTFNU0","","null","<img src=""img/flower1.png"" style=""width:200px; border:14px solid green;"">","null","","","","","","","","",""
"","image-keyboard-response","185","99283","0.0-185.0","351SEKWQS132GPPCZWFB2WG70GZMDT","A1SLJKNSNHOJRN","3PIOQ99R7Y8STPN46QFY0SD7JTFNU0","","577.1000001430511","img/flower1.png","75","577.8999998569489","2","1","2","2","1,0,0,1,1,0,1,0,1","0,1,0,0,1,1,1,1,0","3",""
"","html-keyboard-response","186","99584","0.0-186.0","351SEKWQS132GPPCZWFB2WG70GZMDT","A1SLJKNSNHOJRN","3PIOQ99R7Y8STPN46QFY0SD7JTFNU0","","null","<img src=""img/flower1.png"" style=""width:200px; border:14px solid green;"">","null","","","","","","","","",""
"","image-keyboard-response","187","100531","0.0-187.0","351SEKWQS132GPPCZWFB2WG70GZMDT","A1SLJKNSNHOJRN","3PIOQ99R7Y8STPN46QFY0SD7JTFNU0","","946.1000001430511","img/flower1.png","75","946.8999998569489","2","1","2","2","1,0,0,1,1,0,1,0,1","0,1,0,0,1,1,1,1,0","3",""
"","html-keyboard-response","188","100832","0.0-188.0","351SEKWQS132GPPCZWFB2WG70GZMDT","A1SLJKNSNHOJRN","3PIOQ99R7Y8STPN46QFY0SD7JTFNU0","","null","<img src=""img/flower1.png"" style=""width:200px; border:14px solid green;"">","null","","","","","","","","",""
"","image-keyboard-response","189","102243","0.0-189.0","351SEKWQS132GPPCZWFB2WG70GZMDT","A1SLJKNSNHOJRN","3PIOQ99R7Y8STPN46QFY0SD7JTFNU0","","1409.9000000953674","img/flower3.png","74","1410.5999999046326","1","0","1","2","1,0,0,1,1,0,1,0,1","0,1,0,0,1,1,1,1,0","3",""
"","html-keyboard-response","190","102546","0.0-190.0","351SEKWQS132GPPCZWFB2WG70GZMDT","A1SLJKNSNHOJRN","3PIOQ99R7Y8STPN46QFY0SD7JTFNU0","","null","<img src=""img/flower3.png"" style=""width:200px;border:14px solid red;"">","null","","","","","","","","",""
"","image-keyboard-response","191","103347","0.0-191.0","351SEKWQS132GPPCZWFB2WG70GZMDT","A1SLJKNSNHOJRN","3PIOQ99R7Y8STPN46QFY0SD7JTFNU0","","800.0999999046326","img/flower1.png","75","800.7000000476837","2","1","2","2","1,0,0,1,1,0,1,0,1","0,1,0,0,1,1,1,1,0","3",""
"","html-keyboard-response","192","103649","0.0-192.0","351SEKWQS132GPPCZWFB2WG70GZMDT","A1SLJKNSNHOJRN","3PIOQ99R7Y8STPN46QFY0SD7JTFNU0","","null","<img src=""img/flower1.png"" style=""width:200px; border:14px solid green;"">","null","","","","","","","","",""
"","image-keyboard-response","193","104451","0.0-193.0","351SEKWQS132GPPCZWFB2WG70GZMDT","A1SLJKNSNHOJRN","3PIOQ99R7Y8STPN46QFY0SD7JTFNU0","","801.0999999046326","img/flower4.png","76","801.8999998569489","3","0","3","2","1,0,0,1,1,0,1,0,1","0,1,0,0,1,1,1,1,0","3",""
"","html-keyboard-response","194","104753","0.0-194.0","351SEKWQS132GPPCZWFB2WG70GZMDT","A1SLJKNSNHOJRN","3PIOQ99R7Y8STPN46QFY0SD7JTFNU0","","null","<img src=""img/flower4.png"" style=""width:200px;border:14px solid red;"">","null","","","","","","","","",""
"","image-keyboard-response","195","105811","0.0-195.0","351SEKWQS132GPPCZWFB2WG70GZMDT","A1SLJKNSNHOJRN","3PIOQ99R7Y8STPN46QFY0SD7JTFNU0","","1057.1000001430511","img/flower3.png","75","1057.7000000476837","2","1","1","2","1,0,0,1,1,0,1,0,1","0,1,0,0,1,1,1,1,0","3",""
"","html-keyboard-response","196","106113","0.0-196.0","351SEKWQS132GPPCZWFB2WG70GZMDT","A1SLJKNSNHOJRN","3PIOQ99R7Y8STPN46QFY0SD7JTFNU0","","null","<img src=""img/flower3.png"" style=""width:200px; border:14px solid green;"">","null","","","","","","","","",""
"","image-keyboard-response","197","106723","0.0-197.0","351SEKWQS132GPPCZWFB2WG70GZMDT","A1SLJKNSNHOJRN","3PIOQ99R7Y8STPN46QFY0SD7JTFNU0","","608.9000000953674","img/flower3.png","75","609.5","2","1","1","2","1,0,0,1,1,0,1,0,1","0,1,0,0,1,1,1,1,0","3",""
"","html-keyboard-response","198","107025","0.0-198.0","351SEKWQS132GPPCZWFB2WG70GZMDT","A1SLJKNSNHOJRN","3PIOQ99R7Y8STPN46QFY0SD7JTFNU0","","null","<img src=""img/flower3.png"" style=""width:200px; border:14px solid green;"">","null","","","","","","","","",""
"","image-keyboard-response","199","107667","0.0-199.0","351SEKWQS132GPPCZWFB2WG70GZMDT","A1SLJKNSNHOJRN","3PIOQ99R7Y8STPN46QFY0SD7JTFNU0","","640.9000000953674","img/flower1.png","74","641.5","1","0","2","2","1,0,0,1,1,0,1,0,1","0,1,0,0,1,1,1,1,0","3",""
"","html-keyboard-response","200","107969","0.0-200.0","351SEKWQS132GPPCZWFB2WG70GZMDT","A1SLJKNSNHOJRN","3PIOQ99R7Y8STPN46QFY0SD7JTFNU0","","null","<img src=""img/flower1.png"" style=""width:200px;border:14px solid red;"">","null","","","","","","","","",""
"","image-keyboard-response","201","108699","0.0-201.0","351SEKWQS132GPPCZWFB2WG70GZMDT","A1SLJKNSNHOJRN","3PIOQ99R7Y8STPN46QFY0SD7JTFNU0","","729.0999999046326","img/flower4.png","75","729.8000001907349","2","1","3","2","1,0,0,1,1,0,1,0,1","0,1,0,0,1,1,1,1,0","3",""
"","html-keyboard-response","202","109001","0.0-202.0","351SEKWQS132GPPCZWFB2WG70GZMDT","A1SLJKNSNHOJRN","3PIOQ99R7Y8STPN46QFY0SD7JTFNU0","","null","<img src=""img/flower4.png"" style=""width:200px; border:14px solid green;"">","null","","","","","","","","",""
"","image-keyboard-response","203","110235","0.0-203.0","351SEKWQS132GPPCZWFB2WG70GZMDT","A1SLJKNSNHOJRN","3PIOQ99R7Y8STPN46QFY0SD7JTFNU0","","1232.8000001907349","img/flower1.png","75","1233.3999998569489","2","1","2","2","1,0,0,1,1,0,1,0,1","0,1,0,0,1,1,1,1,0","3",""
"","html-keyboard-response","204","110536","0.0-204.0","351SEKWQS132GPPCZWFB2WG70GZMDT","A1SLJKNSNHOJRN","3PIOQ99R7Y8STPN46QFY0SD7JTFNU0","","null","<img src=""img/flower1.png"" style=""width:200px; border:14px solid green;"">","null","","","","","","","","",""
"","image-keyboard-response","205","111123","0.0-205.0","351SEKWQS132GPPCZWFB2WG70GZMDT","A1SLJKNSNHOJRN","3PIOQ99R7Y8STPN46QFY0SD7JTFNU0","","585.9000000953674","img/flower4.png","75","586.6000001430511","2","1","3","2","1,0,0,1,1,0,1,0,1","0,1,0,0,1,1,1,1,0","3",""
"","html-keyboard-response","206","111424","0.0-206.0","351SEKWQS132GPPCZWFB2WG70GZMDT","A1SLJKNSNHOJRN","3PIOQ99R7Y8STPN46QFY0SD7JTFNU0","","null","<img src=""img/flower4.png"" style=""width:200px; border:14px solid green;"">","null","","","","","","","","",""
"","image-keyboard-response","207","111835","0.0-207.0","351SEKWQS132GPPCZWFB2WG70GZMDT","A1SLJKNSNHOJRN","3PIOQ99R7Y8STPN46QFY0SD7JTFNU0","","409.7000000476837","img/flower3.png","75","410.19999980926514","2","1","1","2","1,0,0,1,1,0,1,0,1","0,1,0,0,1,1,1,1,0","3",""
"","html-keyboard-response","208","112136","0.0-208.0","351SEKWQS132GPPCZWFB2WG70GZMDT","A1SLJKNSNHOJRN","3PIOQ99R7Y8STPN46QFY0SD7JTFNU0","","null","<img src=""img/flower3.png"" style=""width:200px; border:14px solid green;"">","null","","","","","","","","",""
"","image-keyboard-response","209","112443","0.0-209.0","351SEKWQS132GPPCZWFB2WG70GZMDT","A1SLJKNSNHOJRN","3PIOQ99R7Y8STPN46QFY0SD7JTFNU0","","305.90000009536743","img/flower1.png","75","306.5","2","1","2","2","1,0,0,1,1,0,1,0,1","0,1,0,0,1,1,1,1,0","3",""
"","html-keyboard-response","210","112745","0.0-210.0","351SEKWQS132GPPCZWFB2WG70GZMDT","A1SLJKNSNHOJRN","3PIOQ99R7Y8STPN46QFY0SD7JTFNU0","","null","<img src=""img/flower1.png"" style=""width:200px; border:14px solid green;"">","null","","","","","","","","",""
"","image-keyboard-response","211","112995","0.0-211.0","351SEKWQS132GPPCZWFB2WG70GZMDT","A1SLJKNSNHOJRN","3PIOQ99R7Y8STPN46QFY0SD7JTFNU0","","248.79999995231628","img/flower1.png","75","249.40000009536743","2","1","2","2","1,0,0,1,1,0,1,0,1","0,1,0,0,1,1,1,1,0","3",""
"","html-keyboard-response","212","113296","0.0-212.0","351SEKWQS132GPPCZWFB2WG70GZMDT","A1SLJKNSNHOJRN","3PIOQ99R7Y8STPN46QFY0SD7JTFNU0","","null","<img src=""img/flower1.png"" style=""width:200px; border:14px solid green;"">","null","","","","","","","","",""
"","image-keyboard-response","213","113539","0.0-213.0","351SEKWQS132GPPCZWFB2WG70GZMDT","A1SLJKNSNHOJRN","3PIOQ99R7Y8STPN46QFY0SD7JTFNU0","","242.10000014305115","img/flower4.png","75","242.70000004768372","2","1","3","2","1,0,0,1,1,0,1,0,1","0,1,0,0,1,1,1,1,0","3",""
"","html-keyboard-response","214","113841","0.0-214.0","351SEKWQS132GPPCZWFB2WG70GZMDT","A1SLJKNSNHOJRN","3PIOQ99R7Y8STPN46QFY0SD7JTFNU0","","null","<img src=""img/flower4.png"" style=""width:200px; border:14px solid green;"">","null","","","","","","","","",""
"","image-keyboard-response","215","114003","0.0-215.0","351SEKWQS132GPPCZWFB2WG70GZMDT","A1SLJKNSNHOJRN","3PIOQ99R7Y8STPN46QFY0SD7JTFNU0","","161.30000019073486","img/flower1.png","75","162","2","1","2","2","1,0,0,1,1,0,1,0,1","0,1,0,0,1,1,1,1,0","3",""
"","html-keyboard-response","216","114304","0.0-216.0","351SEKWQS132GPPCZWFB2WG70GZMDT","A1SLJKNSNHOJRN","3PIOQ99R7Y8STPN46QFY0SD7JTFNU0","","null","<img src=""img/flower1.png"" style=""width:200px; border:14px solid green;"">","null","","","","","","","","",""
"","image-keyboard-response","217","114427","0.0-217.0","351SEKWQS132GPPCZWFB2WG70GZMDT","A1SLJKNSNHOJRN","3PIOQ99R7Y8STPN46QFY0SD7JTFNU0","","122.09999990463257","img/flower3.png","75","122.60000014305115","2","1","1","2","1,0,0,1,1,0,1,0,1","0,1,0,0,1,1,1,1,0","3",""
"","html-keyboard-response","218","114728","0.0-218.0","351SEKWQS132GPPCZWFB2WG70GZMDT","A1SLJKNSNHOJRN","3PIOQ99R7Y8STPN46QFY0SD7JTFNU0","","null","<img src=""img/flower3.png"" style=""width:200px; border:14px solid green;"">","null","","","","","","","","",""
"","image-keyboard-response","219","114811","0.0-219.0","351SEKWQS132GPPCZWFB2WG70GZMDT","A1SLJKNSNHOJRN","3PIOQ99R7Y8STPN46QFY0SD7JTFNU0","","81","img/flower4.png","75","81.90000009536743","2","1","3","2","1,0,0,1,1,0,1,0,1","0,1,0,0,1,1,1,1,0","3",""
"","html-keyboard-response","220","115112","0.0-220.0","351SEKWQS132GPPCZWFB2WG70GZMDT","A1SLJKNSNHOJRN","3PIOQ99R7Y8STPN46QFY0SD7JTFNU0","","null","<img src=""img/flower4.png"" style=""width:200px; border:14px solid green;"">","null","","","","","","","","",""
"","image-keyboard-response","221","115147","0.0-221.0","351SEKWQS132GPPCZWFB2WG70GZMDT","A1SLJKNSNHOJRN","3PIOQ99R7Y8STPN46QFY0SD7JTFNU0","","34.30000019073486","img/flower3.png","75","34.799999952316284","2","1","1","2","1,0,0,1,1,0,1,0,1","0,1,0,0,1,1,1,1,0","3",""
"","html-keyboard-response","222","115449","0.0-222.0","351SEKWQS132GPPCZWFB2WG70GZMDT","A1SLJKNSNHOJRN","3PIOQ99R7Y8STPN46QFY0SD7JTFNU0","","null","<img src=""img/flower3.png"" style=""width:200px; border:14px solid green;"">","null","","","","","","","","",""
"","image-keyboard-response","223","115451","0.0-223.0","351SEKWQS132GPPCZWFB2WG70GZMDT","A1SLJKNSNHOJRN","3PIOQ99R7Y8STPN46QFY0SD7JTFNU0","","1.3000001907348633","img/flower1.png","75","2.5999999046325684","2","1","2","2","1,0,0,1,1,0,1,0,1","0,1,0,0,1,1,1,1,0","3",""
"","html-keyboard-response","224","115753","0.0-224.0","351SEKWQS132GPPCZWFB2WG70GZMDT","A1SLJKNSNHOJRN","3PIOQ99R7Y8STPN46QFY0SD7JTFNU0","","null","<img src=""img/flower1.png"" style=""width:200px; border:14px solid green;"">","null","","","","","","","","",""
"","image-keyboard-response","225","115987","0.0-225.0","351SEKWQS132GPPCZWFB2WG70GZMDT","A1SLJKNSNHOJRN","3PIOQ99R7Y8STPN46QFY0SD7JTFNU0","","233","img/flower1.png","75","233.70000004768372","2","1","2","2","1,0,0,1,1,0,1,0,1","0,1,0,0,1,1,1,1,0","3",""
"","html-keyboard-response","226","116289","0.0-226.0","351SEKWQS132GPPCZWFB2WG70GZMDT","A1SLJKNSNHOJRN","3PIOQ99R7Y8STPN46QFY0SD7JTFNU0","","null","<img src=""img/flower1.png"" style=""width:200px; border:14px solid green;"">","null","","","","","","","","",""
"","image-keyboard-response","227","116499","0.0-227.0","351SEKWQS132GPPCZWFB2WG70GZMDT","A1SLJKNSNHOJRN","3PIOQ99R7Y8STPN46QFY0SD7JTFNU0","","208.5","img/flower3.png","75","209.20000004768372","2","1","1","2","1,0,0,1,1,0,1,0,1","0,1,0,0,1,1,1,1,0","3",""
"","html-keyboard-response","228","116801","0.0-228.0","351SEKWQS132GPPCZWFB2WG70GZMDT","A1SLJKNSNHOJRN","3PIOQ99R7Y8STPN46QFY0SD7JTFNU0","","null","<img src=""img/flower3.png"" style=""width:200px; border:14px solid green;"">","null","","","","","","","","",""
"","image-keyboard-response","229","116923","0.0-229.0","351SEKWQS132GPPCZWFB2WG70GZMDT","A1SLJKNSNHOJRN","3PIOQ99R7Y8STPN46QFY0SD7JTFNU0","","120.89999985694885","img/flower4.png","75","121.5","2","1","3","2","1,0,0,1,1,0,1,0,1","0,1,0,0,1,1,1,1,0","3",""
"","html-keyboard-response","230","117224","0.0-230.0","351SEKWQS132GPPCZWFB2WG70GZMDT","A1SLJKNSNHOJRN","3PIOQ99R7Y8STPN46QFY0SD7JTFNU0","","null","<img src=""img/flower4.png"" style=""width:200px; border:14px solid green;"">","null","","","","","","","","",""
"","image-keyboard-response","231","117347","0.0-231.0","351SEKWQS132GPPCZWFB2WG70GZMDT","A1SLJKNSNHOJRN","3PIOQ99R7Y8STPN46QFY0SD7JTFNU0","","122","img/flower3.png","75","122.59999990463257","2","1","1","2","1,0,0,1,1,0,1,0,1","0,1,0,0,1,1,1,1,0","3",""
"","html-keyboard-response","232","117648","0.0-232.0","351SEKWQS132GPPCZWFB2WG70GZMDT","A1SLJKNSNHOJRN","3PIOQ99R7Y8STPN46QFY0SD7JTFNU0","","null","<img src=""img/flower3.png"" style=""width:200px; border:14px solid green;"">","null","","","","","","","","",""
"","image-keyboard-response","233","117787","0.0-233.0","351SEKWQS132GPPCZWFB2WG70GZMDT","A1SLJKNSNHOJRN","3PIOQ99R7Y8STPN46QFY0SD7JTFNU0","","138","img/flower3.png","75","138.70000004768372","2","1","1","2","1,0,0,1,1,0,1,0,1","0,1,0,0,1,1,1,1,0","3",""
"","html-keyboard-response","234","118089","0.0-234.0","351SEKWQS132GPPCZWFB2WG70GZMDT","A1SLJKNSNHOJRN","3PIOQ99R7Y8STPN46QFY0SD7JTFNU0","","null","<img src=""img/flower3.png"" style=""width:200px; border:14px solid green;"">","null","","","","","","","","",""
"","image-keyboard-response","235","118211","0.0-235.0","351SEKWQS132GPPCZWFB2WG70GZMDT","A1SLJKNSNHOJRN","3PIOQ99R7Y8STPN46QFY0SD7JTFNU0","","121.20000004768372","img/flower3.png","75","121.90000009536743","2","1","1","2","1,0,0,1,1,0,1,0,1","0,1,0,0,1,1,1,1,0","3",""
"","html-keyboard-response","236","118513","0.0-236.0","351SEKWQS132GPPCZWFB2WG70GZMDT","A1SLJKNSNHOJRN","3PIOQ99R7Y8STPN46QFY0SD7JTFNU0","","null","<img src=""img/flower3.png"" style=""width:200px; border:14px solid green;"">","null","","","","","","","","",""
"","image-keyboard-response","237","118643","0.0-237.0","351SEKWQS132GPPCZWFB2WG70GZMDT","A1SLJKNSNHOJRN","3PIOQ99R7Y8STPN46QFY0SD7JTFNU0","","128.90000009536743","img/flower4.png","75","129.5","2","1","3","2","1,0,0,1,1,0,1,0,1","0,1,0,0,1,1,1,1,0","3",""
"","html-keyboard-response","238","118944","0.0-238.0","351SEKWQS132GPPCZWFB2WG70GZMDT","A1SLJKNSNHOJRN","3PIOQ99R7Y8STPN46QFY0SD7JTFNU0","","null","<img src=""img/flower4.png"" style=""width:200px; border:14px solid green;"">","null","","","","","","","","",""
"","image-keyboard-response","239","119043","0.0-239.0","351SEKWQS132GPPCZWFB2WG70GZMDT","A1SLJKNSNHOJRN","3PIOQ99R7Y8STPN46QFY0SD7JTFNU0","","98.09999990463257","img/flower3.png","75","98.69999980926514","2","1","1","2","1,0,0,1,1,0,1,0,1","0,1,0,0,1,1,1,1,0","3",""
"","html-keyboard-response","240","119344","0.0-240.0","351SEKWQS132GPPCZWFB2WG70GZMDT","A1SLJKNSNHOJRN","3PIOQ99R7Y8STPN46QFY0SD7JTFNU0","","null","<img src=""img/flower3.png"" style=""width:200px; border:14px solid green;"">","null","","","","","","","","",""
"","image-keyboard-response","241","119459","0.0-241.0","351SEKWQS132GPPCZWFB2WG70GZMDT","A1SLJKNSNHOJRN","3PIOQ99R7Y8STPN46QFY0SD7JTFNU0","","113.40000009536743","img/flower3.png","75","114.20000004768372","2","1","1","2","1,0,0,1,1,0,1,0,1","0,1,0,0,1,1,1,1,0","3",""
"","html-keyboard-response","242","119767","0.0-242.0","351SEKWQS132GPPCZWFB2WG70GZMDT","A1SLJKNSNHOJRN","3PIOQ99R7Y8STPN46QFY0SD7JTFNU0","","null","<img src=""img/flower3.png"" style=""width:200px; border:14px solid green;"">","null","","","","","","","","",""
"","image-keyboard-response","243","119891","0.0-243.0","351SEKWQS132GPPCZWFB2WG70GZMDT","A1SLJKNSNHOJRN","3PIOQ99R7Y8STPN46QFY0SD7JTFNU0","","123.40000009536743","img/flower4.png","75","124.29999995231628","2","1","3","2","1,0,0,1,1,0,1,0,1","0,1,0,0,1,1,1,1,0","3",""
"","html-keyboard-response","244","120192","0.0-244.0","351SEKWQS132GPPCZWFB2WG70GZMDT","A1SLJKNSNHOJRN","3PIOQ99R7Y8STPN46QFY0SD7JTFNU0","","null","<img src=""img/flower4.png"" style=""width:200px; border:14px solid green;"">","null","","","","","","","","",""
"","image-keyboard-response","245","120331","0.0-245.0","351SEKWQS132GPPCZWFB2WG70GZMDT","A1SLJKNSNHOJRN","3PIOQ99R7Y8STPN46QFY0SD7JTFNU0","","138","img/flower1.png","75","138.5","2","1","2","2","1,0,0,1,1,0,1,0,1","0,1,0,0,1,1,1,1,0","3",""
"","html-keyboard-response","246","120632","0.0-246.0","351SEKWQS132GPPCZWFB2WG70GZMDT","A1SLJKNSNHOJRN","3PIOQ99R7Y8STPN46QFY0SD7JTFNU0","","null","<img src=""img/flower1.png"" style=""width:200px; border:14px solid green;"">","null","","","","","","","","",""
"","image-keyboard-response","247","120747","0.0-247.0","351SEKWQS132GPPCZWFB2WG70GZMDT","A1SLJKNSNHOJRN","3PIOQ99R7Y8STPN46QFY0SD7JTFNU0","","114","img/flower3.png","75","114.59999990463257","2","1","1","2","1,0,0,1,1,0,1,0,1","0,1,0,0,1,1,1,1,0","3",""
"","html-keyboard-response","248","121048","0.0-248.0","351SEKWQS132GPPCZWFB2WG70GZMDT","A1SLJKNSNHOJRN","3PIOQ99R7Y8STPN46QFY0SD7JTFNU0","","null","<img src=""img/flower3.png"" style=""width:200px; border:14px solid green;"">","null","","","","","","","","",""
"","image-keyboard-response","249","121195","0.0-249.0","351SEKWQS132GPPCZWFB2WG70GZMDT","A1SLJKNSNHOJRN","3PIOQ99R7Y8STPN46QFY0SD7JTFNU0","","145.79999995231628","img/flower4.png","75","146.5","2","1","3","2","1,0,0,1,1,0,1,0,1","0,1,0,0,1,1,1,1,0","3",""
"","html-keyboard-response","250","121497","0.0-250.0","351SEKWQS132GPPCZWFB2WG70GZMDT","A1SLJKNSNHOJRN","3PIOQ99R7Y8STPN46QFY0SD7JTFNU0","","null","<img src=""img/flower4.png"" style=""width:200px; border:14px solid green;"">","null","","","","","","","","",""
"","image-keyboard-response","251","121651","0.0-251.0","351SEKWQS132GPPCZWFB2WG70GZMDT","A1SLJKNSNHOJRN","3PIOQ99R7Y8STPN46QFY0SD7JTFNU0","","153.70000004768372","img/flower3.png","75","154.19999980926514","2","1","1","2","1,0,0,1,1,0,1,0,1","0,1,0,0,1,1,1,1,0","3",""
"","html-keyboard-response","252","121953","0.0-252.0","351SEKWQS132GPPCZWFB2WG70GZMDT","A1SLJKNSNHOJRN","3PIOQ99R7Y8STPN46QFY0SD7JTFNU0","","null","<img src=""img/flower3.png"" style=""width:200px; border:14px solid green;"">","null","","","","","","","","",""
"","image-keyboard-response","253","122091","0.0-253.0","351SEKWQS132GPPCZWFB2WG70GZMDT","A1SLJKNSNHOJRN","3PIOQ99R7Y8STPN46QFY0SD7JTFNU0","","136.5","img/flower4.png","75","137.29999995231628","2","1","3","2","1,0,0,1,1,0,1,0,1","0,1,0,0,1,1,1,1,0","3",""
"","html-keyboard-response","254","122392","0.0-254.0","351SEKWQS132GPPCZWFB2WG70GZMDT","A1SLJKNSNHOJRN","3PIOQ99R7Y8STPN46QFY0SD7JTFNU0","","null","<img src=""img/flower4.png"" style=""width:200px; border:14px solid green;"">","null","","","","","","","","",""
"","image-keyboard-response","255","122515","0.0-255.0","351SEKWQS132GPPCZWFB2WG70GZMDT","A1SLJKNSNHOJRN","3PIOQ99R7Y8STPN46QFY0SD7JTFNU0","","122","img/flower4.png","75","122.59999990463257","2","1","3","2","1,0,0,1,1,0,1,0,1","0,1,0,0,1,1,1,1,0","3",""
"","html-keyboard-response","256","122817","0.0-256.0","351SEKWQS132GPPCZWFB2WG70GZMDT","A1SLJKNSNHOJRN","3PIOQ99R7Y8STPN46QFY0SD7JTFNU0","","null","<img src=""img/flower4.png"" style=""width:200px; border:14px solid green;"">","null","","","","","","","","",""
"","image-keyboard-response","257","122939","0.0-257.0","351SEKWQS132GPPCZWFB2WG70GZMDT","A1SLJKNSNHOJRN","3PIOQ99R7Y8STPN46QFY0SD7JTFNU0","","121.10000014305115","img/flower1.png","75","121.59999990463257","2","1","2","2","1,0,0,1,1,0,1,0,1","0,1,0,0,1,1,1,1,0","3",""
"","html-keyboard-response","258","123240","0.0-258.0","351SEKWQS132GPPCZWFB2WG70GZMDT","A1SLJKNSNHOJRN","3PIOQ99R7Y8STPN46QFY0SD7JTFNU0","","null","<img src=""img/flower1.png"" style=""width:200px; border:14px solid green;"">","null","","","","","","","","",""
"","image-keyboard-response","259","123523","0.0-259.0","351SEKWQS132GPPCZWFB2WG70GZMDT","A1SLJKNSNHOJRN","3PIOQ99R7Y8STPN46QFY0SD7JTFNU0","","282.10000014305115","img/flower1.png","74","282.69999980926514","1","0","2","2","1,0,0,1,1,0,1,0,1","0,1,0,0,1,1,1,1,0","3",""
"","html-keyboard-response","260","123825","0.0-260.0","351SEKWQS132GPPCZWFB2WG70GZMDT","A1SLJKNSNHOJRN","3PIOQ99R7Y8STPN46QFY0SD7JTFNU0","","null","<img src=""img/flower1.png"" style=""width:200px;border:14px solid red;"">","null","","","","","","","","",""
"","image-keyboard-response","261","123899","0.0-261.0","351SEKWQS132GPPCZWFB2WG70GZMDT","A1SLJKNSNHOJRN","3PIOQ99R7Y8STPN46QFY0SD7JTFNU0","","73.40000009536743","img/flower1.png","76","74","3","1","2","2","1,0,0,1,1,0,1,0,1","0,1,0,0,1,1,1,1,0","3",""
"","html-keyboard-response","262","124201","0.0-262.0","351SEKWQS132GPPCZWFB2WG70GZMDT","A1SLJKNSNHOJRN","3PIOQ99R7Y8STPN46QFY0SD7JTFNU0","","null","<img src=""img/flower1.png"" style=""width:200px; border:14px solid green;"">","null","","","","","","","","",""
"","image-keyboard-response","263","124547","0.0-263.0","351SEKWQS132GPPCZWFB2WG70GZMDT","A1SLJKNSNHOJRN","3PIOQ99R7Y8STPN46QFY0SD7JTFNU0","","344.90000009536743","img/flower3.png","76","345.59999990463257","3","0","1","2","1,0,0,1,1,0,1,0,1","0,1,0,0,1,1,1,1,0","3",""
"","html-keyboard-response","264","124848","0.0-264.0","351SEKWQS132GPPCZWFB2WG70GZMDT","A1SLJKNSNHOJRN","3PIOQ99R7Y8STPN46QFY0SD7JTFNU0","","null","<img src=""img/flower3.png"" style=""width:200px;border:14px solid red;"">","null","","","","","","","","",""
"","image-keyboard-response","265","125659","0.0-265.0","351SEKWQS132GPPCZWFB2WG70GZMDT","A1SLJKNSNHOJRN","3PIOQ99R7Y8STPN46QFY0SD7JTFNU0","","810","img/flower4.png","75","810.5999999046326","2","1","3","2","1,0,0,1,1,0,1,0,1","0,1,0,0,1,1,1,1,0","3",""
"","html-keyboard-response","266","125960","0.0-266.0","351SEKWQS132GPPCZWFB2WG70GZMDT","A1SLJKNSNHOJRN","3PIOQ99R7Y8STPN46QFY0SD7JTFNU0","","null","<img src=""img/flower4.png"" style=""width:200px; border:14px solid green;"">","null","","","","","","","","",""
"","image-keyboard-response","267","126611","0.0-267.0","351SEKWQS132GPPCZWFB2WG70GZMDT","A1SLJKNSNHOJRN","3PIOQ99R7Y8STPN46QFY0SD7JTFNU0","","650.1000001430511","img/flower4.png","75","650.7999999523163","2","1","3","2","1,0,0,1,1,0,1,0,1","0,1,0,0,1,1,1,1,0","3",""
"","html-keyboard-response","268","126912","0.0-268.0","351SEKWQS132GPPCZWFB2WG70GZMDT","A1SLJKNSNHOJRN","3PIOQ99R7Y8STPN46QFY0SD7JTFNU0","","null","<img src=""img/flower4.png"" style=""width:200px; border:14px solid green;"">","null","","","","","","","","",""
"","image-keyboard-response","269","127643","0.0-269.0","351SEKWQS132GPPCZWFB2WG70GZMDT","A1SLJKNSNHOJRN","3PIOQ99R7Y8STPN46QFY0SD7JTFNU0","","729.7999999523163","img/flower3.png","76","730.3999998569489","3","0","1","2","1,0,0,1,1,0,1,0,1","0,1,0,0,1,1,1,1,0","3",""
"","html-keyboard-response","270","127949","0.0-270.0","351SEKWQS132GPPCZWFB2WG70GZMDT","A1SLJKNSNHOJRN","3PIOQ99R7Y8STPN46QFY0SD7JTFNU0","","null","<img src=""img/flower3.png"" style=""width:200px;border:14px solid red;"">","null","","","","","","","","",""
"","image-keyboard-response","271","128091","0.0-271.0","351SEKWQS132GPPCZWFB2WG70GZMDT","A1SLJKNSNHOJRN","3PIOQ99R7Y8STPN46QFY0SD7JTFNU0","","141.10000014305115","img/flower3.png","76","141.79999995231628","3","0","1","2","1,0,0,1,1,0,1,0,1","0,1,0,0,1,1,1,1,0","3",""
"","html-keyboard-response","272","128393","0.0-272.0","351SEKWQS132GPPCZWFB2WG70GZMDT","A1SLJKNSNHOJRN","3PIOQ99R7Y8STPN46QFY0SD7JTFNU0","","null","<img src=""img/flower3.png"" style=""width:200px;border:14px solid red;"">","null","","","","","","","","",""
"","image-keyboard-response","273","128515","0.0-273.0","351SEKWQS132GPPCZWFB2WG70GZMDT","A1SLJKNSNHOJRN","3PIOQ99R7Y8STPN46QFY0SD7JTFNU0","","121.10000014305115","img/flower3.png","76","121.59999990463257","3","0","1","2","1,0,0,1,1,0,1,0,1","0,1,0,0,1,1,1,1,0","3",""
"","html-keyboard-response","274","128816","0.0-274.0","351SEKWQS132GPPCZWFB2WG70GZMDT","A1SLJKNSNHOJRN","3PIOQ99R7Y8STPN46QFY0SD7JTFNU0","","null","<img src=""img/flower3.png"" style=""width:200px;border:14px solid red;"">","null","","","","","","","","",""
"","image-keyboard-response","275","129075","0.0-275.0","351SEKWQS132GPPCZWFB2WG70GZMDT","A1SLJKNSNHOJRN","3PIOQ99R7Y8STPN46QFY0SD7JTFNU0","","258","img/flower3.png","75","258.60000014305115","2","1","1","2","1,0,0,1,1,0,1,0,1","0,1,0,0,1,1,1,1,0","3",""
"","html-keyboard-response","276","129376","0.0-276.0","351SEKWQS132GPPCZWFB2WG70GZMDT","A1SLJKNSNHOJRN","3PIOQ99R7Y8STPN46QFY0SD7JTFNU0","","null","<img src=""img/flower3.png"" style=""width:200px; border:14px solid green;"">","null","","","","","","","","",""
"","image-keyboard-response","277","129507","0.0-277.0","351SEKWQS132GPPCZWFB2WG70GZMDT","A1SLJKNSNHOJRN","3PIOQ99R7Y8STPN46QFY0SD7JTFNU0","","129.70000004768372","img/flower1.png","75","130.20000004768372","2","1","2","2","1,0,0,1,1,0,1,0,1","0,1,0,0,1,1,1,1,0","3",""
"","html-keyboard-response","278","129809","0.0-278.0","351SEKWQS132GPPCZWFB2WG70GZMDT","A1SLJKNSNHOJRN","3PIOQ99R7Y8STPN46QFY0SD7JTFNU0","","null","<img src=""img/flower1.png"" style=""width:200px; border:14px solid green;"">","null","","","","","","","","",""
"","image-keyboard-response","279","129883","0.0-279.0","351SEKWQS132GPPCZWFB2WG70GZMDT","A1SLJKNSNHOJRN","3PIOQ99R7Y8STPN46QFY0SD7JTFNU0","","72.39999985694885","img/flower3.png","75","73.29999995231628","2","1","1","2","1,0,0,1,1,0,1,0,1","0,1,0,0,1,1,1,1,0","3",""
"","html-keyboard-response","280","130188","0.0-280.0","351SEKWQS132GPPCZWFB2WG70GZMDT","A1SLJKNSNHOJRN","3PIOQ99R7Y8STPN46QFY0SD7JTFNU0","","null","<img src=""img/flower3.png"" style=""width:200px; border:14px solid green;"">","null","","","","","","","","",""
"","image-keyboard-response","281","130259","0.0-281.0","351SEKWQS132GPPCZWFB2WG70GZMDT","A1SLJKNSNHOJRN","3PIOQ99R7Y8STPN46QFY0SD7JTFNU0","","70.29999995231628","img/flower4.png","75","71.20000004768372","2","1","3","2","1,0,0,1,1,0,1,0,1","0,1,0,0,1,1,1,1,0","3",""
"","html-keyboard-response","282","130562","0.0-282.0","351SEKWQS132GPPCZWFB2WG70GZMDT","A1SLJKNSNHOJRN","3PIOQ99R7Y8STPN46QFY0SD7JTFNU0","","null","<img src=""img/flower4.png"" style=""width:200px; border:14px solid green;"">","null","","","","","","","","",""
"","image-keyboard-response","283","130627","0.0-283.0","351SEKWQS132GPPCZWFB2WG70GZMDT","A1SLJKNSNHOJRN","3PIOQ99R7Y8STPN46QFY0SD7JTFNU0","","64.09999990463257","img/flower1.png","75","64.59999990463257","2","1","2","2","1,0,0,1,1,0,1,0,1","0,1,0,0,1,1,1,1,0","3",""
"","html-keyboard-response","284","130928","0.0-284.0","351SEKWQS132GPPCZWFB2WG70GZMDT","A1SLJKNSNHOJRN","3PIOQ99R7Y8STPN46QFY0SD7JTFNU0","","null","<img src=""img/flower1.png"" style=""width:200px; border:14px solid green;"">","null","","","","","","","","",""
"","image-keyboard-response","285","130995","0.0-285.0","351SEKWQS132GPPCZWFB2WG70GZMDT","A1SLJKNSNHOJRN","3PIOQ99R7Y8STPN46QFY0SD7JTFNU0","","65.5","img/flower4.png","75","66.29999995231628","2","1","3","2","1,0,0,1,1,0,1,0,1","0,1,0,0,1,1,1,1,0","3",""
"","html-keyboard-response","286","131297","0.0-286.0","351SEKWQS132GPPCZWFB2WG70GZMDT","A1SLJKNSNHOJRN","3PIOQ99R7Y8STPN46QFY0SD7JTFNU0","","null","<img src=""img/flower4.png"" style=""width:200px; border:14px solid green;"">","null","","","","","","","","",""
"","image-keyboard-response","287","131355","0.0-287.0","351SEKWQS132GPPCZWFB2WG70GZMDT","A1SLJKNSNHOJRN","3PIOQ99R7Y8STPN46QFY0SD7JTFNU0","","56.40000009536743","img/flower3.png","75","57.09999990463257","2","1","1","2","1,0,0,1,1,0,1,0,1","0,1,0,0,1,1,1,1,0","3",""
"","html-keyboard-response","288","131656","0.0-288.0","351SEKWQS132GPPCZWFB2WG70GZMDT","A1SLJKNSNHOJRN","3PIOQ99R7Y8STPN46QFY0SD7JTFNU0","","null","<img src=""img/flower3.png"" style=""width:200px; border:14px solid green;"">","null","","","","","","","","",""
"","image-keyboard-response","289","131763","0.0-289.0","351SEKWQS132GPPCZWFB2WG70GZMDT","A1SLJKNSNHOJRN","3PIOQ99R7Y8STPN46QFY0SD7JTFNU0","","106.09999990463257","img/flower4.png","75","106.59999990463257","2","1","3","2","1,0,0,1,1,0,1,0,1","0,1,0,0,1,1,1,1,0","3",""
"","html-keyboard-response","290","132064","0.0-290.0","351SEKWQS132GPPCZWFB2WG70GZMDT","A1SLJKNSNHOJRN","3PIOQ99R7Y8STPN46QFY0SD7JTFNU0","","null","<img src=""img/flower4.png"" style=""width:200px; border:14px solid green;"">","null","","","","","","","","",""
"","image-keyboard-response","291","132139","0.0-291.0","351SEKWQS132GPPCZWFB2WG70GZMDT","A1SLJKNSNHOJRN","3PIOQ99R7Y8STPN46QFY0SD7JTFNU0","","74","img/flower1.png","75","74.69999980926514","2","1","2","2","1,0,0,1,1,0,1,0,1","0,1,0,0,1,1,1,1,0","3",""
"","html-keyboard-response","292","132440","0.0-292.0","351SEKWQS132GPPCZWFB2WG70GZMDT","A1SLJKNSNHOJRN","3PIOQ99R7Y8STPN46QFY0SD7JTFNU0","","null","<img src=""img/flower1.png"" style=""width:200px; border:14px solid green;"">","null","","","","","","","","",""
"","image-keyboard-response","293","132515","0.0-293.0","351SEKWQS132GPPCZWFB2WG70GZMDT","A1SLJKNSNHOJRN","3PIOQ99R7Y8STPN46QFY0SD7JTFNU0","","74.09999990463257","img/flower4.png","75","74.79999995231628","2","1","3","2","1,0,0,1,1,0,1,0,1","0,1,0,0,1,1,1,1,0","3",""
"","html-keyboard-response","294","132817","0.0-294.0","351SEKWQS132GPPCZWFB2WG70GZMDT","A1SLJKNSNHOJRN","3PIOQ99R7Y8STPN46QFY0SD7JTFNU0","","null","<img src=""img/flower4.png"" style=""width:200px; border:14px solid green;"">","null","","","","","","","","",""
"","image-keyboard-response","295","132923","0.0-295.0","351SEKWQS132GPPCZWFB2WG70GZMDT","A1SLJKNSNHOJRN","3PIOQ99R7Y8STPN46QFY0SD7JTFNU0","","104.39999985694885","img/flower3.png","75","105.19999980926514","2","1","1","2","1,0,0,1,1,0,1,0,1","0,1,0,0,1,1,1,1,0","3",""
"","html-keyboard-response","296","133224","0.0-296.0","351SEKWQS132GPPCZWFB2WG70GZMDT","A1SLJKNSNHOJRN","3PIOQ99R7Y8STPN46QFY0SD7JTFNU0","","null","<img src=""img/flower3.png"" style=""width:200px; border:14px solid green;"">","null","","","","","","","","",""
"","image-keyboard-response","297","133507","0.0-297.0","351SEKWQS132GPPCZWFB2WG70GZMDT","A1SLJKNSNHOJRN","3PIOQ99R7Y8STPN46QFY0SD7JTFNU0","","282","img/flower4.png","76","282.69999980926514","3","0","3","2","1,0,0,1,1,0,1,0,1","0,1,0,0,1,1,1,1,0","3",""
"","html-keyboard-response","298","133809","0.0-298.0","351SEKWQS132GPPCZWFB2WG70GZMDT","A1SLJKNSNHOJRN","3PIOQ99R7Y8STPN46QFY0SD7JTFNU0","","null","<img src=""img/flower4.png"" style=""width:200px;border:14px solid red;"">","null","","","","","","","","",""
"","image-keyboard-response","299","133867","0.0-299.0","351SEKWQS132GPPCZWFB2WG70GZMDT","A1SLJKNSNHOJRN","3PIOQ99R7Y8STPN46QFY0SD7JTFNU0","","56.700000047683716","img/flower4.png","74","57.19999980926514","1","1","3","2","1,0,0,1,1,0,1,0,1","0,1,0,0,1,1,1,1,0","3",""
"","html-keyboard-response","300","134169","0.0-300.0","351SEKWQS132GPPCZWFB2WG70GZMDT","A1SLJKNSNHOJRN","3PIOQ99R7Y8STPN46QFY0SD7JTFNU0","","null","<img src=""img/flower4.png"" style=""width:200px; border:14px solid green;"">","null","","","","","","","","",""
"","image-keyboard-response","301","134779","0.0-301.0","351SEKWQS132GPPCZWFB2WG70GZMDT","A1SLJKNSNHOJRN","3PIOQ99R7Y8STPN46QFY0SD7JTFNU0","","608.8999998569489","img/flower3.png","76","609.7999999523163","3","0","1","2","1,0,0,1,1,0,1,0,1","0,1,0,0,1,1,1,1,0","3",""
"","html-keyboard-response","302","135080","0.0-302.0","351SEKWQS132GPPCZWFB2WG70GZMDT","A1SLJKNSNHOJRN","3PIOQ99R7Y8STPN46QFY0SD7JTFNU0","","null","<img src=""img/flower3.png"" style=""width:200px;border:14px solid red;"">","null","","","","","","","","",""
"","image-keyboard-response","303","135443","0.0-303.0","351SEKWQS132GPPCZWFB2WG70GZMDT","A1SLJKNSNHOJRN","3PIOQ99R7Y8STPN46QFY0SD7JTFNU0","","361.7000000476837","img/flower1.png","76","362.5","3","1","2","2","1,0,0,1,1,0,1,0,1","0,1,0,0,1,1,1,1,0","3",""
"","html-keyboard-response","304","135745","0.0-304.0","351SEKWQS132GPPCZWFB2WG70GZMDT","A1SLJKNSNHOJRN","3PIOQ99R7Y8STPN46QFY0SD7JTFNU0","","null","<img src=""img/flower1.png"" style=""width:200px; border:14px solid green;"">","null","","","","","","","","",""
"","image-keyboard-response","305","136043","0.0-305.0","351SEKWQS132GPPCZWFB2WG70GZMDT","A1SLJKNSNHOJRN","3PIOQ99R7Y8STPN46QFY0SD7JTFNU0","","297.40000009536743","img/flower1.png","76","297.89999985694885","3","1","2","2","1,0,0,1,1,0,1,0,1","0,1,0,0,1,1,1,1,0","3",""
"","html-keyboard-response","306","136351","0.0-306.0","351SEKWQS132GPPCZWFB2WG70GZMDT","A1SLJKNSNHOJRN","3PIOQ99R7Y8STPN46QFY0SD7JTFNU0","","null","<img src=""img/flower1.png"" style=""width:200px; border:14px solid green;"">","null","","","","","","","","",""
"","image-keyboard-response","307","136915","0.0-307.0","351SEKWQS132GPPCZWFB2WG70GZMDT","A1SLJKNSNHOJRN","3PIOQ99R7Y8STPN46QFY0SD7JTFNU0","","562.8000001907349","img/flower4.png","76","563.6000001430511","3","0","3","2","1,0,0,1,1,0,1,0,1","0,1,0,0,1,1,1,1,0","3",""
"","html-keyboard-response","308","137216","0.0-308.0","351SEKWQS132GPPCZWFB2WG70GZMDT","A1SLJKNSNHOJRN","3PIOQ99R7Y8STPN46QFY0SD7JTFNU0","","null","<img src=""img/flower4.png"" style=""width:200px;border:14px solid red;"">","null","","","","","","","","",""
"","image-keyboard-response","309","138155","0.0-309.0","351SEKWQS132GPPCZWFB2WG70GZMDT","A1SLJKNSNHOJRN","3PIOQ99R7Y8STPN46QFY0SD7JTFNU0","","937.8999998569489","img/flower3.png","76","938.5","3","0","1","2","1,0,0,1,1,0,1,0,1","0,1,0,0,1,1,1,1,0","3",""
"","html-keyboard-response","310","138457","0.0-310.0","351SEKWQS132GPPCZWFB2WG70GZMDT","A1SLJKNSNHOJRN","3PIOQ99R7Y8STPN46QFY0SD7JTFNU0","","null","<img src=""img/flower3.png"" style=""width:200px;border:14px solid red;"">","null","","","","","","","","",""
"","image-keyboard-response","311","138907","0.0-311.0","351SEKWQS132GPPCZWFB2WG70GZMDT","A1SLJKNSNHOJRN","3PIOQ99R7Y8STPN46QFY0SD7JTFNU0","","449.09999990463257","img/flower1.png","76","449.7999999523163","3","1","2","2","1,0,0,1,1,0,1,0,1","0,1,0,0,1,1,1,1,0","3",""
"","html-keyboard-response","312","139209","0.0-312.0","351SEKWQS132GPPCZWFB2WG70GZMDT","A1SLJKNSNHOJRN","3PIOQ99R7Y8STPN46QFY0SD7JTFNU0","","null","<img src=""img/flower1.png"" style=""width:200px; border:14px solid green;"">","null","","","","","","","","",""
"","image-keyboard-response","313","140563","0.0-313.0","351SEKWQS132GPPCZWFB2WG70GZMDT","A1SLJKNSNHOJRN","3PIOQ99R7Y8STPN46QFY0SD7JTFNU0","","1353","img/flower1.png","76","1353.7999999523163","3","1","2","2","1,0,0,1,1,0,1,0,1","0,1,0,0,1,1,1,1,0","3",""
"","html-keyboard-response","314","140864","0.0-314.0","351SEKWQS132GPPCZWFB2WG70GZMDT","A1SLJKNSNHOJRN","3PIOQ99R7Y8STPN46QFY0SD7JTFNU0","","null","<img src=""img/flower1.png"" style=""width:200px; border:14px solid green;"">","null","","","","","","","","",""
"","image-keyboard-response","315","141987","0.0-315.0","351SEKWQS132GPPCZWFB2WG70GZMDT","A1SLJKNSNHOJRN","3PIOQ99R7Y8STPN46QFY0SD7JTFNU0","","1121.5999999046326","img/flower3.png","74","1122.1999998092651","1","0","1","2","1,0,0,1,1,0,1,0,1","0,1,0,0,1,1,1,1,0","3",""
"","html-keyboard-response","316","142288","0.0-316.0","351SEKWQS132GPPCZWFB2WG70GZMDT","A1SLJKNSNHOJRN","3PIOQ99R7Y8STPN46QFY0SD7JTFNU0","","null","<img src=""img/flower3.png"" style=""width:200px;border:14px solid red;"">","null","","","","","","","","",""
"","image-keyboard-response","317","142691","0.0-317.0","351SEKWQS132GPPCZWFB2WG70GZMDT","A1SLJKNSNHOJRN","3PIOQ99R7Y8STPN46QFY0SD7JTFNU0","","401.7000000476837","img/flower3.png","74","402.2999999523163","1","0","1","2","1,0,0,1,1,0,1,0,1","0,1,0,0,1,1,1,1,0","3",""
"","html-keyboard-response","318","142993","0.0-318.0","351SEKWQS132GPPCZWFB2WG70GZMDT","A1SLJKNSNHOJRN","3PIOQ99R7Y8STPN46QFY0SD7JTFNU0","","null","<img src=""img/flower3.png"" style=""width:200px;border:14px solid red;"">","null","","","","","","","","",""
"","image-keyboard-response","319","143811","0.0-319.0","351SEKWQS132GPPCZWFB2WG70GZMDT","A1SLJKNSNHOJRN","3PIOQ99R7Y8STPN46QFY0SD7JTFNU0","","817.0999999046326","img/flower4.png","75","817.6999998092651","2","1","3","2","1,0,0,1,1,0,1,0,1","0,1,0,0,1,1,1,1,0","3",""
"","html-keyboard-response","320","144112","0.0-320.0","351SEKWQS132GPPCZWFB2WG70GZMDT","A1SLJKNSNHOJRN","3PIOQ99R7Y8STPN46QFY0SD7JTFNU0","","null","<img src=""img/flower4.png"" style=""width:200px; border:14px solid green;"">","null","","","","","","","","",""
"","image-keyboard-response","321","144611","0.0-321.0","351SEKWQS132GPPCZWFB2WG70GZMDT","A1SLJKNSNHOJRN","3PIOQ99R7Y8STPN46QFY0SD7JTFNU0","","497.60000014305115","img/flower4.png","75","498.2999999523163","2","1","3","2","1,0,0,1,1,0,1,0,1","0,1,0,0,1,1,1,1,0","3",""
"","html-keyboard-response","322","144913","0.0-322.0","351SEKWQS132GPPCZWFB2WG70GZMDT","A1SLJKNSNHOJRN","3PIOQ99R7Y8STPN46QFY0SD7JTFNU0","","null","<img src=""img/flower4.png"" style=""width:200px; border:14px solid green;"">","null","","","","","","","","",""
"","image-keyboard-response","323","145827","0.0-323.0","351SEKWQS132GPPCZWFB2WG70GZMDT","A1SLJKNSNHOJRN","3PIOQ99R7Y8STPN46QFY0SD7JTFNU0","","913","img/flower3.png","75","913.6000001430511","2","1","1","2","1,0,0,1,1,0,1,0,1","0,1,0,0,1,1,1,1,0","3",""
"","html-keyboard-response","324","146129","0.0-324.0","351SEKWQS132GPPCZWFB2WG70GZMDT","A1SLJKNSNHOJRN","3PIOQ99R7Y8STPN46QFY0SD7JTFNU0","","null","<img src=""img/flower3.png"" style=""width:200px; border:14px solid green;"">","null","","","","","","","","",""
"","image-keyboard-response","325","146787","0.0-325.0","351SEKWQS132GPPCZWFB2WG70GZMDT","A1SLJKNSNHOJRN","3PIOQ99R7Y8STPN46QFY0SD7JTFNU0","","657","img/flower1.png","74","657.6999998092651","1","0","2","2","1,0,0,1,1,0,1,0,1","0,1,0,0,1,1,1,1,0","3",""
"","html-keyboard-response","326","147089","0.0-326.0","351SEKWQS132GPPCZWFB2WG70GZMDT","A1SLJKNSNHOJRN","3PIOQ99R7Y8STPN46QFY0SD7JTFNU0","","null","<img src=""img/flower1.png"" style=""width:200px;border:14px solid red;"">","null","","","","","","","","",""
"","image-keyboard-response","327","147251","0.0-327.0","351SEKWQS132GPPCZWFB2WG70GZMDT","A1SLJKNSNHOJRN","3PIOQ99R7Y8STPN46QFY0SD7JTFNU0","","160.5","img/flower1.png","74","161.40000009536743","1","0","2","2","1,0,0,1,1,0,1,0,1","0,1,0,0,1,1,1,1,0","3",""
"","html-keyboard-response","328","147553","0.0-328.0","351SEKWQS132GPPCZWFB2WG70GZMDT","A1SLJKNSNHOJRN","3PIOQ99R7Y8STPN46QFY0SD7JTFNU0","","null","<img src=""img/flower1.png"" style=""width:200px;border:14px solid red;"">","null","","","","","","","","",""
"","image-keyboard-response","329","147595","0.0-329.0","351SEKWQS132GPPCZWFB2WG70GZMDT","A1SLJKNSNHOJRN","3PIOQ99R7Y8STPN46QFY0SD7JTFNU0","","41","img/flower3.png","74","42","1","0","1","2","1,0,0,1,1,0,1,0,1","0,1,0,0,1,1,1,1,0","3",""
"","html-keyboard-response","330","147897","0.0-330.0","351SEKWQS132GPPCZWFB2WG70GZMDT","A1SLJKNSNHOJRN","3PIOQ99R7Y8STPN46QFY0SD7JTFNU0","","null","<img src=""img/flower3.png"" style=""width:200px;border:14px solid red;"">","null","","","","","","","","",""
"","image-keyboard-response","331","148059","0.0-331.0","351SEKWQS132GPPCZWFB2WG70GZMDT","A1SLJKNSNHOJRN","3PIOQ99R7Y8STPN46QFY0SD7JTFNU0","","161.09999990463257","img/flower4.png","74","161.69999980926514","1","1","3","2","1,0,0,1,1,0,1,0,1","0,1,0,0,1,1,1,1,0","3",""
"","html-keyboard-response","332","148361","0.0-332.0","351SEKWQS132GPPCZWFB2WG70GZMDT","A1SLJKNSNHOJRN","3PIOQ99R7Y8STPN46QFY0SD7JTFNU0","","null","<img src=""img/flower4.png"" style=""width:200px; border:14px solid green;"">","null","","","","","","","","",""
"","image-keyboard-response","333","148971","0.0-333.0","351SEKWQS132GPPCZWFB2WG70GZMDT","A1SLJKNSNHOJRN","3PIOQ99R7Y8STPN46QFY0SD7JTFNU0","","608.7000000476837","img/flower3.png","74","609.2999999523163","1","0","1","2","1,0,0,1,1,0,1,0,1","0,1,0,0,1,1,1,1,0","3",""
"","html-keyboard-response","334","149273","0.0-334.0","351SEKWQS132GPPCZWFB2WG70GZMDT","A1SLJKNSNHOJRN","3PIOQ99R7Y8STPN46QFY0SD7JTFNU0","","null","<img src=""img/flower3.png"" style=""width:200px;border:14px solid red;"">","null","","","","","","","","",""
"","image-keyboard-response","335","149547","0.0-335.0","351SEKWQS132GPPCZWFB2WG70GZMDT","A1SLJKNSNHOJRN","3PIOQ99R7Y8STPN46QFY0SD7JTFNU0","","272.10000014305115","img/flower1.png","74","273.2000000476837","1","0","2","2","1,0,0,1,1,0,1,0,1","0,1,0,0,1,1,1,1,0","3",""
"","html-keyboard-response","336","149849","0.0-336.0","351SEKWQS132GPPCZWFB2WG70GZMDT","A1SLJKNSNHOJRN","3PIOQ99R7Y8STPN46QFY0SD7JTFNU0","","null","<img src=""img/flower1.png"" style=""width:200px;border:14px solid red;"">","null","","","","","","","","",""
"","image-keyboard-response","337","150059","0.0-337.0","351SEKWQS132GPPCZWFB2WG70GZMDT","A1SLJKNSNHOJRN","3PIOQ99R7Y8STPN46QFY0SD7JTFNU0","","208.89999985694885","img/flower4.png","74","209.59999990463257","1","1","3","2","1,0,0,1,1,0,1,0,1","0,1,0,0,1,1,1,1,0","3",""
"","html-keyboard-response","338","150361","0.0-338.0","351SEKWQS132GPPCZWFB2WG70GZMDT","A1SLJKNSNHOJRN","3PIOQ99R7Y8STPN46QFY0SD7JTFNU0","","null","<img src=""img/flower4.png"" style=""width:200px; border:14px solid green;"">","null","","","","","","","","",""
"","image-keyboard-response","339","151059","0.0-339.0","351SEKWQS132GPPCZWFB2WG70GZMDT","A1SLJKNSNHOJRN","3PIOQ99R7Y8STPN46QFY0SD7JTFNU0","","696.8999998569489","img/flower4.png","74","697.5999999046326","1","1","3","2","1,0,0,1,1,0,1,0,1","0,1,0,0,1,1,1,1,0","3",""
"","html-keyboard-response","340","151361","0.0-340.0","351SEKWQS132GPPCZWFB2WG70GZMDT","A1SLJKNSNHOJRN","3PIOQ99R7Y8STPN46QFY0SD7JTFNU0","","null","<img src=""img/flower4.png"" style=""width:200px; border:14px solid green;"">","null","","","","","","","","",""
"","image-keyboard-response","341","152347","0.0-341.0","351SEKWQS132GPPCZWFB2WG70GZMDT","A1SLJKNSNHOJRN","3PIOQ99R7Y8STPN46QFY0SD7JTFNU0","","984.7000000476837","img/flower3.png","75","985.2999999523163","2","1","1","2","1,0,0,1,1,0,1,0,1","0,1,0,0,1,1,1,1,0","3",""
"","html-keyboard-response","342","152649","0.0-342.0","351SEKWQS132GPPCZWFB2WG70GZMDT","A1SLJKNSNHOJRN","3PIOQ99R7Y8STPN46QFY0SD7JTFNU0","","null","<img src=""img/flower3.png"" style=""width:200px; border:14px solid green;"">","null","","","","","","","","",""
"","image-keyboard-response","343","153451","0.0-343.0","351SEKWQS132GPPCZWFB2WG70GZMDT","A1SLJKNSNHOJRN","3PIOQ99R7Y8STPN46QFY0SD7JTFNU0","","801","img/flower1.png","76","801.6999998092651","3","1","2","2","1,0,0,1,1,0,1,0,1","0,1,0,0,1,1,1,1,0","3",""
"","html-keyboard-response","344","153752","0.0-344.0","351SEKWQS132GPPCZWFB2WG70GZMDT","A1SLJKNSNHOJRN","3PIOQ99R7Y8STPN46QFY0SD7JTFNU0","","null","<img src=""img/flower1.png"" style=""width:200px; border:14px solid green;"">","null","","","","","","","","",""
"","image-keyboard-response","345","154115","0.0-345.0","351SEKWQS132GPPCZWFB2WG70GZMDT","A1SLJKNSNHOJRN","3PIOQ99R7Y8STPN46QFY0SD7JTFNU0","","361.5","img/flower1.png","76","362.09999990463257","3","1","2","2","1,0,0,1,1,0,1,0,1","0,1,0,0,1,1,1,1,0","3",""
"","html-keyboard-response","346","154417","0.0-346.0","351SEKWQS132GPPCZWFB2WG70GZMDT","A1SLJKNSNHOJRN","3PIOQ99R7Y8STPN46QFY0SD7JTFNU0","","null","<img src=""img/flower1.png"" style=""width:200px; border:14px solid green;"">","null","","","","","","","","",""
"","image-keyboard-response","347","154755","0.0-347.0","351SEKWQS132GPPCZWFB2WG70GZMDT","A1SLJKNSNHOJRN","3PIOQ99R7Y8STPN46QFY0SD7JTFNU0","","336.90000009536743","img/flower1.png","76","337.5","3","1","2","2","1,0,0,1,1,0,1,0,1","0,1,0,0,1,1,1,1,0","3",""
"","html-keyboard-response","348","155056","0.0-348.0","351SEKWQS132GPPCZWFB2WG70GZMDT","A1SLJKNSNHOJRN","3PIOQ99R7Y8STPN46QFY0SD7JTFNU0","","null","<img src=""img/flower1.png"" style=""width:200px; border:14px solid green;"">","null","","","","","","","","",""
"","image-keyboard-response","349","156139","0.0-349.0","351SEKWQS132GPPCZWFB2WG70GZMDT","A1SLJKNSNHOJRN","3PIOQ99R7Y8STPN46QFY0SD7JTFNU0","","1081.9000000953674","img/flower4.png","75","1082.5","2","1","3","2","1,0,0,1,1,0,1,0,1","0,1,0,0,1,1,1,1,0","3",""
"","html-keyboard-response","350","156440","0.0-350.0","351SEKWQS132GPPCZWFB2WG70GZMDT","A1SLJKNSNHOJRN","3PIOQ99R7Y8STPN46QFY0SD7JTFNU0","","null","<img src=""img/flower4.png"" style=""width:200px; border:14px solid green;"">","null","","","","","","","","",""
"","image-keyboard-response","351","157195","0.0-351.0","351SEKWQS132GPPCZWFB2WG70GZMDT","A1SLJKNSNHOJRN","3PIOQ99R7Y8STPN46QFY0SD7JTFNU0","","753.8999998569489","img/flower4.png","75","754.5","2","1","3","2","1,0,0,1,1,0,1,0,1","0,1,0,0,1,1,1,1,0","3",""
"","html-keyboard-response","352","157496","0.0-352.0","351SEKWQS132GPPCZWFB2WG70GZMDT","A1SLJKNSNHOJRN","3PIOQ99R7Y8STPN46QFY0SD7JTFNU0","","null","<img src=""img/flower4.png"" style=""width:200px; border:14px solid green;"">","null","","","","","","","","",""
"","image-keyboard-response","353","157643","0.0-353.0","351SEKWQS132GPPCZWFB2WG70GZMDT","A1SLJKNSNHOJRN","3PIOQ99R7Y8STPN46QFY0SD7JTFNU0","","145.90000009536743","img/flower4.png","74","146.5","1","1","3","2","1,0,0,1,1,0,1,0,1","0,1,0,0,1,1,1,1,0","3",""
"","html-keyboard-response","354","157944","0.0-354.0","351SEKWQS132GPPCZWFB2WG70GZMDT","A1SLJKNSNHOJRN","3PIOQ99R7Y8STPN46QFY0SD7JTFNU0","","null","<img src=""img/flower4.png"" style=""width:200px; border:14px solid green;"">","null","","","","","","","","",""
"","image-keyboard-response","355","159435","0.0-355.0","351SEKWQS132GPPCZWFB2WG70GZMDT","A1SLJKNSNHOJRN","3PIOQ99R7Y8STPN46QFY0SD7JTFNU0","","1489.5","img/flower1.png","74","1490.5","1","0","2","2","1,0,0,1,1,0,1,0,1","0,1,0,0,1,1,1,1,0","3",""
"","html-keyboard-response","356","159736","0.0-356.0","351SEKWQS132GPPCZWFB2WG70GZMDT","A1SLJKNSNHOJRN","3PIOQ99R7Y8STPN46QFY0SD7JTFNU0","","null","<img src=""img/flower1.png"" style=""width:200px;border:14px solid red;"">","null","","","","","","","","",""
"","image-keyboard-response","357","160347","0.0-357.0","351SEKWQS132GPPCZWFB2WG70GZMDT","A1SLJKNSNHOJRN","3PIOQ99R7Y8STPN46QFY0SD7JTFNU0","","610.1000001430511","img/flower1.png","75","610.6999998092651","2","1","2","2","1,0,0,1,1,0,1,0,1","0,1,0,0,1,1,1,1,0","3",""
"","html-keyboard-response","358","160648","0.0-358.0","351SEKWQS132GPPCZWFB2WG70GZMDT","A1SLJKNSNHOJRN","3PIOQ99R7Y8STPN46QFY0SD7JTFNU0","","null","<img src=""img/flower1.png"" style=""width:200px; border:14px solid green;"">","null","","","","","","","","",""
"","image-keyboard-response","359","161475","0.0-359.0","351SEKWQS132GPPCZWFB2WG70GZMDT","A1SLJKNSNHOJRN","3PIOQ99R7Y8STPN46QFY0SD7JTFNU0","","825.7999999523163","img/flower4.png","74","826.5","1","1","3","2","1,0,0,1,1,0,1,0,1","0,1,0,0,1,1,1,1,0","3",""
"","html-keyboard-response","360","161776","0.0-360.0","351SEKWQS132GPPCZWFB2WG70GZMDT","A1SLJKNSNHOJRN","3PIOQ99R7Y8STPN46QFY0SD7JTFNU0","","null","<img src=""img/flower4.png"" style=""width:200px; border:14px solid green;"">","null","","","","","","","","",""
"","image-keyboard-response","361","162067","0.0-361.0","351SEKWQS132GPPCZWFB2WG70GZMDT","A1SLJKNSNHOJRN","3PIOQ99R7Y8STPN46QFY0SD7JTFNU0","","290","img/flower4.png","74","290.5","1","1","3","2","1,0,0,1,1,0,1,0,1","0,1,0,0,1,1,1,1,0","3",""
"","html-keyboard-response","362","162369","0.0-362.0","351SEKWQS132GPPCZWFB2WG70GZMDT","A1SLJKNSNHOJRN","3PIOQ99R7Y8STPN46QFY0SD7JTFNU0","","null","<img src=""img/flower4.png"" style=""width:200px; border:14px solid green;"">","null","","","","","","","","",""
"","instructions","363","164073","0.0-363.0","351SEKWQS132GPPCZWFB2WG70GZMDT","A1SLJKNSNHOJRN","3PIOQ99R7Y8STPN46QFY0SD7JTFNU0","[{""page_index"":0,""viewing_time"":1703.2000000476837}]","1703.4000000953674","","","","","","","","","","",""
