"rt","url","trial_type","trial_index","time_elapsed","internal_node_id","assignmentID","mturkID","hitID","success","view_history","stimulus","key_press","reactionTime","a","r","s","reward_cond","responses"
"24390.80000000447","consent.html","external-html","0","24451","0.0-0.0","34X6J5FLPUK64QNW1L83M3VPBR8JQI","A1SPIAJZORHFT0","3WPCIUYH1AU470H2HRBLZRFBM3CTDN","","","","","","","","","",""
"","","fullscreen","1","29110","0.0-1.0","34X6J5FLPUK64QNW1L83M3VPBR8JQI","A1SPIAJZORHFT0","3WPCIUYH1AU470H2HRBLZRFBM3CTDN","true","","","","","","","","",""
"78099.89999999851","","instructions","2","107211","0.0-2.0","34X6J5FLPUK64QNW1L83M3VPBR8JQI","A1SPIAJZORHFT0","3WPCIUYH1AU470H2HRBLZRFBM3CTDN","","[{""page_index"":0,""viewing_time"":8084.29999999702},{""page_index"":1,""viewing_time"":8835},{""page_index"":2,""viewing_time"":9395.10000000149},{""page_index"":3,""viewing_time"":13973},{""page_index"":4,""viewing_time"":7851.60000000149},{""page_index"":5,""viewing_time"":23937.89999999851},{""page_index"":6,""viewing_time"":6021.79999999702}]","","","","","","","",""
"14537.90000000596","","instructions","3","121750","0.0-3.0","34X6J5FLPUK64QNW1L83M3VPBR8JQI","A1SPIAJZORHFT0","3WPCIUYH1AU470H2HRBLZRFBM3CTDN","","[{""page_index"":0,""viewing_time"":14537.70000000298}]","","","","","","","",""
"618.5","","image-keyboard-response","4","122370","0.0-4.0","34X6J5FLPUK64QNW1L83M3VPBR8JQI","A1SPIAJZORHFT0","3WPCIUYH1AU470H2HRBLZRFBM3CTDN","","","img/flower4.png","74","619.7999999970198","1","1","1","",""
"null","","html-keyboard-response","5","122683","0.0-5.0","34X6J5FLPUK64QNW1L83M3VPBR8JQI","A1SPIAJZORHFT0","3WPCIUYH1AU470H2HRBLZRFBM3CTDN","","","<img src=""img/flower4.png"" style=""width:200px; border:14px solid green;"">","null","","","","","",""
"808.8000000044703","","image-keyboard-response","6","123493","0.0-6.0","34X6J5FLPUK64QNW1L83M3VPBR8JQI","A1SPIAJZORHFT0","3WPCIUYH1AU470H2HRBLZRFBM3CTDN","","","img/flower6.png","76","809.5999999940395","3","1","3","",""
"null","","html-keyboard-response","7","123797","0.0-7.0","34X6J5FLPUK64QNW1L83M3VPBR8JQI","A1SPIAJZORHFT0","3WPCIUYH1AU470H2HRBLZRFBM3CTDN","","","<img src=""img/flower6.png"" style=""width:200px; border:14px solid green;"">","null","","","","","",""
"1467.1000000014901","","image-keyboard-response","8","125265","0.0-8.0","34X6J5FLPUK64QNW1L83M3VPBR8JQI","A1SPIAJZORHFT0","3WPCIUYH1AU470H2HRBLZRFBM3CTDN","","","img/flower6.png","76","1468","3","1","3","",""
"null","","html-keyboard-response","9","125582","0.0-9.0","34X6J5FLPUK64QNW1L83M3VPBR8JQI","A1SPIAJZORHFT0","3WPCIUYH1AU470H2HRBLZRFBM3CTDN","","","<img src=""img/flower6.png"" style=""width:200px; border:14px solid green;"">","null","","","","","",""
"604.3999999985099","","image-keyboard-response","10","126188","0.0-10.0","34X6J5FLPUK64QNW1L83M3VPBR8JQI","A1SPIAJZORHFT0","3WPCIUYH1AU470H2HRBLZRFBM3CTDN","","","img/flower4.png","74","605.5","1","1","1","",""
"null","","html-keyboard-response","11","126504","0.0-11.0","34X6J5FLPUK64QNW1L83M3VPBR8JQI","A1SPIAJZORHFT0","3WPCIUYH1AU470H2HRBLZRFBM3CTDN","","","<img src=""img/flower4.png"" style=""width:200px; border:14px solid green;"">","null","","","","","",""
"402.6000000014901","","image-keyboard-response","12","126908","0.0-12.0","34X6J5FLPUK64QNW1L83M3VPBR8JQI","A1SPIAJZORHFT0","3WPCIUYH1AU470H2HRBLZRFBM3CTDN","","","img/flower5.png","75","403.5","2","1","2","",""
"null","","html-keyboard-response","13","127220","0.0-13.0","34X6J5FLPUK64QNW1L83M3VPBR8JQI","A1SPIAJZORHFT0","3WPCIUYH1AU470H2HRBLZRFBM3CTDN","","","<img src=""img/flower5.png"" style=""width:200px; border:14px solid green;"">","null","","","","","",""
"614","","image-keyboard-response","14","127835","0.0-14.0","34X6J5FLPUK64QNW1L83M3VPBR8JQI","A1SPIAJZORHFT0","3WPCIUYH1AU470H2HRBLZRFBM3CTDN","","","img/flower6.png","76","614.9000000059605","3","1","3","",""
"null","","html-keyboard-response","15","128147","0.0-15.0","34X6J5FLPUK64QNW1L83M3VPBR8JQI","A1SPIAJZORHFT0","3WPCIUYH1AU470H2HRBLZRFBM3CTDN","","","<img src=""img/flower6.png"" style=""width:200px; border:14px solid green;"">","null","","","","","",""
"595.1000000014901","","image-keyboard-response","16","128743","0.0-16.0","34X6J5FLPUK64QNW1L83M3VPBR8JQI","A1SPIAJZORHFT0","3WPCIUYH1AU470H2HRBLZRFBM3CTDN","","","img/flower5.png","75","595.9000000059605","2","1","2","",""
"null","","html-keyboard-response","17","129057","0.0-17.0","34X6J5FLPUK64QNW1L83M3VPBR8JQI","A1SPIAJZORHFT0","3WPCIUYH1AU470H2HRBLZRFBM3CTDN","","","<img src=""img/flower5.png"" style=""width:200px; border:14px solid green;"">","null","","","","","",""
"659.3999999985099","","image-keyboard-response","18","129717","0.0-18.0","34X6J5FLPUK64QNW1L83M3VPBR8JQI","A1SPIAJZORHFT0","3WPCIUYH1AU470H2HRBLZRFBM3CTDN","","","img/flower5.png","75","660.2000000029802","2","1","2","",""
"null","","html-keyboard-response","19","130028","0.0-19.0","34X6J5FLPUK64QNW1L83M3VPBR8JQI","A1SPIAJZORHFT0","3WPCIUYH1AU470H2HRBLZRFBM3CTDN","","","<img src=""img/flower5.png"" style=""width:200px; border:14px solid green;"">","null","","","","","",""
"355","","image-keyboard-response","20","130384","0.0-20.0","34X6J5FLPUK64QNW1L83M3VPBR8JQI","A1SPIAJZORHFT0","3WPCIUYH1AU470H2HRBLZRFBM3CTDN","","","img/flower5.png","75","356","2","1","2","",""
"null","","html-keyboard-response","21","130698","0.0-21.0","34X6J5FLPUK64QNW1L83M3VPBR8JQI","A1SPIAJZORHFT0","3WPCIUYH1AU470H2HRBLZRFBM3CTDN","","","<img src=""img/flower5.png"" style=""width:200px; border:14px solid green;"">","null","","","","","",""
"750","","image-keyboard-response","22","131449","0.0-22.0","34X6J5FLPUK64QNW1L83M3VPBR8JQI","A1SPIAJZORHFT0","3WPCIUYH1AU470H2HRBLZRFBM3CTDN","","","img/flower6.png","76","750.8999999985099","3","1","3","",""
"null","","html-keyboard-response","23","131766","0.0-23.0","34X6J5FLPUK64QNW1L83M3VPBR8JQI","A1SPIAJZORHFT0","3WPCIUYH1AU470H2HRBLZRFBM3CTDN","","","<img src=""img/flower6.png"" style=""width:200px; border:14px solid green;"">","null","","","","","",""
"583.8999999985099","","image-keyboard-response","24","132352","0.0-24.0","34X6J5FLPUK64QNW1L83M3VPBR8JQI","A1SPIAJZORHFT0","3WPCIUYH1AU470H2HRBLZRFBM3CTDN","","","img/flower4.png","74","585.0999999940395","1","1","1","",""
"null","","html-keyboard-response","25","132659","0.0-25.0","34X6J5FLPUK64QNW1L83M3VPBR8JQI","A1SPIAJZORHFT0","3WPCIUYH1AU470H2HRBLZRFBM3CTDN","","","<img src=""img/flower4.png"" style=""width:200px; border:14px solid green;"">","null","","","","","",""
"458.3999999985099","","image-keyboard-response","26","133118","0.0-26.0","34X6J5FLPUK64QNW1L83M3VPBR8JQI","A1SPIAJZORHFT0","3WPCIUYH1AU470H2HRBLZRFBM3CTDN","","","img/flower4.png","74","459.20000000298023","1","1","1","",""
"null","","html-keyboard-response","27","133427","0.0-27.0","34X6J5FLPUK64QNW1L83M3VPBR8JQI","A1SPIAJZORHFT0","3WPCIUYH1AU470H2HRBLZRFBM3CTDN","","","<img src=""img/flower4.png"" style=""width:200px; border:14px solid green;"">","null","","","","","",""
"770.2999999970198","","image-keyboard-response","28","134198","0.0-28.0","34X6J5FLPUK64QNW1L83M3VPBR8JQI","A1SPIAJZORHFT0","3WPCIUYH1AU470H2HRBLZRFBM3CTDN","","","img/flower6.png","76","771.1000000014901","3","1","3","",""
"null","","html-keyboard-response","29","134512","0.0-29.0","34X6J5FLPUK64QNW1L83M3VPBR8JQI","A1SPIAJZORHFT0","3WPCIUYH1AU470H2HRBLZRFBM3CTDN","","","<img src=""img/flower6.png"" style=""width:200px; border:14px solid green;"">","null","","","","","",""
"351.29999999701977","","image-keyboard-response","30","134864","0.0-30.0","34X6J5FLPUK64QNW1L83M3VPBR8JQI","A1SPIAJZORHFT0","3WPCIUYH1AU470H2HRBLZRFBM3CTDN","","","img/flower6.png","76","352.40000000596046","3","1","3","",""
"null","","html-keyboard-response","31","135181","0.0-31.0","34X6J5FLPUK64QNW1L83M3VPBR8JQI","A1SPIAJZORHFT0","3WPCIUYH1AU470H2HRBLZRFBM3CTDN","","","<img src=""img/flower6.png"" style=""width:200px; border:14px solid green;"">","null","","","","","",""
"544.1000000014901","","image-keyboard-response","32","135726","0.0-32.0","34X6J5FLPUK64QNW1L83M3VPBR8JQI","A1SPIAJZORHFT0","3WPCIUYH1AU470H2HRBLZRFBM3CTDN","","","img/flower4.png","74","545.1000000014901","1","1","1","",""
"null","","html-keyboard-response","33","136042","0.0-33.0","34X6J5FLPUK64QNW1L83M3VPBR8JQI","A1SPIAJZORHFT0","3WPCIUYH1AU470H2HRBLZRFBM3CTDN","","","<img src=""img/flower4.png"" style=""width:200px; border:14px solid green;"">","null","","","","","",""
"657.7000000029802","","image-keyboard-response","34","136701","0.0-34.0","34X6J5FLPUK64QNW1L83M3VPBR8JQI","A1SPIAJZORHFT0","3WPCIUYH1AU470H2HRBLZRFBM3CTDN","","","img/flower6.png","76","658.6000000014901","3","1","3","",""
"null","","html-keyboard-response","35","137014","0.0-35.0","34X6J5FLPUK64QNW1L83M3VPBR8JQI","A1SPIAJZORHFT0","3WPCIUYH1AU470H2HRBLZRFBM3CTDN","","","<img src=""img/flower6.png"" style=""width:200px; border:14px solid green;"">","null","","","","","",""
"511.1000000014901","","image-keyboard-response","36","137526","0.0-36.0","34X6J5FLPUK64QNW1L83M3VPBR8JQI","A1SPIAJZORHFT0","3WPCIUYH1AU470H2HRBLZRFBM3CTDN","","","img/flower5.png","75","511.90000000596046","2","0","2","",""
"null","","html-keyboard-response","37","137842","0.0-37.0","34X6J5FLPUK64QNW1L83M3VPBR8JQI","A1SPIAJZORHFT0","3WPCIUYH1AU470H2HRBLZRFBM3CTDN","","","<img src=""img/flower5.png"" style=""width:200px;border:14px solid red;"">","null","","","","","",""
"1298.3000000044703","","image-keyboard-response","38","139141","0.0-38.0","34X6J5FLPUK64QNW1L83M3VPBR8JQI","A1SPIAJZORHFT0","3WPCIUYH1AU470H2HRBLZRFBM3CTDN","","","img/flower6.png","76","1299.2999999970198","3","1","3","",""
"null","","html-keyboard-response","39","139455","0.0-39.0","34X6J5FLPUK64QNW1L83M3VPBR8JQI","A1SPIAJZORHFT0","3WPCIUYH1AU470H2HRBLZRFBM3CTDN","","","<img src=""img/flower6.png"" style=""width:200px; border:14px solid green;"">","null","","","","","",""
"852.6000000014901","","image-keyboard-response","40","140309","0.0-40.0","34X6J5FLPUK64QNW1L83M3VPBR8JQI","A1SPIAJZORHFT0","3WPCIUYH1AU470H2HRBLZRFBM3CTDN","","","img/flower5.png","75","853.5","2","1","2","",""
"null","","html-keyboard-response","41","140620","0.0-41.0","34X6J5FLPUK64QNW1L83M3VPBR8JQI","A1SPIAJZORHFT0","3WPCIUYH1AU470H2HRBLZRFBM3CTDN","","","<img src=""img/flower5.png"" style=""width:200px; border:14px solid green;"">","null","","","","","",""
"492.1000000014901","","image-keyboard-response","42","141114","0.0-42.0","34X6J5FLPUK64QNW1L83M3VPBR8JQI","A1SPIAJZORHFT0","3WPCIUYH1AU470H2HRBLZRFBM3CTDN","","","img/flower5.png","75","493.1000000014901","2","1","2","",""
"null","","html-keyboard-response","43","141416","0.0-43.0","34X6J5FLPUK64QNW1L83M3VPBR8JQI","A1SPIAJZORHFT0","3WPCIUYH1AU470H2HRBLZRFBM3CTDN","","","<img src=""img/flower5.png"" style=""width:200px; border:14px solid green;"">","null","","","","","",""
"296.5","","image-keyboard-response","44","141714","0.0-44.0","34X6J5FLPUK64QNW1L83M3VPBR8JQI","A1SPIAJZORHFT0","3WPCIUYH1AU470H2HRBLZRFBM3CTDN","","","img/flower5.png","75","297.3999999985099","2","1","2","",""
"null","","html-keyboard-response","45","142023","0.0-45.0","34X6J5FLPUK64QNW1L83M3VPBR8JQI","A1SPIAJZORHFT0","3WPCIUYH1AU470H2HRBLZRFBM3CTDN","","","<img src=""img/flower5.png"" style=""width:200px; border:14px solid green;"">","null","","","","","",""
"245.5","","image-keyboard-response","46","142270","0.0-46.0","34X6J5FLPUK64QNW1L83M3VPBR8JQI","A1SPIAJZORHFT0","3WPCIUYH1AU470H2HRBLZRFBM3CTDN","","","img/flower5.png","75","246.39999999850988","2","1","2","",""
"null","","html-keyboard-response","47","142582","0.0-47.0","34X6J5FLPUK64QNW1L83M3VPBR8JQI","A1SPIAJZORHFT0","3WPCIUYH1AU470H2HRBLZRFBM3CTDN","","","<img src=""img/flower5.png"" style=""width:200px; border:14px solid green;"">","null","","","","","",""
"755.2999999970198","","image-keyboard-response","48","143338","0.0-48.0","34X6J5FLPUK64QNW1L83M3VPBR8JQI","A1SPIAJZORHFT0","3WPCIUYH1AU470H2HRBLZRFBM3CTDN","","","img/flower4.png","74","756.1000000014901","1","0","1","",""
"null","","html-keyboard-response","49","143647","0.0-49.0","34X6J5FLPUK64QNW1L83M3VPBR8JQI","A1SPIAJZORHFT0","3WPCIUYH1AU470H2HRBLZRFBM3CTDN","","","<img src=""img/flower4.png"" style=""width:200px;border:14px solid red;"">","null","","","","","",""
"1074.5","","image-keyboard-response","50","144723","0.0-50.0","34X6J5FLPUK64QNW1L83M3VPBR8JQI","A1SPIAJZORHFT0","3WPCIUYH1AU470H2HRBLZRFBM3CTDN","","","img/flower6.png","76","1075.2999999970198","3","1","3","",""
"null","","html-keyboard-response","51","145025","0.0-51.0","34X6J5FLPUK64QNW1L83M3VPBR8JQI","A1SPIAJZORHFT0","3WPCIUYH1AU470H2HRBLZRFBM3CTDN","","","<img src=""img/flower6.png"" style=""width:200px; border:14px solid green;"">","null","","","","","",""
"476.8999999985099","","image-keyboard-response","52","145504","0.0-52.0","34X6J5FLPUK64QNW1L83M3VPBR8JQI","A1SPIAJZORHFT0","3WPCIUYH1AU470H2HRBLZRFBM3CTDN","","","img/flower4.png","74","477.8999999985099","1","1","1","",""
"null","","html-keyboard-response","53","145808","0.0-53.0","34X6J5FLPUK64QNW1L83M3VPBR8JQI","A1SPIAJZORHFT0","3WPCIUYH1AU470H2HRBLZRFBM3CTDN","","","<img src=""img/flower4.png"" style=""width:200px; border:14px solid green;"">","null","","","","","",""
"457.5","","image-keyboard-response","54","146267","0.0-54.0","34X6J5FLPUK64QNW1L83M3VPBR8JQI","A1SPIAJZORHFT0","3WPCIUYH1AU470H2HRBLZRFBM3CTDN","","","img/flower4.png","74","458.30000000447035","1","0","1","",""
"null","","html-keyboard-response","55","146571","0.0-55.0","34X6J5FLPUK64QNW1L83M3VPBR8JQI","A1SPIAJZORHFT0","3WPCIUYH1AU470H2HRBLZRFBM3CTDN","","","<img src=""img/flower4.png"" style=""width:200px;border:14px solid red;"">","null","","","","","",""
"343.30000000447035","","image-keyboard-response","56","146915","0.0-56.0","34X6J5FLPUK64QNW1L83M3VPBR8JQI","A1SPIAJZORHFT0","3WPCIUYH1AU470H2HRBLZRFBM3CTDN","","","img/flower4.png","74","344.20000000298023","1","0","1","",""
"null","","html-keyboard-response","57","147226","0.0-57.0","34X6J5FLPUK64QNW1L83M3VPBR8JQI","A1SPIAJZORHFT0","3WPCIUYH1AU470H2HRBLZRFBM3CTDN","","","<img src=""img/flower4.png"" style=""width:200px;border:14px solid red;"">","null","","","","","",""
"629.8999999985099","","image-keyboard-response","58","147857","0.0-58.0","34X6J5FLPUK64QNW1L83M3VPBR8JQI","A1SPIAJZORHFT0","3WPCIUYH1AU470H2HRBLZRFBM3CTDN","","","img/flower6.png","76","631","3","1","3","",""
"null","","html-keyboard-response","59","148167","0.0-59.0","34X6J5FLPUK64QNW1L83M3VPBR8JQI","A1SPIAJZORHFT0","3WPCIUYH1AU470H2HRBLZRFBM3CTDN","","","<img src=""img/flower6.png"" style=""width:200px; border:14px solid green;"">","null","","","","","",""
"570.1000000014901","","image-keyboard-response","60","148738","0.0-60.0","34X6J5FLPUK64QNW1L83M3VPBR8JQI","A1SPIAJZORHFT0","3WPCIUYH1AU470H2HRBLZRFBM3CTDN","","","img/flower4.png","75","571.1000000014901","2","0","1","",""
"null","","html-keyboard-response","61","149045","0.0-61.0","34X6J5FLPUK64QNW1L83M3VPBR8JQI","A1SPIAJZORHFT0","3WPCIUYH1AU470H2HRBLZRFBM3CTDN","","","<img src=""img/flower4.png"" style=""width:200px;border:14px solid red;"">","null","","","","","",""
"51","","image-keyboard-response","62","149097","0.0-62.0","34X6J5FLPUK64QNW1L83M3VPBR8JQI","A1SPIAJZORHFT0","3WPCIUYH1AU470H2HRBLZRFBM3CTDN","","","img/flower5.png","74","51.69999999552965","1","1","2","",""
"null","","html-keyboard-response","63","149412","0.0-63.0","34X6J5FLPUK64QNW1L83M3VPBR8JQI","A1SPIAJZORHFT0","3WPCIUYH1AU470H2HRBLZRFBM3CTDN","","","<img src=""img/flower5.png"" style=""width:200px; border:14px solid green;"">","null","","","","","",""
"15768.10000000149","","instructions","64","165181","0.0-64.0","34X6J5FLPUK64QNW1L83M3VPBR8JQI","A1SPIAJZORHFT0","3WPCIUYH1AU470H2HRBLZRFBM3CTDN","","[{""page_index"":0,""viewing_time"":4873},{""page_index"":1,""viewing_time"":10894.60000000149}]","","","","","","","",""
"1197.1999999955297","","image-keyboard-response","65","166380","0.0-65.0","34X6J5FLPUK64QNW1L83M3VPBR8JQI","A1SPIAJZORHFT0","3WPCIUYH1AU470H2HRBLZRFBM3CTDN","","","img/flower6.png","76","1198.3999999985099","3","0","3","",""
"null","","html-keyboard-response","66","166691","0.0-66.0","34X6J5FLPUK64QNW1L83M3VPBR8JQI","A1SPIAJZORHFT0","3WPCIUYH1AU470H2HRBLZRFBM3CTDN","","","<img src=""img/flower6.png"" style=""width:200px;border:14px solid red;"">","null","","","","","",""
"908.5","","image-keyboard-response","67","167600","0.0-67.0","34X6J5FLPUK64QNW1L83M3VPBR8JQI","A1SPIAJZORHFT0","3WPCIUYH1AU470H2HRBLZRFBM3CTDN","","","img/flower4.png","74","909.2999999970198","1","1","1","",""
"null","","html-keyboard-response","68","167917","0.0-68.0","34X6J5FLPUK64QNW1L83M3VPBR8JQI","A1SPIAJZORHFT0","3WPCIUYH1AU470H2HRBLZRFBM3CTDN","","","<img src=""img/flower4.png"" style=""width:200px; border:14px solid green;"">","null","","","","","",""
"648.8000000044703","","image-keyboard-response","69","168567","0.0-69.0","34X6J5FLPUK64QNW1L83M3VPBR8JQI","A1SPIAJZORHFT0","3WPCIUYH1AU470H2HRBLZRFBM3CTDN","","","img/flower6.png","76","649.8999999985099","3","1","3","",""
"null","","html-keyboard-response","70","168874","0.0-70.0","34X6J5FLPUK64QNW1L83M3VPBR8JQI","A1SPIAJZORHFT0","3WPCIUYH1AU470H2HRBLZRFBM3CTDN","","","<img src=""img/flower6.png"" style=""width:200px; border:14px solid green;"">","null","","","","","",""
"622.8999999985099","","image-keyboard-response","71","169498","0.0-71.0","34X6J5FLPUK64QNW1L83M3VPBR8JQI","A1SPIAJZORHFT0","3WPCIUYH1AU470H2HRBLZRFBM3CTDN","","","img/flower5.png","75","623.7000000029802","2","1","2","",""
"null","","html-keyboard-response","72","169813","0.0-72.0","34X6J5FLPUK64QNW1L83M3VPBR8JQI","A1SPIAJZORHFT0","3WPCIUYH1AU470H2HRBLZRFBM3CTDN","","","<img src=""img/flower5.png"" style=""width:200px; border:14px solid green;"">","null","","","","","",""
"546.2999999970198","","image-keyboard-response","73","170361","0.0-73.0","34X6J5FLPUK64QNW1L83M3VPBR8JQI","A1SPIAJZORHFT0","3WPCIUYH1AU470H2HRBLZRFBM3CTDN","","","img/flower4.png","74","547.3000000044703","1","1","1","",""
"null","","html-keyboard-response","74","170678","0.0-74.0","34X6J5FLPUK64QNW1L83M3VPBR8JQI","A1SPIAJZORHFT0","3WPCIUYH1AU470H2HRBLZRFBM3CTDN","","","<img src=""img/flower4.png"" style=""width:200px; border:14px solid green;"">","null","","","","","",""
"585.8000000044703","","image-keyboard-response","75","171264","0.0-75.0","34X6J5FLPUK64QNW1L83M3VPBR8JQI","A1SPIAJZORHFT0","3WPCIUYH1AU470H2HRBLZRFBM3CTDN","","","img/flower6.png","76","586.7000000029802","3","1","3","",""
"null","","html-keyboard-response","76","171571","0.0-76.0","34X6J5FLPUK64QNW1L83M3VPBR8JQI","A1SPIAJZORHFT0","3WPCIUYH1AU470H2HRBLZRFBM3CTDN","","","<img src=""img/flower6.png"" style=""width:200px; border:14px solid green;"">","null","","","","","",""
"487.30000000447035","","image-keyboard-response","77","172059","0.0-77.0","34X6J5FLPUK64QNW1L83M3VPBR8JQI","A1SPIAJZORHFT0","3WPCIUYH1AU470H2HRBLZRFBM3CTDN","","","img/flower4.png","74","488.19999999552965","1","1","1","",""
"null","","html-keyboard-response","78","172368","0.0-78.0","34X6J5FLPUK64QNW1L83M3VPBR8JQI","A1SPIAJZORHFT0","3WPCIUYH1AU470H2HRBLZRFBM3CTDN","","","<img src=""img/flower4.png"" style=""width:200px; border:14px solid green;"">","null","","","","","",""
"666.1000000014901","","image-keyboard-response","79","173035","0.0-79.0","34X6J5FLPUK64QNW1L83M3VPBR8JQI","A1SPIAJZORHFT0","3WPCIUYH1AU470H2HRBLZRFBM3CTDN","","","img/flower6.png","76","666.8999999985099","3","0","3","",""
"null","","html-keyboard-response","80","173343","0.0-80.0","34X6J5FLPUK64QNW1L83M3VPBR8JQI","A1SPIAJZORHFT0","3WPCIUYH1AU470H2HRBLZRFBM3CTDN","","","<img src=""img/flower6.png"" style=""width:200px;border:14px solid red;"">","null","","","","","",""
"670.1999999955297","","image-keyboard-response","81","174014","0.0-81.0","34X6J5FLPUK64QNW1L83M3VPBR8JQI","A1SPIAJZORHFT0","3WPCIUYH1AU470H2HRBLZRFBM3CTDN","","","img/flower4.png","74","671","1","0","1","",""
"null","","html-keyboard-response","82","174327","0.0-82.0","34X6J5FLPUK64QNW1L83M3VPBR8JQI","A1SPIAJZORHFT0","3WPCIUYH1AU470H2HRBLZRFBM3CTDN","","","<img src=""img/flower4.png"" style=""width:200px;border:14px solid red;"">","null","","","","","",""
"333.8999999985099","","image-keyboard-response","83","174662","0.0-83.0","34X6J5FLPUK64QNW1L83M3VPBR8JQI","A1SPIAJZORHFT0","3WPCIUYH1AU470H2HRBLZRFBM3CTDN","","","img/flower4.png","74","334.80000000447035","1","1","1","",""
"null","","html-keyboard-response","84","174975","0.0-84.0","34X6J5FLPUK64QNW1L83M3VPBR8JQI","A1SPIAJZORHFT0","3WPCIUYH1AU470H2HRBLZRFBM3CTDN","","","<img src=""img/flower4.png"" style=""width:200px; border:14px solid green;"">","null","","","","","",""
"534.3999999985099","","image-keyboard-response","85","175510","0.0-85.0","34X6J5FLPUK64QNW1L83M3VPBR8JQI","A1SPIAJZORHFT0","3WPCIUYH1AU470H2HRBLZRFBM3CTDN","","","img/flower5.png","75","535.1999999955297","2","1","2","",""
"null","","html-keyboard-response","86","175818","0.0-86.0","34X6J5FLPUK64QNW1L83M3VPBR8JQI","A1SPIAJZORHFT0","3WPCIUYH1AU470H2HRBLZRFBM3CTDN","","","<img src=""img/flower5.png"" style=""width:200px; border:14px solid green;"">","null","","","","","",""
"501.6000000014901","","image-keyboard-response","87","176320","0.0-87.0","34X6J5FLPUK64QNW1L83M3VPBR8JQI","A1SPIAJZORHFT0","3WPCIUYH1AU470H2HRBLZRFBM3CTDN","","","img/flower6.png","76","502.30000000447035","3","1","3","",""
"null","","html-keyboard-response","88","176631","0.0-88.0","34X6J5FLPUK64QNW1L83M3VPBR8JQI","A1SPIAJZORHFT0","3WPCIUYH1AU470H2HRBLZRFBM3CTDN","","","<img src=""img/flower6.png"" style=""width:200px; border:14px solid green;"">","null","","","","","",""
"281.1000000014901","","image-keyboard-response","89","176913","0.0-89.0","34X6J5FLPUK64QNW1L83M3VPBR8JQI","A1SPIAJZORHFT0","3WPCIUYH1AU470H2HRBLZRFBM3CTDN","","","img/flower6.png","76","282","3","1","3","",""
"null","","html-keyboard-response","90","177222","0.0-90.0","34X6J5FLPUK64QNW1L83M3VPBR8JQI","A1SPIAJZORHFT0","3WPCIUYH1AU470H2HRBLZRFBM3CTDN","","","<img src=""img/flower6.png"" style=""width:200px; border:14px solid green;"">","null","","","","","",""
"637.7999999970198","","image-keyboard-response","91","177861","0.0-91.0","34X6J5FLPUK64QNW1L83M3VPBR8JQI","A1SPIAJZORHFT0","3WPCIUYH1AU470H2HRBLZRFBM3CTDN","","","img/flower5.png","75","638.8000000044703","2","1","2","",""
"null","","html-keyboard-response","92","178162","0.0-92.0","34X6J5FLPUK64QNW1L83M3VPBR8JQI","A1SPIAJZORHFT0","3WPCIUYH1AU470H2HRBLZRFBM3CTDN","","","<img src=""img/flower5.png"" style=""width:200px; border:14px solid green;"">","null","","","","","",""
"583.6000000014901","","image-keyboard-response","93","178747","0.0-93.0","34X6J5FLPUK64QNW1L83M3VPBR8JQI","A1SPIAJZORHFT0","3WPCIUYH1AU470H2HRBLZRFBM3CTDN","","","img/flower6.png","76","584.8000000044703","3","1","3","",""
"null","","html-keyboard-response","94","179055","0.0-94.0","34X6J5FLPUK64QNW1L83M3VPBR8JQI","A1SPIAJZORHFT0","3WPCIUYH1AU470H2HRBLZRFBM3CTDN","","","<img src=""img/flower6.png"" style=""width:200px; border:14px solid green;"">","null","","","","","",""
"500.79999999701977","","image-keyboard-response","95","179557","0.0-95.0","34X6J5FLPUK64QNW1L83M3VPBR8JQI","A1SPIAJZORHFT0","3WPCIUYH1AU470H2HRBLZRFBM3CTDN","","","img/flower4.png","74","501.80000000447035","1","0","1","",""
"null","","html-keyboard-response","96","179871","0.0-96.0","34X6J5FLPUK64QNW1L83M3VPBR8JQI","A1SPIAJZORHFT0","3WPCIUYH1AU470H2HRBLZRFBM3CTDN","","","<img src=""img/flower4.png"" style=""width:200px;border:14px solid red;"">","null","","","","","",""
"623.8000000044703","","image-keyboard-response","97","180496","0.0-97.0","34X6J5FLPUK64QNW1L83M3VPBR8JQI","A1SPIAJZORHFT0","3WPCIUYH1AU470H2HRBLZRFBM3CTDN","","","img/flower5.png","76","624.7999999970198","3","1","2","",""
"null","","html-keyboard-response","98","180812","0.0-98.0","34X6J5FLPUK64QNW1L83M3VPBR8JQI","A1SPIAJZORHFT0","3WPCIUYH1AU470H2HRBLZRFBM3CTDN","","","<img src=""img/flower5.png"" style=""width:200px; border:14px solid green;"">","null","","","","","",""
"1190.6000000014901","","image-keyboard-response","99","182004","0.0-99.0","34X6J5FLPUK64QNW1L83M3VPBR8JQI","A1SPIAJZORHFT0","3WPCIUYH1AU470H2HRBLZRFBM3CTDN","","","img/flower4.png","76","1191.6000000014901","3","1","1","",""
"null","","html-keyboard-response","100","182311","0.0-100.0","34X6J5FLPUK64QNW1L83M3VPBR8JQI","A1SPIAJZORHFT0","3WPCIUYH1AU470H2HRBLZRFBM3CTDN","","","<img src=""img/flower4.png"" style=""width:200px; border:14px solid green;"">","null","","","","","",""
"828.6999999955297","","image-keyboard-response","101","183141","0.0-101.0","34X6J5FLPUK64QNW1L83M3VPBR8JQI","A1SPIAJZORHFT0","3WPCIUYH1AU470H2HRBLZRFBM3CTDN","","","img/flower4.png","74","829.8000000044703","1","1","1","",""
"null","","html-keyboard-response","102","183446","0.0-102.0","34X6J5FLPUK64QNW1L83M3VPBR8JQI","A1SPIAJZORHFT0","3WPCIUYH1AU470H2HRBLZRFBM3CTDN","","","<img src=""img/flower4.png"" style=""width:200px; border:14px solid green;"">","null","","","","","",""
"642.8999999985099","","image-keyboard-response","103","184090","0.0-103.0","34X6J5FLPUK64QNW1L83M3VPBR8JQI","A1SPIAJZORHFT0","3WPCIUYH1AU470H2HRBLZRFBM3CTDN","","","img/flower6.png","76","643.8999999985099","3","1","3","",""
"null","","html-keyboard-response","104","184402","0.0-104.0","34X6J5FLPUK64QNW1L83M3VPBR8JQI","A1SPIAJZORHFT0","3WPCIUYH1AU470H2HRBLZRFBM3CTDN","","","<img src=""img/flower6.png"" style=""width:200px; border:14px solid green;"">","null","","","","","",""
"278.29999999701977","","image-keyboard-response","105","184682","0.0-105.0","34X6J5FLPUK64QNW1L83M3VPBR8JQI","A1SPIAJZORHFT0","3WPCIUYH1AU470H2HRBLZRFBM3CTDN","","","img/flower6.png","76","279.5","3","1","3","",""
"null","","html-keyboard-response","106","184990","0.0-106.0","34X6J5FLPUK64QNW1L83M3VPBR8JQI","A1SPIAJZORHFT0","3WPCIUYH1AU470H2HRBLZRFBM3CTDN","","","<img src=""img/flower6.png"" style=""width:200px; border:14px solid green;"">","null","","","","","",""
"583.6000000014901","","image-keyboard-response","107","185574","0.0-107.0","34X6J5FLPUK64QNW1L83M3VPBR8JQI","A1SPIAJZORHFT0","3WPCIUYH1AU470H2HRBLZRFBM3CTDN","","","img/flower5.png","75","584.8000000044703","2","1","2","",""
"null","","html-keyboard-response","108","185882","0.0-108.0","34X6J5FLPUK64QNW1L83M3VPBR8JQI","A1SPIAJZORHFT0","3WPCIUYH1AU470H2HRBLZRFBM3CTDN","","","<img src=""img/flower5.png"" style=""width:200px; border:14px solid green;"">","null","","","","","",""
"258.5","","image-keyboard-response","109","186142","0.0-109.0","34X6J5FLPUK64QNW1L83M3VPBR8JQI","A1SPIAJZORHFT0","3WPCIUYH1AU470H2HRBLZRFBM3CTDN","","","img/flower5.png","75","259.79999999701977","2","1","2","",""
"null","","html-keyboard-response","110","186457","0.0-110.0","34X6J5FLPUK64QNW1L83M3VPBR8JQI","A1SPIAJZORHFT0","3WPCIUYH1AU470H2HRBLZRFBM3CTDN","","","<img src=""img/flower5.png"" style=""width:200px; border:14px solid green;"">","null","","","","","",""
"273","","image-keyboard-response","111","186732","0.0-111.0","34X6J5FLPUK64QNW1L83M3VPBR8JQI","A1SPIAJZORHFT0","3WPCIUYH1AU470H2HRBLZRFBM3CTDN","","","img/flower5.png","75","274","2","0","2","",""
"null","","html-keyboard-response","112","187033","0.0-112.0","34X6J5FLPUK64QNW1L83M3VPBR8JQI","A1SPIAJZORHFT0","3WPCIUYH1AU470H2HRBLZRFBM3CTDN","","","<img src=""img/flower5.png"" style=""width:200px;border:14px solid red;"">","null","","","","","",""
"614.8000000044703","","image-keyboard-response","113","187649","0.0-113.0","34X6J5FLPUK64QNW1L83M3VPBR8JQI","A1SPIAJZORHFT0","3WPCIUYH1AU470H2HRBLZRFBM3CTDN","","","img/flower6.png","76","615.5999999940395","3","1","3","",""
"null","","html-keyboard-response","114","187961","0.0-114.0","34X6J5FLPUK64QNW1L83M3VPBR8JQI","A1SPIAJZORHFT0","3WPCIUYH1AU470H2HRBLZRFBM3CTDN","","","<img src=""img/flower6.png"" style=""width:200px; border:14px solid green;"">","null","","","","","",""
"648.1999999955297","","image-keyboard-response","115","188610","0.0-115.0","34X6J5FLPUK64QNW1L83M3VPBR8JQI","A1SPIAJZORHFT0","3WPCIUYH1AU470H2HRBLZRFBM3CTDN","","","img/flower5.png","74","649","1","0","2","",""
"null","","html-keyboard-response","116","188918","0.0-116.0","34X6J5FLPUK64QNW1L83M3VPBR8JQI","A1SPIAJZORHFT0","3WPCIUYH1AU470H2HRBLZRFBM3CTDN","","","<img src=""img/flower5.png"" style=""width:200px;border:14px solid red;"">","null","","","","","",""
"942.6999999955297","","image-keyboard-response","117","189861","0.0-117.0","34X6J5FLPUK64QNW1L83M3VPBR8JQI","A1SPIAJZORHFT0","3WPCIUYH1AU470H2HRBLZRFBM3CTDN","","","img/flower4.png","74","943.6000000014901","1","1","1","",""
"null","","html-keyboard-response","118","190177","0.0-118.0","34X6J5FLPUK64QNW1L83M3VPBR8JQI","A1SPIAJZORHFT0","3WPCIUYH1AU470H2HRBLZRFBM3CTDN","","","<img src=""img/flower4.png"" style=""width:200px; border:14px solid green;"">","null","","","","","",""
"942","","image-keyboard-response","119","191120","0.0-119.0","34X6J5FLPUK64QNW1L83M3VPBR8JQI","A1SPIAJZORHFT0","3WPCIUYH1AU470H2HRBLZRFBM3CTDN","","","img/flower5.png","75","943","2","0","2","",""
"null","","html-keyboard-response","120","191423","0.0-120.0","34X6J5FLPUK64QNW1L83M3VPBR8JQI","A1SPIAJZORHFT0","3WPCIUYH1AU470H2HRBLZRFBM3CTDN","","","<img src=""img/flower5.png"" style=""width:200px;border:14px solid red;"">","null","","","","","",""
"304.1000000014901","","image-keyboard-response","121","191728","0.0-121.0","34X6J5FLPUK64QNW1L83M3VPBR8JQI","A1SPIAJZORHFT0","3WPCIUYH1AU470H2HRBLZRFBM3CTDN","","","img/flower5.png","75","304.8999999985099","2","1","2","",""
"null","","html-keyboard-response","122","192045","0.0-122.0","34X6J5FLPUK64QNW1L83M3VPBR8JQI","A1SPIAJZORHFT0","3WPCIUYH1AU470H2HRBLZRFBM3CTDN","","","<img src=""img/flower5.png"" style=""width:200px; border:14px solid green;"">","null","","","","","",""
"633.6999999955297","","image-keyboard-response","123","192680","0.0-123.0","34X6J5FLPUK64QNW1L83M3VPBR8JQI","A1SPIAJZORHFT0","3WPCIUYH1AU470H2HRBLZRFBM3CTDN","","","img/flower4.png","74","634.9000000059605","1","1","1","",""
"null","","html-keyboard-response","124","192988","0.0-124.0","34X6J5FLPUK64QNW1L83M3VPBR8JQI","A1SPIAJZORHFT0","3WPCIUYH1AU470H2HRBLZRFBM3CTDN","","","<img src=""img/flower4.png"" style=""width:200px; border:14px solid green;"">","null","","","","","",""
"4705.5999999940395","","instructions","125","197694","0.0-125.0","34X6J5FLPUK64QNW1L83M3VPBR8JQI","A1SPIAJZORHFT0","3WPCIUYH1AU470H2HRBLZRFBM3CTDN","","[{""page_index"":0,""viewing_time"":4705.29999999702}]","","","","","","","",""
"2395.60000000149","","image-keyboard-response","126","200091","0.0-126.0","34X6J5FLPUK64QNW1L83M3VPBR8JQI","A1SPIAJZORHFT0","3WPCIUYH1AU470H2HRBLZRFBM3CTDN","","","img/flower2.png","76","2396.60000000149","3","1","1","0.8,0.8,0.2,0.2,0.8,0.8,0.8,0.2,0.8",""
"null","","html-keyboard-response","127","200405","0.0-127.0","34X6J5FLPUK64QNW1L83M3VPBR8JQI","A1SPIAJZORHFT0","3WPCIUYH1AU470H2HRBLZRFBM3CTDN","","","<img src=""img/flower2.png"" style=""width:200px; border:14px solid green;"">","null","","","","","",""
"1422.5","","image-keyboard-response","128","201828","0.0-128.0","34X6J5FLPUK64QNW1L83M3VPBR8JQI","A1SPIAJZORHFT0","3WPCIUYH1AU470H2HRBLZRFBM3CTDN","","","img/flower8.png","75","1423.5","2","0","3","0.8,0.8,0.2,0.2,0.8,0.8,0.8,0.2,0.8",""
"null","","html-keyboard-response","129","202143","0.0-129.0","34X6J5FLPUK64QNW1L83M3VPBR8JQI","A1SPIAJZORHFT0","3WPCIUYH1AU470H2HRBLZRFBM3CTDN","","","<img src=""img/flower8.png"" style=""width:200px;border:14px solid red;"">","null","","","","","",""
"1445.0999999940395","","image-keyboard-response","130","203589","0.0-130.0","34X6J5FLPUK64QNW1L83M3VPBR8JQI","A1SPIAJZORHFT0","3WPCIUYH1AU470H2HRBLZRFBM3CTDN","","","img/flower9.png","74","1445.8999999985099","1","0","2","0.8,0.8,0.2,0.2,0.8,0.8,0.8,0.2,0.8",""
"null","","html-keyboard-response","131","203898","0.0-131.0","34X6J5FLPUK64QNW1L83M3VPBR8JQI","A1SPIAJZORHFT0","3WPCIUYH1AU470H2HRBLZRFBM3CTDN","","","<img src=""img/flower9.png"" style=""width:200px;border:14px solid red;"">","null","","","","","",""
"1315.8999999985099","","image-keyboard-response","132","205214","0.0-132.0","34X6J5FLPUK64QNW1L83M3VPBR8JQI","A1SPIAJZORHFT0","3WPCIUYH1AU470H2HRBLZRFBM3CTDN","","","img/flower9.png","75","1316.8000000044703","2","1","2","0.8,0.8,0.2,0.2,0.8,0.8,0.8,0.2,0.8",""
"null","","html-keyboard-response","133","205522","0.0-133.0","34X6J5FLPUK64QNW1L83M3VPBR8JQI","A1SPIAJZORHFT0","3WPCIUYH1AU470H2HRBLZRFBM3CTDN","","","<img src=""img/flower9.png"" style=""width:200px; border:14px solid green;"">","null","","","","","",""
"2448.1999999955297","","image-keyboard-response","134","207971","0.0-134.0","34X6J5FLPUK64QNW1L83M3VPBR8JQI","A1SPIAJZORHFT0","3WPCIUYH1AU470H2HRBLZRFBM3CTDN","","","img/flower2.png","76","2449.2000000029802","3","1","1","0.8,0.8,0.2,0.2,0.8,0.8,0.8,0.2,0.8",""
"null","","html-keyboard-response","135","208278","0.0-135.0","34X6J5FLPUK64QNW1L83M3VPBR8JQI","A1SPIAJZORHFT0","3WPCIUYH1AU470H2HRBLZRFBM3CTDN","","","<img src=""img/flower2.png"" style=""width:200px; border:14px solid green;"">","null","","","","","",""
"1142.5","","image-keyboard-response","136","209422","0.0-136.0","34X6J5FLPUK64QNW1L83M3VPBR8JQI","A1SPIAJZORHFT0","3WPCIUYH1AU470H2HRBLZRFBM3CTDN","","","img/flower9.png","74","1143.5999999940395","1","1","2","0.8,0.8,0.2,0.2,0.8,0.8,0.8,0.2,0.8",""
"null","","html-keyboard-response","137","209727","0.0-137.0","34X6J5FLPUK64QNW1L83M3VPBR8JQI","A1SPIAJZORHFT0","3WPCIUYH1AU470H2HRBLZRFBM3CTDN","","","<img src=""img/flower9.png"" style=""width:200px; border:14px solid green;"">","null","","","","","",""
"929.3000000044703","","image-keyboard-response","138","210657","0.0-138.0","34X6J5FLPUK64QNW1L83M3VPBR8JQI","A1SPIAJZORHFT0","3WPCIUYH1AU470H2HRBLZRFBM3CTDN","","","img/flower2.png","76","930.3000000044703","3","0","1","0.8,0.8,0.2,0.2,0.8,0.8,0.8,0.2,0.8",""
"null","","html-keyboard-response","139","210964","0.0-139.0","34X6J5FLPUK64QNW1L83M3VPBR8JQI","A1SPIAJZORHFT0","3WPCIUYH1AU470H2HRBLZRFBM3CTDN","","","<img src=""img/flower2.png"" style=""width:200px;border:14px solid red;"">","null","","","","","",""
"738.5","","image-keyboard-response","140","211704","0.0-140.0","34X6J5FLPUK64QNW1L83M3VPBR8JQI","A1SPIAJZORHFT0","3WPCIUYH1AU470H2HRBLZRFBM3CTDN","","","img/flower2.png","75","739.6000000014901","2","0","1","0.8,0.8,0.2,0.2,0.8,0.8,0.8,0.2,0.8",""
"null","","html-keyboard-response","141","212018","0.0-141.0","34X6J5FLPUK64QNW1L83M3VPBR8JQI","A1SPIAJZORHFT0","3WPCIUYH1AU470H2HRBLZRFBM3CTDN","","","<img src=""img/flower2.png"" style=""width:200px;border:14px solid red;"">","null","","","","","",""
"1369.7999999970198","","image-keyboard-response","142","213390","0.0-142.0","34X6J5FLPUK64QNW1L83M3VPBR8JQI","A1SPIAJZORHFT0","3WPCIUYH1AU470H2HRBLZRFBM3CTDN","","","img/flower8.png","75","1371","2","0","3","0.8,0.8,0.2,0.2,0.8,0.8,0.8,0.2,0.8",""
"null","","html-keyboard-response","143","213706","0.0-143.0","34X6J5FLPUK64QNW1L83M3VPBR8JQI","A1SPIAJZORHFT0","3WPCIUYH1AU470H2HRBLZRFBM3CTDN","","","<img src=""img/flower8.png"" style=""width:200px;border:14px solid red;"">","null","","","","","",""
"860.2000000029802","","image-keyboard-response","144","214567","0.0-144.0","34X6J5FLPUK64QNW1L83M3VPBR8JQI","A1SPIAJZORHFT0","3WPCIUYH1AU470H2HRBLZRFBM3CTDN","","","img/flower9.png","74","861.1000000014901","1","0","2","0.8,0.8,0.2,0.2,0.8,0.8,0.8,0.2,0.8",""
"null","","html-keyboard-response","145","214873","0.0-145.0","34X6J5FLPUK64QNW1L83M3VPBR8JQI","A1SPIAJZORHFT0","3WPCIUYH1AU470H2HRBLZRFBM3CTDN","","","<img src=""img/flower9.png"" style=""width:200px;border:14px solid red;"">","null","","","","","",""
"1598.7999999970198","","image-keyboard-response","146","216473","0.0-146.0","34X6J5FLPUK64QNW1L83M3VPBR8JQI","A1SPIAJZORHFT0","3WPCIUYH1AU470H2HRBLZRFBM3CTDN","","","img/flower8.png","75","1599.8999999985099","2","1","3","0.8,0.8,0.2,0.2,0.8,0.8,0.8,0.2,0.8",""
"null","","html-keyboard-response","147","216790","0.0-147.0","34X6J5FLPUK64QNW1L83M3VPBR8JQI","A1SPIAJZORHFT0","3WPCIUYH1AU470H2HRBLZRFBM3CTDN","","","<img src=""img/flower8.png"" style=""width:200px; border:14px solid green;"">","null","","","","","",""
"2009.4000000059605","","image-keyboard-response","148","218800","0.0-148.0","34X6J5FLPUK64QNW1L83M3VPBR8JQI","A1SPIAJZORHFT0","3WPCIUYH1AU470H2HRBLZRFBM3CTDN","","","img/flower9.png","76","2010.1000000014901","3","1","2","0.8,0.8,0.2,0.2,0.8,0.8,0.8,0.2,0.8",""
"null","","html-keyboard-response","149","219104","0.0-149.0","34X6J5FLPUK64QNW1L83M3VPBR8JQI","A1SPIAJZORHFT0","3WPCIUYH1AU470H2HRBLZRFBM3CTDN","","","<img src=""img/flower9.png"" style=""width:200px; border:14px solid green;"">","null","","","","","",""
"1306.1000000014901","","image-keyboard-response","150","220412","0.0-150.0","34X6J5FLPUK64QNW1L83M3VPBR8JQI","A1SPIAJZORHFT0","3WPCIUYH1AU470H2HRBLZRFBM3CTDN","","","img/flower2.png","74","1307","1","0","1","0.8,0.8,0.2,0.2,0.8,0.8,0.8,0.2,0.8",""
"null","","html-keyboard-response","151","220726","0.0-151.0","34X6J5FLPUK64QNW1L83M3VPBR8JQI","A1SPIAJZORHFT0","3WPCIUYH1AU470H2HRBLZRFBM3CTDN","","","<img src=""img/flower2.png"" style=""width:200px;border:14px solid red;"">","null","","","","","",""
"1002.7999999970198","","image-keyboard-response","152","221730","0.0-152.0","34X6J5FLPUK64QNW1L83M3VPBR8JQI","A1SPIAJZORHFT0","3WPCIUYH1AU470H2HRBLZRFBM3CTDN","","","img/flower8.png","75","1003.6000000014901","2","0","3","0.8,0.8,0.2,0.2,0.8,0.8,0.8,0.2,0.8",""
"null","","html-keyboard-response","153","222034","0.0-153.0","34X6J5FLPUK64QNW1L83M3VPBR8JQI","A1SPIAJZORHFT0","3WPCIUYH1AU470H2HRBLZRFBM3CTDN","","","<img src=""img/flower8.png"" style=""width:200px;border:14px solid red;"">","null","","","","","",""
"776.6999999955297","","image-keyboard-response","154","222812","0.0-154.0","34X6J5FLPUK64QNW1L83M3VPBR8JQI","A1SPIAJZORHFT0","3WPCIUYH1AU470H2HRBLZRFBM3CTDN","","","img/flower8.png","76","777.3999999985099","3","1","3","0.8,0.8,0.2,0.2,0.8,0.8,0.8,0.2,0.8",""
"null","","html-keyboard-response","155","223115","0.0-155.0","34X6J5FLPUK64QNW1L83M3VPBR8JQI","A1SPIAJZORHFT0","3WPCIUYH1AU470H2HRBLZRFBM3CTDN","","","<img src=""img/flower8.png"" style=""width:200px; border:14px solid green;"">","null","","","","","",""
"1215.7999999970198","","image-keyboard-response","156","224332","0.0-156.0","34X6J5FLPUK64QNW1L83M3VPBR8JQI","A1SPIAJZORHFT0","3WPCIUYH1AU470H2HRBLZRFBM3CTDN","","","img/flower2.png","75","1216.6999999955297","2","0","1","0.8,0.8,0.2,0.2,0.8,0.8,0.8,0.2,0.8",""
"null","","html-keyboard-response","157","224648","0.0-157.0","34X6J5FLPUK64QNW1L83M3VPBR8JQI","A1SPIAJZORHFT0","3WPCIUYH1AU470H2HRBLZRFBM3CTDN","","","<img src=""img/flower2.png"" style=""width:200px;border:14px solid red;"">","null","","","","","",""
"1345.6000000014901","","image-keyboard-response","158","225995","0.0-158.0","34X6J5FLPUK64QNW1L83M3VPBR8JQI","A1SPIAJZORHFT0","3WPCIUYH1AU470H2HRBLZRFBM3CTDN","","","img/flower9.png","74","1346.6000000014901","1","0","2","0.8,0.8,0.2,0.2,0.8,0.8,0.8,0.2,0.8",""
"null","","html-keyboard-response","159","226298","0.0-159.0","34X6J5FLPUK64QNW1L83M3VPBR8JQI","A1SPIAJZORHFT0","3WPCIUYH1AU470H2HRBLZRFBM3CTDN","","","<img src=""img/flower9.png"" style=""width:200px;border:14px solid red;"">","null","","","","","",""
"305.29999999701977","","image-keyboard-response","160","226605","0.0-160.0","34X6J5FLPUK64QNW1L83M3VPBR8JQI","A1SPIAJZORHFT0","3WPCIUYH1AU470H2HRBLZRFBM3CTDN","","","img/flower9.png","74","306.20000000298023","1","0","2","0.8,0.8,0.2,0.2,0.8,0.8,0.8,0.2,0.8",""
"null","","html-keyboard-response","161","226921","0.0-161.0","34X6J5FLPUK64QNW1L83M3VPBR8JQI","A1SPIAJZORHFT0","3WPCIUYH1AU470H2HRBLZRFBM3CTDN","","","<img src=""img/flower9.png"" style=""width:200px;border:14px solid red;"">","null","","","","","",""
"1204.7999999970198","","image-keyboard-response","162","228126","0.0-162.0","34X6J5FLPUK64QNW1L83M3VPBR8JQI","A1SPIAJZORHFT0","3WPCIUYH1AU470H2HRBLZRFBM3CTDN","","","img/flower8.png","76","1205.7000000029802","3","1","3","0.8,0.8,0.2,0.2,0.8,0.8,0.8,0.2,0.8",""
"null","","html-keyboard-response","163","228437","0.0-163.0","34X6J5FLPUK64QNW1L83M3VPBR8JQI","A1SPIAJZORHFT0","3WPCIUYH1AU470H2HRBLZRFBM3CTDN","","","<img src=""img/flower8.png"" style=""width:200px; border:14px solid green;"">","null","","","","","",""
"1404","","image-keyboard-response","164","229842","0.0-164.0","34X6J5FLPUK64QNW1L83M3VPBR8JQI","A1SPIAJZORHFT0","3WPCIUYH1AU470H2HRBLZRFBM3CTDN","","","img/flower2.png","75","1404.8999999985099","2","1","1","0.8,0.8,0.2,0.2,0.8,0.8,0.8,0.2,0.8",""
"null","","html-keyboard-response","165","230143","0.0-165.0","34X6J5FLPUK64QNW1L83M3VPBR8JQI","A1SPIAJZORHFT0","3WPCIUYH1AU470H2HRBLZRFBM3CTDN","","","<img src=""img/flower2.png"" style=""width:200px; border:14px solid green;"">","null","","","","","",""
"961.7999999970198","","image-keyboard-response","166","231106","0.0-166.0","34X6J5FLPUK64QNW1L83M3VPBR8JQI","A1SPIAJZORHFT0","3WPCIUYH1AU470H2HRBLZRFBM3CTDN","","","img/flower9.png","74","962.7000000029802","1","0","2","0.8,0.8,0.2,0.2,0.8,0.8,0.8,0.2,0.8",""
"null","","html-keyboard-response","167","231417","0.0-167.0","34X6J5FLPUK64QNW1L83M3VPBR8JQI","A1SPIAJZORHFT0","3WPCIUYH1AU470H2HRBLZRFBM3CTDN","","","<img src=""img/flower9.png"" style=""width:200px;border:14px solid red;"">","null","","","","","",""
"942.8999999985099","","image-keyboard-response","168","232361","0.0-168.0","34X6J5FLPUK64QNW1L83M3VPBR8JQI","A1SPIAJZORHFT0","3WPCIUYH1AU470H2HRBLZRFBM3CTDN","","","img/flower8.png","76","943.7999999970198","3","1","3","0.8,0.8,0.2,0.2,0.8,0.8,0.8,0.2,0.8",""
"null","","html-keyboard-response","169","232677","0.0-169.0","34X6J5FLPUK64QNW1L83M3VPBR8JQI","A1SPIAJZORHFT0","3WPCIUYH1AU470H2HRBLZRFBM3CTDN","","","<img src=""img/flower8.png"" style=""width:200px; border:14px solid green;"">","null","","","","","",""
"260.3999999985099","","image-keyboard-response","170","232938","0.0-170.0","34X6J5FLPUK64QNW1L83M3VPBR8JQI","A1SPIAJZORHFT0","3WPCIUYH1AU470H2HRBLZRFBM3CTDN","","","img/flower8.png","76","261.29999999701977","3","1","3","0.8,0.8,0.2,0.2,0.8,0.8,0.8,0.2,0.8",""
"null","","html-keyboard-response","171","233251","0.0-171.0","34X6J5FLPUK64QNW1L83M3VPBR8JQI","A1SPIAJZORHFT0","3WPCIUYH1AU470H2HRBLZRFBM3CTDN","","","<img src=""img/flower8.png"" style=""width:200px; border:14px solid green;"">","null","","","","","",""
"1046.3000000044703","","image-keyboard-response","172","234299","0.0-172.0","34X6J5FLPUK64QNW1L83M3VPBR8JQI","A1SPIAJZORHFT0","3WPCIUYH1AU470H2HRBLZRFBM3CTDN","","","img/flower2.png","75","1047.1000000014901","2","1","1","0.8,0.8,0.2,0.2,0.8,0.8,0.8,0.2,0.8",""
"null","","html-keyboard-response","173","234605","0.0-173.0","34X6J5FLPUK64QNW1L83M3VPBR8JQI","A1SPIAJZORHFT0","3WPCIUYH1AU470H2HRBLZRFBM3CTDN","","","<img src=""img/flower2.png"" style=""width:200px; border:14px solid green;"">","null","","","","","",""
"709.5","","image-keyboard-response","174","235315","0.0-174.0","34X6J5FLPUK64QNW1L83M3VPBR8JQI","A1SPIAJZORHFT0","3WPCIUYH1AU470H2HRBLZRFBM3CTDN","","","img/flower9.png","74","710.2000000029802","1","0","2","0.8,0.8,0.2,0.2,0.8,0.8,0.8,0.2,0.8",""
"null","","html-keyboard-response","175","235625","0.0-175.0","34X6J5FLPUK64QNW1L83M3VPBR8JQI","A1SPIAJZORHFT0","3WPCIUYH1AU470H2HRBLZRFBM3CTDN","","","<img src=""img/flower9.png"" style=""width:200px;border:14px solid red;"">","null","","","","","",""
"244.29999999701977","","image-keyboard-response","176","235870","0.0-176.0","34X6J5FLPUK64QNW1L83M3VPBR8JQI","A1SPIAJZORHFT0","3WPCIUYH1AU470H2HRBLZRFBM3CTDN","","","img/flower2.png","74","245.19999999552965","1","1","1","0.8,0.8,0.2,0.2,0.8,0.8,0.8,0.2,0.8",""
"null","","html-keyboard-response","177","236183","0.0-177.0","34X6J5FLPUK64QNW1L83M3VPBR8JQI","A1SPIAJZORHFT0","3WPCIUYH1AU470H2HRBLZRFBM3CTDN","","","<img src=""img/flower2.png"" style=""width:200px; border:14px solid green;"">","null","","","","","",""
"1528.3999999985099","","image-keyboard-response","178","237713","0.0-178.0","34X6J5FLPUK64QNW1L83M3VPBR8JQI","A1SPIAJZORHFT0","3WPCIUYH1AU470H2HRBLZRFBM3CTDN","","","img/flower8.png","76","1529.4000000059605","3","1","3","0.8,0.8,0.2,0.2,0.8,0.8,0.8,0.2,0.8",""
"null","","html-keyboard-response","179","238019","0.0-179.0","34X6J5FLPUK64QNW1L83M3VPBR8JQI","A1SPIAJZORHFT0","3WPCIUYH1AU470H2HRBLZRFBM3CTDN","","","<img src=""img/flower8.png"" style=""width:200px; border:14px solid green;"">","null","","","","","",""
"771.0999999940395","","image-keyboard-response","180","238791","0.0-180.0","34X6J5FLPUK64QNW1L83M3VPBR8JQI","A1SPIAJZORHFT0","3WPCIUYH1AU470H2HRBLZRFBM3CTDN","","","img/flower2.png","74","772.1000000014901","1","1","1","0.8,0.8,0.2,0.2,0.8,0.8,0.8,0.2,0.8",""
"null","","html-keyboard-response","181","239104","0.0-181.0","34X6J5FLPUK64QNW1L83M3VPBR8JQI","A1SPIAJZORHFT0","3WPCIUYH1AU470H2HRBLZRFBM3CTDN","","","<img src=""img/flower2.png"" style=""width:200px; border:14px solid green;"">","null","","","","","",""
"346.5","","image-keyboard-response","182","239452","0.0-182.0","34X6J5FLPUK64QNW1L83M3VPBR8JQI","A1SPIAJZORHFT0","3WPCIUYH1AU470H2HRBLZRFBM3CTDN","","","img/flower2.png","74","347.3999999985099","1","1","1","0.8,0.8,0.2,0.2,0.8,0.8,0.8,0.2,0.8",""
"null","","html-keyboard-response","183","239758","0.0-183.0","34X6J5FLPUK64QNW1L83M3VPBR8JQI","A1SPIAJZORHFT0","3WPCIUYH1AU470H2HRBLZRFBM3CTDN","","","<img src=""img/flower2.png"" style=""width:200px; border:14px solid green;"">","null","","","","","",""
"497.40000000596046","","image-keyboard-response","184","240257","0.0-184.0","34X6J5FLPUK64QNW1L83M3VPBR8JQI","A1SPIAJZORHFT0","3WPCIUYH1AU470H2HRBLZRFBM3CTDN","","","img/flower9.png","75","498.19999999552965","2","1","2","0.8,0.8,0.2,0.2,0.8,0.8,0.8,0.2,0.8",""
"null","","html-keyboard-response","185","240573","0.0-185.0","34X6J5FLPUK64QNW1L83M3VPBR8JQI","A1SPIAJZORHFT0","3WPCIUYH1AU470H2HRBLZRFBM3CTDN","","","<img src=""img/flower9.png"" style=""width:200px; border:14px solid green;"">","null","","","","","",""
"287.29999999701977","","image-keyboard-response","186","240861","0.0-186.0","34X6J5FLPUK64QNW1L83M3VPBR8JQI","A1SPIAJZORHFT0","3WPCIUYH1AU470H2HRBLZRFBM3CTDN","","","img/flower9.png","75","288.1000000014901","2","1","2","0.8,0.8,0.2,0.2,0.8,0.8,0.8,0.2,0.8",""
"null","","html-keyboard-response","187","241178","0.0-187.0","34X6J5FLPUK64QNW1L83M3VPBR8JQI","A1SPIAJZORHFT0","3WPCIUYH1AU470H2HRBLZRFBM3CTDN","","","<img src=""img/flower9.png"" style=""width:200px; border:14px solid green;"">","null","","","","","",""
"1821","","image-keyboard-response","188","243001","0.0-188.0","34X6J5FLPUK64QNW1L83M3VPBR8JQI","A1SPIAJZORHFT0","3WPCIUYH1AU470H2HRBLZRFBM3CTDN","","","img/flower2.png","74","1822.1999999955297","1","0","1","0.8,0.8,0.2,0.2,0.8,0.8,0.8,0.2,0.8",""
"null","","html-keyboard-response","189","243317","0.0-189.0","34X6J5FLPUK64QNW1L83M3VPBR8JQI","A1SPIAJZORHFT0","3WPCIUYH1AU470H2HRBLZRFBM3CTDN","","","<img src=""img/flower2.png"" style=""width:200px;border:14px solid red;"">","null","","","","","",""
"293.5","","image-keyboard-response","190","243611","0.0-190.0","34X6J5FLPUK64QNW1L83M3VPBR8JQI","A1SPIAJZORHFT0","3WPCIUYH1AU470H2HRBLZRFBM3CTDN","","","img/flower2.png","74","294.30000000447035","1","0","1","0.8,0.8,0.2,0.2,0.8,0.8,0.8,0.2,0.8",""
"null","","html-keyboard-response","191","243923","0.0-191.0","34X6J5FLPUK64QNW1L83M3VPBR8JQI","A1SPIAJZORHFT0","3WPCIUYH1AU470H2HRBLZRFBM3CTDN","","","<img src=""img/flower2.png"" style=""width:200px;border:14px solid red;"">","null","","","","","",""
"1772","","image-keyboard-response","192","245696","0.0-192.0","34X6J5FLPUK64QNW1L83M3VPBR8JQI","A1SPIAJZORHFT0","3WPCIUYH1AU470H2HRBLZRFBM3CTDN","","","img/flower8.png","75","1772.9000000059605","2","0","3","0.8,0.8,0.2,0.2,0.8,0.8,0.8,0.2,0.8",""
"null","","html-keyboard-response","193","246013","0.0-193.0","34X6J5FLPUK64QNW1L83M3VPBR8JQI","A1SPIAJZORHFT0","3WPCIUYH1AU470H2HRBLZRFBM3CTDN","","","<img src=""img/flower8.png"" style=""width:200px;border:14px solid red;"">","null","","","","","",""
"3095.2999999970198","","image-keyboard-response","194","249109","0.0-194.0","34X6J5FLPUK64QNW1L83M3VPBR8JQI","A1SPIAJZORHFT0","3WPCIUYH1AU470H2HRBLZRFBM3CTDN","","","img/flower9.png","74","3096.2000000029802","1","1","2","0.8,0.8,0.2,0.2,0.8,0.8,0.8,0.2,0.8",""
"null","","html-keyboard-response","195","249426","0.0-195.0","34X6J5FLPUK64QNW1L83M3VPBR8JQI","A1SPIAJZORHFT0","3WPCIUYH1AU470H2HRBLZRFBM3CTDN","","","<img src=""img/flower9.png"" style=""width:200px; border:14px solid green;"">","null","","","","","",""
"417.79999999701977","","image-keyboard-response","196","249845","0.0-196.0","34X6J5FLPUK64QNW1L83M3VPBR8JQI","A1SPIAJZORHFT0","3WPCIUYH1AU470H2HRBLZRFBM3CTDN","","","img/flower9.png","74","418.70000000298023","1","1","2","0.8,0.8,0.2,0.2,0.8,0.8,0.8,0.2,0.8",""
"null","","html-keyboard-response","197","250159","0.0-197.0","34X6J5FLPUK64QNW1L83M3VPBR8JQI","A1SPIAJZORHFT0","3WPCIUYH1AU470H2HRBLZRFBM3CTDN","","","<img src=""img/flower9.png"" style=""width:200px; border:14px solid green;"">","null","","","","","",""
"1216.5","","image-keyboard-response","198","251377","0.0-198.0","34X6J5FLPUK64QNW1L83M3VPBR8JQI","A1SPIAJZORHFT0","3WPCIUYH1AU470H2HRBLZRFBM3CTDN","","","img/flower2.png","75","1217.5","2","1","1","0.8,0.8,0.2,0.2,0.8,0.8,0.8,0.2,0.8",""
"null","","html-keyboard-response","199","251691","0.0-199.0","34X6J5FLPUK64QNW1L83M3VPBR8JQI","A1SPIAJZORHFT0","3WPCIUYH1AU470H2HRBLZRFBM3CTDN","","","<img src=""img/flower2.png"" style=""width:200px; border:14px solid green;"">","null","","","","","",""
"897.7999999970198","","image-keyboard-response","200","252590","0.0-200.0","34X6J5FLPUK64QNW1L83M3VPBR8JQI","A1SPIAJZORHFT0","3WPCIUYH1AU470H2HRBLZRFBM3CTDN","","","img/flower8.png","76","898.7000000029802","3","1","3","0.8,0.8,0.2,0.2,0.8,0.8,0.8,0.2,0.8",""
"null","","html-keyboard-response","201","252905","0.0-201.0","34X6J5FLPUK64QNW1L83M3VPBR8JQI","A1SPIAJZORHFT0","3WPCIUYH1AU470H2HRBLZRFBM3CTDN","","","<img src=""img/flower8.png"" style=""width:200px; border:14px solid green;"">","null","","","","","",""
"280.19999999552965","","image-keyboard-response","202","253186","0.0-202.0","34X6J5FLPUK64QNW1L83M3VPBR8JQI","A1SPIAJZORHFT0","3WPCIUYH1AU470H2HRBLZRFBM3CTDN","","","img/flower8.png","76","281.30000000447035","3","1","3","0.8,0.8,0.2,0.2,0.8,0.8,0.8,0.2,0.8",""
"null","","html-keyboard-response","203","253495","0.0-203.0","34X6J5FLPUK64QNW1L83M3VPBR8JQI","A1SPIAJZORHFT0","3WPCIUYH1AU470H2HRBLZRFBM3CTDN","","","<img src=""img/flower8.png"" style=""width:200px; border:14px solid green;"">","null","","","","","",""
"833.7999999970198","","image-keyboard-response","204","254330","0.0-204.0","34X6J5FLPUK64QNW1L83M3VPBR8JQI","A1SPIAJZORHFT0","3WPCIUYH1AU470H2HRBLZRFBM3CTDN","","","img/flower9.png","74","834.8999999985099","1","0","2","0.8,0.8,0.2,0.2,0.8,0.8,0.8,0.2,0.8",""
"null","","html-keyboard-response","205","254643","0.0-205.0","34X6J5FLPUK64QNW1L83M3VPBR8JQI","A1SPIAJZORHFT0","3WPCIUYH1AU470H2HRBLZRFBM3CTDN","","","<img src=""img/flower9.png"" style=""width:200px;border:14px solid red;"">","null","","","","","",""
"953.6000000014901","","image-keyboard-response","206","255598","0.0-206.0","34X6J5FLPUK64QNW1L83M3VPBR8JQI","A1SPIAJZORHFT0","3WPCIUYH1AU470H2HRBLZRFBM3CTDN","","","img/flower2.png","75","954.7000000029802","2","0","1","0.8,0.8,0.2,0.2,0.8,0.8,0.8,0.2,0.8",""
"null","","html-keyboard-response","207","255902","0.0-207.0","34X6J5FLPUK64QNW1L83M3VPBR8JQI","A1SPIAJZORHFT0","3WPCIUYH1AU470H2HRBLZRFBM3CTDN","","","<img src=""img/flower2.png"" style=""width:200px;border:14px solid red;"">","null","","","","","",""
"1397.2000000029802","","image-keyboard-response","208","257300","0.0-208.0","34X6J5FLPUK64QNW1L83M3VPBR8JQI","A1SPIAJZORHFT0","3WPCIUYH1AU470H2HRBLZRFBM3CTDN","","","img/flower8.png","76","1398.1000000014901","3","1","3","0.8,0.8,0.2,0.2,0.8,0.8,0.8,0.2,0.8",""
"null","","html-keyboard-response","209","257607","0.0-209.0","34X6J5FLPUK64QNW1L83M3VPBR8JQI","A1SPIAJZORHFT0","3WPCIUYH1AU470H2HRBLZRFBM3CTDN","","","<img src=""img/flower8.png"" style=""width:200px; border:14px solid green;"">","null","","","","","",""
"715","","image-keyboard-response","210","258323","0.0-210.0","34X6J5FLPUK64QNW1L83M3VPBR8JQI","A1SPIAJZORHFT0","3WPCIUYH1AU470H2HRBLZRFBM3CTDN","","","img/flower9.png","74","715.8999999985099","1","1","2","0.8,0.8,0.2,0.2,0.8,0.8,0.8,0.2,0.8",""
"null","","html-keyboard-response","211","258633","0.0-211.0","34X6J5FLPUK64QNW1L83M3VPBR8JQI","A1SPIAJZORHFT0","3WPCIUYH1AU470H2HRBLZRFBM3CTDN","","","<img src=""img/flower9.png"" style=""width:200px; border:14px solid green;"">","null","","","","","",""
"531","","image-keyboard-response","212","259165","0.0-212.0","34X6J5FLPUK64QNW1L83M3VPBR8JQI","A1SPIAJZORHFT0","3WPCIUYH1AU470H2HRBLZRFBM3CTDN","","","img/flower2.png","75","531.7999999970198","2","1","1","0.8,0.8,0.2,0.2,0.8,0.8,0.8,0.2,0.8",""
"null","","html-keyboard-response","213","259477","0.0-213.0","34X6J5FLPUK64QNW1L83M3VPBR8JQI","A1SPIAJZORHFT0","3WPCIUYH1AU470H2HRBLZRFBM3CTDN","","","<img src=""img/flower2.png"" style=""width:200px; border:14px solid green;"">","null","","","","","",""
"487.5","","image-keyboard-response","214","259965","0.0-214.0","34X6J5FLPUK64QNW1L83M3VPBR8JQI","A1SPIAJZORHFT0","3WPCIUYH1AU470H2HRBLZRFBM3CTDN","","","img/flower2.png","75","488.3999999985099","2","1","1","0.8,0.8,0.2,0.2,0.8,0.8,0.8,0.2,0.8",""
"null","","html-keyboard-response","215","260276","0.0-215.0","34X6J5FLPUK64QNW1L83M3VPBR8JQI","A1SPIAJZORHFT0","3WPCIUYH1AU470H2HRBLZRFBM3CTDN","","","<img src=""img/flower2.png"" style=""width:200px; border:14px solid green;"">","null","","","","","",""
"828.3999999985099","","image-keyboard-response","216","261106","0.0-216.0","34X6J5FLPUK64QNW1L83M3VPBR8JQI","A1SPIAJZORHFT0","3WPCIUYH1AU470H2HRBLZRFBM3CTDN","","","img/flower8.png","76","829.3000000044703","3","1","3","0.8,0.8,0.2,0.2,0.8,0.8,0.8,0.2,0.8",""
"null","","html-keyboard-response","217","261411","0.0-217.0","34X6J5FLPUK64QNW1L83M3VPBR8JQI","A1SPIAJZORHFT0","3WPCIUYH1AU470H2HRBLZRFBM3CTDN","","","<img src=""img/flower8.png"" style=""width:200px; border:14px solid green;"">","null","","","","","",""
"756","","image-keyboard-response","218","262168","0.0-218.0","34X6J5FLPUK64QNW1L83M3VPBR8JQI","A1SPIAJZORHFT0","3WPCIUYH1AU470H2HRBLZRFBM3CTDN","","","img/flower9.png","74","756.8000000044703","1","0","2","0.8,0.8,0.2,0.2,0.8,0.8,0.8,0.2,0.8",""
"null","","html-keyboard-response","219","262481","0.0-219.0","34X6J5FLPUK64QNW1L83M3VPBR8JQI","A1SPIAJZORHFT0","3WPCIUYH1AU470H2HRBLZRFBM3CTDN","","","<img src=""img/flower9.png"" style=""width:200px;border:14px solid red;"">","null","","","","","",""
"1730.8999999985099","","image-keyboard-response","220","264213","0.0-220.0","34X6J5FLPUK64QNW1L83M3VPBR8JQI","A1SPIAJZORHFT0","3WPCIUYH1AU470H2HRBLZRFBM3CTDN","","","img/flower8.png","76","1731.7000000029802","3","1","3","0.8,0.8,0.2,0.2,0.8,0.8,0.8,0.2,0.8",""
"null","","html-keyboard-response","221","264522","0.0-221.0","34X6J5FLPUK64QNW1L83M3VPBR8JQI","A1SPIAJZORHFT0","3WPCIUYH1AU470H2HRBLZRFBM3CTDN","","","<img src=""img/flower8.png"" style=""width:200px; border:14px solid green;"">","null","","","","","",""
"726.7999999970198","","image-keyboard-response","222","265250","0.0-222.0","34X6J5FLPUK64QNW1L83M3VPBR8JQI","A1SPIAJZORHFT0","3WPCIUYH1AU470H2HRBLZRFBM3CTDN","","","img/flower9.png","74","727.8000000044703","1","0","2","0.8,0.8,0.2,0.2,0.8,0.8,0.8,0.2,0.8",""
"null","","html-keyboard-response","223","265555","0.0-223.0","34X6J5FLPUK64QNW1L83M3VPBR8JQI","A1SPIAJZORHFT0","3WPCIUYH1AU470H2HRBLZRFBM3CTDN","","","<img src=""img/flower9.png"" style=""width:200px;border:14px solid red;"">","null","","","","","",""
"932.7999999970198","","image-keyboard-response","224","266489","0.0-224.0","34X6J5FLPUK64QNW1L83M3VPBR8JQI","A1SPIAJZORHFT0","3WPCIUYH1AU470H2HRBLZRFBM3CTDN","","","img/flower8.png","76","933.5","3","1","3","0.8,0.8,0.2,0.2,0.8,0.8,0.8,0.2,0.8",""
"null","","html-keyboard-response","225","266801","0.0-225.0","34X6J5FLPUK64QNW1L83M3VPBR8JQI","A1SPIAJZORHFT0","3WPCIUYH1AU470H2HRBLZRFBM3CTDN","","","<img src=""img/flower8.png"" style=""width:200px; border:14px solid green;"">","null","","","","","",""
"338.30000000447035","","image-keyboard-response","226","267140","0.0-226.0","34X6J5FLPUK64QNW1L83M3VPBR8JQI","A1SPIAJZORHFT0","3WPCIUYH1AU470H2HRBLZRFBM3CTDN","","","img/flower8.png","76","339.20000000298023","3","1","3","0.8,0.8,0.2,0.2,0.8,0.8,0.8,0.2,0.8",""
"null","","html-keyboard-response","227","267455","0.0-227.0","34X6J5FLPUK64QNW1L83M3VPBR8JQI","A1SPIAJZORHFT0","3WPCIUYH1AU470H2HRBLZRFBM3CTDN","","","<img src=""img/flower8.png"" style=""width:200px; border:14px solid green;"">","null","","","","","",""
"272.1000000014901","","image-keyboard-response","228","267728","0.0-228.0","34X6J5FLPUK64QNW1L83M3VPBR8JQI","A1SPIAJZORHFT0","3WPCIUYH1AU470H2HRBLZRFBM3CTDN","","","img/flower8.png","76","273.1000000014901","3","1","3","0.8,0.8,0.2,0.2,0.8,0.8,0.8,0.2,0.8",""
"null","","html-keyboard-response","229","268030","0.0-229.0","34X6J5FLPUK64QNW1L83M3VPBR8JQI","A1SPIAJZORHFT0","3WPCIUYH1AU470H2HRBLZRFBM3CTDN","","","<img src=""img/flower8.png"" style=""width:200px; border:14px solid green;"">","null","","","","","",""
"711.0999999940395","","image-keyboard-response","230","268742","0.0-230.0","34X6J5FLPUK64QNW1L83M3VPBR8JQI","A1SPIAJZORHFT0","3WPCIUYH1AU470H2HRBLZRFBM3CTDN","","","img/flower2.png","75","711.8999999985099","2","0","1","0.8,0.8,0.2,0.2,0.8,0.8,0.8,0.2,0.8",""
"null","","html-keyboard-response","231","269052","0.0-231.0","34X6J5FLPUK64QNW1L83M3VPBR8JQI","A1SPIAJZORHFT0","3WPCIUYH1AU470H2HRBLZRFBM3CTDN","","","<img src=""img/flower2.png"" style=""width:200px;border:14px solid red;"">","null","","","","","",""
"769.2000000029802","","image-keyboard-response","232","269823","0.0-232.0","34X6J5FLPUK64QNW1L83M3VPBR8JQI","A1SPIAJZORHFT0","3WPCIUYH1AU470H2HRBLZRFBM3CTDN","","","img/flower8.png","76","769.9000000059605","3","1","3","0.8,0.8,0.2,0.2,0.8,0.8,0.8,0.2,0.8",""
"null","","html-keyboard-response","233","270139","0.0-233.0","34X6J5FLPUK64QNW1L83M3VPBR8JQI","A1SPIAJZORHFT0","3WPCIUYH1AU470H2HRBLZRFBM3CTDN","","","<img src=""img/flower8.png"" style=""width:200px; border:14px solid green;"">","null","","","","","",""
"559.7999999970198","","image-keyboard-response","234","270700","0.0-234.0","34X6J5FLPUK64QNW1L83M3VPBR8JQI","A1SPIAJZORHFT0","3WPCIUYH1AU470H2HRBLZRFBM3CTDN","","","img/flower2.png","75","560.6000000014901","2","1","1","0.8,0.8,0.2,0.2,0.8,0.8,0.8,0.2,0.8",""
"null","","html-keyboard-response","235","271001","0.0-235.0","34X6J5FLPUK64QNW1L83M3VPBR8JQI","A1SPIAJZORHFT0","3WPCIUYH1AU470H2HRBLZRFBM3CTDN","","","<img src=""img/flower2.png"" style=""width:200px; border:14px solid green;"">","null","","","","","",""
"751.6000000014901","","image-keyboard-response","236","271754","0.0-236.0","34X6J5FLPUK64QNW1L83M3VPBR8JQI","A1SPIAJZORHFT0","3WPCIUYH1AU470H2HRBLZRFBM3CTDN","","","img/flower9.png","74","752.3999999985099","1","0","2","0.8,0.8,0.2,0.2,0.8,0.8,0.8,0.2,0.8",""
"null","","html-keyboard-response","237","272055","0.0-237.0","34X6J5FLPUK64QNW1L83M3VPBR8JQI","A1SPIAJZORHFT0","3WPCIUYH1AU470H2HRBLZRFBM3CTDN","","","<img src=""img/flower9.png"" style=""width:200px;border:14px solid red;"">","null","","","","","",""
"288.8999999985099","","image-keyboard-response","238","272345","0.0-238.0","34X6J5FLPUK64QNW1L83M3VPBR8JQI","A1SPIAJZORHFT0","3WPCIUYH1AU470H2HRBLZRFBM3CTDN","","","img/flower9.png","74","290","1","0","2","0.8,0.8,0.2,0.2,0.8,0.8,0.8,0.2,0.8",""
"null","","html-keyboard-response","239","272662","0.0-239.0","34X6J5FLPUK64QNW1L83M3VPBR8JQI","A1SPIAJZORHFT0","3WPCIUYH1AU470H2HRBLZRFBM3CTDN","","","<img src=""img/flower9.png"" style=""width:200px;border:14px solid red;"">","null","","","","","",""
"895.2999999970198","","image-keyboard-response","240","273559","0.0-240.0","34X6J5FLPUK64QNW1L83M3VPBR8JQI","A1SPIAJZORHFT0","3WPCIUYH1AU470H2HRBLZRFBM3CTDN","","","img/flower2.png","76","896.4000000059605","3","0","1","0.8,0.8,0.2,0.2,0.8,0.8,0.8,0.2,0.8",""
"null","","html-keyboard-response","241","273873","0.0-241.0","34X6J5FLPUK64QNW1L83M3VPBR8JQI","A1SPIAJZORHFT0","3WPCIUYH1AU470H2HRBLZRFBM3CTDN","","","<img src=""img/flower2.png"" style=""width:200px;border:14px solid red;"">","null","","","","","",""
"2300.5","","image-keyboard-response","242","276175","0.0-242.0","34X6J5FLPUK64QNW1L83M3VPBR8JQI","A1SPIAJZORHFT0","3WPCIUYH1AU470H2HRBLZRFBM3CTDN","","","img/flower9.png","75","2301.4000000059605","2","1","2","0.8,0.8,0.2,0.2,0.8,0.8,0.8,0.2,0.8",""
"null","","html-keyboard-response","243","276489","0.0-243.0","34X6J5FLPUK64QNW1L83M3VPBR8JQI","A1SPIAJZORHFT0","3WPCIUYH1AU470H2HRBLZRFBM3CTDN","","","<img src=""img/flower9.png"" style=""width:200px; border:14px solid green;"">","null","","","","","",""
"671.6000000014901","","image-keyboard-response","244","277162","0.0-244.0","34X6J5FLPUK64QNW1L83M3VPBR8JQI","A1SPIAJZORHFT0","3WPCIUYH1AU470H2HRBLZRFBM3CTDN","","","img/flower2.png","74","672.5","1","1","1","0.8,0.8,0.2,0.2,0.8,0.8,0.8,0.2,0.8",""
"null","","html-keyboard-response","245","277478","0.0-245.0","34X6J5FLPUK64QNW1L83M3VPBR8JQI","A1SPIAJZORHFT0","3WPCIUYH1AU470H2HRBLZRFBM3CTDN","","","<img src=""img/flower2.png"" style=""width:200px; border:14px solid green;"">","null","","","","","",""
"699","","image-keyboard-response","246","278178","0.0-246.0","34X6J5FLPUK64QNW1L83M3VPBR8JQI","A1SPIAJZORHFT0","3WPCIUYH1AU470H2HRBLZRFBM3CTDN","","","img/flower8.png","76","699.8999999985099","3","1","3","0.8,0.8,0.2,0.2,0.8,0.8,0.8,0.2,0.8",""
"null","","html-keyboard-response","247","278480","0.0-247.0","34X6J5FLPUK64QNW1L83M3VPBR8JQI","A1SPIAJZORHFT0","3WPCIUYH1AU470H2HRBLZRFBM3CTDN","","","<img src=""img/flower8.png"" style=""width:200px; border:14px solid green;"">","null","","","","","",""
"560.1000000014901","","image-keyboard-response","248","279041","0.0-248.0","34X6J5FLPUK64QNW1L83M3VPBR8JQI","A1SPIAJZORHFT0","3WPCIUYH1AU470H2HRBLZRFBM3CTDN","","","img/flower9.png","75","561","2","1","2","0.8,0.8,0.2,0.2,0.8,0.8,0.8,0.2,0.8",""
"null","","html-keyboard-response","249","279357","0.0-249.0","34X6J5FLPUK64QNW1L83M3VPBR8JQI","A1SPIAJZORHFT0","3WPCIUYH1AU470H2HRBLZRFBM3CTDN","","","<img src=""img/flower9.png"" style=""width:200px; border:14px solid green;"">","null","","","","","",""
"566.5","","image-keyboard-response","250","279925","0.0-250.0","34X6J5FLPUK64QNW1L83M3VPBR8JQI","A1SPIAJZORHFT0","3WPCIUYH1AU470H2HRBLZRFBM3CTDN","","","img/flower2.png","74","567.5","1","1","1","0.8,0.8,0.2,0.2,0.8,0.8,0.8,0.2,0.8",""
"null","","html-keyboard-response","251","280235","0.0-251.0","34X6J5FLPUK64QNW1L83M3VPBR8JQI","A1SPIAJZORHFT0","3WPCIUYH1AU470H2HRBLZRFBM3CTDN","","","<img src=""img/flower2.png"" style=""width:200px; border:14px solid green;"">","null","","","","","",""
"631.2999999970198","","image-keyboard-response","252","280867","0.0-252.0","34X6J5FLPUK64QNW1L83M3VPBR8JQI","A1SPIAJZORHFT0","3WPCIUYH1AU470H2HRBLZRFBM3CTDN","","","img/flower8.png","76","632.2000000029802","3","0","3","0.8,0.8,0.2,0.2,0.8,0.8,0.8,0.2,0.8",""
"null","","html-keyboard-response","253","281175","0.0-253.0","34X6J5FLPUK64QNW1L83M3VPBR8JQI","A1SPIAJZORHFT0","3WPCIUYH1AU470H2HRBLZRFBM3CTDN","","","<img src=""img/flower8.png"" style=""width:200px;border:14px solid red;"">","null","","","","","",""
"973.2999999970198","","image-keyboard-response","254","282150","0.0-254.0","34X6J5FLPUK64QNW1L83M3VPBR8JQI","A1SPIAJZORHFT0","3WPCIUYH1AU470H2HRBLZRFBM3CTDN","","","img/flower9.png","75","974.4000000059605","2","1","2","0.8,0.8,0.2,0.2,0.8,0.8,0.8,0.2,0.8",""
"null","","html-keyboard-response","255","282453","0.0-255.0","34X6J5FLPUK64QNW1L83M3VPBR8JQI","A1SPIAJZORHFT0","3WPCIUYH1AU470H2HRBLZRFBM3CTDN","","","<img src=""img/flower9.png"" style=""width:200px; border:14px solid green;"">","null","","","","","",""
"252.40000000596046","","image-keyboard-response","256","282707","0.0-256.0","34X6J5FLPUK64QNW1L83M3VPBR8JQI","A1SPIAJZORHFT0","3WPCIUYH1AU470H2HRBLZRFBM3CTDN","","","img/flower9.png","75","253.39999999850988","2","1","2","0.8,0.8,0.2,0.2,0.8,0.8,0.8,0.2,0.8",""
"null","","html-keyboard-response","257","283011","0.0-257.0","34X6J5FLPUK64QNW1L83M3VPBR8JQI","A1SPIAJZORHFT0","3WPCIUYH1AU470H2HRBLZRFBM3CTDN","","","<img src=""img/flower9.png"" style=""width:200px; border:14px solid green;"">","null","","","","","",""
"463.90000000596046","","image-keyboard-response","258","283476","0.0-258.0","34X6J5FLPUK64QNW1L83M3VPBR8JQI","A1SPIAJZORHFT0","3WPCIUYH1AU470H2HRBLZRFBM3CTDN","","","img/flower2.png","74","464.79999999701977","1","1","1","0.8,0.8,0.2,0.2,0.8,0.8,0.8,0.2,0.8",""
"null","","html-keyboard-response","259","283792","0.0-259.0","34X6J5FLPUK64QNW1L83M3VPBR8JQI","A1SPIAJZORHFT0","3WPCIUYH1AU470H2HRBLZRFBM3CTDN","","","<img src=""img/flower2.png"" style=""width:200px; border:14px solid green;"">","null","","","","","",""
"686.1000000014901","","image-keyboard-response","260","284479","0.0-260.0","34X6J5FLPUK64QNW1L83M3VPBR8JQI","A1SPIAJZORHFT0","3WPCIUYH1AU470H2HRBLZRFBM3CTDN","","","img/flower8.png","76","687","3","1","3","0.8,0.8,0.2,0.2,0.8,0.8,0.8,0.2,0.8",""
"null","","html-keyboard-response","261","284782","0.0-261.0","34X6J5FLPUK64QNW1L83M3VPBR8JQI","A1SPIAJZORHFT0","3WPCIUYH1AU470H2HRBLZRFBM3CTDN","","","<img src=""img/flower8.png"" style=""width:200px; border:14px solid green;"">","null","","","","","",""
"282.19999999552965","","image-keyboard-response","262","285065","0.0-262.0","34X6J5FLPUK64QNW1L83M3VPBR8JQI","A1SPIAJZORHFT0","3WPCIUYH1AU470H2HRBLZRFBM3CTDN","","","img/flower8.png","76","283.1000000014901","3","0","3","0.8,0.8,0.2,0.2,0.8,0.8,0.8,0.2,0.8",""
"null","","html-keyboard-response","263","285373","0.0-263.0","34X6J5FLPUK64QNW1L83M3VPBR8JQI","A1SPIAJZORHFT0","3WPCIUYH1AU470H2HRBLZRFBM3CTDN","","","<img src=""img/flower8.png"" style=""width:200px;border:14px solid red;"">","null","","","","","",""
"667.8999999985099","","image-keyboard-response","264","286042","0.0-264.0","34X6J5FLPUK64QNW1L83M3VPBR8JQI","A1SPIAJZORHFT0","3WPCIUYH1AU470H2HRBLZRFBM3CTDN","","","img/flower9.png","75","668.7999999970198","2","1","2","0.8,0.8,0.2,0.2,0.8,0.8,0.8,0.2,0.8",""
"null","","html-keyboard-response","265","286348","0.0-265.0","34X6J5FLPUK64QNW1L83M3VPBR8JQI","A1SPIAJZORHFT0","3WPCIUYH1AU470H2HRBLZRFBM3CTDN","","","<img src=""img/flower9.png"" style=""width:200px; border:14px solid green;"">","null","","","","","",""
"196","","image-keyboard-response","266","286545","0.0-266.0","34X6J5FLPUK64QNW1L83M3VPBR8JQI","A1SPIAJZORHFT0","3WPCIUYH1AU470H2HRBLZRFBM3CTDN","","","img/flower8.png","75","197","2","0","3","0.8,0.8,0.2,0.2,0.8,0.8,0.8,0.2,0.8",""
"null","","html-keyboard-response","267","286859","0.0-267.0","34X6J5FLPUK64QNW1L83M3VPBR8JQI","A1SPIAJZORHFT0","3WPCIUYH1AU470H2HRBLZRFBM3CTDN","","","<img src=""img/flower8.png"" style=""width:200px;border:14px solid red;"">","null","","","","","",""
"780.6000000014901","","image-keyboard-response","268","287641","0.0-268.0","34X6J5FLPUK64QNW1L83M3VPBR8JQI","A1SPIAJZORHFT0","3WPCIUYH1AU470H2HRBLZRFBM3CTDN","","","img/flower2.png","74","781.6999999955297","1","1","1","0.8,0.8,0.2,0.2,0.8,0.8,0.8,0.2,0.8",""
"null","","html-keyboard-response","269","287945","0.0-269.0","34X6J5FLPUK64QNW1L83M3VPBR8JQI","A1SPIAJZORHFT0","3WPCIUYH1AU470H2HRBLZRFBM3CTDN","","","<img src=""img/flower2.png"" style=""width:200px; border:14px solid green;"">","null","","","","","",""
"755.8000000044703","","image-keyboard-response","270","288702","0.0-270.0","34X6J5FLPUK64QNW1L83M3VPBR8JQI","A1SPIAJZORHFT0","3WPCIUYH1AU470H2HRBLZRFBM3CTDN","","","img/flower9.png","75","756.8999999985099","2","1","2","0.8,0.8,0.2,0.2,0.8,0.8,0.8,0.2,0.8",""
"null","","html-keyboard-response","271","289016","0.0-271.0","34X6J5FLPUK64QNW1L83M3VPBR8JQI","A1SPIAJZORHFT0","3WPCIUYH1AU470H2HRBLZRFBM3CTDN","","","<img src=""img/flower9.png"" style=""width:200px; border:14px solid green;"">","null","","","","","",""
"565.7000000029802","","image-keyboard-response","272","289583","0.0-272.0","34X6J5FLPUK64QNW1L83M3VPBR8JQI","A1SPIAJZORHFT0","3WPCIUYH1AU470H2HRBLZRFBM3CTDN","","","img/flower8.png","76","566.7999999970198","3","1","3","0.8,0.8,0.2,0.2,0.8,0.8,0.8,0.2,0.8",""
"null","","html-keyboard-response","273","289893","0.0-273.0","34X6J5FLPUK64QNW1L83M3VPBR8JQI","A1SPIAJZORHFT0","3WPCIUYH1AU470H2HRBLZRFBM3CTDN","","","<img src=""img/flower8.png"" style=""width:200px; border:14px solid green;"">","null","","","","","",""
"364","","image-keyboard-response","274","290258","0.0-274.0","34X6J5FLPUK64QNW1L83M3VPBR8JQI","A1SPIAJZORHFT0","3WPCIUYH1AU470H2HRBLZRFBM3CTDN","","","img/flower8.png","76","364.79999999701977","3","0","3","0.8,0.8,0.2,0.2,0.8,0.8,0.8,0.2,0.8",""
"null","","html-keyboard-response","275","290563","0.0-275.0","34X6J5FLPUK64QNW1L83M3VPBR8JQI","A1SPIAJZORHFT0","3WPCIUYH1AU470H2HRBLZRFBM3CTDN","","","<img src=""img/flower8.png"" style=""width:200px;border:14px solid red;"">","null","","","","","",""
"1433.1000000014901","","image-keyboard-response","276","291997","0.0-276.0","34X6J5FLPUK64QNW1L83M3VPBR8JQI","A1SPIAJZORHFT0","3WPCIUYH1AU470H2HRBLZRFBM3CTDN","","","img/flower2.png","74","1434.1000000014901","1","1","1","0.8,0.8,0.2,0.2,0.8,0.8,0.8,0.2,0.8",""
"null","","html-keyboard-response","277","292300","0.0-277.0","34X6J5FLPUK64QNW1L83M3VPBR8JQI","A1SPIAJZORHFT0","3WPCIUYH1AU470H2HRBLZRFBM3CTDN","","","<img src=""img/flower2.png"" style=""width:200px; border:14px solid green;"">","null","","","","","",""
"645.3999999985099","","image-keyboard-response","278","292947","0.0-278.0","34X6J5FLPUK64QNW1L83M3VPBR8JQI","A1SPIAJZORHFT0","3WPCIUYH1AU470H2HRBLZRFBM3CTDN","","","img/flower8.png","76","646.2000000029802","3","1","3","0.8,0.8,0.2,0.2,0.8,0.8,0.8,0.2,0.8",""
"null","","html-keyboard-response","279","293256","0.0-279.0","34X6J5FLPUK64QNW1L83M3VPBR8JQI","A1SPIAJZORHFT0","3WPCIUYH1AU470H2HRBLZRFBM3CTDN","","","<img src=""img/flower8.png"" style=""width:200px; border:14px solid green;"">","null","","","","","",""
"528.1999999955297","","image-keyboard-response","280","293786","0.0-280.0","34X6J5FLPUK64QNW1L83M3VPBR8JQI","A1SPIAJZORHFT0","3WPCIUYH1AU470H2HRBLZRFBM3CTDN","","","img/flower9.png","75","529.1000000014901","2","1","2","0.8,0.8,0.2,0.2,0.8,0.8,0.8,0.2,0.8",""
"null","","html-keyboard-response","281","294088","0.0-281.0","34X6J5FLPUK64QNW1L83M3VPBR8JQI","A1SPIAJZORHFT0","3WPCIUYH1AU470H2HRBLZRFBM3CTDN","","","<img src=""img/flower9.png"" style=""width:200px; border:14px solid green;"">","null","","","","","",""
"385.8999999985099","","image-keyboard-response","282","294475","0.0-282.0","34X6J5FLPUK64QNW1L83M3VPBR8JQI","A1SPIAJZORHFT0","3WPCIUYH1AU470H2HRBLZRFBM3CTDN","","","img/flower9.png","75","386.6000000014901","2","1","2","0.8,0.8,0.2,0.2,0.8,0.8,0.8,0.2,0.8",""
"null","","html-keyboard-response","283","294790","0.0-283.0","34X6J5FLPUK64QNW1L83M3VPBR8JQI","A1SPIAJZORHFT0","3WPCIUYH1AU470H2HRBLZRFBM3CTDN","","","<img src=""img/flower9.png"" style=""width:200px; border:14px solid green;"">","null","","","","","",""
"268.19999999552965","","image-keyboard-response","284","295059","0.0-284.0","34X6J5FLPUK64QNW1L83M3VPBR8JQI","A1SPIAJZORHFT0","3WPCIUYH1AU470H2HRBLZRFBM3CTDN","","","img/flower9.png","75","269","2","1","2","0.8,0.8,0.2,0.2,0.8,0.8,0.8,0.2,0.8",""
"null","","html-keyboard-response","285","295364","0.0-285.0","34X6J5FLPUK64QNW1L83M3VPBR8JQI","A1SPIAJZORHFT0","3WPCIUYH1AU470H2HRBLZRFBM3CTDN","","","<img src=""img/flower9.png"" style=""width:200px; border:14px solid green;"">","null","","","","","",""
"642","","image-keyboard-response","286","296007","0.0-286.0","34X6J5FLPUK64QNW1L83M3VPBR8JQI","A1SPIAJZORHFT0","3WPCIUYH1AU470H2HRBLZRFBM3CTDN","","","img/flower8.png","76","642.7999999970198","3","1","3","0.8,0.8,0.2,0.2,0.8,0.8,0.8,0.2,0.8",""
"null","","html-keyboard-response","287","296322","0.0-287.0","34X6J5FLPUK64QNW1L83M3VPBR8JQI","A1SPIAJZORHFT0","3WPCIUYH1AU470H2HRBLZRFBM3CTDN","","","<img src=""img/flower8.png"" style=""width:200px; border:14px solid green;"">","null","","","","","",""
"1283.5","","image-keyboard-response","288","297607","0.0-288.0","34X6J5FLPUK64QNW1L83M3VPBR8JQI","A1SPIAJZORHFT0","3WPCIUYH1AU470H2HRBLZRFBM3CTDN","","","img/flower2.png","74","1284.7000000029802","1","0","1","0.8,0.8,0.2,0.2,0.8,0.8,0.8,0.2,0.8",""
"null","","html-keyboard-response","289","297916","0.0-289.0","34X6J5FLPUK64QNW1L83M3VPBR8JQI","A1SPIAJZORHFT0","3WPCIUYH1AU470H2HRBLZRFBM3CTDN","","","<img src=""img/flower2.png"" style=""width:200px;border:14px solid red;"">","null","","","","","",""
"1521.6000000014901","","image-keyboard-response","290","299439","0.0-290.0","34X6J5FLPUK64QNW1L83M3VPBR8JQI","A1SPIAJZORHFT0","3WPCIUYH1AU470H2HRBLZRFBM3CTDN","","","img/flower8.png","76","1522.7000000029802","3","1","3","0.8,0.8,0.2,0.2,0.8,0.8,0.8,0.2,0.8",""
"null","","html-keyboard-response","291","299750","0.0-291.0","34X6J5FLPUK64QNW1L83M3VPBR8JQI","A1SPIAJZORHFT0","3WPCIUYH1AU470H2HRBLZRFBM3CTDN","","","<img src=""img/flower8.png"" style=""width:200px; border:14px solid green;"">","null","","","","","",""
"643.1000000014901","","image-keyboard-response","292","300394","0.0-292.0","34X6J5FLPUK64QNW1L83M3VPBR8JQI","A1SPIAJZORHFT0","3WPCIUYH1AU470H2HRBLZRFBM3CTDN","","","img/flower2.png","75","644","2","0","1","0.8,0.8,0.2,0.2,0.8,0.8,0.8,0.2,0.8",""
"null","","html-keyboard-response","293","300706","0.0-293.0","34X6J5FLPUK64QNW1L83M3VPBR8JQI","A1SPIAJZORHFT0","3WPCIUYH1AU470H2HRBLZRFBM3CTDN","","","<img src=""img/flower2.png"" style=""width:200px;border:14px solid red;"">","null","","","","","",""
"586.2999999970198","","image-keyboard-response","294","301294","0.0-294.0","34X6J5FLPUK64QNW1L83M3VPBR8JQI","A1SPIAJZORHFT0","3WPCIUYH1AU470H2HRBLZRFBM3CTDN","","","img/flower2.png","74","587.3000000044703","1","1","1","0.8,0.8,0.2,0.2,0.8,0.8,0.8,0.2,0.8",""
"null","","html-keyboard-response","295","301599","0.0-295.0","34X6J5FLPUK64QNW1L83M3VPBR8JQI","A1SPIAJZORHFT0","3WPCIUYH1AU470H2HRBLZRFBM3CTDN","","","<img src=""img/flower2.png"" style=""width:200px; border:14px solid green;"">","null","","","","","",""
"278.1000000014901","","image-keyboard-response","296","301879","0.0-296.0","34X6J5FLPUK64QNW1L83M3VPBR8JQI","A1SPIAJZORHFT0","3WPCIUYH1AU470H2HRBLZRFBM3CTDN","","","img/flower2.png","74","279","1","1","1","0.8,0.8,0.2,0.2,0.8,0.8,0.8,0.2,0.8",""
"null","","html-keyboard-response","297","302190","0.0-297.0","34X6J5FLPUK64QNW1L83M3VPBR8JQI","A1SPIAJZORHFT0","3WPCIUYH1AU470H2HRBLZRFBM3CTDN","","","<img src=""img/flower2.png"" style=""width:200px; border:14px solid green;"">","null","","","","","",""
"626.3999999985099","","image-keyboard-response","298","302818","0.0-298.0","34X6J5FLPUK64QNW1L83M3VPBR8JQI","A1SPIAJZORHFT0","3WPCIUYH1AU470H2HRBLZRFBM3CTDN","","","img/flower8.png","76","627.3000000044703","3","1","3","0.8,0.8,0.2,0.2,0.8,0.8,0.8,0.2,0.8",""
"null","","html-keyboard-response","299","303133","0.0-299.0","34X6J5FLPUK64QNW1L83M3VPBR8JQI","A1SPIAJZORHFT0","3WPCIUYH1AU470H2HRBLZRFBM3CTDN","","","<img src=""img/flower8.png"" style=""width:200px; border:14px solid green;"">","null","","","","","",""
"526","","image-keyboard-response","300","303660","0.0-300.0","34X6J5FLPUK64QNW1L83M3VPBR8JQI","A1SPIAJZORHFT0","3WPCIUYH1AU470H2HRBLZRFBM3CTDN","","","img/flower9.png","75","527.1000000014901","2","1","2","0.8,0.8,0.2,0.2,0.8,0.8,0.8,0.2,0.8",""
"null","","html-keyboard-response","301","303963","0.0-301.0","34X6J5FLPUK64QNW1L83M3VPBR8JQI","A1SPIAJZORHFT0","3WPCIUYH1AU470H2HRBLZRFBM3CTDN","","","<img src=""img/flower9.png"" style=""width:200px; border:14px solid green;"">","null","","","","","",""
"280.29999999701977","","image-keyboard-response","302","304244","0.0-302.0","34X6J5FLPUK64QNW1L83M3VPBR8JQI","A1SPIAJZORHFT0","3WPCIUYH1AU470H2HRBLZRFBM3CTDN","","","img/flower9.png","75","281.1000000014901","2","1","2","0.8,0.8,0.2,0.2,0.8,0.8,0.8,0.2,0.8",""
"null","","html-keyboard-response","303","304552","0.0-303.0","34X6J5FLPUK64QNW1L83M3VPBR8JQI","A1SPIAJZORHFT0","3WPCIUYH1AU470H2HRBLZRFBM3CTDN","","","<img src=""img/flower9.png"" style=""width:200px; border:14px solid green;"">","null","","","","","",""
"531.7999999970198","","image-keyboard-response","304","305085","0.0-304.0","34X6J5FLPUK64QNW1L83M3VPBR8JQI","A1SPIAJZORHFT0","3WPCIUYH1AU470H2HRBLZRFBM3CTDN","","","img/flower2.png","74","532.7999999970198","1","1","1","0.8,0.8,0.2,0.2,0.8,0.8,0.8,0.2,0.8",""
"null","","html-keyboard-response","305","305393","0.0-305.0","34X6J5FLPUK64QNW1L83M3VPBR8JQI","A1SPIAJZORHFT0","3WPCIUYH1AU470H2HRBLZRFBM3CTDN","","","<img src=""img/flower2.png"" style=""width:200px; border:14px solid green;"">","null","","","","","",""
"","","html-keyboard-response","306","331897","0.0-306.0","34X6J5FLPUK64QNW1L83M3VPBR8JQI","A1SPIAJZORHFT0","3WPCIUYH1AU470H2HRBLZRFBM3CTDN","","","","","","","","","",""
"1508.7999999970198","","image-keyboard-response","307","333407","0.0-307.0","34X6J5FLPUK64QNW1L83M3VPBR8JQI","A1SPIAJZORHFT0","3WPCIUYH1AU470H2HRBLZRFBM3CTDN","","","img/flower5.png","74","1509.7999999970198","1","1","1","0.8,0.2,0.2,0.2,0.8,0.2,0.2,0.2,0.8",""
"null","","html-keyboard-response","308","333722","0.0-308.0","34X6J5FLPUK64QNW1L83M3VPBR8JQI","A1SPIAJZORHFT0","3WPCIUYH1AU470H2HRBLZRFBM3CTDN","","","<img src=""img/flower5.png"" style=""width:200px; border:14px solid green;"">","null","","","","","",""
"962.3999999985099","","image-keyboard-response","309","334685","0.0-309.0","34X6J5FLPUK64QNW1L83M3VPBR8JQI","A1SPIAJZORHFT0","3WPCIUYH1AU470H2HRBLZRFBM3CTDN","","","img/flower3.png","75","963.2000000029802","2","1","2","0.8,0.2,0.2,0.2,0.8,0.2,0.2,0.2,0.8",""
"null","","html-keyboard-response","310","334998","0.0-310.0","34X6J5FLPUK64QNW1L83M3VPBR8JQI","A1SPIAJZORHFT0","3WPCIUYH1AU470H2HRBLZRFBM3CTDN","","","<img src=""img/flower3.png"" style=""width:200px; border:14px solid green;"">","null","","","","","",""
"729.2999999970198","","image-keyboard-response","311","335729","0.0-311.0","34X6J5FLPUK64QNW1L83M3VPBR8JQI","A1SPIAJZORHFT0","3WPCIUYH1AU470H2HRBLZRFBM3CTDN","","","img/flower5.png","74","730.2000000029802","1","1","1","0.8,0.2,0.2,0.2,0.8,0.2,0.2,0.2,0.8",""
"null","","html-keyboard-response","312","336036","0.0-312.0","34X6J5FLPUK64QNW1L83M3VPBR8JQI","A1SPIAJZORHFT0","3WPCIUYH1AU470H2HRBLZRFBM3CTDN","","","<img src=""img/flower5.png"" style=""width:200px; border:14px solid green;"">","null","","","","","",""
"626.2000000029802","","image-keyboard-response","313","336664","0.0-313.0","34X6J5FLPUK64QNW1L83M3VPBR8JQI","A1SPIAJZORHFT0","3WPCIUYH1AU470H2HRBLZRFBM3CTDN","","","img/flower4.png","76","627.3000000044703","3","1","3","0.8,0.2,0.2,0.2,0.8,0.2,0.2,0.2,0.8",""
"null","","html-keyboard-response","314","336977","0.0-314.0","34X6J5FLPUK64QNW1L83M3VPBR8JQI","A1SPIAJZORHFT0","3WPCIUYH1AU470H2HRBLZRFBM3CTDN","","","<img src=""img/flower4.png"" style=""width:200px; border:14px solid green;"">","null","","","","","",""
"586.2000000029802","","image-keyboard-response","315","337565","0.0-315.0","34X6J5FLPUK64QNW1L83M3VPBR8JQI","A1SPIAJZORHFT0","3WPCIUYH1AU470H2HRBLZRFBM3CTDN","","","img/flower5.png","74","587.2000000029802","1","0","1","0.8,0.2,0.2,0.2,0.8,0.2,0.2,0.2,0.8",""
"null","","html-keyboard-response","316","337869","0.0-316.0","34X6J5FLPUK64QNW1L83M3VPBR8JQI","A1SPIAJZORHFT0","3WPCIUYH1AU470H2HRBLZRFBM3CTDN","","","<img src=""img/flower5.png"" style=""width:200px;border:14px solid red;"">","null","","","","","",""
"547.5999999940395","","image-keyboard-response","317","338417","0.0-317.0","34X6J5FLPUK64QNW1L83M3VPBR8JQI","A1SPIAJZORHFT0","3WPCIUYH1AU470H2HRBLZRFBM3CTDN","","","img/flower3.png","75","548.5","2","1","2","0.8,0.2,0.2,0.2,0.8,0.2,0.2,0.2,0.8",""
"null","","html-keyboard-response","318","338731","0.0-318.0","34X6J5FLPUK64QNW1L83M3VPBR8JQI","A1SPIAJZORHFT0","3WPCIUYH1AU470H2HRBLZRFBM3CTDN","","","<img src=""img/flower3.png"" style=""width:200px; border:14px solid green;"">","null","","","","","",""
"729.8999999985099","","image-keyboard-response","319","339462","0.0-319.0","34X6J5FLPUK64QNW1L83M3VPBR8JQI","A1SPIAJZORHFT0","3WPCIUYH1AU470H2HRBLZRFBM3CTDN","","","img/flower3.png","75","730.9000000059605","2","0","2","0.8,0.2,0.2,0.2,0.8,0.2,0.2,0.2,0.8",""
"null","","html-keyboard-response","320","339768","0.0-320.0","34X6J5FLPUK64QNW1L83M3VPBR8JQI","A1SPIAJZORHFT0","3WPCIUYH1AU470H2HRBLZRFBM3CTDN","","","<img src=""img/flower3.png"" style=""width:200px;border:14px solid red;"">","null","","","","","",""
"940.3999999985099","","image-keyboard-response","321","340709","0.0-321.0","34X6J5FLPUK64QNW1L83M3VPBR8JQI","A1SPIAJZORHFT0","3WPCIUYH1AU470H2HRBLZRFBM3CTDN","","","img/flower5.png","74","941.2000000029802","1","1","1","0.8,0.2,0.2,0.2,0.8,0.2,0.2,0.2,0.8",""
"null","","html-keyboard-response","322","341013","0.0-322.0","34X6J5FLPUK64QNW1L83M3VPBR8JQI","A1SPIAJZORHFT0","3WPCIUYH1AU470H2HRBLZRFBM3CTDN","","","<img src=""img/flower5.png"" style=""width:200px; border:14px solid green;"">","null","","","","","",""
"883.6000000014901","","image-keyboard-response","323","341898","0.0-323.0","34X6J5FLPUK64QNW1L83M3VPBR8JQI","A1SPIAJZORHFT0","3WPCIUYH1AU470H2HRBLZRFBM3CTDN","","","img/flower3.png","75","884.5","2","0","2","0.8,0.2,0.2,0.2,0.8,0.2,0.2,0.2,0.8",""
"null","","html-keyboard-response","324","342208","0.0-324.0","34X6J5FLPUK64QNW1L83M3VPBR8JQI","A1SPIAJZORHFT0","3WPCIUYH1AU470H2HRBLZRFBM3CTDN","","","<img src=""img/flower3.png"" style=""width:200px;border:14px solid red;"">","null","","","","","",""
"1670.1000000014901","","image-keyboard-response","325","343879","0.0-325.0","34X6J5FLPUK64QNW1L83M3VPBR8JQI","A1SPIAJZORHFT0","3WPCIUYH1AU470H2HRBLZRFBM3CTDN","","","img/flower4.png","76","1671.1000000014901","3","1","3","0.8,0.2,0.2,0.2,0.8,0.2,0.2,0.2,0.8",""
"null","","html-keyboard-response","326","344187","0.0-326.0","34X6J5FLPUK64QNW1L83M3VPBR8JQI","A1SPIAJZORHFT0","3WPCIUYH1AU470H2HRBLZRFBM3CTDN","","","<img src=""img/flower4.png"" style=""width:200px; border:14px solid green;"">","null","","","","","",""
"661.5","","image-keyboard-response","327","344850","0.0-327.0","34X6J5FLPUK64QNW1L83M3VPBR8JQI","A1SPIAJZORHFT0","3WPCIUYH1AU470H2HRBLZRFBM3CTDN","","","img/flower3.png","75","662.2999999970198","2","1","2","0.8,0.2,0.2,0.2,0.8,0.2,0.2,0.2,0.8",""
"null","","html-keyboard-response","328","345159","0.0-328.0","34X6J5FLPUK64QNW1L83M3VPBR8JQI","A1SPIAJZORHFT0","3WPCIUYH1AU470H2HRBLZRFBM3CTDN","","","<img src=""img/flower3.png"" style=""width:200px; border:14px solid green;"">","null","","","","","",""
"651.3999999985099","","image-keyboard-response","329","345812","0.0-329.0","34X6J5FLPUK64QNW1L83M3VPBR8JQI","A1SPIAJZORHFT0","3WPCIUYH1AU470H2HRBLZRFBM3CTDN","","","img/flower4.png","76","652.3999999985099","3","1","3","0.8,0.2,0.2,0.2,0.8,0.2,0.2,0.2,0.8",""
"null","","html-keyboard-response","330","346119","0.0-330.0","34X6J5FLPUK64QNW1L83M3VPBR8JQI","A1SPIAJZORHFT0","3WPCIUYH1AU470H2HRBLZRFBM3CTDN","","","<img src=""img/flower4.png"" style=""width:200px; border:14px solid green;"">","null","","","","","",""
"432.69999999552965","","image-keyboard-response","331","346553","0.0-331.0","34X6J5FLPUK64QNW1L83M3VPBR8JQI","A1SPIAJZORHFT0","3WPCIUYH1AU470H2HRBLZRFBM3CTDN","","","img/flower3.png","75","433.80000000447035","2","1","2","0.8,0.2,0.2,0.2,0.8,0.2,0.2,0.2,0.8",""
"null","","html-keyboard-response","332","346867","0.0-332.0","34X6J5FLPUK64QNW1L83M3VPBR8JQI","A1SPIAJZORHFT0","3WPCIUYH1AU470H2HRBLZRFBM3CTDN","","","<img src=""img/flower3.png"" style=""width:200px; border:14px solid green;"">","null","","","","","",""
"561.1000000014901","","image-keyboard-response","333","347429","0.0-333.0","34X6J5FLPUK64QNW1L83M3VPBR8JQI","A1SPIAJZORHFT0","3WPCIUYH1AU470H2HRBLZRFBM3CTDN","","","img/flower5.png","74","562.1000000014901","1","1","1","0.8,0.2,0.2,0.2,0.8,0.2,0.2,0.2,0.8",""
"null","","html-keyboard-response","334","347745","0.0-334.0","34X6J5FLPUK64QNW1L83M3VPBR8JQI","A1SPIAJZORHFT0","3WPCIUYH1AU470H2HRBLZRFBM3CTDN","","","<img src=""img/flower5.png"" style=""width:200px; border:14px solid green;"">","null","","","","","",""
"329.09999999403954","","image-keyboard-response","335","348075","0.0-335.0","34X6J5FLPUK64QNW1L83M3VPBR8JQI","A1SPIAJZORHFT0","3WPCIUYH1AU470H2HRBLZRFBM3CTDN","","","img/flower5.png","74","330.1000000014901","1","0","1","0.8,0.2,0.2,0.2,0.8,0.2,0.2,0.2,0.8",""
"null","","html-keyboard-response","336","348383","0.0-336.0","34X6J5FLPUK64QNW1L83M3VPBR8JQI","A1SPIAJZORHFT0","3WPCIUYH1AU470H2HRBLZRFBM3CTDN","","","<img src=""img/flower5.png"" style=""width:200px;border:14px solid red;"">","null","","","","","",""
"505.29999999701977","","image-keyboard-response","337","348889","0.0-337.0","34X6J5FLPUK64QNW1L83M3VPBR8JQI","A1SPIAJZORHFT0","3WPCIUYH1AU470H2HRBLZRFBM3CTDN","","","img/flower5.png","74","506.19999999552965","1","1","1","0.8,0.2,0.2,0.2,0.8,0.2,0.2,0.2,0.8",""
"null","","html-keyboard-response","338","349198","0.0-338.0","34X6J5FLPUK64QNW1L83M3VPBR8JQI","A1SPIAJZORHFT0","3WPCIUYH1AU470H2HRBLZRFBM3CTDN","","","<img src=""img/flower5.png"" style=""width:200px; border:14px solid green;"">","null","","","","","",""
"830.2000000029802","","image-keyboard-response","339","350029","0.0-339.0","34X6J5FLPUK64QNW1L83M3VPBR8JQI","A1SPIAJZORHFT0","3WPCIUYH1AU470H2HRBLZRFBM3CTDN","","","img/flower4.png","76","831.2999999970198","3","1","3","0.8,0.2,0.2,0.2,0.8,0.2,0.2,0.2,0.8",""
"null","","html-keyboard-response","340","350330","0.0-340.0","34X6J5FLPUK64QNW1L83M3VPBR8JQI","A1SPIAJZORHFT0","3WPCIUYH1AU470H2HRBLZRFBM3CTDN","","","<img src=""img/flower4.png"" style=""width:200px; border:14px solid green;"">","null","","","","","",""
"441.1000000014901","","image-keyboard-response","341","350773","0.0-341.0","34X6J5FLPUK64QNW1L83M3VPBR8JQI","A1SPIAJZORHFT0","3WPCIUYH1AU470H2HRBLZRFBM3CTDN","","","img/flower3.png","75","442.19999999552965","2","1","2","0.8,0.2,0.2,0.2,0.8,0.2,0.2,0.2,0.8",""
"null","","html-keyboard-response","342","351081","0.0-342.0","34X6J5FLPUK64QNW1L83M3VPBR8JQI","A1SPIAJZORHFT0","3WPCIUYH1AU470H2HRBLZRFBM3CTDN","","","<img src=""img/flower3.png"" style=""width:200px; border:14px solid green;"">","null","","","","","",""
"569","","image-keyboard-response","343","351651","0.0-343.0","34X6J5FLPUK64QNW1L83M3VPBR8JQI","A1SPIAJZORHFT0","3WPCIUYH1AU470H2HRBLZRFBM3CTDN","","","img/flower5.png","74","570.0999999940395","1","1","1","0.8,0.2,0.2,0.2,0.8,0.2,0.2,0.2,0.8",""
"null","","html-keyboard-response","344","351956","0.0-344.0","34X6J5FLPUK64QNW1L83M3VPBR8JQI","A1SPIAJZORHFT0","3WPCIUYH1AU470H2HRBLZRFBM3CTDN","","","<img src=""img/flower5.png"" style=""width:200px; border:14px solid green;"">","null","","","","","",""
"285.70000000298023","","image-keyboard-response","345","352243","0.0-345.0","34X6J5FLPUK64QNW1L83M3VPBR8JQI","A1SPIAJZORHFT0","3WPCIUYH1AU470H2HRBLZRFBM3CTDN","","","img/flower5.png","74","286.6000000014901","1","1","1","0.8,0.2,0.2,0.2,0.8,0.2,0.2,0.2,0.8",""
"null","","html-keyboard-response","346","352547","0.0-346.0","34X6J5FLPUK64QNW1L83M3VPBR8JQI","A1SPIAJZORHFT0","3WPCIUYH1AU470H2HRBLZRFBM3CTDN","","","<img src=""img/flower5.png"" style=""width:200px; border:14px solid green;"">","null","","","","","",""
"270","","image-keyboard-response","347","352818","0.0-347.0","34X6J5FLPUK64QNW1L83M3VPBR8JQI","A1SPIAJZORHFT0","3WPCIUYH1AU470H2HRBLZRFBM3CTDN","","","img/flower5.png","74","270.69999999552965","1","0","1","0.8,0.2,0.2,0.2,0.8,0.2,0.2,0.2,0.8",""
"null","","html-keyboard-response","348","353121","0.0-348.0","34X6J5FLPUK64QNW1L83M3VPBR8JQI","A1SPIAJZORHFT0","3WPCIUYH1AU470H2HRBLZRFBM3CTDN","","","<img src=""img/flower5.png"" style=""width:200px;border:14px solid red;"">","null","","","","","",""
"628.7999999970198","","image-keyboard-response","349","353751","0.0-349.0","34X6J5FLPUK64QNW1L83M3VPBR8JQI","A1SPIAJZORHFT0","3WPCIUYH1AU470H2HRBLZRFBM3CTDN","","","img/flower3.png","75","629.8000000044703","2","0","2","0.8,0.2,0.2,0.2,0.8,0.2,0.2,0.2,0.8",""
"null","","html-keyboard-response","350","354063","0.0-350.0","34X6J5FLPUK64QNW1L83M3VPBR8JQI","A1SPIAJZORHFT0","3WPCIUYH1AU470H2HRBLZRFBM3CTDN","","","<img src=""img/flower3.png"" style=""width:200px;border:14px solid red;"">","null","","","","","",""
"701.5","","image-keyboard-response","351","354766","0.0-351.0","34X6J5FLPUK64QNW1L83M3VPBR8JQI","A1SPIAJZORHFT0","3WPCIUYH1AU470H2HRBLZRFBM3CTDN","","","img/flower4.png","76","702.6000000014901","3","1","3","0.8,0.2,0.2,0.2,0.8,0.2,0.2,0.2,0.8",""
"null","","html-keyboard-response","352","355068","0.0-352.0","34X6J5FLPUK64QNW1L83M3VPBR8JQI","A1SPIAJZORHFT0","3WPCIUYH1AU470H2HRBLZRFBM3CTDN","","","<img src=""img/flower4.png"" style=""width:200px; border:14px solid green;"">","null","","","","","",""
"280.8999999985099","","image-keyboard-response","353","355350","0.0-353.0","34X6J5FLPUK64QNW1L83M3VPBR8JQI","A1SPIAJZORHFT0","3WPCIUYH1AU470H2HRBLZRFBM3CTDN","","","img/flower4.png","76","281.79999999701977","3","1","3","0.8,0.2,0.2,0.2,0.8,0.2,0.2,0.2,0.8",""
"null","","html-keyboard-response","354","355659","0.0-354.0","34X6J5FLPUK64QNW1L83M3VPBR8JQI","A1SPIAJZORHFT0","3WPCIUYH1AU470H2HRBLZRFBM3CTDN","","","<img src=""img/flower4.png"" style=""width:200px; border:14px solid green;"">","null","","","","","",""
"240.19999999552965","","image-keyboard-response","355","355900","0.0-355.0","34X6J5FLPUK64QNW1L83M3VPBR8JQI","A1SPIAJZORHFT0","3WPCIUYH1AU470H2HRBLZRFBM3CTDN","","","img/flower4.png","76","241.10000000149012","3","1","3","0.8,0.2,0.2,0.2,0.8,0.2,0.2,0.2,0.8",""
"null","","html-keyboard-response","356","356216","0.0-356.0","34X6J5FLPUK64QNW1L83M3VPBR8JQI","A1SPIAJZORHFT0","3WPCIUYH1AU470H2HRBLZRFBM3CTDN","","","<img src=""img/flower4.png"" style=""width:200px; border:14px solid green;"">","null","","","","","",""
"279.29999999701977","","image-keyboard-response","357","356496","0.0-357.0","34X6J5FLPUK64QNW1L83M3VPBR8JQI","A1SPIAJZORHFT0","3WPCIUYH1AU470H2HRBLZRFBM3CTDN","","","img/flower4.png","76","280.1000000014901","3","1","3","0.8,0.2,0.2,0.2,0.8,0.2,0.2,0.2,0.8",""
"null","","html-keyboard-response","358","356807","0.0-358.0","34X6J5FLPUK64QNW1L83M3VPBR8JQI","A1SPIAJZORHFT0","3WPCIUYH1AU470H2HRBLZRFBM3CTDN","","","<img src=""img/flower4.png"" style=""width:200px; border:14px solid green;"">","null","","","","","",""
"619.4000000059605","","image-keyboard-response","359","357427","0.0-359.0","34X6J5FLPUK64QNW1L83M3VPBR8JQI","A1SPIAJZORHFT0","3WPCIUYH1AU470H2HRBLZRFBM3CTDN","","","img/flower5.png","74","620.2999999970198","1","0","1","0.8,0.2,0.2,0.2,0.8,0.2,0.2,0.2,0.8",""
"null","","html-keyboard-response","360","357731","0.0-360.0","34X6J5FLPUK64QNW1L83M3VPBR8JQI","A1SPIAJZORHFT0","3WPCIUYH1AU470H2HRBLZRFBM3CTDN","","","<img src=""img/flower5.png"" style=""width:200px;border:14px solid red;"">","null","","","","","",""
"513.5","","image-keyboard-response","361","358246","0.0-361.0","34X6J5FLPUK64QNW1L83M3VPBR8JQI","A1SPIAJZORHFT0","3WPCIUYH1AU470H2HRBLZRFBM3CTDN","","","img/flower5.png","74","514.7000000029802","1","1","1","0.8,0.2,0.2,0.2,0.8,0.2,0.2,0.2,0.8",""
"null","","html-keyboard-response","362","358561","0.0-362.0","34X6J5FLPUK64QNW1L83M3VPBR8JQI","A1SPIAJZORHFT0","3WPCIUYH1AU470H2HRBLZRFBM3CTDN","","","<img src=""img/flower5.png"" style=""width:200px; border:14px solid green;"">","null","","","","","",""
"262.6000000014901","","image-keyboard-response","363","358824","0.0-363.0","34X6J5FLPUK64QNW1L83M3VPBR8JQI","A1SPIAJZORHFT0","3WPCIUYH1AU470H2HRBLZRFBM3CTDN","","","img/flower5.png","74","263.3999999985099","1","1","1","0.8,0.2,0.2,0.2,0.8,0.2,0.2,0.2,0.8",""
"null","","html-keyboard-response","364","359133","0.0-364.0","34X6J5FLPUK64QNW1L83M3VPBR8JQI","A1SPIAJZORHFT0","3WPCIUYH1AU470H2HRBLZRFBM3CTDN","","","<img src=""img/flower5.png"" style=""width:200px; border:14px solid green;"">","null","","","","","",""
"445.1000000014901","","image-keyboard-response","365","359579","0.0-365.0","34X6J5FLPUK64QNW1L83M3VPBR8JQI","A1SPIAJZORHFT0","3WPCIUYH1AU470H2HRBLZRFBM3CTDN","","","img/flower4.png","75","446.09999999403954","2","0","3","0.8,0.2,0.2,0.2,0.8,0.2,0.2,0.2,0.8",""
"null","","html-keyboard-response","366","359885","0.0-366.0","34X6J5FLPUK64QNW1L83M3VPBR8JQI","A1SPIAJZORHFT0","3WPCIUYH1AU470H2HRBLZRFBM3CTDN","","","<img src=""img/flower4.png"" style=""width:200px;border:14px solid red;"">","null","","","","","",""
"304.8999999985099","","image-keyboard-response","367","360191","0.0-367.0","34X6J5FLPUK64QNW1L83M3VPBR8JQI","A1SPIAJZORHFT0","3WPCIUYH1AU470H2HRBLZRFBM3CTDN","","","img/flower4.png","76","305.80000000447035","3","1","3","0.8,0.2,0.2,0.2,0.8,0.2,0.2,0.2,0.8",""
"null","","html-keyboard-response","368","360507","0.0-368.0","34X6J5FLPUK64QNW1L83M3VPBR8JQI","A1SPIAJZORHFT0","3WPCIUYH1AU470H2HRBLZRFBM3CTDN","","","<img src=""img/flower4.png"" style=""width:200px; border:14px solid green;"">","null","","","","","",""
"169.60000000149012","","image-keyboard-response","369","360678","0.0-369.0","34X6J5FLPUK64QNW1L83M3VPBR8JQI","A1SPIAJZORHFT0","3WPCIUYH1AU470H2HRBLZRFBM3CTDN","","","img/flower5.png","76","170.5","3","0","1","0.8,0.2,0.2,0.2,0.8,0.2,0.2,0.2,0.8",""
"null","","html-keyboard-response","370","360985","0.0-370.0","34X6J5FLPUK64QNW1L83M3VPBR8JQI","A1SPIAJZORHFT0","3WPCIUYH1AU470H2HRBLZRFBM3CTDN","","","<img src=""img/flower5.png"" style=""width:200px;border:14px solid red;"">","null","","","","","",""
"906.7000000029802","","image-keyboard-response","371","361893","0.0-371.0","34X6J5FLPUK64QNW1L83M3VPBR8JQI","A1SPIAJZORHFT0","3WPCIUYH1AU470H2HRBLZRFBM3CTDN","","","img/flower3.png","75","907.7999999970198","2","1","2","0.8,0.2,0.2,0.2,0.8,0.2,0.2,0.2,0.8",""
"null","","html-keyboard-response","372","362198","0.0-372.0","34X6J5FLPUK64QNW1L83M3VPBR8JQI","A1SPIAJZORHFT0","3WPCIUYH1AU470H2HRBLZRFBM3CTDN","","","<img src=""img/flower3.png"" style=""width:200px; border:14px solid green;"">","null","","","","","",""
"1290.2999999970198","","image-keyboard-response","373","363489","0.0-373.0","34X6J5FLPUK64QNW1L83M3VPBR8JQI","A1SPIAJZORHFT0","3WPCIUYH1AU470H2HRBLZRFBM3CTDN","","","img/flower5.png","74","1291.3999999985099","1","1","1","0.8,0.2,0.2,0.2,0.8,0.2,0.2,0.2,0.8",""
"null","","html-keyboard-response","374","363794","0.0-374.0","34X6J5FLPUK64QNW1L83M3VPBR8JQI","A1SPIAJZORHFT0","3WPCIUYH1AU470H2HRBLZRFBM3CTDN","","","<img src=""img/flower5.png"" style=""width:200px; border:14px solid green;"">","null","","","","","",""
"547.0999999940395","","image-keyboard-response","375","364342","0.0-375.0","34X6J5FLPUK64QNW1L83M3VPBR8JQI","A1SPIAJZORHFT0","3WPCIUYH1AU470H2HRBLZRFBM3CTDN","","","img/flower3.png","75","548","2","1","2","0.8,0.2,0.2,0.2,0.8,0.2,0.2,0.2,0.8",""
"null","","html-keyboard-response","376","364651","0.0-376.0","34X6J5FLPUK64QNW1L83M3VPBR8JQI","A1SPIAJZORHFT0","3WPCIUYH1AU470H2HRBLZRFBM3CTDN","","","<img src=""img/flower3.png"" style=""width:200px; border:14px solid green;"">","null","","","","","",""
"299.19999999552965","","image-keyboard-response","377","364951","0.0-377.0","34X6J5FLPUK64QNW1L83M3VPBR8JQI","A1SPIAJZORHFT0","3WPCIUYH1AU470H2HRBLZRFBM3CTDN","","","img/flower3.png","75","300","2","0","2","0.8,0.2,0.2,0.2,0.8,0.2,0.2,0.2,0.8",""
"null","","html-keyboard-response","378","365267","0.0-378.0","34X6J5FLPUK64QNW1L83M3VPBR8JQI","A1SPIAJZORHFT0","3WPCIUYH1AU470H2HRBLZRFBM3CTDN","","","<img src=""img/flower3.png"" style=""width:200px;border:14px solid red;"">","null","","","","","",""
"276","","image-keyboard-response","379","365544","0.0-379.0","34X6J5FLPUK64QNW1L83M3VPBR8JQI","A1SPIAJZORHFT0","3WPCIUYH1AU470H2HRBLZRFBM3CTDN","","","img/flower3.png","75","276.8999999985099","2","1","2","0.8,0.2,0.2,0.2,0.8,0.2,0.2,0.2,0.8",""
"null","","html-keyboard-response","380","365857","0.0-380.0","34X6J5FLPUK64QNW1L83M3VPBR8JQI","A1SPIAJZORHFT0","3WPCIUYH1AU470H2HRBLZRFBM3CTDN","","","<img src=""img/flower3.png"" style=""width:200px; border:14px solid green;"">","null","","","","","",""
"416.1000000014901","","image-keyboard-response","381","366274","0.0-381.0","34X6J5FLPUK64QNW1L83M3VPBR8JQI","A1SPIAJZORHFT0","3WPCIUYH1AU470H2HRBLZRFBM3CTDN","","","img/flower3.png","75","417","2","1","2","0.8,0.2,0.2,0.2,0.8,0.2,0.2,0.2,0.8",""
"null","","html-keyboard-response","382","366591","0.0-382.0","34X6J5FLPUK64QNW1L83M3VPBR8JQI","A1SPIAJZORHFT0","3WPCIUYH1AU470H2HRBLZRFBM3CTDN","","","<img src=""img/flower3.png"" style=""width:200px; border:14px solid green;"">","null","","","","","",""
"311.20000000298023","","image-keyboard-response","383","366903","0.0-383.0","34X6J5FLPUK64QNW1L83M3VPBR8JQI","A1SPIAJZORHFT0","3WPCIUYH1AU470H2HRBLZRFBM3CTDN","","","img/flower3.png","75","312.09999999403954","2","1","2","0.8,0.2,0.2,0.2,0.8,0.2,0.2,0.2,0.8",""
"null","","html-keyboard-response","384","367211","0.0-384.0","34X6J5FLPUK64QNW1L83M3VPBR8JQI","A1SPIAJZORHFT0","3WPCIUYH1AU470H2HRBLZRFBM3CTDN","","","<img src=""img/flower3.png"" style=""width:200px; border:14px solid green;"">","null","","","","","",""
"987","","image-keyboard-response","385","368199","0.0-385.0","34X6J5FLPUK64QNW1L83M3VPBR8JQI","A1SPIAJZORHFT0","3WPCIUYH1AU470H2HRBLZRFBM3CTDN","","","img/flower5.png","74","987.8999999985099","1","1","1","0.8,0.2,0.2,0.2,0.8,0.2,0.2,0.2,0.8",""
"null","","html-keyboard-response","386","368504","0.0-386.0","34X6J5FLPUK64QNW1L83M3VPBR8JQI","A1SPIAJZORHFT0","3WPCIUYH1AU470H2HRBLZRFBM3CTDN","","","<img src=""img/flower5.png"" style=""width:200px; border:14px solid green;"">","null","","","","","",""
"249.89999999850988","","image-keyboard-response","387","368755","0.0-387.0","34X6J5FLPUK64QNW1L83M3VPBR8JQI","A1SPIAJZORHFT0","3WPCIUYH1AU470H2HRBLZRFBM3CTDN","","","img/flower5.png","74","250.90000000596046","1","1","1","0.8,0.2,0.2,0.2,0.8,0.2,0.2,0.2,0.8",""
"null","","html-keyboard-response","388","369061","0.0-388.0","34X6J5FLPUK64QNW1L83M3VPBR8JQI","A1SPIAJZORHFT0","3WPCIUYH1AU470H2HRBLZRFBM3CTDN","","","<img src=""img/flower5.png"" style=""width:200px; border:14px solid green;"">","null","","","","","",""
"804.2999999970198","","image-keyboard-response","389","369867","0.0-389.0","34X6J5FLPUK64QNW1L83M3VPBR8JQI","A1SPIAJZORHFT0","3WPCIUYH1AU470H2HRBLZRFBM3CTDN","","","img/flower4.png","76","805.3999999985099","3","1","3","0.8,0.2,0.2,0.2,0.8,0.2,0.2,0.2,0.8",""
"null","","html-keyboard-response","390","370178","0.0-390.0","34X6J5FLPUK64QNW1L83M3VPBR8JQI","A1SPIAJZORHFT0","3WPCIUYH1AU470H2HRBLZRFBM3CTDN","","","<img src=""img/flower4.png"" style=""width:200px; border:14px solid green;"">","null","","","","","",""
"265.20000000298023","","image-keyboard-response","391","370445","0.0-391.0","34X6J5FLPUK64QNW1L83M3VPBR8JQI","A1SPIAJZORHFT0","3WPCIUYH1AU470H2HRBLZRFBM3CTDN","","","img/flower4.png","76","266.3999999985099","3","1","3","0.8,0.2,0.2,0.2,0.8,0.2,0.2,0.2,0.8",""
"null","","html-keyboard-response","392","370752","0.0-392.0","34X6J5FLPUK64QNW1L83M3VPBR8JQI","A1SPIAJZORHFT0","3WPCIUYH1AU470H2HRBLZRFBM3CTDN","","","<img src=""img/flower4.png"" style=""width:200px; border:14px solid green;"">","null","","","","","",""
"435.5","","image-keyboard-response","393","371189","0.0-393.0","34X6J5FLPUK64QNW1L83M3VPBR8JQI","A1SPIAJZORHFT0","3WPCIUYH1AU470H2HRBLZRFBM3CTDN","","","img/flower5.png","74","436.3999999985099","1","1","1","0.8,0.2,0.2,0.2,0.8,0.2,0.2,0.2,0.8",""
"null","","html-keyboard-response","394","371502","0.0-394.0","34X6J5FLPUK64QNW1L83M3VPBR8JQI","A1SPIAJZORHFT0","3WPCIUYH1AU470H2HRBLZRFBM3CTDN","","","<img src=""img/flower5.png"" style=""width:200px; border:14px solid green;"">","null","","","","","",""
"712.5","","image-keyboard-response","395","372215","0.0-395.0","34X6J5FLPUK64QNW1L83M3VPBR8JQI","A1SPIAJZORHFT0","3WPCIUYH1AU470H2HRBLZRFBM3CTDN","","","img/flower3.png","75","713.3999999985099","2","1","2","0.8,0.2,0.2,0.2,0.8,0.2,0.2,0.2,0.8",""
"null","","html-keyboard-response","396","372524","0.0-396.0","34X6J5FLPUK64QNW1L83M3VPBR8JQI","A1SPIAJZORHFT0","3WPCIUYH1AU470H2HRBLZRFBM3CTDN","","","<img src=""img/flower3.png"" style=""width:200px; border:14px solid green;"">","null","","","","","",""
"809.2000000029802","","image-keyboard-response","397","373334","0.0-397.0","34X6J5FLPUK64QNW1L83M3VPBR8JQI","A1SPIAJZORHFT0","3WPCIUYH1AU470H2HRBLZRFBM3CTDN","","","img/flower4.png","74","810","1","0","3","0.8,0.2,0.2,0.2,0.8,0.2,0.2,0.2,0.8",""
"null","","html-keyboard-response","398","373641","0.0-398.0","34X6J5FLPUK64QNW1L83M3VPBR8JQI","A1SPIAJZORHFT0","3WPCIUYH1AU470H2HRBLZRFBM3CTDN","","","<img src=""img/flower4.png"" style=""width:200px;border:14px solid red;"">","null","","","","","",""
