"success","trial_type","trial_index","time_elapsed","internal_node_id","assignmentID","mturkID","hitID","view_history","rt","stimulus","key_press","reactionTime","a","r","s","cond","reward_cond","reward_cond_actual","reward_matrix_idx","responses"
"true","fullscreen","0","2382","0.0-0.0","3E13VNJ1NOHMSBJ9YOXO918HUHUI1F","A1T4GVQH4P0BO","3RBI0I35XEP26UEZY8S8UZLEA1IY3E","","","","","","","","","","","","",""
"","instructions","1","42263","0.0-1.0","3E13VNJ1NOHMSBJ9YOXO918HUHUI1F","A1T4GVQH4P0BO","3RBI0I35XEP26UEZY8S8UZLEA1IY3E","[{""page_index"":0,""viewing_time"":2003.8999999910593},{""page_index"":1,""viewing_time"":4977.79999999702},{""page_index"":2,""viewing_time"":6030.100000008941},{""page_index"":3,""viewing_time"":2036.0999999940395},{""page_index"":4,""viewing_time"":14288.5},{""page_index"":5,""viewing_time"":1815.2999999970198},{""page_index"":6,""viewing_time"":2988.4000000059605},{""page_index"":7,""viewing_time"":5736.20000000298}]","39877.39999999106","","","","","","","","","","",""
"","image-keyboard-response","2","43155","0.0-2.0","3E13VNJ1NOHMSBJ9YOXO918HUHUI1F","A1T4GVQH4P0BO","3RBI0I35XEP26UEZY8S8UZLEA1IY3E","","886.7000000029802","img/flower3.png","74","890.2999999970198","1","0","3","2","1,0,0,1,1,0,1,0,1","0,0,1,1,0,1,0,1,1","2",""
"","html-keyboard-response","3","43473","0.0-3.0","3E13VNJ1NOHMSBJ9YOXO918HUHUI1F","A1T4GVQH4P0BO","3RBI0I35XEP26UEZY8S8UZLEA1IY3E","","null","<img src=""img/flower3.png"" style=""width:200px;border:14px solid red;"">","null","","","","","","","","",""
"","image-keyboard-response","4","45465","0.0-4.0","3E13VNJ1NOHMSBJ9YOXO918HUHUI1F","A1T4GVQH4P0BO","3RBI0I35XEP26UEZY8S8UZLEA1IY3E","","1988.5999999940395","img/flower6.png","75","1990.7000000029802","2","0","1","2","1,0,0,1,1,0,1,0,1","0,0,1,1,0,1,0,1,1","2",""
"","html-keyboard-response","5","45782","0.0-5.0","3E13VNJ1NOHMSBJ9YOXO918HUHUI1F","A1T4GVQH4P0BO","3RBI0I35XEP26UEZY8S8UZLEA1IY3E","","null","<img src=""img/flower6.png"" style=""width:200px;border:14px solid red;"">","null","","","","","","","","",""
"","image-keyboard-response","6","46542","0.0-6.0","3E13VNJ1NOHMSBJ9YOXO918HUHUI1F","A1T4GVQH4P0BO","3RBI0I35XEP26UEZY8S8UZLEA1IY3E","","757.6000000089407","img/flower3.png","74","759.7000000029802","1","0","3","2","1,0,0,1,1,0,1,0,1","0,0,1,1,0,1,0,1,1","2",""
"","html-keyboard-response","7","46859","0.0-7.0","3E13VNJ1NOHMSBJ9YOXO918HUHUI1F","A1T4GVQH4P0BO","3RBI0I35XEP26UEZY8S8UZLEA1IY3E","","null","<img src=""img/flower3.png"" style=""width:200px;border:14px solid red;"">","null","","","","","","","","",""
"","image-keyboard-response","8","47659","0.0-8.0","3E13VNJ1NOHMSBJ9YOXO918HUHUI1F","A1T4GVQH4P0BO","3RBI0I35XEP26UEZY8S8UZLEA1IY3E","","797.7999999970198","img/flower6.png","75","800.0999999940395","2","0","1","2","1,0,0,1,1,0,1,0,1","0,0,1,1,0,1,0,1,1","2",""
"","html-keyboard-response","9","47966","0.0-9.0","3E13VNJ1NOHMSBJ9YOXO918HUHUI1F","A1T4GVQH4P0BO","3RBI0I35XEP26UEZY8S8UZLEA1IY3E","","null","<img src=""img/flower6.png"" style=""width:200px;border:14px solid red;"">","null","","","","","","","","",""
"","image-keyboard-response","10","48775","0.0-10.0","3E13VNJ1NOHMSBJ9YOXO918HUHUI1F","A1T4GVQH4P0BO","3RBI0I35XEP26UEZY8S8UZLEA1IY3E","","806.5","img/flower3.png","74","808.2999999970198","1","0","3","2","1,0,0,1,1,0,1,0,1","0,0,1,1,0,1,0,1,1","2",""
"","html-keyboard-response","11","49090","0.0-11.0","3E13VNJ1NOHMSBJ9YOXO918HUHUI1F","A1T4GVQH4P0BO","3RBI0I35XEP26UEZY8S8UZLEA1IY3E","","null","<img src=""img/flower3.png"" style=""width:200px;border:14px solid red;"">","null","","","","","","","","",""
"","image-keyboard-response","12","49849","0.0-12.0","3E13VNJ1NOHMSBJ9YOXO918HUHUI1F","A1T4GVQH4P0BO","3RBI0I35XEP26UEZY8S8UZLEA1IY3E","","756.9000000059605","img/flower6.png","76","759.0999999940395","3","1","1","2","1,0,0,1,1,0,1,0,1","0,0,1,1,0,1,0,1,1","2",""
"","html-keyboard-response","13","50156","0.0-13.0","3E13VNJ1NOHMSBJ9YOXO918HUHUI1F","A1T4GVQH4P0BO","3RBI0I35XEP26UEZY8S8UZLEA1IY3E","","null","<img src=""img/flower6.png"" style=""width:200px; border:14px solid green;"">","null","","","","","","","","",""
"","image-keyboard-response","14","50928","0.0-14.0","3E13VNJ1NOHMSBJ9YOXO918HUHUI1F","A1T4GVQH4P0BO","3RBI0I35XEP26UEZY8S8UZLEA1IY3E","","769.5","img/flower2.png","75","771.6000000089407","2","0","2","2","1,0,0,1,1,0,1,0,1","0,0,1,1,0,1,0,1,1","2",""
"","html-keyboard-response","15","51236","0.0-15.0","3E13VNJ1NOHMSBJ9YOXO918HUHUI1F","A1T4GVQH4P0BO","3RBI0I35XEP26UEZY8S8UZLEA1IY3E","","null","<img src=""img/flower2.png"" style=""width:200px;border:14px solid red;"">","null","","","","","","","","",""
"","image-keyboard-response","16","51894","0.0-16.0","3E13VNJ1NOHMSBJ9YOXO918HUHUI1F","A1T4GVQH4P0BO","3RBI0I35XEP26UEZY8S8UZLEA1IY3E","","656","img/flower3.png","74","658","1","0","3","2","1,0,0,1,1,0,1,0,1","0,0,1,1,0,1,0,1,1","2",""
"","html-keyboard-response","17","52208","0.0-17.0","3E13VNJ1NOHMSBJ9YOXO918HUHUI1F","A1T4GVQH4P0BO","3RBI0I35XEP26UEZY8S8UZLEA1IY3E","","null","<img src=""img/flower3.png"" style=""width:200px;border:14px solid red;"">","null","","","","","","","","",""
"","image-keyboard-response","18","52906","0.0-18.0","3E13VNJ1NOHMSBJ9YOXO918HUHUI1F","A1T4GVQH4P0BO","3RBI0I35XEP26UEZY8S8UZLEA1IY3E","","695.7000000029802","img/flower3.png","74","697.7999999970198","1","0","3","2","1,0,0,1,1,0,1,0,1","0,0,1,1,0,1,0,1,1","2",""
"","html-keyboard-response","19","53218","0.0-19.0","3E13VNJ1NOHMSBJ9YOXO918HUHUI1F","A1T4GVQH4P0BO","3RBI0I35XEP26UEZY8S8UZLEA1IY3E","","null","<img src=""img/flower3.png"" style=""width:200px;border:14px solid red;"">","null","","","","","","","","",""
"","image-keyboard-response","20","53844","0.0-20.0","3E13VNJ1NOHMSBJ9YOXO918HUHUI1F","A1T4GVQH4P0BO","3RBI0I35XEP26UEZY8S8UZLEA1IY3E","","623","img/flower2.png","74","625.1999999880791","1","1","2","2","1,0,0,1,1,0,1,0,1","0,0,1,1,0,1,0,1,1","2",""
"","html-keyboard-response","21","54151","0.0-21.0","3E13VNJ1NOHMSBJ9YOXO918HUHUI1F","A1T4GVQH4P0BO","3RBI0I35XEP26UEZY8S8UZLEA1IY3E","","null","<img src=""img/flower2.png"" style=""width:200px; border:14px solid green;"">","null","","","","","","","","",""
"","image-keyboard-response","22","54983","0.0-22.0","3E13VNJ1NOHMSBJ9YOXO918HUHUI1F","A1T4GVQH4P0BO","3RBI0I35XEP26UEZY8S8UZLEA1IY3E","","829.8999999910593","img/flower6.png","75","831.5","2","0","1","2","1,0,0,1,1,0,1,0,1","0,0,1,1,0,1,0,1,1","2",""
"","html-keyboard-response","23","55286","0.0-23.0","3E13VNJ1NOHMSBJ9YOXO918HUHUI1F","A1T4GVQH4P0BO","3RBI0I35XEP26UEZY8S8UZLEA1IY3E","","null","<img src=""img/flower6.png"" style=""width:200px;border:14px solid red;"">","null","","","","","","","","",""
"","image-keyboard-response","24","55687","0.0-24.0","3E13VNJ1NOHMSBJ9YOXO918HUHUI1F","A1T4GVQH4P0BO","3RBI0I35XEP26UEZY8S8UZLEA1IY3E","","399.09999999403954","img/flower6.png","74","401.09999999403954","1","0","1","2","1,0,0,1,1,0,1,0,1","0,0,1,1,0,1,0,1,1","2",""
"","html-keyboard-response","25","55991","0.0-25.0","3E13VNJ1NOHMSBJ9YOXO918HUHUI1F","A1T4GVQH4P0BO","3RBI0I35XEP26UEZY8S8UZLEA1IY3E","","null","<img src=""img/flower6.png"" style=""width:200px;border:14px solid red;"">","null","","","","","","","","",""
"","image-keyboard-response","26","56499","0.0-26.0","3E13VNJ1NOHMSBJ9YOXO918HUHUI1F","A1T4GVQH4P0BO","3RBI0I35XEP26UEZY8S8UZLEA1IY3E","","505.40000000596046","img/flower2.png","76","507.5","3","1","2","2","1,0,0,1,1,0,1,0,1","0,0,1,1,0,1,0,1,1","2",""
"","html-keyboard-response","27","56810","0.0-27.0","3E13VNJ1NOHMSBJ9YOXO918HUHUI1F","A1T4GVQH4P0BO","3RBI0I35XEP26UEZY8S8UZLEA1IY3E","","null","<img src=""img/flower2.png"" style=""width:200px; border:14px solid green;"">","null","","","","","","","","",""
"","image-keyboard-response","28","57422","0.0-28.0","3E13VNJ1NOHMSBJ9YOXO918HUHUI1F","A1T4GVQH4P0BO","3RBI0I35XEP26UEZY8S8UZLEA1IY3E","","609.5999999940395","img/flower2.png","75","611.2000000029802","2","0","2","2","1,0,0,1,1,0,1,0,1","0,0,1,1,0,1,0,1,1","2",""
"","html-keyboard-response","29","57727","0.0-29.0","3E13VNJ1NOHMSBJ9YOXO918HUHUI1F","A1T4GVQH4P0BO","3RBI0I35XEP26UEZY8S8UZLEA1IY3E","","null","<img src=""img/flower2.png"" style=""width:200px;border:14px solid red;"">","null","","","","","","","","",""
"","image-keyboard-response","30","58334","0.0-30.0","3E13VNJ1NOHMSBJ9YOXO918HUHUI1F","A1T4GVQH4P0BO","3RBI0I35XEP26UEZY8S8UZLEA1IY3E","","604.5","img/flower2.png","76","606.5","3","1","2","2","1,0,0,1,1,0,1,0,1","0,0,1,1,0,1,0,1,1","2",""
"","html-keyboard-response","31","58646","0.0-31.0","3E13VNJ1NOHMSBJ9YOXO918HUHUI1F","A1T4GVQH4P0BO","3RBI0I35XEP26UEZY8S8UZLEA1IY3E","","null","<img src=""img/flower2.png"" style=""width:200px; border:14px solid green;"">","null","","","","","","","","",""
"","image-keyboard-response","32","59232","0.0-32.0","3E13VNJ1NOHMSBJ9YOXO918HUHUI1F","A1T4GVQH4P0BO","3RBI0I35XEP26UEZY8S8UZLEA1IY3E","","582.5","img/flower3.png","75","584.2999999970198","2","1","3","2","1,0,0,1,1,0,1,0,1","0,0,1,1,0,1,0,1,1","2",""
"","html-keyboard-response","33","59536","0.0-33.0","3E13VNJ1NOHMSBJ9YOXO918HUHUI1F","A1T4GVQH4P0BO","3RBI0I35XEP26UEZY8S8UZLEA1IY3E","","null","<img src=""img/flower3.png"" style=""width:200px; border:14px solid green;"">","null","","","","","","","","",""
"","image-keyboard-response","34","60136","0.0-34.0","3E13VNJ1NOHMSBJ9YOXO918HUHUI1F","A1T4GVQH4P0BO","3RBI0I35XEP26UEZY8S8UZLEA1IY3E","","597.2999999970198","img/flower2.png","75","598.8999999910593","2","0","2","2","1,0,0,1,1,0,1,0,1","0,0,1,1,0,1,0,1,1","2",""
"","html-keyboard-response","35","60441","0.0-35.0","3E13VNJ1NOHMSBJ9YOXO918HUHUI1F","A1T4GVQH4P0BO","3RBI0I35XEP26UEZY8S8UZLEA1IY3E","","null","<img src=""img/flower2.png"" style=""width:200px;border:14px solid red;"">","null","","","","","","","","",""
"","image-keyboard-response","36","61164","0.0-36.0","3E13VNJ1NOHMSBJ9YOXO918HUHUI1F","A1T4GVQH4P0BO","3RBI0I35XEP26UEZY8S8UZLEA1IY3E","","721.5","img/flower3.png","75","723.0999999940395","2","1","3","2","1,0,0,1,1,0,1,0,1","0,0,1,1,0,1,0,1,1","2",""
"","html-keyboard-response","37","61482","0.0-37.0","3E13VNJ1NOHMSBJ9YOXO918HUHUI1F","A1T4GVQH4P0BO","3RBI0I35XEP26UEZY8S8UZLEA1IY3E","","null","<img src=""img/flower3.png"" style=""width:200px; border:14px solid green;"">","null","","","","","","","","",""
"","image-keyboard-response","38","62304","0.0-38.0","3E13VNJ1NOHMSBJ9YOXO918HUHUI1F","A1T4GVQH4P0BO","3RBI0I35XEP26UEZY8S8UZLEA1IY3E","","819.2000000029802","img/flower3.png","75","821.2000000029802","2","1","3","2","1,0,0,1,1,0,1,0,1","0,0,1,1,0,1,0,1,1","2",""
"","html-keyboard-response","39","62613","0.0-39.0","3E13VNJ1NOHMSBJ9YOXO918HUHUI1F","A1T4GVQH4P0BO","3RBI0I35XEP26UEZY8S8UZLEA1IY3E","","null","<img src=""img/flower3.png"" style=""width:200px; border:14px solid green;"">","null","","","","","","","","",""
"","image-keyboard-response","40","63211","0.0-40.0","3E13VNJ1NOHMSBJ9YOXO918HUHUI1F","A1T4GVQH4P0BO","3RBI0I35XEP26UEZY8S8UZLEA1IY3E","","595.2000000029802","img/flower2.png","74","597.1999999880791","1","1","2","2","1,0,0,1,1,0,1,0,1","0,0,1,1,0,1,0,1,1","2",""
"","html-keyboard-response","41","63526","0.0-41.0","3E13VNJ1NOHMSBJ9YOXO918HUHUI1F","A1T4GVQH4P0BO","3RBI0I35XEP26UEZY8S8UZLEA1IY3E","","null","<img src=""img/flower2.png"" style=""width:200px; border:14px solid green;"">","null","","","","","","","","",""
"","image-keyboard-response","42","64138","0.0-42.0","3E13VNJ1NOHMSBJ9YOXO918HUHUI1F","A1T4GVQH4P0BO","3RBI0I35XEP26UEZY8S8UZLEA1IY3E","","609.2999999970198","img/flower3.png","75","611.4000000059605","2","1","3","2","1,0,0,1,1,0,1,0,1","0,0,1,1,0,1,0,1,1","2",""
"","html-keyboard-response","43","64443","0.0-43.0","3E13VNJ1NOHMSBJ9YOXO918HUHUI1F","A1T4GVQH4P0BO","3RBI0I35XEP26UEZY8S8UZLEA1IY3E","","null","<img src=""img/flower3.png"" style=""width:200px; border:14px solid green;"">","null","","","","","","","","",""
"","image-keyboard-response","44","64924","0.0-44.0","3E13VNJ1NOHMSBJ9YOXO918HUHUI1F","A1T4GVQH4P0BO","3RBI0I35XEP26UEZY8S8UZLEA1IY3E","","478.29999999701977","img/flower2.png","74","480.30000001192093","1","1","2","2","1,0,0,1,1,0,1,0,1","0,0,1,1,0,1,0,1,1","2",""
"","html-keyboard-response","45","65236","0.0-45.0","3E13VNJ1NOHMSBJ9YOXO918HUHUI1F","A1T4GVQH4P0BO","3RBI0I35XEP26UEZY8S8UZLEA1IY3E","","null","<img src=""img/flower2.png"" style=""width:200px; border:14px solid green;"">","null","","","","","","","","",""
"","image-keyboard-response","46","65676","0.0-46.0","3E13VNJ1NOHMSBJ9YOXO918HUHUI1F","A1T4GVQH4P0BO","3RBI0I35XEP26UEZY8S8UZLEA1IY3E","","437.59999999403954","img/flower2.png","75","439.5","2","0","2","2","1,0,0,1,1,0,1,0,1","0,0,1,1,0,1,0,1,1","2",""
"","html-keyboard-response","47","65980","0.0-47.0","3E13VNJ1NOHMSBJ9YOXO918HUHUI1F","A1T4GVQH4P0BO","3RBI0I35XEP26UEZY8S8UZLEA1IY3E","","null","<img src=""img/flower2.png"" style=""width:200px;border:14px solid red;"">","null","","","","","","","","",""
"","image-keyboard-response","48","67149","0.0-48.0","3E13VNJ1NOHMSBJ9YOXO918HUHUI1F","A1T4GVQH4P0BO","3RBI0I35XEP26UEZY8S8UZLEA1IY3E","","1166.7000000029802","img/flower6.png","74","1168.5999999940395","1","0","1","2","1,0,0,1,1,0,1,0,1","0,0,1,1,0,1,0,1,1","2",""
"","html-keyboard-response","49","67460","0.0-49.0","3E13VNJ1NOHMSBJ9YOXO918HUHUI1F","A1T4GVQH4P0BO","3RBI0I35XEP26UEZY8S8UZLEA1IY3E","","null","<img src=""img/flower6.png"" style=""width:200px;border:14px solid red;"">","null","","","","","","","","",""
"","image-keyboard-response","50","67500","0.0-50.0","3E13VNJ1NOHMSBJ9YOXO918HUHUI1F","A1T4GVQH4P0BO","3RBI0I35XEP26UEZY8S8UZLEA1IY3E","","37.30000001192093","img/flower3.png","76","39.20000000298023","3","1","3","2","1,0,0,1,1,0,1,0,1","0,0,1,1,0,1,0,1,1","2",""
"","html-keyboard-response","51","67807","0.0-51.0","3E13VNJ1NOHMSBJ9YOXO918HUHUI1F","A1T4GVQH4P0BO","3RBI0I35XEP26UEZY8S8UZLEA1IY3E","","null","<img src=""img/flower3.png"" style=""width:200px; border:14px solid green;"">","null","","","","","","","","",""
"","image-keyboard-response","52","68146","0.0-52.0","3E13VNJ1NOHMSBJ9YOXO918HUHUI1F","A1T4GVQH4P0BO","3RBI0I35XEP26UEZY8S8UZLEA1IY3E","","336.70000000298023","img/flower3.png","75","338.90000000596046","2","1","3","2","1,0,0,1,1,0,1,0,1","0,0,1,1,0,1,0,1,1","2",""
"","html-keyboard-response","53","68452","0.0-53.0","3E13VNJ1NOHMSBJ9YOXO918HUHUI1F","A1T4GVQH4P0BO","3RBI0I35XEP26UEZY8S8UZLEA1IY3E","","null","<img src=""img/flower3.png"" style=""width:200px; border:14px solid green;"">","null","","","","","","","","",""
"","image-keyboard-response","54","68870","0.0-54.0","3E13VNJ1NOHMSBJ9YOXO918HUHUI1F","A1T4GVQH4P0BO","3RBI0I35XEP26UEZY8S8UZLEA1IY3E","","415.6000000089407","img/flower3.png","75","417.70000000298023","2","1","3","2","1,0,0,1,1,0,1,0,1","0,0,1,1,0,1,0,1,1","2",""
"","html-keyboard-response","55","69178","0.0-55.0","3E13VNJ1NOHMSBJ9YOXO918HUHUI1F","A1T4GVQH4P0BO","3RBI0I35XEP26UEZY8S8UZLEA1IY3E","","null","<img src=""img/flower3.png"" style=""width:200px; border:14px solid green;"">","null","","","","","","","","",""
"","image-keyboard-response","56","70302","0.0-56.0","3E13VNJ1NOHMSBJ9YOXO918HUHUI1F","A1T4GVQH4P0BO","3RBI0I35XEP26UEZY8S8UZLEA1IY3E","","1122.1000000089407","img/flower6.png","76","1124.0999999940395","3","1","1","2","1,0,0,1,1,0,1,0,1","0,0,1,1,0,1,0,1,1","2",""
"","html-keyboard-response","57","70608","0.0-57.0","3E13VNJ1NOHMSBJ9YOXO918HUHUI1F","A1T4GVQH4P0BO","3RBI0I35XEP26UEZY8S8UZLEA1IY3E","","null","<img src=""img/flower6.png"" style=""width:200px; border:14px solid green;"">","null","","","","","","","","",""
"","image-keyboard-response","58","71048","0.0-58.0","3E13VNJ1NOHMSBJ9YOXO918HUHUI1F","A1T4GVQH4P0BO","3RBI0I35XEP26UEZY8S8UZLEA1IY3E","","437.59999999403954","img/flower6.png","75","439.59999999403954","2","0","1","2","1,0,0,1,1,0,1,0,1","0,0,1,1,0,1,0,1,1","2",""
"","html-keyboard-response","59","71352","0.0-59.0","3E13VNJ1NOHMSBJ9YOXO918HUHUI1F","A1T4GVQH4P0BO","3RBI0I35XEP26UEZY8S8UZLEA1IY3E","","null","<img src=""img/flower6.png"" style=""width:200px;border:14px solid red;"">","null","","","","","","","","",""
"","image-keyboard-response","60","71595","0.0-60.0","3E13VNJ1NOHMSBJ9YOXO918HUHUI1F","A1T4GVQH4P0BO","3RBI0I35XEP26UEZY8S8UZLEA1IY3E","","240.19999998807907","img/flower6.png","76","242.29999999701977","3","1","1","2","1,0,0,1,1,0,1,0,1","0,0,1,1,0,1,0,1,1","2",""
"","html-keyboard-response","61","71901","0.0-61.0","3E13VNJ1NOHMSBJ9YOXO918HUHUI1F","A1T4GVQH4P0BO","3RBI0I35XEP26UEZY8S8UZLEA1IY3E","","null","<img src=""img/flower6.png"" style=""width:200px; border:14px solid green;"">","null","","","","","","","","",""
"","image-keyboard-response","62","72382","0.0-62.0","3E13VNJ1NOHMSBJ9YOXO918HUHUI1F","A1T4GVQH4P0BO","3RBI0I35XEP26UEZY8S8UZLEA1IY3E","","477.5","img/flower6.png","76","479.40000000596046","3","1","1","2","1,0,0,1,1,0,1,0,1","0,0,1,1,0,1,0,1,1","2",""
"","html-keyboard-response","63","72692","0.0-63.0","3E13VNJ1NOHMSBJ9YOXO918HUHUI1F","A1T4GVQH4P0BO","3RBI0I35XEP26UEZY8S8UZLEA1IY3E","","null","<img src=""img/flower6.png"" style=""width:200px; border:14px solid green;"">","null","","","","","","","","",""
"","image-keyboard-response","64","73912","0.0-64.0","3E13VNJ1NOHMSBJ9YOXO918HUHUI1F","A1T4GVQH4P0BO","3RBI0I35XEP26UEZY8S8UZLEA1IY3E","","1217.2000000029802","img/flower2.png","75","1219.199999988079","2","0","2","2","1,0,0,1,1,0,1,0,1","0,0,1,1,0,1,0,1,1","2",""
"","html-keyboard-response","65","74218","0.0-65.0","3E13VNJ1NOHMSBJ9YOXO918HUHUI1F","A1T4GVQH4P0BO","3RBI0I35XEP26UEZY8S8UZLEA1IY3E","","null","<img src=""img/flower2.png"" style=""width:200px;border:14px solid red;"">","null","","","","","","","","",""
"","image-keyboard-response","66","75293","0.0-66.0","3E13VNJ1NOHMSBJ9YOXO918HUHUI1F","A1T4GVQH4P0BO","3RBI0I35XEP26UEZY8S8UZLEA1IY3E","","1072.7000000029802","img/flower6.png","76","1074.800000011921","3","1","1","2","1,0,0,1,1,0,1,0,1","0,0,1,1,0,1,0,1,1","2",""
"","html-keyboard-response","67","75606","0.0-67.0","3E13VNJ1NOHMSBJ9YOXO918HUHUI1F","A1T4GVQH4P0BO","3RBI0I35XEP26UEZY8S8UZLEA1IY3E","","null","<img src=""img/flower6.png"" style=""width:200px; border:14px solid green;"">","null","","","","","","","","",""
"","image-keyboard-response","68","75990","0.0-68.0","3E13VNJ1NOHMSBJ9YOXO918HUHUI1F","A1T4GVQH4P0BO","3RBI0I35XEP26UEZY8S8UZLEA1IY3E","","381.19999998807907","img/flower6.png","76","383.20000000298023","3","1","1","2","1,0,0,1,1,0,1,0,1","0,0,1,1,0,1,0,1,1","2",""
"","html-keyboard-response","69","76296","0.0-69.0","3E13VNJ1NOHMSBJ9YOXO918HUHUI1F","A1T4GVQH4P0BO","3RBI0I35XEP26UEZY8S8UZLEA1IY3E","","null","<img src=""img/flower6.png"" style=""width:200px; border:14px solid green;"">","null","","","","","","","","",""
"","image-keyboard-response","70","76612","0.0-70.0","3E13VNJ1NOHMSBJ9YOXO918HUHUI1F","A1T4GVQH4P0BO","3RBI0I35XEP26UEZY8S8UZLEA1IY3E","","313.20000000298023","img/flower6.png","76","315.20000000298023","3","1","1","2","1,0,0,1,1,0,1,0,1","0,0,1,1,0,1,0,1,1","2",""
"","html-keyboard-response","71","76921","0.0-71.0","3E13VNJ1NOHMSBJ9YOXO918HUHUI1F","A1T4GVQH4P0BO","3RBI0I35XEP26UEZY8S8UZLEA1IY3E","","null","<img src=""img/flower6.png"" style=""width:200px; border:14px solid green;"">","null","","","","","","","","",""
"","image-keyboard-response","72","77709","0.0-72.0","3E13VNJ1NOHMSBJ9YOXO918HUHUI1F","A1T4GVQH4P0BO","3RBI0I35XEP26UEZY8S8UZLEA1IY3E","","785","img/flower2.png","74","787.0999999940395","1","1","2","2","1,0,0,1,1,0,1,0,1","0,0,1,1,0,1,0,1,1","2",""
"","html-keyboard-response","73","78013","0.0-73.0","3E13VNJ1NOHMSBJ9YOXO918HUHUI1F","A1T4GVQH4P0BO","3RBI0I35XEP26UEZY8S8UZLEA1IY3E","","null","<img src=""img/flower2.png"" style=""width:200px; border:14px solid green;"">","null","","","","","","","","",""
"","image-keyboard-response","74","78414","0.0-74.0","3E13VNJ1NOHMSBJ9YOXO918HUHUI1F","A1T4GVQH4P0BO","3RBI0I35XEP26UEZY8S8UZLEA1IY3E","","399.29999999701977","img/flower3.png","75","400.79999999701977","2","1","3","2","1,0,0,1,1,0,1,0,1","0,0,1,1,0,1,0,1,1","2",""
"","html-keyboard-response","75","78719","0.0-75.0","3E13VNJ1NOHMSBJ9YOXO918HUHUI1F","A1T4GVQH4P0BO","3RBI0I35XEP26UEZY8S8UZLEA1IY3E","","null","<img src=""img/flower3.png"" style=""width:200px; border:14px solid green;"">","null","","","","","","","","",""
"","image-keyboard-response","76","79154","0.0-76.0","3E13VNJ1NOHMSBJ9YOXO918HUHUI1F","A1T4GVQH4P0BO","3RBI0I35XEP26UEZY8S8UZLEA1IY3E","","431.59999999403954","img/flower6.png","76","433.70000000298023","3","1","1","2","1,0,0,1,1,0,1,0,1","0,0,1,1,0,1,0,1,1","2",""
"","html-keyboard-response","77","79464","0.0-77.0","3E13VNJ1NOHMSBJ9YOXO918HUHUI1F","A1T4GVQH4P0BO","3RBI0I35XEP26UEZY8S8UZLEA1IY3E","","null","<img src=""img/flower6.png"" style=""width:200px; border:14px solid green;"">","null","","","","","","","","",""
"","image-keyboard-response","78","80471","0.0-78.0","3E13VNJ1NOHMSBJ9YOXO918HUHUI1F","A1T4GVQH4P0BO","3RBI0I35XEP26UEZY8S8UZLEA1IY3E","","1003.5","img/flower3.png","75","1005.6000000089407","2","1","3","2","1,0,0,1,1,0,1,0,1","0,0,1,1,0,1,0,1,1","2",""
"","html-keyboard-response","79","80780","0.0-79.0","3E13VNJ1NOHMSBJ9YOXO918HUHUI1F","A1T4GVQH4P0BO","3RBI0I35XEP26UEZY8S8UZLEA1IY3E","","null","<img src=""img/flower3.png"" style=""width:200px; border:14px solid green;"">","null","","","","","","","","",""
"","image-keyboard-response","80","81709","0.0-80.0","3E13VNJ1NOHMSBJ9YOXO918HUHUI1F","A1T4GVQH4P0BO","3RBI0I35XEP26UEZY8S8UZLEA1IY3E","","926.2999999970198","img/flower6.png","74","928.3999999910593","1","0","1","2","1,0,0,1,1,0,1,0,1","0,0,1,1,0,1,0,1,1","2",""
"","html-keyboard-response","81","82012","0.0-81.0","3E13VNJ1NOHMSBJ9YOXO918HUHUI1F","A1T4GVQH4P0BO","3RBI0I35XEP26UEZY8S8UZLEA1IY3E","","null","<img src=""img/flower6.png"" style=""width:200px;border:14px solid red;"">","null","","","","","","","","",""
"","image-keyboard-response","82","82605","0.0-82.0","3E13VNJ1NOHMSBJ9YOXO918HUHUI1F","A1T4GVQH4P0BO","3RBI0I35XEP26UEZY8S8UZLEA1IY3E","","590.2000000029802","img/flower3.png","75","592.2000000029802","2","1","3","2","1,0,0,1,1,0,1,0,1","0,0,1,1,0,1,0,1,1","2",""
"","html-keyboard-response","83","82909","0.0-83.0","3E13VNJ1NOHMSBJ9YOXO918HUHUI1F","A1T4GVQH4P0BO","3RBI0I35XEP26UEZY8S8UZLEA1IY3E","","null","<img src=""img/flower3.png"" style=""width:200px; border:14px solid green;"">","null","","","","","","","","",""
"","image-keyboard-response","84","83493","0.0-84.0","3E13VNJ1NOHMSBJ9YOXO918HUHUI1F","A1T4GVQH4P0BO","3RBI0I35XEP26UEZY8S8UZLEA1IY3E","","581.5","img/flower6.png","76","583.3999999910593","3","1","1","2","1,0,0,1,1,0,1,0,1","0,0,1,1,0,1,0,1,1","2",""
"","html-keyboard-response","85","83808","0.0-85.0","3E13VNJ1NOHMSBJ9YOXO918HUHUI1F","A1T4GVQH4P0BO","3RBI0I35XEP26UEZY8S8UZLEA1IY3E","","null","<img src=""img/flower6.png"" style=""width:200px; border:14px solid green;"">","null","","","","","","","","",""
"","image-keyboard-response","86","84580","0.0-86.0","3E13VNJ1NOHMSBJ9YOXO918HUHUI1F","A1T4GVQH4P0BO","3RBI0I35XEP26UEZY8S8UZLEA1IY3E","","768.5999999940395","img/flower2.png","74","770.8000000119209","1","1","2","2","1,0,0,1,1,0,1,0,1","0,0,1,1,0,1,0,1,1","2",""
"","html-keyboard-response","87","84893","0.0-87.0","3E13VNJ1NOHMSBJ9YOXO918HUHUI1F","A1T4GVQH4P0BO","3RBI0I35XEP26UEZY8S8UZLEA1IY3E","","null","<img src=""img/flower2.png"" style=""width:200px; border:14px solid green;"">","null","","","","","","","","",""
"","image-keyboard-response","88","85833","0.0-88.0","3E13VNJ1NOHMSBJ9YOXO918HUHUI1F","A1T4GVQH4P0BO","3RBI0I35XEP26UEZY8S8UZLEA1IY3E","","937.5999999940395","img/flower6.png","76","940","3","1","1","2","1,0,0,1,1,0,1,0,1","0,0,1,1,0,1,0,1,1","2",""
"","html-keyboard-response","89","86149","0.0-89.0","3E13VNJ1NOHMSBJ9YOXO918HUHUI1F","A1T4GVQH4P0BO","3RBI0I35XEP26UEZY8S8UZLEA1IY3E","","null","<img src=""img/flower6.png"" style=""width:200px; border:14px solid green;"">","null","","","","","","","","",""
"","image-keyboard-response","90","86615","0.0-90.0","3E13VNJ1NOHMSBJ9YOXO918HUHUI1F","A1T4GVQH4P0BO","3RBI0I35XEP26UEZY8S8UZLEA1IY3E","","463.79999999701977","img/flower6.png","76","465.59999999403954","3","1","1","2","1,0,0,1,1,0,1,0,1","0,0,1,1,0,1,0,1,1","2",""
"","html-keyboard-response","91","86919","0.0-91.0","3E13VNJ1NOHMSBJ9YOXO918HUHUI1F","A1T4GVQH4P0BO","3RBI0I35XEP26UEZY8S8UZLEA1IY3E","","null","<img src=""img/flower6.png"" style=""width:200px; border:14px solid green;"">","null","","","","","","","","",""
"","image-keyboard-response","92","87435","0.0-92.0","3E13VNJ1NOHMSBJ9YOXO918HUHUI1F","A1T4GVQH4P0BO","3RBI0I35XEP26UEZY8S8UZLEA1IY3E","","514.5999999940395","img/flower3.png","75","515.4000000059605","2","1","3","2","1,0,0,1,1,0,1,0,1","0,0,1,1,0,1,0,1,1","2",""
"","html-keyboard-response","93","87751","0.0-93.0","3E13VNJ1NOHMSBJ9YOXO918HUHUI1F","A1T4GVQH4P0BO","3RBI0I35XEP26UEZY8S8UZLEA1IY3E","","null","<img src=""img/flower3.png"" style=""width:200px; border:14px solid green;"">","null","","","","","","","","",""
"","image-keyboard-response","94","88470","0.0-94.0","3E13VNJ1NOHMSBJ9YOXO918HUHUI1F","A1T4GVQH4P0BO","3RBI0I35XEP26UEZY8S8UZLEA1IY3E","","718.0999999940395","img/flower6.png","76","719.3999999910593","3","1","1","2","1,0,0,1,1,0,1,0,1","0,0,1,1,0,1,0,1,1","2",""
"","html-keyboard-response","95","88786","0.0-95.0","3E13VNJ1NOHMSBJ9YOXO918HUHUI1F","A1T4GVQH4P0BO","3RBI0I35XEP26UEZY8S8UZLEA1IY3E","","null","<img src=""img/flower6.png"" style=""width:200px; border:14px solid green;"">","null","","","","","","","","",""
"","image-keyboard-response","96","89512","0.0-96.0","3E13VNJ1NOHMSBJ9YOXO918HUHUI1F","A1T4GVQH4P0BO","3RBI0I35XEP26UEZY8S8UZLEA1IY3E","","723.4000000059605","img/flower2.png","74","725.5","1","1","2","2","1,0,0,1,1,0,1,0,1","0,0,1,1,0,1,0,1,1","2",""
"","html-keyboard-response","97","89824","0.0-97.0","3E13VNJ1NOHMSBJ9YOXO918HUHUI1F","A1T4GVQH4P0BO","3RBI0I35XEP26UEZY8S8UZLEA1IY3E","","null","<img src=""img/flower2.png"" style=""width:200px; border:14px solid green;"">","null","","","","","","","","",""
"","image-keyboard-response","98","90754","0.0-98.0","3E13VNJ1NOHMSBJ9YOXO918HUHUI1F","A1T4GVQH4P0BO","3RBI0I35XEP26UEZY8S8UZLEA1IY3E","","928","img/flower6.png","76","929.7999999970198","3","1","1","2","1,0,0,1,1,0,1,0,1","0,0,1,1,0,1,0,1,1","2",""
"","html-keyboard-response","99","91064","0.0-99.0","3E13VNJ1NOHMSBJ9YOXO918HUHUI1F","A1T4GVQH4P0BO","3RBI0I35XEP26UEZY8S8UZLEA1IY3E","","null","<img src=""img/flower6.png"" style=""width:200px; border:14px solid green;"">","null","","","","","","","","",""
"","image-keyboard-response","100","91838","0.0-100.0","3E13VNJ1NOHMSBJ9YOXO918HUHUI1F","A1T4GVQH4P0BO","3RBI0I35XEP26UEZY8S8UZLEA1IY3E","","772.1999999880791","img/flower2.png","74","773.1999999880791","1","1","2","2","1,0,0,1,1,0,1,0,1","0,0,1,1,0,1,0,1,1","2",""
"","html-keyboard-response","101","92146","0.0-101.0","3E13VNJ1NOHMSBJ9YOXO918HUHUI1F","A1T4GVQH4P0BO","3RBI0I35XEP26UEZY8S8UZLEA1IY3E","","null","<img src=""img/flower2.png"" style=""width:200px; border:14px solid green;"">","null","","","","","","","","",""
"","image-keyboard-response","102","92799","0.0-102.0","3E13VNJ1NOHMSBJ9YOXO918HUHUI1F","A1T4GVQH4P0BO","3RBI0I35XEP26UEZY8S8UZLEA1IY3E","","650.7000000029802","img/flower3.png","75","652.5","2","1","3","2","1,0,0,1,1,0,1,0,1","0,0,1,1,0,1,0,1,1","2",""
"","html-keyboard-response","103","93102","0.0-103.0","3E13VNJ1NOHMSBJ9YOXO918HUHUI1F","A1T4GVQH4P0BO","3RBI0I35XEP26UEZY8S8UZLEA1IY3E","","null","<img src=""img/flower3.png"" style=""width:200px; border:14px solid green;"">","null","","","","","","","","",""
"","image-keyboard-response","104","93666","0.0-104.0","3E13VNJ1NOHMSBJ9YOXO918HUHUI1F","A1T4GVQH4P0BO","3RBI0I35XEP26UEZY8S8UZLEA1IY3E","","562.2999999970198","img/flower2.png","74","563.6000000089407","1","1","2","2","1,0,0,1,1,0,1,0,1","0,0,1,1,0,1,0,1,1","2",""
"","html-keyboard-response","105","93975","0.0-105.0","3E13VNJ1NOHMSBJ9YOXO918HUHUI1F","A1T4GVQH4P0BO","3RBI0I35XEP26UEZY8S8UZLEA1IY3E","","null","<img src=""img/flower2.png"" style=""width:200px; border:14px solid green;"">","null","","","","","","","","",""
"","image-keyboard-response","106","94482","0.0-106.0","3E13VNJ1NOHMSBJ9YOXO918HUHUI1F","A1T4GVQH4P0BO","3RBI0I35XEP26UEZY8S8UZLEA1IY3E","","504.79999999701977","img/flower2.png","74","506.40000000596046","1","1","2","2","1,0,0,1,1,0,1,0,1","0,0,1,1,0,1,0,1,1","2",""
"","html-keyboard-response","107","94799","0.0-107.0","3E13VNJ1NOHMSBJ9YOXO918HUHUI1F","A1T4GVQH4P0BO","3RBI0I35XEP26UEZY8S8UZLEA1IY3E","","null","<img src=""img/flower2.png"" style=""width:200px; border:14px solid green;"">","null","","","","","","","","",""
"","image-keyboard-response","108","95586","0.0-108.0","3E13VNJ1NOHMSBJ9YOXO918HUHUI1F","A1T4GVQH4P0BO","3RBI0I35XEP26UEZY8S8UZLEA1IY3E","","784.8000000119209","img/flower6.png","76","786.7000000029802","3","1","1","2","1,0,0,1,1,0,1,0,1","0,0,1,1,0,1,0,1,1","2",""
"","html-keyboard-response","109","95897","0.0-109.0","3E13VNJ1NOHMSBJ9YOXO918HUHUI1F","A1T4GVQH4P0BO","3RBI0I35XEP26UEZY8S8UZLEA1IY3E","","null","<img src=""img/flower6.png"" style=""width:200px; border:14px solid green;"">","null","","","","","","","","",""
"","image-keyboard-response","110","96801","0.0-110.0","3E13VNJ1NOHMSBJ9YOXO918HUHUI1F","A1T4GVQH4P0BO","3RBI0I35XEP26UEZY8S8UZLEA1IY3E","","902.5","img/flower2.png","74","903.9000000059605","1","1","2","2","1,0,0,1,1,0,1,0,1","0,0,1,1,0,1,0,1,1","2",""
"","html-keyboard-response","111","97108","0.0-111.0","3E13VNJ1NOHMSBJ9YOXO918HUHUI1F","A1T4GVQH4P0BO","3RBI0I35XEP26UEZY8S8UZLEA1IY3E","","null","<img src=""img/flower2.png"" style=""width:200px; border:14px solid green;"">","null","","","","","","","","",""
"","image-keyboard-response","112","97546","0.0-112.0","3E13VNJ1NOHMSBJ9YOXO918HUHUI1F","A1T4GVQH4P0BO","3RBI0I35XEP26UEZY8S8UZLEA1IY3E","","436.40000000596046","img/flower3.png","75","437.5","2","1","3","2","1,0,0,1,1,0,1,0,1","0,0,1,1,0,1,0,1,1","2",""
"","html-keyboard-response","113","97857","0.0-113.0","3E13VNJ1NOHMSBJ9YOXO918HUHUI1F","A1T4GVQH4P0BO","3RBI0I35XEP26UEZY8S8UZLEA1IY3E","","null","<img src=""img/flower3.png"" style=""width:200px; border:14px solid green;"">","null","","","","","","","","",""
"","image-keyboard-response","114","98817","0.0-114.0","3E13VNJ1NOHMSBJ9YOXO918HUHUI1F","A1T4GVQH4P0BO","3RBI0I35XEP26UEZY8S8UZLEA1IY3E","","958","img/flower2.png","74","959.7000000029802","1","1","2","2","1,0,0,1,1,0,1,0,1","0,0,1,1,0,1,0,1,1","2",""
"","html-keyboard-response","115","99125","0.0-115.0","3E13VNJ1NOHMSBJ9YOXO918HUHUI1F","A1T4GVQH4P0BO","3RBI0I35XEP26UEZY8S8UZLEA1IY3E","","null","<img src=""img/flower2.png"" style=""width:200px; border:14px solid green;"">","null","","","","","","","","",""
"","image-keyboard-response","116","99726","0.0-116.0","3E13VNJ1NOHMSBJ9YOXO918HUHUI1F","A1T4GVQH4P0BO","3RBI0I35XEP26UEZY8S8UZLEA1IY3E","","598.6999999880791","img/flower3.png","75","600.7000000029802","2","1","3","2","1,0,0,1,1,0,1,0,1","0,0,1,1,0,1,0,1,1","2",""
"","html-keyboard-response","117","100040","0.0-117.0","3E13VNJ1NOHMSBJ9YOXO918HUHUI1F","A1T4GVQH4P0BO","3RBI0I35XEP26UEZY8S8UZLEA1IY3E","","null","<img src=""img/flower3.png"" style=""width:200px; border:14px solid green;"">","null","","","","","","","","",""
"","image-keyboard-response","118","100520","0.0-118.0","3E13VNJ1NOHMSBJ9YOXO918HUHUI1F","A1T4GVQH4P0BO","3RBI0I35XEP26UEZY8S8UZLEA1IY3E","","479.20000000298023","img/flower2.png","74","480.09999999403954","1","1","2","2","1,0,0,1,1,0,1,0,1","0,0,1,1,0,1,0,1,1","2",""
"","html-keyboard-response","119","100839","0.0-119.0","3E13VNJ1NOHMSBJ9YOXO918HUHUI1F","A1T4GVQH4P0BO","3RBI0I35XEP26UEZY8S8UZLEA1IY3E","","null","<img src=""img/flower2.png"" style=""width:200px; border:14px solid green;"">","null","","","","","","","","",""
"","image-keyboard-response","120","101355","0.0-120.0","3E13VNJ1NOHMSBJ9YOXO918HUHUI1F","A1T4GVQH4P0BO","3RBI0I35XEP26UEZY8S8UZLEA1IY3E","","513.7999999970198","img/flower3.png","75","515.5999999940395","2","1","3","2","1,0,0,1,1,0,1,0,1","0,0,1,1,0,1,0,1,1","2",""
"","html-keyboard-response","121","101658","0.0-121.0","3E13VNJ1NOHMSBJ9YOXO918HUHUI1F","A1T4GVQH4P0BO","3RBI0I35XEP26UEZY8S8UZLEA1IY3E","","null","<img src=""img/flower3.png"" style=""width:200px; border:14px solid green;"">","null","","","","","","","","",""
"","image-keyboard-response","122","102127","0.0-122.0","3E13VNJ1NOHMSBJ9YOXO918HUHUI1F","A1T4GVQH4P0BO","3RBI0I35XEP26UEZY8S8UZLEA1IY3E","","465.5","img/flower2.png","74","467.6000000089407","1","1","2","2","1,0,0,1,1,0,1,0,1","0,0,1,1,0,1,0,1,1","2",""
"","html-keyboard-response","123","102437","0.0-123.0","3E13VNJ1NOHMSBJ9YOXO918HUHUI1F","A1T4GVQH4P0BO","3RBI0I35XEP26UEZY8S8UZLEA1IY3E","","null","<img src=""img/flower2.png"" style=""width:200px; border:14px solid green;"">","null","","","","","","","","",""
"","image-keyboard-response","124","102848","0.0-124.0","3E13VNJ1NOHMSBJ9YOXO918HUHUI1F","A1T4GVQH4P0BO","3RBI0I35XEP26UEZY8S8UZLEA1IY3E","","407.80000001192093","img/flower3.png","75","409.79999999701977","2","1","3","2","1,0,0,1,1,0,1,0,1","0,0,1,1,0,1,0,1,1","2",""
"","html-keyboard-response","125","103151","0.0-125.0","3E13VNJ1NOHMSBJ9YOXO918HUHUI1F","A1T4GVQH4P0BO","3RBI0I35XEP26UEZY8S8UZLEA1IY3E","","null","<img src=""img/flower3.png"" style=""width:200px; border:14px solid green;"">","null","","","","","","","","",""
"","image-keyboard-response","126","103615","0.0-126.0","3E13VNJ1NOHMSBJ9YOXO918HUHUI1F","A1T4GVQH4P0BO","3RBI0I35XEP26UEZY8S8UZLEA1IY3E","","460.90000000596046","img/flower3.png","75","462.79999999701977","2","1","3","2","1,0,0,1,1,0,1,0,1","0,0,1,1,0,1,0,1,1","2",""
"","html-keyboard-response","127","103925","0.0-127.0","3E13VNJ1NOHMSBJ9YOXO918HUHUI1F","A1T4GVQH4P0BO","3RBI0I35XEP26UEZY8S8UZLEA1IY3E","","null","<img src=""img/flower3.png"" style=""width:200px; border:14px solid green;"">","null","","","","","","","","",""
"","image-keyboard-response","128","104677","0.0-128.0","3E13VNJ1NOHMSBJ9YOXO918HUHUI1F","A1T4GVQH4P0BO","3RBI0I35XEP26UEZY8S8UZLEA1IY3E","","748.7999999970198","img/flower6.png","76","750.7999999970198","3","1","1","2","1,0,0,1,1,0,1,0,1","0,0,1,1,0,1,0,1,1","2",""
"","html-keyboard-response","129","104979","0.0-129.0","3E13VNJ1NOHMSBJ9YOXO918HUHUI1F","A1T4GVQH4P0BO","3RBI0I35XEP26UEZY8S8UZLEA1IY3E","","null","<img src=""img/flower6.png"" style=""width:200px; border:14px solid green;"">","null","","","","","","","","",""
"","image-keyboard-response","130","105730","0.0-130.0","3E13VNJ1NOHMSBJ9YOXO918HUHUI1F","A1T4GVQH4P0BO","3RBI0I35XEP26UEZY8S8UZLEA1IY3E","","750","img/flower2.png","74","751.1000000089407","1","1","2","2","1,0,0,1,1,0,1,0,1","0,0,1,1,0,1,0,1,1","2",""
"","html-keyboard-response","131","106045","0.0-131.0","3E13VNJ1NOHMSBJ9YOXO918HUHUI1F","A1T4GVQH4P0BO","3RBI0I35XEP26UEZY8S8UZLEA1IY3E","","null","<img src=""img/flower2.png"" style=""width:200px; border:14px solid green;"">","null","","","","","","","","",""
"","image-keyboard-response","132","106406","0.0-132.0","3E13VNJ1NOHMSBJ9YOXO918HUHUI1F","A1T4GVQH4P0BO","3RBI0I35XEP26UEZY8S8UZLEA1IY3E","","358.19999998807907","img/flower2.png","74","360.40000000596046","1","1","2","2","1,0,0,1,1,0,1,0,1","0,0,1,1,0,1,0,1,1","2",""
"","html-keyboard-response","133","106719","0.0-133.0","3E13VNJ1NOHMSBJ9YOXO918HUHUI1F","A1T4GVQH4P0BO","3RBI0I35XEP26UEZY8S8UZLEA1IY3E","","null","<img src=""img/flower2.png"" style=""width:200px; border:14px solid green;"">","null","","","","","","","","",""
"","image-keyboard-response","134","107358","0.0-134.0","3E13VNJ1NOHMSBJ9YOXO918HUHUI1F","A1T4GVQH4P0BO","3RBI0I35XEP26UEZY8S8UZLEA1IY3E","","636.5999999940395","img/flower3.png","75","638.3999999910593","2","1","3","2","1,0,0,1,1,0,1,0,1","0,0,1,1,0,1,0,1,1","2",""
"","html-keyboard-response","135","107676","0.0-135.0","3E13VNJ1NOHMSBJ9YOXO918HUHUI1F","A1T4GVQH4P0BO","3RBI0I35XEP26UEZY8S8UZLEA1IY3E","","null","<img src=""img/flower3.png"" style=""width:200px; border:14px solid green;"">","null","","","","","","","","",""
"","image-keyboard-response","136","108200","0.0-136.0","3E13VNJ1NOHMSBJ9YOXO918HUHUI1F","A1T4GVQH4P0BO","3RBI0I35XEP26UEZY8S8UZLEA1IY3E","","521.7999999970198","img/flower3.png","75","523.7000000029802","2","1","3","2","1,0,0,1,1,0,1,0,1","0,0,1,1,0,1,0,1,1","2",""
"","html-keyboard-response","137","108519","0.0-137.0","3E13VNJ1NOHMSBJ9YOXO918HUHUI1F","A1T4GVQH4P0BO","3RBI0I35XEP26UEZY8S8UZLEA1IY3E","","null","<img src=""img/flower3.png"" style=""width:200px; border:14px solid green;"">","null","","","","","","","","",""
"","image-keyboard-response","138","108891","0.0-138.0","3E13VNJ1NOHMSBJ9YOXO918HUHUI1F","A1T4GVQH4P0BO","3RBI0I35XEP26UEZY8S8UZLEA1IY3E","","369.59999999403954","img/flower3.png","75","372.09999999403954","2","1","3","2","1,0,0,1,1,0,1,0,1","0,0,1,1,0,1,0,1,1","2",""
"","html-keyboard-response","139","109197","0.0-139.0","3E13VNJ1NOHMSBJ9YOXO918HUHUI1F","A1T4GVQH4P0BO","3RBI0I35XEP26UEZY8S8UZLEA1IY3E","","null","<img src=""img/flower3.png"" style=""width:200px; border:14px solid green;"">","null","","","","","","","","",""
"","image-keyboard-response","140","109953","0.0-140.0","3E13VNJ1NOHMSBJ9YOXO918HUHUI1F","A1T4GVQH4P0BO","3RBI0I35XEP26UEZY8S8UZLEA1IY3E","","753.4000000059605","img/flower6.png","76","755.4000000059605","3","1","1","2","1,0,0,1,1,0,1,0,1","0,0,1,1,0,1,0,1,1","2",""
"","html-keyboard-response","141","110261","0.0-141.0","3E13VNJ1NOHMSBJ9YOXO918HUHUI1F","A1T4GVQH4P0BO","3RBI0I35XEP26UEZY8S8UZLEA1IY3E","","null","<img src=""img/flower6.png"" style=""width:200px; border:14px solid green;"">","null","","","","","","","","",""
"","image-keyboard-response","142","110724","0.0-142.0","3E13VNJ1NOHMSBJ9YOXO918HUHUI1F","A1T4GVQH4P0BO","3RBI0I35XEP26UEZY8S8UZLEA1IY3E","","461.8999999910593","img/flower6.png","76","462.90000000596046","3","1","1","2","1,0,0,1,1,0,1,0,1","0,0,1,1,0,1,0,1,1","2",""
"","html-keyboard-response","143","111036","0.0-143.0","3E13VNJ1NOHMSBJ9YOXO918HUHUI1F","A1T4GVQH4P0BO","3RBI0I35XEP26UEZY8S8UZLEA1IY3E","","null","<img src=""img/flower6.png"" style=""width:200px; border:14px solid green;"">","null","","","","","","","","",""
"","image-keyboard-response","144","111779","0.0-144.0","3E13VNJ1NOHMSBJ9YOXO918HUHUI1F","A1T4GVQH4P0BO","3RBI0I35XEP26UEZY8S8UZLEA1IY3E","","740.2000000029802","img/flower2.png","74","742.1999999880791","1","1","2","2","1,0,0,1,1,0,1,0,1","0,0,1,1,0,1,0,1,1","2",""
"","html-keyboard-response","145","112093","0.0-145.0","3E13VNJ1NOHMSBJ9YOXO918HUHUI1F","A1T4GVQH4P0BO","3RBI0I35XEP26UEZY8S8UZLEA1IY3E","","null","<img src=""img/flower2.png"" style=""width:200px; border:14px solid green;"">","null","","","","","","","","",""
"","image-keyboard-response","146","112454","0.0-146.0","3E13VNJ1NOHMSBJ9YOXO918HUHUI1F","A1T4GVQH4P0BO","3RBI0I35XEP26UEZY8S8UZLEA1IY3E","","359.3999999910593","img/flower2.png","74","360.8999999910593","1","1","2","2","1,0,0,1,1,0,1,0,1","0,0,1,1,0,1,0,1,1","2",""
"","html-keyboard-response","147","112764","0.0-147.0","3E13VNJ1NOHMSBJ9YOXO918HUHUI1F","A1T4GVQH4P0BO","3RBI0I35XEP26UEZY8S8UZLEA1IY3E","","null","<img src=""img/flower2.png"" style=""width:200px; border:14px solid green;"">","null","","","","","","","","",""
"","image-keyboard-response","148","113096","0.0-148.0","3E13VNJ1NOHMSBJ9YOXO918HUHUI1F","A1T4GVQH4P0BO","3RBI0I35XEP26UEZY8S8UZLEA1IY3E","","330.1000000089407","img/flower2.png","74","332.29999999701977","1","1","2","2","1,0,0,1,1,0,1,0,1","0,0,1,1,0,1,0,1,1","2",""
"","html-keyboard-response","149","113405","0.0-149.0","3E13VNJ1NOHMSBJ9YOXO918HUHUI1F","A1T4GVQH4P0BO","3RBI0I35XEP26UEZY8S8UZLEA1IY3E","","null","<img src=""img/flower2.png"" style=""width:200px; border:14px solid green;"">","null","","","","","","","","",""
"","image-keyboard-response","150","114275","0.0-150.0","3E13VNJ1NOHMSBJ9YOXO918HUHUI1F","A1T4GVQH4P0BO","3RBI0I35XEP26UEZY8S8UZLEA1IY3E","","867.7000000029802","img/flower6.png","76","869.5999999940395","3","1","1","2","1,0,0,1,1,0,1,0,1","0,0,1,1,0,1,0,1,1","2",""
"","html-keyboard-response","151","114585","0.0-151.0","3E13VNJ1NOHMSBJ9YOXO918HUHUI1F","A1T4GVQH4P0BO","3RBI0I35XEP26UEZY8S8UZLEA1IY3E","","null","<img src=""img/flower6.png"" style=""width:200px; border:14px solid green;"">","null","","","","","","","","",""
"","image-keyboard-response","152","115262","0.0-152.0","3E13VNJ1NOHMSBJ9YOXO918HUHUI1F","A1T4GVQH4P0BO","3RBI0I35XEP26UEZY8S8UZLEA1IY3E","","674","img/flower2.png","74","676.2000000029802","1","1","2","2","1,0,0,1,1,0,1,0,1","0,0,1,1,0,1,0,1,1","2",""
"","html-keyboard-response","153","115569","0.0-153.0","3E13VNJ1NOHMSBJ9YOXO918HUHUI1F","A1T4GVQH4P0BO","3RBI0I35XEP26UEZY8S8UZLEA1IY3E","","null","<img src=""img/flower2.png"" style=""width:200px; border:14px solid green;"">","null","","","","","","","","",""
"","image-keyboard-response","154","116411","0.0-154.0","3E13VNJ1NOHMSBJ9YOXO918HUHUI1F","A1T4GVQH4P0BO","3RBI0I35XEP26UEZY8S8UZLEA1IY3E","","839","img/flower6.png","76","841.1000000089407","3","1","1","2","1,0,0,1,1,0,1,0,1","0,0,1,1,0,1,0,1,1","2",""
"","html-keyboard-response","155","116719","0.0-155.0","3E13VNJ1NOHMSBJ9YOXO918HUHUI1F","A1T4GVQH4P0BO","3RBI0I35XEP26UEZY8S8UZLEA1IY3E","","null","<img src=""img/flower6.png"" style=""width:200px; border:14px solid green;"">","null","","","","","","","","",""
"","image-keyboard-response","156","117317","0.0-156.0","3E13VNJ1NOHMSBJ9YOXO918HUHUI1F","A1T4GVQH4P0BO","3RBI0I35XEP26UEZY8S8UZLEA1IY3E","","595.9000000059605","img/flower6.png","76","598","3","1","1","2","1,0,0,1,1,0,1,0,1","0,0,1,1,0,1,0,1,1","2",""
"","html-keyboard-response","157","117629","0.0-157.0","3E13VNJ1NOHMSBJ9YOXO918HUHUI1F","A1T4GVQH4P0BO","3RBI0I35XEP26UEZY8S8UZLEA1IY3E","","null","<img src=""img/flower6.png"" style=""width:200px; border:14px solid green;"">","null","","","","","","","","",""
"","image-keyboard-response","158","118465","0.0-158.0","3E13VNJ1NOHMSBJ9YOXO918HUHUI1F","A1T4GVQH4P0BO","3RBI0I35XEP26UEZY8S8UZLEA1IY3E","","833.4000000059605","img/flower3.png","75","835.4000000059605","2","1","3","2","1,0,0,1,1,0,1,0,1","0,0,1,1,0,1,0,1,1","2",""
"","html-keyboard-response","159","118773","0.0-159.0","3E13VNJ1NOHMSBJ9YOXO918HUHUI1F","A1T4GVQH4P0BO","3RBI0I35XEP26UEZY8S8UZLEA1IY3E","","null","<img src=""img/flower3.png"" style=""width:200px; border:14px solid green;"">","null","","","","","","","","",""
"","image-keyboard-response","160","119633","0.0-160.0","3E13VNJ1NOHMSBJ9YOXO918HUHUI1F","A1T4GVQH4P0BO","3RBI0I35XEP26UEZY8S8UZLEA1IY3E","","861","img/flower6.png","76","863.0999999940395","3","1","1","2","1,0,0,1,1,0,1,0,1","0,0,1,1,0,1,0,1,1","2",""
"","html-keyboard-response","161","119945","0.0-161.0","3E13VNJ1NOHMSBJ9YOXO918HUHUI1F","A1T4GVQH4P0BO","3RBI0I35XEP26UEZY8S8UZLEA1IY3E","","null","<img src=""img/flower6.png"" style=""width:200px; border:14px solid green;"">","null","","","","","","","","",""
"","image-keyboard-response","162","120550","0.0-162.0","3E13VNJ1NOHMSBJ9YOXO918HUHUI1F","A1T4GVQH4P0BO","3RBI0I35XEP26UEZY8S8UZLEA1IY3E","","603.5","img/flower2.png","74","604.6000000089407","1","1","2","2","1,0,0,1,1,0,1,0,1","0,0,1,1,0,1,0,1,1","2",""
"","html-keyboard-response","163","120855","0.0-163.0","3E13VNJ1NOHMSBJ9YOXO918HUHUI1F","A1T4GVQH4P0BO","3RBI0I35XEP26UEZY8S8UZLEA1IY3E","","null","<img src=""img/flower2.png"" style=""width:200px; border:14px solid green;"">","null","","","","","","","","",""
"","image-keyboard-response","164","121736","0.0-164.0","3E13VNJ1NOHMSBJ9YOXO918HUHUI1F","A1T4GVQH4P0BO","3RBI0I35XEP26UEZY8S8UZLEA1IY3E","","878.2000000029802","img/flower6.png","76","879.9000000059605","3","1","1","2","1,0,0,1,1,0,1,0,1","0,0,1,1,0,1,0,1,1","2",""
"","html-keyboard-response","165","122039","0.0-165.0","3E13VNJ1NOHMSBJ9YOXO918HUHUI1F","A1T4GVQH4P0BO","3RBI0I35XEP26UEZY8S8UZLEA1IY3E","","null","<img src=""img/flower6.png"" style=""width:200px; border:14px solid green;"">","null","","","","","","","","",""
"","image-keyboard-response","166","122830","0.0-166.0","3E13VNJ1NOHMSBJ9YOXO918HUHUI1F","A1T4GVQH4P0BO","3RBI0I35XEP26UEZY8S8UZLEA1IY3E","","788.6000000089407","img/flower2.png","74","790.5999999940395","1","1","2","2","1,0,0,1,1,0,1,0,1","0,0,1,1,0,1,0,1,1","2",""
"","html-keyboard-response","167","123139","0.0-167.0","3E13VNJ1NOHMSBJ9YOXO918HUHUI1F","A1T4GVQH4P0BO","3RBI0I35XEP26UEZY8S8UZLEA1IY3E","","null","<img src=""img/flower2.png"" style=""width:200px; border:14px solid green;"">","null","","","","","","","","",""
"","image-keyboard-response","168","123593","0.0-168.0","3E13VNJ1NOHMSBJ9YOXO918HUHUI1F","A1T4GVQH4P0BO","3RBI0I35XEP26UEZY8S8UZLEA1IY3E","","451.6000000089407","img/flower2.png","74","453.5","1","1","2","2","1,0,0,1,1,0,1,0,1","0,0,1,1,0,1,0,1,1","2",""
"","html-keyboard-response","169","123899","0.0-169.0","3E13VNJ1NOHMSBJ9YOXO918HUHUI1F","A1T4GVQH4P0BO","3RBI0I35XEP26UEZY8S8UZLEA1IY3E","","null","<img src=""img/flower2.png"" style=""width:200px; border:14px solid green;"">","null","","","","","","","","",""
"","image-keyboard-response","170","124789","0.0-170.0","3E13VNJ1NOHMSBJ9YOXO918HUHUI1F","A1T4GVQH4P0BO","3RBI0I35XEP26UEZY8S8UZLEA1IY3E","","887.5","img/flower3.png","75","889.3999999910593","2","1","3","2","1,0,0,1,1,0,1,0,1","0,0,1,1,0,1,0,1,1","2",""
"","html-keyboard-response","171","125099","0.0-171.0","3E13VNJ1NOHMSBJ9YOXO918HUHUI1F","A1T4GVQH4P0BO","3RBI0I35XEP26UEZY8S8UZLEA1IY3E","","null","<img src=""img/flower3.png"" style=""width:200px; border:14px solid green;"">","null","","","","","","","","",""
"","image-keyboard-response","172","125728","0.0-172.0","3E13VNJ1NOHMSBJ9YOXO918HUHUI1F","A1T4GVQH4P0BO","3RBI0I35XEP26UEZY8S8UZLEA1IY3E","","627.2000000029802","img/flower2.png","74","629.2999999970198","1","1","2","2","1,0,0,1,1,0,1,0,1","0,0,1,1,0,1,0,1,1","2",""
"","html-keyboard-response","173","126040","0.0-173.0","3E13VNJ1NOHMSBJ9YOXO918HUHUI1F","A1T4GVQH4P0BO","3RBI0I35XEP26UEZY8S8UZLEA1IY3E","","null","<img src=""img/flower2.png"" style=""width:200px; border:14px solid green;"">","null","","","","","","","","",""
"","image-keyboard-response","174","126434","0.0-174.0","3E13VNJ1NOHMSBJ9YOXO918HUHUI1F","A1T4GVQH4P0BO","3RBI0I35XEP26UEZY8S8UZLEA1IY3E","","391.8999999910593","img/flower3.png","75","393.70000000298023","2","1","3","2","1,0,0,1,1,0,1,0,1","0,0,1,1,0,1,0,1,1","2",""
"","html-keyboard-response","175","126752","0.0-175.0","3E13VNJ1NOHMSBJ9YOXO918HUHUI1F","A1T4GVQH4P0BO","3RBI0I35XEP26UEZY8S8UZLEA1IY3E","","null","<img src=""img/flower3.png"" style=""width:200px; border:14px solid green;"">","null","","","","","","","","",""
"","image-keyboard-response","176","127511","0.0-176.0","3E13VNJ1NOHMSBJ9YOXO918HUHUI1F","A1T4GVQH4P0BO","3RBI0I35XEP26UEZY8S8UZLEA1IY3E","","757.2000000029802","img/flower3.png","75","759.1999999880791","2","1","3","2","1,0,0,1,1,0,1,0,1","0,0,1,1,0,1,0,1,1","2",""
"","html-keyboard-response","177","127825","0.0-177.0","3E13VNJ1NOHMSBJ9YOXO918HUHUI1F","A1T4GVQH4P0BO","3RBI0I35XEP26UEZY8S8UZLEA1IY3E","","null","<img src=""img/flower3.png"" style=""width:200px; border:14px solid green;"">","null","","","","","","","","",""
"","image-keyboard-response","178","128136","0.0-178.0","3E13VNJ1NOHMSBJ9YOXO918HUHUI1F","A1T4GVQH4P0BO","3RBI0I35XEP26UEZY8S8UZLEA1IY3E","","308.70000000298023","img/flower3.png","75","310.5","2","1","3","2","1,0,0,1,1,0,1,0,1","0,0,1,1,0,1,0,1,1","2",""
"","html-keyboard-response","179","128446","0.0-179.0","3E13VNJ1NOHMSBJ9YOXO918HUHUI1F","A1T4GVQH4P0BO","3RBI0I35XEP26UEZY8S8UZLEA1IY3E","","null","<img src=""img/flower3.png"" style=""width:200px; border:14px solid green;"">","null","","","","","","","","",""
"","image-keyboard-response","180","129041","0.0-180.0","3E13VNJ1NOHMSBJ9YOXO918HUHUI1F","A1T4GVQH4P0BO","3RBI0I35XEP26UEZY8S8UZLEA1IY3E","","592.4000000059605","img/flower6.png","76","594.5999999940395","3","1","1","2","1,0,0,1,1,0,1,0,1","0,0,1,1,0,1,0,1,1","2",""
"","html-keyboard-response","181","129358","0.0-181.0","3E13VNJ1NOHMSBJ9YOXO918HUHUI1F","A1T4GVQH4P0BO","3RBI0I35XEP26UEZY8S8UZLEA1IY3E","","null","<img src=""img/flower6.png"" style=""width:200px; border:14px solid green;"">","null","","","","","","","","",""
"","image-keyboard-response","182","130180","0.0-182.0","3E13VNJ1NOHMSBJ9YOXO918HUHUI1F","A1T4GVQH4P0BO","3RBI0I35XEP26UEZY8S8UZLEA1IY3E","","819.7000000029802","img/flower1.png","76","821.4000000059605","3","1","2","1","1,0.333,0.333,0.333,1,0.333,0.333,0.333,1","1,0.333,0.333,0.333,1,0.333,0.333,0.333,1","1",""
"","html-keyboard-response","183","130485","0.0-183.0","3E13VNJ1NOHMSBJ9YOXO918HUHUI1F","A1T4GVQH4P0BO","3RBI0I35XEP26UEZY8S8UZLEA1IY3E","","null","<img src=""img/flower1.png"" style=""width:200px; border:14px solid green;"">","null","","","","","","","","",""
"","image-keyboard-response","184","130874","0.0-184.0","3E13VNJ1NOHMSBJ9YOXO918HUHUI1F","A1T4GVQH4P0BO","3RBI0I35XEP26UEZY8S8UZLEA1IY3E","","386.09999999403954","img/flower1.png","76","388.09999999403954","3","0","2","1","1,0.333,0.333,0.333,1,0.333,0.333,0.333,1","1,0.333,0.333,0.333,1,0.333,0.333,0.333,1","1",""
"","html-keyboard-response","185","131182","0.0-185.0","3E13VNJ1NOHMSBJ9YOXO918HUHUI1F","A1T4GVQH4P0BO","3RBI0I35XEP26UEZY8S8UZLEA1IY3E","","null","<img src=""img/flower1.png"" style=""width:200px;border:14px solid red;"">","null","","","","","","","","",""
"","image-keyboard-response","186","132423","0.0-186.0","3E13VNJ1NOHMSBJ9YOXO918HUHUI1F","A1T4GVQH4P0BO","3RBI0I35XEP26UEZY8S8UZLEA1IY3E","","1239.2000000029802","img/flower4.png","75","1241.199999988079","2","0","3","1","1,0.333,0.333,0.333,1,0.333,0.333,0.333,1","1,0.333,0.333,0.333,1,0.333,0.333,0.333,1","1",""
"","html-keyboard-response","187","132738","0.0-187.0","3E13VNJ1NOHMSBJ9YOXO918HUHUI1F","A1T4GVQH4P0BO","3RBI0I35XEP26UEZY8S8UZLEA1IY3E","","null","<img src=""img/flower4.png"" style=""width:200px;border:14px solid red;"">","null","","","","","","","","",""
"","image-keyboard-response","188","133109","0.0-188.0","3E13VNJ1NOHMSBJ9YOXO918HUHUI1F","A1T4GVQH4P0BO","3RBI0I35XEP26UEZY8S8UZLEA1IY3E","","368.20000000298023","img/flower4.png","74","370.20000000298023","1","0","3","1","1,0.333,0.333,0.333,1,0.333,0.333,0.333,1","1,0.333,0.333,0.333,1,0.333,0.333,0.333,1","1",""
"","html-keyboard-response","189","133420","0.0-189.0","3E13VNJ1NOHMSBJ9YOXO918HUHUI1F","A1T4GVQH4P0BO","3RBI0I35XEP26UEZY8S8UZLEA1IY3E","","null","<img src=""img/flower4.png"" style=""width:200px;border:14px solid red;"">","null","","","","","","","","",""
"","image-keyboard-response","190","134350","0.0-190.0","3E13VNJ1NOHMSBJ9YOXO918HUHUI1F","A1T4GVQH4P0BO","3RBI0I35XEP26UEZY8S8UZLEA1IY3E","","928.0999999940395","img/flower5.png","75","930","2","1","1","1","1,0.333,0.333,0.333,1,0.333,0.333,0.333,1","1,0.333,0.333,0.333,1,0.333,0.333,0.333,1","1",""
"","html-keyboard-response","191","134657","0.0-191.0","3E13VNJ1NOHMSBJ9YOXO918HUHUI1F","A1T4GVQH4P0BO","3RBI0I35XEP26UEZY8S8UZLEA1IY3E","","null","<img src=""img/flower5.png"" style=""width:200px; border:14px solid green;"">","null","","","","","","","","",""
"","image-keyboard-response","192","135254","0.0-192.0","3E13VNJ1NOHMSBJ9YOXO918HUHUI1F","A1T4GVQH4P0BO","3RBI0I35XEP26UEZY8S8UZLEA1IY3E","","594.7000000029802","img/flower5.png","75","596","2","0","1","1","1,0.333,0.333,0.333,1,0.333,0.333,0.333,1","1,0.333,0.333,0.333,1,0.333,0.333,0.333,1","1",""
"","html-keyboard-response","193","135560","0.0-193.0","3E13VNJ1NOHMSBJ9YOXO918HUHUI1F","A1T4GVQH4P0BO","3RBI0I35XEP26UEZY8S8UZLEA1IY3E","","null","<img src=""img/flower5.png"" style=""width:200px;border:14px solid red;"">","null","","","","","","","","",""
"","image-keyboard-response","194","136378","0.0-194.0","3E13VNJ1NOHMSBJ9YOXO918HUHUI1F","A1T4GVQH4P0BO","3RBI0I35XEP26UEZY8S8UZLEA1IY3E","","815.0999999940395","img/flower4.png","74","817.0999999940395","1","1","3","1","1,0.333,0.333,0.333,1,0.333,0.333,0.333,1","1,0.333,0.333,0.333,1,0.333,0.333,0.333,1","1",""
"","html-keyboard-response","195","136690","0.0-195.0","3E13VNJ1NOHMSBJ9YOXO918HUHUI1F","A1T4GVQH4P0BO","3RBI0I35XEP26UEZY8S8UZLEA1IY3E","","null","<img src=""img/flower4.png"" style=""width:200px; border:14px solid green;"">","null","","","","","","","","",""
"","image-keyboard-response","196","137460","0.0-196.0","3E13VNJ1NOHMSBJ9YOXO918HUHUI1F","A1T4GVQH4P0BO","3RBI0I35XEP26UEZY8S8UZLEA1IY3E","","767.5","img/flower1.png","76","769.5","3","1","2","1","1,0.333,0.333,0.333,1,0.333,0.333,0.333,1","1,0.333,0.333,0.333,1,0.333,0.333,0.333,1","1",""
"","html-keyboard-response","197","137771","0.0-197.0","3E13VNJ1NOHMSBJ9YOXO918HUHUI1F","A1T4GVQH4P0BO","3RBI0I35XEP26UEZY8S8UZLEA1IY3E","","null","<img src=""img/flower1.png"" style=""width:200px; border:14px solid green;"">","null","","","","","","","","",""
"","image-keyboard-response","198","138241","0.0-198.0","3E13VNJ1NOHMSBJ9YOXO918HUHUI1F","A1T4GVQH4P0BO","3RBI0I35XEP26UEZY8S8UZLEA1IY3E","","467.09999999403954","img/flower1.png","76","469.1000000089407","3","0","2","1","1,0.333,0.333,0.333,1,0.333,0.333,0.333,1","1,0.333,0.333,0.333,1,0.333,0.333,0.333,1","1",""
"","html-keyboard-response","199","138546","0.0-199.0","3E13VNJ1NOHMSBJ9YOXO918HUHUI1F","A1T4GVQH4P0BO","3RBI0I35XEP26UEZY8S8UZLEA1IY3E","","null","<img src=""img/flower1.png"" style=""width:200px;border:14px solid red;"">","null","","","","","","","","",""
"","image-keyboard-response","200","139458","0.0-200.0","3E13VNJ1NOHMSBJ9YOXO918HUHUI1F","A1T4GVQH4P0BO","3RBI0I35XEP26UEZY8S8UZLEA1IY3E","","909.7999999970198","img/flower4.png","75","912","2","1","3","1","1,0.333,0.333,0.333,1,0.333,0.333,0.333,1","1,0.333,0.333,0.333,1,0.333,0.333,0.333,1","1",""
"","html-keyboard-response","201","139773","0.0-201.0","3E13VNJ1NOHMSBJ9YOXO918HUHUI1F","A1T4GVQH4P0BO","3RBI0I35XEP26UEZY8S8UZLEA1IY3E","","null","<img src=""img/flower4.png"" style=""width:200px; border:14px solid green;"">","null","","","","","","","","",""
"","image-keyboard-response","202","140271","0.0-202.0","3E13VNJ1NOHMSBJ9YOXO918HUHUI1F","A1T4GVQH4P0BO","3RBI0I35XEP26UEZY8S8UZLEA1IY3E","","495.1000000089407","img/flower4.png","75","497.20000000298023","2","0","3","1","1,0.333,0.333,0.333,1,0.333,0.333,0.333,1","1,0.333,0.333,0.333,1,0.333,0.333,0.333,1","1",""
"","html-keyboard-response","203","140581","0.0-203.0","3E13VNJ1NOHMSBJ9YOXO918HUHUI1F","A1T4GVQH4P0BO","3RBI0I35XEP26UEZY8S8UZLEA1IY3E","","null","<img src=""img/flower4.png"" style=""width:200px;border:14px solid red;"">","null","","","","","","","","",""
"","image-keyboard-response","204","141468","0.0-204.0","3E13VNJ1NOHMSBJ9YOXO918HUHUI1F","A1T4GVQH4P0BO","3RBI0I35XEP26UEZY8S8UZLEA1IY3E","","884.5","img/flower1.png","74","886.5","1","0","2","1","1,0.333,0.333,0.333,1,0.333,0.333,0.333,1","1,0.333,0.333,0.333,1,0.333,0.333,0.333,1","1",""
"","html-keyboard-response","205","141780","0.0-205.0","3E13VNJ1NOHMSBJ9YOXO918HUHUI1F","A1T4GVQH4P0BO","3RBI0I35XEP26UEZY8S8UZLEA1IY3E","","null","<img src=""img/flower1.png"" style=""width:200px;border:14px solid red;"">","null","","","","","","","","",""
"","image-keyboard-response","206","142512","0.0-206.0","3E13VNJ1NOHMSBJ9YOXO918HUHUI1F","A1T4GVQH4P0BO","3RBI0I35XEP26UEZY8S8UZLEA1IY3E","","729.0999999940395","img/flower1.png","76","730.8999999910593","3","0","2","1","1,0.333,0.333,0.333,1,0.333,0.333,0.333,1","1,0.333,0.333,0.333,1,0.333,0.333,0.333,1","1",""
"","html-keyboard-response","207","142828","0.0-207.0","3E13VNJ1NOHMSBJ9YOXO918HUHUI1F","A1T4GVQH4P0BO","3RBI0I35XEP26UEZY8S8UZLEA1IY3E","","null","<img src=""img/flower1.png"" style=""width:200px;border:14px solid red;"">","null","","","","","","","","",""
"","image-keyboard-response","208","143815","0.0-208.0","3E13VNJ1NOHMSBJ9YOXO918HUHUI1F","A1T4GVQH4P0BO","3RBI0I35XEP26UEZY8S8UZLEA1IY3E","","984","img/flower5.png","74","986.0999999940395","1","1","1","1","1,0.333,0.333,0.333,1,0.333,0.333,0.333,1","1,0.333,0.333,0.333,1,0.333,0.333,0.333,1","1",""
"","html-keyboard-response","209","144123","0.0-209.0","3E13VNJ1NOHMSBJ9YOXO918HUHUI1F","A1T4GVQH4P0BO","3RBI0I35XEP26UEZY8S8UZLEA1IY3E","","null","<img src=""img/flower5.png"" style=""width:200px; border:14px solid green;"">","null","","","","","","","","",""
"","image-keyboard-response","210","144822","0.0-210.0","3E13VNJ1NOHMSBJ9YOXO918HUHUI1F","A1T4GVQH4P0BO","3RBI0I35XEP26UEZY8S8UZLEA1IY3E","","696.3000000119209","img/flower4.png","75","698.1999999880791","2","0","3","1","1,0.333,0.333,0.333,1,0.333,0.333,0.333,1","1,0.333,0.333,0.333,1,0.333,0.333,0.333,1","1",""
"","html-keyboard-response","211","145132","0.0-211.0","3E13VNJ1NOHMSBJ9YOXO918HUHUI1F","A1T4GVQH4P0BO","3RBI0I35XEP26UEZY8S8UZLEA1IY3E","","null","<img src=""img/flower4.png"" style=""width:200px;border:14px solid red;"">","null","","","","","","","","",""
"","image-keyboard-response","212","145472","0.0-212.0","3E13VNJ1NOHMSBJ9YOXO918HUHUI1F","A1T4GVQH4P0BO","3RBI0I35XEP26UEZY8S8UZLEA1IY3E","","338.40000000596046","img/flower4.png","75","339.90000000596046","2","1","3","1","1,0.333,0.333,0.333,1,0.333,0.333,0.333,1","1,0.333,0.333,0.333,1,0.333,0.333,0.333,1","1",""
"","html-keyboard-response","213","145781","0.0-213.0","3E13VNJ1NOHMSBJ9YOXO918HUHUI1F","A1T4GVQH4P0BO","3RBI0I35XEP26UEZY8S8UZLEA1IY3E","","null","<img src=""img/flower4.png"" style=""width:200px; border:14px solid green;"">","null","","","","","","","","",""
"","image-keyboard-response","214","146745","0.0-214.0","3E13VNJ1NOHMSBJ9YOXO918HUHUI1F","A1T4GVQH4P0BO","3RBI0I35XEP26UEZY8S8UZLEA1IY3E","","961.4000000059605","img/flower5.png","76","963.2999999970198","3","1","1","1","1,0.333,0.333,0.333,1,0.333,0.333,0.333,1","1,0.333,0.333,0.333,1,0.333,0.333,0.333,1","1",""
"","html-keyboard-response","215","147057","0.0-215.0","3E13VNJ1NOHMSBJ9YOXO918HUHUI1F","A1T4GVQH4P0BO","3RBI0I35XEP26UEZY8S8UZLEA1IY3E","","null","<img src=""img/flower5.png"" style=""width:200px; border:14px solid green;"">","null","","","","","","","","",""
"","image-keyboard-response","216","147514","0.0-216.0","3E13VNJ1NOHMSBJ9YOXO918HUHUI1F","A1T4GVQH4P0BO","3RBI0I35XEP26UEZY8S8UZLEA1IY3E","","454.40000000596046","img/flower5.png","76","456.3999999910593","3","0","1","1","1,0.333,0.333,0.333,1,0.333,0.333,0.333,1","1,0.333,0.333,0.333,1,0.333,0.333,0.333,1","1",""
"","html-keyboard-response","217","147821","0.0-217.0","3E13VNJ1NOHMSBJ9YOXO918HUHUI1F","A1T4GVQH4P0BO","3RBI0I35XEP26UEZY8S8UZLEA1IY3E","","null","<img src=""img/flower5.png"" style=""width:200px;border:14px solid red;"">","null","","","","","","","","",""
"","image-keyboard-response","218","148199","0.0-218.0","3E13VNJ1NOHMSBJ9YOXO918HUHUI1F","A1T4GVQH4P0BO","3RBI0I35XEP26UEZY8S8UZLEA1IY3E","","375.09999999403954","img/flower5.png","76","377.09999999403954","3","0","1","1","1,0.333,0.333,0.333,1,0.333,0.333,0.333,1","1,0.333,0.333,0.333,1,0.333,0.333,0.333,1","1",""
"","html-keyboard-response","219","148508","0.0-219.0","3E13VNJ1NOHMSBJ9YOXO918HUHUI1F","A1T4GVQH4P0BO","3RBI0I35XEP26UEZY8S8UZLEA1IY3E","","null","<img src=""img/flower5.png"" style=""width:200px;border:14px solid red;"">","null","","","","","","","","",""
"","image-keyboard-response","220","149526","0.0-220.0","3E13VNJ1NOHMSBJ9YOXO918HUHUI1F","A1T4GVQH4P0BO","3RBI0I35XEP26UEZY8S8UZLEA1IY3E","","1016.6999999880791","img/flower1.png","74","1017.5","1","0","2","1","1,0.333,0.333,0.333,1,0.333,0.333,0.333,1","1,0.333,0.333,0.333,1,0.333,0.333,0.333,1","1",""
"","html-keyboard-response","221","149836","0.0-221.0","3E13VNJ1NOHMSBJ9YOXO918HUHUI1F","A1T4GVQH4P0BO","3RBI0I35XEP26UEZY8S8UZLEA1IY3E","","null","<img src=""img/flower1.png"" style=""width:200px;border:14px solid red;"">","null","","","","","","","","",""
"","image-keyboard-response","222","150194","0.0-222.0","3E13VNJ1NOHMSBJ9YOXO918HUHUI1F","A1T4GVQH4P0BO","3RBI0I35XEP26UEZY8S8UZLEA1IY3E","","357.20000000298023","img/flower1.png","75","358.30000001192093","2","1","2","1","1,0.333,0.333,0.333,1,0.333,0.333,0.333,1","1,0.333,0.333,0.333,1,0.333,0.333,0.333,1","1",""
"","html-keyboard-response","223","150500","0.0-223.0","3E13VNJ1NOHMSBJ9YOXO918HUHUI1F","A1T4GVQH4P0BO","3RBI0I35XEP26UEZY8S8UZLEA1IY3E","","null","<img src=""img/flower1.png"" style=""width:200px; border:14px solid green;"">","null","","","","","","","","",""
"","image-keyboard-response","224","151489","0.0-224.0","3E13VNJ1NOHMSBJ9YOXO918HUHUI1F","A1T4GVQH4P0BO","3RBI0I35XEP26UEZY8S8UZLEA1IY3E","","987","img/flower5.png","76","988.6999999880791","3","0","1","1","1,0.333,0.333,0.333,1,0.333,0.333,0.333,1","1,0.333,0.333,0.333,1,0.333,0.333,0.333,1","1",""
"","html-keyboard-response","225","151792","0.0-225.0","3E13VNJ1NOHMSBJ9YOXO918HUHUI1F","A1T4GVQH4P0BO","3RBI0I35XEP26UEZY8S8UZLEA1IY3E","","null","<img src=""img/flower5.png"" style=""width:200px;border:14px solid red;"">","null","","","","","","","","",""
"","image-keyboard-response","226","152469","0.0-226.0","3E13VNJ1NOHMSBJ9YOXO918HUHUI1F","A1T4GVQH4P0BO","3RBI0I35XEP26UEZY8S8UZLEA1IY3E","","674","img/flower4.png","74","676","1","1","3","1","1,0.333,0.333,0.333,1,0.333,0.333,0.333,1","1,0.333,0.333,0.333,1,0.333,0.333,0.333,1","1",""
"","html-keyboard-response","227","152774","0.0-227.0","3E13VNJ1NOHMSBJ9YOXO918HUHUI1F","A1T4GVQH4P0BO","3RBI0I35XEP26UEZY8S8UZLEA1IY3E","","null","<img src=""img/flower4.png"" style=""width:200px; border:14px solid green;"">","null","","","","","","","","",""
"","image-keyboard-response","228","153728","0.0-228.0","3E13VNJ1NOHMSBJ9YOXO918HUHUI1F","A1T4GVQH4P0BO","3RBI0I35XEP26UEZY8S8UZLEA1IY3E","","951.3999999910593","img/flower1.png","75","953.0999999940395","2","1","2","1","1,0.333,0.333,0.333,1,0.333,0.333,0.333,1","1,0.333,0.333,0.333,1,0.333,0.333,0.333,1","1",""
"","html-keyboard-response","229","154038","0.0-229.0","3E13VNJ1NOHMSBJ9YOXO918HUHUI1F","A1T4GVQH4P0BO","3RBI0I35XEP26UEZY8S8UZLEA1IY3E","","null","<img src=""img/flower1.png"" style=""width:200px; border:14px solid green;"">","null","","","","","","","","",""
"","image-keyboard-response","230","155214","0.0-230.0","3E13VNJ1NOHMSBJ9YOXO918HUHUI1F","A1T4GVQH4P0BO","3RBI0I35XEP26UEZY8S8UZLEA1IY3E","","1174.1000000089407","img/flower5.png","76","1175.5999999940395","3","1","1","1","1,0.333,0.333,0.333,1,0.333,0.333,0.333,1","1,0.333,0.333,0.333,1,0.333,0.333,0.333,1","1",""
"","html-keyboard-response","231","155529","0.0-231.0","3E13VNJ1NOHMSBJ9YOXO918HUHUI1F","A1T4GVQH4P0BO","3RBI0I35XEP26UEZY8S8UZLEA1IY3E","","null","<img src=""img/flower5.png"" style=""width:200px; border:14px solid green;"">","null","","","","","","","","",""
"","image-keyboard-response","232","155967","0.0-232.0","3E13VNJ1NOHMSBJ9YOXO918HUHUI1F","A1T4GVQH4P0BO","3RBI0I35XEP26UEZY8S8UZLEA1IY3E","","434.70000000298023","img/flower5.png","76","436.79999999701977","3","0","1","1","1,0.333,0.333,0.333,1,0.333,0.333,0.333,1","1,0.333,0.333,0.333,1,0.333,0.333,0.333,1","1",""
"","html-keyboard-response","233","156275","0.0-233.0","3E13VNJ1NOHMSBJ9YOXO918HUHUI1F","A1T4GVQH4P0BO","3RBI0I35XEP26UEZY8S8UZLEA1IY3E","","null","<img src=""img/flower5.png"" style=""width:200px;border:14px solid red;"">","null","","","","","","","","",""
"","image-keyboard-response","234","157202","0.0-234.0","3E13VNJ1NOHMSBJ9YOXO918HUHUI1F","A1T4GVQH4P0BO","3RBI0I35XEP26UEZY8S8UZLEA1IY3E","","926.2000000029802","img/flower4.png","75","927","2","0","3","1","1,0.333,0.333,0.333,1,0.333,0.333,0.333,1","1,0.333,0.333,0.333,1,0.333,0.333,0.333,1","1",""
"","html-keyboard-response","235","157508","0.0-235.0","3E13VNJ1NOHMSBJ9YOXO918HUHUI1F","A1T4GVQH4P0BO","3RBI0I35XEP26UEZY8S8UZLEA1IY3E","","null","<img src=""img/flower4.png"" style=""width:200px;border:14px solid red;"">","null","","","","","","","","",""
"","image-keyboard-response","236","158167","0.0-236.0","3E13VNJ1NOHMSBJ9YOXO918HUHUI1F","A1T4GVQH4P0BO","3RBI0I35XEP26UEZY8S8UZLEA1IY3E","","656.4000000059605","img/flower5.png","76","658.2999999970198","3","1","1","1","1,0.333,0.333,0.333,1,0.333,0.333,0.333,1","1,0.333,0.333,0.333,1,0.333,0.333,0.333,1","1",""
"","html-keyboard-response","237","158472","0.0-237.0","3E13VNJ1NOHMSBJ9YOXO918HUHUI1F","A1T4GVQH4P0BO","3RBI0I35XEP26UEZY8S8UZLEA1IY3E","","null","<img src=""img/flower5.png"" style=""width:200px; border:14px solid green;"">","null","","","","","","","","",""
"","image-keyboard-response","238","159330","0.0-238.0","3E13VNJ1NOHMSBJ9YOXO918HUHUI1F","A1T4GVQH4P0BO","3RBI0I35XEP26UEZY8S8UZLEA1IY3E","","854.9000000059605","img/flower1.png","74","856.7999999970198","1","1","2","1","1,0.333,0.333,0.333,1,0.333,0.333,0.333,1","1,0.333,0.333,0.333,1,0.333,0.333,0.333,1","1",""
"","html-keyboard-response","239","159638","0.0-239.0","3E13VNJ1NOHMSBJ9YOXO918HUHUI1F","A1T4GVQH4P0BO","3RBI0I35XEP26UEZY8S8UZLEA1IY3E","","null","<img src=""img/flower1.png"" style=""width:200px; border:14px solid green;"">","null","","","","","","","","",""
"","image-keyboard-response","240","160377","0.0-240.0","3E13VNJ1NOHMSBJ9YOXO918HUHUI1F","A1T4GVQH4P0BO","3RBI0I35XEP26UEZY8S8UZLEA1IY3E","","736.4000000059605","img/flower5.png","76","738.2000000029802","3","1","1","1","1,0.333,0.333,0.333,1,0.333,0.333,0.333,1","1,0.333,0.333,0.333,1,0.333,0.333,0.333,1","1",""
"","html-keyboard-response","241","160679","0.0-241.0","3E13VNJ1NOHMSBJ9YOXO918HUHUI1F","A1T4GVQH4P0BO","3RBI0I35XEP26UEZY8S8UZLEA1IY3E","","null","<img src=""img/flower5.png"" style=""width:200px; border:14px solid green;"">","null","","","","","","","","",""
"","image-keyboard-response","242","161229","0.0-242.0","3E13VNJ1NOHMSBJ9YOXO918HUHUI1F","A1T4GVQH4P0BO","3RBI0I35XEP26UEZY8S8UZLEA1IY3E","","547.3999999910593","img/flower4.png","75","549.1000000089407","2","1","3","1","1,0.333,0.333,0.333,1,0.333,0.333,0.333,1","1,0.333,0.333,0.333,1,0.333,0.333,0.333,1","1",""
"","html-keyboard-response","243","161545","0.0-243.0","3E13VNJ1NOHMSBJ9YOXO918HUHUI1F","A1T4GVQH4P0BO","3RBI0I35XEP26UEZY8S8UZLEA1IY3E","","null","<img src=""img/flower4.png"" style=""width:200px; border:14px solid green;"">","null","","","","","","","","",""
"","image-keyboard-response","244","162001","0.0-244.0","3E13VNJ1NOHMSBJ9YOXO918HUHUI1F","A1T4GVQH4P0BO","3RBI0I35XEP26UEZY8S8UZLEA1IY3E","","452.90000000596046","img/flower4.png","75","455","2","0","3","1","1,0.333,0.333,0.333,1,0.333,0.333,0.333,1","1,0.333,0.333,0.333,1,0.333,0.333,0.333,1","1",""
"","html-keyboard-response","245","162318","0.0-245.0","3E13VNJ1NOHMSBJ9YOXO918HUHUI1F","A1T4GVQH4P0BO","3RBI0I35XEP26UEZY8S8UZLEA1IY3E","","null","<img src=""img/flower4.png"" style=""width:200px;border:14px solid red;"">","null","","","","","","","","",""
"","image-keyboard-response","246","163103","0.0-246.0","3E13VNJ1NOHMSBJ9YOXO918HUHUI1F","A1T4GVQH4P0BO","3RBI0I35XEP26UEZY8S8UZLEA1IY3E","","783.1000000089407","img/flower5.png","76","785","3","1","1","1","1,0.333,0.333,0.333,1,0.333,0.333,0.333,1","1,0.333,0.333,0.333,1,0.333,0.333,0.333,1","1",""
"","html-keyboard-response","247","163420","0.0-247.0","3E13VNJ1NOHMSBJ9YOXO918HUHUI1F","A1T4GVQH4P0BO","3RBI0I35XEP26UEZY8S8UZLEA1IY3E","","null","<img src=""img/flower5.png"" style=""width:200px; border:14px solid green;"">","null","","","","","","","","",""
"","image-keyboard-response","248","164031","0.0-248.0","3E13VNJ1NOHMSBJ9YOXO918HUHUI1F","A1T4GVQH4P0BO","3RBI0I35XEP26UEZY8S8UZLEA1IY3E","","609.1999999880791","img/flower4.png","75","611.0999999940395","2","1","3","1","1,0.333,0.333,0.333,1,0.333,0.333,0.333,1","1,0.333,0.333,0.333,1,0.333,0.333,0.333,1","1",""
"","html-keyboard-response","249","164340","0.0-249.0","3E13VNJ1NOHMSBJ9YOXO918HUHUI1F","A1T4GVQH4P0BO","3RBI0I35XEP26UEZY8S8UZLEA1IY3E","","null","<img src=""img/flower4.png"" style=""width:200px; border:14px solid green;"">","null","","","","","","","","",""
"","image-keyboard-response","250","165022","0.0-250.0","3E13VNJ1NOHMSBJ9YOXO918HUHUI1F","A1T4GVQH4P0BO","3RBI0I35XEP26UEZY8S8UZLEA1IY3E","","679.5","img/flower5.png","76","681.4000000059605","3","1","1","1","1,0.333,0.333,0.333,1,0.333,0.333,0.333,1","1,0.333,0.333,0.333,1,0.333,0.333,0.333,1","1",""
"","html-keyboard-response","251","165323","0.0-251.0","3E13VNJ1NOHMSBJ9YOXO918HUHUI1F","A1T4GVQH4P0BO","3RBI0I35XEP26UEZY8S8UZLEA1IY3E","","null","<img src=""img/flower5.png"" style=""width:200px; border:14px solid green;"">","null","","","","","","","","",""
"","image-keyboard-response","252","165954","0.0-252.0","3E13VNJ1NOHMSBJ9YOXO918HUHUI1F","A1T4GVQH4P0BO","3RBI0I35XEP26UEZY8S8UZLEA1IY3E","","628.0999999940395","img/flower4.png","75","629.7999999970198","2","0","3","1","1,0.333,0.333,0.333,1,0.333,0.333,0.333,1","1,0.333,0.333,0.333,1,0.333,0.333,0.333,1","1",""
"","html-keyboard-response","253","166268","0.0-253.0","3E13VNJ1NOHMSBJ9YOXO918HUHUI1F","A1T4GVQH4P0BO","3RBI0I35XEP26UEZY8S8UZLEA1IY3E","","null","<img src=""img/flower4.png"" style=""width:200px;border:14px solid red;"">","null","","","","","","","","",""
"","image-keyboard-response","254","167029","0.0-254.0","3E13VNJ1NOHMSBJ9YOXO918HUHUI1F","A1T4GVQH4P0BO","3RBI0I35XEP26UEZY8S8UZLEA1IY3E","","758.2000000029802","img/flower1.png","74","760.4000000059605","1","1","2","1","1,0.333,0.333,0.333,1,0.333,0.333,0.333,1","1,0.333,0.333,0.333,1,0.333,0.333,0.333,1","1",""
"","html-keyboard-response","255","167345","0.0-255.0","3E13VNJ1NOHMSBJ9YOXO918HUHUI1F","A1T4GVQH4P0BO","3RBI0I35XEP26UEZY8S8UZLEA1IY3E","","null","<img src=""img/flower1.png"" style=""width:200px; border:14px solid green;"">","null","","","","","","","","",""
"","image-keyboard-response","256","168451","0.0-256.0","3E13VNJ1NOHMSBJ9YOXO918HUHUI1F","A1T4GVQH4P0BO","3RBI0I35XEP26UEZY8S8UZLEA1IY3E","","1103.7000000029802","img/flower5.png","75","1105.9000000059605","2","0","1","1","1,0.333,0.333,0.333,1,0.333,0.333,0.333,1","1,0.333,0.333,0.333,1,0.333,0.333,0.333,1","1",""
"","html-keyboard-response","257","168765","0.0-257.0","3E13VNJ1NOHMSBJ9YOXO918HUHUI1F","A1T4GVQH4P0BO","3RBI0I35XEP26UEZY8S8UZLEA1IY3E","","null","<img src=""img/flower5.png"" style=""width:200px;border:14px solid red;"">","null","","","","","","","","",""
"","image-keyboard-response","258","169454","0.0-258.0","3E13VNJ1NOHMSBJ9YOXO918HUHUI1F","A1T4GVQH4P0BO","3RBI0I35XEP26UEZY8S8UZLEA1IY3E","","685.7000000029802","img/flower4.png","75","688.2000000029802","2","0","3","1","1,0.333,0.333,0.333,1,0.333,0.333,0.333,1","1,0.333,0.333,0.333,1,0.333,0.333,0.333,1","1",""
"","html-keyboard-response","259","169757","0.0-259.0","3E13VNJ1NOHMSBJ9YOXO918HUHUI1F","A1T4GVQH4P0BO","3RBI0I35XEP26UEZY8S8UZLEA1IY3E","","null","<img src=""img/flower4.png"" style=""width:200px;border:14px solid red;"">","null","","","","","","","","",""
"","image-keyboard-response","260","170099","0.0-260.0","3E13VNJ1NOHMSBJ9YOXO918HUHUI1F","A1T4GVQH4P0BO","3RBI0I35XEP26UEZY8S8UZLEA1IY3E","","339.79999999701977","img/flower4.png","75","341.40000000596046","2","1","3","1","1,0.333,0.333,0.333,1,0.333,0.333,0.333,1","1,0.333,0.333,0.333,1,0.333,0.333,0.333,1","1",""
"","html-keyboard-response","261","170410","0.0-261.0","3E13VNJ1NOHMSBJ9YOXO918HUHUI1F","A1T4GVQH4P0BO","3RBI0I35XEP26UEZY8S8UZLEA1IY3E","","null","<img src=""img/flower4.png"" style=""width:200px; border:14px solid green;"">","null","","","","","","","","",""
"","image-keyboard-response","262","171378","0.0-262.0","3E13VNJ1NOHMSBJ9YOXO918HUHUI1F","A1T4GVQH4P0BO","3RBI0I35XEP26UEZY8S8UZLEA1IY3E","","965.5","img/flower1.png","74","967.5","1","1","2","1","1,0.333,0.333,0.333,1,0.333,0.333,0.333,1","1,0.333,0.333,0.333,1,0.333,0.333,0.333,1","1",""
"","html-keyboard-response","263","171682","0.0-263.0","3E13VNJ1NOHMSBJ9YOXO918HUHUI1F","A1T4GVQH4P0BO","3RBI0I35XEP26UEZY8S8UZLEA1IY3E","","null","<img src=""img/flower1.png"" style=""width:200px; border:14px solid green;"">","null","","","","","","","","",""
"","image-keyboard-response","264","172281","0.0-264.0","3E13VNJ1NOHMSBJ9YOXO918HUHUI1F","A1T4GVQH4P0BO","3RBI0I35XEP26UEZY8S8UZLEA1IY3E","","596.5","img/flower1.png","74","598.5999999940395","1","1","2","1","1,0.333,0.333,0.333,1,0.333,0.333,0.333,1","1,0.333,0.333,0.333,1,0.333,0.333,0.333,1","1",""
"","html-keyboard-response","265","172595","0.0-265.0","3E13VNJ1NOHMSBJ9YOXO918HUHUI1F","A1T4GVQH4P0BO","3RBI0I35XEP26UEZY8S8UZLEA1IY3E","","null","<img src=""img/flower1.png"" style=""width:200px; border:14px solid green;"">","null","","","","","","","","",""
"","image-keyboard-response","266","173442","0.0-266.0","3E13VNJ1NOHMSBJ9YOXO918HUHUI1F","A1T4GVQH4P0BO","3RBI0I35XEP26UEZY8S8UZLEA1IY3E","","844.5","img/flower5.png","76","846.4000000059605","3","0","1","1","1,0.333,0.333,0.333,1,0.333,0.333,0.333,1","1,0.333,0.333,0.333,1,0.333,0.333,0.333,1","1",""
"","html-keyboard-response","267","173755","0.0-267.0","3E13VNJ1NOHMSBJ9YOXO918HUHUI1F","A1T4GVQH4P0BO","3RBI0I35XEP26UEZY8S8UZLEA1IY3E","","null","<img src=""img/flower5.png"" style=""width:200px;border:14px solid red;"">","null","","","","","","","","",""
"","image-keyboard-response","268","174455","0.0-268.0","3E13VNJ1NOHMSBJ9YOXO918HUHUI1F","A1T4GVQH4P0BO","3RBI0I35XEP26UEZY8S8UZLEA1IY3E","","697.1000000089407","img/flower1.png","74","699.1000000089407","1","0","2","1","1,0.333,0.333,0.333,1,0.333,0.333,0.333,1","1,0.333,0.333,0.333,1,0.333,0.333,0.333,1","1",""
"","html-keyboard-response","269","174764","0.0-269.0","3E13VNJ1NOHMSBJ9YOXO918HUHUI1F","A1T4GVQH4P0BO","3RBI0I35XEP26UEZY8S8UZLEA1IY3E","","null","<img src=""img/flower1.png"" style=""width:200px;border:14px solid red;"">","null","","","","","","","","",""
"","image-keyboard-response","270","175407","0.0-270.0","3E13VNJ1NOHMSBJ9YOXO918HUHUI1F","A1T4GVQH4P0BO","3RBI0I35XEP26UEZY8S8UZLEA1IY3E","","640.7000000029802","img/flower1.png","74","642.7000000029802","1","0","2","1","1,0.333,0.333,0.333,1,0.333,0.333,0.333,1","1,0.333,0.333,0.333,1,0.333,0.333,0.333,1","1",""
"","html-keyboard-response","271","175719","0.0-271.0","3E13VNJ1NOHMSBJ9YOXO918HUHUI1F","A1T4GVQH4P0BO","3RBI0I35XEP26UEZY8S8UZLEA1IY3E","","null","<img src=""img/flower1.png"" style=""width:200px;border:14px solid red;"">","null","","","","","","","","",""
"","image-keyboard-response","272","176140","0.0-272.0","3E13VNJ1NOHMSBJ9YOXO918HUHUI1F","A1T4GVQH4P0BO","3RBI0I35XEP26UEZY8S8UZLEA1IY3E","","418.40000000596046","img/flower1.png","74","420.29999999701977","1","1","2","1","1,0.333,0.333,0.333,1,0.333,0.333,0.333,1","1,0.333,0.333,0.333,1,0.333,0.333,0.333,1","1",""
"","html-keyboard-response","273","176451","0.0-273.0","3E13VNJ1NOHMSBJ9YOXO918HUHUI1F","A1T4GVQH4P0BO","3RBI0I35XEP26UEZY8S8UZLEA1IY3E","","null","<img src=""img/flower1.png"" style=""width:200px; border:14px solid green;"">","null","","","","","","","","",""
"","image-keyboard-response","274","177272","0.0-274.0","3E13VNJ1NOHMSBJ9YOXO918HUHUI1F","A1T4GVQH4P0BO","3RBI0I35XEP26UEZY8S8UZLEA1IY3E","","818.9000000059605","img/flower5.png","76","821","3","0","1","1","1,0.333,0.333,0.333,1,0.333,0.333,0.333,1","1,0.333,0.333,0.333,1,0.333,0.333,0.333,1","1",""
"","html-keyboard-response","275","177591","0.0-275.0","3E13VNJ1NOHMSBJ9YOXO918HUHUI1F","A1T4GVQH4P0BO","3RBI0I35XEP26UEZY8S8UZLEA1IY3E","","null","<img src=""img/flower5.png"" style=""width:200px;border:14px solid red;"">","null","","","","","","","","",""
"","image-keyboard-response","276","178620","0.0-276.0","3E13VNJ1NOHMSBJ9YOXO918HUHUI1F","A1T4GVQH4P0BO","3RBI0I35XEP26UEZY8S8UZLEA1IY3E","","1026.0999999940395","img/flower4.png","75","1028.5","2","0","3","1","1,0.333,0.333,0.333,1,0.333,0.333,0.333,1","1,0.333,0.333,0.333,1,0.333,0.333,0.333,1","1",""
"","html-keyboard-response","277","178923","0.0-277.0","3E13VNJ1NOHMSBJ9YOXO918HUHUI1F","A1T4GVQH4P0BO","3RBI0I35XEP26UEZY8S8UZLEA1IY3E","","null","<img src=""img/flower4.png"" style=""width:200px;border:14px solid red;"">","null","","","","","","","","",""
"","image-keyboard-response","278","179709","0.0-278.0","3E13VNJ1NOHMSBJ9YOXO918HUHUI1F","A1T4GVQH4P0BO","3RBI0I35XEP26UEZY8S8UZLEA1IY3E","","786.5999999940395","img/flower5.png","76","790.3999999910593","3","0","1","1","1,0.333,0.333,0.333,1,0.333,0.333,0.333,1","1,0.333,0.333,0.333,1,0.333,0.333,0.333,1","1",""
"","html-keyboard-response","279","180020","0.0-279.0","3E13VNJ1NOHMSBJ9YOXO918HUHUI1F","A1T4GVQH4P0BO","3RBI0I35XEP26UEZY8S8UZLEA1IY3E","","null","<img src=""img/flower5.png"" style=""width:200px;border:14px solid red;"">","null","","","","","","","","",""
"","image-keyboard-response","280","180572","0.0-280.0","3E13VNJ1NOHMSBJ9YOXO918HUHUI1F","A1T4GVQH4P0BO","3RBI0I35XEP26UEZY8S8UZLEA1IY3E","","550.9000000059605","img/flower4.png","75","552.0999999940395","2","0","3","1","1,0.333,0.333,0.333,1,0.333,0.333,0.333,1","1,0.333,0.333,0.333,1,0.333,0.333,0.333,1","1",""
"","html-keyboard-response","281","180882","0.0-281.0","3E13VNJ1NOHMSBJ9YOXO918HUHUI1F","A1T4GVQH4P0BO","3RBI0I35XEP26UEZY8S8UZLEA1IY3E","","null","<img src=""img/flower4.png"" style=""width:200px;border:14px solid red;"">","null","","","","","","","","",""
"","image-keyboard-response","282","181730","0.0-282.0","3E13VNJ1NOHMSBJ9YOXO918HUHUI1F","A1T4GVQH4P0BO","3RBI0I35XEP26UEZY8S8UZLEA1IY3E","","845.7000000029802","img/flower1.png","74","847.4000000059605","1","0","2","1","1,0.333,0.333,0.333,1,0.333,0.333,0.333,1","1,0.333,0.333,0.333,1,0.333,0.333,0.333,1","1",""
"","html-keyboard-response","283","182038","0.0-283.0","3E13VNJ1NOHMSBJ9YOXO918HUHUI1F","A1T4GVQH4P0BO","3RBI0I35XEP26UEZY8S8UZLEA1IY3E","","null","<img src=""img/flower1.png"" style=""width:200px;border:14px solid red;"">","null","","","","","","","","",""
"","image-keyboard-response","284","182556","0.0-284.0","3E13VNJ1NOHMSBJ9YOXO918HUHUI1F","A1T4GVQH4P0BO","3RBI0I35XEP26UEZY8S8UZLEA1IY3E","","515","img/flower4.png","75","517","2","1","3","1","1,0.333,0.333,0.333,1,0.333,0.333,0.333,1","1,0.333,0.333,0.333,1,0.333,0.333,0.333,1","1",""
"","html-keyboard-response","285","182863","0.0-285.0","3E13VNJ1NOHMSBJ9YOXO918HUHUI1F","A1T4GVQH4P0BO","3RBI0I35XEP26UEZY8S8UZLEA1IY3E","","null","<img src=""img/flower4.png"" style=""width:200px; border:14px solid green;"">","null","","","","","","","","",""
"","image-keyboard-response","286","183343","0.0-286.0","3E13VNJ1NOHMSBJ9YOXO918HUHUI1F","A1T4GVQH4P0BO","3RBI0I35XEP26UEZY8S8UZLEA1IY3E","","477.3999999910593","img/flower1.png","76","479.5","3","0","2","1","1,0.333,0.333,0.333,1,0.333,0.333,0.333,1","1,0.333,0.333,0.333,1,0.333,0.333,0.333,1","1",""
"","html-keyboard-response","287","183646","0.0-287.0","3E13VNJ1NOHMSBJ9YOXO918HUHUI1F","A1T4GVQH4P0BO","3RBI0I35XEP26UEZY8S8UZLEA1IY3E","","null","<img src=""img/flower1.png"" style=""width:200px;border:14px solid red;"">","null","","","","","","","","",""
"","image-keyboard-response","288","184629","0.0-288.0","3E13VNJ1NOHMSBJ9YOXO918HUHUI1F","A1T4GVQH4P0BO","3RBI0I35XEP26UEZY8S8UZLEA1IY3E","","981.2000000029802","img/flower4.png","75","982.5","2","1","3","1","1,0.333,0.333,0.333,1,0.333,0.333,0.333,1","1,0.333,0.333,0.333,1,0.333,0.333,0.333,1","1",""
"","html-keyboard-response","289","184936","0.0-289.0","3E13VNJ1NOHMSBJ9YOXO918HUHUI1F","A1T4GVQH4P0BO","3RBI0I35XEP26UEZY8S8UZLEA1IY3E","","null","<img src=""img/flower4.png"" style=""width:200px; border:14px solid green;"">","null","","","","","","","","",""
"","image-keyboard-response","290","185679","0.0-290.0","3E13VNJ1NOHMSBJ9YOXO918HUHUI1F","A1T4GVQH4P0BO","3RBI0I35XEP26UEZY8S8UZLEA1IY3E","","741.2999999970198","img/flower1.png","74","742.5","1","0","2","1","1,0.333,0.333,0.333,1,0.333,0.333,0.333,1","1,0.333,0.333,0.333,1,0.333,0.333,0.333,1","1",""
"","html-keyboard-response","291","185991","0.0-291.0","3E13VNJ1NOHMSBJ9YOXO918HUHUI1F","A1T4GVQH4P0BO","3RBI0I35XEP26UEZY8S8UZLEA1IY3E","","null","<img src=""img/flower1.png"" style=""width:200px;border:14px solid red;"">","null","","","","","","","","",""
"","image-keyboard-response","292","186876","0.0-292.0","3E13VNJ1NOHMSBJ9YOXO918HUHUI1F","A1T4GVQH4P0BO","3RBI0I35XEP26UEZY8S8UZLEA1IY3E","","883.6000000089407","img/flower5.png","76","885.5","3","0","1","1","1,0.333,0.333,0.333,1,0.333,0.333,0.333,1","1,0.333,0.333,0.333,1,0.333,0.333,0.333,1","1",""
"","html-keyboard-response","293","187191","0.0-293.0","3E13VNJ1NOHMSBJ9YOXO918HUHUI1F","A1T4GVQH4P0BO","3RBI0I35XEP26UEZY8S8UZLEA1IY3E","","null","<img src=""img/flower5.png"" style=""width:200px;border:14px solid red;"">","null","","","","","","","","",""
"","image-keyboard-response","294","187899","0.0-294.0","3E13VNJ1NOHMSBJ9YOXO918HUHUI1F","A1T4GVQH4P0BO","3RBI0I35XEP26UEZY8S8UZLEA1IY3E","","706.2999999970198","img/flower1.png","74","708.5","1","0","2","1","1,0.333,0.333,0.333,1,0.333,0.333,0.333,1","1,0.333,0.333,0.333,1,0.333,0.333,0.333,1","1",""
"","html-keyboard-response","295","188211","0.0-295.0","3E13VNJ1NOHMSBJ9YOXO918HUHUI1F","A1T4GVQH4P0BO","3RBI0I35XEP26UEZY8S8UZLEA1IY3E","","null","<img src=""img/flower1.png"" style=""width:200px;border:14px solid red;"">","null","","","","","","","","",""
"","image-keyboard-response","296","188730","0.0-296.0","3E13VNJ1NOHMSBJ9YOXO918HUHUI1F","A1T4GVQH4P0BO","3RBI0I35XEP26UEZY8S8UZLEA1IY3E","","516.4000000059605","img/flower1.png","74","518.4000000059605","1","0","2","1","1,0.333,0.333,0.333,1,0.333,0.333,0.333,1","1,0.333,0.333,0.333,1,0.333,0.333,0.333,1","1",""
"","html-keyboard-response","297","189046","0.0-297.0","3E13VNJ1NOHMSBJ9YOXO918HUHUI1F","A1T4GVQH4P0BO","3RBI0I35XEP26UEZY8S8UZLEA1IY3E","","null","<img src=""img/flower1.png"" style=""width:200px;border:14px solid red;"">","null","","","","","","","","",""
"","image-keyboard-response","298","189333","0.0-298.0","3E13VNJ1NOHMSBJ9YOXO918HUHUI1F","A1T4GVQH4P0BO","3RBI0I35XEP26UEZY8S8UZLEA1IY3E","","283.79999999701977","img/flower1.png","74","286","1","1","2","1","1,0.333,0.333,0.333,1,0.333,0.333,0.333,1","1,0.333,0.333,0.333,1,0.333,0.333,0.333,1","1",""
"","html-keyboard-response","299","189638","0.0-299.0","3E13VNJ1NOHMSBJ9YOXO918HUHUI1F","A1T4GVQH4P0BO","3RBI0I35XEP26UEZY8S8UZLEA1IY3E","","null","<img src=""img/flower1.png"" style=""width:200px; border:14px solid green;"">","null","","","","","","","","",""
"","image-keyboard-response","300","190420","0.0-300.0","3E13VNJ1NOHMSBJ9YOXO918HUHUI1F","A1T4GVQH4P0BO","3RBI0I35XEP26UEZY8S8UZLEA1IY3E","","779.5","img/flower5.png","76","781.5","3","1","1","1","1,0.333,0.333,0.333,1,0.333,0.333,0.333,1","1,0.333,0.333,0.333,1,0.333,0.333,0.333,1","1",""
"","html-keyboard-response","301","190736","0.0-301.0","3E13VNJ1NOHMSBJ9YOXO918HUHUI1F","A1T4GVQH4P0BO","3RBI0I35XEP26UEZY8S8UZLEA1IY3E","","null","<img src=""img/flower5.png"" style=""width:200px; border:14px solid green;"">","null","","","","","","","","",""
"","image-keyboard-response","302","191187","0.0-302.0","3E13VNJ1NOHMSBJ9YOXO918HUHUI1F","A1T4GVQH4P0BO","3RBI0I35XEP26UEZY8S8UZLEA1IY3E","","448.30000001192093","img/flower5.png","76","450.29999999701977","3","0","1","1","1,0.333,0.333,0.333,1,0.333,0.333,0.333,1","1,0.333,0.333,0.333,1,0.333,0.333,0.333,1","1",""
"","html-keyboard-response","303","191494","0.0-303.0","3E13VNJ1NOHMSBJ9YOXO918HUHUI1F","A1T4GVQH4P0BO","3RBI0I35XEP26UEZY8S8UZLEA1IY3E","","null","<img src=""img/flower5.png"" style=""width:200px;border:14px solid red;"">","null","","","","","","","","",""
"","image-keyboard-response","304","191788","0.0-304.0","3E13VNJ1NOHMSBJ9YOXO918HUHUI1F","A1T4GVQH4P0BO","3RBI0I35XEP26UEZY8S8UZLEA1IY3E","","291.20000000298023","img/flower5.png","76","293.30000001192093","3","1","1","1","1,0.333,0.333,0.333,1,0.333,0.333,0.333,1","1,0.333,0.333,0.333,1,0.333,0.333,0.333,1","1",""
"","html-keyboard-response","305","192101","0.0-305.0","3E13VNJ1NOHMSBJ9YOXO918HUHUI1F","A1T4GVQH4P0BO","3RBI0I35XEP26UEZY8S8UZLEA1IY3E","","null","<img src=""img/flower5.png"" style=""width:200px; border:14px solid green;"">","null","","","","","","","","",""
"","image-keyboard-response","306","192865","0.0-306.0","3E13VNJ1NOHMSBJ9YOXO918HUHUI1F","A1T4GVQH4P0BO","3RBI0I35XEP26UEZY8S8UZLEA1IY3E","","760.9000000059605","img/flower1.png","74","763","1","0","2","1","1,0.333,0.333,0.333,1,0.333,0.333,0.333,1","1,0.333,0.333,0.333,1,0.333,0.333,0.333,1","1",""
"","html-keyboard-response","307","193168","0.0-307.0","3E13VNJ1NOHMSBJ9YOXO918HUHUI1F","A1T4GVQH4P0BO","3RBI0I35XEP26UEZY8S8UZLEA1IY3E","","null","<img src=""img/flower1.png"" style=""width:200px;border:14px solid red;"">","null","","","","","","","","",""
"","image-keyboard-response","308","193873","0.0-308.0","3E13VNJ1NOHMSBJ9YOXO918HUHUI1F","A1T4GVQH4P0BO","3RBI0I35XEP26UEZY8S8UZLEA1IY3E","","702.7000000029802","img/flower4.png","75","704.2999999970198","2","1","3","1","1,0.333,0.333,0.333,1,0.333,0.333,0.333,1","1,0.333,0.333,0.333,1,0.333,0.333,0.333,1","1",""
"","html-keyboard-response","309","194177","0.0-309.0","3E13VNJ1NOHMSBJ9YOXO918HUHUI1F","A1T4GVQH4P0BO","3RBI0I35XEP26UEZY8S8UZLEA1IY3E","","null","<img src=""img/flower4.png"" style=""width:200px; border:14px solid green;"">","null","","","","","","","","",""
"","image-keyboard-response","310","194599","0.0-310.0","3E13VNJ1NOHMSBJ9YOXO918HUHUI1F","A1T4GVQH4P0BO","3RBI0I35XEP26UEZY8S8UZLEA1IY3E","","419","img/flower4.png","75","421.1000000089407","2","0","3","1","1,0.333,0.333,0.333,1,0.333,0.333,0.333,1","1,0.333,0.333,0.333,1,0.333,0.333,0.333,1","1",""
"","html-keyboard-response","311","194913","0.0-311.0","3E13VNJ1NOHMSBJ9YOXO918HUHUI1F","A1T4GVQH4P0BO","3RBI0I35XEP26UEZY8S8UZLEA1IY3E","","null","<img src=""img/flower4.png"" style=""width:200px;border:14px solid red;"">","null","","","","","","","","",""
"","image-keyboard-response","312","195581","0.0-312.0","3E13VNJ1NOHMSBJ9YOXO918HUHUI1F","A1T4GVQH4P0BO","3RBI0I35XEP26UEZY8S8UZLEA1IY3E","","665.4000000059605","img/flower5.png","76","667.5","3","0","1","1","1,0.333,0.333,0.333,1,0.333,0.333,0.333,1","1,0.333,0.333,0.333,1,0.333,0.333,0.333,1","1",""
"","html-keyboard-response","313","195888","0.0-313.0","3E13VNJ1NOHMSBJ9YOXO918HUHUI1F","A1T4GVQH4P0BO","3RBI0I35XEP26UEZY8S8UZLEA1IY3E","","null","<img src=""img/flower5.png"" style=""width:200px;border:14px solid red;"">","null","","","","","","","","",""
"","image-keyboard-response","314","197115","0.0-314.0","3E13VNJ1NOHMSBJ9YOXO918HUHUI1F","A1T4GVQH4P0BO","3RBI0I35XEP26UEZY8S8UZLEA1IY3E","","1224.800000011921","img/flower1.png","74","1227","1","0","2","1","1,0.333,0.333,0.333,1,0.333,0.333,0.333,1","1,0.333,0.333,0.333,1,0.333,0.333,0.333,1","1",""
"","html-keyboard-response","315","197432","0.0-315.0","3E13VNJ1NOHMSBJ9YOXO918HUHUI1F","A1T4GVQH4P0BO","3RBI0I35XEP26UEZY8S8UZLEA1IY3E","","null","<img src=""img/flower1.png"" style=""width:200px;border:14px solid red;"">","null","","","","","","","","",""
"","image-keyboard-response","316","197962","0.0-316.0","3E13VNJ1NOHMSBJ9YOXO918HUHUI1F","A1T4GVQH4P0BO","3RBI0I35XEP26UEZY8S8UZLEA1IY3E","","527.4000000059605","img/flower4.png","75","529.4000000059605","2","0","3","1","1,0.333,0.333,0.333,1,0.333,0.333,0.333,1","1,0.333,0.333,0.333,1,0.333,0.333,0.333,1","1",""
"","html-keyboard-response","317","198267","0.0-317.0","3E13VNJ1NOHMSBJ9YOXO918HUHUI1F","A1T4GVQH4P0BO","3RBI0I35XEP26UEZY8S8UZLEA1IY3E","","null","<img src=""img/flower4.png"" style=""width:200px;border:14px solid red;"">","null","","","","","","","","",""
"","image-keyboard-response","318","198945","0.0-318.0","3E13VNJ1NOHMSBJ9YOXO918HUHUI1F","A1T4GVQH4P0BO","3RBI0I35XEP26UEZY8S8UZLEA1IY3E","","675.2999999970198","img/flower5.png","76","677.2000000029802","3","0","1","1","1,0.333,0.333,0.333,1,0.333,0.333,0.333,1","1,0.333,0.333,0.333,1,0.333,0.333,0.333,1","1",""
"","html-keyboard-response","319","199251","0.0-319.0","3E13VNJ1NOHMSBJ9YOXO918HUHUI1F","A1T4GVQH4P0BO","3RBI0I35XEP26UEZY8S8UZLEA1IY3E","","null","<img src=""img/flower5.png"" style=""width:200px;border:14px solid red;"">","null","","","","","","","","",""
"","image-keyboard-response","320","199944","0.0-320.0","3E13VNJ1NOHMSBJ9YOXO918HUHUI1F","A1T4GVQH4P0BO","3RBI0I35XEP26UEZY8S8UZLEA1IY3E","","691.2999999970198","img/flower1.png","75","693.0999999940395","2","1","2","1","1,0.333,0.333,0.333,1,0.333,0.333,0.333,1","1,0.333,0.333,0.333,1,0.333,0.333,0.333,1","1",""
"","html-keyboard-response","321","200252","0.0-321.0","3E13VNJ1NOHMSBJ9YOXO918HUHUI1F","A1T4GVQH4P0BO","3RBI0I35XEP26UEZY8S8UZLEA1IY3E","","null","<img src=""img/flower1.png"" style=""width:200px; border:14px solid green;"">","null","","","","","","","","",""
"","image-keyboard-response","322","200608","0.0-322.0","3E13VNJ1NOHMSBJ9YOXO918HUHUI1F","A1T4GVQH4P0BO","3RBI0I35XEP26UEZY8S8UZLEA1IY3E","","354.19999998807907","img/flower1.png","74","356.20000000298023","1","0","2","1","1,0.333,0.333,0.333,1,0.333,0.333,0.333,1","1,0.333,0.333,0.333,1,0.333,0.333,0.333,1","1",""
"","html-keyboard-response","323","200915","0.0-323.0","3E13VNJ1NOHMSBJ9YOXO918HUHUI1F","A1T4GVQH4P0BO","3RBI0I35XEP26UEZY8S8UZLEA1IY3E","","null","<img src=""img/flower1.png"" style=""width:200px;border:14px solid red;"">","null","","","","","","","","",""
"","image-keyboard-response","324","201645","0.0-324.0","3E13VNJ1NOHMSBJ9YOXO918HUHUI1F","A1T4GVQH4P0BO","3RBI0I35XEP26UEZY8S8UZLEA1IY3E","","727.2000000029802","img/flower4.png","75","729.0999999940395","2","0","3","1","1,0.333,0.333,0.333,1,0.333,0.333,0.333,1","1,0.333,0.333,0.333,1,0.333,0.333,0.333,1","1",""
"","html-keyboard-response","325","201962","0.0-325.0","3E13VNJ1NOHMSBJ9YOXO918HUHUI1F","A1T4GVQH4P0BO","3RBI0I35XEP26UEZY8S8UZLEA1IY3E","","null","<img src=""img/flower4.png"" style=""width:200px;border:14px solid red;"">","null","","","","","","","","",""
"","image-keyboard-response","326","202587","0.0-326.0","3E13VNJ1NOHMSBJ9YOXO918HUHUI1F","A1T4GVQH4P0BO","3RBI0I35XEP26UEZY8S8UZLEA1IY3E","","622.9000000059605","img/flower5.png","76","624.7000000029802","3","0","1","1","1,0.333,0.333,0.333,1,0.333,0.333,0.333,1","1,0.333,0.333,0.333,1,0.333,0.333,0.333,1","1",""
"","html-keyboard-response","327","202905","0.0-327.0","3E13VNJ1NOHMSBJ9YOXO918HUHUI1F","A1T4GVQH4P0BO","3RBI0I35XEP26UEZY8S8UZLEA1IY3E","","null","<img src=""img/flower5.png"" style=""width:200px;border:14px solid red;"">","null","","","","","","","","",""
"","image-keyboard-response","328","203235","0.0-328.0","3E13VNJ1NOHMSBJ9YOXO918HUHUI1F","A1T4GVQH4P0BO","3RBI0I35XEP26UEZY8S8UZLEA1IY3E","","327.40000000596046","img/flower5.png","76","329.5","3","1","1","1","1,0.333,0.333,0.333,1,0.333,0.333,0.333,1","1,0.333,0.333,0.333,1,0.333,0.333,0.333,1","1",""
"","html-keyboard-response","329","203552","0.0-329.0","3E13VNJ1NOHMSBJ9YOXO918HUHUI1F","A1T4GVQH4P0BO","3RBI0I35XEP26UEZY8S8UZLEA1IY3E","","null","<img src=""img/flower5.png"" style=""width:200px; border:14px solid green;"">","null","","","","","","","","",""
"","image-keyboard-response","330","204422","0.0-330.0","3E13VNJ1NOHMSBJ9YOXO918HUHUI1F","A1T4GVQH4P0BO","3RBI0I35XEP26UEZY8S8UZLEA1IY3E","","868.0999999940395","img/flower4.png","75","870.0999999940395","2","0","3","1","1,0.333,0.333,0.333,1,0.333,0.333,0.333,1","1,0.333,0.333,0.333,1,0.333,0.333,0.333,1","1",""
"","html-keyboard-response","331","204733","0.0-331.0","3E13VNJ1NOHMSBJ9YOXO918HUHUI1F","A1T4GVQH4P0BO","3RBI0I35XEP26UEZY8S8UZLEA1IY3E","","null","<img src=""img/flower4.png"" style=""width:200px;border:14px solid red;"">","null","","","","","","","","",""
"","image-keyboard-response","332","205940","0.0-332.0","3E13VNJ1NOHMSBJ9YOXO918HUHUI1F","A1T4GVQH4P0BO","3RBI0I35XEP26UEZY8S8UZLEA1IY3E","","1204.5","img/flower5.png","76","1206.6000000089407","3","1","1","1","1,0.333,0.333,0.333,1,0.333,0.333,0.333,1","1,0.333,0.333,0.333,1,0.333,0.333,0.333,1","1",""
"","html-keyboard-response","333","206247","0.0-333.0","3E13VNJ1NOHMSBJ9YOXO918HUHUI1F","A1T4GVQH4P0BO","3RBI0I35XEP26UEZY8S8UZLEA1IY3E","","null","<img src=""img/flower5.png"" style=""width:200px; border:14px solid green;"">","null","","","","","","","","",""
"","image-keyboard-response","334","206887","0.0-334.0","3E13VNJ1NOHMSBJ9YOXO918HUHUI1F","A1T4GVQH4P0BO","3RBI0I35XEP26UEZY8S8UZLEA1IY3E","","637.9000000059605","img/flower1.png","74","640","1","0","2","1","1,0.333,0.333,0.333,1,0.333,0.333,0.333,1","1,0.333,0.333,0.333,1,0.333,0.333,0.333,1","1",""
"","html-keyboard-response","335","207199","0.0-335.0","3E13VNJ1NOHMSBJ9YOXO918HUHUI1F","A1T4GVQH4P0BO","3RBI0I35XEP26UEZY8S8UZLEA1IY3E","","null","<img src=""img/flower1.png"" style=""width:200px;border:14px solid red;"">","null","","","","","","","","",""
"","image-keyboard-response","336","208011","0.0-336.0","3E13VNJ1NOHMSBJ9YOXO918HUHUI1F","A1T4GVQH4P0BO","3RBI0I35XEP26UEZY8S8UZLEA1IY3E","","809.6000000089407","img/flower5.png","76","811.5","3","1","1","1","1,0.333,0.333,0.333,1,0.333,0.333,0.333,1","1,0.333,0.333,0.333,1,0.333,0.333,0.333,1","1",""
"","html-keyboard-response","337","208320","0.0-337.0","3E13VNJ1NOHMSBJ9YOXO918HUHUI1F","A1T4GVQH4P0BO","3RBI0I35XEP26UEZY8S8UZLEA1IY3E","","null","<img src=""img/flower5.png"" style=""width:200px; border:14px solid green;"">","null","","","","","","","","",""
"","image-keyboard-response","338","209013","0.0-338.0","3E13VNJ1NOHMSBJ9YOXO918HUHUI1F","A1T4GVQH4P0BO","3RBI0I35XEP26UEZY8S8UZLEA1IY3E","","690.9000000059605","img/flower1.png","74","693","1","0","2","1","1,0.333,0.333,0.333,1,0.333,0.333,0.333,1","1,0.333,0.333,0.333,1,0.333,0.333,0.333,1","1",""
"","html-keyboard-response","339","209317","0.0-339.0","3E13VNJ1NOHMSBJ9YOXO918HUHUI1F","A1T4GVQH4P0BO","3RBI0I35XEP26UEZY8S8UZLEA1IY3E","","null","<img src=""img/flower1.png"" style=""width:200px;border:14px solid red;"">","null","","","","","","","","",""
"","image-keyboard-response","340","209838","0.0-340.0","3E13VNJ1NOHMSBJ9YOXO918HUHUI1F","A1T4GVQH4P0BO","3RBI0I35XEP26UEZY8S8UZLEA1IY3E","","519.3000000119209","img/flower4.png","75","521.1999999880791","2","1","3","1","1,0.333,0.333,0.333,1,0.333,0.333,0.333,1","1,0.333,0.333,0.333,1,0.333,0.333,0.333,1","1",""
"","html-keyboard-response","341","210147","0.0-341.0","3E13VNJ1NOHMSBJ9YOXO918HUHUI1F","A1T4GVQH4P0BO","3RBI0I35XEP26UEZY8S8UZLEA1IY3E","","null","<img src=""img/flower4.png"" style=""width:200px; border:14px solid green;"">","null","","","","","","","","",""
"","image-keyboard-response","342","210461","0.0-342.0","3E13VNJ1NOHMSBJ9YOXO918HUHUI1F","A1T4GVQH4P0BO","3RBI0I35XEP26UEZY8S8UZLEA1IY3E","","313.09999999403954","img/flower4.png","75","314.3999999910593","2","0","3","1","1,0.333,0.333,0.333,1,0.333,0.333,0.333,1","1,0.333,0.333,0.333,1,0.333,0.333,0.333,1","1",""
"","html-keyboard-response","343","210766","0.0-343.0","3E13VNJ1NOHMSBJ9YOXO918HUHUI1F","A1T4GVQH4P0BO","3RBI0I35XEP26UEZY8S8UZLEA1IY3E","","null","<img src=""img/flower4.png"" style=""width:200px;border:14px solid red;"">","null","","","","","","","","",""
"","image-keyboard-response","344","211037","0.0-344.0","3E13VNJ1NOHMSBJ9YOXO918HUHUI1F","A1T4GVQH4P0BO","3RBI0I35XEP26UEZY8S8UZLEA1IY3E","","270.20000000298023","img/flower4.png","75","271.5","2","0","3","1","1,0.333,0.333,0.333,1,0.333,0.333,0.333,1","1,0.333,0.333,0.333,1,0.333,0.333,0.333,1","1",""
"","html-keyboard-response","345","211352","0.0-345.0","3E13VNJ1NOHMSBJ9YOXO918HUHUI1F","A1T4GVQH4P0BO","3RBI0I35XEP26UEZY8S8UZLEA1IY3E","","null","<img src=""img/flower4.png"" style=""width:200px;border:14px solid red;"">","null","","","","","","","","",""
"","image-keyboard-response","346","211656","0.0-346.0","3E13VNJ1NOHMSBJ9YOXO918HUHUI1F","A1T4GVQH4P0BO","3RBI0I35XEP26UEZY8S8UZLEA1IY3E","","302.29999999701977","img/flower4.png","75","304","2","1","3","1","1,0.333,0.333,0.333,1,0.333,0.333,0.333,1","1,0.333,0.333,0.333,1,0.333,0.333,0.333,1","1",""
"","html-keyboard-response","347","211962","0.0-347.0","3E13VNJ1NOHMSBJ9YOXO918HUHUI1F","A1T4GVQH4P0BO","3RBI0I35XEP26UEZY8S8UZLEA1IY3E","","null","<img src=""img/flower4.png"" style=""width:200px; border:14px solid green;"">","null","","","","","","","","",""
"","image-keyboard-response","348","213112","0.0-348.0","3E13VNJ1NOHMSBJ9YOXO918HUHUI1F","A1T4GVQH4P0BO","3RBI0I35XEP26UEZY8S8UZLEA1IY3E","","1149.199999988079","img/flower1.png","74","1150.3999999910593","1","0","2","1","1,0.333,0.333,0.333,1,0.333,0.333,0.333,1","1,0.333,0.333,0.333,1,0.333,0.333,0.333,1","1",""
"","html-keyboard-response","349","213419","0.0-349.0","3E13VNJ1NOHMSBJ9YOXO918HUHUI1F","A1T4GVQH4P0BO","3RBI0I35XEP26UEZY8S8UZLEA1IY3E","","null","<img src=""img/flower1.png"" style=""width:200px;border:14px solid red;"">","null","","","","","","","","",""
"","image-keyboard-response","350","214375","0.0-350.0","3E13VNJ1NOHMSBJ9YOXO918HUHUI1F","A1T4GVQH4P0BO","3RBI0I35XEP26UEZY8S8UZLEA1IY3E","","953.7000000029802","img/flower5.png","76","955.5999999940395","3","0","1","1","1,0.333,0.333,0.333,1,0.333,0.333,0.333,1","1,0.333,0.333,0.333,1,0.333,0.333,0.333,1","1",""
"","html-keyboard-response","351","214680","0.0-351.0","3E13VNJ1NOHMSBJ9YOXO918HUHUI1F","A1T4GVQH4P0BO","3RBI0I35XEP26UEZY8S8UZLEA1IY3E","","null","<img src=""img/flower5.png"" style=""width:200px;border:14px solid red;"">","null","","","","","","","","",""
"","image-keyboard-response","352","215425","0.0-352.0","3E13VNJ1NOHMSBJ9YOXO918HUHUI1F","A1T4GVQH4P0BO","3RBI0I35XEP26UEZY8S8UZLEA1IY3E","","742.3999999910593","img/flower4.png","75","744.2000000029802","2","0","3","1","1,0.333,0.333,0.333,1,0.333,0.333,0.333,1","1,0.333,0.333,0.333,1,0.333,0.333,0.333,1","1",""
"","html-keyboard-response","353","215729","0.0-353.0","3E13VNJ1NOHMSBJ9YOXO918HUHUI1F","A1T4GVQH4P0BO","3RBI0I35XEP26UEZY8S8UZLEA1IY3E","","null","<img src=""img/flower4.png"" style=""width:200px;border:14px solid red;"">","null","","","","","","","","",""
"","image-keyboard-response","354","216443","0.0-354.0","3E13VNJ1NOHMSBJ9YOXO918HUHUI1F","A1T4GVQH4P0BO","3RBI0I35XEP26UEZY8S8UZLEA1IY3E","","712.6000000089407","img/flower1.png","74","713.5999999940395","1","1","2","1","1,0.333,0.333,0.333,1,0.333,0.333,0.333,1","1,0.333,0.333,0.333,1,0.333,0.333,0.333,1","1",""
"","html-keyboard-response","355","216752","0.0-355.0","3E13VNJ1NOHMSBJ9YOXO918HUHUI1F","A1T4GVQH4P0BO","3RBI0I35XEP26UEZY8S8UZLEA1IY3E","","null","<img src=""img/flower1.png"" style=""width:200px; border:14px solid green;"">","null","","","","","","","","",""
"","image-keyboard-response","356","217404","0.0-356.0","3E13VNJ1NOHMSBJ9YOXO918HUHUI1F","A1T4GVQH4P0BO","3RBI0I35XEP26UEZY8S8UZLEA1IY3E","","651.8999999910593","img/flower5.png","76","652.7000000029802","3","0","1","1","1,0.333,0.333,0.333,1,0.333,0.333,0.333,1","1,0.333,0.333,0.333,1,0.333,0.333,0.333,1","1",""
"","html-keyboard-response","357","217714","0.0-357.0","3E13VNJ1NOHMSBJ9YOXO918HUHUI1F","A1T4GVQH4P0BO","3RBI0I35XEP26UEZY8S8UZLEA1IY3E","","null","<img src=""img/flower5.png"" style=""width:200px;border:14px solid red;"">","null","","","","","","","","",""
"","image-keyboard-response","358","218213","0.0-358.0","3E13VNJ1NOHMSBJ9YOXO918HUHUI1F","A1T4GVQH4P0BO","3RBI0I35XEP26UEZY8S8UZLEA1IY3E","","497.20000000298023","img/flower5.png","76","498.5","3","0","1","1","1,0.333,0.333,0.333,1,0.333,0.333,0.333,1","1,0.333,0.333,0.333,1,0.333,0.333,0.333,1","1",""
"","html-keyboard-response","359","218517","0.0-359.0","3E13VNJ1NOHMSBJ9YOXO918HUHUI1F","A1T4GVQH4P0BO","3RBI0I35XEP26UEZY8S8UZLEA1IY3E","","null","<img src=""img/flower5.png"" style=""width:200px;border:14px solid red;"">","null","","","","","","","","",""
"","image-keyboard-response","360","219421","0.0-360.0","3E13VNJ1NOHMSBJ9YOXO918HUHUI1F","A1T4GVQH4P0BO","3RBI0I35XEP26UEZY8S8UZLEA1IY3E","","901.8999999910593","img/flower4.png","75","904","2","0","3","1","1,0.333,0.333,0.333,1,0.333,0.333,0.333,1","1,0.333,0.333,0.333,1,0.333,0.333,0.333,1","1",""
"","html-keyboard-response","361","219729","0.0-361.0","3E13VNJ1NOHMSBJ9YOXO918HUHUI1F","A1T4GVQH4P0BO","3RBI0I35XEP26UEZY8S8UZLEA1IY3E","","null","<img src=""img/flower4.png"" style=""width:200px;border:14px solid red;"">","null","","","","","","","","",""
"","html-keyboard-response","362","221403","0.0-362.0","3E13VNJ1NOHMSBJ9YOXO918HUHUI1F","A1T4GVQH4P0BO","3RBI0I35XEP26UEZY8S8UZLEA1IY3E","","","","","","","","","","","","",""
"","instructions","363","223632","0.0-363.0","3E13VNJ1NOHMSBJ9YOXO918HUHUI1F","A1T4GVQH4P0BO","3RBI0I35XEP26UEZY8S8UZLEA1IY3E","[{""page_index"":0,""viewing_time"":2227.5}]","2227.7999999970198","","","","","","","","","","",""
"","survey-text","364","228023","0.0-364.0","3E13VNJ1NOHMSBJ9YOXO918HUHUI1F","A1T4GVQH4P0BO","3RBI0I35XEP26UEZY8S8UZLEA1IY3E","","4384.0999999940395","","","","","","","","","","","{""Q0"":""A1T4GVQH4P0BO""}"
