"success","trial_type","trial_index","time_elapsed","internal_node_id","assignmentID","mturkID","hitID","view_history","rt","stimulus","key_press","reactionTime","a","r","s","cond","reward_cond","reward_cond_actual","reward_matrix_idx","responses"
"true","fullscreen","0","6427","0.0-0.0","","","","","","","","","","","","","","","",""
"","instructions","1","18522","0.0-1.0","","","","[{""page_index"":0,""viewing_time"":1507.5},{""page_index"":1,""viewing_time"":1080.199999988079},{""page_index"":2,""viewing_time"":1296.5},{""page_index"":3,""viewing_time"":817.5},{""page_index"":4,""viewing_time"":1998.2000000029802},{""page_index"":5,""viewing_time"":1550},{""page_index"":6,""viewing_time"":1303.9000000059605},{""page_index"":7,""viewing_time"":2538.2000000029802}]","12092.29999999702","","","","","","","","","","",""
"","image-keyboard-response","2","19822","0.0-2.0","","","","","1297.7999999970198","img/flower4.png","74","1299.9000000059605","1","1","2","2","1,0,0,1,1,0,1,0,1","0,0,1,1,0,1,0,1,1","2",""
"","html-keyboard-response","3","20135","0.0-3.0","","","","","null","<img src=""img/flower4.png"" style=""width:200px; border:14px solid green;"">","null","","","","","","","","",""
"","image-keyboard-response","4","20924","0.0-4.0","","","","","787.9000000059605","img/flower1.png","75","788.7999999970198","2","0","1","2","1,0,0,1,1,0,1,0,1","0,0,1,1,0,1,0,1,1","2",""
"","html-keyboard-response","5","21229","0.0-5.0","","","","","null","<img src=""img/flower1.png"" style=""width:200px;border:14px solid red;"">","null","","","","","","","","",""
"","image-keyboard-response","6","21742","0.0-6.0","","","","","510.90000000596046","img/flower1.png","76","512.2000000029802","3","1","1","2","1,0,0,1,1,0,1,0,1","0,0,1,1,0,1,0,1,1","2",""
"","html-keyboard-response","7","22053","0.0-7.0","","","","","null","<img src=""img/flower1.png"" style=""width:200px; border:14px solid green;"">","null","","","","","","","","",""
"","image-keyboard-response","8","22738","0.0-8.0","","","","","684.5999999940395","img/flower4.png","74","685.4000000059605","1","1","2","2","1,0,0,1,1,0,1,0,1","0,0,1,1,0,1,0,1,1","2",""
"","html-keyboard-response","9","23045","0.0-9.0","","","","","null","<img src=""img/flower4.png"" style=""width:200px; border:14px solid green;"">","null","","","","","","","","",""
"","image-keyboard-response","10","23745","0.0-10.0","","","","","698.8999999910593","img/flower3.png","75","699.7000000029802","2","1","3","2","1,0,0,1,1,0,1,0,1","0,0,1,1,0,1,0,1,1","2",""
"","html-keyboard-response","11","24051","0.0-11.0","","","","","null","<img src=""img/flower3.png"" style=""width:200px; border:14px solid green;"">","null","","","","","","","","",""
"","image-keyboard-response","12","24682","0.0-12.0","","","","","628.7000000029802","img/flower1.png","76","630","3","1","1","2","1,0,0,1,1,0,1,0,1","0,0,1,1,0,1,0,1,1","2",""
"","html-keyboard-response","13","24986","0.0-13.0","","","","","null","<img src=""img/flower1.png"" style=""width:200px; border:14px solid green;"">","null","","","","","","","","",""
"","image-keyboard-response","14","25542","0.0-14.0","","","","","554.5","img/flower4.png","74","555.5","1","1","2","2","1,0,0,1,1,0,1,0,1","0,0,1,1,0,1,0,1,1","2",""
"","html-keyboard-response","15","25852","0.0-15.0","","","","","null","<img src=""img/flower4.png"" style=""width:200px; border:14px solid green;"">","null","","","","","","","","",""
"","image-keyboard-response","16","26510","0.0-16.0","","","","","656.0999999940395","img/flower1.png","76","657.5999999940395","3","1","1","2","1,0,0,1,1,0,1,0,1","0,0,1,1,0,1,0,1,1","2",""
"","html-keyboard-response","17","26819","0.0-17.0","","","","","null","<img src=""img/flower1.png"" style=""width:200px; border:14px solid green;"">","null","","","","","","","","",""
"","image-keyboard-response","18","27327","0.0-18.0","","","","","506.40000000596046","img/flower4.png","74","507.6000000089407","1","1","2","2","1,0,0,1,1,0,1,0,1","0,0,1,1,0,1,0,1,1","2",""
"","html-keyboard-response","19","27629","0.0-19.0","","","","","null","<img src=""img/flower4.png"" style=""width:200px; border:14px solid green;"">","null","","","","","","","","",""
"","image-keyboard-response","20","28157","0.0-20.0","","","","","527.2000000029802","img/flower3.png","75","527.7999999970198","2","1","3","2","1,0,0,1,1,0,1,0,1","0,0,1,1,0,1,0,1,1","2",""
"","html-keyboard-response","21","28460","0.0-21.0","","","","","null","<img src=""img/flower3.png"" style=""width:200px; border:14px solid green;"">","null","","","","","","","","",""
"","image-keyboard-response","22","29006","0.0-22.0","","","","","545.5999999940395","img/flower1.png","76","546.2999999970198","3","1","1","2","1,0,0,1,1,0,1,0,1","0,0,1,1,0,1,0,1,1","2",""
"","html-keyboard-response","23","29307","0.0-23.0","","","","","null","<img src=""img/flower1.png"" style=""width:200px; border:14px solid green;"">","null","","","","","","","","",""
"","image-keyboard-response","24","29767","0.0-24.0","","","","","457.90000000596046","img/flower1.png","76","458.79999999701977","3","1","1","2","1,0,0,1,1,0,1,0,1","0,0,1,1,0,1,0,1,1","2",""
"","html-keyboard-response","25","30068","0.0-25.0","","","","","null","<img src=""img/flower1.png"" style=""width:200px; border:14px solid green;"">","null","","","","","","","","",""
"","image-keyboard-response","26","30403","0.0-26.0","","","","","333.79999999701977","img/flower1.png","76","335","3","1","1","2","1,0,0,1,1,0,1,0,1","0,0,1,1,0,1,0,1,1","2",""
"","html-keyboard-response","27","30705","0.0-27.0","","","","","null","<img src=""img/flower1.png"" style=""width:200px; border:14px solid green;"">","null","","","","","","","","",""
"","image-keyboard-response","28","31195","0.0-28.0","","","","","488.5","img/flower4.png","74","489.70000000298023","1","1","2","2","1,0,0,1,1,0,1,0,1","0,0,1,1,0,1,0,1,1","2",""
"","html-keyboard-response","29","31509","0.0-29.0","","","","","null","<img src=""img/flower4.png"" style=""width:200px; border:14px solid green;"">","null","","","","","","","","",""
"","image-keyboard-response","30","32146","0.0-30.0","","","","","636.2999999970198","img/flower3.png","75","636.7999999970198","2","1","3","2","1,0,0,1,1,0,1,0,1","0,0,1,1,0,1,0,1,1","2",""
"","html-keyboard-response","31","32447","0.0-31.0","","","","","null","<img src=""img/flower3.png"" style=""width:200px; border:14px solid green;"">","null","","","","","","","","",""
"","image-keyboard-response","32","33050","0.0-32.0","","","","","600.7000000029802","img/flower4.png","74","601.8999999910593","1","1","2","2","1,0,0,1,1,0,1,0,1","0,0,1,1,0,1,0,1,1","2",""
"","html-keyboard-response","33","33351","0.0-33.0","","","","","null","<img src=""img/flower4.png"" style=""width:200px; border:14px solid green;"">","null","","","","","","","","",""
"","image-keyboard-response","34","33895","0.0-34.0","","","","","542.2999999970198","img/flower3.png","75","543.2999999970198","2","1","3","2","1,0,0,1,1,0,1,0,1","0,0,1,1,0,1,0,1,1","2",""
"","html-keyboard-response","35","34196","0.0-35.0","","","","","null","<img src=""img/flower3.png"" style=""width:200px; border:14px solid green;"">","null","","","","","","","","",""
"","image-keyboard-response","36","34670","0.0-36.0","","","","","473.19999998807907","img/flower3.png","75","474.5","2","1","3","2","1,0,0,1,1,0,1,0,1","0,0,1,1,0,1,0,1,1","2",""
"","html-keyboard-response","37","34981","0.0-37.0","","","","","null","<img src=""img/flower3.png"" style=""width:200px; border:14px solid green;"">","null","","","","","","","","",""
"","image-keyboard-response","38","35825","0.0-38.0","","","","","842.4000000059605","img/flower1.png","76","843.7000000029802","3","1","1","2","1,0,0,1,1,0,1,0,1","0,0,1,1,0,1,0,1,1","2",""
"","html-keyboard-response","39","36127","0.0-39.0","","","","","null","<img src=""img/flower1.png"" style=""width:200px; border:14px solid green;"">","null","","","","","","","","",""
"","image-keyboard-response","40","36741","0.0-40.0","","","","","611.6000000089407","img/flower1.png","76","613","3","1","1","2","1,0,0,1,1,0,1,0,1","0,0,1,1,0,1,0,1,1","2",""
"","html-keyboard-response","41","37042","0.0-41.0","","","","","null","<img src=""img/flower1.png"" style=""width:200px; border:14px solid green;"">","null","","","","","","","","",""
"","image-keyboard-response","42","37436","0.0-42.0","","","","","393.20000000298023","img/flower1.png","76","394.1000000089407","3","1","1","2","1,0,0,1,1,0,1,0,1","0,0,1,1,0,1,0,1,1","2",""
"","html-keyboard-response","43","37738","0.0-43.0","","","","","null","<img src=""img/flower1.png"" style=""width:200px; border:14px solid green;"">","null","","","","","","","","",""
"","image-keyboard-response","44","38304","0.0-44.0","","","","","565.0999999940395","img/flower4.png","74","565.8000000119209","1","1","2","2","1,0,0,1,1,0,1,0,1","0,0,1,1,0,1,0,1,1","2",""
"","html-keyboard-response","45","38607","0.0-45.0","","","","","null","<img src=""img/flower4.png"" style=""width:200px; border:14px solid green;"">","null","","","","","","","","",""
"","image-keyboard-response","46","38986","0.0-46.0","","","","","377.59999999403954","img/flower4.png","74","378.90000000596046","1","1","2","2","1,0,0,1,1,0,1,0,1","0,0,1,1,0,1,0,1,1","2",""
"","html-keyboard-response","47","39288","0.0-47.0","","","","","null","<img src=""img/flower4.png"" style=""width:200px; border:14px solid green;"">","null","","","","","","","","",""
"","image-keyboard-response","48","39731","0.0-48.0","","","","","441.80000001192093","img/flower3.png","75","442.5","2","1","3","2","1,0,0,1,1,0,1,0,1","0,0,1,1,0,1,0,1,1","2",""
"","html-keyboard-response","49","40032","0.0-49.0","","","","","null","<img src=""img/flower3.png"" style=""width:200px; border:14px solid green;"">","null","","","","","","","","",""
"","image-keyboard-response","50","40451","0.0-50.0","","","","","416.3999999910593","img/flower3.png","75","417.79999999701977","2","1","3","2","1,0,0,1,1,0,1,0,1","0,0,1,1,0,1,0,1,1","2",""
"","html-keyboard-response","51","40753","0.0-51.0","","","","","null","<img src=""img/flower3.png"" style=""width:200px; border:14px solid green;"">","null","","","","","","","","",""
"","image-keyboard-response","52","41419","0.0-52.0","","","","","664.2000000029802","img/flower4.png","74","665.3999999910593","1","1","2","2","1,0,0,1,1,0,1,0,1","0,0,1,1,0,1,0,1,1","2",""
"","html-keyboard-response","53","41720","0.0-53.0","","","","","null","<img src=""img/flower4.png"" style=""width:200px; border:14px solid green;"">","null","","","","","","","","",""
"","image-keyboard-response","54","42070","0.0-54.0","","","","","348","img/flower4.png","74","349.1000000089407","1","1","2","2","1,0,0,1,1,0,1,0,1","0,0,1,1,0,1,0,1,1","2",""
"","html-keyboard-response","55","42373","0.0-55.0","","","","","null","<img src=""img/flower4.png"" style=""width:200px; border:14px solid green;"">","null","","","","","","","","",""
"","image-keyboard-response","56","42888","0.0-56.0","","","","","513.9000000059605","img/flower1.png","76","515.2000000029802","3","1","1","2","1,0,0,1,1,0,1,0,1","0,0,1,1,0,1,0,1,1","2",""
"","html-keyboard-response","57","43190","0.0-57.0","","","","","null","<img src=""img/flower1.png"" style=""width:200px; border:14px solid green;"">","null","","","","","","","","",""
"","image-keyboard-response","58","43964","0.0-58.0","","","","","772.5","img/flower4.png","74","773.2000000029802","1","1","2","2","1,0,0,1,1,0,1,0,1","0,0,1,1,0,1,0,1,1","2",""
"","html-keyboard-response","59","44266","0.0-59.0","","","","","null","<img src=""img/flower4.png"" style=""width:200px; border:14px solid green;"">","null","","","","","","","","",""
"","image-keyboard-response","60","45132","0.0-60.0","","","","","864.7000000029802","img/flower3.png","75","865.9000000059605","2","1","3","2","1,0,0,1,1,0,1,0,1","0,0,1,1,0,1,0,1,1","2",""
"","html-keyboard-response","61","45433","0.0-61.0","","","","","null","<img src=""img/flower3.png"" style=""width:200px; border:14px solid green;"">","null","","","","","","","","",""
"","image-keyboard-response","62","46050","0.0-62.0","","","","","615.6999999880791","img/flower4.png","74","617","1","1","2","2","1,0,0,1,1,0,1,0,1","0,0,1,1,0,1,0,1,1","2",""
"","html-keyboard-response","63","46353","0.0-63.0","","","","","null","<img src=""img/flower4.png"" style=""width:200px; border:14px solid green;"">","null","","","","","","","","",""
"","image-keyboard-response","64","46805","0.0-64.0","","","","","450.20000000298023","img/flower4.png","74","451.6000000089407","1","1","2","2","1,0,0,1,1,0,1,0,1","0,0,1,1,0,1,0,1,1","2",""
"","html-keyboard-response","65","47107","0.0-65.0","","","","","null","<img src=""img/flower4.png"" style=""width:200px; border:14px solid green;"">","null","","","","","","","","",""
"","image-keyboard-response","66","47595","0.0-66.0","","","","","486.70000000298023","img/flower3.png","75","487.19999998807907","2","1","3","2","1,0,0,1,1,0,1,0,1","0,0,1,1,0,1,0,1,1","2",""
"","html-keyboard-response","67","47896","0.0-67.0","","","","","null","<img src=""img/flower3.png"" style=""width:200px; border:14px solid green;"">","null","","","","","","","","",""
"","image-keyboard-response","68","48248","0.0-68.0","","","","","349.79999999701977","img/flower3.png","75","351.1000000089407","2","1","3","2","1,0,0,1,1,0,1,0,1","0,0,1,1,0,1,0,1,1","2",""
"","html-keyboard-response","69","48550","0.0-69.0","","","","","null","<img src=""img/flower3.png"" style=""width:200px; border:14px solid green;"">","null","","","","","","","","",""
"","image-keyboard-response","70","48997","0.0-70.0","","","","","445.5","img/flower3.png","75","446.8999999910593","2","1","3","2","1,0,0,1,1,0,1,0,1","0,0,1,1,0,1,0,1,1","2",""
"","html-keyboard-response","71","49299","0.0-71.0","","","","","null","<img src=""img/flower3.png"" style=""width:200px; border:14px solid green;"">","null","","","","","","","","",""
"","image-keyboard-response","72","49781","0.0-72.0","","","","","480.90000000596046","img/flower4.png","74","481.8999999910593","1","1","2","2","1,0,0,1,1,0,1,0,1","0,0,1,1,0,1,0,1,1","2",""
"","html-keyboard-response","73","50083","0.0-73.0","","","","","null","<img src=""img/flower4.png"" style=""width:200px; border:14px solid green;"">","null","","","","","","","","",""
"","image-keyboard-response","74","50441","0.0-74.0","","","","","356.79999999701977","img/flower4.png","74","358.09999999403954","1","1","2","2","1,0,0,1,1,0,1,0,1","0,0,1,1,0,1,0,1,1","2",""
"","html-keyboard-response","75","50743","0.0-75.0","","","","","null","<img src=""img/flower4.png"" style=""width:200px; border:14px solid green;"">","null","","","","","","","","",""
"","image-keyboard-response","76","51381","0.0-76.0","","","","","636.8999999910593","img/flower3.png","75","638.2999999970198","2","1","3","2","1,0,0,1,1,0,1,0,1","0,0,1,1,0,1,0,1,1","2",""
"","html-keyboard-response","77","51683","0.0-77.0","","","","","null","<img src=""img/flower3.png"" style=""width:200px; border:14px solid green;"">","null","","","","","","","","",""
"","image-keyboard-response","78","52317","0.0-78.0","","","","","633.0999999940395","img/flower4.png","74","633.5999999940395","1","1","2","2","1,0,0,1,1,0,1,0,1","0,0,1,1,0,1,0,1,1","2",""
"","html-keyboard-response","79","52619","0.0-79.0","","","","","null","<img src=""img/flower4.png"" style=""width:200px; border:14px solid green;"">","null","","","","","","","","",""
"","image-keyboard-response","80","53078","0.0-80.0","","","","","457.29999999701977","img/flower3.png","75","458.59999999403954","2","1","3","2","1,0,0,1,1,0,1,0,1","0,0,1,1,0,1,0,1,1","2",""
"","html-keyboard-response","81","53380","0.0-81.0","","","","","null","<img src=""img/flower3.png"" style=""width:200px; border:14px solid green;"">","null","","","","","","","","",""
"","image-keyboard-response","82","54103","0.0-82.0","","","","","721.1000000089407","img/flower1.png","76","722.6000000089407","3","1","1","2","1,0,0,1,1,0,1,0,1","0,0,1,1,0,1,0,1,1","2",""
"","html-keyboard-response","83","54406","0.0-83.0","","","","","null","<img src=""img/flower1.png"" style=""width:200px; border:14px solid green;"">","null","","","","","","","","",""
"","image-keyboard-response","84","55015","0.0-84.0","","","","","607.2000000029802","img/flower4.png","74","608.6000000089407","1","1","2","2","1,0,0,1,1,0,1,0,1","0,0,1,1,0,1,0,1,1","2",""
"","html-keyboard-response","85","55318","0.0-85.0","","","","","null","<img src=""img/flower4.png"" style=""width:200px; border:14px solid green;"">","null","","","","","","","","",""
"","image-keyboard-response","86","55869","0.0-86.0","","","","","549.4000000059605","img/flower1.png","76","550.5","3","1","1","2","1,0,0,1,1,0,1,0,1","0,0,1,1,0,1,0,1,1","2",""
"","html-keyboard-response","87","56170","0.0-87.0","","","","","null","<img src=""img/flower1.png"" style=""width:200px; border:14px solid green;"">","null","","","","","","","","",""
"","image-keyboard-response","88","56830","0.0-88.0","","","","","652.1000000089407","img/flower4.png","74","653.5","1","1","2","2","1,0,0,1,1,0,1,0,1","0,0,1,1,0,1,0,1,1","2",""
"","html-keyboard-response","89","57133","0.0-89.0","","","","","null","<img src=""img/flower4.png"" style=""width:200px; border:14px solid green;"">","null","","","","","","","","",""
"","image-keyboard-response","90","57826","0.0-90.0","","","","","692.8000000119209","img/flower3.png","75","693.5","2","1","3","2","1,0,0,1,1,0,1,0,1","0,0,1,1,0,1,0,1,1","2",""
"","html-keyboard-response","91","58128","0.0-91.0","","","","","null","<img src=""img/flower3.png"" style=""width:200px; border:14px solid green;"">","null","","","","","","","","",""
"","image-keyboard-response","92","58534","0.0-92.0","","","","","404","img/flower3.png","75","405.3999999910593","2","1","3","2","1,0,0,1,1,0,1,0,1","0,0,1,1,0,1,0,1,1","2",""
"","html-keyboard-response","93","58836","0.0-93.0","","","","","null","<img src=""img/flower3.png"" style=""width:200px; border:14px solid green;"">","null","","","","","","","","",""
"","image-keyboard-response","94","59317","0.0-94.0","","","","","479.30000001192093","img/flower1.png","76","480.3999999910593","3","1","1","2","1,0,0,1,1,0,1,0,1","0,0,1,1,0,1,0,1,1","2",""
"","html-keyboard-response","95","59620","0.0-95.0","","","","","null","<img src=""img/flower1.png"" style=""width:200px; border:14px solid green;"">","null","","","","","","","","",""
"","image-keyboard-response","96","60228","0.0-96.0","","","","","606.6000000089407","img/flower4.png","74","607.2999999970198","1","1","2","2","1,0,0,1,1,0,1,0,1","0,0,1,1,0,1,0,1,1","2",""
"","html-keyboard-response","97","60531","0.0-97.0","","","","","null","<img src=""img/flower4.png"" style=""width:200px; border:14px solid green;"">","null","","","","","","","","",""
"","image-keyboard-response","98","61259","0.0-98.0","","","","","726.7000000029802","img/flower1.png","76","727.7999999970198","3","1","1","2","1,0,0,1,1,0,1,0,1","0,0,1,1,0,1,0,1,1","2",""
"","html-keyboard-response","99","61575","0.0-99.0","","","","","null","<img src=""img/flower1.png"" style=""width:200px; border:14px solid green;"">","null","","","","","","","","",""
"","image-keyboard-response","100","62065","0.0-100.0","","","","","487.79999999701977","img/flower1.png","76","488.29999999701977","3","1","1","2","1,0,0,1,1,0,1,0,1","0,0,1,1,0,1,0,1,1","2",""
"","html-keyboard-response","101","62368","0.0-101.0","","","","","null","<img src=""img/flower1.png"" style=""width:200px; border:14px solid green;"">","null","","","","","","","","",""
"","image-keyboard-response","102","62787","0.0-102.0","","","","","418","img/flower1.png","76","419.1000000089407","3","1","1","2","1,0,0,1,1,0,1,0,1","0,0,1,1,0,1,0,1,1","2",""
"","html-keyboard-response","103","63090","0.0-103.0","","","","","null","<img src=""img/flower1.png"" style=""width:200px; border:14px solid green;"">","null","","","","","","","","",""
"","image-keyboard-response","104","63531","0.0-104.0","","","","","440.09999999403954","img/flower1.png","76","440.8999999910593","3","1","1","2","1,0,0,1,1,0,1,0,1","0,0,1,1,0,1,0,1,1","2",""
"","html-keyboard-response","105","63833","0.0-105.0","","","","","null","<img src=""img/flower1.png"" style=""width:200px; border:14px solid green;"">","null","","","","","","","","",""
"","image-keyboard-response","106","64496","0.0-106.0","","","","","661.4000000059605","img/flower4.png","74","662.6000000089407","1","1","2","2","1,0,0,1,1,0,1,0,1","0,0,1,1,0,1,0,1,1","2",""
"","html-keyboard-response","107","64799","0.0-107.0","","","","","null","<img src=""img/flower4.png"" style=""width:200px; border:14px solid green;"">","null","","","","","","","","",""
"","image-keyboard-response","108","65392","0.0-108.0","","","","","591.6000000089407","img/flower3.png","75","592.9000000059605","2","1","3","2","1,0,0,1,1,0,1,0,1","0,0,1,1,0,1,0,1,1","2",""
"","html-keyboard-response","109","65693","0.0-109.0","","","","","null","<img src=""img/flower3.png"" style=""width:200px; border:14px solid green;"">","null","","","","","","","","",""
"","image-keyboard-response","110","66350","0.0-110.0","","","","","655.5999999940395","img/flower4.png","74","656.7000000029802","1","1","2","2","1,0,0,1,1,0,1,0,1","0,0,1,1,0,1,0,1,1","2",""
"","html-keyboard-response","111","66652","0.0-111.0","","","","","null","<img src=""img/flower4.png"" style=""width:200px; border:14px solid green;"">","null","","","","","","","","",""
"","image-keyboard-response","112","67796","0.0-112.0","","","","","1143.6000000089407","img/flower1.png","76","1144","3","1","1","2","1,0,0,1,1,0,1,0,1","0,0,1,1,0,1,0,1,1","2",""
"","html-keyboard-response","113","68098","0.0-113.0","","","","","null","<img src=""img/flower1.png"" style=""width:200px; border:14px solid green;"">","null","","","","","","","","",""
"","image-keyboard-response","114","68718","0.0-114.0","","","","","619.7000000029802","img/flower3.png","75","620.2999999970198","2","1","3","2","1,0,0,1,1,0,1,0,1","0,0,1,1,0,1,0,1,1","2",""
"","html-keyboard-response","115","69020","0.0-115.0","","","","","null","<img src=""img/flower3.png"" style=""width:200px; border:14px solid green;"">","null","","","","","","","","",""
"","image-keyboard-response","116","69708","0.0-116.0","","","","","685.5","img/flower4.png","74","686.8999999910593","1","1","2","2","1,0,0,1,1,0,1,0,1","0,0,1,1,0,1,0,1,1","2",""
"","html-keyboard-response","117","70010","0.0-117.0","","","","","null","<img src=""img/flower4.png"" style=""width:200px; border:14px solid green;"">","null","","","","","","","","",""
"","image-keyboard-response","118","71131","0.0-118.0","","","","","1119.7000000029802","img/flower1.png","76","1120.7999999970198","3","1","1","2","1,0,0,1,1,0,1,0,1","0,0,1,1,0,1,0,1,1","2",""
"","html-keyboard-response","119","71433","0.0-119.0","","","","","null","<img src=""img/flower1.png"" style=""width:200px; border:14px solid green;"">","null","","","","","","","","",""
"","image-keyboard-response","120","72158","0.0-120.0","","","","","722.7000000029802","img/flower3.png","75","723.7000000029802","2","1","3","2","1,0,0,1,1,0,1,0,1","0,0,1,1,0,1,0,1,1","2",""
"","html-keyboard-response","121","72459","0.0-121.0","","","","","null","<img src=""img/flower3.png"" style=""width:200px; border:14px solid green;"">","null","","","","","","","","",""
"","image-keyboard-response","122","73630","0.0-122.0","","","","","1169.5999999940395","img/flower1.png","76","1170.7999999970198","3","1","1","2","1,0,0,1,1,0,1,0,1","0,0,1,1,0,1,0,1,1","2",""
"","html-keyboard-response","123","73932","0.0-123.0","","","","","null","<img src=""img/flower1.png"" style=""width:200px; border:14px solid green;"">","null","","","","","","","","",""
"","image-keyboard-response","124","74668","0.0-124.0","","","","","733.7999999970198","img/flower3.png","75","735","2","1","3","2","1,0,0,1,1,0,1,0,1","0,0,1,1,0,1,0,1,1","2",""
"","html-keyboard-response","125","74970","0.0-125.0","","","","","null","<img src=""img/flower3.png"" style=""width:200px; border:14px solid green;"">","null","","","","","","","","",""
"","image-keyboard-response","126","75419","0.0-126.0","","","","","447.59999999403954","img/flower3.png","75","448.59999999403954","2","1","3","2","1,0,0,1,1,0,1,0,1","0,0,1,1,0,1,0,1,1","2",""
"","html-keyboard-response","127","75725","0.0-127.0","","","","","null","<img src=""img/flower3.png"" style=""width:200px; border:14px solid green;"">","null","","","","","","","","",""
"","image-keyboard-response","128","76130","0.0-128.0","","","","","404.59999999403954","img/flower3.png","75","405.1000000089407","2","1","3","2","1,0,0,1,1,0,1,0,1","0,0,1,1,0,1,0,1,1","2",""
"","html-keyboard-response","129","76431","0.0-129.0","","","","","null","<img src=""img/flower3.png"" style=""width:200px; border:14px solid green;"">","null","","","","","","","","",""
"","image-keyboard-response","130","77207","0.0-130.0","","","","","774.3999999910593","img/flower1.png","76","775.9000000059605","3","1","1","2","1,0,0,1,1,0,1,0,1","0,0,1,1,0,1,0,1,1","2",""
"","html-keyboard-response","131","77509","0.0-131.0","","","","","null","<img src=""img/flower1.png"" style=""width:200px; border:14px solid green;"">","null","","","","","","","","",""
"","image-keyboard-response","132","78499","0.0-132.0","","","","","988","img/flower3.png","75","989.2999999970198","2","1","3","2","1,0,0,1,1,0,1,0,1","0,0,1,1,0,1,0,1,1","2",""
"","html-keyboard-response","133","78802","0.0-133.0","","","","","null","<img src=""img/flower3.png"" style=""width:200px; border:14px solid green;"">","null","","","","","","","","",""
"","image-keyboard-response","134","79537","0.0-134.0","","","","","733.6000000089407","img/flower4.png","74","734.5999999940395","1","1","2","2","1,0,0,1,1,0,1,0,1","0,0,1,1,0,1,0,1,1","2",""
"","html-keyboard-response","135","79839","0.0-135.0","","","","","null","<img src=""img/flower4.png"" style=""width:200px; border:14px solid green;"">","null","","","","","","","","",""
"","image-keyboard-response","136","80303","0.0-136.0","","","","","462.5","img/flower4.png","74","463.59999999403954","1","1","2","2","1,0,0,1,1,0,1,0,1","0,0,1,1,0,1,0,1,1","2",""
"","html-keyboard-response","137","80604","0.0-137.0","","","","","null","<img src=""img/flower4.png"" style=""width:200px; border:14px solid green;"">","null","","","","","","","","",""
"","image-keyboard-response","138","81386","0.0-138.0","","","","","781.2000000029802","img/flower3.png","75","781.9000000059605","2","1","3","2","1,0,0,1,1,0,1,0,1","0,0,1,1,0,1,0,1,1","2",""
"","html-keyboard-response","139","81689","0.0-139.0","","","","","null","<img src=""img/flower3.png"" style=""width:200px; border:14px solid green;"">","null","","","","","","","","",""
"","image-keyboard-response","140","82213","0.0-140.0","","","","","524","img/flower1.png","76","524.8000000119209","3","1","1","2","1,0,0,1,1,0,1,0,1","0,0,1,1,0,1,0,1,1","2",""
"","html-keyboard-response","141","82516","0.0-141.0","","","","","null","<img src=""img/flower1.png"" style=""width:200px; border:14px solid green;"">","null","","","","","","","","",""
"","image-keyboard-response","142","82965","0.0-142.0","","","","","448","img/flower1.png","76","449.09999999403954","3","1","1","2","1,0,0,1,1,0,1,0,1","0,0,1,1,0,1,0,1,1","2",""
"","html-keyboard-response","143","83266","0.0-143.0","","","","","null","<img src=""img/flower1.png"" style=""width:200px; border:14px solid green;"">","null","","","","","","","","",""
"","image-keyboard-response","144","84009","0.0-144.0","","","","","741.0999999940395","img/flower3.png","75","742.1000000089407","2","1","3","2","1,0,0,1,1,0,1,0,1","0,0,1,1,0,1,0,1,1","2",""
"","html-keyboard-response","145","84311","0.0-145.0","","","","","null","<img src=""img/flower3.png"" style=""width:200px; border:14px solid green;"">","null","","","","","","","","",""
"","image-keyboard-response","146","84685","0.0-146.0","","","","","373.20000000298023","img/flower3.png","75","373.8999999910593","2","1","3","2","1,0,0,1,1,0,1,0,1","0,0,1,1,0,1,0,1,1","2",""
"","html-keyboard-response","147","84987","0.0-147.0","","","","","null","<img src=""img/flower3.png"" style=""width:200px; border:14px solid green;"">","null","","","","","","","","",""
"","image-keyboard-response","148","85743","0.0-148.0","","","","","754.2999999970198","img/flower4.png","74","755.6000000089407","1","1","2","2","1,0,0,1,1,0,1,0,1","0,0,1,1,0,1,0,1,1","2",""
"","html-keyboard-response","149","86044","0.0-149.0","","","","","null","<img src=""img/flower4.png"" style=""width:200px; border:14px solid green;"">","null","","","","","","","","",""
"","image-keyboard-response","150","86432","0.0-150.0","","","","","386.5","img/flower4.png","74","387.3999999910593","1","1","2","2","1,0,0,1,1,0,1,0,1","0,0,1,1,0,1,0,1,1","2",""
"","html-keyboard-response","151","86739","0.0-151.0","","","","","null","<img src=""img/flower4.png"" style=""width:200px; border:14px solid green;"">","null","","","","","","","","",""
"","image-keyboard-response","152","87446","0.0-152.0","","","","","706.0999999940395","img/flower3.png","75","706.9000000059605","2","1","3","2","1,0,0,1,1,0,1,0,1","0,0,1,1,0,1,0,1,1","2",""
"","html-keyboard-response","153","87749","0.0-153.0","","","","","null","<img src=""img/flower3.png"" style=""width:200px; border:14px solid green;"">","null","","","","","","","","",""
"","image-keyboard-response","154","88097","0.0-154.0","","","","","346.5","img/flower3.png","75","347.3999999910593","2","1","3","2","1,0,0,1,1,0,1,0,1","0,0,1,1,0,1,0,1,1","2",""
"","html-keyboard-response","155","88398","0.0-155.0","","","","","null","<img src=""img/flower3.png"" style=""width:200px; border:14px solid green;"">","null","","","","","","","","",""
"","image-keyboard-response","156","88786","0.0-156.0","","","","","386.09999999403954","img/flower3.png","75","387.5","2","1","3","2","1,0,0,1,1,0,1,0,1","0,0,1,1,0,1,0,1,1","2",""
"","html-keyboard-response","157","89088","0.0-157.0","","","","","null","<img src=""img/flower3.png"" style=""width:200px; border:14px solid green;"">","null","","","","","","","","",""
"","image-keyboard-response","158","89578","0.0-158.0","","","","","488","img/flower3.png","75","489.29999999701977","2","1","3","2","1,0,0,1,1,0,1,0,1","0,0,1,1,0,1,0,1,1","2",""
"","html-keyboard-response","159","89880","0.0-159.0","","","","","null","<img src=""img/flower3.png"" style=""width:200px; border:14px solid green;"">","null","","","","","","","","",""
"","image-keyboard-response","160","90562","0.0-160.0","","","","","680","img/flower1.png","76","681.0999999940395","3","1","1","2","1,0,0,1,1,0,1,0,1","0,0,1,1,0,1,0,1,1","2",""
"","html-keyboard-response","161","90863","0.0-161.0","","","","","null","<img src=""img/flower1.png"" style=""width:200px; border:14px solid green;"">","null","","","","","","","","",""
"","image-keyboard-response","162","91547","0.0-162.0","","","","","683","img/flower4.png","74","684.2000000029802","1","1","2","2","1,0,0,1,1,0,1,0,1","0,0,1,1,0,1,0,1,1","2",""
"","html-keyboard-response","163","91850","0.0-163.0","","","","","null","<img src=""img/flower4.png"" style=""width:200px; border:14px solid green;"">","null","","","","","","","","",""
"","image-keyboard-response","164","92837","0.0-164.0","","","","","985.8999999910593","img/flower1.png","76","986.7999999970198","3","1","1","2","1,0,0,1,1,0,1,0,1","0,0,1,1,0,1,0,1,1","2",""
"","html-keyboard-response","165","93139","0.0-165.0","","","","","null","<img src=""img/flower1.png"" style=""width:200px; border:14px solid green;"">","null","","","","","","","","",""
"","image-keyboard-response","166","93541","0.0-166.0","","","","","400.70000000298023","img/flower1.png","76","401.3999999910593","3","1","1","2","1,0,0,1,1,0,1,0,1","0,0,1,1,0,1,0,1,1","2",""
"","html-keyboard-response","167","93843","0.0-167.0","","","","","null","<img src=""img/flower1.png"" style=""width:200px; border:14px solid green;"">","null","","","","","","","","",""
"","image-keyboard-response","168","94809","0.0-168.0","","","","","964.2999999970198","img/flower3.png","75","965.7000000029802","2","1","3","2","1,0,0,1,1,0,1,0,1","0,0,1,1,0,1,0,1,1","2",""
"","html-keyboard-response","169","95111","0.0-169.0","","","","","null","<img src=""img/flower3.png"" style=""width:200px; border:14px solid green;"">","null","","","","","","","","",""
"","image-keyboard-response","170","95840","0.0-170.0","","","","","727.7000000029802","img/flower4.png","74","728.9000000059605","1","1","2","2","1,0,0,1,1,0,1,0,1","0,0,1,1,0,1,0,1,1","2",""
"","html-keyboard-response","171","96143","0.0-171.0","","","","","null","<img src=""img/flower4.png"" style=""width:200px; border:14px solid green;"">","null","","","","","","","","",""
"","image-keyboard-response","172","96934","0.0-172.0","","","","","789.4000000059605","img/flower1.png","76","790.7000000029802","3","1","1","2","1,0,0,1,1,0,1,0,1","0,0,1,1,0,1,0,1,1","2",""
"","html-keyboard-response","173","97237","0.0-173.0","","","","","null","<img src=""img/flower1.png"" style=""width:200px; border:14px solid green;"">","null","","","","","","","","",""
"","image-keyboard-response","174","97662","0.0-174.0","","","","","423.70000000298023","img/flower1.png","76","425.09999999403954","3","1","1","2","1,0,0,1,1,0,1,0,1","0,0,1,1,0,1,0,1,1","2",""
"","html-keyboard-response","175","97964","0.0-175.0","","","","","null","<img src=""img/flower1.png"" style=""width:200px; border:14px solid green;"">","null","","","","","","","","",""
"","image-keyboard-response","176","98370","0.0-176.0","","","","","403.79999999701977","img/flower1.png","76","405.19999998807907","3","1","1","2","1,0,0,1,1,0,1,0,1","0,0,1,1,0,1,0,1,1","2",""
"","html-keyboard-response","177","98675","0.0-177.0","","","","","null","<img src=""img/flower1.png"" style=""width:200px; border:14px solid green;"">","null","","","","","","","","",""
"","image-keyboard-response","178","99382","0.0-178.0","","","","","705.9000000059605","img/flower4.png","74","706.4000000059605","1","1","2","2","1,0,0,1,1,0,1,0,1","0,0,1,1,0,1,0,1,1","2",""
"","html-keyboard-response","179","99683","0.0-179.0","","","","","null","<img src=""img/flower4.png"" style=""width:200px; border:14px solid green;"">","null","","","","","","","","",""
"","image-keyboard-response","180","100075","0.0-180.0","","","","","391.29999999701977","img/flower4.png","74","392.30000001192093","1","1","2","2","1,0,0,1,1,0,1,0,1","0,0,1,1,0,1,0,1,1","2",""
"","html-keyboard-response","181","100376","0.0-181.0","","","","","null","<img src=""img/flower4.png"" style=""width:200px; border:14px solid green;"">","null","","","","","","","","",""
"","image-keyboard-response","182","101523","0.0-182.0","","","","","1145.9000000059605","img/flower2.png","76","1146.7000000029802","3","1","3","1","1,0.333,0.333,0.333,1,0.333,0.333,0.333,1","1,0.333,0.333,0.333,1,0.333,0.333,0.333,1","1",""
"","html-keyboard-response","183","101826","0.0-183.0","","","","","null","<img src=""img/flower2.png"" style=""width:200px; border:14px solid green;"">","null","","","","","","","","",""
"","image-keyboard-response","184","103347","0.0-184.0","","","","","1519.7999999970198","img/flower5.png","75","1521.0999999940395","2","1","2","1","1,0.333,0.333,0.333,1,0.333,0.333,0.333,1","1,0.333,0.333,0.333,1,0.333,0.333,0.333,1","1",""
"","html-keyboard-response","185","103650","0.0-185.0","","","","","null","<img src=""img/flower5.png"" style=""width:200px; border:14px solid green;"">","null","","","","","","","","",""
"","image-keyboard-response","186","104120","0.0-186.0","","","","","468.5","img/flower5.png","75","469.5","2","1","2","1","1,0.333,0.333,0.333,1,0.333,0.333,0.333,1","1,0.333,0.333,0.333,1,0.333,0.333,0.333,1","1",""
"","html-keyboard-response","187","104422","0.0-187.0","","","","","null","<img src=""img/flower5.png"" style=""width:200px; border:14px solid green;"">","null","","","","","","","","",""
"","image-keyboard-response","188","104710","0.0-188.0","","","","","287.20000000298023","img/flower5.png","75","288.20000000298023","2","1","2","1","1,0.333,0.333,0.333,1,0.333,0.333,0.333,1","1,0.333,0.333,0.333,1,0.333,0.333,0.333,1","1",""
"","html-keyboard-response","189","105012","0.0-189.0","","","","","null","<img src=""img/flower5.png"" style=""width:200px; border:14px solid green;"">","null","","","","","","","","",""
"","image-keyboard-response","190","105774","0.0-190.0","","","","","760.5","img/flower6.png","74","761.3999999910593","1","1","1","1","1,0.333,0.333,0.333,1,0.333,0.333,0.333,1","1,0.333,0.333,0.333,1,0.333,0.333,0.333,1","1",""
"","html-keyboard-response","191","106076","0.0-191.0","","","","","null","<img src=""img/flower6.png"" style=""width:200px; border:14px solid green;"">","null","","","","","","","","",""
"","image-keyboard-response","192","106773","0.0-192.0","","","","","696","img/flower5.png","76","696.7999999970198","3","1","2","1","1,0.333,0.333,0.333,1,0.333,0.333,0.333,1","1,0.333,0.333,0.333,1,0.333,0.333,0.333,1","1",""
"","html-keyboard-response","193","107075","0.0-193.0","","","","","null","<img src=""img/flower5.png"" style=""width:200px; border:14px solid green;"">","null","","","","","","","","",""
"","image-keyboard-response","194","107586","0.0-194.0","","","","","510.70000000298023","img/flower5.png","75","511.30000001192093","2","1","2","1","1,0.333,0.333,0.333,1,0.333,0.333,0.333,1","1,0.333,0.333,0.333,1,0.333,0.333,0.333,1","1",""
"","html-keyboard-response","195","107888","0.0-195.0","","","","","null","<img src=""img/flower5.png"" style=""width:200px; border:14px solid green;"">","null","","","","","","","","",""
"","image-keyboard-response","196","108742","0.0-196.0","","","","","852.7999999970198","img/flower6.png","74","853.9000000059605","1","1","1","1","1,0.333,0.333,0.333,1,0.333,0.333,0.333,1","1,0.333,0.333,0.333,1,0.333,0.333,0.333,1","1",""
"","html-keyboard-response","197","109043","0.0-197.0","","","","","null","<img src=""img/flower6.png"" style=""width:200px; border:14px solid green;"">","null","","","","","","","","",""
"","image-keyboard-response","198","109415","0.0-198.0","","","","","370.70000000298023","img/flower6.png","74","371.59999999403954","1","1","1","1","1,0.333,0.333,0.333,1,0.333,0.333,0.333,1","1,0.333,0.333,0.333,1,0.333,0.333,0.333,1","1",""
"","html-keyboard-response","199","109717","0.0-199.0","","","","","null","<img src=""img/flower6.png"" style=""width:200px; border:14px solid green;"">","null","","","","","","","","",""
"","image-keyboard-response","200","110489","0.0-200.0","","","","","770.2999999970198","img/flower5.png","75","771.5999999940395","2","1","2","1","1,0.333,0.333,0.333,1,0.333,0.333,0.333,1","1,0.333,0.333,0.333,1,0.333,0.333,0.333,1","1",""
"","html-keyboard-response","201","110791","0.0-201.0","","","","","null","<img src=""img/flower5.png"" style=""width:200px; border:14px solid green;"">","null","","","","","","","","",""
"","image-keyboard-response","202","111929","0.0-202.0","","","","","1136","img/flower6.png","74","1137.199999988079","1","1","1","1","1,0.333,0.333,0.333,1,0.333,0.333,0.333,1","1,0.333,0.333,0.333,1,0.333,0.333,0.333,1","1",""
"","html-keyboard-response","203","112231","0.0-203.0","","","","","null","<img src=""img/flower6.png"" style=""width:200px; border:14px solid green;"">","null","","","","","","","","",""
"","image-keyboard-response","204","113503","0.0-204.0","","","","","1271.5","img/flower2.png","76","1272.2000000029802","3","1","3","1","1,0.333,0.333,0.333,1,0.333,0.333,0.333,1","1,0.333,0.333,0.333,1,0.333,0.333,0.333,1","1",""
"","html-keyboard-response","205","113806","0.0-205.0","","","","","null","<img src=""img/flower2.png"" style=""width:200px; border:14px solid green;"">","null","","","","","","","","",""
"","image-keyboard-response","206","114147","0.0-206.0","","","","","341","img/flower2.png","76","341.5","3","1","3","1","1,0.333,0.333,0.333,1,0.333,0.333,0.333,1","1,0.333,0.333,0.333,1,0.333,0.333,0.333,1","1",""
"","html-keyboard-response","207","114449","0.0-207.0","","","","","null","<img src=""img/flower2.png"" style=""width:200px; border:14px solid green;"">","null","","","","","","","","",""
"","image-keyboard-response","208","115347","0.0-208.0","","","","","896.5","img/flower5.png","74","897.6999999880791","1","0","2","1","1,0.333,0.333,0.333,1,0.333,0.333,0.333,1","1,0.333,0.333,0.333,1,0.333,0.333,0.333,1","1",""
"","html-keyboard-response","209","115649","0.0-209.0","","","","","null","<img src=""img/flower5.png"" style=""width:200px;border:14px solid red;"">","null","","","","","","","","",""
"","image-keyboard-response","210","116565","0.0-210.0","","","","","914.5","img/flower2.png","76","916","3","1","3","1","1,0.333,0.333,0.333,1,0.333,0.333,0.333,1","1,0.333,0.333,0.333,1,0.333,0.333,0.333,1","1",""
"","html-keyboard-response","211","116868","0.0-211.0","","","","","null","<img src=""img/flower2.png"" style=""width:200px; border:14px solid green;"">","null","","","","","","","","",""
"","image-keyboard-response","212","118098","0.0-212.0","","","","","1228.5","img/flower6.png","76","1229.699999988079","3","0","1","1","1,0.333,0.333,0.333,1,0.333,0.333,0.333,1","1,0.333,0.333,0.333,1,0.333,0.333,0.333,1","1",""
"","html-keyboard-response","213","118400","0.0-213.0","","","","","null","<img src=""img/flower6.png"" style=""width:200px;border:14px solid red;"">","null","","","","","","","","",""
"","image-keyboard-response","214","119144","0.0-214.0","","","","","743.4000000059605","img/flower2.png","75","743.8000000119209","2","0","3","1","1,0.333,0.333,0.333,1,0.333,0.333,0.333,1","1,0.333,0.333,0.333,1,0.333,0.333,0.333,1","1",""
"","html-keyboard-response","215","119447","0.0-215.0","","","","","null","<img src=""img/flower2.png"" style=""width:200px;border:14px solid red;"">","null","","","","","","","","",""
"","image-keyboard-response","216","120250","0.0-216.0","","","","","802.2999999970198","img/flower6.png","74","803.4000000059605","1","1","1","1","1,0.333,0.333,0.333,1,0.333,0.333,0.333,1","1,0.333,0.333,0.333,1,0.333,0.333,0.333,1","1",""
"","html-keyboard-response","217","120553","0.0-217.0","","","","","null","<img src=""img/flower6.png"" style=""width:200px; border:14px solid green;"">","null","","","","","","","","",""
"","image-keyboard-response","218","120958","0.0-218.0","","","","","403.6000000089407","img/flower6.png","74","404.90000000596046","1","1","1","1","1,0.333,0.333,0.333,1,0.333,0.333,0.333,1","1,0.333,0.333,0.333,1,0.333,0.333,0.333,1","1",""
"","html-keyboard-response","219","121260","0.0-219.0","","","","","null","<img src=""img/flower6.png"" style=""width:200px; border:14px solid green;"">","null","","","","","","","","",""
"","image-keyboard-response","220","122090","0.0-220.0","","","","","829.6000000089407","img/flower2.png","76","830.2000000029802","3","1","3","1","1,0.333,0.333,0.333,1,0.333,0.333,0.333,1","1,0.333,0.333,0.333,1,0.333,0.333,0.333,1","1",""
"","html-keyboard-response","221","122393","0.0-221.0","","","","","null","<img src=""img/flower2.png"" style=""width:200px; border:14px solid green;"">","null","","","","","","","","",""
"","image-keyboard-response","222","123332","0.0-222.0","","","","","937.5999999940395","img/flower6.png","74","938.2999999970198","1","1","1","1","1,0.333,0.333,0.333,1,0.333,0.333,0.333,1","1,0.333,0.333,0.333,1,0.333,0.333,0.333,1","1",""
"","html-keyboard-response","223","123634","0.0-223.0","","","","","null","<img src=""img/flower6.png"" style=""width:200px; border:14px solid green;"">","null","","","","","","","","",""
"","image-keyboard-response","224","124002","0.0-224.0","","","","","365.70000000298023","img/flower6.png","74","367","1","1","1","1","1,0.333,0.333,0.333,1,0.333,0.333,0.333,1","1,0.333,0.333,0.333,1,0.333,0.333,0.333,1","1",""
"","html-keyboard-response","225","124303","0.0-225.0","","","","","null","<img src=""img/flower6.png"" style=""width:200px; border:14px solid green;"">","null","","","","","","","","",""
"","image-keyboard-response","226","124917","0.0-226.0","","","","","613.1999999880791","img/flower2.png","76","614.1000000089407","3","1","3","1","1,0.333,0.333,0.333,1,0.333,0.333,0.333,1","1,0.333,0.333,0.333,1,0.333,0.333,0.333,1","1",""
"","html-keyboard-response","227","125219","0.0-227.0","","","","","null","<img src=""img/flower2.png"" style=""width:200px; border:14px solid green;"">","null","","","","","","","","",""
"","image-keyboard-response","228","125413","0.0-228.0","","","","","193.5","img/flower2.png","76","194.3999999910593","3","1","3","1","1,0.333,0.333,0.333,1,0.333,0.333,0.333,1","1,0.333,0.333,0.333,1,0.333,0.333,0.333,1","1",""
"","html-keyboard-response","229","125715","0.0-229.0","","","","","null","<img src=""img/flower2.png"" style=""width:200px; border:14px solid green;"">","null","","","","","","","","",""
"","image-keyboard-response","230","126123","0.0-230.0","","","","","406.5","img/flower2.png","76","407.79999999701977","3","1","3","1","1,0.333,0.333,0.333,1,0.333,0.333,0.333,1","1,0.333,0.333,0.333,1,0.333,0.333,0.333,1","1",""
"","html-keyboard-response","231","126427","0.0-231.0","","","","","null","<img src=""img/flower2.png"" style=""width:200px; border:14px solid green;"">","null","","","","","","","","",""
"","image-keyboard-response","232","126789","0.0-232.0","","","","","361.59999999403954","img/flower2.png","76","362.20000000298023","3","1","3","1","1,0.333,0.333,0.333,1,0.333,0.333,0.333,1","1,0.333,0.333,0.333,1,0.333,0.333,0.333,1","1",""
"","html-keyboard-response","233","127091","0.0-233.0","","","","","null","<img src=""img/flower2.png"" style=""width:200px; border:14px solid green;"">","null","","","","","","","","",""
"","image-keyboard-response","234","127584","0.0-234.0","","","","","491.29999999701977","img/flower2.png","76","492.5","3","1","3","1","1,0.333,0.333,0.333,1,0.333,0.333,0.333,1","1,0.333,0.333,0.333,1,0.333,0.333,0.333,1","1",""
"","html-keyboard-response","235","127891","0.0-235.0","","","","","null","<img src=""img/flower2.png"" style=""width:200px; border:14px solid green;"">","null","","","","","","","","",""
"","image-keyboard-response","236","128585","0.0-236.0","","","","","693.3999999910593","img/flower6.png","74","694.5","1","1","1","1","1,0.333,0.333,0.333,1,0.333,0.333,0.333,1","1,0.333,0.333,0.333,1,0.333,0.333,0.333,1","1",""
"","html-keyboard-response","237","128896","0.0-237.0","","","","","null","<img src=""img/flower6.png"" style=""width:200px; border:14px solid green;"">","null","","","","","","","","",""
"","image-keyboard-response","238","129432","0.0-238.0","","","","","534.5999999940395","img/flower5.png","75","535.2999999970198","2","1","2","1","1,0.333,0.333,0.333,1,0.333,0.333,0.333,1","1,0.333,0.333,0.333,1,0.333,0.333,0.333,1","1",""
"","html-keyboard-response","239","129735","0.0-239.0","","","","","null","<img src=""img/flower5.png"" style=""width:200px; border:14px solid green;"">","null","","","","","","","","",""
"","image-keyboard-response","240","130419","0.0-240.0","","","","","682.1999999880791","img/flower6.png","74","683.7000000029802","1","1","1","1","1,0.333,0.333,0.333,1,0.333,0.333,0.333,1","1,0.333,0.333,0.333,1,0.333,0.333,0.333,1","1",""
"","html-keyboard-response","241","130722","0.0-241.0","","","","","null","<img src=""img/flower6.png"" style=""width:200px; border:14px solid green;"">","null","","","","","","","","",""
"","image-keyboard-response","242","131240","0.0-242.0","","","","","517.0999999940395","img/flower5.png","75","518.0999999940395","2","1","2","1","1,0.333,0.333,0.333,1,0.333,0.333,0.333,1","1,0.333,0.333,0.333,1,0.333,0.333,0.333,1","1",""
"","html-keyboard-response","243","131542","0.0-243.0","","","","","null","<img src=""img/flower5.png"" style=""width:200px; border:14px solid green;"">","null","","","","","","","","",""
"","image-keyboard-response","244","131975","0.0-244.0","","","","","431.70000000298023","img/flower5.png","75","433","2","1","2","1","1,0.333,0.333,0.333,1,0.333,0.333,0.333,1","1,0.333,0.333,0.333,1,0.333,0.333,0.333,1","1",""
"","html-keyboard-response","245","132278","0.0-245.0","","","","","null","<img src=""img/flower5.png"" style=""width:200px; border:14px solid green;"">","null","","","","","","","","",""
"","image-keyboard-response","246","132708","0.0-246.0","","","","","428.20000000298023","img/flower5.png","75","429.40000000596046","2","1","2","1","1,0.333,0.333,0.333,1,0.333,0.333,0.333,1","1,0.333,0.333,0.333,1,0.333,0.333,0.333,1","1",""
"","html-keyboard-response","247","133010","0.0-247.0","","","","","null","<img src=""img/flower5.png"" style=""width:200px; border:14px solid green;"">","null","","","","","","","","",""
"","image-keyboard-response","248","133737","0.0-248.0","","","","","725.5","img/flower6.png","74","727.0999999940395","1","1","1","1","1,0.333,0.333,0.333,1,0.333,0.333,0.333,1","1,0.333,0.333,0.333,1,0.333,0.333,0.333,1","1",""
"","html-keyboard-response","249","134039","0.0-249.0","","","","","null","<img src=""img/flower6.png"" style=""width:200px; border:14px solid green;"">","null","","","","","","","","",""
"","image-keyboard-response","250","134699","0.0-250.0","","","","","659","img/flower2.png","76","659.8000000119209","3","1","3","1","1,0.333,0.333,0.333,1,0.333,0.333,0.333,1","1,0.333,0.333,0.333,1,0.333,0.333,0.333,1","1",""
"","html-keyboard-response","251","135001","0.0-251.0","","","","","null","<img src=""img/flower2.png"" style=""width:200px; border:14px solid green;"">","null","","","","","","","","",""
"","image-keyboard-response","252","135624","0.0-252.0","","","","","621.4000000059605","img/flower5.png","75","622.5","2","1","2","1","1,0.333,0.333,0.333,1,0.333,0.333,0.333,1","1,0.333,0.333,0.333,1,0.333,0.333,0.333,1","1",""
"","html-keyboard-response","253","135929","0.0-253.0","","","","","null","<img src=""img/flower5.png"" style=""width:200px; border:14px solid green;"">","null","","","","","","","","",""
"","image-keyboard-response","254","136476","0.0-254.0","","","","","545.5","img/flower2.png","76","546.6000000089407","3","1","3","1","1,0.333,0.333,0.333,1,0.333,0.333,0.333,1","1,0.333,0.333,0.333,1,0.333,0.333,0.333,1","1",""
"","html-keyboard-response","255","136777","0.0-255.0","","","","","null","<img src=""img/flower2.png"" style=""width:200px; border:14px solid green;"">","null","","","","","","","","",""
"","image-keyboard-response","256","137534","0.0-256.0","","","","","755.5","img/flower6.png","74","756.6000000089407","1","1","1","1","1,0.333,0.333,0.333,1,0.333,0.333,0.333,1","1,0.333,0.333,0.333,1,0.333,0.333,0.333,1","1",""
"","html-keyboard-response","257","137835","0.0-257.0","","","","","null","<img src=""img/flower6.png"" style=""width:200px; border:14px solid green;"">","null","","","","","","","","",""
"","image-keyboard-response","258","138307","0.0-258.0","","","","","471.8999999910593","img/flower6.png","74","472.3999999910593","1","1","1","1","1,0.333,0.333,0.333,1,0.333,0.333,0.333,1","1,0.333,0.333,0.333,1,0.333,0.333,0.333,1","1",""
"","html-keyboard-response","259","138609","0.0-259.0","","","","","null","<img src=""img/flower6.png"" style=""width:200px; border:14px solid green;"">","null","","","","","","","","",""
"","image-keyboard-response","260","139366","0.0-260.0","","","","","755.0999999940395","img/flower2.png","75","756.3999999910593","2","0","3","1","1,0.333,0.333,0.333,1,0.333,0.333,0.333,1","1,0.333,0.333,0.333,1,0.333,0.333,0.333,1","1",""
"","html-keyboard-response","261","139669","0.0-261.0","","","","","null","<img src=""img/flower2.png"" style=""width:200px;border:14px solid red;"">","null","","","","","","","","",""
"","image-keyboard-response","262","140042","0.0-262.0","","","","","371.40000000596046","img/flower5.png","76","372.3999999910593","3","0","2","1","1,0.333,0.333,0.333,1,0.333,0.333,0.333,1","1,0.333,0.333,0.333,1,0.333,0.333,0.333,1","1",""
"","html-keyboard-response","263","140343","0.0-263.0","","","","","null","<img src=""img/flower5.png"" style=""width:200px;border:14px solid red;"">","null","","","","","","","","",""
"","image-keyboard-response","264","141834","0.0-264.0","","","","","1489.2000000029802","img/flower5.png","75","1490.5","2","1","2","1","1,0.333,0.333,0.333,1,0.333,0.333,0.333,1","1,0.333,0.333,0.333,1,0.333,0.333,0.333,1","1",""
"","html-keyboard-response","265","142136","0.0-265.0","","","","","null","<img src=""img/flower5.png"" style=""width:200px; border:14px solid green;"">","null","","","","","","","","",""
"","image-keyboard-response","266","142623","0.0-266.0","","","","","485.79999999701977","img/flower5.png","75","486.70000000298023","2","1","2","1","1,0.333,0.333,0.333,1,0.333,0.333,0.333,1","1,0.333,0.333,0.333,1,0.333,0.333,0.333,1","1",""
"","html-keyboard-response","267","142924","0.0-267.0","","","","","null","<img src=""img/flower5.png"" style=""width:200px; border:14px solid green;"">","null","","","","","","","","",""
"","image-keyboard-response","268","143393","0.0-268.0","","","","","467.20000000298023","img/flower2.png","76","468.29999999701977","3","1","3","1","1,0.333,0.333,0.333,1,0.333,0.333,0.333,1","1,0.333,0.333,0.333,1,0.333,0.333,0.333,1","1",""
"","html-keyboard-response","269","143695","0.0-269.0","","","","","null","<img src=""img/flower2.png"" style=""width:200px; border:14px solid green;"">","null","","","","","","","","",""
"","image-keyboard-response","270","144072","0.0-270.0","","","","","376.70000000298023","img/flower2.png","76","377.20000000298023","3","1","3","1","1,0.333,0.333,0.333,1,0.333,0.333,0.333,1","1,0.333,0.333,0.333,1,0.333,0.333,0.333,1","1",""
"","html-keyboard-response","271","144373","0.0-271.0","","","","","null","<img src=""img/flower2.png"" style=""width:200px; border:14px solid green;"">","null","","","","","","","","",""
"","image-keyboard-response","272","144974","0.0-272.0","","","","","599","img/flower5.png","75","600.2999999970198","2","1","2","1","1,0.333,0.333,0.333,1,0.333,0.333,0.333,1","1,0.333,0.333,0.333,1,0.333,0.333,0.333,1","1",""
"","html-keyboard-response","273","145276","0.0-273.0","","","","","null","<img src=""img/flower5.png"" style=""width:200px; border:14px solid green;"">","null","","","","","","","","",""
"","image-keyboard-response","274","145974","0.0-274.0","","","","","696.5","img/flower6.png","74","697.2999999970198","1","1","1","1","1,0.333,0.333,0.333,1,0.333,0.333,0.333,1","1,0.333,0.333,0.333,1,0.333,0.333,0.333,1","1",""
"","html-keyboard-response","275","146276","0.0-275.0","","","","","null","<img src=""img/flower6.png"" style=""width:200px; border:14px solid green;"">","null","","","","","","","","",""
"","image-keyboard-response","276","146684","0.0-276.0","","","","","407.70000000298023","img/flower6.png","74","408.29999999701977","1","1","1","1","1,0.333,0.333,0.333,1,0.333,0.333,0.333,1","1,0.333,0.333,0.333,1,0.333,0.333,0.333,1","1",""
"","html-keyboard-response","277","146985","0.0-277.0","","","","","null","<img src=""img/flower6.png"" style=""width:200px; border:14px solid green;"">","null","","","","","","","","",""
"","image-keyboard-response","278","147328","0.0-278.0","","","","","341.29999999701977","img/flower6.png","74","342.29999999701977","1","1","1","1","1,0.333,0.333,0.333,1,0.333,0.333,0.333,1","1,0.333,0.333,0.333,1,0.333,0.333,0.333,1","1",""
"","html-keyboard-response","279","147629","0.0-279.0","","","","","null","<img src=""img/flower6.png"" style=""width:200px; border:14px solid green;"">","null","","","","","","","","",""
"","image-keyboard-response","280","147937","0.0-280.0","","","","","306.5","img/flower6.png","74","307.3999999910593","1","1","1","1","1,0.333,0.333,0.333,1,0.333,0.333,0.333,1","1,0.333,0.333,0.333,1,0.333,0.333,0.333,1","1",""
"","html-keyboard-response","281","148239","0.0-281.0","","","","","null","<img src=""img/flower6.png"" style=""width:200px; border:14px solid green;"">","null","","","","","","","","",""
"","image-keyboard-response","282","149259","0.0-282.0","","","","","1018.7999999970198","img/flower5.png","76","1020.2000000029802","3","1","2","1","1,0.333,0.333,0.333,1,0.333,0.333,0.333,1","1,0.333,0.333,0.333,1,0.333,0.333,0.333,1","1",""
"","html-keyboard-response","283","149562","0.0-283.0","","","","","null","<img src=""img/flower5.png"" style=""width:200px; border:14px solid green;"">","null","","","","","","","","",""
"","image-keyboard-response","284","150013","0.0-284.0","","","","","450.40000000596046","img/flower5.png","76","451.6000000089407","3","1","2","1","1,0.333,0.333,0.333,1,0.333,0.333,0.333,1","1,0.333,0.333,0.333,1,0.333,0.333,0.333,1","1",""
"","html-keyboard-response","285","150315","0.0-285.0","","","","","null","<img src=""img/flower5.png"" style=""width:200px; border:14px solid green;"">","null","","","","","","","","",""
"","image-keyboard-response","286","150907","0.0-286.0","","","","","591.2000000029802","img/flower5.png","75","592.2999999970198","2","1","2","1","1,0.333,0.333,0.333,1,0.333,0.333,0.333,1","1,0.333,0.333,0.333,1,0.333,0.333,0.333,1","1",""
"","html-keyboard-response","287","151210","0.0-287.0","","","","","null","<img src=""img/flower5.png"" style=""width:200px; border:14px solid green;"">","null","","","","","","","","",""
"","image-keyboard-response","288","152029","0.0-288.0","","","","","818.1000000089407","img/flower6.png","74","819","1","1","1","1","1,0.333,0.333,0.333,1,0.333,0.333,0.333,1","1,0.333,0.333,0.333,1,0.333,0.333,0.333,1","1",""
"","html-keyboard-response","289","152331","0.0-289.0","","","","","null","<img src=""img/flower6.png"" style=""width:200px; border:14px solid green;"">","null","","","","","","","","",""
"","image-keyboard-response","290","152985","0.0-290.0","","","","","652.0999999940395","img/flower5.png","75","653.4000000059605","2","1","2","1","1,0.333,0.333,0.333,1,0.333,0.333,0.333,1","1,0.333,0.333,0.333,1,0.333,0.333,0.333,1","1",""
"","html-keyboard-response","291","153287","0.0-291.0","","","","","null","<img src=""img/flower5.png"" style=""width:200px; border:14px solid green;"">","null","","","","","","","","",""
"","image-keyboard-response","292","153872","0.0-292.0","","","","","583.7000000029802","img/flower2.png","76","584.5999999940395","3","1","3","1","1,0.333,0.333,0.333,1,0.333,0.333,0.333,1","1,0.333,0.333,0.333,1,0.333,0.333,0.333,1","1",""
"","html-keyboard-response","293","154174","0.0-293.0","","","","","null","<img src=""img/flower2.png"" style=""width:200px; border:14px solid green;"">","null","","","","","","","","",""
"","image-keyboard-response","294","154879","0.0-294.0","","","","","704.2000000029802","img/flower6.png","74","705.1000000089407","1","1","1","1","1,0.333,0.333,0.333,1,0.333,0.333,0.333,1","1,0.333,0.333,0.333,1,0.333,0.333,0.333,1","1",""
"","html-keyboard-response","295","155181","0.0-295.0","","","","","null","<img src=""img/flower6.png"" style=""width:200px; border:14px solid green;"">","null","","","","","","","","",""
"","image-keyboard-response","296","155984","0.0-296.0","","","","","802.3000000119209","img/flower5.png","75","803","2","1","2","1","1,0.333,0.333,0.333,1,0.333,0.333,0.333,1","1,0.333,0.333,0.333,1,0.333,0.333,0.333,1","1",""
"","html-keyboard-response","297","156287","0.0-297.0","","","","","null","<img src=""img/flower5.png"" style=""width:200px; border:14px solid green;"">","null","","","","","","","","",""
"","image-keyboard-response","298","156930","0.0-298.0","","","","","642.0999999940395","img/flower2.png","76","643.4000000059605","3","1","3","1","1,0.333,0.333,0.333,1,0.333,0.333,0.333,1","1,0.333,0.333,0.333,1,0.333,0.333,0.333,1","1",""
"","html-keyboard-response","299","157233","0.0-299.0","","","","","null","<img src=""img/flower2.png"" style=""width:200px; border:14px solid green;"">","null","","","","","","","","",""
"","image-keyboard-response","300","157901","0.0-300.0","","","","","666.2999999970198","img/flower6.png","74","667.7000000029802","1","1","1","1","1,0.333,0.333,0.333,1,0.333,0.333,0.333,1","1,0.333,0.333,0.333,1,0.333,0.333,0.333,1","1",""
"","html-keyboard-response","301","158202","0.0-301.0","","","","","null","<img src=""img/flower6.png"" style=""width:200px; border:14px solid green;"">","null","","","","","","","","",""
"","image-keyboard-response","302","158807","0.0-302.0","","","","","603.8000000119209","img/flower2.png","76","605.2999999970198","3","1","3","1","1,0.333,0.333,0.333,1,0.333,0.333,0.333,1","1,0.333,0.333,0.333,1,0.333,0.333,0.333,1","1",""
"","html-keyboard-response","303","159110","0.0-303.0","","","","","null","<img src=""img/flower2.png"" style=""width:200px; border:14px solid green;"">","null","","","","","","","","",""
"","image-keyboard-response","304","159627","0.0-304.0","","","","","515.5999999940395","img/flower2.png","76","516.6000000089407","3","1","3","1","1,0.333,0.333,0.333,1,0.333,0.333,0.333,1","1,0.333,0.333,0.333,1,0.333,0.333,0.333,1","1",""
"","html-keyboard-response","305","159928","0.0-305.0","","","","","null","<img src=""img/flower2.png"" style=""width:200px; border:14px solid green;"">","null","","","","","","","","",""
"","image-keyboard-response","306","160331","0.0-306.0","","","","","401","img/flower2.png","76","402.3999999910593","3","1","3","1","1,0.333,0.333,0.333,1,0.333,0.333,0.333,1","1,0.333,0.333,0.333,1,0.333,0.333,0.333,1","1",""
"","html-keyboard-response","307","160634","0.0-307.0","","","","","null","<img src=""img/flower2.png"" style=""width:200px; border:14px solid green;"">","null","","","","","","","","",""
"","image-keyboard-response","308","161255","0.0-308.0","","","","","619.6999999880791","img/flower6.png","74","620.9000000059605","1","1","1","1","1,0.333,0.333,0.333,1,0.333,0.333,0.333,1","1,0.333,0.333,0.333,1,0.333,0.333,0.333,1","1",""
"","html-keyboard-response","309","161559","0.0-309.0","","","","","null","<img src=""img/flower6.png"" style=""width:200px; border:14px solid green;"">","null","","","","","","","","",""
"","image-keyboard-response","310","161955","0.0-310.0","","","","","395.59999999403954","img/flower6.png","74","396.20000000298023","1","1","1","1","1,0.333,0.333,0.333,1,0.333,0.333,0.333,1","1,0.333,0.333,0.333,1,0.333,0.333,0.333,1","1",""
"","html-keyboard-response","311","162256","0.0-311.0","","","","","null","<img src=""img/flower6.png"" style=""width:200px; border:14px solid green;"">","null","","","","","","","","",""
"","image-keyboard-response","312","162790","0.0-312.0","","","","","532.7000000029802","img/flower5.png","75","533.7999999970198","2","1","2","1","1,0.333,0.333,0.333,1,0.333,0.333,0.333,1","1,0.333,0.333,0.333,1,0.333,0.333,0.333,1","1",""
"","html-keyboard-response","313","163093","0.0-313.0","","","","","null","<img src=""img/flower5.png"" style=""width:200px; border:14px solid green;"">","null","","","","","","","","",""
"","image-keyboard-response","314","163463","0.0-314.0","","","","","369.59999999403954","img/flower5.png","75","370.40000000596046","2","1","2","1","1,0.333,0.333,0.333,1,0.333,0.333,0.333,1","1,0.333,0.333,0.333,1,0.333,0.333,0.333,1","1",""
"","html-keyboard-response","315","163765","0.0-315.0","","","","","null","<img src=""img/flower5.png"" style=""width:200px; border:14px solid green;"">","null","","","","","","","","",""
"","image-keyboard-response","316","164545","0.0-316.0","","","","","779.5","img/flower6.png","74","780.2000000029802","1","1","1","1","1,0.333,0.333,0.333,1,0.333,0.333,0.333,1","1,0.333,0.333,0.333,1,0.333,0.333,0.333,1","1",""
"","html-keyboard-response","317","164848","0.0-317.0","","","","","null","<img src=""img/flower6.png"" style=""width:200px; border:14px solid green;"">","null","","","","","","","","",""
"","image-keyboard-response","318","165537","0.0-318.0","","","","","688.5","img/flower2.png","76","689","3","1","3","1","1,0.333,0.333,0.333,1,0.333,0.333,0.333,1","1,0.333,0.333,0.333,1,0.333,0.333,0.333,1","1",""
"","html-keyboard-response","319","165839","0.0-319.0","","","","","null","<img src=""img/flower2.png"" style=""width:200px; border:14px solid green;"">","null","","","","","","","","",""
"","image-keyboard-response","320","166807","0.0-320.0","","","","","966.8999999910593","img/flower6.png","74","967.7000000029802","1","1","1","1","1,0.333,0.333,0.333,1,0.333,0.333,0.333,1","1,0.333,0.333,0.333,1,0.333,0.333,0.333,1","1",""
"","html-keyboard-response","321","167109","0.0-321.0","","","","","null","<img src=""img/flower6.png"" style=""width:200px; border:14px solid green;"">","null","","","","","","","","",""
"","image-keyboard-response","322","167562","0.0-322.0","","","","","451.09999999403954","img/flower6.png","74","452","1","1","1","1","1,0.333,0.333,0.333,1,0.333,0.333,0.333,1","1,0.333,0.333,0.333,1,0.333,0.333,0.333,1","1",""
"","html-keyboard-response","323","167863","0.0-323.0","","","","","null","<img src=""img/flower6.png"" style=""width:200px; border:14px solid green;"">","null","","","","","","","","",""
"","image-keyboard-response","324","168610","0.0-324.0","","","","","746","img/flower2.png","76","746.7000000029802","3","1","3","1","1,0.333,0.333,0.333,1,0.333,0.333,0.333,1","1,0.333,0.333,0.333,1,0.333,0.333,0.333,1","1",""
"","html-keyboard-response","325","168920","0.0-325.0","","","","","null","<img src=""img/flower2.png"" style=""width:200px; border:14px solid green;"">","null","","","","","","","","",""
"","image-keyboard-response","326","170212","0.0-326.0","","","","","1289.7999999970198","img/flower5.png","75","1291.0999999940395","2","1","2","1","1,0.333,0.333,0.333,1,0.333,0.333,0.333,1","1,0.333,0.333,0.333,1,0.333,0.333,0.333,1","1",""
"","html-keyboard-response","327","170514","0.0-327.0","","","","","null","<img src=""img/flower5.png"" style=""width:200px; border:14px solid green;"">","null","","","","","","","","",""
"","image-keyboard-response","328","171398","0.0-328.0","","","","","882.4000000059605","img/flower2.png","76","883.5999999940395","3","1","3","1","1,0.333,0.333,0.333,1,0.333,0.333,0.333,1","1,0.333,0.333,0.333,1,0.333,0.333,0.333,1","1",""
"","html-keyboard-response","329","171707","0.0-329.0","","","","","null","<img src=""img/flower2.png"" style=""width:200px; border:14px solid green;"">","null","","","","","","","","",""
"","image-keyboard-response","330","172116","0.0-330.0","","","","","408.5","img/flower2.png","76","409.29999999701977","3","1","3","1","1,0.333,0.333,0.333,1,0.333,0.333,0.333,1","1,0.333,0.333,0.333,1,0.333,0.333,0.333,1","1",""
"","html-keyboard-response","331","172418","0.0-331.0","","","","","null","<img src=""img/flower2.png"" style=""width:200px; border:14px solid green;"">","null","","","","","","","","",""
"","image-keyboard-response","332","172772","0.0-332.0","","","","","352.29999999701977","img/flower2.png","76","353.6000000089407","3","1","3","1","1,0.333,0.333,0.333,1,0.333,0.333,0.333,1","1,0.333,0.333,0.333,1,0.333,0.333,0.333,1","1",""
"","html-keyboard-response","333","173087","0.0-333.0","","","","","null","<img src=""img/flower2.png"" style=""width:200px; border:14px solid green;"">","null","","","","","","","","",""
"","image-keyboard-response","334","174043","0.0-334.0","","","","","954.6000000089407","img/flower5.png","74","955.7999999970198","1","0","2","1","1,0.333,0.333,0.333,1,0.333,0.333,0.333,1","1,0.333,0.333,0.333,1,0.333,0.333,0.333,1","1",""
"","html-keyboard-response","335","174346","0.0-335.0","","","","","null","<img src=""img/flower5.png"" style=""width:200px;border:14px solid red;"">","null","","","","","","","","",""
"","image-keyboard-response","336","174754","0.0-336.0","","","","","407.29999999701977","img/flower2.png","76","408.29999999701977","3","1","3","1","1,0.333,0.333,0.333,1,0.333,0.333,0.333,1","1,0.333,0.333,0.333,1,0.333,0.333,0.333,1","1",""
"","html-keyboard-response","337","175055","0.0-337.0","","","","","null","<img src=""img/flower2.png"" style=""width:200px; border:14px solid green;"">","null","","","","","","","","",""
"","image-keyboard-response","338","175512","0.0-338.0","","","","","455.19999998807907","img/flower2.png","76","456.5","3","1","3","1","1,0.333,0.333,0.333,1,0.333,0.333,0.333,1","1,0.333,0.333,0.333,1,0.333,0.333,0.333,1","1",""
"","html-keyboard-response","339","175815","0.0-339.0","","","","","null","<img src=""img/flower2.png"" style=""width:200px; border:14px solid green;"">","null","","","","","","","","",""
"","image-keyboard-response","340","175930","0.0-340.0","","","","","114.3999999910593","img/flower5.png","76","115","3","1","2","1","1,0.333,0.333,0.333,1,0.333,0.333,0.333,1","1,0.333,0.333,0.333,1,0.333,0.333,0.333,1","1",""
"","html-keyboard-response","341","176231","0.0-341.0","","","","","null","<img src=""img/flower5.png"" style=""width:200px; border:14px solid green;"">","null","","","","","","","","",""
"","image-keyboard-response","342","176982","0.0-342.0","","","","","748.7999999970198","img/flower5.png","75","750","2","1","2","1","1,0.333,0.333,0.333,1,0.333,0.333,0.333,1","1,0.333,0.333,0.333,1,0.333,0.333,0.333,1","1",""
"","html-keyboard-response","343","177283","0.0-343.0","","","","","null","<img src=""img/flower5.png"" style=""width:200px; border:14px solid green;"">","null","","","","","","","","",""
"","image-keyboard-response","344","177993","0.0-344.0","","","","","709.5","img/flower2.png","76","710.0999999940395","3","1","3","1","1,0.333,0.333,0.333,1,0.333,0.333,0.333,1","1,0.333,0.333,0.333,1,0.333,0.333,0.333,1","1",""
"","html-keyboard-response","345","178294","0.0-345.0","","","","","null","<img src=""img/flower2.png"" style=""width:200px; border:14px solid green;"">","null","","","","","","","","",""
"","image-keyboard-response","346","179052","0.0-346.0","","","","","756.7000000029802","img/flower6.png","74","757.5999999940395","1","1","1","1","1,0.333,0.333,0.333,1,0.333,0.333,0.333,1","1,0.333,0.333,0.333,1,0.333,0.333,0.333,1","1",""
"","html-keyboard-response","347","179354","0.0-347.0","","","","","null","<img src=""img/flower6.png"" style=""width:200px; border:14px solid green;"">","null","","","","","","","","",""
"","image-keyboard-response","348","180020","0.0-348.0","","","","","664.5","img/flower5.png","75","666.1000000089407","2","1","2","1","1,0.333,0.333,0.333,1,0.333,0.333,0.333,1","1,0.333,0.333,0.333,1,0.333,0.333,0.333,1","1",""
"","html-keyboard-response","349","180323","0.0-349.0","","","","","null","<img src=""img/flower5.png"" style=""width:200px; border:14px solid green;"">","null","","","","","","","","",""
"","image-keyboard-response","350","180941","0.0-350.0","","","","","616","img/flower6.png","74","617.2000000029802","1","1","1","1","1,0.333,0.333,0.333,1,0.333,0.333,0.333,1","1,0.333,0.333,0.333,1,0.333,0.333,0.333,1","1",""
"","html-keyboard-response","351","181244","0.0-351.0","","","","","null","<img src=""img/flower6.png"" style=""width:200px; border:14px solid green;"">","null","","","","","","","","",""
"","image-keyboard-response","352","181804","0.0-352.0","","","","","559.5","img/flower5.png","75","560.1999999880791","2","1","2","1","1,0.333,0.333,0.333,1,0.333,0.333,0.333,1","1,0.333,0.333,0.333,1,0.333,0.333,0.333,1","1",""
"","html-keyboard-response","353","182106","0.0-353.0","","","","","null","<img src=""img/flower5.png"" style=""width:200px; border:14px solid green;"">","null","","","","","","","","",""
"","image-keyboard-response","354","182763","0.0-354.0","","","","","655.2999999970198","img/flower2.png","76","656.2000000029802","3","1","3","1","1,0.333,0.333,0.333,1,0.333,0.333,0.333,1","1,0.333,0.333,0.333,1,0.333,0.333,0.333,1","1",""
"","html-keyboard-response","355","183065","0.0-355.0","","","","","null","<img src=""img/flower2.png"" style=""width:200px; border:14px solid green;"">","null","","","","","","","","",""
"","image-keyboard-response","356","183870","0.0-356.0","","","","","803.7000000029802","img/flower6.png","74","804.6999999880791","1","1","1","1","1,0.333,0.333,0.333,1,0.333,0.333,0.333,1","1,0.333,0.333,0.333,1,0.333,0.333,0.333,1","1",""
"","html-keyboard-response","357","184172","0.0-357.0","","","","","null","<img src=""img/flower6.png"" style=""width:200px; border:14px solid green;"">","null","","","","","","","","",""
"","image-keyboard-response","358","184841","0.0-358.0","","","","","667.7999999970198","img/flower5.png","75","669","2","1","2","1","1,0.333,0.333,0.333,1,0.333,0.333,0.333,1","1,0.333,0.333,0.333,1,0.333,0.333,0.333,1","1",""
"","html-keyboard-response","359","185145","0.0-359.0","","","","","null","<img src=""img/flower5.png"" style=""width:200px; border:14px solid green;"">","null","","","","","","","","",""
"","image-keyboard-response","360","185733","0.0-360.0","","","","","587.7000000029802","img/flower6.png","74","588.4000000059605","1","1","1","1","1,0.333,0.333,0.333,1,0.333,0.333,0.333,1","1,0.333,0.333,0.333,1,0.333,0.333,0.333,1","1",""
"","html-keyboard-response","361","186035","0.0-361.0","","","","","null","<img src=""img/flower6.png"" style=""width:200px; border:14px solid green;"">","null","","","","","","","","",""
"","html-keyboard-response","362","200863","0.0-362.0","","","","","","","","","","","","","","","",""
"","instructions","363","202923","0.0-363.0","","","","[{""page_index"":0,""viewing_time"":2059}]","2059.2999999970198","","","","","","","","","","",""
"","survey-text","364","210438","0.0-364.0","","","","","7510.0999999940395","","","","","","","","","","","{""Q0"":""A1TPGXT718D68E""}"
