"success","trial_type","trial_index","time_elapsed","internal_node_id","assignmentID","mturkID","hitID","view_history","rt","stimulus","key_press","reactionTime","a","r","s","cond","reward_cond","reward_cond_actual","reward_matrix_idx","responses"
"true","fullscreen","0","4243","0.0-0.0","3MHW492WW1ZOA6PYQHF58IME0T8VMI","A1U52239IPV7IO","382GHPVPHSDM8N0F9141EAH7F0K34Z","","","","","","","","","","","","",""
"","instructions","1","35492","0.0-1.0","3MHW492WW1ZOA6PYQHF58IME0T8VMI","A1U52239IPV7IO","382GHPVPHSDM8N0F9141EAH7F0K34Z","[{""page_index"":0,""viewing_time"":3148},{""page_index"":1,""viewing_time"":1998},{""page_index"":2,""viewing_time"":4921},{""page_index"":3,""viewing_time"":2560},{""page_index"":4,""viewing_time"":10060},{""page_index"":5,""viewing_time"":3399},{""page_index"":6,""viewing_time"":3062},{""page_index"":7,""viewing_time"":2099}]","31247","","","","","","","","","","",""
"","image-keyboard-response","2","37023","0.0-2.0","3MHW492WW1ZOA6PYQHF58IME0T8VMI","A1U52239IPV7IO","382GHPVPHSDM8N0F9141EAH7F0K34Z","","1528","img/flower3.png","74","1530","1","0","2","1","1,0.333,0.333,0.333,1,0.333,0.333,0.333,1","1,0.333,0.333,0.333,1,0.333,0.333,0.333,1","1",""
"","html-keyboard-response","3","37333","0.0-3.0","3MHW492WW1ZOA6PYQHF58IME0T8VMI","A1U52239IPV7IO","382GHPVPHSDM8N0F9141EAH7F0K34Z","","null","<img src=""img/flower3.png"" style=""width:200px;border:14px solid red;"">","null","","","","","","","","",""
"","image-keyboard-response","4","37602","0.0-4.0","3MHW492WW1ZOA6PYQHF58IME0T8VMI","A1U52239IPV7IO","382GHPVPHSDM8N0F9141EAH7F0K34Z","","268","img/flower3.png","74","269","1","0","2","1","1,0.333,0.333,0.333,1,0.333,0.333,0.333,1","1,0.333,0.333,0.333,1,0.333,0.333,0.333,1","1",""
"","html-keyboard-response","5","37903","0.0-5.0","3MHW492WW1ZOA6PYQHF58IME0T8VMI","A1U52239IPV7IO","382GHPVPHSDM8N0F9141EAH7F0K34Z","","null","<img src=""img/flower3.png"" style=""width:200px;border:14px solid red;"">","null","","","","","","","","",""
"","image-keyboard-response","6","38013","0.0-6.0","3MHW492WW1ZOA6PYQHF58IME0T8VMI","A1U52239IPV7IO","382GHPVPHSDM8N0F9141EAH7F0K34Z","","108","img/flower6.png","74","110","1","1","3","1","1,0.333,0.333,0.333,1,0.333,0.333,0.333,1","1,0.333,0.333,0.333,1,0.333,0.333,0.333,1","1",""
"","html-keyboard-response","7","38315","0.0-7.0","3MHW492WW1ZOA6PYQHF58IME0T8VMI","A1U52239IPV7IO","382GHPVPHSDM8N0F9141EAH7F0K34Z","","null","<img src=""img/flower6.png"" style=""width:200px; border:14px solid green;"">","null","","","","","","","","",""
"","image-keyboard-response","8","38401","0.0-8.0","3MHW492WW1ZOA6PYQHF58IME0T8VMI","A1U52239IPV7IO","382GHPVPHSDM8N0F9141EAH7F0K34Z","","86","img/flower4.png","74","86","1","1","1","1","1,0.333,0.333,0.333,1,0.333,0.333,0.333,1","1,0.333,0.333,0.333,1,0.333,0.333,0.333,1","1",""
"","html-keyboard-response","9","38702","0.0-9.0","3MHW492WW1ZOA6PYQHF58IME0T8VMI","A1U52239IPV7IO","382GHPVPHSDM8N0F9141EAH7F0K34Z","","null","<img src=""img/flower4.png"" style=""width:200px; border:14px solid green;"">","null","","","","","","","","",""
"","image-keyboard-response","10","38954","0.0-10.0","3MHW492WW1ZOA6PYQHF58IME0T8VMI","A1U52239IPV7IO","382GHPVPHSDM8N0F9141EAH7F0K34Z","","250","img/flower4.png","74","252","1","1","1","1","1,0.333,0.333,0.333,1,0.333,0.333,0.333,1","1,0.333,0.333,0.333,1,0.333,0.333,0.333,1","1",""
"","html-keyboard-response","11","39255","0.0-11.0","3MHW492WW1ZOA6PYQHF58IME0T8VMI","A1U52239IPV7IO","382GHPVPHSDM8N0F9141EAH7F0K34Z","","null","<img src=""img/flower4.png"" style=""width:200px; border:14px solid green;"">","null","","","","","","","","",""
"","image-keyboard-response","12","39362","0.0-12.0","3MHW492WW1ZOA6PYQHF58IME0T8VMI","A1U52239IPV7IO","382GHPVPHSDM8N0F9141EAH7F0K34Z","","106","img/flower3.png","74","107","1","0","2","1","1,0.333,0.333,0.333,1,0.333,0.333,0.333,1","1,0.333,0.333,0.333,1,0.333,0.333,0.333,1","1",""
"","html-keyboard-response","13","39664","0.0-13.0","3MHW492WW1ZOA6PYQHF58IME0T8VMI","A1U52239IPV7IO","382GHPVPHSDM8N0F9141EAH7F0K34Z","","null","<img src=""img/flower3.png"" style=""width:200px;border:14px solid red;"">","null","","","","","","","","",""
"","image-keyboard-response","14","39886","0.0-14.0","3MHW492WW1ZOA6PYQHF58IME0T8VMI","A1U52239IPV7IO","382GHPVPHSDM8N0F9141EAH7F0K34Z","","221","img/flower6.png","74","223","1","1","3","1","1,0.333,0.333,0.333,1,0.333,0.333,0.333,1","1,0.333,0.333,0.333,1,0.333,0.333,0.333,1","1",""
"","html-keyboard-response","15","40187","0.0-15.0","3MHW492WW1ZOA6PYQHF58IME0T8VMI","A1U52239IPV7IO","382GHPVPHSDM8N0F9141EAH7F0K34Z","","null","<img src=""img/flower6.png"" style=""width:200px; border:14px solid green;"">","null","","","","","","","","",""
"","image-keyboard-response","16","40191","0.0-16.0","3MHW492WW1ZOA6PYQHF58IME0T8VMI","A1U52239IPV7IO","382GHPVPHSDM8N0F9141EAH7F0K34Z","","4","img/flower6.png","74","4","1","0","3","1","1,0.333,0.333,0.333,1,0.333,0.333,0.333,1","1,0.333,0.333,0.333,1,0.333,0.333,0.333,1","1",""
"","html-keyboard-response","17","40493","0.0-17.0","3MHW492WW1ZOA6PYQHF58IME0T8VMI","A1U52239IPV7IO","382GHPVPHSDM8N0F9141EAH7F0K34Z","","null","<img src=""img/flower6.png"" style=""width:200px;border:14px solid red;"">","null","","","","","","","","",""
"","image-keyboard-response","18","40652","0.0-18.0","3MHW492WW1ZOA6PYQHF58IME0T8VMI","A1U52239IPV7IO","382GHPVPHSDM8N0F9141EAH7F0K34Z","","159","img/flower4.png","74","159","1","1","1","1","1,0.333,0.333,0.333,1,0.333,0.333,0.333,1","1,0.333,0.333,0.333,1,0.333,0.333,0.333,1","1",""
"","html-keyboard-response","19","40954","0.0-19.0","3MHW492WW1ZOA6PYQHF58IME0T8VMI","A1U52239IPV7IO","382GHPVPHSDM8N0F9141EAH7F0K34Z","","null","<img src=""img/flower4.png"" style=""width:200px; border:14px solid green;"">","null","","","","","","","","",""
"","image-keyboard-response","20","41067","0.0-20.0","3MHW492WW1ZOA6PYQHF58IME0T8VMI","A1U52239IPV7IO","382GHPVPHSDM8N0F9141EAH7F0K34Z","","112","img/flower6.png","74","113","1","0","3","1","1,0.333,0.333,0.333,1,0.333,0.333,0.333,1","1,0.333,0.333,0.333,1,0.333,0.333,0.333,1","1",""
"","html-keyboard-response","21","41367","0.0-21.0","3MHW492WW1ZOA6PYQHF58IME0T8VMI","A1U52239IPV7IO","382GHPVPHSDM8N0F9141EAH7F0K34Z","","null","<img src=""img/flower6.png"" style=""width:200px;border:14px solid red;"">","null","","","","","","","","",""
"","image-keyboard-response","22","41482","0.0-22.0","3MHW492WW1ZOA6PYQHF58IME0T8VMI","A1U52239IPV7IO","382GHPVPHSDM8N0F9141EAH7F0K34Z","","114","img/flower3.png","74","115","1","0","2","1","1,0.333,0.333,0.333,1,0.333,0.333,0.333,1","1,0.333,0.333,0.333,1,0.333,0.333,0.333,1","1",""
"","html-keyboard-response","23","41784","0.0-23.0","3MHW492WW1ZOA6PYQHF58IME0T8VMI","A1U52239IPV7IO","382GHPVPHSDM8N0F9141EAH7F0K34Z","","null","<img src=""img/flower3.png"" style=""width:200px;border:14px solid red;"">","null","","","","","","","","",""
"","image-keyboard-response","24","41992","0.0-24.0","3MHW492WW1ZOA6PYQHF58IME0T8VMI","A1U52239IPV7IO","382GHPVPHSDM8N0F9141EAH7F0K34Z","","208","img/flower4.png","74","208","1","1","1","1","1,0.333,0.333,0.333,1,0.333,0.333,0.333,1","1,0.333,0.333,0.333,1,0.333,0.333,0.333,1","1",""
"","html-keyboard-response","25","42295","0.0-25.0","3MHW492WW1ZOA6PYQHF58IME0T8VMI","A1U52239IPV7IO","382GHPVPHSDM8N0F9141EAH7F0K34Z","","null","<img src=""img/flower4.png"" style=""width:200px; border:14px solid green;"">","null","","","","","","","","",""
"","image-keyboard-response","26","42328","0.0-26.0","3MHW492WW1ZOA6PYQHF58IME0T8VMI","A1U52239IPV7IO","382GHPVPHSDM8N0F9141EAH7F0K34Z","","32","img/flower6.png","74","33","1","0","3","1","1,0.333,0.333,0.333,1,0.333,0.333,0.333,1","1,0.333,0.333,0.333,1,0.333,0.333,0.333,1","1",""
"","html-keyboard-response","27","42629","0.0-27.0","3MHW492WW1ZOA6PYQHF58IME0T8VMI","A1U52239IPV7IO","382GHPVPHSDM8N0F9141EAH7F0K34Z","","null","<img src=""img/flower6.png"" style=""width:200px;border:14px solid red;"">","null","","","","","","","","",""
"","image-keyboard-response","28","42712","0.0-28.0","3MHW492WW1ZOA6PYQHF58IME0T8VMI","A1U52239IPV7IO","382GHPVPHSDM8N0F9141EAH7F0K34Z","","83","img/flower4.png","74","84","1","1","1","1","1,0.333,0.333,0.333,1,0.333,0.333,0.333,1","1,0.333,0.333,0.333,1,0.333,0.333,0.333,1","1",""
"","html-keyboard-response","29","43014","0.0-29.0","3MHW492WW1ZOA6PYQHF58IME0T8VMI","A1U52239IPV7IO","382GHPVPHSDM8N0F9141EAH7F0K34Z","","null","<img src=""img/flower4.png"" style=""width:200px; border:14px solid green;"">","null","","","","","","","","",""
"","image-keyboard-response","30","43211","0.0-30.0","3MHW492WW1ZOA6PYQHF58IME0T8VMI","A1U52239IPV7IO","382GHPVPHSDM8N0F9141EAH7F0K34Z","","196","img/flower4.png","74","197","1","1","1","1","1,0.333,0.333,0.333,1,0.333,0.333,0.333,1","1,0.333,0.333,0.333,1,0.333,0.333,0.333,1","1",""
"","html-keyboard-response","31","43512","0.0-31.0","3MHW492WW1ZOA6PYQHF58IME0T8VMI","A1U52239IPV7IO","382GHPVPHSDM8N0F9141EAH7F0K34Z","","null","<img src=""img/flower4.png"" style=""width:200px; border:14px solid green;"">","null","","","","","","","","",""
"","image-keyboard-response","32","43582","0.0-32.0","3MHW492WW1ZOA6PYQHF58IME0T8VMI","A1U52239IPV7IO","382GHPVPHSDM8N0F9141EAH7F0K34Z","","70","img/flower6.png","74","70","1","0","3","1","1,0.333,0.333,0.333,1,0.333,0.333,0.333,1","1,0.333,0.333,0.333,1,0.333,0.333,0.333,1","1",""
"","html-keyboard-response","33","43883","0.0-33.0","3MHW492WW1ZOA6PYQHF58IME0T8VMI","A1U52239IPV7IO","382GHPVPHSDM8N0F9141EAH7F0K34Z","","null","<img src=""img/flower6.png"" style=""width:200px;border:14px solid red;"">","null","","","","","","","","",""
"","image-keyboard-response","34","43993","0.0-34.0","3MHW492WW1ZOA6PYQHF58IME0T8VMI","A1U52239IPV7IO","382GHPVPHSDM8N0F9141EAH7F0K34Z","","108","img/flower6.png","74","110","1","1","3","1","1,0.333,0.333,0.333,1,0.333,0.333,0.333,1","1,0.333,0.333,0.333,1,0.333,0.333,0.333,1","1",""
"","html-keyboard-response","35","44294","0.0-35.0","3MHW492WW1ZOA6PYQHF58IME0T8VMI","A1U52239IPV7IO","382GHPVPHSDM8N0F9141EAH7F0K34Z","","null","<img src=""img/flower6.png"" style=""width:200px; border:14px solid green;"">","null","","","","","","","","",""
"","image-keyboard-response","36","44372","0.0-36.0","3MHW492WW1ZOA6PYQHF58IME0T8VMI","A1U52239IPV7IO","382GHPVPHSDM8N0F9141EAH7F0K34Z","","78","img/flower3.png","74","78","1","0","2","1","1,0.333,0.333,0.333,1,0.333,0.333,0.333,1","1,0.333,0.333,0.333,1,0.333,0.333,0.333,1","1",""
"","html-keyboard-response","37","44673","0.0-37.0","3MHW492WW1ZOA6PYQHF58IME0T8VMI","A1U52239IPV7IO","382GHPVPHSDM8N0F9141EAH7F0K34Z","","null","<img src=""img/flower3.png"" style=""width:200px;border:14px solid red;"">","null","","","","","","","","",""
"","image-keyboard-response","38","44905","0.0-38.0","3MHW492WW1ZOA6PYQHF58IME0T8VMI","A1U52239IPV7IO","382GHPVPHSDM8N0F9141EAH7F0K34Z","","232","img/flower4.png","74","232","1","1","1","1","1,0.333,0.333,0.333,1,0.333,0.333,0.333,1","1,0.333,0.333,0.333,1,0.333,0.333,0.333,1","1",""
"","html-keyboard-response","39","45206","0.0-39.0","3MHW492WW1ZOA6PYQHF58IME0T8VMI","A1U52239IPV7IO","382GHPVPHSDM8N0F9141EAH7F0K34Z","","null","<img src=""img/flower4.png"" style=""width:200px; border:14px solid green;"">","null","","","","","","","","",""
"","image-keyboard-response","40","45322","0.0-40.0","3MHW492WW1ZOA6PYQHF58IME0T8VMI","A1U52239IPV7IO","382GHPVPHSDM8N0F9141EAH7F0K34Z","","115","img/flower4.png","75","116","2","0","1","1","1,0.333,0.333,0.333,1,0.333,0.333,0.333,1","1,0.333,0.333,0.333,1,0.333,0.333,0.333,1","1",""
"","html-keyboard-response","41","45623","0.0-41.0","3MHW492WW1ZOA6PYQHF58IME0T8VMI","A1U52239IPV7IO","382GHPVPHSDM8N0F9141EAH7F0K34Z","","null","<img src=""img/flower4.png"" style=""width:200px;border:14px solid red;"">","null","","","","","","","","",""
"","image-keyboard-response","42","45732","0.0-42.0","3MHW492WW1ZOA6PYQHF58IME0T8VMI","A1U52239IPV7IO","382GHPVPHSDM8N0F9141EAH7F0K34Z","","108","img/flower3.png","76","109","3","0","2","1","1,0.333,0.333,0.333,1,0.333,0.333,0.333,1","1,0.333,0.333,0.333,1,0.333,0.333,0.333,1","1",""
"","html-keyboard-response","43","46034","0.0-43.0","3MHW492WW1ZOA6PYQHF58IME0T8VMI","A1U52239IPV7IO","382GHPVPHSDM8N0F9141EAH7F0K34Z","","null","<img src=""img/flower3.png"" style=""width:200px;border:14px solid red;"">","null","","","","","","","","",""
"","image-keyboard-response","44","46072","0.0-44.0","3MHW492WW1ZOA6PYQHF58IME0T8VMI","A1U52239IPV7IO","382GHPVPHSDM8N0F9141EAH7F0K34Z","","37","img/flower3.png","75","38","2","1","2","1","1,0.333,0.333,0.333,1,0.333,0.333,0.333,1","1,0.333,0.333,0.333,1,0.333,0.333,0.333,1","1",""
"","html-keyboard-response","45","46374","0.0-45.0","3MHW492WW1ZOA6PYQHF58IME0T8VMI","A1U52239IPV7IO","382GHPVPHSDM8N0F9141EAH7F0K34Z","","null","<img src=""img/flower3.png"" style=""width:200px; border:14px solid green;"">","null","","","","","","","","",""
"","image-keyboard-response","46","46393","0.0-46.0","3MHW492WW1ZOA6PYQHF58IME0T8VMI","A1U52239IPV7IO","382GHPVPHSDM8N0F9141EAH7F0K34Z","","19","img/flower3.png","74","19","1","0","2","1","1,0.333,0.333,0.333,1,0.333,0.333,0.333,1","1,0.333,0.333,0.333,1,0.333,0.333,0.333,1","1",""
"","html-keyboard-response","47","46694","0.0-47.0","3MHW492WW1ZOA6PYQHF58IME0T8VMI","A1U52239IPV7IO","382GHPVPHSDM8N0F9141EAH7F0K34Z","","null","<img src=""img/flower3.png"" style=""width:200px;border:14px solid red;"">","null","","","","","","","","",""
"","image-keyboard-response","48","46872","0.0-48.0","3MHW492WW1ZOA6PYQHF58IME0T8VMI","A1U52239IPV7IO","382GHPVPHSDM8N0F9141EAH7F0K34Z","","178","img/flower6.png","75","178","2","1","3","1","1,0.333,0.333,0.333,1,0.333,0.333,0.333,1","1,0.333,0.333,0.333,1,0.333,0.333,0.333,1","1",""
"","html-keyboard-response","49","47173","0.0-49.0","3MHW492WW1ZOA6PYQHF58IME0T8VMI","A1U52239IPV7IO","382GHPVPHSDM8N0F9141EAH7F0K34Z","","null","<img src=""img/flower6.png"" style=""width:200px; border:14px solid green;"">","null","","","","","","","","",""
"","image-keyboard-response","50","47361","0.0-50.0","3MHW492WW1ZOA6PYQHF58IME0T8VMI","A1U52239IPV7IO","382GHPVPHSDM8N0F9141EAH7F0K34Z","","187","img/flower3.png","76","187","3","1","2","1","1,0.333,0.333,0.333,1,0.333,0.333,0.333,1","1,0.333,0.333,0.333,1,0.333,0.333,0.333,1","1",""
"","html-keyboard-response","51","47664","0.0-51.0","3MHW492WW1ZOA6PYQHF58IME0T8VMI","A1U52239IPV7IO","382GHPVPHSDM8N0F9141EAH7F0K34Z","","null","<img src=""img/flower3.png"" style=""width:200px; border:14px solid green;"">","null","","","","","","","","",""
"","image-keyboard-response","52","47812","0.0-52.0","3MHW492WW1ZOA6PYQHF58IME0T8VMI","A1U52239IPV7IO","382GHPVPHSDM8N0F9141EAH7F0K34Z","","147","img/flower3.png","75","147","2","1","2","1","1,0.333,0.333,0.333,1,0.333,0.333,0.333,1","1,0.333,0.333,0.333,1,0.333,0.333,0.333,1","1",""
"","html-keyboard-response","53","48113","0.0-53.0","3MHW492WW1ZOA6PYQHF58IME0T8VMI","A1U52239IPV7IO","382GHPVPHSDM8N0F9141EAH7F0K34Z","","null","<img src=""img/flower3.png"" style=""width:200px; border:14px solid green;"">","null","","","","","","","","",""
"","image-keyboard-response","54","48252","0.0-54.0","3MHW492WW1ZOA6PYQHF58IME0T8VMI","A1U52239IPV7IO","382GHPVPHSDM8N0F9141EAH7F0K34Z","","139","img/flower3.png","76","139","3","1","2","1","1,0.333,0.333,0.333,1,0.333,0.333,0.333,1","1,0.333,0.333,0.333,1,0.333,0.333,0.333,1","1",""
"","html-keyboard-response","55","48553","0.0-55.0","3MHW492WW1ZOA6PYQHF58IME0T8VMI","A1U52239IPV7IO","382GHPVPHSDM8N0F9141EAH7F0K34Z","","null","<img src=""img/flower3.png"" style=""width:200px; border:14px solid green;"">","null","","","","","","","","",""
"","image-keyboard-response","56","48733","0.0-56.0","3MHW492WW1ZOA6PYQHF58IME0T8VMI","A1U52239IPV7IO","382GHPVPHSDM8N0F9141EAH7F0K34Z","","179","img/flower6.png","75","180","2","0","3","1","1,0.333,0.333,0.333,1,0.333,0.333,0.333,1","1,0.333,0.333,0.333,1,0.333,0.333,0.333,1","1",""
"","html-keyboard-response","57","49034","0.0-57.0","3MHW492WW1ZOA6PYQHF58IME0T8VMI","A1U52239IPV7IO","382GHPVPHSDM8N0F9141EAH7F0K34Z","","null","<img src=""img/flower6.png"" style=""width:200px;border:14px solid red;"">","null","","","","","","","","",""
"","image-keyboard-response","58","49233","0.0-58.0","3MHW492WW1ZOA6PYQHF58IME0T8VMI","A1U52239IPV7IO","382GHPVPHSDM8N0F9141EAH7F0K34Z","","198","img/flower4.png","76","199","3","0","1","1","1,0.333,0.333,0.333,1,0.333,0.333,0.333,1","1,0.333,0.333,0.333,1,0.333,0.333,0.333,1","1",""
"","html-keyboard-response","59","49535","0.0-59.0","3MHW492WW1ZOA6PYQHF58IME0T8VMI","A1U52239IPV7IO","382GHPVPHSDM8N0F9141EAH7F0K34Z","","null","<img src=""img/flower4.png"" style=""width:200px;border:14px solid red;"">","null","","","","","","","","",""
"","image-keyboard-response","60","49702","0.0-60.0","3MHW492WW1ZOA6PYQHF58IME0T8VMI","A1U52239IPV7IO","382GHPVPHSDM8N0F9141EAH7F0K34Z","","167","img/flower4.png","75","167","2","0","1","1","1,0.333,0.333,0.333,1,0.333,0.333,0.333,1","1,0.333,0.333,0.333,1,0.333,0.333,0.333,1","1",""
"","html-keyboard-response","61","50004","0.0-61.0","3MHW492WW1ZOA6PYQHF58IME0T8VMI","A1U52239IPV7IO","382GHPVPHSDM8N0F9141EAH7F0K34Z","","null","<img src=""img/flower4.png"" style=""width:200px;border:14px solid red;"">","null","","","","","","","","",""
"","image-keyboard-response","62","50242","0.0-62.0","3MHW492WW1ZOA6PYQHF58IME0T8VMI","A1U52239IPV7IO","382GHPVPHSDM8N0F9141EAH7F0K34Z","","238","img/flower4.png","76","238","3","1","1","1","1,0.333,0.333,0.333,1,0.333,0.333,0.333,1","1,0.333,0.333,0.333,1,0.333,0.333,0.333,1","1",""
"","html-keyboard-response","63","50543","0.0-63.0","3MHW492WW1ZOA6PYQHF58IME0T8VMI","A1U52239IPV7IO","382GHPVPHSDM8N0F9141EAH7F0K34Z","","null","<img src=""img/flower4.png"" style=""width:200px; border:14px solid green;"">","null","","","","","","","","",""
"","image-keyboard-response","64","50745","0.0-64.0","3MHW492WW1ZOA6PYQHF58IME0T8VMI","A1U52239IPV7IO","382GHPVPHSDM8N0F9141EAH7F0K34Z","","202","img/flower3.png","75","202","2","1","2","1","1,0.333,0.333,0.333,1,0.333,0.333,0.333,1","1,0.333,0.333,0.333,1,0.333,0.333,0.333,1","1",""
"","html-keyboard-response","65","51047","0.0-65.0","3MHW492WW1ZOA6PYQHF58IME0T8VMI","A1U52239IPV7IO","382GHPVPHSDM8N0F9141EAH7F0K34Z","","null","<img src=""img/flower3.png"" style=""width:200px; border:14px solid green;"">","null","","","","","","","","",""
"","image-keyboard-response","66","51173","0.0-66.0","3MHW492WW1ZOA6PYQHF58IME0T8VMI","A1U52239IPV7IO","382GHPVPHSDM8N0F9141EAH7F0K34Z","","125","img/flower3.png","76","126","3","0","2","1","1,0.333,0.333,0.333,1,0.333,0.333,0.333,1","1,0.333,0.333,0.333,1,0.333,0.333,0.333,1","1",""
"","html-keyboard-response","67","51473","0.0-67.0","3MHW492WW1ZOA6PYQHF58IME0T8VMI","A1U52239IPV7IO","382GHPVPHSDM8N0F9141EAH7F0K34Z","","null","<img src=""img/flower3.png"" style=""width:200px;border:14px solid red;"">","null","","","","","","","","",""
"","image-keyboard-response","68","51613","0.0-68.0","3MHW492WW1ZOA6PYQHF58IME0T8VMI","A1U52239IPV7IO","382GHPVPHSDM8N0F9141EAH7F0K34Z","","138","img/flower4.png","75","140","2","0","1","1","1,0.333,0.333,0.333,1,0.333,0.333,0.333,1","1,0.333,0.333,0.333,1,0.333,0.333,0.333,1","1",""
"","html-keyboard-response","69","51914","0.0-69.0","3MHW492WW1ZOA6PYQHF58IME0T8VMI","A1U52239IPV7IO","382GHPVPHSDM8N0F9141EAH7F0K34Z","","null","<img src=""img/flower4.png"" style=""width:200px;border:14px solid red;"">","null","","","","","","","","",""
"","image-keyboard-response","70","52062","0.0-70.0","3MHW492WW1ZOA6PYQHF58IME0T8VMI","A1U52239IPV7IO","382GHPVPHSDM8N0F9141EAH7F0K34Z","","148","img/flower3.png","76","148","3","0","2","1","1,0.333,0.333,0.333,1,0.333,0.333,0.333,1","1,0.333,0.333,0.333,1,0.333,0.333,0.333,1","1",""
"","html-keyboard-response","71","52363","0.0-71.0","3MHW492WW1ZOA6PYQHF58IME0T8VMI","A1U52239IPV7IO","382GHPVPHSDM8N0F9141EAH7F0K34Z","","null","<img src=""img/flower3.png"" style=""width:200px;border:14px solid red;"">","null","","","","","","","","",""
"","image-keyboard-response","72","52581","0.0-72.0","3MHW492WW1ZOA6PYQHF58IME0T8VMI","A1U52239IPV7IO","382GHPVPHSDM8N0F9141EAH7F0K34Z","","217","img/flower4.png","75","218","2","1","1","1","1,0.333,0.333,0.333,1,0.333,0.333,0.333,1","1,0.333,0.333,0.333,1,0.333,0.333,0.333,1","1",""
"","html-keyboard-response","73","52882","0.0-73.0","3MHW492WW1ZOA6PYQHF58IME0T8VMI","A1U52239IPV7IO","382GHPVPHSDM8N0F9141EAH7F0K34Z","","null","<img src=""img/flower4.png"" style=""width:200px; border:14px solid green;"">","null","","","","","","","","",""
"","image-keyboard-response","74","53073","0.0-74.0","3MHW492WW1ZOA6PYQHF58IME0T8VMI","A1U52239IPV7IO","382GHPVPHSDM8N0F9141EAH7F0K34Z","","190","img/flower3.png","76","191","3","1","2","1","1,0.333,0.333,0.333,1,0.333,0.333,0.333,1","1,0.333,0.333,0.333,1,0.333,0.333,0.333,1","1",""
"","html-keyboard-response","75","53373","0.0-75.0","3MHW492WW1ZOA6PYQHF58IME0T8VMI","A1U52239IPV7IO","382GHPVPHSDM8N0F9141EAH7F0K34Z","","null","<img src=""img/flower3.png"" style=""width:200px; border:14px solid green;"">","null","","","","","","","","",""
"","image-keyboard-response","76","53452","0.0-76.0","3MHW492WW1ZOA6PYQHF58IME0T8VMI","A1U52239IPV7IO","382GHPVPHSDM8N0F9141EAH7F0K34Z","","78","img/flower4.png","75","79","2","1","1","1","1,0.333,0.333,0.333,1,0.333,0.333,0.333,1","1,0.333,0.333,0.333,1,0.333,0.333,0.333,1","1",""
"","html-keyboard-response","77","53754","0.0-77.0","3MHW492WW1ZOA6PYQHF58IME0T8VMI","A1U52239IPV7IO","382GHPVPHSDM8N0F9141EAH7F0K34Z","","null","<img src=""img/flower4.png"" style=""width:200px; border:14px solid green;"">","null","","","","","","","","",""
"","image-keyboard-response","78","54087","0.0-78.0","3MHW492WW1ZOA6PYQHF58IME0T8VMI","A1U52239IPV7IO","382GHPVPHSDM8N0F9141EAH7F0K34Z","","333","img/flower3.png","76","333","3","1","2","1","1,0.333,0.333,0.333,1,0.333,0.333,0.333,1","1,0.333,0.333,0.333,1,0.333,0.333,0.333,1","1",""
"","html-keyboard-response","79","54388","0.0-79.0","3MHW492WW1ZOA6PYQHF58IME0T8VMI","A1U52239IPV7IO","382GHPVPHSDM8N0F9141EAH7F0K34Z","","null","<img src=""img/flower3.png"" style=""width:200px; border:14px solid green;"">","null","","","","","","","","",""
"","image-keyboard-response","80","54482","0.0-80.0","3MHW492WW1ZOA6PYQHF58IME0T8VMI","A1U52239IPV7IO","382GHPVPHSDM8N0F9141EAH7F0K34Z","","93","img/flower6.png","75","94","2","0","3","1","1,0.333,0.333,0.333,1,0.333,0.333,0.333,1","1,0.333,0.333,0.333,1,0.333,0.333,0.333,1","1",""
"","html-keyboard-response","81","54783","0.0-81.0","3MHW492WW1ZOA6PYQHF58IME0T8VMI","A1U52239IPV7IO","382GHPVPHSDM8N0F9141EAH7F0K34Z","","null","<img src=""img/flower6.png"" style=""width:200px;border:14px solid red;"">","null","","","","","","","","",""
"","image-keyboard-response","82","54983","0.0-82.0","3MHW492WW1ZOA6PYQHF58IME0T8VMI","A1U52239IPV7IO","382GHPVPHSDM8N0F9141EAH7F0K34Z","","199","img/flower4.png","76","200","3","0","1","1","1,0.333,0.333,0.333,1,0.333,0.333,0.333,1","1,0.333,0.333,0.333,1,0.333,0.333,0.333,1","1",""
"","html-keyboard-response","83","55287","0.0-83.0","3MHW492WW1ZOA6PYQHF58IME0T8VMI","A1U52239IPV7IO","382GHPVPHSDM8N0F9141EAH7F0K34Z","","null","<img src=""img/flower4.png"" style=""width:200px;border:14px solid red;"">","null","","","","","","","","",""
"","image-keyboard-response","84","55435","0.0-84.0","3MHW492WW1ZOA6PYQHF58IME0T8VMI","A1U52239IPV7IO","382GHPVPHSDM8N0F9141EAH7F0K34Z","","147","img/flower6.png","75","148","2","1","3","1","1,0.333,0.333,0.333,1,0.333,0.333,0.333,1","1,0.333,0.333,0.333,1,0.333,0.333,0.333,1","1",""
"","html-keyboard-response","85","55736","0.0-85.0","3MHW492WW1ZOA6PYQHF58IME0T8VMI","A1U52239IPV7IO","382GHPVPHSDM8N0F9141EAH7F0K34Z","","null","<img src=""img/flower6.png"" style=""width:200px; border:14px solid green;"">","null","","","","","","","","",""
"","image-keyboard-response","86","55964","0.0-86.0","3MHW492WW1ZOA6PYQHF58IME0T8VMI","A1U52239IPV7IO","382GHPVPHSDM8N0F9141EAH7F0K34Z","","226","img/flower6.png","76","228","3","1","3","1","1,0.333,0.333,0.333,1,0.333,0.333,0.333,1","1,0.333,0.333,0.333,1,0.333,0.333,0.333,1","1",""
"","html-keyboard-response","87","56265","0.0-87.0","3MHW492WW1ZOA6PYQHF58IME0T8VMI","A1U52239IPV7IO","382GHPVPHSDM8N0F9141EAH7F0K34Z","","null","<img src=""img/flower6.png"" style=""width:200px; border:14px solid green;"">","null","","","","","","","","",""
"","image-keyboard-response","88","56433","0.0-88.0","3MHW492WW1ZOA6PYQHF58IME0T8VMI","A1U52239IPV7IO","382GHPVPHSDM8N0F9141EAH7F0K34Z","","167","img/flower4.png","75","168","2","1","1","1","1,0.333,0.333,0.333,1,0.333,0.333,0.333,1","1,0.333,0.333,0.333,1,0.333,0.333,0.333,1","1",""
"","html-keyboard-response","89","56735","0.0-89.0","3MHW492WW1ZOA6PYQHF58IME0T8VMI","A1U52239IPV7IO","382GHPVPHSDM8N0F9141EAH7F0K34Z","","null","<img src=""img/flower4.png"" style=""width:200px; border:14px solid green;"">","null","","","","","","","","",""
"","image-keyboard-response","90","57022","0.0-90.0","3MHW492WW1ZOA6PYQHF58IME0T8VMI","A1U52239IPV7IO","382GHPVPHSDM8N0F9141EAH7F0K34Z","","286","img/flower6.png","76","287","3","1","3","1","1,0.333,0.333,0.333,1,0.333,0.333,0.333,1","1,0.333,0.333,0.333,1,0.333,0.333,0.333,1","1",""
"","html-keyboard-response","91","57324","0.0-91.0","3MHW492WW1ZOA6PYQHF58IME0T8VMI","A1U52239IPV7IO","382GHPVPHSDM8N0F9141EAH7F0K34Z","","null","<img src=""img/flower6.png"" style=""width:200px; border:14px solid green;"">","null","","","","","","","","",""
"","image-keyboard-response","92","57587","0.0-92.0","3MHW492WW1ZOA6PYQHF58IME0T8VMI","A1U52239IPV7IO","382GHPVPHSDM8N0F9141EAH7F0K34Z","","263","img/flower6.png","75","263","2","0","3","1","1,0.333,0.333,0.333,1,0.333,0.333,0.333,1","1,0.333,0.333,0.333,1,0.333,0.333,0.333,1","1",""
"","html-keyboard-response","93","57888","0.0-93.0","3MHW492WW1ZOA6PYQHF58IME0T8VMI","A1U52239IPV7IO","382GHPVPHSDM8N0F9141EAH7F0K34Z","","null","<img src=""img/flower6.png"" style=""width:200px;border:14px solid red;"">","null","","","","","","","","",""
"","image-keyboard-response","94","58072","0.0-94.0","3MHW492WW1ZOA6PYQHF58IME0T8VMI","A1U52239IPV7IO","382GHPVPHSDM8N0F9141EAH7F0K34Z","","183","img/flower3.png","76","184","3","0","2","1","1,0.333,0.333,0.333,1,0.333,0.333,0.333,1","1,0.333,0.333,0.333,1,0.333,0.333,0.333,1","1",""
"","html-keyboard-response","95","58373","0.0-95.0","3MHW492WW1ZOA6PYQHF58IME0T8VMI","A1U52239IPV7IO","382GHPVPHSDM8N0F9141EAH7F0K34Z","","null","<img src=""img/flower3.png"" style=""width:200px;border:14px solid red;"">","null","","","","","","","","",""
"","image-keyboard-response","96","58522","0.0-96.0","3MHW492WW1ZOA6PYQHF58IME0T8VMI","A1U52239IPV7IO","382GHPVPHSDM8N0F9141EAH7F0K34Z","","149","img/flower6.png","75","151","2","0","3","1","1,0.333,0.333,0.333,1,0.333,0.333,0.333,1","1,0.333,0.333,0.333,1,0.333,0.333,0.333,1","1",""
"","html-keyboard-response","97","58824","0.0-97.0","3MHW492WW1ZOA6PYQHF58IME0T8VMI","A1U52239IPV7IO","382GHPVPHSDM8N0F9141EAH7F0K34Z","","null","<img src=""img/flower6.png"" style=""width:200px;border:14px solid red;"">","null","","","","","","","","",""
"","image-keyboard-response","98","59012","0.0-98.0","3MHW492WW1ZOA6PYQHF58IME0T8VMI","A1U52239IPV7IO","382GHPVPHSDM8N0F9141EAH7F0K34Z","","187","img/flower6.png","76","187","3","1","3","1","1,0.333,0.333,0.333,1,0.333,0.333,0.333,1","1,0.333,0.333,0.333,1,0.333,0.333,0.333,1","1",""
"","html-keyboard-response","99","59312","0.0-99.0","3MHW492WW1ZOA6PYQHF58IME0T8VMI","A1U52239IPV7IO","382GHPVPHSDM8N0F9141EAH7F0K34Z","","null","<img src=""img/flower6.png"" style=""width:200px; border:14px solid green;"">","null","","","","","","","","",""
"","image-keyboard-response","100","59482","0.0-100.0","3MHW492WW1ZOA6PYQHF58IME0T8VMI","A1U52239IPV7IO","382GHPVPHSDM8N0F9141EAH7F0K34Z","","169","img/flower4.png","75","170","2","0","1","1","1,0.333,0.333,0.333,1,0.333,0.333,0.333,1","1,0.333,0.333,0.333,1,0.333,0.333,0.333,1","1",""
"","html-keyboard-response","101","59783","0.0-101.0","3MHW492WW1ZOA6PYQHF58IME0T8VMI","A1U52239IPV7IO","382GHPVPHSDM8N0F9141EAH7F0K34Z","","null","<img src=""img/flower4.png"" style=""width:200px;border:14px solid red;"">","null","","","","","","","","",""
"","image-keyboard-response","102","60003","0.0-102.0","3MHW492WW1ZOA6PYQHF58IME0T8VMI","A1U52239IPV7IO","382GHPVPHSDM8N0F9141EAH7F0K34Z","","219","img/flower6.png","76","220","3","1","3","1","1,0.333,0.333,0.333,1,0.333,0.333,0.333,1","1,0.333,0.333,0.333,1,0.333,0.333,0.333,1","1",""
"","html-keyboard-response","103","60308","0.0-103.0","3MHW492WW1ZOA6PYQHF58IME0T8VMI","A1U52239IPV7IO","382GHPVPHSDM8N0F9141EAH7F0K34Z","","null","<img src=""img/flower6.png"" style=""width:200px; border:14px solid green;"">","null","","","","","","","","",""
"","image-keyboard-response","104","60542","0.0-104.0","3MHW492WW1ZOA6PYQHF58IME0T8VMI","A1U52239IPV7IO","382GHPVPHSDM8N0F9141EAH7F0K34Z","","226","img/flower3.png","75","234","2","1","2","1","1,0.333,0.333,0.333,1,0.333,0.333,0.333,1","1,0.333,0.333,0.333,1,0.333,0.333,0.333,1","1",""
"","html-keyboard-response","105","60843","0.0-105.0","3MHW492WW1ZOA6PYQHF58IME0T8VMI","A1U52239IPV7IO","382GHPVPHSDM8N0F9141EAH7F0K34Z","","null","<img src=""img/flower3.png"" style=""width:200px; border:14px solid green;"">","null","","","","","","","","",""
"","image-keyboard-response","106","60973","0.0-106.0","3MHW492WW1ZOA6PYQHF58IME0T8VMI","A1U52239IPV7IO","382GHPVPHSDM8N0F9141EAH7F0K34Z","","129","img/flower6.png","76","130","3","1","3","1","1,0.333,0.333,0.333,1,0.333,0.333,0.333,1","1,0.333,0.333,0.333,1,0.333,0.333,0.333,1","1",""
"","html-keyboard-response","107","61295","0.0-107.0","3MHW492WW1ZOA6PYQHF58IME0T8VMI","A1U52239IPV7IO","382GHPVPHSDM8N0F9141EAH7F0K34Z","","null","<img src=""img/flower6.png"" style=""width:200px; border:14px solid green;"">","null","","","","","","","","",""
"","image-keyboard-response","108","61422","0.0-108.0","3MHW492WW1ZOA6PYQHF58IME0T8VMI","A1U52239IPV7IO","382GHPVPHSDM8N0F9141EAH7F0K34Z","","126","img/flower4.png","75","126","2","0","1","1","1,0.333,0.333,0.333,1,0.333,0.333,0.333,1","1,0.333,0.333,0.333,1,0.333,0.333,0.333,1","1",""
"","html-keyboard-response","109","61723","0.0-109.0","3MHW492WW1ZOA6PYQHF58IME0T8VMI","A1U52239IPV7IO","382GHPVPHSDM8N0F9141EAH7F0K34Z","","null","<img src=""img/flower4.png"" style=""width:200px;border:14px solid red;"">","null","","","","","","","","",""
"","image-keyboard-response","110","61933","0.0-110.0","3MHW492WW1ZOA6PYQHF58IME0T8VMI","A1U52239IPV7IO","382GHPVPHSDM8N0F9141EAH7F0K34Z","","209","img/flower6.png","76","210","3","1","3","1","1,0.333,0.333,0.333,1,0.333,0.333,0.333,1","1,0.333,0.333,0.333,1,0.333,0.333,0.333,1","1",""
"","html-keyboard-response","111","62234","0.0-111.0","3MHW492WW1ZOA6PYQHF58IME0T8VMI","A1U52239IPV7IO","382GHPVPHSDM8N0F9141EAH7F0K34Z","","null","<img src=""img/flower6.png"" style=""width:200px; border:14px solid green;"">","null","","","","","","","","",""
"","image-keyboard-response","112","62312","0.0-112.0","3MHW492WW1ZOA6PYQHF58IME0T8VMI","A1U52239IPV7IO","382GHPVPHSDM8N0F9141EAH7F0K34Z","","78","img/flower3.png","75","78","2","1","2","1","1,0.333,0.333,0.333,1,0.333,0.333,0.333,1","1,0.333,0.333,0.333,1,0.333,0.333,0.333,1","1",""
"","html-keyboard-response","113","62612","0.0-113.0","3MHW492WW1ZOA6PYQHF58IME0T8VMI","A1U52239IPV7IO","382GHPVPHSDM8N0F9141EAH7F0K34Z","","null","<img src=""img/flower3.png"" style=""width:200px; border:14px solid green;"">","null","","","","","","","","",""
"","image-keyboard-response","114","62903","0.0-114.0","3MHW492WW1ZOA6PYQHF58IME0T8VMI","A1U52239IPV7IO","382GHPVPHSDM8N0F9141EAH7F0K34Z","","289","img/flower4.png","76","291","3","0","1","1","1,0.333,0.333,0.333,1,0.333,0.333,0.333,1","1,0.333,0.333,0.333,1,0.333,0.333,0.333,1","1",""
"","html-keyboard-response","115","63203","0.0-115.0","3MHW492WW1ZOA6PYQHF58IME0T8VMI","A1U52239IPV7IO","382GHPVPHSDM8N0F9141EAH7F0K34Z","","null","<img src=""img/flower4.png"" style=""width:200px;border:14px solid red;"">","null","","","","","","","","",""
"","image-keyboard-response","116","63262","0.0-116.0","3MHW492WW1ZOA6PYQHF58IME0T8VMI","A1U52239IPV7IO","382GHPVPHSDM8N0F9141EAH7F0K34Z","","58","img/flower6.png","75","59","2","1","3","1","1,0.333,0.333,0.333,1,0.333,0.333,0.333,1","1,0.333,0.333,0.333,1,0.333,0.333,0.333,1","1",""
"","html-keyboard-response","117","63564","0.0-117.0","3MHW492WW1ZOA6PYQHF58IME0T8VMI","A1U52239IPV7IO","382GHPVPHSDM8N0F9141EAH7F0K34Z","","null","<img src=""img/flower6.png"" style=""width:200px; border:14px solid green;"">","null","","","","","","","","",""
"","image-keyboard-response","118","63713","0.0-118.0","3MHW492WW1ZOA6PYQHF58IME0T8VMI","A1U52239IPV7IO","382GHPVPHSDM8N0F9141EAH7F0K34Z","","147","img/flower4.png","76","148","3","0","1","1","1,0.333,0.333,0.333,1,0.333,0.333,0.333,1","1,0.333,0.333,0.333,1,0.333,0.333,0.333,1","1",""
"","html-keyboard-response","119","64013","0.0-119.0","3MHW492WW1ZOA6PYQHF58IME0T8VMI","A1U52239IPV7IO","382GHPVPHSDM8N0F9141EAH7F0K34Z","","null","<img src=""img/flower4.png"" style=""width:200px;border:14px solid red;"">","null","","","","","","","","",""
"","image-keyboard-response","120","64173","0.0-120.0","3MHW492WW1ZOA6PYQHF58IME0T8VMI","A1U52239IPV7IO","382GHPVPHSDM8N0F9141EAH7F0K34Z","","158","img/flower6.png","75","160","2","0","3","1","1,0.333,0.333,0.333,1,0.333,0.333,0.333,1","1,0.333,0.333,0.333,1,0.333,0.333,0.333,1","1",""
"","html-keyboard-response","121","64504","0.0-121.0","3MHW492WW1ZOA6PYQHF58IME0T8VMI","A1U52239IPV7IO","382GHPVPHSDM8N0F9141EAH7F0K34Z","","null","<img src=""img/flower6.png"" style=""width:200px;border:14px solid red;"">","null","","","","","","","","",""
"","image-keyboard-response","122","64515","0.0-122.0","3MHW492WW1ZOA6PYQHF58IME0T8VMI","A1U52239IPV7IO","382GHPVPHSDM8N0F9141EAH7F0K34Z","","10","img/flower4.png","74","11","1","1","1","1","1,0.333,0.333,0.333,1,0.333,0.333,0.333,1","1,0.333,0.333,0.333,1,0.333,0.333,0.333,1","1",""
"","html-keyboard-response","123","64816","0.0-123.0","3MHW492WW1ZOA6PYQHF58IME0T8VMI","A1U52239IPV7IO","382GHPVPHSDM8N0F9141EAH7F0K34Z","","null","<img src=""img/flower4.png"" style=""width:200px; border:14px solid green;"">","null","","","","","","","","",""
"","image-keyboard-response","124","65172","0.0-124.0","3MHW492WW1ZOA6PYQHF58IME0T8VMI","A1U52239IPV7IO","382GHPVPHSDM8N0F9141EAH7F0K34Z","","356","img/flower6.png","75","357","2","0","3","1","1,0.333,0.333,0.333,1,0.333,0.333,0.333,1","1,0.333,0.333,0.333,1,0.333,0.333,0.333,1","1",""
"","html-keyboard-response","125","65475","0.0-125.0","3MHW492WW1ZOA6PYQHF58IME0T8VMI","A1U52239IPV7IO","382GHPVPHSDM8N0F9141EAH7F0K34Z","","null","<img src=""img/flower6.png"" style=""width:200px;border:14px solid red;"">","null","","","","","","","","",""
"","image-keyboard-response","126","65532","0.0-126.0","3MHW492WW1ZOA6PYQHF58IME0T8VMI","A1U52239IPV7IO","382GHPVPHSDM8N0F9141EAH7F0K34Z","","57","img/flower6.png","76","57","3","1","3","1","1,0.333,0.333,0.333,1,0.333,0.333,0.333,1","1,0.333,0.333,0.333,1,0.333,0.333,0.333,1","1",""
"","html-keyboard-response","127","65835","0.0-127.0","3MHW492WW1ZOA6PYQHF58IME0T8VMI","A1U52239IPV7IO","382GHPVPHSDM8N0F9141EAH7F0K34Z","","null","<img src=""img/flower6.png"" style=""width:200px; border:14px solid green;"">","null","","","","","","","","",""
"","image-keyboard-response","128","66032","0.0-128.0","3MHW492WW1ZOA6PYQHF58IME0T8VMI","A1U52239IPV7IO","382GHPVPHSDM8N0F9141EAH7F0K34Z","","197","img/flower3.png","75","197","2","1","2","1","1,0.333,0.333,0.333,1,0.333,0.333,0.333,1","1,0.333,0.333,0.333,1,0.333,0.333,0.333,1","1",""
"","html-keyboard-response","129","66333","0.0-129.0","3MHW492WW1ZOA6PYQHF58IME0T8VMI","A1U52239IPV7IO","382GHPVPHSDM8N0F9141EAH7F0K34Z","","null","<img src=""img/flower3.png"" style=""width:200px; border:14px solid green;"">","null","","","","","","","","",""
"","image-keyboard-response","130","66483","0.0-130.0","3MHW492WW1ZOA6PYQHF58IME0T8VMI","A1U52239IPV7IO","382GHPVPHSDM8N0F9141EAH7F0K34Z","","149","img/flower4.png","76","150","3","0","1","1","1,0.333,0.333,0.333,1,0.333,0.333,0.333,1","1,0.333,0.333,0.333,1,0.333,0.333,0.333,1","1",""
"","html-keyboard-response","131","66784","0.0-131.0","3MHW492WW1ZOA6PYQHF58IME0T8VMI","A1U52239IPV7IO","382GHPVPHSDM8N0F9141EAH7F0K34Z","","null","<img src=""img/flower4.png"" style=""width:200px;border:14px solid red;"">","null","","","","","","","","",""
"","image-keyboard-response","132","66933","0.0-132.0","3MHW492WW1ZOA6PYQHF58IME0T8VMI","A1U52239IPV7IO","382GHPVPHSDM8N0F9141EAH7F0K34Z","","149","img/flower6.png","75","149","2","0","3","1","1,0.333,0.333,0.333,1,0.333,0.333,0.333,1","1,0.333,0.333,0.333,1,0.333,0.333,0.333,1","1",""
"","html-keyboard-response","133","67234","0.0-133.0","3MHW492WW1ZOA6PYQHF58IME0T8VMI","A1U52239IPV7IO","382GHPVPHSDM8N0F9141EAH7F0K34Z","","null","<img src=""img/flower6.png"" style=""width:200px;border:14px solid red;"">","null","","","","","","","","",""
"","image-keyboard-response","134","67403","0.0-134.0","3MHW492WW1ZOA6PYQHF58IME0T8VMI","A1U52239IPV7IO","382GHPVPHSDM8N0F9141EAH7F0K34Z","","168","img/flower4.png","76","169","3","0","1","1","1,0.333,0.333,0.333,1,0.333,0.333,0.333,1","1,0.333,0.333,0.333,1,0.333,0.333,0.333,1","1",""
"","html-keyboard-response","135","67703","0.0-135.0","3MHW492WW1ZOA6PYQHF58IME0T8VMI","A1U52239IPV7IO","382GHPVPHSDM8N0F9141EAH7F0K34Z","","null","<img src=""img/flower4.png"" style=""width:200px;border:14px solid red;"">","null","","","","","","","","",""
"","image-keyboard-response","136","67732","0.0-136.0","3MHW492WW1ZOA6PYQHF58IME0T8VMI","A1U52239IPV7IO","382GHPVPHSDM8N0F9141EAH7F0K34Z","","28","img/flower3.png","75","29","2","1","2","1","1,0.333,0.333,0.333,1,0.333,0.333,0.333,1","1,0.333,0.333,0.333,1,0.333,0.333,0.333,1","1",""
"","html-keyboard-response","137","68034","0.0-137.0","3MHW492WW1ZOA6PYQHF58IME0T8VMI","A1U52239IPV7IO","382GHPVPHSDM8N0F9141EAH7F0K34Z","","null","<img src=""img/flower3.png"" style=""width:200px; border:14px solid green;"">","null","","","","","","","","",""
"","image-keyboard-response","138","68203","0.0-138.0","3MHW492WW1ZOA6PYQHF58IME0T8VMI","A1U52239IPV7IO","382GHPVPHSDM8N0F9141EAH7F0K34Z","","169","img/flower6.png","76","169","3","1","3","1","1,0.333,0.333,0.333,1,0.333,0.333,0.333,1","1,0.333,0.333,0.333,1,0.333,0.333,0.333,1","1",""
"","html-keyboard-response","139","68504","0.0-139.0","3MHW492WW1ZOA6PYQHF58IME0T8VMI","A1U52239IPV7IO","382GHPVPHSDM8N0F9141EAH7F0K34Z","","null","<img src=""img/flower6.png"" style=""width:200px; border:14px solid green;"">","null","","","","","","","","",""
"","image-keyboard-response","140","68653","0.0-140.0","3MHW492WW1ZOA6PYQHF58IME0T8VMI","A1U52239IPV7IO","382GHPVPHSDM8N0F9141EAH7F0K34Z","","148","img/flower4.png","75","149","2","0","1","1","1,0.333,0.333,0.333,1,0.333,0.333,0.333,1","1,0.333,0.333,0.333,1,0.333,0.333,0.333,1","1",""
"","html-keyboard-response","141","68955","0.0-141.0","3MHW492WW1ZOA6PYQHF58IME0T8VMI","A1U52239IPV7IO","382GHPVPHSDM8N0F9141EAH7F0K34Z","","null","<img src=""img/flower4.png"" style=""width:200px;border:14px solid red;"">","null","","","","","","","","",""
"","image-keyboard-response","142","69112","0.0-142.0","3MHW492WW1ZOA6PYQHF58IME0T8VMI","A1U52239IPV7IO","382GHPVPHSDM8N0F9141EAH7F0K34Z","","156","img/flower3.png","76","157","3","1","2","1","1,0.333,0.333,0.333,1,0.333,0.333,0.333,1","1,0.333,0.333,0.333,1,0.333,0.333,0.333,1","1",""
"","html-keyboard-response","143","69412","0.0-143.0","3MHW492WW1ZOA6PYQHF58IME0T8VMI","A1U52239IPV7IO","382GHPVPHSDM8N0F9141EAH7F0K34Z","","null","<img src=""img/flower3.png"" style=""width:200px; border:14px solid green;"">","null","","","","","","","","",""
"","image-keyboard-response","144","69543","0.0-144.0","3MHW492WW1ZOA6PYQHF58IME0T8VMI","A1U52239IPV7IO","382GHPVPHSDM8N0F9141EAH7F0K34Z","","130","img/flower3.png","75","131","2","1","2","1","1,0.333,0.333,0.333,1,0.333,0.333,0.333,1","1,0.333,0.333,0.333,1,0.333,0.333,0.333,1","1",""
"","html-keyboard-response","145","69843","0.0-145.0","3MHW492WW1ZOA6PYQHF58IME0T8VMI","A1U52239IPV7IO","382GHPVPHSDM8N0F9141EAH7F0K34Z","","null","<img src=""img/flower3.png"" style=""width:200px; border:14px solid green;"">","null","","","","","","","","",""
"","image-keyboard-response","146","69942","0.0-146.0","3MHW492WW1ZOA6PYQHF58IME0T8VMI","A1U52239IPV7IO","382GHPVPHSDM8N0F9141EAH7F0K34Z","","98","img/flower4.png","76","99","3","0","1","1","1,0.333,0.333,0.333,1,0.333,0.333,0.333,1","1,0.333,0.333,0.333,1,0.333,0.333,0.333,1","1",""
"","html-keyboard-response","147","70269","0.0-147.0","3MHW492WW1ZOA6PYQHF58IME0T8VMI","A1U52239IPV7IO","382GHPVPHSDM8N0F9141EAH7F0K34Z","","null","<img src=""img/flower4.png"" style=""width:200px;border:14px solid red;"">","null","","","","","","","","",""
"","image-keyboard-response","148","70362","0.0-148.0","3MHW492WW1ZOA6PYQHF58IME0T8VMI","A1U52239IPV7IO","382GHPVPHSDM8N0F9141EAH7F0K34Z","","92","img/flower4.png","75","93","2","0","1","1","1,0.333,0.333,0.333,1,0.333,0.333,0.333,1","1,0.333,0.333,0.333,1,0.333,0.333,0.333,1","1",""
"","html-keyboard-response","149","70662","0.0-149.0","3MHW492WW1ZOA6PYQHF58IME0T8VMI","A1U52239IPV7IO","382GHPVPHSDM8N0F9141EAH7F0K34Z","","null","<img src=""img/flower4.png"" style=""width:200px;border:14px solid red;"">","null","","","","","","","","",""
"","image-keyboard-response","150","70703","0.0-150.0","3MHW492WW1ZOA6PYQHF58IME0T8VMI","A1U52239IPV7IO","382GHPVPHSDM8N0F9141EAH7F0K34Z","","39","img/flower6.png","74","41","1","0","3","1","1,0.333,0.333,0.333,1,0.333,0.333,0.333,1","1,0.333,0.333,0.333,1,0.333,0.333,0.333,1","1",""
"","html-keyboard-response","151","71003","0.0-151.0","3MHW492WW1ZOA6PYQHF58IME0T8VMI","A1U52239IPV7IO","382GHPVPHSDM8N0F9141EAH7F0K34Z","","null","<img src=""img/flower6.png"" style=""width:200px;border:14px solid red;"">","null","","","","","","","","",""
"","image-keyboard-response","152","71202","0.0-152.0","3MHW492WW1ZOA6PYQHF58IME0T8VMI","A1U52239IPV7IO","382GHPVPHSDM8N0F9141EAH7F0K34Z","","198","img/flower3.png","75","199","2","1","2","1","1,0.333,0.333,0.333,1,0.333,0.333,0.333,1","1,0.333,0.333,0.333,1,0.333,0.333,0.333,1","1",""
"","html-keyboard-response","153","71503","0.0-153.0","3MHW492WW1ZOA6PYQHF58IME0T8VMI","A1U52239IPV7IO","382GHPVPHSDM8N0F9141EAH7F0K34Z","","null","<img src=""img/flower3.png"" style=""width:200px; border:14px solid green;"">","null","","","","","","","","",""
"","image-keyboard-response","154","71652","0.0-154.0","3MHW492WW1ZOA6PYQHF58IME0T8VMI","A1U52239IPV7IO","382GHPVPHSDM8N0F9141EAH7F0K34Z","","149","img/flower6.png","76","149","3","1","3","1","1,0.333,0.333,0.333,1,0.333,0.333,0.333,1","1,0.333,0.333,0.333,1,0.333,0.333,0.333,1","1",""
"","html-keyboard-response","155","71954","0.0-155.0","3MHW492WW1ZOA6PYQHF58IME0T8VMI","A1U52239IPV7IO","382GHPVPHSDM8N0F9141EAH7F0K34Z","","null","<img src=""img/flower6.png"" style=""width:200px; border:14px solid green;"">","null","","","","","","","","",""
"","image-keyboard-response","156","72032","0.0-156.0","3MHW492WW1ZOA6PYQHF58IME0T8VMI","A1U52239IPV7IO","382GHPVPHSDM8N0F9141EAH7F0K34Z","","77","img/flower4.png","75","78","2","0","1","1","1,0.333,0.333,0.333,1,0.333,0.333,0.333,1","1,0.333,0.333,0.333,1,0.333,0.333,0.333,1","1",""
"","html-keyboard-response","157","72334","0.0-157.0","3MHW492WW1ZOA6PYQHF58IME0T8VMI","A1U52239IPV7IO","382GHPVPHSDM8N0F9141EAH7F0K34Z","","null","<img src=""img/flower4.png"" style=""width:200px;border:14px solid red;"">","null","","","","","","","","",""
"","image-keyboard-response","158","72402","0.0-158.0","3MHW492WW1ZOA6PYQHF58IME0T8VMI","A1U52239IPV7IO","382GHPVPHSDM8N0F9141EAH7F0K34Z","","67","img/flower6.png","76","68","3","1","3","1","1,0.333,0.333,0.333,1,0.333,0.333,0.333,1","1,0.333,0.333,0.333,1,0.333,0.333,0.333,1","1",""
"","html-keyboard-response","159","72704","0.0-159.0","3MHW492WW1ZOA6PYQHF58IME0T8VMI","A1U52239IPV7IO","382GHPVPHSDM8N0F9141EAH7F0K34Z","","null","<img src=""img/flower6.png"" style=""width:200px; border:14px solid green;"">","null","","","","","","","","",""
"","image-keyboard-response","160","72842","0.0-160.0","3MHW492WW1ZOA6PYQHF58IME0T8VMI","A1U52239IPV7IO","382GHPVPHSDM8N0F9141EAH7F0K34Z","","137","img/flower4.png","75","139","2","0","1","1","1,0.333,0.333,0.333,1,0.333,0.333,0.333,1","1,0.333,0.333,0.333,1,0.333,0.333,0.333,1","1",""
"","html-keyboard-response","161","73144","0.0-161.0","3MHW492WW1ZOA6PYQHF58IME0T8VMI","A1U52239IPV7IO","382GHPVPHSDM8N0F9141EAH7F0K34Z","","null","<img src=""img/flower4.png"" style=""width:200px;border:14px solid red;"">","null","","","","","","","","",""
"","image-keyboard-response","162","73213","0.0-162.0","3MHW492WW1ZOA6PYQHF58IME0T8VMI","A1U52239IPV7IO","382GHPVPHSDM8N0F9141EAH7F0K34Z","","68","img/flower4.png","76","69","3","0","1","1","1,0.333,0.333,0.333,1,0.333,0.333,0.333,1","1,0.333,0.333,0.333,1,0.333,0.333,0.333,1","1",""
"","html-keyboard-response","163","73515","0.0-163.0","3MHW492WW1ZOA6PYQHF58IME0T8VMI","A1U52239IPV7IO","382GHPVPHSDM8N0F9141EAH7F0K34Z","","null","<img src=""img/flower4.png"" style=""width:200px;border:14px solid red;"">","null","","","","","","","","",""
"","image-keyboard-response","164","73632","0.0-164.0","3MHW492WW1ZOA6PYQHF58IME0T8VMI","A1U52239IPV7IO","382GHPVPHSDM8N0F9141EAH7F0K34Z","","116","img/flower3.png","75","117","2","1","2","1","1,0.333,0.333,0.333,1,0.333,0.333,0.333,1","1,0.333,0.333,0.333,1,0.333,0.333,0.333,1","1",""
"","html-keyboard-response","165","73934","0.0-165.0","3MHW492WW1ZOA6PYQHF58IME0T8VMI","A1U52239IPV7IO","382GHPVPHSDM8N0F9141EAH7F0K34Z","","null","<img src=""img/flower3.png"" style=""width:200px; border:14px solid green;"">","null","","","","","","","","",""
"","image-keyboard-response","166","74072","0.0-166.0","3MHW492WW1ZOA6PYQHF58IME0T8VMI","A1U52239IPV7IO","382GHPVPHSDM8N0F9141EAH7F0K34Z","","137","img/flower3.png","76","138","3","1","2","1","1,0.333,0.333,0.333,1,0.333,0.333,0.333,1","1,0.333,0.333,0.333,1,0.333,0.333,0.333,1","1",""
"","html-keyboard-response","167","74374","0.0-167.0","3MHW492WW1ZOA6PYQHF58IME0T8VMI","A1U52239IPV7IO","382GHPVPHSDM8N0F9141EAH7F0K34Z","","null","<img src=""img/flower3.png"" style=""width:200px; border:14px solid green;"">","null","","","","","","","","",""
"","image-keyboard-response","168","74383","0.0-168.0","3MHW492WW1ZOA6PYQHF58IME0T8VMI","A1U52239IPV7IO","382GHPVPHSDM8N0F9141EAH7F0K34Z","","9","img/flower3.png","75","9","2","1","2","1","1,0.333,0.333,0.333,1,0.333,0.333,0.333,1","1,0.333,0.333,0.333,1,0.333,0.333,0.333,1","1",""
"","html-keyboard-response","169","74685","0.0-169.0","3MHW492WW1ZOA6PYQHF58IME0T8VMI","A1U52239IPV7IO","382GHPVPHSDM8N0F9141EAH7F0K34Z","","null","<img src=""img/flower3.png"" style=""width:200px; border:14px solid green;"">","null","","","","","","","","",""
"","image-keyboard-response","170","74762","0.0-170.0","3MHW492WW1ZOA6PYQHF58IME0T8VMI","A1U52239IPV7IO","382GHPVPHSDM8N0F9141EAH7F0K34Z","","77","img/flower3.png","76","78","3","1","2","1","1,0.333,0.333,0.333,1,0.333,0.333,0.333,1","1,0.333,0.333,0.333,1,0.333,0.333,0.333,1","1",""
"","html-keyboard-response","171","75063","0.0-171.0","3MHW492WW1ZOA6PYQHF58IME0T8VMI","A1U52239IPV7IO","382GHPVPHSDM8N0F9141EAH7F0K34Z","","null","<img src=""img/flower3.png"" style=""width:200px; border:14px solid green;"">","null","","","","","","","","",""
"","image-keyboard-response","172","75172","0.0-172.0","3MHW492WW1ZOA6PYQHF58IME0T8VMI","A1U52239IPV7IO","382GHPVPHSDM8N0F9141EAH7F0K34Z","","108","img/flower3.png","75","109","2","1","2","1","1,0.333,0.333,0.333,1,0.333,0.333,0.333,1","1,0.333,0.333,0.333,1,0.333,0.333,0.333,1","1",""
"","html-keyboard-response","173","75474","0.0-173.0","3MHW492WW1ZOA6PYQHF58IME0T8VMI","A1U52239IPV7IO","382GHPVPHSDM8N0F9141EAH7F0K34Z","","null","<img src=""img/flower3.png"" style=""width:200px; border:14px solid green;"">","null","","","","","","","","",""
"","image-keyboard-response","174","75623","0.0-174.0","3MHW492WW1ZOA6PYQHF58IME0T8VMI","A1U52239IPV7IO","382GHPVPHSDM8N0F9141EAH7F0K34Z","","147","img/flower6.png","76","148","3","1","3","1","1,0.333,0.333,0.333,1,0.333,0.333,0.333,1","1,0.333,0.333,0.333,1,0.333,0.333,0.333,1","1",""
"","html-keyboard-response","175","75925","0.0-175.0","3MHW492WW1ZOA6PYQHF58IME0T8VMI","A1U52239IPV7IO","382GHPVPHSDM8N0F9141EAH7F0K34Z","","null","<img src=""img/flower6.png"" style=""width:200px; border:14px solid green;"">","null","","","","","","","","",""
"","image-keyboard-response","176","76012","0.0-176.0","3MHW492WW1ZOA6PYQHF58IME0T8VMI","A1U52239IPV7IO","382GHPVPHSDM8N0F9141EAH7F0K34Z","","87","img/flower4.png","75","87","2","0","1","1","1,0.333,0.333,0.333,1,0.333,0.333,0.333,1","1,0.333,0.333,0.333,1,0.333,0.333,0.333,1","1",""
"","html-keyboard-response","177","76312","0.0-177.0","3MHW492WW1ZOA6PYQHF58IME0T8VMI","A1U52239IPV7IO","382GHPVPHSDM8N0F9141EAH7F0K34Z","","null","<img src=""img/flower4.png"" style=""width:200px;border:14px solid red;"">","null","","","","","","","","",""
"","image-keyboard-response","178","76442","0.0-178.0","3MHW492WW1ZOA6PYQHF58IME0T8VMI","A1U52239IPV7IO","382GHPVPHSDM8N0F9141EAH7F0K34Z","","130","img/flower3.png","76","130","3","1","2","1","1,0.333,0.333,0.333,1,0.333,0.333,0.333,1","1,0.333,0.333,0.333,1,0.333,0.333,0.333,1","1",""
"","html-keyboard-response","179","76743","0.0-179.0","3MHW492WW1ZOA6PYQHF58IME0T8VMI","A1U52239IPV7IO","382GHPVPHSDM8N0F9141EAH7F0K34Z","","null","<img src=""img/flower3.png"" style=""width:200px; border:14px solid green;"">","null","","","","","","","","",""
"","image-keyboard-response","180","76862","0.0-180.0","3MHW492WW1ZOA6PYQHF58IME0T8VMI","A1U52239IPV7IO","382GHPVPHSDM8N0F9141EAH7F0K34Z","","118","img/flower6.png","75","119","2","1","3","1","1,0.333,0.333,0.333,1,0.333,0.333,0.333,1","1,0.333,0.333,0.333,1,0.333,0.333,0.333,1","1",""
"","html-keyboard-response","181","77163","0.0-181.0","3MHW492WW1ZOA6PYQHF58IME0T8VMI","A1U52239IPV7IO","382GHPVPHSDM8N0F9141EAH7F0K34Z","","null","<img src=""img/flower6.png"" style=""width:200px; border:14px solid green;"">","null","","","","","","","","",""
"","html-keyboard-response","182","80519","0.0-182.0","3MHW492WW1ZOA6PYQHF58IME0T8VMI","A1U52239IPV7IO","382GHPVPHSDM8N0F9141EAH7F0K34Z","","","","","","","","","","","","",""
"","image-keyboard-response","183","81922","0.0-183.0","3MHW492WW1ZOA6PYQHF58IME0T8VMI","A1U52239IPV7IO","382GHPVPHSDM8N0F9141EAH7F0K34Z","","1394","img/flower5.png","74","1403","1","1","2","2","1,0,0,1,1,0,1,0,1","1,0,0,1,1,0,1,0,1","1",""
"","html-keyboard-response","184","82224","0.0-184.0","3MHW492WW1ZOA6PYQHF58IME0T8VMI","A1U52239IPV7IO","382GHPVPHSDM8N0F9141EAH7F0K34Z","","null","<img src=""img/flower5.png"" style=""width:200px; border:14px solid green;"">","null","","","","","","","","",""
"","image-keyboard-response","185","82403","0.0-185.0","3MHW492WW1ZOA6PYQHF58IME0T8VMI","A1U52239IPV7IO","382GHPVPHSDM8N0F9141EAH7F0K34Z","","178","img/flower1.png","74","179","1","1","1","2","1,0,0,1,1,0,1,0,1","1,0,0,1,1,0,1,0,1","1",""
"","html-keyboard-response","186","82707","0.0-186.0","3MHW492WW1ZOA6PYQHF58IME0T8VMI","A1U52239IPV7IO","382GHPVPHSDM8N0F9141EAH7F0K34Z","","null","<img src=""img/flower1.png"" style=""width:200px; border:14px solid green;"">","null","","","","","","","","",""
"","image-keyboard-response","187","82720","0.0-187.0","3MHW492WW1ZOA6PYQHF58IME0T8VMI","A1U52239IPV7IO","382GHPVPHSDM8N0F9141EAH7F0K34Z","","12","img/flower2.png","75","13","2","0","3","2","1,0,0,1,1,0,1,0,1","1,0,0,1,1,0,1,0,1","1",""
"","html-keyboard-response","188","83023","0.0-188.0","3MHW492WW1ZOA6PYQHF58IME0T8VMI","A1U52239IPV7IO","382GHPVPHSDM8N0F9141EAH7F0K34Z","","null","<img src=""img/flower2.png"" style=""width:200px;border:14px solid red;"">","null","","","","","","","","",""
"","image-keyboard-response","189","83052","0.0-189.0","3MHW492WW1ZOA6PYQHF58IME0T8VMI","A1U52239IPV7IO","382GHPVPHSDM8N0F9141EAH7F0K34Z","","27","img/flower2.png","76","29","3","1","3","2","1,0,0,1,1,0,1,0,1","1,0,0,1,1,0,1,0,1","1",""
"","html-keyboard-response","190","83352","0.0-190.0","3MHW492WW1ZOA6PYQHF58IME0T8VMI","A1U52239IPV7IO","382GHPVPHSDM8N0F9141EAH7F0K34Z","","null","<img src=""img/flower2.png"" style=""width:200px; border:14px solid green;"">","null","","","","","","","","",""
"","image-keyboard-response","191","83462","0.0-191.0","3MHW492WW1ZOA6PYQHF58IME0T8VMI","A1U52239IPV7IO","382GHPVPHSDM8N0F9141EAH7F0K34Z","","110","img/flower1.png","75","110","2","0","1","2","1,0,0,1,1,0,1,0,1","1,0,0,1,1,0,1,0,1","1",""
"","html-keyboard-response","192","83764","0.0-192.0","3MHW492WW1ZOA6PYQHF58IME0T8VMI","A1U52239IPV7IO","382GHPVPHSDM8N0F9141EAH7F0K34Z","","null","<img src=""img/flower1.png"" style=""width:200px;border:14px solid red;"">","null","","","","","","","","",""
"","image-keyboard-response","193","83952","0.0-193.0","3MHW492WW1ZOA6PYQHF58IME0T8VMI","A1U52239IPV7IO","382GHPVPHSDM8N0F9141EAH7F0K34Z","","187","img/flower1.png","76","188","3","0","1","2","1,0,0,1,1,0,1,0,1","1,0,0,1,1,0,1,0,1","1",""
"","html-keyboard-response","194","84253","0.0-194.0","3MHW492WW1ZOA6PYQHF58IME0T8VMI","A1U52239IPV7IO","382GHPVPHSDM8N0F9141EAH7F0K34Z","","null","<img src=""img/flower1.png"" style=""width:200px;border:14px solid red;"">","null","","","","","","","","",""
"","image-keyboard-response","195","84262","0.0-195.0","3MHW492WW1ZOA6PYQHF58IME0T8VMI","A1U52239IPV7IO","382GHPVPHSDM8N0F9141EAH7F0K34Z","","9","img/flower2.png","75","9","2","0","3","2","1,0,0,1,1,0,1,0,1","1,0,0,1,1,0,1,0,1","1",""
"","html-keyboard-response","196","84562","0.0-196.0","3MHW492WW1ZOA6PYQHF58IME0T8VMI","A1U52239IPV7IO","382GHPVPHSDM8N0F9141EAH7F0K34Z","","null","<img src=""img/flower2.png"" style=""width:200px;border:14px solid red;"">","null","","","","","","","","",""
"","image-keyboard-response","197","84694","0.0-197.0","3MHW492WW1ZOA6PYQHF58IME0T8VMI","A1U52239IPV7IO","382GHPVPHSDM8N0F9141EAH7F0K34Z","","131","img/flower5.png","76","132","3","0","2","2","1,0,0,1,1,0,1,0,1","1,0,0,1,1,0,1,0,1","1",""
"","html-keyboard-response","198","84995","0.0-198.0","3MHW492WW1ZOA6PYQHF58IME0T8VMI","A1U52239IPV7IO","382GHPVPHSDM8N0F9141EAH7F0K34Z","","null","<img src=""img/flower5.png"" style=""width:200px;border:14px solid red;"">","null","","","","","","","","",""
"","image-keyboard-response","199","85043","0.0-199.0","3MHW492WW1ZOA6PYQHF58IME0T8VMI","A1U52239IPV7IO","382GHPVPHSDM8N0F9141EAH7F0K34Z","","46","img/flower1.png","75","46","2","0","1","2","1,0,0,1,1,0,1,0,1","1,0,0,1,1,0,1,0,1","1",""
"","html-keyboard-response","200","85345","0.0-200.0","3MHW492WW1ZOA6PYQHF58IME0T8VMI","A1U52239IPV7IO","382GHPVPHSDM8N0F9141EAH7F0K34Z","","null","<img src=""img/flower1.png"" style=""width:200px;border:14px solid red;"">","null","","","","","","","","",""
"","image-keyboard-response","201","85472","0.0-201.0","3MHW492WW1ZOA6PYQHF58IME0T8VMI","A1U52239IPV7IO","382GHPVPHSDM8N0F9141EAH7F0K34Z","","126","img/flower2.png","76","127","3","1","3","2","1,0,0,1,1,0,1,0,1","1,0,0,1,1,0,1,0,1","1",""
"","html-keyboard-response","202","85772","0.0-202.0","3MHW492WW1ZOA6PYQHF58IME0T8VMI","A1U52239IPV7IO","382GHPVPHSDM8N0F9141EAH7F0K34Z","","null","<img src=""img/flower2.png"" style=""width:200px; border:14px solid green;"">","null","","","","","","","","",""
"","image-keyboard-response","203","85853","0.0-203.0","3MHW492WW1ZOA6PYQHF58IME0T8VMI","A1U52239IPV7IO","382GHPVPHSDM8N0F9141EAH7F0K34Z","","79","img/flower1.png","75","81","2","0","1","2","1,0,0,1,1,0,1,0,1","1,0,0,1,1,0,1,0,1","1",""
"","html-keyboard-response","204","86156","0.0-204.0","3MHW492WW1ZOA6PYQHF58IME0T8VMI","A1U52239IPV7IO","382GHPVPHSDM8N0F9141EAH7F0K34Z","","null","<img src=""img/flower1.png"" style=""width:200px;border:14px solid red;"">","null","","","","","","","","",""
"","image-keyboard-response","205","86176","0.0-205.0","3MHW492WW1ZOA6PYQHF58IME0T8VMI","A1U52239IPV7IO","382GHPVPHSDM8N0F9141EAH7F0K34Z","","20","img/flower1.png","74","20","1","1","1","2","1,0,0,1,1,0,1,0,1","1,0,0,1,1,0,1,0,1","1",""
"","html-keyboard-response","206","86538","0.0-206.0","3MHW492WW1ZOA6PYQHF58IME0T8VMI","A1U52239IPV7IO","382GHPVPHSDM8N0F9141EAH7F0K34Z","","null","<img src=""img/flower1.png"" style=""width:200px; border:14px solid green;"">","null","","","","","","","","",""
"","image-keyboard-response","207","86540","0.0-207.0","3MHW492WW1ZOA6PYQHF58IME0T8VMI","A1U52239IPV7IO","382GHPVPHSDM8N0F9141EAH7F0K34Z","","1","img/flower5.png","74","2","1","1","2","2","1,0,0,1,1,0,1,0,1","1,0,0,1,1,0,1,0,1","1",""
"","html-keyboard-response","208","86841","0.0-208.0","3MHW492WW1ZOA6PYQHF58IME0T8VMI","A1U52239IPV7IO","382GHPVPHSDM8N0F9141EAH7F0K34Z","","null","<img src=""img/flower5.png"" style=""width:200px; border:14px solid green;"">","null","","","","","","","","",""
"","image-keyboard-response","209","86843","0.0-209.0","3MHW492WW1ZOA6PYQHF58IME0T8VMI","A1U52239IPV7IO","382GHPVPHSDM8N0F9141EAH7F0K34Z","","2","img/flower2.png","74","2","1","1","3","2","1,0,0,1,1,0,1,0,1","1,0,0,1,1,0,1,0,1","1",""
"","html-keyboard-response","210","87145","0.0-210.0","3MHW492WW1ZOA6PYQHF58IME0T8VMI","A1U52239IPV7IO","382GHPVPHSDM8N0F9141EAH7F0K34Z","","null","<img src=""img/flower2.png"" style=""width:200px; border:14px solid green;"">","null","","","","","","","","",""
"","image-keyboard-response","211","87202","0.0-211.0","3MHW492WW1ZOA6PYQHF58IME0T8VMI","A1U52239IPV7IO","382GHPVPHSDM8N0F9141EAH7F0K34Z","","57","img/flower1.png","74","57","1","1","1","2","1,0,0,1,1,0,1,0,1","1,0,0,1,1,0,1,0,1","1",""
"","html-keyboard-response","212","87503","0.0-212.0","3MHW492WW1ZOA6PYQHF58IME0T8VMI","A1U52239IPV7IO","382GHPVPHSDM8N0F9141EAH7F0K34Z","","null","<img src=""img/flower1.png"" style=""width:200px; border:14px solid green;"">","null","","","","","","","","",""
"","image-keyboard-response","213","87622","0.0-213.0","3MHW492WW1ZOA6PYQHF58IME0T8VMI","A1U52239IPV7IO","382GHPVPHSDM8N0F9141EAH7F0K34Z","","118","img/flower5.png","74","119","1","1","2","2","1,0,0,1,1,0,1,0,1","1,0,0,1,1,0,1,0,1","1",""
"","html-keyboard-response","214","87924","0.0-214.0","3MHW492WW1ZOA6PYQHF58IME0T8VMI","A1U52239IPV7IO","382GHPVPHSDM8N0F9141EAH7F0K34Z","","null","<img src=""img/flower5.png"" style=""width:200px; border:14px solid green;"">","null","","","","","","","","",""
"","image-keyboard-response","215","87934","0.0-215.0","3MHW492WW1ZOA6PYQHF58IME0T8VMI","A1U52239IPV7IO","382GHPVPHSDM8N0F9141EAH7F0K34Z","","9","img/flower5.png","74","10","1","1","2","2","1,0,0,1,1,0,1,0,1","1,0,0,1,1,0,1,0,1","1",""
"","html-keyboard-response","216","88235","0.0-216.0","3MHW492WW1ZOA6PYQHF58IME0T8VMI","A1U52239IPV7IO","382GHPVPHSDM8N0F9141EAH7F0K34Z","","null","<img src=""img/flower5.png"" style=""width:200px; border:14px solid green;"">","null","","","","","","","","",""
"","image-keyboard-response","217","88342","0.0-217.0","3MHW492WW1ZOA6PYQHF58IME0T8VMI","A1U52239IPV7IO","382GHPVPHSDM8N0F9141EAH7F0K34Z","","107","img/flower5.png","74","107","1","1","2","2","1,0,0,1,1,0,1,0,1","1,0,0,1,1,0,1,0,1","1",""
"","html-keyboard-response","218","88643","0.0-218.0","3MHW492WW1ZOA6PYQHF58IME0T8VMI","A1U52239IPV7IO","382GHPVPHSDM8N0F9141EAH7F0K34Z","","null","<img src=""img/flower5.png"" style=""width:200px; border:14px solid green;"">","null","","","","","","","","",""
"","image-keyboard-response","219","88682","0.0-219.0","3MHW492WW1ZOA6PYQHF58IME0T8VMI","A1U52239IPV7IO","382GHPVPHSDM8N0F9141EAH7F0K34Z","","38","img/flower1.png","74","39","1","1","1","2","1,0,0,1,1,0,1,0,1","1,0,0,1,1,0,1,0,1","1",""
"","html-keyboard-response","220","88983","0.0-220.0","3MHW492WW1ZOA6PYQHF58IME0T8VMI","A1U52239IPV7IO","382GHPVPHSDM8N0F9141EAH7F0K34Z","","null","<img src=""img/flower1.png"" style=""width:200px; border:14px solid green;"">","null","","","","","","","","",""
"","image-keyboard-response","221","89062","0.0-221.0","3MHW492WW1ZOA6PYQHF58IME0T8VMI","A1U52239IPV7IO","382GHPVPHSDM8N0F9141EAH7F0K34Z","","78","img/flower2.png","74","79","1","1","3","2","1,0,0,1,1,0,1,0,1","1,0,0,1,1,0,1,0,1","1",""
"","html-keyboard-response","222","89366","0.0-222.0","3MHW492WW1ZOA6PYQHF58IME0T8VMI","A1U52239IPV7IO","382GHPVPHSDM8N0F9141EAH7F0K34Z","","null","<img src=""img/flower2.png"" style=""width:200px; border:14px solid green;"">","null","","","","","","","","",""
"","image-keyboard-response","223","89472","0.0-223.0","3MHW492WW1ZOA6PYQHF58IME0T8VMI","A1U52239IPV7IO","382GHPVPHSDM8N0F9141EAH7F0K34Z","","105","img/flower2.png","74","105","1","1","3","2","1,0,0,1,1,0,1,0,1","1,0,0,1,1,0,1,0,1","1",""
"","html-keyboard-response","224","89774","0.0-224.0","3MHW492WW1ZOA6PYQHF58IME0T8VMI","A1U52239IPV7IO","382GHPVPHSDM8N0F9141EAH7F0K34Z","","null","<img src=""img/flower2.png"" style=""width:200px; border:14px solid green;"">","null","","","","","","","","",""
"","image-keyboard-response","225","89873","0.0-225.0","3MHW492WW1ZOA6PYQHF58IME0T8VMI","A1U52239IPV7IO","382GHPVPHSDM8N0F9141EAH7F0K34Z","","98","img/flower1.png","74","99","1","1","1","2","1,0,0,1,1,0,1,0,1","1,0,0,1,1,0,1,0,1","1",""
"","html-keyboard-response","226","90175","0.0-226.0","3MHW492WW1ZOA6PYQHF58IME0T8VMI","A1U52239IPV7IO","382GHPVPHSDM8N0F9141EAH7F0K34Z","","null","<img src=""img/flower1.png"" style=""width:200px; border:14px solid green;"">","null","","","","","","","","",""
"","image-keyboard-response","227","90212","0.0-227.0","3MHW492WW1ZOA6PYQHF58IME0T8VMI","A1U52239IPV7IO","382GHPVPHSDM8N0F9141EAH7F0K34Z","","36","img/flower5.png","74","38","1","1","2","2","1,0,0,1,1,0,1,0,1","1,0,0,1,1,0,1,0,1","1",""
"","html-keyboard-response","228","90513","0.0-228.0","3MHW492WW1ZOA6PYQHF58IME0T8VMI","A1U52239IPV7IO","382GHPVPHSDM8N0F9141EAH7F0K34Z","","null","<img src=""img/flower5.png"" style=""width:200px; border:14px solid green;"">","null","","","","","","","","",""
"","image-keyboard-response","229","90624","0.0-229.0","3MHW492WW1ZOA6PYQHF58IME0T8VMI","A1U52239IPV7IO","382GHPVPHSDM8N0F9141EAH7F0K34Z","","110","img/flower5.png","74","111","1","1","2","2","1,0,0,1,1,0,1,0,1","1,0,0,1,1,0,1,0,1","1",""
"","html-keyboard-response","230","90926","0.0-230.0","3MHW492WW1ZOA6PYQHF58IME0T8VMI","A1U52239IPV7IO","382GHPVPHSDM8N0F9141EAH7F0K34Z","","null","<img src=""img/flower5.png"" style=""width:200px; border:14px solid green;"">","null","","","","","","","","",""
"","image-keyboard-response","231","90962","0.0-231.0","3MHW492WW1ZOA6PYQHF58IME0T8VMI","A1U52239IPV7IO","382GHPVPHSDM8N0F9141EAH7F0K34Z","","35","img/flower1.png","74","37","1","1","1","2","1,0,0,1,1,0,1,0,1","1,0,0,1,1,0,1,0,1","1",""
"","html-keyboard-response","232","91265","0.0-232.0","3MHW492WW1ZOA6PYQHF58IME0T8VMI","A1U52239IPV7IO","382GHPVPHSDM8N0F9141EAH7F0K34Z","","null","<img src=""img/flower1.png"" style=""width:200px; border:14px solid green;"">","null","","","","","","","","",""
"","image-keyboard-response","233","91403","0.0-233.0","3MHW492WW1ZOA6PYQHF58IME0T8VMI","A1U52239IPV7IO","382GHPVPHSDM8N0F9141EAH7F0K34Z","","136","img/flower5.png","74","137","1","1","2","2","1,0,0,1,1,0,1,0,1","1,0,0,1,1,0,1,0,1","1",""
"","html-keyboard-response","234","91705","0.0-234.0","3MHW492WW1ZOA6PYQHF58IME0T8VMI","A1U52239IPV7IO","382GHPVPHSDM8N0F9141EAH7F0K34Z","","null","<img src=""img/flower5.png"" style=""width:200px; border:14px solid green;"">","null","","","","","","","","",""
"","image-keyboard-response","235","91772","0.0-235.0","3MHW492WW1ZOA6PYQHF58IME0T8VMI","A1U52239IPV7IO","382GHPVPHSDM8N0F9141EAH7F0K34Z","","67","img/flower2.png","74","68","1","1","3","2","1,0,0,1,1,0,1,0,1","1,0,0,1,1,0,1,0,1","1",""
"","html-keyboard-response","236","92075","0.0-236.0","3MHW492WW1ZOA6PYQHF58IME0T8VMI","A1U52239IPV7IO","382GHPVPHSDM8N0F9141EAH7F0K34Z","","null","<img src=""img/flower2.png"" style=""width:200px; border:14px solid green;"">","null","","","","","","","","",""
"","image-keyboard-response","237","92267","0.0-237.0","3MHW492WW1ZOA6PYQHF58IME0T8VMI","A1U52239IPV7IO","382GHPVPHSDM8N0F9141EAH7F0K34Z","","191","img/flower5.png","74","193","1","1","2","2","1,0,0,1,1,0,1,0,1","1,0,0,1,1,0,1,0,1","1",""
"","html-keyboard-response","238","92569","0.0-238.0","3MHW492WW1ZOA6PYQHF58IME0T8VMI","A1U52239IPV7IO","382GHPVPHSDM8N0F9141EAH7F0K34Z","","null","<img src=""img/flower5.png"" style=""width:200px; border:14px solid green;"">","null","","","","","","","","",""
"","image-keyboard-response","239","92701","0.0-239.0","3MHW492WW1ZOA6PYQHF58IME0T8VMI","A1U52239IPV7IO","382GHPVPHSDM8N0F9141EAH7F0K34Z","","132","img/flower2.png","74","133","1","1","3","2","1,0,0,1,1,0,1,0,1","1,0,0,1,1,0,1,0,1","1",""
"","html-keyboard-response","240","93002","0.0-240.0","3MHW492WW1ZOA6PYQHF58IME0T8VMI","A1U52239IPV7IO","382GHPVPHSDM8N0F9141EAH7F0K34Z","","null","<img src=""img/flower2.png"" style=""width:200px; border:14px solid green;"">","null","","","","","","","","",""
"","image-keyboard-response","241","93123","0.0-241.0","3MHW492WW1ZOA6PYQHF58IME0T8VMI","A1U52239IPV7IO","382GHPVPHSDM8N0F9141EAH7F0K34Z","","118","img/flower2.png","74","121","1","1","3","2","1,0,0,1,1,0,1,0,1","1,0,0,1,1,0,1,0,1","1",""
"","html-keyboard-response","242","93423","0.0-242.0","3MHW492WW1ZOA6PYQHF58IME0T8VMI","A1U52239IPV7IO","382GHPVPHSDM8N0F9141EAH7F0K34Z","","null","<img src=""img/flower2.png"" style=""width:200px; border:14px solid green;"">","null","","","","","","","","",""
"","image-keyboard-response","243","93512","0.0-243.0","3MHW492WW1ZOA6PYQHF58IME0T8VMI","A1U52239IPV7IO","382GHPVPHSDM8N0F9141EAH7F0K34Z","","89","img/flower1.png","74","89","1","1","1","2","1,0,0,1,1,0,1,0,1","1,0,0,1,1,0,1,0,1","1",""
"","html-keyboard-response","244","93814","0.0-244.0","3MHW492WW1ZOA6PYQHF58IME0T8VMI","A1U52239IPV7IO","382GHPVPHSDM8N0F9141EAH7F0K34Z","","null","<img src=""img/flower1.png"" style=""width:200px; border:14px solid green;"">","null","","","","","","","","",""
"","image-keyboard-response","245","93962","0.0-245.0","3MHW492WW1ZOA6PYQHF58IME0T8VMI","A1U52239IPV7IO","382GHPVPHSDM8N0F9141EAH7F0K34Z","","148","img/flower1.png","74","148","1","1","1","2","1,0,0,1,1,0,1,0,1","1,0,0,1,1,0,1,0,1","1",""
"","html-keyboard-response","246","94267","0.0-246.0","3MHW492WW1ZOA6PYQHF58IME0T8VMI","A1U52239IPV7IO","382GHPVPHSDM8N0F9141EAH7F0K34Z","","null","<img src=""img/flower1.png"" style=""width:200px; border:14px solid green;"">","null","","","","","","","","",""
"","image-keyboard-response","247","94352","0.0-247.0","3MHW492WW1ZOA6PYQHF58IME0T8VMI","A1U52239IPV7IO","382GHPVPHSDM8N0F9141EAH7F0K34Z","","81","img/flower5.png","74","82","1","1","2","2","1,0,0,1,1,0,1,0,1","1,0,0,1,1,0,1,0,1","1",""
"","html-keyboard-response","248","94653","0.0-248.0","3MHW492WW1ZOA6PYQHF58IME0T8VMI","A1U52239IPV7IO","382GHPVPHSDM8N0F9141EAH7F0K34Z","","null","<img src=""img/flower5.png"" style=""width:200px; border:14px solid green;"">","null","","","","","","","","",""
"","image-keyboard-response","249","94852","0.0-249.0","3MHW492WW1ZOA6PYQHF58IME0T8VMI","A1U52239IPV7IO","382GHPVPHSDM8N0F9141EAH7F0K34Z","","199","img/flower5.png","74","199","1","1","2","2","1,0,0,1,1,0,1,0,1","1,0,0,1,1,0,1,0,1","1",""
"","html-keyboard-response","250","95153","0.0-250.0","3MHW492WW1ZOA6PYQHF58IME0T8VMI","A1U52239IPV7IO","382GHPVPHSDM8N0F9141EAH7F0K34Z","","null","<img src=""img/flower5.png"" style=""width:200px; border:14px solid green;"">","null","","","","","","","","",""
"","image-keyboard-response","251","95182","0.0-251.0","3MHW492WW1ZOA6PYQHF58IME0T8VMI","A1U52239IPV7IO","382GHPVPHSDM8N0F9141EAH7F0K34Z","","28","img/flower2.png","74","29","1","1","3","2","1,0,0,1,1,0,1,0,1","1,0,0,1,1,0,1,0,1","1",""
"","html-keyboard-response","252","95483","0.0-252.0","3MHW492WW1ZOA6PYQHF58IME0T8VMI","A1U52239IPV7IO","382GHPVPHSDM8N0F9141EAH7F0K34Z","","null","<img src=""img/flower2.png"" style=""width:200px; border:14px solid green;"">","null","","","","","","","","",""
"","image-keyboard-response","253","95632","0.0-253.0","3MHW492WW1ZOA6PYQHF58IME0T8VMI","A1U52239IPV7IO","382GHPVPHSDM8N0F9141EAH7F0K34Z","","149","img/flower1.png","74","149","1","1","1","2","1,0,0,1,1,0,1,0,1","1,0,0,1,1,0,1,0,1","1",""
"","html-keyboard-response","254","95934","0.0-254.0","3MHW492WW1ZOA6PYQHF58IME0T8VMI","A1U52239IPV7IO","382GHPVPHSDM8N0F9141EAH7F0K34Z","","null","<img src=""img/flower1.png"" style=""width:200px; border:14px solid green;"">","null","","","","","","","","",""
"","image-keyboard-response","255","96023","0.0-255.0","3MHW492WW1ZOA6PYQHF58IME0T8VMI","A1U52239IPV7IO","382GHPVPHSDM8N0F9141EAH7F0K34Z","","89","img/flower2.png","74","89","1","1","3","2","1,0,0,1,1,0,1,0,1","1,0,0,1,1,0,1,0,1","1",""
"","html-keyboard-response","256","96324","0.0-256.0","3MHW492WW1ZOA6PYQHF58IME0T8VMI","A1U52239IPV7IO","382GHPVPHSDM8N0F9141EAH7F0K34Z","","null","<img src=""img/flower2.png"" style=""width:200px; border:14px solid green;"">","null","","","","","","","","",""
"","image-keyboard-response","257","96554","0.0-257.0","3MHW492WW1ZOA6PYQHF58IME0T8VMI","A1U52239IPV7IO","382GHPVPHSDM8N0F9141EAH7F0K34Z","","228","img/flower2.png","74","230","1","1","3","2","1,0,0,1,1,0,1,0,1","1,0,0,1,1,0,1,0,1","1",""
"","html-keyboard-response","258","96856","0.0-258.0","3MHW492WW1ZOA6PYQHF58IME0T8VMI","A1U52239IPV7IO","382GHPVPHSDM8N0F9141EAH7F0K34Z","","null","<img src=""img/flower2.png"" style=""width:200px; border:14px solid green;"">","null","","","","","","","","",""
"","image-keyboard-response","259","97058","0.0-259.0","3MHW492WW1ZOA6PYQHF58IME0T8VMI","A1U52239IPV7IO","382GHPVPHSDM8N0F9141EAH7F0K34Z","","201","img/flower1.png","74","202","1","1","1","2","1,0,0,1,1,0,1,0,1","1,0,0,1,1,0,1,0,1","1",""
"","html-keyboard-response","260","97359","0.0-260.0","3MHW492WW1ZOA6PYQHF58IME0T8VMI","A1U52239IPV7IO","382GHPVPHSDM8N0F9141EAH7F0K34Z","","null","<img src=""img/flower1.png"" style=""width:200px; border:14px solid green;"">","null","","","","","","","","",""
"","image-keyboard-response","261","97534","0.0-261.0","3MHW492WW1ZOA6PYQHF58IME0T8VMI","A1U52239IPV7IO","382GHPVPHSDM8N0F9141EAH7F0K34Z","","174","img/flower2.png","74","175","1","1","3","2","1,0,0,1,1,0,1,0,1","1,0,0,1,1,0,1,0,1","1",""
"","html-keyboard-response","262","97837","0.0-262.0","3MHW492WW1ZOA6PYQHF58IME0T8VMI","A1U52239IPV7IO","382GHPVPHSDM8N0F9141EAH7F0K34Z","","null","<img src=""img/flower2.png"" style=""width:200px; border:14px solid green;"">","null","","","","","","","","",""
"","image-keyboard-response","263","97932","0.0-263.0","3MHW492WW1ZOA6PYQHF58IME0T8VMI","A1U52239IPV7IO","382GHPVPHSDM8N0F9141EAH7F0K34Z","","95","img/flower5.png","74","95","1","1","2","2","1,0,0,1,1,0,1,0,1","1,0,0,1,1,0,1,0,1","1",""
"","html-keyboard-response","264","98233","0.0-264.0","3MHW492WW1ZOA6PYQHF58IME0T8VMI","A1U52239IPV7IO","382GHPVPHSDM8N0F9141EAH7F0K34Z","","null","<img src=""img/flower5.png"" style=""width:200px; border:14px solid green;"">","null","","","","","","","","",""
"","image-keyboard-response","265","98272","0.0-265.0","3MHW492WW1ZOA6PYQHF58IME0T8VMI","A1U52239IPV7IO","382GHPVPHSDM8N0F9141EAH7F0K34Z","","38","img/flower5.png","75","39","2","1","2","2","1,0,0,1,1,0,1,0,1","1,0,0,1,1,0,1,0,1","1",""
"","html-keyboard-response","266","98574","0.0-266.0","3MHW492WW1ZOA6PYQHF58IME0T8VMI","A1U52239IPV7IO","382GHPVPHSDM8N0F9141EAH7F0K34Z","","null","<img src=""img/flower5.png"" style=""width:200px; border:14px solid green;"">","null","","","","","","","","",""
"","image-keyboard-response","267","98672","0.0-267.0","3MHW492WW1ZOA6PYQHF58IME0T8VMI","A1U52239IPV7IO","382GHPVPHSDM8N0F9141EAH7F0K34Z","","98","img/flower5.png","76","98","3","0","2","2","1,0,0,1,1,0,1,0,1","1,0,0,1,1,0,1,0,1","1",""
"","html-keyboard-response","268","98973","0.0-268.0","3MHW492WW1ZOA6PYQHF58IME0T8VMI","A1U52239IPV7IO","382GHPVPHSDM8N0F9141EAH7F0K34Z","","null","<img src=""img/flower5.png"" style=""width:200px;border:14px solid red;"">","null","","","","","","","","",""
"","image-keyboard-response","269","99113","0.0-269.0","3MHW492WW1ZOA6PYQHF58IME0T8VMI","A1U52239IPV7IO","382GHPVPHSDM8N0F9141EAH7F0K34Z","","139","img/flower5.png","75","140","2","1","2","2","1,0,0,1,1,0,1,0,1","1,0,0,1,1,0,1,0,1","1",""
"","html-keyboard-response","270","99415","0.0-270.0","3MHW492WW1ZOA6PYQHF58IME0T8VMI","A1U52239IPV7IO","382GHPVPHSDM8N0F9141EAH7F0K34Z","","null","<img src=""img/flower5.png"" style=""width:200px; border:14px solid green;"">","null","","","","","","","","",""
"","image-keyboard-response","271","99447","0.0-271.0","3MHW492WW1ZOA6PYQHF58IME0T8VMI","A1U52239IPV7IO","382GHPVPHSDM8N0F9141EAH7F0K34Z","","31","img/flower5.png","74","32","1","1","2","2","1,0,0,1,1,0,1,0,1","1,0,0,1,1,0,1,0,1","1",""
"","html-keyboard-response","272","99748","0.0-272.0","3MHW492WW1ZOA6PYQHF58IME0T8VMI","A1U52239IPV7IO","382GHPVPHSDM8N0F9141EAH7F0K34Z","","null","<img src=""img/flower5.png"" style=""width:200px; border:14px solid green;"">","null","","","","","","","","",""
"","image-keyboard-response","273","99873","0.0-273.0","3MHW492WW1ZOA6PYQHF58IME0T8VMI","A1U52239IPV7IO","382GHPVPHSDM8N0F9141EAH7F0K34Z","","123","img/flower2.png","74","124","1","1","3","2","1,0,0,1,1,0,1,0,1","1,0,0,1,1,0,1,0,1","1",""
"","html-keyboard-response","274","100179","0.0-274.0","3MHW492WW1ZOA6PYQHF58IME0T8VMI","A1U52239IPV7IO","382GHPVPHSDM8N0F9141EAH7F0K34Z","","null","<img src=""img/flower2.png"" style=""width:200px; border:14px solid green;"">","null","","","","","","","","",""
"","image-keyboard-response","275","100352","0.0-275.0","3MHW492WW1ZOA6PYQHF58IME0T8VMI","A1U52239IPV7IO","382GHPVPHSDM8N0F9141EAH7F0K34Z","","171","img/flower2.png","74","172","1","1","3","2","1,0,0,1,1,0,1,0,1","1,0,0,1,1,0,1,0,1","1",""
"","html-keyboard-response","276","100654","0.0-276.0","3MHW492WW1ZOA6PYQHF58IME0T8VMI","A1U52239IPV7IO","382GHPVPHSDM8N0F9141EAH7F0K34Z","","null","<img src=""img/flower2.png"" style=""width:200px; border:14px solid green;"">","null","","","","","","","","",""
"","image-keyboard-response","277","101332","0.0-277.0","3MHW492WW1ZOA6PYQHF58IME0T8VMI","A1U52239IPV7IO","382GHPVPHSDM8N0F9141EAH7F0K34Z","","677","img/flower2.png","74","678","1","1","3","2","1,0,0,1,1,0,1,0,1","1,0,0,1,1,0,1,0,1","1",""
"","html-keyboard-response","278","101633","0.0-278.0","3MHW492WW1ZOA6PYQHF58IME0T8VMI","A1U52239IPV7IO","382GHPVPHSDM8N0F9141EAH7F0K34Z","","null","<img src=""img/flower2.png"" style=""width:200px; border:14px solid green;"">","null","","","","","","","","",""
"","image-keyboard-response","279","101692","0.0-279.0","3MHW492WW1ZOA6PYQHF58IME0T8VMI","A1U52239IPV7IO","382GHPVPHSDM8N0F9141EAH7F0K34Z","","58","img/flower2.png","74","59","1","1","3","2","1,0,0,1,1,0,1,0,1","1,0,0,1,1,0,1,0,1","1",""
"","html-keyboard-response","280","101993","0.0-280.0","3MHW492WW1ZOA6PYQHF58IME0T8VMI","A1U52239IPV7IO","382GHPVPHSDM8N0F9141EAH7F0K34Z","","null","<img src=""img/flower2.png"" style=""width:200px; border:14px solid green;"">","null","","","","","","","","",""
"","image-keyboard-response","281","102161","0.0-281.0","3MHW492WW1ZOA6PYQHF58IME0T8VMI","A1U52239IPV7IO","382GHPVPHSDM8N0F9141EAH7F0K34Z","","166","img/flower1.png","74","168","1","1","1","2","1,0,0,1,1,0,1,0,1","1,0,0,1,1,0,1,0,1","1",""
"","html-keyboard-response","282","102462","0.0-282.0","3MHW492WW1ZOA6PYQHF58IME0T8VMI","A1U52239IPV7IO","382GHPVPHSDM8N0F9141EAH7F0K34Z","","null","<img src=""img/flower1.png"" style=""width:200px; border:14px solid green;"">","null","","","","","","","","",""
"","image-keyboard-response","283","102573","0.0-283.0","3MHW492WW1ZOA6PYQHF58IME0T8VMI","A1U52239IPV7IO","382GHPVPHSDM8N0F9141EAH7F0K34Z","","111","img/flower5.png","74","111","1","1","2","2","1,0,0,1,1,0,1,0,1","1,0,0,1,1,0,1,0,1","1",""
"","html-keyboard-response","284","102875","0.0-284.0","3MHW492WW1ZOA6PYQHF58IME0T8VMI","A1U52239IPV7IO","382GHPVPHSDM8N0F9141EAH7F0K34Z","","null","<img src=""img/flower5.png"" style=""width:200px; border:14px solid green;"">","null","","","","","","","","",""
"","image-keyboard-response","285","103072","0.0-285.0","3MHW492WW1ZOA6PYQHF58IME0T8VMI","A1U52239IPV7IO","382GHPVPHSDM8N0F9141EAH7F0K34Z","","196","img/flower5.png","74","197","1","1","2","2","1,0,0,1,1,0,1,0,1","1,0,0,1,1,0,1,0,1","1",""
"","html-keyboard-response","286","103374","0.0-286.0","3MHW492WW1ZOA6PYQHF58IME0T8VMI","A1U52239IPV7IO","382GHPVPHSDM8N0F9141EAH7F0K34Z","","null","<img src=""img/flower5.png"" style=""width:200px; border:14px solid green;"">","null","","","","","","","","",""
"","image-keyboard-response","287","103501","0.0-287.0","3MHW492WW1ZOA6PYQHF58IME0T8VMI","A1U52239IPV7IO","382GHPVPHSDM8N0F9141EAH7F0K34Z","","127","img/flower1.png","74","128","1","1","1","2","1,0,0,1,1,0,1,0,1","1,0,0,1,1,0,1,0,1","1",""
"","html-keyboard-response","288","103803","0.0-288.0","3MHW492WW1ZOA6PYQHF58IME0T8VMI","A1U52239IPV7IO","382GHPVPHSDM8N0F9141EAH7F0K34Z","","null","<img src=""img/flower1.png"" style=""width:200px; border:14px solid green;"">","null","","","","","","","","",""
"","image-keyboard-response","289","103994","0.0-289.0","3MHW492WW1ZOA6PYQHF58IME0T8VMI","A1U52239IPV7IO","382GHPVPHSDM8N0F9141EAH7F0K34Z","","190","img/flower2.png","74","191","1","1","3","2","1,0,0,1,1,0,1,0,1","1,0,0,1,1,0,1,0,1","1",""
"","html-keyboard-response","290","104296","0.0-290.0","3MHW492WW1ZOA6PYQHF58IME0T8VMI","A1U52239IPV7IO","382GHPVPHSDM8N0F9141EAH7F0K34Z","","null","<img src=""img/flower2.png"" style=""width:200px; border:14px solid green;"">","null","","","","","","","","",""
"","image-keyboard-response","291","104369","0.0-291.0","3MHW492WW1ZOA6PYQHF58IME0T8VMI","A1U52239IPV7IO","382GHPVPHSDM8N0F9141EAH7F0K34Z","","72","img/flower1.png","74","73","1","1","1","2","1,0,0,1,1,0,1,0,1","1,0,0,1,1,0,1,0,1","1",""
"","html-keyboard-response","292","104671","0.0-292.0","3MHW492WW1ZOA6PYQHF58IME0T8VMI","A1U52239IPV7IO","382GHPVPHSDM8N0F9141EAH7F0K34Z","","null","<img src=""img/flower1.png"" style=""width:200px; border:14px solid green;"">","null","","","","","","","","",""
"","image-keyboard-response","293","104683","0.0-293.0","3MHW492WW1ZOA6PYQHF58IME0T8VMI","A1U52239IPV7IO","382GHPVPHSDM8N0F9141EAH7F0K34Z","","11","img/flower2.png","76","12","3","1","3","2","1,0,0,1,1,0,1,0,1","1,0,0,1,1,0,1,0,1","1",""
"","html-keyboard-response","294","104983","0.0-294.0","3MHW492WW1ZOA6PYQHF58IME0T8VMI","A1U52239IPV7IO","382GHPVPHSDM8N0F9141EAH7F0K34Z","","null","<img src=""img/flower2.png"" style=""width:200px; border:14px solid green;"">","null","","","","","","","","",""
"","image-keyboard-response","295","104994","0.0-295.0","3MHW492WW1ZOA6PYQHF58IME0T8VMI","A1U52239IPV7IO","382GHPVPHSDM8N0F9141EAH7F0K34Z","","10","img/flower1.png","75","11","2","0","1","2","1,0,0,1,1,0,1,0,1","1,0,0,1,1,0,1,0,1","1",""
"","html-keyboard-response","296","105295","0.0-296.0","3MHW492WW1ZOA6PYQHF58IME0T8VMI","A1U52239IPV7IO","382GHPVPHSDM8N0F9141EAH7F0K34Z","","null","<img src=""img/flower1.png"" style=""width:200px;border:14px solid red;"">","null","","","","","","","","",""
"","image-keyboard-response","297","105412","0.0-297.0","3MHW492WW1ZOA6PYQHF58IME0T8VMI","A1U52239IPV7IO","382GHPVPHSDM8N0F9141EAH7F0K34Z","","116","img/flower1.png","76","117","3","0","1","2","1,0,0,1,1,0,1,0,1","1,0,0,1,1,0,1,0,1","1",""
"","html-keyboard-response","298","105713","0.0-298.0","3MHW492WW1ZOA6PYQHF58IME0T8VMI","A1U52239IPV7IO","382GHPVPHSDM8N0F9141EAH7F0K34Z","","null","<img src=""img/flower1.png"" style=""width:200px;border:14px solid red;"">","null","","","","","","","","",""
"","image-keyboard-response","299","105882","0.0-299.0","3MHW492WW1ZOA6PYQHF58IME0T8VMI","A1U52239IPV7IO","382GHPVPHSDM8N0F9141EAH7F0K34Z","","169","img/flower5.png","75","169","2","1","2","2","1,0,0,1,1,0,1,0,1","1,0,0,1,1,0,1,0,1","1",""
"","html-keyboard-response","300","106183","0.0-300.0","3MHW492WW1ZOA6PYQHF58IME0T8VMI","A1U52239IPV7IO","382GHPVPHSDM8N0F9141EAH7F0K34Z","","null","<img src=""img/flower5.png"" style=""width:200px; border:14px solid green;"">","null","","","","","","","","",""
"","image-keyboard-response","301","106290","0.0-301.0","3MHW492WW1ZOA6PYQHF58IME0T8VMI","A1U52239IPV7IO","382GHPVPHSDM8N0F9141EAH7F0K34Z","","107","img/flower2.png","76","107","3","1","3","2","1,0,0,1,1,0,1,0,1","1,0,0,1,1,0,1,0,1","1",""
"","html-keyboard-response","302","106592","0.0-302.0","3MHW492WW1ZOA6PYQHF58IME0T8VMI","A1U52239IPV7IO","382GHPVPHSDM8N0F9141EAH7F0K34Z","","null","<img src=""img/flower2.png"" style=""width:200px; border:14px solid green;"">","null","","","","","","","","",""
"","image-keyboard-response","303","106662","0.0-303.0","3MHW492WW1ZOA6PYQHF58IME0T8VMI","A1U52239IPV7IO","382GHPVPHSDM8N0F9141EAH7F0K34Z","","69","img/flower5.png","75","70","2","1","2","2","1,0,0,1,1,0,1,0,1","1,0,0,1,1,0,1,0,1","1",""
"","html-keyboard-response","304","106963","0.0-304.0","3MHW492WW1ZOA6PYQHF58IME0T8VMI","A1U52239IPV7IO","382GHPVPHSDM8N0F9141EAH7F0K34Z","","null","<img src=""img/flower5.png"" style=""width:200px; border:14px solid green;"">","null","","","","","","","","",""
"","image-keyboard-response","305","107052","0.0-305.0","3MHW492WW1ZOA6PYQHF58IME0T8VMI","A1U52239IPV7IO","382GHPVPHSDM8N0F9141EAH7F0K34Z","","89","img/flower2.png","76","89","3","1","3","2","1,0,0,1,1,0,1,0,1","1,0,0,1,1,0,1,0,1","1",""
"","html-keyboard-response","306","107354","0.0-306.0","3MHW492WW1ZOA6PYQHF58IME0T8VMI","A1U52239IPV7IO","382GHPVPHSDM8N0F9141EAH7F0K34Z","","null","<img src=""img/flower2.png"" style=""width:200px; border:14px solid green;"">","null","","","","","","","","",""
"","image-keyboard-response","307","107442","0.0-307.0","3MHW492WW1ZOA6PYQHF58IME0T8VMI","A1U52239IPV7IO","382GHPVPHSDM8N0F9141EAH7F0K34Z","","87","img/flower1.png","75","89","2","0","1","2","1,0,0,1,1,0,1,0,1","1,0,0,1,1,0,1,0,1","1",""
"","html-keyboard-response","308","107744","0.0-308.0","3MHW492WW1ZOA6PYQHF58IME0T8VMI","A1U52239IPV7IO","382GHPVPHSDM8N0F9141EAH7F0K34Z","","null","<img src=""img/flower1.png"" style=""width:200px;border:14px solid red;"">","null","","","","","","","","",""
"","image-keyboard-response","309","107949","0.0-309.0","3MHW492WW1ZOA6PYQHF58IME0T8VMI","A1U52239IPV7IO","382GHPVPHSDM8N0F9141EAH7F0K34Z","","203","img/flower5.png","76","204","3","0","2","2","1,0,0,1,1,0,1,0,1","1,0,0,1,1,0,1,0,1","1",""
"","html-keyboard-response","310","108250","0.0-310.0","3MHW492WW1ZOA6PYQHF58IME0T8VMI","A1U52239IPV7IO","382GHPVPHSDM8N0F9141EAH7F0K34Z","","null","<img src=""img/flower5.png"" style=""width:200px;border:14px solid red;"">","null","","","","","","","","",""
"","image-keyboard-response","311","108392","0.0-311.0","3MHW492WW1ZOA6PYQHF58IME0T8VMI","A1U52239IPV7IO","382GHPVPHSDM8N0F9141EAH7F0K34Z","","141","img/flower2.png","75","142","2","0","3","2","1,0,0,1,1,0,1,0,1","1,0,0,1,1,0,1,0,1","1",""
"","html-keyboard-response","312","108693","0.0-312.0","3MHW492WW1ZOA6PYQHF58IME0T8VMI","A1U52239IPV7IO","382GHPVPHSDM8N0F9141EAH7F0K34Z","","null","<img src=""img/flower2.png"" style=""width:200px;border:14px solid red;"">","null","","","","","","","","",""
"","image-keyboard-response","313","108822","0.0-313.0","3MHW492WW1ZOA6PYQHF58IME0T8VMI","A1U52239IPV7IO","382GHPVPHSDM8N0F9141EAH7F0K34Z","","128","img/flower5.png","76","129","3","0","2","2","1,0,0,1,1,0,1,0,1","1,0,0,1,1,0,1,0,1","1",""
"","html-keyboard-response","314","109122","0.0-314.0","3MHW492WW1ZOA6PYQHF58IME0T8VMI","A1U52239IPV7IO","382GHPVPHSDM8N0F9141EAH7F0K34Z","","null","<img src=""img/flower5.png"" style=""width:200px;border:14px solid red;"">","null","","","","","","","","",""
"","image-keyboard-response","315","109201","0.0-315.0","3MHW492WW1ZOA6PYQHF58IME0T8VMI","A1U52239IPV7IO","382GHPVPHSDM8N0F9141EAH7F0K34Z","","78","img/flower5.png","75","79","2","1","2","2","1,0,0,1,1,0,1,0,1","1,0,0,1,1,0,1,0,1","1",""
"","html-keyboard-response","316","109502","0.0-316.0","3MHW492WW1ZOA6PYQHF58IME0T8VMI","A1U52239IPV7IO","382GHPVPHSDM8N0F9141EAH7F0K34Z","","null","<img src=""img/flower5.png"" style=""width:200px; border:14px solid green;"">","null","","","","","","","","",""
"","image-keyboard-response","317","109641","0.0-317.0","3MHW492WW1ZOA6PYQHF58IME0T8VMI","A1U52239IPV7IO","382GHPVPHSDM8N0F9141EAH7F0K34Z","","138","img/flower1.png","76","139","3","0","1","2","1,0,0,1,1,0,1,0,1","1,0,0,1,1,0,1,0,1","1",""
"","html-keyboard-response","318","109943","0.0-318.0","3MHW492WW1ZOA6PYQHF58IME0T8VMI","A1U52239IPV7IO","382GHPVPHSDM8N0F9141EAH7F0K34Z","","null","<img src=""img/flower1.png"" style=""width:200px;border:14px solid red;"">","null","","","","","","","","",""
"","image-keyboard-response","319","110073","0.0-319.0","3MHW492WW1ZOA6PYQHF58IME0T8VMI","A1U52239IPV7IO","382GHPVPHSDM8N0F9141EAH7F0K34Z","","129","img/flower5.png","75","130","2","1","2","2","1,0,0,1,1,0,1,0,1","1,0,0,1,1,0,1,0,1","1",""
"","html-keyboard-response","320","110375","0.0-320.0","3MHW492WW1ZOA6PYQHF58IME0T8VMI","A1U52239IPV7IO","382GHPVPHSDM8N0F9141EAH7F0K34Z","","null","<img src=""img/flower5.png"" style=""width:200px; border:14px solid green;"">","null","","","","","","","","",""
"","image-keyboard-response","321","110482","0.0-321.0","3MHW492WW1ZOA6PYQHF58IME0T8VMI","A1U52239IPV7IO","382GHPVPHSDM8N0F9141EAH7F0K34Z","","107","img/flower1.png","76","107","3","0","1","2","1,0,0,1,1,0,1,0,1","1,0,0,1,1,0,1,0,1","1",""
"","html-keyboard-response","322","110783","0.0-322.0","3MHW492WW1ZOA6PYQHF58IME0T8VMI","A1U52239IPV7IO","382GHPVPHSDM8N0F9141EAH7F0K34Z","","null","<img src=""img/flower1.png"" style=""width:200px;border:14px solid red;"">","null","","","","","","","","",""
"","image-keyboard-response","323","110911","0.0-323.0","3MHW492WW1ZOA6PYQHF58IME0T8VMI","A1U52239IPV7IO","382GHPVPHSDM8N0F9141EAH7F0K34Z","","127","img/flower2.png","75","128","2","0","3","2","1,0,0,1,1,0,1,0,1","1,0,0,1,1,0,1,0,1","1",""
"","html-keyboard-response","324","111213","0.0-324.0","3MHW492WW1ZOA6PYQHF58IME0T8VMI","A1U52239IPV7IO","382GHPVPHSDM8N0F9141EAH7F0K34Z","","null","<img src=""img/flower2.png"" style=""width:200px;border:14px solid red;"">","null","","","","","","","","",""
"","image-keyboard-response","325","111452","0.0-325.0","3MHW492WW1ZOA6PYQHF58IME0T8VMI","A1U52239IPV7IO","382GHPVPHSDM8N0F9141EAH7F0K34Z","","239","img/flower5.png","76","239","3","0","2","2","1,0,0,1,1,0,1,0,1","1,0,0,1,1,0,1,0,1","1",""
"","html-keyboard-response","326","111753","0.0-326.0","3MHW492WW1ZOA6PYQHF58IME0T8VMI","A1U52239IPV7IO","382GHPVPHSDM8N0F9141EAH7F0K34Z","","null","<img src=""img/flower5.png"" style=""width:200px;border:14px solid red;"">","null","","","","","","","","",""
"","image-keyboard-response","327","111781","0.0-327.0","3MHW492WW1ZOA6PYQHF58IME0T8VMI","A1U52239IPV7IO","382GHPVPHSDM8N0F9141EAH7F0K34Z","","27","img/flower2.png","75","28","2","0","3","2","1,0,0,1,1,0,1,0,1","1,0,0,1,1,0,1,0,1","1",""
"","html-keyboard-response","328","112083","0.0-328.0","3MHW492WW1ZOA6PYQHF58IME0T8VMI","A1U52239IPV7IO","382GHPVPHSDM8N0F9141EAH7F0K34Z","","null","<img src=""img/flower2.png"" style=""width:200px;border:14px solid red;"">","null","","","","","","","","",""
"","image-keyboard-response","329","112212","0.0-329.0","3MHW492WW1ZOA6PYQHF58IME0T8VMI","A1U52239IPV7IO","382GHPVPHSDM8N0F9141EAH7F0K34Z","","128","img/flower2.png","76","129","3","1","3","2","1,0,0,1,1,0,1,0,1","1,0,0,1,1,0,1,0,1","1",""
"","html-keyboard-response","330","112512","0.0-330.0","3MHW492WW1ZOA6PYQHF58IME0T8VMI","A1U52239IPV7IO","382GHPVPHSDM8N0F9141EAH7F0K34Z","","null","<img src=""img/flower2.png"" style=""width:200px; border:14px solid green;"">","null","","","","","","","","",""
"","image-keyboard-response","331","112624","0.0-331.0","3MHW492WW1ZOA6PYQHF58IME0T8VMI","A1U52239IPV7IO","382GHPVPHSDM8N0F9141EAH7F0K34Z","","111","img/flower1.png","75","112","2","0","1","2","1,0,0,1,1,0,1,0,1","1,0,0,1,1,0,1,0,1","1",""
"","html-keyboard-response","332","112925","0.0-332.0","3MHW492WW1ZOA6PYQHF58IME0T8VMI","A1U52239IPV7IO","382GHPVPHSDM8N0F9141EAH7F0K34Z","","null","<img src=""img/flower1.png"" style=""width:200px;border:14px solid red;"">","null","","","","","","","","",""
"","image-keyboard-response","333","113171","0.0-333.0","3MHW492WW1ZOA6PYQHF58IME0T8VMI","A1U52239IPV7IO","382GHPVPHSDM8N0F9141EAH7F0K34Z","","245","img/flower1.png","76","246","3","0","1","2","1,0,0,1,1,0,1,0,1","1,0,0,1,1,0,1,0,1","1",""
"","html-keyboard-response","334","113473","0.0-334.0","3MHW492WW1ZOA6PYQHF58IME0T8VMI","A1U52239IPV7IO","382GHPVPHSDM8N0F9141EAH7F0K34Z","","null","<img src=""img/flower1.png"" style=""width:200px;border:14px solid red;"">","null","","","","","","","","",""
"","image-keyboard-response","335","113561","0.0-335.0","3MHW492WW1ZOA6PYQHF58IME0T8VMI","A1U52239IPV7IO","382GHPVPHSDM8N0F9141EAH7F0K34Z","","87","img/flower1.png","74","88","1","1","1","2","1,0,0,1,1,0,1,0,1","1,0,0,1,1,0,1,0,1","1",""
"","html-keyboard-response","336","113863","0.0-336.0","3MHW492WW1ZOA6PYQHF58IME0T8VMI","A1U52239IPV7IO","382GHPVPHSDM8N0F9141EAH7F0K34Z","","null","<img src=""img/flower1.png"" style=""width:200px; border:14px solid green;"">","null","","","","","","","","",""
"","image-keyboard-response","337","114032","0.0-337.0","3MHW492WW1ZOA6PYQHF58IME0T8VMI","A1U52239IPV7IO","382GHPVPHSDM8N0F9141EAH7F0K34Z","","167","img/flower5.png","74","169","1","1","2","2","1,0,0,1,1,0,1,0,1","1,0,0,1,1,0,1,0,1","1",""
"","html-keyboard-response","338","114332","0.0-338.0","3MHW492WW1ZOA6PYQHF58IME0T8VMI","A1U52239IPV7IO","382GHPVPHSDM8N0F9141EAH7F0K34Z","","null","<img src=""img/flower5.png"" style=""width:200px; border:14px solid green;"">","null","","","","","","","","",""
"","image-keyboard-response","339","114413","0.0-339.0","3MHW492WW1ZOA6PYQHF58IME0T8VMI","A1U52239IPV7IO","382GHPVPHSDM8N0F9141EAH7F0K34Z","","80","img/flower2.png","74","81","1","1","3","2","1,0,0,1,1,0,1,0,1","1,0,0,1,1,0,1,0,1","1",""
"","html-keyboard-response","340","114714","0.0-340.0","3MHW492WW1ZOA6PYQHF58IME0T8VMI","A1U52239IPV7IO","382GHPVPHSDM8N0F9141EAH7F0K34Z","","null","<img src=""img/flower2.png"" style=""width:200px; border:14px solid green;"">","null","","","","","","","","",""
"","image-keyboard-response","341","114751","0.0-341.0","3MHW492WW1ZOA6PYQHF58IME0T8VMI","A1U52239IPV7IO","382GHPVPHSDM8N0F9141EAH7F0K34Z","","36","img/flower2.png","75","37","2","0","3","2","1,0,0,1,1,0,1,0,1","1,0,0,1,1,0,1,0,1","1",""
"","html-keyboard-response","342","115053","0.0-342.0","3MHW492WW1ZOA6PYQHF58IME0T8VMI","A1U52239IPV7IO","382GHPVPHSDM8N0F9141EAH7F0K34Z","","null","<img src=""img/flower2.png"" style=""width:200px;border:14px solid red;"">","null","","","","","","","","",""
"","image-keyboard-response","343","115191","0.0-343.0","3MHW492WW1ZOA6PYQHF58IME0T8VMI","A1U52239IPV7IO","382GHPVPHSDM8N0F9141EAH7F0K34Z","","138","img/flower1.png","76","138","3","0","1","2","1,0,0,1,1,0,1,0,1","1,0,0,1,1,0,1,0,1","1",""
"","html-keyboard-response","344","115492","0.0-344.0","3MHW492WW1ZOA6PYQHF58IME0T8VMI","A1U52239IPV7IO","382GHPVPHSDM8N0F9141EAH7F0K34Z","","null","<img src=""img/flower1.png"" style=""width:200px;border:14px solid red;"">","null","","","","","","","","",""
"","image-keyboard-response","345","115611","0.0-345.0","3MHW492WW1ZOA6PYQHF58IME0T8VMI","A1U52239IPV7IO","382GHPVPHSDM8N0F9141EAH7F0K34Z","","119","img/flower2.png","75","120","2","0","3","2","1,0,0,1,1,0,1,0,1","1,0,0,1,1,0,1,0,1","1",""
"","html-keyboard-response","346","115912","0.0-346.0","3MHW492WW1ZOA6PYQHF58IME0T8VMI","A1U52239IPV7IO","382GHPVPHSDM8N0F9141EAH7F0K34Z","","null","<img src=""img/flower2.png"" style=""width:200px;border:14px solid red;"">","null","","","","","","","","",""
"","image-keyboard-response","347","116010","0.0-347.0","3MHW492WW1ZOA6PYQHF58IME0T8VMI","A1U52239IPV7IO","382GHPVPHSDM8N0F9141EAH7F0K34Z","","97","img/flower1.png","76","99","3","0","1","2","1,0,0,1,1,0,1,0,1","1,0,0,1,1,0,1,0,1","1",""
"","html-keyboard-response","348","116311","0.0-348.0","3MHW492WW1ZOA6PYQHF58IME0T8VMI","A1U52239IPV7IO","382GHPVPHSDM8N0F9141EAH7F0K34Z","","null","<img src=""img/flower1.png"" style=""width:200px;border:14px solid red;"">","null","","","","","","","","",""
"","image-keyboard-response","349","116431","0.0-349.0","3MHW492WW1ZOA6PYQHF58IME0T8VMI","A1U52239IPV7IO","382GHPVPHSDM8N0F9141EAH7F0K34Z","","119","img/flower5.png","75","120","2","1","2","2","1,0,0,1,1,0,1,0,1","1,0,0,1,1,0,1,0,1","1",""
"","html-keyboard-response","350","116734","0.0-350.0","3MHW492WW1ZOA6PYQHF58IME0T8VMI","A1U52239IPV7IO","382GHPVPHSDM8N0F9141EAH7F0K34Z","","null","<img src=""img/flower5.png"" style=""width:200px; border:14px solid green;"">","null","","","","","","","","",""
"","image-keyboard-response","351","116886","0.0-351.0","3MHW492WW1ZOA6PYQHF58IME0T8VMI","A1U52239IPV7IO","382GHPVPHSDM8N0F9141EAH7F0K34Z","","152","img/flower2.png","76","152","3","1","3","2","1,0,0,1,1,0,1,0,1","1,0,0,1,1,0,1,0,1","1",""
"","html-keyboard-response","352","117187","0.0-352.0","3MHW492WW1ZOA6PYQHF58IME0T8VMI","A1U52239IPV7IO","382GHPVPHSDM8N0F9141EAH7F0K34Z","","null","<img src=""img/flower2.png"" style=""width:200px; border:14px solid green;"">","null","","","","","","","","",""
"","image-keyboard-response","353","117291","0.0-353.0","3MHW492WW1ZOA6PYQHF58IME0T8VMI","A1U52239IPV7IO","382GHPVPHSDM8N0F9141EAH7F0K34Z","","103","img/flower5.png","75","105","2","1","2","2","1,0,0,1,1,0,1,0,1","1,0,0,1,1,0,1,0,1","1",""
"","html-keyboard-response","354","117593","0.0-354.0","3MHW492WW1ZOA6PYQHF58IME0T8VMI","A1U52239IPV7IO","382GHPVPHSDM8N0F9141EAH7F0K34Z","","null","<img src=""img/flower5.png"" style=""width:200px; border:14px solid green;"">","null","","","","","","","","",""
"","image-keyboard-response","355","117711","0.0-355.0","3MHW492WW1ZOA6PYQHF58IME0T8VMI","A1U52239IPV7IO","382GHPVPHSDM8N0F9141EAH7F0K34Z","","114","img/flower1.png","76","116","3","0","1","2","1,0,0,1,1,0,1,0,1","1,0,0,1,1,0,1,0,1","1",""
"","html-keyboard-response","356","118013","0.0-356.0","3MHW492WW1ZOA6PYQHF58IME0T8VMI","A1U52239IPV7IO","382GHPVPHSDM8N0F9141EAH7F0K34Z","","null","<img src=""img/flower1.png"" style=""width:200px;border:14px solid red;"">","null","","","","","","","","",""
"","image-keyboard-response","357","118041","0.0-357.0","3MHW492WW1ZOA6PYQHF58IME0T8VMI","A1U52239IPV7IO","382GHPVPHSDM8N0F9141EAH7F0K34Z","","27","img/flower1.png","74","28","1","1","1","2","1,0,0,1,1,0,1,0,1","1,0,0,1,1,0,1,0,1","1",""
"","html-keyboard-response","358","118342","0.0-358.0","3MHW492WW1ZOA6PYQHF58IME0T8VMI","A1U52239IPV7IO","382GHPVPHSDM8N0F9141EAH7F0K34Z","","null","<img src=""img/flower1.png"" style=""width:200px; border:14px solid green;"">","null","","","","","","","","",""
"","image-keyboard-response","359","118352","0.0-359.0","3MHW492WW1ZOA6PYQHF58IME0T8VMI","A1U52239IPV7IO","382GHPVPHSDM8N0F9141EAH7F0K34Z","","9","img/flower1.png","74","11","1","1","1","2","1,0,0,1,1,0,1,0,1","1,0,0,1,1,0,1,0,1","1",""
"","html-keyboard-response","360","118654","0.0-360.0","3MHW492WW1ZOA6PYQHF58IME0T8VMI","A1U52239IPV7IO","382GHPVPHSDM8N0F9141EAH7F0K34Z","","null","<img src=""img/flower1.png"" style=""width:200px; border:14px solid green;"">","null","","","","","","","","",""
"","image-keyboard-response","361","118731","0.0-361.0","3MHW492WW1ZOA6PYQHF58IME0T8VMI","A1U52239IPV7IO","382GHPVPHSDM8N0F9141EAH7F0K34Z","","77","img/flower5.png","74","77","1","1","2","2","1,0,0,1,1,0,1,0,1","1,0,0,1,1,0,1,0,1","1",""
"","html-keyboard-response","362","119099","0.0-362.0","3MHW492WW1ZOA6PYQHF58IME0T8VMI","A1U52239IPV7IO","382GHPVPHSDM8N0F9141EAH7F0K34Z","","null","<img src=""img/flower5.png"" style=""width:200px; border:14px solid green;"">","null","","","","","","","","",""
"","instructions","363","123372","0.0-363.0","3MHW492WW1ZOA6PYQHF58IME0T8VMI","A1U52239IPV7IO","382GHPVPHSDM8N0F9141EAH7F0K34Z","[{""page_index"":0,""viewing_time"":4271}]","4271","","","","","","","","","","",""
"","survey-text","364","133122","0.0-364.0","3MHW492WW1ZOA6PYQHF58IME0T8VMI","A1U52239IPV7IO","382GHPVPHSDM8N0F9141EAH7F0K34Z","","9744","","","","","","","","","","","{""Q0"":""A1U52239IPV7IO""}"
