"success","trial_type","trial_index","time_elapsed","internal_node_id","assignmentID","mturkID","hitID","view_history","rt","stimulus","key_press","reactionTime","a","r","s","cond","reward_cond","reward_cond_actual","reward_matrix_idx","responses"
"true","fullscreen","0","14046","0.0-0.0","3OS4RQUCRA13VIZBZDKSCG8Y0UBFB8","A1VBP1RMKGUXB","3UDTAB6HH6LRO17U79I9TKUGYFV09C","","","","","","","","","","","","",""
"","instructions","1","35545","0.0-1.0","3OS4RQUCRA13VIZBZDKSCG8Y0UBFB8","A1VBP1RMKGUXB","3UDTAB6HH6LRO17U79I9TKUGYFV09C","[{""page_index"":0,""viewing_time"":1553},{""page_index"":1,""viewing_time"":4322},{""page_index"":2,""viewing_time"":1102},{""page_index"":3,""viewing_time"":1135},{""page_index"":4,""viewing_time"":7085},{""page_index"":5,""viewing_time"":3176},{""page_index"":6,""viewing_time"":1304},{""page_index"":7,""viewing_time"":1813}]","21492","","","","","","","","","","",""
"","image-keyboard-response","2","37232","0.0-2.0","3OS4RQUCRA13VIZBZDKSCG8Y0UBFB8","A1VBP1RMKGUXB","3UDTAB6HH6LRO17U79I9TKUGYFV09C","","1678","img/flower1.png","75","1685","2","0","3","1","1,0.333,0.333,0.333,1,0.333,0.333,0.333,1","1,0.333,0.333,0.333,1,0.333,0.333,0.333,1","1",""
"","html-keyboard-response","3","37538","0.0-3.0","3OS4RQUCRA13VIZBZDKSCG8Y0UBFB8","A1VBP1RMKGUXB","3UDTAB6HH6LRO17U79I9TKUGYFV09C","","null","<img src=""img/flower1.png"" style=""width:200px;border:14px solid red;"">","null","","","","","","","","",""
"","image-keyboard-response","4","38534","0.0-4.0","3OS4RQUCRA13VIZBZDKSCG8Y0UBFB8","A1VBP1RMKGUXB","3UDTAB6HH6LRO17U79I9TKUGYFV09C","","993","img/flower6.png","74","995","1","1","1","1","1,0.333,0.333,0.333,1,0.333,0.333,0.333,1","1,0.333,0.333,0.333,1,0.333,0.333,0.333,1","1",""
"","html-keyboard-response","5","38840","0.0-5.0","3OS4RQUCRA13VIZBZDKSCG8Y0UBFB8","A1VBP1RMKGUXB","3UDTAB6HH6LRO17U79I9TKUGYFV09C","","null","<img src=""img/flower6.png"" style=""width:200px; border:14px solid green;"">","null","","","","","","","","",""
"","image-keyboard-response","6","39685","0.0-6.0","3OS4RQUCRA13VIZBZDKSCG8Y0UBFB8","A1VBP1RMKGUXB","3UDTAB6HH6LRO17U79I9TKUGYFV09C","","841","img/flower6.png","74","844","1","1","1","1","1,0.333,0.333,0.333,1,0.333,0.333,0.333,1","1,0.333,0.333,0.333,1,0.333,0.333,0.333,1","1",""
"","html-keyboard-response","7","39998","0.0-7.0","3OS4RQUCRA13VIZBZDKSCG8Y0UBFB8","A1VBP1RMKGUXB","3UDTAB6HH6LRO17U79I9TKUGYFV09C","","null","<img src=""img/flower6.png"" style=""width:200px; border:14px solid green;"">","null","","","","","","","","",""
"","image-keyboard-response","8","40614","0.0-8.0","3OS4RQUCRA13VIZBZDKSCG8Y0UBFB8","A1VBP1RMKGUXB","3UDTAB6HH6LRO17U79I9TKUGYFV09C","","614","img/flower6.png","74","616","1","1","1","1","1,0.333,0.333,0.333,1,0.333,0.333,0.333,1","1,0.333,0.333,0.333,1,0.333,0.333,0.333,1","1",""
"","html-keyboard-response","9","40916","0.0-9.0","3OS4RQUCRA13VIZBZDKSCG8Y0UBFB8","A1VBP1RMKGUXB","3UDTAB6HH6LRO17U79I9TKUGYFV09C","","null","<img src=""img/flower6.png"" style=""width:200px; border:14px solid green;"">","null","","","","","","","","",""
"","image-keyboard-response","10","42469","0.0-10.0","3OS4RQUCRA13VIZBZDKSCG8Y0UBFB8","A1VBP1RMKGUXB","3UDTAB6HH6LRO17U79I9TKUGYFV09C","","1551","img/flower1.png","76","1553","3","1","3","1","1,0.333,0.333,0.333,1,0.333,0.333,0.333,1","1,0.333,0.333,0.333,1,0.333,0.333,0.333,1","1",""
"","html-keyboard-response","11","42773","0.0-11.0","3OS4RQUCRA13VIZBZDKSCG8Y0UBFB8","A1VBP1RMKGUXB","3UDTAB6HH6LRO17U79I9TKUGYFV09C","","null","<img src=""img/flower1.png"" style=""width:200px; border:14px solid green;"">","null","","","","","","","","",""
"","image-keyboard-response","12","43529","0.0-12.0","3OS4RQUCRA13VIZBZDKSCG8Y0UBFB8","A1VBP1RMKGUXB","3UDTAB6HH6LRO17U79I9TKUGYFV09C","","752","img/flower1.png","76","755","3","1","3","1","1,0.333,0.333,0.333,1,0.333,0.333,0.333,1","1,0.333,0.333,0.333,1,0.333,0.333,0.333,1","1",""
"","html-keyboard-response","13","43832","0.0-13.0","3OS4RQUCRA13VIZBZDKSCG8Y0UBFB8","A1VBP1RMKGUXB","3UDTAB6HH6LRO17U79I9TKUGYFV09C","","null","<img src=""img/flower1.png"" style=""width:200px; border:14px solid green;"">","null","","","","","","","","",""
"","image-keyboard-response","14","44466","0.0-14.0","3OS4RQUCRA13VIZBZDKSCG8Y0UBFB8","A1VBP1RMKGUXB","3UDTAB6HH6LRO17U79I9TKUGYFV09C","","633","img/flower1.png","76","634","3","1","3","1","1,0.333,0.333,0.333,1,0.333,0.333,0.333,1","1,0.333,0.333,0.333,1,0.333,0.333,0.333,1","1",""
"","html-keyboard-response","15","44769","0.0-15.0","3OS4RQUCRA13VIZBZDKSCG8Y0UBFB8","A1VBP1RMKGUXB","3UDTAB6HH6LRO17U79I9TKUGYFV09C","","null","<img src=""img/flower1.png"" style=""width:200px; border:14px solid green;"">","null","","","","","","","","",""
"","image-keyboard-response","16","45375","0.0-16.0","3OS4RQUCRA13VIZBZDKSCG8Y0UBFB8","A1VBP1RMKGUXB","3UDTAB6HH6LRO17U79I9TKUGYFV09C","","603","img/flower1.png","76","605","3","1","3","1","1,0.333,0.333,0.333,1,0.333,0.333,0.333,1","1,0.333,0.333,0.333,1,0.333,0.333,0.333,1","1",""
"","html-keyboard-response","17","45676","0.0-17.0","3OS4RQUCRA13VIZBZDKSCG8Y0UBFB8","A1VBP1RMKGUXB","3UDTAB6HH6LRO17U79I9TKUGYFV09C","","null","<img src=""img/flower1.png"" style=""width:200px; border:14px solid green;"">","null","","","","","","","","",""
"","image-keyboard-response","18","46243","0.0-18.0","3OS4RQUCRA13VIZBZDKSCG8Y0UBFB8","A1VBP1RMKGUXB","3UDTAB6HH6LRO17U79I9TKUGYFV09C","","565","img/flower1.png","76","565","3","1","3","1","1,0.333,0.333,0.333,1,0.333,0.333,0.333,1","1,0.333,0.333,0.333,1,0.333,0.333,0.333,1","1",""
"","html-keyboard-response","19","46545","0.0-19.0","3OS4RQUCRA13VIZBZDKSCG8Y0UBFB8","A1VBP1RMKGUXB","3UDTAB6HH6LRO17U79I9TKUGYFV09C","","null","<img src=""img/flower1.png"" style=""width:200px; border:14px solid green;"">","null","","","","","","","","",""
"","image-keyboard-response","20","47634","0.0-20.0","3OS4RQUCRA13VIZBZDKSCG8Y0UBFB8","A1VBP1RMKGUXB","3UDTAB6HH6LRO17U79I9TKUGYFV09C","","1086","img/flower2.png","75","1088","2","1","2","1","1,0.333,0.333,0.333,1,0.333,0.333,0.333,1","1,0.333,0.333,0.333,1,0.333,0.333,0.333,1","1",""
"","html-keyboard-response","21","47936","0.0-21.0","3OS4RQUCRA13VIZBZDKSCG8Y0UBFB8","A1VBP1RMKGUXB","3UDTAB6HH6LRO17U79I9TKUGYFV09C","","null","<img src=""img/flower2.png"" style=""width:200px; border:14px solid green;"">","null","","","","","","","","",""
"","image-keyboard-response","22","49004","0.0-22.0","3OS4RQUCRA13VIZBZDKSCG8Y0UBFB8","A1VBP1RMKGUXB","3UDTAB6HH6LRO17U79I9TKUGYFV09C","","1065","img/flower6.png","74","1067","1","1","1","1","1,0.333,0.333,0.333,1,0.333,0.333,0.333,1","1,0.333,0.333,0.333,1,0.333,0.333,0.333,1","1",""
"","html-keyboard-response","23","49309","0.0-23.0","3OS4RQUCRA13VIZBZDKSCG8Y0UBFB8","A1VBP1RMKGUXB","3UDTAB6HH6LRO17U79I9TKUGYFV09C","","null","<img src=""img/flower6.png"" style=""width:200px; border:14px solid green;"">","null","","","","","","","","",""
"","image-keyboard-response","24","49955","0.0-24.0","3OS4RQUCRA13VIZBZDKSCG8Y0UBFB8","A1VBP1RMKGUXB","3UDTAB6HH6LRO17U79I9TKUGYFV09C","","644","img/flower6.png","74","645","1","1","1","1","1,0.333,0.333,0.333,1,0.333,0.333,0.333,1","1,0.333,0.333,0.333,1,0.333,0.333,0.333,1","1",""
"","html-keyboard-response","25","50258","0.0-25.0","3OS4RQUCRA13VIZBZDKSCG8Y0UBFB8","A1VBP1RMKGUXB","3UDTAB6HH6LRO17U79I9TKUGYFV09C","","null","<img src=""img/flower6.png"" style=""width:200px; border:14px solid green;"">","null","","","","","","","","",""
"","image-keyboard-response","26","51338","0.0-26.0","3OS4RQUCRA13VIZBZDKSCG8Y0UBFB8","A1VBP1RMKGUXB","3UDTAB6HH6LRO17U79I9TKUGYFV09C","","1079","img/flower2.png","74","1079","1","0","2","1","1,0.333,0.333,0.333,1,0.333,0.333,0.333,1","1,0.333,0.333,0.333,1,0.333,0.333,0.333,1","1",""
"","html-keyboard-response","27","51643","0.0-27.0","3OS4RQUCRA13VIZBZDKSCG8Y0UBFB8","A1VBP1RMKGUXB","3UDTAB6HH6LRO17U79I9TKUGYFV09C","","null","<img src=""img/flower2.png"" style=""width:200px;border:14px solid red;"">","null","","","","","","","","",""
"","image-keyboard-response","28","52487","0.0-28.0","3OS4RQUCRA13VIZBZDKSCG8Y0UBFB8","A1VBP1RMKGUXB","3UDTAB6HH6LRO17U79I9TKUGYFV09C","","841","img/flower6.png","75","843","2","1","1","1","1,0.333,0.333,0.333,1,0.333,0.333,0.333,1","1,0.333,0.333,0.333,1,0.333,0.333,0.333,1","1",""
"","html-keyboard-response","29","52792","0.0-29.0","3OS4RQUCRA13VIZBZDKSCG8Y0UBFB8","A1VBP1RMKGUXB","3UDTAB6HH6LRO17U79I9TKUGYFV09C","","null","<img src=""img/flower6.png"" style=""width:200px; border:14px solid green;"">","null","","","","","","","","",""
"","image-keyboard-response","30","53663","0.0-30.0","3OS4RQUCRA13VIZBZDKSCG8Y0UBFB8","A1VBP1RMKGUXB","3UDTAB6HH6LRO17U79I9TKUGYFV09C","","868","img/flower6.png","74","869","1","1","1","1","1,0.333,0.333,0.333,1,0.333,0.333,0.333,1","1,0.333,0.333,0.333,1,0.333,0.333,0.333,1","1",""
"","html-keyboard-response","31","53966","0.0-31.0","3OS4RQUCRA13VIZBZDKSCG8Y0UBFB8","A1VBP1RMKGUXB","3UDTAB6HH6LRO17U79I9TKUGYFV09C","","null","<img src=""img/flower6.png"" style=""width:200px; border:14px solid green;"">","null","","","","","","","","",""
"","image-keyboard-response","32","54634","0.0-32.0","3OS4RQUCRA13VIZBZDKSCG8Y0UBFB8","A1VBP1RMKGUXB","3UDTAB6HH6LRO17U79I9TKUGYFV09C","","665","img/flower2.png","74","668","1","1","2","1","1,0.333,0.333,0.333,1,0.333,0.333,0.333,1","1,0.333,0.333,0.333,1,0.333,0.333,0.333,1","1",""
"","html-keyboard-response","33","54938","0.0-33.0","3OS4RQUCRA13VIZBZDKSCG8Y0UBFB8","A1VBP1RMKGUXB","3UDTAB6HH6LRO17U79I9TKUGYFV09C","","null","<img src=""img/flower2.png"" style=""width:200px; border:14px solid green;"">","null","","","","","","","","",""
"","image-keyboard-response","34","56138","0.0-34.0","3OS4RQUCRA13VIZBZDKSCG8Y0UBFB8","A1VBP1RMKGUXB","3UDTAB6HH6LRO17U79I9TKUGYFV09C","","1197","img/flower1.png","76","1199","3","1","3","1","1,0.333,0.333,0.333,1,0.333,0.333,0.333,1","1,0.333,0.333,0.333,1,0.333,0.333,0.333,1","1",""
"","html-keyboard-response","35","56470","0.0-35.0","3OS4RQUCRA13VIZBZDKSCG8Y0UBFB8","A1VBP1RMKGUXB","3UDTAB6HH6LRO17U79I9TKUGYFV09C","","null","<img src=""img/flower1.png"" style=""width:200px; border:14px solid green;"">","null","","","","","","","","",""
"","image-keyboard-response","36","57124","0.0-36.0","3OS4RQUCRA13VIZBZDKSCG8Y0UBFB8","A1VBP1RMKGUXB","3UDTAB6HH6LRO17U79I9TKUGYFV09C","","649","img/flower1.png","76","652","3","1","3","1","1,0.333,0.333,0.333,1,0.333,0.333,0.333,1","1,0.333,0.333,0.333,1,0.333,0.333,0.333,1","1",""
"","html-keyboard-response","37","57426","0.0-37.0","3OS4RQUCRA13VIZBZDKSCG8Y0UBFB8","A1VBP1RMKGUXB","3UDTAB6HH6LRO17U79I9TKUGYFV09C","","null","<img src=""img/flower1.png"" style=""width:200px; border:14px solid green;"">","null","","","","","","","","",""
"","image-keyboard-response","38","58349","0.0-38.0","3OS4RQUCRA13VIZBZDKSCG8Y0UBFB8","A1VBP1RMKGUXB","3UDTAB6HH6LRO17U79I9TKUGYFV09C","","920","img/flower2.png","75","922","2","1","2","1","1,0.333,0.333,0.333,1,0.333,0.333,0.333,1","1,0.333,0.333,0.333,1,0.333,0.333,0.333,1","1",""
"","html-keyboard-response","39","58651","0.0-39.0","3OS4RQUCRA13VIZBZDKSCG8Y0UBFB8","A1VBP1RMKGUXB","3UDTAB6HH6LRO17U79I9TKUGYFV09C","","null","<img src=""img/flower2.png"" style=""width:200px; border:14px solid green;"">","null","","","","","","","","",""
"","image-keyboard-response","40","59391","0.0-40.0","3OS4RQUCRA13VIZBZDKSCG8Y0UBFB8","A1VBP1RMKGUXB","3UDTAB6HH6LRO17U79I9TKUGYFV09C","","738","img/flower2.png","75","739","2","1","2","1","1,0.333,0.333,0.333,1,0.333,0.333,0.333,1","1,0.333,0.333,0.333,1,0.333,0.333,0.333,1","1",""
"","html-keyboard-response","41","59694","0.0-41.0","3OS4RQUCRA13VIZBZDKSCG8Y0UBFB8","A1VBP1RMKGUXB","3UDTAB6HH6LRO17U79I9TKUGYFV09C","","null","<img src=""img/flower2.png"" style=""width:200px; border:14px solid green;"">","null","","","","","","","","",""
"","image-keyboard-response","42","60714","0.0-42.0","3OS4RQUCRA13VIZBZDKSCG8Y0UBFB8","A1VBP1RMKGUXB","3UDTAB6HH6LRO17U79I9TKUGYFV09C","","1019","img/flower1.png","76","1019","3","1","3","1","1,0.333,0.333,0.333,1,0.333,0.333,0.333,1","1,0.333,0.333,0.333,1,0.333,0.333,0.333,1","1",""
"","html-keyboard-response","43","61017","0.0-43.0","3OS4RQUCRA13VIZBZDKSCG8Y0UBFB8","A1VBP1RMKGUXB","3UDTAB6HH6LRO17U79I9TKUGYFV09C","","null","<img src=""img/flower1.png"" style=""width:200px; border:14px solid green;"">","null","","","","","","","","",""
"","image-keyboard-response","44","61625","0.0-44.0","3OS4RQUCRA13VIZBZDKSCG8Y0UBFB8","A1VBP1RMKGUXB","3UDTAB6HH6LRO17U79I9TKUGYFV09C","","604","img/flower1.png","76","605","3","1","3","1","1,0.333,0.333,0.333,1,0.333,0.333,0.333,1","1,0.333,0.333,0.333,1,0.333,0.333,0.333,1","1",""
"","html-keyboard-response","45","61928","0.0-45.0","3OS4RQUCRA13VIZBZDKSCG8Y0UBFB8","A1VBP1RMKGUXB","3UDTAB6HH6LRO17U79I9TKUGYFV09C","","null","<img src=""img/flower1.png"" style=""width:200px; border:14px solid green;"">","null","","","","","","","","",""
"","image-keyboard-response","46","62888","0.0-46.0","3OS4RQUCRA13VIZBZDKSCG8Y0UBFB8","A1VBP1RMKGUXB","3UDTAB6HH6LRO17U79I9TKUGYFV09C","","956","img/flower2.png","75","958","2","1","2","1","1,0.333,0.333,0.333,1,0.333,0.333,0.333,1","1,0.333,0.333,0.333,1,0.333,0.333,0.333,1","1",""
"","html-keyboard-response","47","63189","0.0-47.0","3OS4RQUCRA13VIZBZDKSCG8Y0UBFB8","A1VBP1RMKGUXB","3UDTAB6HH6LRO17U79I9TKUGYFV09C","","null","<img src=""img/flower2.png"" style=""width:200px; border:14px solid green;"">","null","","","","","","","","",""
"","image-keyboard-response","48","63974","0.0-48.0","3OS4RQUCRA13VIZBZDKSCG8Y0UBFB8","A1VBP1RMKGUXB","3UDTAB6HH6LRO17U79I9TKUGYFV09C","","783","img/flower1.png","76","785","3","1","3","1","1,0.333,0.333,0.333,1,0.333,0.333,0.333,1","1,0.333,0.333,0.333,1,0.333,0.333,0.333,1","1",""
"","html-keyboard-response","49","64276","0.0-49.0","3OS4RQUCRA13VIZBZDKSCG8Y0UBFB8","A1VBP1RMKGUXB","3UDTAB6HH6LRO17U79I9TKUGYFV09C","","null","<img src=""img/flower1.png"" style=""width:200px; border:14px solid green;"">","null","","","","","","","","",""
"","image-keyboard-response","50","65274","0.0-50.0","3OS4RQUCRA13VIZBZDKSCG8Y0UBFB8","A1VBP1RMKGUXB","3UDTAB6HH6LRO17U79I9TKUGYFV09C","","995","img/flower6.png","74","997","1","1","1","1","1,0.333,0.333,0.333,1,0.333,0.333,0.333,1","1,0.333,0.333,0.333,1,0.333,0.333,0.333,1","1",""
"","html-keyboard-response","51","65576","0.0-51.0","3OS4RQUCRA13VIZBZDKSCG8Y0UBFB8","A1VBP1RMKGUXB","3UDTAB6HH6LRO17U79I9TKUGYFV09C","","null","<img src=""img/flower6.png"" style=""width:200px; border:14px solid green;"">","null","","","","","","","","",""
"","image-keyboard-response","52","66516","0.0-52.0","3OS4RQUCRA13VIZBZDKSCG8Y0UBFB8","A1VBP1RMKGUXB","3UDTAB6HH6LRO17U79I9TKUGYFV09C","","938","img/flower1.png","76","941","3","1","3","1","1,0.333,0.333,0.333,1,0.333,0.333,0.333,1","1,0.333,0.333,0.333,1,0.333,0.333,0.333,1","1",""
"","html-keyboard-response","53","66823","0.0-53.0","3OS4RQUCRA13VIZBZDKSCG8Y0UBFB8","A1VBP1RMKGUXB","3UDTAB6HH6LRO17U79I9TKUGYFV09C","","null","<img src=""img/flower1.png"" style=""width:200px; border:14px solid green;"">","null","","","","","","","","",""
"","image-keyboard-response","54","67723","0.0-54.0","3OS4RQUCRA13VIZBZDKSCG8Y0UBFB8","A1VBP1RMKGUXB","3UDTAB6HH6LRO17U79I9TKUGYFV09C","","898","img/flower2.png","75","900","2","1","2","1","1,0.333,0.333,0.333,1,0.333,0.333,0.333,1","1,0.333,0.333,0.333,1,0.333,0.333,0.333,1","1",""
"","html-keyboard-response","55","68028","0.0-55.0","3OS4RQUCRA13VIZBZDKSCG8Y0UBFB8","A1VBP1RMKGUXB","3UDTAB6HH6LRO17U79I9TKUGYFV09C","","null","<img src=""img/flower2.png"" style=""width:200px; border:14px solid green;"">","null","","","","","","","","",""
"","image-keyboard-response","56","69122","0.0-56.0","3OS4RQUCRA13VIZBZDKSCG8Y0UBFB8","A1VBP1RMKGUXB","3UDTAB6HH6LRO17U79I9TKUGYFV09C","","1093","img/flower1.png","76","1094","3","1","3","1","1,0.333,0.333,0.333,1,0.333,0.333,0.333,1","1,0.333,0.333,0.333,1,0.333,0.333,0.333,1","1",""
"","html-keyboard-response","57","69425","0.0-57.0","3OS4RQUCRA13VIZBZDKSCG8Y0UBFB8","A1VBP1RMKGUXB","3UDTAB6HH6LRO17U79I9TKUGYFV09C","","null","<img src=""img/flower1.png"" style=""width:200px; border:14px solid green;"">","null","","","","","","","","",""
"","image-keyboard-response","58","70378","0.0-58.0","3OS4RQUCRA13VIZBZDKSCG8Y0UBFB8","A1VBP1RMKGUXB","3UDTAB6HH6LRO17U79I9TKUGYFV09C","","952","img/flower6.png","74","953","1","1","1","1","1,0.333,0.333,0.333,1,0.333,0.333,0.333,1","1,0.333,0.333,0.333,1,0.333,0.333,0.333,1","1",""
"","html-keyboard-response","59","70680","0.0-59.0","3OS4RQUCRA13VIZBZDKSCG8Y0UBFB8","A1VBP1RMKGUXB","3UDTAB6HH6LRO17U79I9TKUGYFV09C","","null","<img src=""img/flower6.png"" style=""width:200px; border:14px solid green;"">","null","","","","","","","","",""
"","image-keyboard-response","60","71496","0.0-60.0","3OS4RQUCRA13VIZBZDKSCG8Y0UBFB8","A1VBP1RMKGUXB","3UDTAB6HH6LRO17U79I9TKUGYFV09C","","812","img/flower6.png","74","814","1","1","1","1","1,0.333,0.333,0.333,1,0.333,0.333,0.333,1","1,0.333,0.333,0.333,1,0.333,0.333,0.333,1","1",""
"","html-keyboard-response","61","71797","0.0-61.0","3OS4RQUCRA13VIZBZDKSCG8Y0UBFB8","A1VBP1RMKGUXB","3UDTAB6HH6LRO17U79I9TKUGYFV09C","","null","<img src=""img/flower6.png"" style=""width:200px; border:14px solid green;"">","null","","","","","","","","",""
"","image-keyboard-response","62","72434","0.0-62.0","3OS4RQUCRA13VIZBZDKSCG8Y0UBFB8","A1VBP1RMKGUXB","3UDTAB6HH6LRO17U79I9TKUGYFV09C","","635","img/flower6.png","74","636","1","1","1","1","1,0.333,0.333,0.333,1,0.333,0.333,0.333,1","1,0.333,0.333,0.333,1,0.333,0.333,0.333,1","1",""
"","html-keyboard-response","63","72736","0.0-63.0","3OS4RQUCRA13VIZBZDKSCG8Y0UBFB8","A1VBP1RMKGUXB","3UDTAB6HH6LRO17U79I9TKUGYFV09C","","null","<img src=""img/flower6.png"" style=""width:200px; border:14px solid green;"">","null","","","","","","","","",""
"","image-keyboard-response","64","73546","0.0-64.0","3OS4RQUCRA13VIZBZDKSCG8Y0UBFB8","A1VBP1RMKGUXB","3UDTAB6HH6LRO17U79I9TKUGYFV09C","","804","img/flower2.png","75","810","2","1","2","1","1,0.333,0.333,0.333,1,0.333,0.333,0.333,1","1,0.333,0.333,0.333,1,0.333,0.333,0.333,1","1",""
"","html-keyboard-response","65","73859","0.0-65.0","3OS4RQUCRA13VIZBZDKSCG8Y0UBFB8","A1VBP1RMKGUXB","3UDTAB6HH6LRO17U79I9TKUGYFV09C","","null","<img src=""img/flower2.png"" style=""width:200px; border:14px solid green;"">","null","","","","","","","","",""
"","image-keyboard-response","66","74530","0.0-66.0","3OS4RQUCRA13VIZBZDKSCG8Y0UBFB8","A1VBP1RMKGUXB","3UDTAB6HH6LRO17U79I9TKUGYFV09C","","669","img/flower2.png","75","670","2","1","2","1","1,0.333,0.333,0.333,1,0.333,0.333,0.333,1","1,0.333,0.333,0.333,1,0.333,0.333,0.333,1","1",""
"","html-keyboard-response","67","74834","0.0-67.0","3OS4RQUCRA13VIZBZDKSCG8Y0UBFB8","A1VBP1RMKGUXB","3UDTAB6HH6LRO17U79I9TKUGYFV09C","","null","<img src=""img/flower2.png"" style=""width:200px; border:14px solid green;"">","null","","","","","","","","",""
"","image-keyboard-response","68","75745","0.0-68.0","3OS4RQUCRA13VIZBZDKSCG8Y0UBFB8","A1VBP1RMKGUXB","3UDTAB6HH6LRO17U79I9TKUGYFV09C","","908","img/flower1.png","76","910","3","1","3","1","1,0.333,0.333,0.333,1,0.333,0.333,0.333,1","1,0.333,0.333,0.333,1,0.333,0.333,0.333,1","1",""
"","html-keyboard-response","69","76046","0.0-69.0","3OS4RQUCRA13VIZBZDKSCG8Y0UBFB8","A1VBP1RMKGUXB","3UDTAB6HH6LRO17U79I9TKUGYFV09C","","null","<img src=""img/flower1.png"" style=""width:200px; border:14px solid green;"">","null","","","","","","","","",""
"","image-keyboard-response","70","76783","0.0-70.0","3OS4RQUCRA13VIZBZDKSCG8Y0UBFB8","A1VBP1RMKGUXB","3UDTAB6HH6LRO17U79I9TKUGYFV09C","","734","img/flower1.png","76","736","3","1","3","1","1,0.333,0.333,0.333,1,0.333,0.333,0.333,1","1,0.333,0.333,0.333,1,0.333,0.333,0.333,1","1",""
"","html-keyboard-response","71","77085","0.0-71.0","3OS4RQUCRA13VIZBZDKSCG8Y0UBFB8","A1VBP1RMKGUXB","3UDTAB6HH6LRO17U79I9TKUGYFV09C","","null","<img src=""img/flower1.png"" style=""width:200px; border:14px solid green;"">","null","","","","","","","","",""
"","image-keyboard-response","72","78035","0.0-72.0","3OS4RQUCRA13VIZBZDKSCG8Y0UBFB8","A1VBP1RMKGUXB","3UDTAB6HH6LRO17U79I9TKUGYFV09C","","948","img/flower6.png","74","949","1","1","1","1","1,0.333,0.333,0.333,1,0.333,0.333,0.333,1","1,0.333,0.333,0.333,1,0.333,0.333,0.333,1","1",""
"","html-keyboard-response","73","78338","0.0-73.0","3OS4RQUCRA13VIZBZDKSCG8Y0UBFB8","A1VBP1RMKGUXB","3UDTAB6HH6LRO17U79I9TKUGYFV09C","","null","<img src=""img/flower6.png"" style=""width:200px; border:14px solid green;"">","null","","","","","","","","",""
"","image-keyboard-response","74","79266","0.0-74.0","3OS4RQUCRA13VIZBZDKSCG8Y0UBFB8","A1VBP1RMKGUXB","3UDTAB6HH6LRO17U79I9TKUGYFV09C","","926","img/flower2.png","75","927","2","1","2","1","1,0.333,0.333,0.333,1,0.333,0.333,0.333,1","1,0.333,0.333,0.333,1,0.333,0.333,0.333,1","1",""
"","html-keyboard-response","75","79568","0.0-75.0","3OS4RQUCRA13VIZBZDKSCG8Y0UBFB8","A1VBP1RMKGUXB","3UDTAB6HH6LRO17U79I9TKUGYFV09C","","null","<img src=""img/flower2.png"" style=""width:200px; border:14px solid green;"">","null","","","","","","","","",""
"","image-keyboard-response","76","80318","0.0-76.0","3OS4RQUCRA13VIZBZDKSCG8Y0UBFB8","A1VBP1RMKGUXB","3UDTAB6HH6LRO17U79I9TKUGYFV09C","","747","img/flower2.png","75","749","2","1","2","1","1,0.333,0.333,0.333,1,0.333,0.333,0.333,1","1,0.333,0.333,0.333,1,0.333,0.333,0.333,1","1",""
"","html-keyboard-response","77","80623","0.0-77.0","3OS4RQUCRA13VIZBZDKSCG8Y0UBFB8","A1VBP1RMKGUXB","3UDTAB6HH6LRO17U79I9TKUGYFV09C","","null","<img src=""img/flower2.png"" style=""width:200px; border:14px solid green;"">","null","","","","","","","","",""
"","image-keyboard-response","78","81264","0.0-78.0","3OS4RQUCRA13VIZBZDKSCG8Y0UBFB8","A1VBP1RMKGUXB","3UDTAB6HH6LRO17U79I9TKUGYFV09C","","639","img/flower2.png","75","640","2","1","2","1","1,0.333,0.333,0.333,1,0.333,0.333,0.333,1","1,0.333,0.333,0.333,1,0.333,0.333,0.333,1","1",""
"","html-keyboard-response","79","81566","0.0-79.0","3OS4RQUCRA13VIZBZDKSCG8Y0UBFB8","A1VBP1RMKGUXB","3UDTAB6HH6LRO17U79I9TKUGYFV09C","","null","<img src=""img/flower2.png"" style=""width:200px; border:14px solid green;"">","null","","","","","","","","",""
"","image-keyboard-response","80","82176","0.0-80.0","3OS4RQUCRA13VIZBZDKSCG8Y0UBFB8","A1VBP1RMKGUXB","3UDTAB6HH6LRO17U79I9TKUGYFV09C","","608","img/flower2.png","75","609","2","1","2","1","1,0.333,0.333,0.333,1,0.333,0.333,0.333,1","1,0.333,0.333,0.333,1,0.333,0.333,0.333,1","1",""
"","html-keyboard-response","81","82481","0.0-81.0","3OS4RQUCRA13VIZBZDKSCG8Y0UBFB8","A1VBP1RMKGUXB","3UDTAB6HH6LRO17U79I9TKUGYFV09C","","null","<img src=""img/flower2.png"" style=""width:200px; border:14px solid green;"">","null","","","","","","","","",""
"","image-keyboard-response","82","83115","0.0-82.0","3OS4RQUCRA13VIZBZDKSCG8Y0UBFB8","A1VBP1RMKGUXB","3UDTAB6HH6LRO17U79I9TKUGYFV09C","","631","img/flower2.png","75","633","2","1","2","1","1,0.333,0.333,0.333,1,0.333,0.333,0.333,1","1,0.333,0.333,0.333,1,0.333,0.333,0.333,1","1",""
"","html-keyboard-response","83","83417","0.0-83.0","3OS4RQUCRA13VIZBZDKSCG8Y0UBFB8","A1VBP1RMKGUXB","3UDTAB6HH6LRO17U79I9TKUGYFV09C","","null","<img src=""img/flower2.png"" style=""width:200px; border:14px solid green;"">","null","","","","","","","","",""
"","image-keyboard-response","84","84186","0.0-84.0","3OS4RQUCRA13VIZBZDKSCG8Y0UBFB8","A1VBP1RMKGUXB","3UDTAB6HH6LRO17U79I9TKUGYFV09C","","767","img/flower1.png","76","768","3","1","3","1","1,0.333,0.333,0.333,1,0.333,0.333,0.333,1","1,0.333,0.333,0.333,1,0.333,0.333,0.333,1","1",""
"","html-keyboard-response","85","84489","0.0-85.0","3OS4RQUCRA13VIZBZDKSCG8Y0UBFB8","A1VBP1RMKGUXB","3UDTAB6HH6LRO17U79I9TKUGYFV09C","","null","<img src=""img/flower1.png"" style=""width:200px; border:14px solid green;"">","null","","","","","","","","",""
"","image-keyboard-response","86","85344","0.0-86.0","3OS4RQUCRA13VIZBZDKSCG8Y0UBFB8","A1VBP1RMKGUXB","3UDTAB6HH6LRO17U79I9TKUGYFV09C","","853","img/flower2.png","75","854","2","1","2","1","1,0.333,0.333,0.333,1,0.333,0.333,0.333,1","1,0.333,0.333,0.333,1,0.333,0.333,0.333,1","1",""
"","html-keyboard-response","87","85647","0.0-87.0","3OS4RQUCRA13VIZBZDKSCG8Y0UBFB8","A1VBP1RMKGUXB","3UDTAB6HH6LRO17U79I9TKUGYFV09C","","null","<img src=""img/flower2.png"" style=""width:200px; border:14px solid green;"">","null","","","","","","","","",""
"","image-keyboard-response","88","86314","0.0-88.0","3OS4RQUCRA13VIZBZDKSCG8Y0UBFB8","A1VBP1RMKGUXB","3UDTAB6HH6LRO17U79I9TKUGYFV09C","","664","img/flower2.png","75","666","2","1","2","1","1,0.333,0.333,0.333,1,0.333,0.333,0.333,1","1,0.333,0.333,0.333,1,0.333,0.333,0.333,1","1",""
"","html-keyboard-response","89","86616","0.0-89.0","3OS4RQUCRA13VIZBZDKSCG8Y0UBFB8","A1VBP1RMKGUXB","3UDTAB6HH6LRO17U79I9TKUGYFV09C","","null","<img src=""img/flower2.png"" style=""width:200px; border:14px solid green;"">","null","","","","","","","","",""
"","image-keyboard-response","90","87195","0.0-90.0","3OS4RQUCRA13VIZBZDKSCG8Y0UBFB8","A1VBP1RMKGUXB","3UDTAB6HH6LRO17U79I9TKUGYFV09C","","578","img/flower6.png","75","579","2","0","1","1","1,0.333,0.333,0.333,1,0.333,0.333,0.333,1","1,0.333,0.333,0.333,1,0.333,0.333,0.333,1","1",""
"","html-keyboard-response","91","87498","0.0-91.0","3OS4RQUCRA13VIZBZDKSCG8Y0UBFB8","A1VBP1RMKGUXB","3UDTAB6HH6LRO17U79I9TKUGYFV09C","","null","<img src=""img/flower6.png"" style=""width:200px;border:14px solid red;"">","null","","","","","","","","",""
"","image-keyboard-response","92","88056","0.0-92.0","3OS4RQUCRA13VIZBZDKSCG8Y0UBFB8","A1VBP1RMKGUXB","3UDTAB6HH6LRO17U79I9TKUGYFV09C","","556","img/flower1.png","74","557","1","0","3","1","1,0.333,0.333,0.333,1,0.333,0.333,0.333,1","1,0.333,0.333,0.333,1,0.333,0.333,0.333,1","1",""
"","html-keyboard-response","93","88358","0.0-93.0","3OS4RQUCRA13VIZBZDKSCG8Y0UBFB8","A1VBP1RMKGUXB","3UDTAB6HH6LRO17U79I9TKUGYFV09C","","null","<img src=""img/flower1.png"" style=""width:200px;border:14px solid red;"">","null","","","","","","","","",""
"","image-keyboard-response","94","89034","0.0-94.0","3OS4RQUCRA13VIZBZDKSCG8Y0UBFB8","A1VBP1RMKGUXB","3UDTAB6HH6LRO17U79I9TKUGYFV09C","","673","img/flower6.png","76","676","3","0","1","1","1,0.333,0.333,0.333,1,0.333,0.333,0.333,1","1,0.333,0.333,0.333,1,0.333,0.333,0.333,1","1",""
"","html-keyboard-response","95","89336","0.0-95.0","3OS4RQUCRA13VIZBZDKSCG8Y0UBFB8","A1VBP1RMKGUXB","3UDTAB6HH6LRO17U79I9TKUGYFV09C","","null","<img src=""img/flower6.png"" style=""width:200px;border:14px solid red;"">","null","","","","","","","","",""
"","image-keyboard-response","96","90435","0.0-96.0","3OS4RQUCRA13VIZBZDKSCG8Y0UBFB8","A1VBP1RMKGUXB","3UDTAB6HH6LRO17U79I9TKUGYFV09C","","1097","img/flower2.png","75","1098","2","1","2","1","1,0.333,0.333,0.333,1,0.333,0.333,0.333,1","1,0.333,0.333,0.333,1,0.333,0.333,0.333,1","1",""
"","html-keyboard-response","97","90737","0.0-97.0","3OS4RQUCRA13VIZBZDKSCG8Y0UBFB8","A1VBP1RMKGUXB","3UDTAB6HH6LRO17U79I9TKUGYFV09C","","null","<img src=""img/flower2.png"" style=""width:200px; border:14px solid green;"">","null","","","","","","","","",""
"","image-keyboard-response","98","91623","0.0-98.0","3OS4RQUCRA13VIZBZDKSCG8Y0UBFB8","A1VBP1RMKGUXB","3UDTAB6HH6LRO17U79I9TKUGYFV09C","","883","img/flower6.png","74","884","1","1","1","1","1,0.333,0.333,0.333,1,0.333,0.333,0.333,1","1,0.333,0.333,0.333,1,0.333,0.333,0.333,1","1",""
"","html-keyboard-response","99","91924","0.0-99.0","3OS4RQUCRA13VIZBZDKSCG8Y0UBFB8","A1VBP1RMKGUXB","3UDTAB6HH6LRO17U79I9TKUGYFV09C","","null","<img src=""img/flower6.png"" style=""width:200px; border:14px solid green;"">","null","","","","","","","","",""
"","image-keyboard-response","100","92881","0.0-100.0","3OS4RQUCRA13VIZBZDKSCG8Y0UBFB8","A1VBP1RMKGUXB","3UDTAB6HH6LRO17U79I9TKUGYFV09C","","956","img/flower2.png","75","957","2","1","2","1","1,0.333,0.333,0.333,1,0.333,0.333,0.333,1","1,0.333,0.333,0.333,1,0.333,0.333,0.333,1","1",""
"","html-keyboard-response","101","93183","0.0-101.0","3OS4RQUCRA13VIZBZDKSCG8Y0UBFB8","A1VBP1RMKGUXB","3UDTAB6HH6LRO17U79I9TKUGYFV09C","","null","<img src=""img/flower2.png"" style=""width:200px; border:14px solid green;"">","null","","","","","","","","",""
"","image-keyboard-response","102","94115","0.0-102.0","3OS4RQUCRA13VIZBZDKSCG8Y0UBFB8","A1VBP1RMKGUXB","3UDTAB6HH6LRO17U79I9TKUGYFV09C","","930","img/flower6.png","74","931","1","1","1","1","1,0.333,0.333,0.333,1,0.333,0.333,0.333,1","1,0.333,0.333,0.333,1,0.333,0.333,0.333,1","1",""
"","html-keyboard-response","103","94416","0.0-103.0","3OS4RQUCRA13VIZBZDKSCG8Y0UBFB8","A1VBP1RMKGUXB","3UDTAB6HH6LRO17U79I9TKUGYFV09C","","null","<img src=""img/flower6.png"" style=""width:200px; border:14px solid green;"">","null","","","","","","","","",""
"","image-keyboard-response","104","95143","0.0-104.0","3OS4RQUCRA13VIZBZDKSCG8Y0UBFB8","A1VBP1RMKGUXB","3UDTAB6HH6LRO17U79I9TKUGYFV09C","","725","img/flower6.png","74","726","1","1","1","1","1,0.333,0.333,0.333,1,0.333,0.333,0.333,1","1,0.333,0.333,0.333,1,0.333,0.333,0.333,1","1",""
"","html-keyboard-response","105","95444","0.0-105.0","3OS4RQUCRA13VIZBZDKSCG8Y0UBFB8","A1VBP1RMKGUXB","3UDTAB6HH6LRO17U79I9TKUGYFV09C","","null","<img src=""img/flower6.png"" style=""width:200px; border:14px solid green;"">","null","","","","","","","","",""
"","image-keyboard-response","106","96313","0.0-106.0","3OS4RQUCRA13VIZBZDKSCG8Y0UBFB8","A1VBP1RMKGUXB","3UDTAB6HH6LRO17U79I9TKUGYFV09C","","865","img/flower2.png","75","867","2","1","2","1","1,0.333,0.333,0.333,1,0.333,0.333,0.333,1","1,0.333,0.333,0.333,1,0.333,0.333,0.333,1","1",""
"","html-keyboard-response","107","96616","0.0-107.0","3OS4RQUCRA13VIZBZDKSCG8Y0UBFB8","A1VBP1RMKGUXB","3UDTAB6HH6LRO17U79I9TKUGYFV09C","","null","<img src=""img/flower2.png"" style=""width:200px; border:14px solid green;"">","null","","","","","","","","",""
"","image-keyboard-response","108","97397","0.0-108.0","3OS4RQUCRA13VIZBZDKSCG8Y0UBFB8","A1VBP1RMKGUXB","3UDTAB6HH6LRO17U79I9TKUGYFV09C","","779","img/flower1.png","74","780","1","0","3","1","1,0.333,0.333,0.333,1,0.333,0.333,0.333,1","1,0.333,0.333,0.333,1,0.333,0.333,0.333,1","1",""
"","html-keyboard-response","109","97703","0.0-109.0","3OS4RQUCRA13VIZBZDKSCG8Y0UBFB8","A1VBP1RMKGUXB","3UDTAB6HH6LRO17U79I9TKUGYFV09C","","null","<img src=""img/flower1.png"" style=""width:200px;border:14px solid red;"">","null","","","","","","","","",""
"","image-keyboard-response","110","98358","0.0-110.0","3OS4RQUCRA13VIZBZDKSCG8Y0UBFB8","A1VBP1RMKGUXB","3UDTAB6HH6LRO17U79I9TKUGYFV09C","","652","img/flower1.png","76","653","3","1","3","1","1,0.333,0.333,0.333,1,0.333,0.333,0.333,1","1,0.333,0.333,0.333,1,0.333,0.333,0.333,1","1",""
"","html-keyboard-response","111","98659","0.0-111.0","3OS4RQUCRA13VIZBZDKSCG8Y0UBFB8","A1VBP1RMKGUXB","3UDTAB6HH6LRO17U79I9TKUGYFV09C","","null","<img src=""img/flower1.png"" style=""width:200px; border:14px solid green;"">","null","","","","","","","","",""
"","image-keyboard-response","112","99265","0.0-112.0","3OS4RQUCRA13VIZBZDKSCG8Y0UBFB8","A1VBP1RMKGUXB","3UDTAB6HH6LRO17U79I9TKUGYFV09C","","605","img/flower1.png","76","606","3","1","3","1","1,0.333,0.333,0.333,1,0.333,0.333,0.333,1","1,0.333,0.333,0.333,1,0.333,0.333,0.333,1","1",""
"","html-keyboard-response","113","99568","0.0-113.0","3OS4RQUCRA13VIZBZDKSCG8Y0UBFB8","A1VBP1RMKGUXB","3UDTAB6HH6LRO17U79I9TKUGYFV09C","","null","<img src=""img/flower1.png"" style=""width:200px; border:14px solid green;"">","null","","","","","","","","",""
"","image-keyboard-response","114","100561","0.0-114.0","3OS4RQUCRA13VIZBZDKSCG8Y0UBFB8","A1VBP1RMKGUXB","3UDTAB6HH6LRO17U79I9TKUGYFV09C","","990","img/flower6.png","74","992","1","1","1","1","1,0.333,0.333,0.333,1,0.333,0.333,0.333,1","1,0.333,0.333,0.333,1,0.333,0.333,0.333,1","1",""
"","html-keyboard-response","115","100863","0.0-115.0","3OS4RQUCRA13VIZBZDKSCG8Y0UBFB8","A1VBP1RMKGUXB","3UDTAB6HH6LRO17U79I9TKUGYFV09C","","null","<img src=""img/flower6.png"" style=""width:200px; border:14px solid green;"">","null","","","","","","","","",""
"","image-keyboard-response","116","101642","0.0-116.0","3OS4RQUCRA13VIZBZDKSCG8Y0UBFB8","A1VBP1RMKGUXB","3UDTAB6HH6LRO17U79I9TKUGYFV09C","","776","img/flower2.png","75","778","2","1","2","1","1,0.333,0.333,0.333,1,0.333,0.333,0.333,1","1,0.333,0.333,0.333,1,0.333,0.333,0.333,1","1",""
"","html-keyboard-response","117","101944","0.0-117.0","3OS4RQUCRA13VIZBZDKSCG8Y0UBFB8","A1VBP1RMKGUXB","3UDTAB6HH6LRO17U79I9TKUGYFV09C","","null","<img src=""img/flower2.png"" style=""width:200px; border:14px solid green;"">","null","","","","","","","","",""
"","image-keyboard-response","118","102708","0.0-118.0","3OS4RQUCRA13VIZBZDKSCG8Y0UBFB8","A1VBP1RMKGUXB","3UDTAB6HH6LRO17U79I9TKUGYFV09C","","762","img/flower2.png","75","765","2","1","2","1","1,0.333,0.333,0.333,1,0.333,0.333,0.333,1","1,0.333,0.333,0.333,1,0.333,0.333,0.333,1","1",""
"","html-keyboard-response","119","103044","0.0-119.0","3OS4RQUCRA13VIZBZDKSCG8Y0UBFB8","A1VBP1RMKGUXB","3UDTAB6HH6LRO17U79I9TKUGYFV09C","","null","<img src=""img/flower2.png"" style=""width:200px; border:14px solid green;"">","null","","","","","","","","",""
"","image-keyboard-response","120","103945","0.0-120.0","3OS4RQUCRA13VIZBZDKSCG8Y0UBFB8","A1VBP1RMKGUXB","3UDTAB6HH6LRO17U79I9TKUGYFV09C","","898","img/flower1.png","76","900","3","1","3","1","1,0.333,0.333,0.333,1,0.333,0.333,0.333,1","1,0.333,0.333,0.333,1,0.333,0.333,0.333,1","1",""
"","html-keyboard-response","121","104247","0.0-121.0","3OS4RQUCRA13VIZBZDKSCG8Y0UBFB8","A1VBP1RMKGUXB","3UDTAB6HH6LRO17U79I9TKUGYFV09C","","null","<img src=""img/flower1.png"" style=""width:200px; border:14px solid green;"">","null","","","","","","","","",""
"","image-keyboard-response","122","104993","0.0-122.0","3OS4RQUCRA13VIZBZDKSCG8Y0UBFB8","A1VBP1RMKGUXB","3UDTAB6HH6LRO17U79I9TKUGYFV09C","","744","img/flower6.png","74","746","1","1","1","1","1,0.333,0.333,0.333,1,0.333,0.333,0.333,1","1,0.333,0.333,0.333,1,0.333,0.333,0.333,1","1",""
"","html-keyboard-response","123","105296","0.0-123.0","3OS4RQUCRA13VIZBZDKSCG8Y0UBFB8","A1VBP1RMKGUXB","3UDTAB6HH6LRO17U79I9TKUGYFV09C","","null","<img src=""img/flower6.png"" style=""width:200px; border:14px solid green;"">","null","","","","","","","","",""
"","image-keyboard-response","124","106179","0.0-124.0","3OS4RQUCRA13VIZBZDKSCG8Y0UBFB8","A1VBP1RMKGUXB","3UDTAB6HH6LRO17U79I9TKUGYFV09C","","881","img/flower2.png","75","882","2","1","2","1","1,0.333,0.333,0.333,1,0.333,0.333,0.333,1","1,0.333,0.333,0.333,1,0.333,0.333,0.333,1","1",""
"","html-keyboard-response","125","106480","0.0-125.0","3OS4RQUCRA13VIZBZDKSCG8Y0UBFB8","A1VBP1RMKGUXB","3UDTAB6HH6LRO17U79I9TKUGYFV09C","","null","<img src=""img/flower2.png"" style=""width:200px; border:14px solid green;"">","null","","","","","","","","",""
"","image-keyboard-response","126","107488","0.0-126.0","3OS4RQUCRA13VIZBZDKSCG8Y0UBFB8","A1VBP1RMKGUXB","3UDTAB6HH6LRO17U79I9TKUGYFV09C","","1005","img/flower1.png","76","1006","3","1","3","1","1,0.333,0.333,0.333,1,0.333,0.333,0.333,1","1,0.333,0.333,0.333,1,0.333,0.333,0.333,1","1",""
"","html-keyboard-response","127","107792","0.0-127.0","3OS4RQUCRA13VIZBZDKSCG8Y0UBFB8","A1VBP1RMKGUXB","3UDTAB6HH6LRO17U79I9TKUGYFV09C","","null","<img src=""img/flower1.png"" style=""width:200px; border:14px solid green;"">","null","","","","","","","","",""
"","image-keyboard-response","128","108905","0.0-128.0","3OS4RQUCRA13VIZBZDKSCG8Y0UBFB8","A1VBP1RMKGUXB","3UDTAB6HH6LRO17U79I9TKUGYFV09C","","1112","img/flower6.png","74","1113","1","1","1","1","1,0.333,0.333,0.333,1,0.333,0.333,0.333,1","1,0.333,0.333,0.333,1,0.333,0.333,0.333,1","1",""
"","html-keyboard-response","129","109207","0.0-129.0","3OS4RQUCRA13VIZBZDKSCG8Y0UBFB8","A1VBP1RMKGUXB","3UDTAB6HH6LRO17U79I9TKUGYFV09C","","null","<img src=""img/flower6.png"" style=""width:200px; border:14px solid green;"">","null","","","","","","","","",""
"","image-keyboard-response","130","109996","0.0-130.0","3OS4RQUCRA13VIZBZDKSCG8Y0UBFB8","A1VBP1RMKGUXB","3UDTAB6HH6LRO17U79I9TKUGYFV09C","","788","img/flower1.png","74","789","1","0","3","1","1,0.333,0.333,0.333,1,0.333,0.333,0.333,1","1,0.333,0.333,0.333,1,0.333,0.333,0.333,1","1",""
"","html-keyboard-response","131","110299","0.0-131.0","3OS4RQUCRA13VIZBZDKSCG8Y0UBFB8","A1VBP1RMKGUXB","3UDTAB6HH6LRO17U79I9TKUGYFV09C","","null","<img src=""img/flower1.png"" style=""width:200px;border:14px solid red;"">","null","","","","","","","","",""
"","image-keyboard-response","132","111080","0.0-132.0","3OS4RQUCRA13VIZBZDKSCG8Y0UBFB8","A1VBP1RMKGUXB","3UDTAB6HH6LRO17U79I9TKUGYFV09C","","780","img/flower1.png","76","780","3","1","3","1","1,0.333,0.333,0.333,1,0.333,0.333,0.333,1","1,0.333,0.333,0.333,1,0.333,0.333,0.333,1","1",""
"","html-keyboard-response","133","111381","0.0-133.0","3OS4RQUCRA13VIZBZDKSCG8Y0UBFB8","A1VBP1RMKGUXB","3UDTAB6HH6LRO17U79I9TKUGYFV09C","","null","<img src=""img/flower1.png"" style=""width:200px; border:14px solid green;"">","null","","","","","","","","",""
"","image-keyboard-response","134","112325","0.0-134.0","3OS4RQUCRA13VIZBZDKSCG8Y0UBFB8","A1VBP1RMKGUXB","3UDTAB6HH6LRO17U79I9TKUGYFV09C","","942","img/flower6.png","74","944","1","1","1","1","1,0.333,0.333,0.333,1,0.333,0.333,0.333,1","1,0.333,0.333,0.333,1,0.333,0.333,0.333,1","1",""
"","html-keyboard-response","135","112627","0.0-135.0","3OS4RQUCRA13VIZBZDKSCG8Y0UBFB8","A1VBP1RMKGUXB","3UDTAB6HH6LRO17U79I9TKUGYFV09C","","null","<img src=""img/flower6.png"" style=""width:200px; border:14px solid green;"">","null","","","","","","","","",""
"","image-keyboard-response","136","113357","0.0-136.0","3OS4RQUCRA13VIZBZDKSCG8Y0UBFB8","A1VBP1RMKGUXB","3UDTAB6HH6LRO17U79I9TKUGYFV09C","","727","img/flower6.png","74","729","1","1","1","1","1,0.333,0.333,0.333,1,0.333,0.333,0.333,1","1,0.333,0.333,0.333,1,0.333,0.333,0.333,1","1",""
"","html-keyboard-response","137","113659","0.0-137.0","3OS4RQUCRA13VIZBZDKSCG8Y0UBFB8","A1VBP1RMKGUXB","3UDTAB6HH6LRO17U79I9TKUGYFV09C","","null","<img src=""img/flower6.png"" style=""width:200px; border:14px solid green;"">","null","","","","","","","","",""
"","image-keyboard-response","138","114396","0.0-138.0","3OS4RQUCRA13VIZBZDKSCG8Y0UBFB8","A1VBP1RMKGUXB","3UDTAB6HH6LRO17U79I9TKUGYFV09C","","735","img/flower6.png","74","736","1","1","1","1","1,0.333,0.333,0.333,1,0.333,0.333,0.333,1","1,0.333,0.333,0.333,1,0.333,0.333,0.333,1","1",""
"","html-keyboard-response","139","114698","0.0-139.0","3OS4RQUCRA13VIZBZDKSCG8Y0UBFB8","A1VBP1RMKGUXB","3UDTAB6HH6LRO17U79I9TKUGYFV09C","","null","<img src=""img/flower6.png"" style=""width:200px; border:14px solid green;"">","null","","","","","","","","",""
"","image-keyboard-response","140","115423","0.0-140.0","3OS4RQUCRA13VIZBZDKSCG8Y0UBFB8","A1VBP1RMKGUXB","3UDTAB6HH6LRO17U79I9TKUGYFV09C","","724","img/flower1.png","76","725","3","1","3","1","1,0.333,0.333,0.333,1,0.333,0.333,0.333,1","1,0.333,0.333,0.333,1,0.333,0.333,0.333,1","1",""
"","html-keyboard-response","141","115724","0.0-141.0","3OS4RQUCRA13VIZBZDKSCG8Y0UBFB8","A1VBP1RMKGUXB","3UDTAB6HH6LRO17U79I9TKUGYFV09C","","null","<img src=""img/flower1.png"" style=""width:200px; border:14px solid green;"">","null","","","","","","","","",""
"","image-keyboard-response","142","116525","0.0-142.0","3OS4RQUCRA13VIZBZDKSCG8Y0UBFB8","A1VBP1RMKGUXB","3UDTAB6HH6LRO17U79I9TKUGYFV09C","","800","img/flower2.png","74","802","1","0","2","1","1,0.333,0.333,0.333,1,0.333,0.333,0.333,1","1,0.333,0.333,0.333,1,0.333,0.333,0.333,1","1",""
"","html-keyboard-response","143","116829","0.0-143.0","3OS4RQUCRA13VIZBZDKSCG8Y0UBFB8","A1VBP1RMKGUXB","3UDTAB6HH6LRO17U79I9TKUGYFV09C","","null","<img src=""img/flower2.png"" style=""width:200px;border:14px solid red;"">","null","","","","","","","","",""
"","image-keyboard-response","144","117455","0.0-144.0","3OS4RQUCRA13VIZBZDKSCG8Y0UBFB8","A1VBP1RMKGUXB","3UDTAB6HH6LRO17U79I9TKUGYFV09C","","621","img/flower1.png","75","624","2","0","3","1","1,0.333,0.333,0.333,1,0.333,0.333,0.333,1","1,0.333,0.333,0.333,1,0.333,0.333,0.333,1","1",""
"","html-keyboard-response","145","117756","0.0-145.0","3OS4RQUCRA13VIZBZDKSCG8Y0UBFB8","A1VBP1RMKGUXB","3UDTAB6HH6LRO17U79I9TKUGYFV09C","","null","<img src=""img/flower1.png"" style=""width:200px;border:14px solid red;"">","null","","","","","","","","",""
"","image-keyboard-response","146","118499","0.0-146.0","3OS4RQUCRA13VIZBZDKSCG8Y0UBFB8","A1VBP1RMKGUXB","3UDTAB6HH6LRO17U79I9TKUGYFV09C","","740","img/flower2.png","76","742","3","1","2","1","1,0.333,0.333,0.333,1,0.333,0.333,0.333,1","1,0.333,0.333,0.333,1,0.333,0.333,0.333,1","1",""
"","html-keyboard-response","147","118801","0.0-147.0","3OS4RQUCRA13VIZBZDKSCG8Y0UBFB8","A1VBP1RMKGUXB","3UDTAB6HH6LRO17U79I9TKUGYFV09C","","null","<img src=""img/flower2.png"" style=""width:200px; border:14px solid green;"">","null","","","","","","","","",""
"","image-keyboard-response","148","119845","0.0-148.0","3OS4RQUCRA13VIZBZDKSCG8Y0UBFB8","A1VBP1RMKGUXB","3UDTAB6HH6LRO17U79I9TKUGYFV09C","","1042","img/flower6.png","74","1043","1","1","1","1","1,0.333,0.333,0.333,1,0.333,0.333,0.333,1","1,0.333,0.333,0.333,1,0.333,0.333,0.333,1","1",""
"","html-keyboard-response","149","120148","0.0-149.0","3OS4RQUCRA13VIZBZDKSCG8Y0UBFB8","A1VBP1RMKGUXB","3UDTAB6HH6LRO17U79I9TKUGYFV09C","","null","<img src=""img/flower6.png"" style=""width:200px; border:14px solid green;"">","null","","","","","","","","",""
"","image-keyboard-response","150","121055","0.0-150.0","3OS4RQUCRA13VIZBZDKSCG8Y0UBFB8","A1VBP1RMKGUXB","3UDTAB6HH6LRO17U79I9TKUGYFV09C","","906","img/flower2.png","75","907","2","1","2","1","1,0.333,0.333,0.333,1,0.333,0.333,0.333,1","1,0.333,0.333,0.333,1,0.333,0.333,0.333,1","1",""
"","html-keyboard-response","151","121359","0.0-151.0","3OS4RQUCRA13VIZBZDKSCG8Y0UBFB8","A1VBP1RMKGUXB","3UDTAB6HH6LRO17U79I9TKUGYFV09C","","null","<img src=""img/flower2.png"" style=""width:200px; border:14px solid green;"">","null","","","","","","","","",""
"","image-keyboard-response","152","123364","0.0-152.0","3OS4RQUCRA13VIZBZDKSCG8Y0UBFB8","A1VBP1RMKGUXB","3UDTAB6HH6LRO17U79I9TKUGYFV09C","","","img/flower6.png","","2004","-1","0","1","1","1,0.333,0.333,0.333,1,0.333,0.333,0.333,1","1,0.333,0.333,0.333,1,0.333,0.333,0.333,1","1",""
"","html-keyboard-response","153","123665","0.0-153.0","3OS4RQUCRA13VIZBZDKSCG8Y0UBFB8","A1VBP1RMKGUXB","3UDTAB6HH6LRO17U79I9TKUGYFV09C","","null","<img src=""img/flower6.png"" style=""width:200px;border:14px solid red;"">","null","","","","","","","","",""
"","image-keyboard-response","154","125168","0.0-154.0","3OS4RQUCRA13VIZBZDKSCG8Y0UBFB8","A1VBP1RMKGUXB","3UDTAB6HH6LRO17U79I9TKUGYFV09C","","1501","img/flower6.png","76","1502","3","1","1","1","1,0.333,0.333,0.333,1,0.333,0.333,0.333,1","1,0.333,0.333,0.333,1,0.333,0.333,0.333,1","1",""
"","html-keyboard-response","155","125470","0.0-155.0","3OS4RQUCRA13VIZBZDKSCG8Y0UBFB8","A1VBP1RMKGUXB","3UDTAB6HH6LRO17U79I9TKUGYFV09C","","null","<img src=""img/flower6.png"" style=""width:200px; border:14px solid green;"">","null","","","","","","","","",""
"","image-keyboard-response","156","125676","0.0-156.0","3OS4RQUCRA13VIZBZDKSCG8Y0UBFB8","A1VBP1RMKGUXB","3UDTAB6HH6LRO17U79I9TKUGYFV09C","","203","img/flower1.png","74","205","1","0","3","1","1,0.333,0.333,0.333,1,0.333,0.333,0.333,1","1,0.333,0.333,0.333,1,0.333,0.333,0.333,1","1",""
"","html-keyboard-response","157","125977","0.0-157.0","3OS4RQUCRA13VIZBZDKSCG8Y0UBFB8","A1VBP1RMKGUXB","3UDTAB6HH6LRO17U79I9TKUGYFV09C","","null","<img src=""img/flower1.png"" style=""width:200px;border:14px solid red;"">","null","","","","","","","","",""
"","image-keyboard-response","158","126993","0.0-158.0","3OS4RQUCRA13VIZBZDKSCG8Y0UBFB8","A1VBP1RMKGUXB","3UDTAB6HH6LRO17U79I9TKUGYFV09C","","1013","img/flower1.png","76","1014","3","1","3","1","1,0.333,0.333,0.333,1,0.333,0.333,0.333,1","1,0.333,0.333,0.333,1,0.333,0.333,0.333,1","1",""
"","html-keyboard-response","159","127295","0.0-159.0","3OS4RQUCRA13VIZBZDKSCG8Y0UBFB8","A1VBP1RMKGUXB","3UDTAB6HH6LRO17U79I9TKUGYFV09C","","null","<img src=""img/flower1.png"" style=""width:200px; border:14px solid green;"">","null","","","","","","","","",""
"","image-keyboard-response","160","128315","0.0-160.0","3OS4RQUCRA13VIZBZDKSCG8Y0UBFB8","A1VBP1RMKGUXB","3UDTAB6HH6LRO17U79I9TKUGYFV09C","","1017","img/flower2.png","75","1019","2","1","2","1","1,0.333,0.333,0.333,1,0.333,0.333,0.333,1","1,0.333,0.333,0.333,1,0.333,0.333,0.333,1","1",""
"","html-keyboard-response","161","128617","0.0-161.0","3OS4RQUCRA13VIZBZDKSCG8Y0UBFB8","A1VBP1RMKGUXB","3UDTAB6HH6LRO17U79I9TKUGYFV09C","","null","<img src=""img/flower2.png"" style=""width:200px; border:14px solid green;"">","null","","","","","","","","",""
"","image-keyboard-response","162","129503","0.0-162.0","3OS4RQUCRA13VIZBZDKSCG8Y0UBFB8","A1VBP1RMKGUXB","3UDTAB6HH6LRO17U79I9TKUGYFV09C","","885","img/flower6.png","74","885","1","1","1","1","1,0.333,0.333,0.333,1,0.333,0.333,0.333,1","1,0.333,0.333,0.333,1,0.333,0.333,0.333,1","1",""
"","html-keyboard-response","163","129808","0.0-163.0","3OS4RQUCRA13VIZBZDKSCG8Y0UBFB8","A1VBP1RMKGUXB","3UDTAB6HH6LRO17U79I9TKUGYFV09C","","null","<img src=""img/flower6.png"" style=""width:200px; border:14px solid green;"">","null","","","","","","","","",""
"","image-keyboard-response","164","130509","0.0-164.0","3OS4RQUCRA13VIZBZDKSCG8Y0UBFB8","A1VBP1RMKGUXB","3UDTAB6HH6LRO17U79I9TKUGYFV09C","","700","img/flower6.png","74","701","1","1","1","1","1,0.333,0.333,0.333,1,0.333,0.333,0.333,1","1,0.333,0.333,0.333,1,0.333,0.333,0.333,1","1",""
"","html-keyboard-response","165","130811","0.0-165.0","3OS4RQUCRA13VIZBZDKSCG8Y0UBFB8","A1VBP1RMKGUXB","3UDTAB6HH6LRO17U79I9TKUGYFV09C","","null","<img src=""img/flower6.png"" style=""width:200px; border:14px solid green;"">","null","","","","","","","","",""
"","image-keyboard-response","166","131518","0.0-166.0","3OS4RQUCRA13VIZBZDKSCG8Y0UBFB8","A1VBP1RMKGUXB","3UDTAB6HH6LRO17U79I9TKUGYFV09C","","704","img/flower2.png","76","706","3","1","2","1","1,0.333,0.333,0.333,1,0.333,0.333,0.333,1","1,0.333,0.333,0.333,1,0.333,0.333,0.333,1","1",""
"","html-keyboard-response","167","131821","0.0-167.0","3OS4RQUCRA13VIZBZDKSCG8Y0UBFB8","A1VBP1RMKGUXB","3UDTAB6HH6LRO17U79I9TKUGYFV09C","","null","<img src=""img/flower2.png"" style=""width:200px; border:14px solid green;"">","null","","","","","","","","",""
"","image-keyboard-response","168","132731","0.0-168.0","3OS4RQUCRA13VIZBZDKSCG8Y0UBFB8","A1VBP1RMKGUXB","3UDTAB6HH6LRO17U79I9TKUGYFV09C","","909","img/flower2.png","75","910","2","1","2","1","1,0.333,0.333,0.333,1,0.333,0.333,0.333,1","1,0.333,0.333,0.333,1,0.333,0.333,0.333,1","1",""
"","html-keyboard-response","169","133038","0.0-169.0","3OS4RQUCRA13VIZBZDKSCG8Y0UBFB8","A1VBP1RMKGUXB","3UDTAB6HH6LRO17U79I9TKUGYFV09C","","null","<img src=""img/flower2.png"" style=""width:200px; border:14px solid green;"">","null","","","","","","","","",""
"","image-keyboard-response","170","133784","0.0-170.0","3OS4RQUCRA13VIZBZDKSCG8Y0UBFB8","A1VBP1RMKGUXB","3UDTAB6HH6LRO17U79I9TKUGYFV09C","","745","img/flower6.png","76","746","3","1","1","1","1,0.333,0.333,0.333,1,0.333,0.333,0.333,1","1,0.333,0.333,0.333,1,0.333,0.333,0.333,1","1",""
"","html-keyboard-response","171","134089","0.0-171.0","3OS4RQUCRA13VIZBZDKSCG8Y0UBFB8","A1VBP1RMKGUXB","3UDTAB6HH6LRO17U79I9TKUGYFV09C","","null","<img src=""img/flower6.png"" style=""width:200px; border:14px solid green;"">","null","","","","","","","","",""
"","image-keyboard-response","172","134826","0.0-172.0","3OS4RQUCRA13VIZBZDKSCG8Y0UBFB8","A1VBP1RMKGUXB","3UDTAB6HH6LRO17U79I9TKUGYFV09C","","734","img/flower2.png","74","736","1","0","2","1","1,0.333,0.333,0.333,1,0.333,0.333,0.333,1","1,0.333,0.333,0.333,1,0.333,0.333,0.333,1","1",""
"","html-keyboard-response","173","135128","0.0-173.0","3OS4RQUCRA13VIZBZDKSCG8Y0UBFB8","A1VBP1RMKGUXB","3UDTAB6HH6LRO17U79I9TKUGYFV09C","","null","<img src=""img/flower2.png"" style=""width:200px;border:14px solid red;"">","null","","","","","","","","",""
"","image-keyboard-response","174","136568","0.0-174.0","3OS4RQUCRA13VIZBZDKSCG8Y0UBFB8","A1VBP1RMKGUXB","3UDTAB6HH6LRO17U79I9TKUGYFV09C","","1435","img/flower1.png","76","1437","3","1","3","1","1,0.333,0.333,0.333,1,0.333,0.333,0.333,1","1,0.333,0.333,0.333,1,0.333,0.333,0.333,1","1",""
"","html-keyboard-response","175","136869","0.0-175.0","3OS4RQUCRA13VIZBZDKSCG8Y0UBFB8","A1VBP1RMKGUXB","3UDTAB6HH6LRO17U79I9TKUGYFV09C","","null","<img src=""img/flower1.png"" style=""width:200px; border:14px solid green;"">","null","","","","","","","","",""
"","image-keyboard-response","176","137734","0.0-176.0","3OS4RQUCRA13VIZBZDKSCG8Y0UBFB8","A1VBP1RMKGUXB","3UDTAB6HH6LRO17U79I9TKUGYFV09C","","863","img/flower1.png","76","864","3","1","3","1","1,0.333,0.333,0.333,1,0.333,0.333,0.333,1","1,0.333,0.333,0.333,1,0.333,0.333,0.333,1","1",""
"","html-keyboard-response","177","138038","0.0-177.0","3OS4RQUCRA13VIZBZDKSCG8Y0UBFB8","A1VBP1RMKGUXB","3UDTAB6HH6LRO17U79I9TKUGYFV09C","","null","<img src=""img/flower1.png"" style=""width:200px; border:14px solid green;"">","null","","","","","","","","",""
"","image-keyboard-response","178","138792","0.0-178.0","3OS4RQUCRA13VIZBZDKSCG8Y0UBFB8","A1VBP1RMKGUXB","3UDTAB6HH6LRO17U79I9TKUGYFV09C","","750","img/flower2.png","74","753","1","0","2","1","1,0.333,0.333,0.333,1,0.333,0.333,0.333,1","1,0.333,0.333,0.333,1,0.333,0.333,0.333,1","1",""
"","html-keyboard-response","179","139094","0.0-179.0","3OS4RQUCRA13VIZBZDKSCG8Y0UBFB8","A1VBP1RMKGUXB","3UDTAB6HH6LRO17U79I9TKUGYFV09C","","null","<img src=""img/flower2.png"" style=""width:200px;border:14px solid red;"">","null","","","","","","","","",""
"","image-keyboard-response","180","139994","0.0-180.0","3OS4RQUCRA13VIZBZDKSCG8Y0UBFB8","A1VBP1RMKGUXB","3UDTAB6HH6LRO17U79I9TKUGYFV09C","","898","img/flower6.png","74","899","1","1","1","1","1,0.333,0.333,0.333,1,0.333,0.333,0.333,1","1,0.333,0.333,0.333,1,0.333,0.333,0.333,1","1",""
"","html-keyboard-response","181","140297","0.0-181.0","3OS4RQUCRA13VIZBZDKSCG8Y0UBFB8","A1VBP1RMKGUXB","3UDTAB6HH6LRO17U79I9TKUGYFV09C","","null","<img src=""img/flower6.png"" style=""width:200px; border:14px solid green;"">","null","","","","","","","","",""
"","html-keyboard-response","182","144466","0.0-182.0","3OS4RQUCRA13VIZBZDKSCG8Y0UBFB8","A1VBP1RMKGUXB","3UDTAB6HH6LRO17U79I9TKUGYFV09C","","","","","","","","","","","","",""
"","image-keyboard-response","183","146476","0.0-183.0","3OS4RQUCRA13VIZBZDKSCG8Y0UBFB8","A1VBP1RMKGUXB","3UDTAB6HH6LRO17U79I9TKUGYFV09C","","","img/flower3.png","","2012","-1","0","2","2","1,0,0,1,1,0,1,0,1","0,0,1,1,0,1,0,1,1","2",""
"","html-keyboard-response","184","146804","0.0-184.0","3OS4RQUCRA13VIZBZDKSCG8Y0UBFB8","A1VBP1RMKGUXB","3UDTAB6HH6LRO17U79I9TKUGYFV09C","","null","<img src=""img/flower3.png"" style=""width:200px;border:14px solid red;"">","null","","","","","","","","",""
"","image-keyboard-response","185","148105","0.0-185.0","3OS4RQUCRA13VIZBZDKSCG8Y0UBFB8","A1VBP1RMKGUXB","3UDTAB6HH6LRO17U79I9TKUGYFV09C","","1300","img/flower4.png","75","1302","2","0","1","2","1,0,0,1,1,0,1,0,1","0,0,1,1,0,1,0,1,1","2",""
"","html-keyboard-response","186","148409","0.0-186.0","3OS4RQUCRA13VIZBZDKSCG8Y0UBFB8","A1VBP1RMKGUXB","3UDTAB6HH6LRO17U79I9TKUGYFV09C","","null","<img src=""img/flower4.png"" style=""width:200px;border:14px solid red;"">","null","","","","","","","","",""
"","image-keyboard-response","187","149394","0.0-187.0","3OS4RQUCRA13VIZBZDKSCG8Y0UBFB8","A1VBP1RMKGUXB","3UDTAB6HH6LRO17U79I9TKUGYFV09C","","982","img/flower4.png","74","983","1","0","1","2","1,0,0,1,1,0,1,0,1","0,0,1,1,0,1,0,1,1","2",""
"","html-keyboard-response","188","149728","0.0-188.0","3OS4RQUCRA13VIZBZDKSCG8Y0UBFB8","A1VBP1RMKGUXB","3UDTAB6HH6LRO17U79I9TKUGYFV09C","","null","<img src=""img/flower4.png"" style=""width:200px;border:14px solid red;"">","null","","","","","","","","",""
"","image-keyboard-response","189","150694","0.0-189.0","3OS4RQUCRA13VIZBZDKSCG8Y0UBFB8","A1VBP1RMKGUXB","3UDTAB6HH6LRO17U79I9TKUGYFV09C","","964","img/flower3.png","74","965","1","1","2","2","1,0,0,1,1,0,1,0,1","0,0,1,1,0,1,0,1,1","2",""
"","html-keyboard-response","190","150997","0.0-190.0","3OS4RQUCRA13VIZBZDKSCG8Y0UBFB8","A1VBP1RMKGUXB","3UDTAB6HH6LRO17U79I9TKUGYFV09C","","null","<img src=""img/flower3.png"" style=""width:200px; border:14px solid green;"">","null","","","","","","","","",""
"","image-keyboard-response","191","151652","0.0-191.0","3OS4RQUCRA13VIZBZDKSCG8Y0UBFB8","A1VBP1RMKGUXB","3UDTAB6HH6LRO17U79I9TKUGYFV09C","","651","img/flower5.png","74","653","1","0","3","2","1,0,0,1,1,0,1,0,1","0,0,1,1,0,1,0,1,1","2",""
"","html-keyboard-response","192","151954","0.0-192.0","3OS4RQUCRA13VIZBZDKSCG8Y0UBFB8","A1VBP1RMKGUXB","3UDTAB6HH6LRO17U79I9TKUGYFV09C","","null","<img src=""img/flower5.png"" style=""width:200px;border:14px solid red;"">","null","","","","","","","","",""
"","image-keyboard-response","193","152734","0.0-193.0","3OS4RQUCRA13VIZBZDKSCG8Y0UBFB8","A1VBP1RMKGUXB","3UDTAB6HH6LRO17U79I9TKUGYFV09C","","778","img/flower4.png","75","780","2","0","1","2","1,0,0,1,1,0,1,0,1","0,0,1,1,0,1,0,1,1","2",""
"","html-keyboard-response","194","153037","0.0-194.0","3OS4RQUCRA13VIZBZDKSCG8Y0UBFB8","A1VBP1RMKGUXB","3UDTAB6HH6LRO17U79I9TKUGYFV09C","","null","<img src=""img/flower4.png"" style=""width:200px;border:14px solid red;"">","null","","","","","","","","",""
"","image-keyboard-response","195","153736","0.0-195.0","3OS4RQUCRA13VIZBZDKSCG8Y0UBFB8","A1VBP1RMKGUXB","3UDTAB6HH6LRO17U79I9TKUGYFV09C","","697","img/flower5.png","74","699","1","0","3","2","1,0,0,1,1,0,1,0,1","0,0,1,1,0,1,0,1,1","2",""
"","html-keyboard-response","196","154038","0.0-196.0","3OS4RQUCRA13VIZBZDKSCG8Y0UBFB8","A1VBP1RMKGUXB","3UDTAB6HH6LRO17U79I9TKUGYFV09C","","null","<img src=""img/flower5.png"" style=""width:200px;border:14px solid red;"">","null","","","","","","","","",""
"","image-keyboard-response","197","154825","0.0-197.0","3OS4RQUCRA13VIZBZDKSCG8Y0UBFB8","A1VBP1RMKGUXB","3UDTAB6HH6LRO17U79I9TKUGYFV09C","","783","img/flower3.png","76","786","3","1","2","2","1,0,0,1,1,0,1,0,1","0,0,1,1,0,1,0,1,1","2",""
"","html-keyboard-response","198","155179","0.0-198.0","3OS4RQUCRA13VIZBZDKSCG8Y0UBFB8","A1VBP1RMKGUXB","3UDTAB6HH6LRO17U79I9TKUGYFV09C","","null","<img src=""img/flower3.png"" style=""width:200px; border:14px solid green;"">","null","","","","","","","","",""
"","image-keyboard-response","199","155986","0.0-199.0","3OS4RQUCRA13VIZBZDKSCG8Y0UBFB8","A1VBP1RMKGUXB","3UDTAB6HH6LRO17U79I9TKUGYFV09C","","805","img/flower5.png","76","806","3","1","3","2","1,0,0,1,1,0,1,0,1","0,0,1,1,0,1,0,1,1","2",""
"","html-keyboard-response","200","156289","0.0-200.0","3OS4RQUCRA13VIZBZDKSCG8Y0UBFB8","A1VBP1RMKGUXB","3UDTAB6HH6LRO17U79I9TKUGYFV09C","","null","<img src=""img/flower5.png"" style=""width:200px; border:14px solid green;"">","null","","","","","","","","",""
"","image-keyboard-response","201","156915","0.0-201.0","3OS4RQUCRA13VIZBZDKSCG8Y0UBFB8","A1VBP1RMKGUXB","3UDTAB6HH6LRO17U79I9TKUGYFV09C","","624","img/flower3.png","76","626","3","1","2","2","1,0,0,1,1,0,1,0,1","0,0,1,1,0,1,0,1,1","2",""
"","html-keyboard-response","202","157220","0.0-202.0","3OS4RQUCRA13VIZBZDKSCG8Y0UBFB8","A1VBP1RMKGUXB","3UDTAB6HH6LRO17U79I9TKUGYFV09C","","null","<img src=""img/flower3.png"" style=""width:200px; border:14px solid green;"">","null","","","","","","","","",""
"","image-keyboard-response","203","157796","0.0-203.0","3OS4RQUCRA13VIZBZDKSCG8Y0UBFB8","A1VBP1RMKGUXB","3UDTAB6HH6LRO17U79I9TKUGYFV09C","","573","img/flower3.png","76","575","3","1","2","2","1,0,0,1,1,0,1,0,1","0,0,1,1,0,1,0,1,1","2",""
"","html-keyboard-response","204","158097","0.0-204.0","3OS4RQUCRA13VIZBZDKSCG8Y0UBFB8","A1VBP1RMKGUXB","3UDTAB6HH6LRO17U79I9TKUGYFV09C","","null","<img src=""img/flower3.png"" style=""width:200px; border:14px solid green;"">","null","","","","","","","","",""
"","image-keyboard-response","205","158655","0.0-205.0","3OS4RQUCRA13VIZBZDKSCG8Y0UBFB8","A1VBP1RMKGUXB","3UDTAB6HH6LRO17U79I9TKUGYFV09C","","555","img/flower5.png","76","557","3","1","3","2","1,0,0,1,1,0,1,0,1","0,0,1,1,0,1,0,1,1","2",""
"","html-keyboard-response","206","158958","0.0-206.0","3OS4RQUCRA13VIZBZDKSCG8Y0UBFB8","A1VBP1RMKGUXB","3UDTAB6HH6LRO17U79I9TKUGYFV09C","","null","<img src=""img/flower5.png"" style=""width:200px; border:14px solid green;"">","null","","","","","","","","",""
"","image-keyboard-response","207","159515","0.0-207.0","3OS4RQUCRA13VIZBZDKSCG8Y0UBFB8","A1VBP1RMKGUXB","3UDTAB6HH6LRO17U79I9TKUGYFV09C","","554","img/flower3.png","76","557","3","1","2","2","1,0,0,1,1,0,1,0,1","0,0,1,1,0,1,0,1,1","2",""
"","html-keyboard-response","208","159818","0.0-208.0","3OS4RQUCRA13VIZBZDKSCG8Y0UBFB8","A1VBP1RMKGUXB","3UDTAB6HH6LRO17U79I9TKUGYFV09C","","null","<img src=""img/flower3.png"" style=""width:200px; border:14px solid green;"">","null","","","","","","","","",""
"","image-keyboard-response","209","160413","0.0-209.0","3OS4RQUCRA13VIZBZDKSCG8Y0UBFB8","A1VBP1RMKGUXB","3UDTAB6HH6LRO17U79I9TKUGYFV09C","","593","img/flower3.png","76","595","3","1","2","2","1,0,0,1,1,0,1,0,1","0,0,1,1,0,1,0,1,1","2",""
"","html-keyboard-response","210","160716","0.0-210.0","3OS4RQUCRA13VIZBZDKSCG8Y0UBFB8","A1VBP1RMKGUXB","3UDTAB6HH6LRO17U79I9TKUGYFV09C","","null","<img src=""img/flower3.png"" style=""width:200px; border:14px solid green;"">","null","","","","","","","","",""
"","image-keyboard-response","211","161293","0.0-211.0","3OS4RQUCRA13VIZBZDKSCG8Y0UBFB8","A1VBP1RMKGUXB","3UDTAB6HH6LRO17U79I9TKUGYFV09C","","575","img/flower5.png","76","577","3","1","3","2","1,0,0,1,1,0,1,0,1","0,0,1,1,0,1,0,1,1","2",""
"","html-keyboard-response","212","161596","0.0-212.0","3OS4RQUCRA13VIZBZDKSCG8Y0UBFB8","A1VBP1RMKGUXB","3UDTAB6HH6LRO17U79I9TKUGYFV09C","","null","<img src=""img/flower5.png"" style=""width:200px; border:14px solid green;"">","null","","","","","","","","",""
"","image-keyboard-response","213","162007","0.0-213.0","3OS4RQUCRA13VIZBZDKSCG8Y0UBFB8","A1VBP1RMKGUXB","3UDTAB6HH6LRO17U79I9TKUGYFV09C","","406","img/flower5.png","76","408","3","1","3","2","1,0,0,1,1,0,1,0,1","0,0,1,1,0,1,0,1,1","2",""
"","html-keyboard-response","214","162310","0.0-214.0","3OS4RQUCRA13VIZBZDKSCG8Y0UBFB8","A1VBP1RMKGUXB","3UDTAB6HH6LRO17U79I9TKUGYFV09C","","null","<img src=""img/flower5.png"" style=""width:200px; border:14px solid green;"">","null","","","","","","","","",""
"","image-keyboard-response","215","162913","0.0-215.0","3OS4RQUCRA13VIZBZDKSCG8Y0UBFB8","A1VBP1RMKGUXB","3UDTAB6HH6LRO17U79I9TKUGYFV09C","","601","img/flower4.png","76","602","3","1","1","2","1,0,0,1,1,0,1,0,1","0,0,1,1,0,1,0,1,1","2",""
"","html-keyboard-response","216","163227","0.0-216.0","3OS4RQUCRA13VIZBZDKSCG8Y0UBFB8","A1VBP1RMKGUXB","3UDTAB6HH6LRO17U79I9TKUGYFV09C","","null","<img src=""img/flower4.png"" style=""width:200px; border:14px solid green;"">","null","","","","","","","","",""
"","image-keyboard-response","217","163744","0.0-217.0","3OS4RQUCRA13VIZBZDKSCG8Y0UBFB8","A1VBP1RMKGUXB","3UDTAB6HH6LRO17U79I9TKUGYFV09C","","515","img/flower5.png","76","516","3","1","3","2","1,0,0,1,1,0,1,0,1","0,0,1,1,0,1,0,1,1","2",""
"","html-keyboard-response","218","164047","0.0-218.0","3OS4RQUCRA13VIZBZDKSCG8Y0UBFB8","A1VBP1RMKGUXB","3UDTAB6HH6LRO17U79I9TKUGYFV09C","","null","<img src=""img/flower5.png"" style=""width:200px; border:14px solid green;"">","null","","","","","","","","",""
"","image-keyboard-response","219","164654","0.0-219.0","3OS4RQUCRA13VIZBZDKSCG8Y0UBFB8","A1VBP1RMKGUXB","3UDTAB6HH6LRO17U79I9TKUGYFV09C","","604","img/flower4.png","75","606","2","0","1","2","1,0,0,1,1,0,1,0,1","0,0,1,1,0,1,0,1,1","2",""
"","html-keyboard-response","220","164957","0.0-220.0","3OS4RQUCRA13VIZBZDKSCG8Y0UBFB8","A1VBP1RMKGUXB","3UDTAB6HH6LRO17U79I9TKUGYFV09C","","null","<img src=""img/flower4.png"" style=""width:200px;border:14px solid red;"">","null","","","","","","","","",""
"","image-keyboard-response","221","165421","0.0-221.0","3OS4RQUCRA13VIZBZDKSCG8Y0UBFB8","A1VBP1RMKGUXB","3UDTAB6HH6LRO17U79I9TKUGYFV09C","","462","img/flower3.png","76","463","3","1","2","2","1,0,0,1,1,0,1,0,1","0,0,1,1,0,1,0,1,1","2",""
"","html-keyboard-response","222","165723","0.0-222.0","3OS4RQUCRA13VIZBZDKSCG8Y0UBFB8","A1VBP1RMKGUXB","3UDTAB6HH6LRO17U79I9TKUGYFV09C","","null","<img src=""img/flower3.png"" style=""width:200px; border:14px solid green;"">","null","","","","","","","","",""
"","image-keyboard-response","223","166253","0.0-223.0","3OS4RQUCRA13VIZBZDKSCG8Y0UBFB8","A1VBP1RMKGUXB","3UDTAB6HH6LRO17U79I9TKUGYFV09C","","528","img/flower4.png","76","529","3","1","1","2","1,0,0,1,1,0,1,0,1","0,0,1,1,0,1,0,1,1","2",""
"","html-keyboard-response","224","166554","0.0-224.0","3OS4RQUCRA13VIZBZDKSCG8Y0UBFB8","A1VBP1RMKGUXB","3UDTAB6HH6LRO17U79I9TKUGYFV09C","","null","<img src=""img/flower4.png"" style=""width:200px; border:14px solid green;"">","null","","","","","","","","",""
"","image-keyboard-response","225","167004","0.0-225.0","3OS4RQUCRA13VIZBZDKSCG8Y0UBFB8","A1VBP1RMKGUXB","3UDTAB6HH6LRO17U79I9TKUGYFV09C","","446","img/flower5.png","76","449","3","1","3","2","1,0,0,1,1,0,1,0,1","0,0,1,1,0,1,0,1,1","2",""
"","html-keyboard-response","226","167308","0.0-226.0","3OS4RQUCRA13VIZBZDKSCG8Y0UBFB8","A1VBP1RMKGUXB","3UDTAB6HH6LRO17U79I9TKUGYFV09C","","null","<img src=""img/flower5.png"" style=""width:200px; border:14px solid green;"">","null","","","","","","","","",""
"","image-keyboard-response","227","167644","0.0-227.0","3OS4RQUCRA13VIZBZDKSCG8Y0UBFB8","A1VBP1RMKGUXB","3UDTAB6HH6LRO17U79I9TKUGYFV09C","","333","img/flower5.png","76","336","3","1","3","2","1,0,0,1,1,0,1,0,1","0,0,1,1,0,1,0,1,1","2",""
"","html-keyboard-response","228","167950","0.0-228.0","3OS4RQUCRA13VIZBZDKSCG8Y0UBFB8","A1VBP1RMKGUXB","3UDTAB6HH6LRO17U79I9TKUGYFV09C","","null","<img src=""img/flower5.png"" style=""width:200px; border:14px solid green;"">","null","","","","","","","","",""
"","image-keyboard-response","229","168353","0.0-229.0","3OS4RQUCRA13VIZBZDKSCG8Y0UBFB8","A1VBP1RMKGUXB","3UDTAB6HH6LRO17U79I9TKUGYFV09C","","400","img/flower3.png","76","402","3","1","2","2","1,0,0,1,1,0,1,0,1","0,0,1,1,0,1,0,1,1","2",""
"","html-keyboard-response","230","168654","0.0-230.0","3OS4RQUCRA13VIZBZDKSCG8Y0UBFB8","A1VBP1RMKGUXB","3UDTAB6HH6LRO17U79I9TKUGYFV09C","","null","<img src=""img/flower3.png"" style=""width:200px; border:14px solid green;"">","null","","","","","","","","",""
"","image-keyboard-response","231","169002","0.0-231.0","3OS4RQUCRA13VIZBZDKSCG8Y0UBFB8","A1VBP1RMKGUXB","3UDTAB6HH6LRO17U79I9TKUGYFV09C","","346","img/flower5.png","76","348","3","1","3","2","1,0,0,1,1,0,1,0,1","0,0,1,1,0,1,0,1,1","2",""
"","html-keyboard-response","232","169305","0.0-232.0","3OS4RQUCRA13VIZBZDKSCG8Y0UBFB8","A1VBP1RMKGUXB","3UDTAB6HH6LRO17U79I9TKUGYFV09C","","null","<img src=""img/flower5.png"" style=""width:200px; border:14px solid green;"">","null","","","","","","","","",""
"","image-keyboard-response","233","169708","0.0-233.0","3OS4RQUCRA13VIZBZDKSCG8Y0UBFB8","A1VBP1RMKGUXB","3UDTAB6HH6LRO17U79I9TKUGYFV09C","","400","img/flower3.png","76","402","3","1","2","2","1,0,0,1,1,0,1,0,1","0,0,1,1,0,1,0,1,1","2",""
"","html-keyboard-response","234","170011","0.0-234.0","3OS4RQUCRA13VIZBZDKSCG8Y0UBFB8","A1VBP1RMKGUXB","3UDTAB6HH6LRO17U79I9TKUGYFV09C","","null","<img src=""img/flower3.png"" style=""width:200px; border:14px solid green;"">","null","","","","","","","","",""
"","image-keyboard-response","235","170482","0.0-235.0","3OS4RQUCRA13VIZBZDKSCG8Y0UBFB8","A1VBP1RMKGUXB","3UDTAB6HH6LRO17U79I9TKUGYFV09C","","468","img/flower4.png","76","470","3","1","1","2","1,0,0,1,1,0,1,0,1","0,0,1,1,0,1,0,1,1","2",""
"","html-keyboard-response","236","170785","0.0-236.0","3OS4RQUCRA13VIZBZDKSCG8Y0UBFB8","A1VBP1RMKGUXB","3UDTAB6HH6LRO17U79I9TKUGYFV09C","","null","<img src=""img/flower4.png"" style=""width:200px; border:14px solid green;"">","null","","","","","","","","",""
"","image-keyboard-response","237","171165","0.0-237.0","3OS4RQUCRA13VIZBZDKSCG8Y0UBFB8","A1VBP1RMKGUXB","3UDTAB6HH6LRO17U79I9TKUGYFV09C","","377","img/flower5.png","74","379","1","0","3","2","1,0,0,1,1,0,1,0,1","0,0,1,1,0,1,0,1,1","2",""
"","html-keyboard-response","238","171466","0.0-238.0","3OS4RQUCRA13VIZBZDKSCG8Y0UBFB8","A1VBP1RMKGUXB","3UDTAB6HH6LRO17U79I9TKUGYFV09C","","null","<img src=""img/flower5.png"" style=""width:200px;border:14px solid red;"">","null","","","","","","","","",""
"","image-keyboard-response","239","171838","0.0-239.0","3OS4RQUCRA13VIZBZDKSCG8Y0UBFB8","A1VBP1RMKGUXB","3UDTAB6HH6LRO17U79I9TKUGYFV09C","","370","img/flower4.png","76","372","3","1","1","2","1,0,0,1,1,0,1,0,1","0,0,1,1,0,1,0,1,1","2",""
"","html-keyboard-response","240","172141","0.0-240.0","3OS4RQUCRA13VIZBZDKSCG8Y0UBFB8","A1VBP1RMKGUXB","3UDTAB6HH6LRO17U79I9TKUGYFV09C","","null","<img src=""img/flower4.png"" style=""width:200px; border:14px solid green;"">","null","","","","","","","","",""
"","image-keyboard-response","241","172785","0.0-241.0","3OS4RQUCRA13VIZBZDKSCG8Y0UBFB8","A1VBP1RMKGUXB","3UDTAB6HH6LRO17U79I9TKUGYFV09C","","641","img/flower5.png","75","643","2","1","3","2","1,0,0,1,1,0,1,0,1","0,0,1,1,0,1,0,1,1","2",""
"","html-keyboard-response","242","173088","0.0-242.0","3OS4RQUCRA13VIZBZDKSCG8Y0UBFB8","A1VBP1RMKGUXB","3UDTAB6HH6LRO17U79I9TKUGYFV09C","","null","<img src=""img/flower5.png"" style=""width:200px; border:14px solid green;"">","null","","","","","","","","",""
"","image-keyboard-response","243","173645","0.0-243.0","3OS4RQUCRA13VIZBZDKSCG8Y0UBFB8","A1VBP1RMKGUXB","3UDTAB6HH6LRO17U79I9TKUGYFV09C","","553","img/flower5.png","76","556","3","1","3","2","1,0,0,1,1,0,1,0,1","0,0,1,1,0,1,0,1,1","2",""
"","html-keyboard-response","244","173947","0.0-244.0","3OS4RQUCRA13VIZBZDKSCG8Y0UBFB8","A1VBP1RMKGUXB","3UDTAB6HH6LRO17U79I9TKUGYFV09C","","null","<img src=""img/flower5.png"" style=""width:200px; border:14px solid green;"">","null","","","","","","","","",""
"","image-keyboard-response","245","174412","0.0-245.0","3OS4RQUCRA13VIZBZDKSCG8Y0UBFB8","A1VBP1RMKGUXB","3UDTAB6HH6LRO17U79I9TKUGYFV09C","","463","img/flower3.png","76","464","3","1","2","2","1,0,0,1,1,0,1,0,1","0,0,1,1,0,1,0,1,1","2",""
"","html-keyboard-response","246","174726","0.0-246.0","3OS4RQUCRA13VIZBZDKSCG8Y0UBFB8","A1VBP1RMKGUXB","3UDTAB6HH6LRO17U79I9TKUGYFV09C","","null","<img src=""img/flower3.png"" style=""width:200px; border:14px solid green;"">","null","","","","","","","","",""
"","image-keyboard-response","247","175144","0.0-247.0","3OS4RQUCRA13VIZBZDKSCG8Y0UBFB8","A1VBP1RMKGUXB","3UDTAB6HH6LRO17U79I9TKUGYFV09C","","416","img/flower4.png","74","418","1","0","1","2","1,0,0,1,1,0,1,0,1","0,0,1,1,0,1,0,1,1","2",""
"","html-keyboard-response","248","175448","0.0-248.0","3OS4RQUCRA13VIZBZDKSCG8Y0UBFB8","A1VBP1RMKGUXB","3UDTAB6HH6LRO17U79I9TKUGYFV09C","","null","<img src=""img/flower4.png"" style=""width:200px;border:14px solid red;"">","null","","","","","","","","",""
"","image-keyboard-response","249","175904","0.0-249.0","3OS4RQUCRA13VIZBZDKSCG8Y0UBFB8","A1VBP1RMKGUXB","3UDTAB6HH6LRO17U79I9TKUGYFV09C","","448","img/flower5.png","76","452","3","1","3","2","1,0,0,1,1,0,1,0,1","0,0,1,1,0,1,0,1,1","2",""
"","html-keyboard-response","250","176206","0.0-250.0","3OS4RQUCRA13VIZBZDKSCG8Y0UBFB8","A1VBP1RMKGUXB","3UDTAB6HH6LRO17U79I9TKUGYFV09C","","null","<img src=""img/flower5.png"" style=""width:200px; border:14px solid green;"">","null","","","","","","","","",""
"","image-keyboard-response","251","176599","0.0-251.0","3OS4RQUCRA13VIZBZDKSCG8Y0UBFB8","A1VBP1RMKGUXB","3UDTAB6HH6LRO17U79I9TKUGYFV09C","","390","img/flower4.png","75","391","2","0","1","2","1,0,0,1,1,0,1,0,1","0,0,1,1,0,1,0,1,1","2",""
"","html-keyboard-response","252","176900","0.0-252.0","3OS4RQUCRA13VIZBZDKSCG8Y0UBFB8","A1VBP1RMKGUXB","3UDTAB6HH6LRO17U79I9TKUGYFV09C","","null","<img src=""img/flower4.png"" style=""width:200px;border:14px solid red;"">","null","","","","","","","","",""
"","image-keyboard-response","253","177348","0.0-253.0","3OS4RQUCRA13VIZBZDKSCG8Y0UBFB8","A1VBP1RMKGUXB","3UDTAB6HH6LRO17U79I9TKUGYFV09C","","445","img/flower3.png","76","447","3","1","2","2","1,0,0,1,1,0,1,0,1","0,0,1,1,0,1,0,1,1","2",""
"","html-keyboard-response","254","177651","0.0-254.0","3OS4RQUCRA13VIZBZDKSCG8Y0UBFB8","A1VBP1RMKGUXB","3UDTAB6HH6LRO17U79I9TKUGYFV09C","","null","<img src=""img/flower3.png"" style=""width:200px; border:14px solid green;"">","null","","","","","","","","",""
"","image-keyboard-response","255","178123","0.0-255.0","3OS4RQUCRA13VIZBZDKSCG8Y0UBFB8","A1VBP1RMKGUXB","3UDTAB6HH6LRO17U79I9TKUGYFV09C","","469","img/flower3.png","76","470","3","1","2","2","1,0,0,1,1,0,1,0,1","0,0,1,1,0,1,0,1,1","2",""
"","html-keyboard-response","256","178424","0.0-256.0","3OS4RQUCRA13VIZBZDKSCG8Y0UBFB8","A1VBP1RMKGUXB","3UDTAB6HH6LRO17U79I9TKUGYFV09C","","null","<img src=""img/flower3.png"" style=""width:200px; border:14px solid green;"">","null","","","","","","","","",""
"","image-keyboard-response","257","178841","0.0-257.0","3OS4RQUCRA13VIZBZDKSCG8Y0UBFB8","A1VBP1RMKGUXB","3UDTAB6HH6LRO17U79I9TKUGYFV09C","","416","img/flower3.png","74","416","1","1","2","2","1,0,0,1,1,0,1,0,1","0,0,1,1,0,1,0,1,1","2",""
"","html-keyboard-response","258","179144","0.0-258.0","3OS4RQUCRA13VIZBZDKSCG8Y0UBFB8","A1VBP1RMKGUXB","3UDTAB6HH6LRO17U79I9TKUGYFV09C","","null","<img src=""img/flower3.png"" style=""width:200px; border:14px solid green;"">","null","","","","","","","","",""
"","image-keyboard-response","259","179728","0.0-259.0","3OS4RQUCRA13VIZBZDKSCG8Y0UBFB8","A1VBP1RMKGUXB","3UDTAB6HH6LRO17U79I9TKUGYFV09C","","574","img/flower5.png","76","577","3","1","3","2","1,0,0,1,1,0,1,0,1","0,0,1,1,0,1,0,1,1","2",""
"","html-keyboard-response","260","180031","0.0-260.0","3OS4RQUCRA13VIZBZDKSCG8Y0UBFB8","A1VBP1RMKGUXB","3UDTAB6HH6LRO17U79I9TKUGYFV09C","","null","<img src=""img/flower5.png"" style=""width:200px; border:14px solid green;"">","null","","","","","","","","",""
"","image-keyboard-response","261","180632","0.0-261.0","3OS4RQUCRA13VIZBZDKSCG8Y0UBFB8","A1VBP1RMKGUXB","3UDTAB6HH6LRO17U79I9TKUGYFV09C","","596","img/flower5.png","76","599","3","1","3","2","1,0,0,1,1,0,1,0,1","0,0,1,1,0,1,0,1,1","2",""
"","html-keyboard-response","262","180935","0.0-262.0","3OS4RQUCRA13VIZBZDKSCG8Y0UBFB8","A1VBP1RMKGUXB","3UDTAB6HH6LRO17U79I9TKUGYFV09C","","null","<img src=""img/flower5.png"" style=""width:200px; border:14px solid green;"">","null","","","","","","","","",""
"","image-keyboard-response","263","181483","0.0-263.0","3OS4RQUCRA13VIZBZDKSCG8Y0UBFB8","A1VBP1RMKGUXB","3UDTAB6HH6LRO17U79I9TKUGYFV09C","","547","img/flower5.png","76","547","3","1","3","2","1,0,0,1,1,0,1,0,1","0,0,1,1,0,1,0,1,1","2",""
"","html-keyboard-response","264","181786","0.0-264.0","3OS4RQUCRA13VIZBZDKSCG8Y0UBFB8","A1VBP1RMKGUXB","3UDTAB6HH6LRO17U79I9TKUGYFV09C","","null","<img src=""img/flower5.png"" style=""width:200px; border:14px solid green;"">","null","","","","","","","","",""
"","image-keyboard-response","265","182237","0.0-265.0","3OS4RQUCRA13VIZBZDKSCG8Y0UBFB8","A1VBP1RMKGUXB","3UDTAB6HH6LRO17U79I9TKUGYFV09C","","448","img/flower5.png","74","450","1","0","3","2","1,0,0,1,1,0,1,0,1","0,0,1,1,0,1,0,1,1","2",""
"","html-keyboard-response","266","182538","0.0-266.0","3OS4RQUCRA13VIZBZDKSCG8Y0UBFB8","A1VBP1RMKGUXB","3UDTAB6HH6LRO17U79I9TKUGYFV09C","","null","<img src=""img/flower5.png"" style=""width:200px;border:14px solid red;"">","null","","","","","","","","",""
"","image-keyboard-response","267","183172","0.0-267.0","3OS4RQUCRA13VIZBZDKSCG8Y0UBFB8","A1VBP1RMKGUXB","3UDTAB6HH6LRO17U79I9TKUGYFV09C","","633","img/flower5.png","76","634","3","1","3","2","1,0,0,1,1,0,1,0,1","0,0,1,1,0,1,0,1,1","2",""
"","html-keyboard-response","268","183474","0.0-268.0","3OS4RQUCRA13VIZBZDKSCG8Y0UBFB8","A1VBP1RMKGUXB","3UDTAB6HH6LRO17U79I9TKUGYFV09C","","null","<img src=""img/flower5.png"" style=""width:200px; border:14px solid green;"">","null","","","","","","","","",""
"","image-keyboard-response","269","183985","0.0-269.0","3OS4RQUCRA13VIZBZDKSCG8Y0UBFB8","A1VBP1RMKGUXB","3UDTAB6HH6LRO17U79I9TKUGYFV09C","","509","img/flower3.png","76","510","3","1","2","2","1,0,0,1,1,0,1,0,1","0,0,1,1,0,1,0,1,1","2",""
"","html-keyboard-response","270","184288","0.0-270.0","3OS4RQUCRA13VIZBZDKSCG8Y0UBFB8","A1VBP1RMKGUXB","3UDTAB6HH6LRO17U79I9TKUGYFV09C","","null","<img src=""img/flower3.png"" style=""width:200px; border:14px solid green;"">","null","","","","","","","","",""
"","image-keyboard-response","271","184791","0.0-271.0","3OS4RQUCRA13VIZBZDKSCG8Y0UBFB8","A1VBP1RMKGUXB","3UDTAB6HH6LRO17U79I9TKUGYFV09C","","501","img/flower3.png","75","502","2","0","2","2","1,0,0,1,1,0,1,0,1","0,0,1,1,0,1,0,1,1","2",""
"","html-keyboard-response","272","185093","0.0-272.0","3OS4RQUCRA13VIZBZDKSCG8Y0UBFB8","A1VBP1RMKGUXB","3UDTAB6HH6LRO17U79I9TKUGYFV09C","","null","<img src=""img/flower3.png"" style=""width:200px;border:14px solid red;"">","null","","","","","","","","",""
"","image-keyboard-response","273","185511","0.0-273.0","3OS4RQUCRA13VIZBZDKSCG8Y0UBFB8","A1VBP1RMKGUXB","3UDTAB6HH6LRO17U79I9TKUGYFV09C","","417","img/flower4.png","76","417","3","1","1","2","1,0,0,1,1,0,1,0,1","0,0,1,1,0,1,0,1,1","2",""
"","html-keyboard-response","274","185812","0.0-274.0","3OS4RQUCRA13VIZBZDKSCG8Y0UBFB8","A1VBP1RMKGUXB","3UDTAB6HH6LRO17U79I9TKUGYFV09C","","null","<img src=""img/flower4.png"" style=""width:200px; border:14px solid green;"">","null","","","","","","","","",""
"","image-keyboard-response","275","186433","0.0-275.0","3OS4RQUCRA13VIZBZDKSCG8Y0UBFB8","A1VBP1RMKGUXB","3UDTAB6HH6LRO17U79I9TKUGYFV09C","","620","img/flower4.png","74","621","1","0","1","2","1,0,0,1,1,0,1,0,1","0,0,1,1,0,1,0,1,1","2",""
"","html-keyboard-response","276","186735","0.0-276.0","3OS4RQUCRA13VIZBZDKSCG8Y0UBFB8","A1VBP1RMKGUXB","3UDTAB6HH6LRO17U79I9TKUGYFV09C","","null","<img src=""img/flower4.png"" style=""width:200px;border:14px solid red;"">","null","","","","","","","","",""
"","image-keyboard-response","277","187097","0.0-277.0","3OS4RQUCRA13VIZBZDKSCG8Y0UBFB8","A1VBP1RMKGUXB","3UDTAB6HH6LRO17U79I9TKUGYFV09C","","360","img/flower5.png","76","361","3","1","3","2","1,0,0,1,1,0,1,0,1","0,0,1,1,0,1,0,1,1","2",""
"","html-keyboard-response","278","187430","0.0-278.0","3OS4RQUCRA13VIZBZDKSCG8Y0UBFB8","A1VBP1RMKGUXB","3UDTAB6HH6LRO17U79I9TKUGYFV09C","","null","<img src=""img/flower5.png"" style=""width:200px; border:14px solid green;"">","null","","","","","","","","",""
"","image-keyboard-response","279","187822","0.0-279.0","3OS4RQUCRA13VIZBZDKSCG8Y0UBFB8","A1VBP1RMKGUXB","3UDTAB6HH6LRO17U79I9TKUGYFV09C","","390","img/flower4.png","76","391","3","1","1","2","1,0,0,1,1,0,1,0,1","0,0,1,1,0,1,0,1,1","2",""
"","html-keyboard-response","280","188123","0.0-280.0","3OS4RQUCRA13VIZBZDKSCG8Y0UBFB8","A1VBP1RMKGUXB","3UDTAB6HH6LRO17U79I9TKUGYFV09C","","null","<img src=""img/flower4.png"" style=""width:200px; border:14px solid green;"">","null","","","","","","","","",""
"","image-keyboard-response","281","188729","0.0-281.0","3OS4RQUCRA13VIZBZDKSCG8Y0UBFB8","A1VBP1RMKGUXB","3UDTAB6HH6LRO17U79I9TKUGYFV09C","","604","img/flower5.png","76","605","3","1","3","2","1,0,0,1,1,0,1,0,1","0,0,1,1,0,1,0,1,1","2",""
"","html-keyboard-response","282","189032","0.0-282.0","3OS4RQUCRA13VIZBZDKSCG8Y0UBFB8","A1VBP1RMKGUXB","3UDTAB6HH6LRO17U79I9TKUGYFV09C","","null","<img src=""img/flower5.png"" style=""width:200px; border:14px solid green;"">","null","","","","","","","","",""
"","image-keyboard-response","283","189926","0.0-283.0","3OS4RQUCRA13VIZBZDKSCG8Y0UBFB8","A1VBP1RMKGUXB","3UDTAB6HH6LRO17U79I9TKUGYFV09C","","885","img/flower4.png","76","888","3","1","1","2","1,0,0,1,1,0,1,0,1","0,0,1,1,0,1,0,1,1","2",""
"","html-keyboard-response","284","190229","0.0-284.0","3OS4RQUCRA13VIZBZDKSCG8Y0UBFB8","A1VBP1RMKGUXB","3UDTAB6HH6LRO17U79I9TKUGYFV09C","","null","<img src=""img/flower4.png"" style=""width:200px; border:14px solid green;"">","null","","","","","","","","",""
"","image-keyboard-response","285","190991","0.0-285.0","3OS4RQUCRA13VIZBZDKSCG8Y0UBFB8","A1VBP1RMKGUXB","3UDTAB6HH6LRO17U79I9TKUGYFV09C","","761","img/flower5.png","75","761","2","1","3","2","1,0,0,1,1,0,1,0,1","0,0,1,1,0,1,0,1,1","2",""
"","html-keyboard-response","286","191292","0.0-286.0","3OS4RQUCRA13VIZBZDKSCG8Y0UBFB8","A1VBP1RMKGUXB","3UDTAB6HH6LRO17U79I9TKUGYFV09C","","null","<img src=""img/flower5.png"" style=""width:200px; border:14px solid green;"">","null","","","","","","","","",""
"","image-keyboard-response","287","192295","0.0-287.0","3OS4RQUCRA13VIZBZDKSCG8Y0UBFB8","A1VBP1RMKGUXB","3UDTAB6HH6LRO17U79I9TKUGYFV09C","","1000","img/flower4.png","76","1002","3","1","1","2","1,0,0,1,1,0,1,0,1","0,0,1,1,0,1,0,1,1","2",""
"","html-keyboard-response","288","192597","0.0-288.0","3OS4RQUCRA13VIZBZDKSCG8Y0UBFB8","A1VBP1RMKGUXB","3UDTAB6HH6LRO17U79I9TKUGYFV09C","","null","<img src=""img/flower4.png"" style=""width:200px; border:14px solid green;"">","null","","","","","","","","",""
"","image-keyboard-response","289","193195","0.0-289.0","3OS4RQUCRA13VIZBZDKSCG8Y0UBFB8","A1VBP1RMKGUXB","3UDTAB6HH6LRO17U79I9TKUGYFV09C","","596","img/flower3.png","75","598","2","0","2","2","1,0,0,1,1,0,1,0,1","0,0,1,1,0,1,0,1,1","2",""
"","html-keyboard-response","290","193497","0.0-290.0","3OS4RQUCRA13VIZBZDKSCG8Y0UBFB8","A1VBP1RMKGUXB","3UDTAB6HH6LRO17U79I9TKUGYFV09C","","null","<img src=""img/flower3.png"" style=""width:200px;border:14px solid red;"">","null","","","","","","","","",""
"","image-keyboard-response","291","193951","0.0-291.0","3OS4RQUCRA13VIZBZDKSCG8Y0UBFB8","A1VBP1RMKGUXB","3UDTAB6HH6LRO17U79I9TKUGYFV09C","","452","img/flower5.png","76","454","3","1","3","2","1,0,0,1,1,0,1,0,1","0,0,1,1,0,1,0,1,1","2",""
"","html-keyboard-response","292","194254","0.0-292.0","3OS4RQUCRA13VIZBZDKSCG8Y0UBFB8","A1VBP1RMKGUXB","3UDTAB6HH6LRO17U79I9TKUGYFV09C","","null","<img src=""img/flower5.png"" style=""width:200px; border:14px solid green;"">","null","","","","","","","","",""
"","image-keyboard-response","293","194914","0.0-293.0","3OS4RQUCRA13VIZBZDKSCG8Y0UBFB8","A1VBP1RMKGUXB","3UDTAB6HH6LRO17U79I9TKUGYFV09C","","657","img/flower5.png","76","659","3","1","3","2","1,0,0,1,1,0,1,0,1","0,0,1,1,0,1,0,1,1","2",""
"","html-keyboard-response","294","195215","0.0-294.0","3OS4RQUCRA13VIZBZDKSCG8Y0UBFB8","A1VBP1RMKGUXB","3UDTAB6HH6LRO17U79I9TKUGYFV09C","","null","<img src=""img/flower5.png"" style=""width:200px; border:14px solid green;"">","null","","","","","","","","",""
"","image-keyboard-response","295","196029","0.0-295.0","3OS4RQUCRA13VIZBZDKSCG8Y0UBFB8","A1VBP1RMKGUXB","3UDTAB6HH6LRO17U79I9TKUGYFV09C","","811","img/flower5.png","75","813","2","1","3","2","1,0,0,1,1,0,1,0,1","0,0,1,1,0,1,0,1,1","2",""
"","html-keyboard-response","296","196332","0.0-296.0","3OS4RQUCRA13VIZBZDKSCG8Y0UBFB8","A1VBP1RMKGUXB","3UDTAB6HH6LRO17U79I9TKUGYFV09C","","null","<img src=""img/flower5.png"" style=""width:200px; border:14px solid green;"">","null","","","","","","","","",""
"","image-keyboard-response","297","197266","0.0-297.0","3OS4RQUCRA13VIZBZDKSCG8Y0UBFB8","A1VBP1RMKGUXB","3UDTAB6HH6LRO17U79I9TKUGYFV09C","","929","img/flower4.png","76","931","3","1","1","2","1,0,0,1,1,0,1,0,1","0,0,1,1,0,1,0,1,1","2",""
"","html-keyboard-response","298","197570","0.0-298.0","3OS4RQUCRA13VIZBZDKSCG8Y0UBFB8","A1VBP1RMKGUXB","3UDTAB6HH6LRO17U79I9TKUGYFV09C","","null","<img src=""img/flower4.png"" style=""width:200px; border:14px solid green;"">","null","","","","","","","","",""
"","image-keyboard-response","299","198363","0.0-299.0","3OS4RQUCRA13VIZBZDKSCG8Y0UBFB8","A1VBP1RMKGUXB","3UDTAB6HH6LRO17U79I9TKUGYFV09C","","790","img/flower3.png","75","792","2","0","2","2","1,0,0,1,1,0,1,0,1","0,0,1,1,0,1,0,1,1","2",""
"","html-keyboard-response","300","198665","0.0-300.0","3OS4RQUCRA13VIZBZDKSCG8Y0UBFB8","A1VBP1RMKGUXB","3UDTAB6HH6LRO17U79I9TKUGYFV09C","","null","<img src=""img/flower3.png"" style=""width:200px;border:14px solid red;"">","null","","","","","","","","",""
"","image-keyboard-response","301","199283","0.0-301.0","3OS4RQUCRA13VIZBZDKSCG8Y0UBFB8","A1VBP1RMKGUXB","3UDTAB6HH6LRO17U79I9TKUGYFV09C","","615","img/flower3.png","76","618","3","1","2","2","1,0,0,1,1,0,1,0,1","0,0,1,1,0,1,0,1,1","2",""
"","html-keyboard-response","302","199586","0.0-302.0","3OS4RQUCRA13VIZBZDKSCG8Y0UBFB8","A1VBP1RMKGUXB","3UDTAB6HH6LRO17U79I9TKUGYFV09C","","null","<img src=""img/flower3.png"" style=""width:200px; border:14px solid green;"">","null","","","","","","","","",""
"","image-keyboard-response","303","200424","0.0-303.0","3OS4RQUCRA13VIZBZDKSCG8Y0UBFB8","A1VBP1RMKGUXB","3UDTAB6HH6LRO17U79I9TKUGYFV09C","","836","img/flower4.png","76","837","3","1","1","2","1,0,0,1,1,0,1,0,1","0,0,1,1,0,1,0,1,1","2",""
"","html-keyboard-response","304","200725","0.0-304.0","3OS4RQUCRA13VIZBZDKSCG8Y0UBFB8","A1VBP1RMKGUXB","3UDTAB6HH6LRO17U79I9TKUGYFV09C","","null","<img src=""img/flower4.png"" style=""width:200px; border:14px solid green;"">","null","","","","","","","","",""
"","image-keyboard-response","305","201633","0.0-305.0","3OS4RQUCRA13VIZBZDKSCG8Y0UBFB8","A1VBP1RMKGUXB","3UDTAB6HH6LRO17U79I9TKUGYFV09C","","906","img/flower3.png","76","908","3","1","2","2","1,0,0,1,1,0,1,0,1","0,0,1,1,0,1,0,1,1","2",""
"","html-keyboard-response","306","201936","0.0-306.0","3OS4RQUCRA13VIZBZDKSCG8Y0UBFB8","A1VBP1RMKGUXB","3UDTAB6HH6LRO17U79I9TKUGYFV09C","","null","<img src=""img/flower3.png"" style=""width:200px; border:14px solid green;"">","null","","","","","","","","",""
"","image-keyboard-response","307","202871","0.0-307.0","3OS4RQUCRA13VIZBZDKSCG8Y0UBFB8","A1VBP1RMKGUXB","3UDTAB6HH6LRO17U79I9TKUGYFV09C","","932","img/flower5.png","75","934","2","1","3","2","1,0,0,1,1,0,1,0,1","0,0,1,1,0,1,0,1,1","2",""
"","html-keyboard-response","308","203174","0.0-308.0","3OS4RQUCRA13VIZBZDKSCG8Y0UBFB8","A1VBP1RMKGUXB","3UDTAB6HH6LRO17U79I9TKUGYFV09C","","null","<img src=""img/flower5.png"" style=""width:200px; border:14px solid green;"">","null","","","","","","","","",""
"","image-keyboard-response","309","203956","0.0-309.0","3OS4RQUCRA13VIZBZDKSCG8Y0UBFB8","A1VBP1RMKGUXB","3UDTAB6HH6LRO17U79I9TKUGYFV09C","","772","img/flower5.png","75","781","2","1","3","2","1,0,0,1,1,0,1,0,1","0,0,1,1,0,1,0,1,1","2",""
"","html-keyboard-response","310","204258","0.0-310.0","3OS4RQUCRA13VIZBZDKSCG8Y0UBFB8","A1VBP1RMKGUXB","3UDTAB6HH6LRO17U79I9TKUGYFV09C","","null","<img src=""img/flower5.png"" style=""width:200px; border:14px solid green;"">","null","","","","","","","","",""
"","image-keyboard-response","311","205171","0.0-311.0","3OS4RQUCRA13VIZBZDKSCG8Y0UBFB8","A1VBP1RMKGUXB","3UDTAB6HH6LRO17U79I9TKUGYFV09C","","909","img/flower3.png","76","911","3","1","2","2","1,0,0,1,1,0,1,0,1","0,0,1,1,0,1,0,1,1","2",""
"","html-keyboard-response","312","205472","0.0-312.0","3OS4RQUCRA13VIZBZDKSCG8Y0UBFB8","A1VBP1RMKGUXB","3UDTAB6HH6LRO17U79I9TKUGYFV09C","","null","<img src=""img/flower3.png"" style=""width:200px; border:14px solid green;"">","null","","","","","","","","",""
"","image-keyboard-response","313","206114","0.0-313.0","3OS4RQUCRA13VIZBZDKSCG8Y0UBFB8","A1VBP1RMKGUXB","3UDTAB6HH6LRO17U79I9TKUGYFV09C","","640","img/flower5.png","76","643","3","1","3","2","1,0,0,1,1,0,1,0,1","0,0,1,1,0,1,0,1,1","2",""
"","html-keyboard-response","314","206420","0.0-314.0","3OS4RQUCRA13VIZBZDKSCG8Y0UBFB8","A1VBP1RMKGUXB","3UDTAB6HH6LRO17U79I9TKUGYFV09C","","null","<img src=""img/flower5.png"" style=""width:200px; border:14px solid green;"">","null","","","","","","","","",""
"","image-keyboard-response","315","207224","0.0-315.0","3OS4RQUCRA13VIZBZDKSCG8Y0UBFB8","A1VBP1RMKGUXB","3UDTAB6HH6LRO17U79I9TKUGYFV09C","","802","img/flower3.png","75","803","2","0","2","2","1,0,0,1,1,0,1,0,1","0,0,1,1,0,1,0,1,1","2",""
"","html-keyboard-response","316","207526","0.0-316.0","3OS4RQUCRA13VIZBZDKSCG8Y0UBFB8","A1VBP1RMKGUXB","3UDTAB6HH6LRO17U79I9TKUGYFV09C","","null","<img src=""img/flower3.png"" style=""width:200px;border:14px solid red;"">","null","","","","","","","","",""
"","image-keyboard-response","317","208014","0.0-317.0","3OS4RQUCRA13VIZBZDKSCG8Y0UBFB8","A1VBP1RMKGUXB","3UDTAB6HH6LRO17U79I9TKUGYFV09C","","484","img/flower4.png","76","486","3","1","1","2","1,0,0,1,1,0,1,0,1","0,0,1,1,0,1,0,1,1","2",""
"","html-keyboard-response","318","208316","0.0-318.0","3OS4RQUCRA13VIZBZDKSCG8Y0UBFB8","A1VBP1RMKGUXB","3UDTAB6HH6LRO17U79I9TKUGYFV09C","","null","<img src=""img/flower4.png"" style=""width:200px; border:14px solid green;"">","null","","","","","","","","",""
"","image-keyboard-response","319","208894","0.0-319.0","3OS4RQUCRA13VIZBZDKSCG8Y0UBFB8","A1VBP1RMKGUXB","3UDTAB6HH6LRO17U79I9TKUGYFV09C","","575","img/flower5.png","76","578","3","1","3","2","1,0,0,1,1,0,1,0,1","0,0,1,1,0,1,0,1,1","2",""
"","html-keyboard-response","320","209198","0.0-320.0","3OS4RQUCRA13VIZBZDKSCG8Y0UBFB8","A1VBP1RMKGUXB","3UDTAB6HH6LRO17U79I9TKUGYFV09C","","null","<img src=""img/flower5.png"" style=""width:200px; border:14px solid green;"">","null","","","","","","","","",""
"","image-keyboard-response","321","209996","0.0-321.0","3OS4RQUCRA13VIZBZDKSCG8Y0UBFB8","A1VBP1RMKGUXB","3UDTAB6HH6LRO17U79I9TKUGYFV09C","","796","img/flower5.png","75","798","2","1","3","2","1,0,0,1,1,0,1,0,1","0,0,1,1,0,1,0,1,1","2",""
"","html-keyboard-response","322","210299","0.0-322.0","3OS4RQUCRA13VIZBZDKSCG8Y0UBFB8","A1VBP1RMKGUXB","3UDTAB6HH6LRO17U79I9TKUGYFV09C","","null","<img src=""img/flower5.png"" style=""width:200px; border:14px solid green;"">","null","","","","","","","","",""
"","image-keyboard-response","323","211163","0.0-323.0","3OS4RQUCRA13VIZBZDKSCG8Y0UBFB8","A1VBP1RMKGUXB","3UDTAB6HH6LRO17U79I9TKUGYFV09C","","862","img/flower4.png","75","863","2","0","1","2","1,0,0,1,1,0,1,0,1","0,0,1,1,0,1,0,1,1","2",""
"","html-keyboard-response","324","211464","0.0-324.0","3OS4RQUCRA13VIZBZDKSCG8Y0UBFB8","A1VBP1RMKGUXB","3UDTAB6HH6LRO17U79I9TKUGYFV09C","","null","<img src=""img/flower4.png"" style=""width:200px;border:14px solid red;"">","null","","","","","","","","",""
"","image-keyboard-response","325","211897","0.0-325.0","3OS4RQUCRA13VIZBZDKSCG8Y0UBFB8","A1VBP1RMKGUXB","3UDTAB6HH6LRO17U79I9TKUGYFV09C","","431","img/flower4.png","76","433","3","1","1","2","1,0,0,1,1,0,1,0,1","0,0,1,1,0,1,0,1,1","2",""
"","html-keyboard-response","326","212199","0.0-326.0","3OS4RQUCRA13VIZBZDKSCG8Y0UBFB8","A1VBP1RMKGUXB","3UDTAB6HH6LRO17U79I9TKUGYFV09C","","null","<img src=""img/flower4.png"" style=""width:200px; border:14px solid green;"">","null","","","","","","","","",""
"","image-keyboard-response","327","212783","0.0-327.0","3OS4RQUCRA13VIZBZDKSCG8Y0UBFB8","A1VBP1RMKGUXB","3UDTAB6HH6LRO17U79I9TKUGYFV09C","","581","img/flower3.png","76","582","3","1","2","2","1,0,0,1,1,0,1,0,1","0,0,1,1,0,1,0,1,1","2",""
"","html-keyboard-response","328","213133","0.0-328.0","3OS4RQUCRA13VIZBZDKSCG8Y0UBFB8","A1VBP1RMKGUXB","3UDTAB6HH6LRO17U79I9TKUGYFV09C","","null","<img src=""img/flower3.png"" style=""width:200px; border:14px solid green;"">","null","","","","","","","","",""
"","image-keyboard-response","329","213654","0.0-329.0","3OS4RQUCRA13VIZBZDKSCG8Y0UBFB8","A1VBP1RMKGUXB","3UDTAB6HH6LRO17U79I9TKUGYFV09C","","520","img/flower4.png","76","522","3","1","1","2","1,0,0,1,1,0,1,0,1","0,0,1,1,0,1,0,1,1","2",""
"","html-keyboard-response","330","213957","0.0-330.0","3OS4RQUCRA13VIZBZDKSCG8Y0UBFB8","A1VBP1RMKGUXB","3UDTAB6HH6LRO17U79I9TKUGYFV09C","","null","<img src=""img/flower4.png"" style=""width:200px; border:14px solid green;"">","null","","","","","","","","",""
"","image-keyboard-response","331","214532","0.0-331.0","3OS4RQUCRA13VIZBZDKSCG8Y0UBFB8","A1VBP1RMKGUXB","3UDTAB6HH6LRO17U79I9TKUGYFV09C","","573","img/flower3.png","76","575","3","1","2","2","1,0,0,1,1,0,1,0,1","0,0,1,1,0,1,0,1,1","2",""
"","html-keyboard-response","332","214836","0.0-332.0","3OS4RQUCRA13VIZBZDKSCG8Y0UBFB8","A1VBP1RMKGUXB","3UDTAB6HH6LRO17U79I9TKUGYFV09C","","null","<img src=""img/flower3.png"" style=""width:200px; border:14px solid green;"">","null","","","","","","","","",""
"","image-keyboard-response","333","215415","0.0-333.0","3OS4RQUCRA13VIZBZDKSCG8Y0UBFB8","A1VBP1RMKGUXB","3UDTAB6HH6LRO17U79I9TKUGYFV09C","","576","img/flower4.png","76","578","3","1","1","2","1,0,0,1,1,0,1,0,1","0,0,1,1,0,1,0,1,1","2",""
"","html-keyboard-response","334","215717","0.0-334.0","3OS4RQUCRA13VIZBZDKSCG8Y0UBFB8","A1VBP1RMKGUXB","3UDTAB6HH6LRO17U79I9TKUGYFV09C","","null","<img src=""img/flower4.png"" style=""width:200px; border:14px solid green;"">","null","","","","","","","","",""
"","image-keyboard-response","335","216283","0.0-335.0","3OS4RQUCRA13VIZBZDKSCG8Y0UBFB8","A1VBP1RMKGUXB","3UDTAB6HH6LRO17U79I9TKUGYFV09C","","564","img/flower3.png","76","566","3","1","2","2","1,0,0,1,1,0,1,0,1","0,0,1,1,0,1,0,1,1","2",""
"","html-keyboard-response","336","216587","0.0-336.0","3OS4RQUCRA13VIZBZDKSCG8Y0UBFB8","A1VBP1RMKGUXB","3UDTAB6HH6LRO17U79I9TKUGYFV09C","","null","<img src=""img/flower3.png"" style=""width:200px; border:14px solid green;"">","null","","","","","","","","",""
"","image-keyboard-response","337","217088","0.0-337.0","3OS4RQUCRA13VIZBZDKSCG8Y0UBFB8","A1VBP1RMKGUXB","3UDTAB6HH6LRO17U79I9TKUGYFV09C","","497","img/flower3.png","76","499","3","1","2","2","1,0,0,1,1,0,1,0,1","0,0,1,1,0,1,0,1,1","2",""
"","html-keyboard-response","338","217391","0.0-338.0","3OS4RQUCRA13VIZBZDKSCG8Y0UBFB8","A1VBP1RMKGUXB","3UDTAB6HH6LRO17U79I9TKUGYFV09C","","null","<img src=""img/flower3.png"" style=""width:200px; border:14px solid green;"">","null","","","","","","","","",""
"","image-keyboard-response","339","217979","0.0-339.0","3OS4RQUCRA13VIZBZDKSCG8Y0UBFB8","A1VBP1RMKGUXB","3UDTAB6HH6LRO17U79I9TKUGYFV09C","","586","img/flower4.png","76","588","3","1","1","2","1,0,0,1,1,0,1,0,1","0,0,1,1,0,1,0,1,1","2",""
"","html-keyboard-response","340","218282","0.0-340.0","3OS4RQUCRA13VIZBZDKSCG8Y0UBFB8","A1VBP1RMKGUXB","3UDTAB6HH6LRO17U79I9TKUGYFV09C","","null","<img src=""img/flower4.png"" style=""width:200px; border:14px solid green;"">","null","","","","","","","","",""
"","image-keyboard-response","341","218805","0.0-341.0","3OS4RQUCRA13VIZBZDKSCG8Y0UBFB8","A1VBP1RMKGUXB","3UDTAB6HH6LRO17U79I9TKUGYFV09C","","522","img/flower4.png","76","522","3","1","1","2","1,0,0,1,1,0,1,0,1","0,0,1,1,0,1,0,1,1","2",""
"","html-keyboard-response","342","219108","0.0-342.0","3OS4RQUCRA13VIZBZDKSCG8Y0UBFB8","A1VBP1RMKGUXB","3UDTAB6HH6LRO17U79I9TKUGYFV09C","","null","<img src=""img/flower4.png"" style=""width:200px; border:14px solid green;"">","null","","","","","","","","",""
"","image-keyboard-response","343","219688","0.0-343.0","3OS4RQUCRA13VIZBZDKSCG8Y0UBFB8","A1VBP1RMKGUXB","3UDTAB6HH6LRO17U79I9TKUGYFV09C","","579","img/flower4.png","76","581","3","1","1","2","1,0,0,1,1,0,1,0,1","0,0,1,1,0,1,0,1,1","2",""
"","html-keyboard-response","344","219991","0.0-344.0","3OS4RQUCRA13VIZBZDKSCG8Y0UBFB8","A1VBP1RMKGUXB","3UDTAB6HH6LRO17U79I9TKUGYFV09C","","null","<img src=""img/flower4.png"" style=""width:200px; border:14px solid green;"">","null","","","","","","","","",""
"","image-keyboard-response","345","220510","0.0-345.0","3OS4RQUCRA13VIZBZDKSCG8Y0UBFB8","A1VBP1RMKGUXB","3UDTAB6HH6LRO17U79I9TKUGYFV09C","","515","img/flower3.png","75","518","2","0","2","2","1,0,0,1,1,0,1,0,1","0,0,1,1,0,1,0,1,1","2",""
"","html-keyboard-response","346","220818","0.0-346.0","3OS4RQUCRA13VIZBZDKSCG8Y0UBFB8","A1VBP1RMKGUXB","3UDTAB6HH6LRO17U79I9TKUGYFV09C","","null","<img src=""img/flower3.png"" style=""width:200px;border:14px solid red;"">","null","","","","","","","","",""
"","image-keyboard-response","347","221375","0.0-347.0","3OS4RQUCRA13VIZBZDKSCG8Y0UBFB8","A1VBP1RMKGUXB","3UDTAB6HH6LRO17U79I9TKUGYFV09C","","554","img/flower4.png","76","556","3","1","1","2","1,0,0,1,1,0,1,0,1","0,0,1,1,0,1,0,1,1","2",""
"","html-keyboard-response","348","221679","0.0-348.0","3OS4RQUCRA13VIZBZDKSCG8Y0UBFB8","A1VBP1RMKGUXB","3UDTAB6HH6LRO17U79I9TKUGYFV09C","","null","<img src=""img/flower4.png"" style=""width:200px; border:14px solid green;"">","null","","","","","","","","",""
"","image-keyboard-response","349","222291","0.0-349.0","3OS4RQUCRA13VIZBZDKSCG8Y0UBFB8","A1VBP1RMKGUXB","3UDTAB6HH6LRO17U79I9TKUGYFV09C","","611","img/flower4.png","76","611","3","1","1","2","1,0,0,1,1,0,1,0,1","0,0,1,1,0,1,0,1,1","2",""
"","html-keyboard-response","350","222592","0.0-350.0","3OS4RQUCRA13VIZBZDKSCG8Y0UBFB8","A1VBP1RMKGUXB","3UDTAB6HH6LRO17U79I9TKUGYFV09C","","null","<img src=""img/flower4.png"" style=""width:200px; border:14px solid green;"">","null","","","","","","","","",""
"","image-keyboard-response","351","223583","0.0-351.0","3OS4RQUCRA13VIZBZDKSCG8Y0UBFB8","A1VBP1RMKGUXB","3UDTAB6HH6LRO17U79I9TKUGYFV09C","","986","img/flower3.png","75","988","2","0","2","2","1,0,0,1,1,0,1,0,1","0,0,1,1,0,1,0,1,1","2",""
"","html-keyboard-response","352","223887","0.0-352.0","3OS4RQUCRA13VIZBZDKSCG8Y0UBFB8","A1VBP1RMKGUXB","3UDTAB6HH6LRO17U79I9TKUGYFV09C","","null","<img src=""img/flower3.png"" style=""width:200px;border:14px solid red;"">","null","","","","","","","","",""
"","image-keyboard-response","353","224217","0.0-353.0","3OS4RQUCRA13VIZBZDKSCG8Y0UBFB8","A1VBP1RMKGUXB","3UDTAB6HH6LRO17U79I9TKUGYFV09C","","326","img/flower3.png","76","328","3","1","2","2","1,0,0,1,1,0,1,0,1","0,0,1,1,0,1,0,1,1","2",""
"","html-keyboard-response","354","224518","0.0-354.0","3OS4RQUCRA13VIZBZDKSCG8Y0UBFB8","A1VBP1RMKGUXB","3UDTAB6HH6LRO17U79I9TKUGYFV09C","","null","<img src=""img/flower3.png"" style=""width:200px; border:14px solid green;"">","null","","","","","","","","",""
"","image-keyboard-response","355","224937","0.0-355.0","3OS4RQUCRA13VIZBZDKSCG8Y0UBFB8","A1VBP1RMKGUXB","3UDTAB6HH6LRO17U79I9TKUGYFV09C","","416","img/flower4.png","74","417","1","0","1","2","1,0,0,1,1,0,1,0,1","0,0,1,1,0,1,0,1,1","2",""
"","html-keyboard-response","356","225239","0.0-356.0","3OS4RQUCRA13VIZBZDKSCG8Y0UBFB8","A1VBP1RMKGUXB","3UDTAB6HH6LRO17U79I9TKUGYFV09C","","null","<img src=""img/flower4.png"" style=""width:200px;border:14px solid red;"">","null","","","","","","","","",""
"","image-keyboard-response","357","225855","0.0-357.0","3OS4RQUCRA13VIZBZDKSCG8Y0UBFB8","A1VBP1RMKGUXB","3UDTAB6HH6LRO17U79I9TKUGYFV09C","","613","img/flower4.png","76","615","3","1","1","2","1,0,0,1,1,0,1,0,1","0,0,1,1,0,1,0,1,1","2",""
"","html-keyboard-response","358","226158","0.0-358.0","3OS4RQUCRA13VIZBZDKSCG8Y0UBFB8","A1VBP1RMKGUXB","3UDTAB6HH6LRO17U79I9TKUGYFV09C","","null","<img src=""img/flower4.png"" style=""width:200px; border:14px solid green;"">","null","","","","","","","","",""
"","image-keyboard-response","359","226783","0.0-359.0","3OS4RQUCRA13VIZBZDKSCG8Y0UBFB8","A1VBP1RMKGUXB","3UDTAB6HH6LRO17U79I9TKUGYFV09C","","623","img/flower4.png","76","624","3","1","1","2","1,0,0,1,1,0,1,0,1","0,0,1,1,0,1,0,1,1","2",""
"","html-keyboard-response","360","227084","0.0-360.0","3OS4RQUCRA13VIZBZDKSCG8Y0UBFB8","A1VBP1RMKGUXB","3UDTAB6HH6LRO17U79I9TKUGYFV09C","","null","<img src=""img/flower4.png"" style=""width:200px; border:14px solid green;"">","null","","","","","","","","",""
"","image-keyboard-response","361","227563","0.0-361.0","3OS4RQUCRA13VIZBZDKSCG8Y0UBFB8","A1VBP1RMKGUXB","3UDTAB6HH6LRO17U79I9TKUGYFV09C","","473","img/flower3.png","74","478","1","1","2","2","1,0,0,1,1,0,1,0,1","0,0,1,1,0,1,0,1,1","2",""
"","html-keyboard-response","362","227865","0.0-362.0","3OS4RQUCRA13VIZBZDKSCG8Y0UBFB8","A1VBP1RMKGUXB","3UDTAB6HH6LRO17U79I9TKUGYFV09C","","null","<img src=""img/flower3.png"" style=""width:200px; border:14px solid green;"">","null","","","","","","","","",""
"","instructions","363","230736","0.0-363.0","3OS4RQUCRA13VIZBZDKSCG8Y0UBFB8","A1VBP1RMKGUXB","3UDTAB6HH6LRO17U79I9TKUGYFV09C","[{""page_index"":0,""viewing_time"":2869}]","2869","","","","","","","","","","",""
"","survey-text","364","234796","0.0-364.0","3OS4RQUCRA13VIZBZDKSCG8Y0UBFB8","A1VBP1RMKGUXB","3UDTAB6HH6LRO17U79I9TKUGYFV09C","","4046","","","","","","","","","","","{""Q0"":""A1VBP1RMKGUXB""}"
