"rt","url","trial_type","trial_index","time_elapsed","internal_node_id","assignmentID","mturkID","hitID","success","view_history","stimulus","key_press","reactionTime","a","r","s","reward_cond","responses"
"3444","consent.html","external-html","0","3610","0.0-0.0","36WLNQG780WBP4ZF420MUYNYLZWBEV","A1XODDMY1SJ0H9","3A3KKYU7P33Z3BR9PPFZ5194ZCQMWU","","","","","","","","","",""
"","","fullscreen","1","6297","0.0-1.0","36WLNQG780WBP4ZF420MUYNYLZWBEV","A1XODDMY1SJ0H9","3A3KKYU7P33Z3BR9PPFZ5194ZCQMWU","true","","","","","","","","",""
"67532","","instructions","2","73832","0.0-2.0","36WLNQG780WBP4ZF420MUYNYLZWBEV","A1XODDMY1SJ0H9","3A3KKYU7P33Z3BR9PPFZ5194ZCQMWU","","[{""page_index"":0,""viewing_time"":5385},{""page_index"":1,""viewing_time"":7778},{""page_index"":2,""viewing_time"":2723},{""page_index"":3,""viewing_time"":5600},{""page_index"":4,""viewing_time"":17085},{""page_index"":5,""viewing_time"":20836},{""page_index"":6,""viewing_time"":8123}]","","","","","","","",""
"18921","","instructions","3","92757","0.0-3.0","36WLNQG780WBP4ZF420MUYNYLZWBEV","A1XODDMY1SJ0H9","3A3KKYU7P33Z3BR9PPFZ5194ZCQMWU","","[{""page_index"":0,""viewing_time"":18920}]","","","","","","","",""
"3078","","image-keyboard-response","4","95842","0.0-4.0","36WLNQG780WBP4ZF420MUYNYLZWBEV","A1XODDMY1SJ0H9","3A3KKYU7P33Z3BR9PPFZ5194ZCQMWU","","","img/flower4.png","74","3083","1","1","1","",""
"null","","html-keyboard-response","5","96150","0.0-5.0","36WLNQG780WBP4ZF420MUYNYLZWBEV","A1XODDMY1SJ0H9","3A3KKYU7P33Z3BR9PPFZ5194ZCQMWU","","","<img src=""img/flower4.png"" style=""width:200px; border:14px solid green;"">","null","","","","","",""
"1252","","image-keyboard-response","6","97406","0.0-6.0","36WLNQG780WBP4ZF420MUYNYLZWBEV","A1XODDMY1SJ0H9","3A3KKYU7P33Z3BR9PPFZ5194ZCQMWU","","","img/flower6.png","76","1253","3","1","3","",""
"null","","html-keyboard-response","7","97719","0.0-7.0","36WLNQG780WBP4ZF420MUYNYLZWBEV","A1XODDMY1SJ0H9","3A3KKYU7P33Z3BR9PPFZ5194ZCQMWU","","","<img src=""img/flower6.png"" style=""width:200px; border:14px solid green;"">","null","","","","","",""
"1712","","image-keyboard-response","8","99434","0.0-8.0","36WLNQG780WBP4ZF420MUYNYLZWBEV","A1XODDMY1SJ0H9","3A3KKYU7P33Z3BR9PPFZ5194ZCQMWU","","","img/flower6.png","76","1713","3","1","3","",""
"null","","html-keyboard-response","9","99748","0.0-9.0","36WLNQG780WBP4ZF420MUYNYLZWBEV","A1XODDMY1SJ0H9","3A3KKYU7P33Z3BR9PPFZ5194ZCQMWU","","","<img src=""img/flower6.png"" style=""width:200px; border:14px solid green;"">","null","","","","","",""
"1249","","image-keyboard-response","10","100999","0.0-10.0","36WLNQG780WBP4ZF420MUYNYLZWBEV","A1XODDMY1SJ0H9","3A3KKYU7P33Z3BR9PPFZ5194ZCQMWU","","","img/flower5.png","75","1250","2","1","2","",""
"null","","html-keyboard-response","11","101306","0.0-11.0","36WLNQG780WBP4ZF420MUYNYLZWBEV","A1XODDMY1SJ0H9","3A3KKYU7P33Z3BR9PPFZ5194ZCQMWU","","","<img src=""img/flower5.png"" style=""width:200px; border:14px solid green;"">","null","","","","","",""
"932","","image-keyboard-response","12","102243","0.0-12.0","36WLNQG780WBP4ZF420MUYNYLZWBEV","A1XODDMY1SJ0H9","3A3KKYU7P33Z3BR9PPFZ5194ZCQMWU","","","img/flower6.png","76","937","3","1","3","",""
"null","","html-keyboard-response","13","102553","0.0-13.0","36WLNQG780WBP4ZF420MUYNYLZWBEV","A1XODDMY1SJ0H9","3A3KKYU7P33Z3BR9PPFZ5194ZCQMWU","","","<img src=""img/flower6.png"" style=""width:200px; border:14px solid green;"">","null","","","","","",""
"784","","image-keyboard-response","14","103340","0.0-14.0","36WLNQG780WBP4ZF420MUYNYLZWBEV","A1XODDMY1SJ0H9","3A3KKYU7P33Z3BR9PPFZ5194ZCQMWU","","","img/flower4.png","74","786","1","1","1","",""
"null","","html-keyboard-response","15","103651","0.0-15.0","36WLNQG780WBP4ZF420MUYNYLZWBEV","A1XODDMY1SJ0H9","3A3KKYU7P33Z3BR9PPFZ5194ZCQMWU","","","<img src=""img/flower4.png"" style=""width:200px; border:14px solid green;"">","null","","","","","",""
"1011","","image-keyboard-response","16","104665","0.0-16.0","36WLNQG780WBP4ZF420MUYNYLZWBEV","A1XODDMY1SJ0H9","3A3KKYU7P33Z3BR9PPFZ5194ZCQMWU","","","img/flower4.png","74","1014","1","1","1","",""
"null","","html-keyboard-response","17","104970","0.0-17.0","36WLNQG780WBP4ZF420MUYNYLZWBEV","A1XODDMY1SJ0H9","3A3KKYU7P33Z3BR9PPFZ5194ZCQMWU","","","<img src=""img/flower4.png"" style=""width:200px; border:14px solid green;"">","null","","","","","",""
"943","","image-keyboard-response","18","105914","0.0-18.0","36WLNQG780WBP4ZF420MUYNYLZWBEV","A1XODDMY1SJ0H9","3A3KKYU7P33Z3BR9PPFZ5194ZCQMWU","","","img/flower4.png","74","943","1","1","1","",""
"null","","html-keyboard-response","19","106226","0.0-19.0","36WLNQG780WBP4ZF420MUYNYLZWBEV","A1XODDMY1SJ0H9","3A3KKYU7P33Z3BR9PPFZ5194ZCQMWU","","","<img src=""img/flower4.png"" style=""width:200px; border:14px solid green;"">","null","","","","","",""
"2285","","image-keyboard-response","20","108515","0.0-20.0","36WLNQG780WBP4ZF420MUYNYLZWBEV","A1XODDMY1SJ0H9","3A3KKYU7P33Z3BR9PPFZ5194ZCQMWU","","","img/flower5.png","74","2289","1","0","2","",""
"null","","html-keyboard-response","21","108830","0.0-21.0","36WLNQG780WBP4ZF420MUYNYLZWBEV","A1XODDMY1SJ0H9","3A3KKYU7P33Z3BR9PPFZ5194ZCQMWU","","","<img src=""img/flower5.png"" style=""width:200px;border:14px solid red;"">","null","","","","","",""
"377","","image-keyboard-response","22","109213","0.0-22.0","36WLNQG780WBP4ZF420MUYNYLZWBEV","A1XODDMY1SJ0H9","3A3KKYU7P33Z3BR9PPFZ5194ZCQMWU","","","img/flower4.png","75","381","2","0","1","",""
"null","","html-keyboard-response","23","109516","0.0-23.0","36WLNQG780WBP4ZF420MUYNYLZWBEV","A1XODDMY1SJ0H9","3A3KKYU7P33Z3BR9PPFZ5194ZCQMWU","","","<img src=""img/flower4.png"" style=""width:200px;border:14px solid red;"">","null","","","","","",""
"1256","","image-keyboard-response","24","110775","0.0-24.0","36WLNQG780WBP4ZF420MUYNYLZWBEV","A1XODDMY1SJ0H9","3A3KKYU7P33Z3BR9PPFZ5194ZCQMWU","","","img/flower4.png","74","1258","1","1","1","",""
"null","","html-keyboard-response","25","111086","0.0-25.0","36WLNQG780WBP4ZF420MUYNYLZWBEV","A1XODDMY1SJ0H9","3A3KKYU7P33Z3BR9PPFZ5194ZCQMWU","","","<img src=""img/flower4.png"" style=""width:200px; border:14px solid green;"">","null","","","","","",""
"1477","","image-keyboard-response","26","112568","0.0-26.0","36WLNQG780WBP4ZF420MUYNYLZWBEV","A1XODDMY1SJ0H9","3A3KKYU7P33Z3BR9PPFZ5194ZCQMWU","","","img/flower4.png","74","1481","1","1","1","",""
"null","","html-keyboard-response","27","112874","0.0-27.0","36WLNQG780WBP4ZF420MUYNYLZWBEV","A1XODDMY1SJ0H9","3A3KKYU7P33Z3BR9PPFZ5194ZCQMWU","","","<img src=""img/flower4.png"" style=""width:200px; border:14px solid green;"">","null","","","","","",""
"946","","image-keyboard-response","28","113822","0.0-28.0","36WLNQG780WBP4ZF420MUYNYLZWBEV","A1XODDMY1SJ0H9","3A3KKYU7P33Z3BR9PPFZ5194ZCQMWU","","","img/flower4.png","74","948","1","1","1","",""
"null","","html-keyboard-response","29","114131","0.0-29.0","36WLNQG780WBP4ZF420MUYNYLZWBEV","A1XODDMY1SJ0H9","3A3KKYU7P33Z3BR9PPFZ5194ZCQMWU","","","<img src=""img/flower4.png"" style=""width:200px; border:14px solid green;"">","null","","","","","",""
"864","","image-keyboard-response","30","114999","0.0-30.0","36WLNQG780WBP4ZF420MUYNYLZWBEV","A1XODDMY1SJ0H9","3A3KKYU7P33Z3BR9PPFZ5194ZCQMWU","","","img/flower6.png","76","867","3","1","3","",""
"null","","html-keyboard-response","31","115307","0.0-31.0","36WLNQG780WBP4ZF420MUYNYLZWBEV","A1XODDMY1SJ0H9","3A3KKYU7P33Z3BR9PPFZ5194ZCQMWU","","","<img src=""img/flower6.png"" style=""width:200px; border:14px solid green;"">","null","","","","","",""
"2262","","image-keyboard-response","32","117572","0.0-32.0","36WLNQG780WBP4ZF420MUYNYLZWBEV","A1XODDMY1SJ0H9","3A3KKYU7P33Z3BR9PPFZ5194ZCQMWU","","","img/flower5.png","75","2264","2","0","2","",""
"null","","html-keyboard-response","33","117881","0.0-33.0","36WLNQG780WBP4ZF420MUYNYLZWBEV","A1XODDMY1SJ0H9","3A3KKYU7P33Z3BR9PPFZ5194ZCQMWU","","","<img src=""img/flower5.png"" style=""width:200px;border:14px solid red;"">","null","","","","","",""
"1177","","image-keyboard-response","34","119062","0.0-34.0","36WLNQG780WBP4ZF420MUYNYLZWBEV","A1XODDMY1SJ0H9","3A3KKYU7P33Z3BR9PPFZ5194ZCQMWU","","","img/flower5.png","74","1179","1","0","2","",""
"null","","html-keyboard-response","35","119366","0.0-35.0","36WLNQG780WBP4ZF420MUYNYLZWBEV","A1XODDMY1SJ0H9","3A3KKYU7P33Z3BR9PPFZ5194ZCQMWU","","","<img src=""img/flower5.png"" style=""width:200px;border:14px solid red;"">","null","","","","","",""
"953","","image-keyboard-response","36","120322","0.0-36.0","36WLNQG780WBP4ZF420MUYNYLZWBEV","A1XODDMY1SJ0H9","3A3KKYU7P33Z3BR9PPFZ5194ZCQMWU","","","img/flower6.png","76","955","3","0","3","",""
"null","","html-keyboard-response","37","120627","0.0-37.0","36WLNQG780WBP4ZF420MUYNYLZWBEV","A1XODDMY1SJ0H9","3A3KKYU7P33Z3BR9PPFZ5194ZCQMWU","","","<img src=""img/flower6.png"" style=""width:200px;border:14px solid red;"">","null","","","","","",""
"1740","","image-keyboard-response","38","122371","0.0-38.0","36WLNQG780WBP4ZF420MUYNYLZWBEV","A1XODDMY1SJ0H9","3A3KKYU7P33Z3BR9PPFZ5194ZCQMWU","","","img/flower4.png","74","1743","1","0","1","",""
"null","","html-keyboard-response","39","122677","0.0-39.0","36WLNQG780WBP4ZF420MUYNYLZWBEV","A1XODDMY1SJ0H9","3A3KKYU7P33Z3BR9PPFZ5194ZCQMWU","","","<img src=""img/flower4.png"" style=""width:200px;border:14px solid red;"">","null","","","","","",""
"1013","","image-keyboard-response","40","123694","0.0-40.0","36WLNQG780WBP4ZF420MUYNYLZWBEV","A1XODDMY1SJ0H9","3A3KKYU7P33Z3BR9PPFZ5194ZCQMWU","","","img/flower6.png","76","1016","3","1","3","",""
"null","","html-keyboard-response","41","124001","0.0-41.0","36WLNQG780WBP4ZF420MUYNYLZWBEV","A1XODDMY1SJ0H9","3A3KKYU7P33Z3BR9PPFZ5194ZCQMWU","","","<img src=""img/flower6.png"" style=""width:200px; border:14px solid green;"">","null","","","","","",""
"1758","","image-keyboard-response","42","125764","0.0-42.0","36WLNQG780WBP4ZF420MUYNYLZWBEV","A1XODDMY1SJ0H9","3A3KKYU7P33Z3BR9PPFZ5194ZCQMWU","","","img/flower5.png","74","1760","1","0","2","",""
"null","","html-keyboard-response","43","126070","0.0-43.0","36WLNQG780WBP4ZF420MUYNYLZWBEV","A1XODDMY1SJ0H9","3A3KKYU7P33Z3BR9PPFZ5194ZCQMWU","","","<img src=""img/flower5.png"" style=""width:200px;border:14px solid red;"">","null","","","","","",""
"3122","","image-keyboard-response","44","129193","0.0-44.0","36WLNQG780WBP4ZF420MUYNYLZWBEV","A1XODDMY1SJ0H9","3A3KKYU7P33Z3BR9PPFZ5194ZCQMWU","","","img/flower5.png","75","3124","2","1","2","",""
"null","","html-keyboard-response","45","129500","0.0-45.0","36WLNQG780WBP4ZF420MUYNYLZWBEV","A1XODDMY1SJ0H9","3A3KKYU7P33Z3BR9PPFZ5194ZCQMWU","","","<img src=""img/flower5.png"" style=""width:200px; border:14px solid green;"">","null","","","","","",""
"886","","image-keyboard-response","46","130389","0.0-46.0","36WLNQG780WBP4ZF420MUYNYLZWBEV","A1XODDMY1SJ0H9","3A3KKYU7P33Z3BR9PPFZ5194ZCQMWU","","","img/flower6.png","76","888","3","1","3","",""
"null","","html-keyboard-response","47","130706","0.0-47.0","36WLNQG780WBP4ZF420MUYNYLZWBEV","A1XODDMY1SJ0H9","3A3KKYU7P33Z3BR9PPFZ5194ZCQMWU","","","<img src=""img/flower6.png"" style=""width:200px; border:14px solid green;"">","null","","","","","",""
"933","","image-keyboard-response","48","131640","0.0-48.0","36WLNQG780WBP4ZF420MUYNYLZWBEV","A1XODDMY1SJ0H9","3A3KKYU7P33Z3BR9PPFZ5194ZCQMWU","","","img/flower4.png","74","934","1","0","1","",""
"null","","html-keyboard-response","49","131949","0.0-49.0","36WLNQG780WBP4ZF420MUYNYLZWBEV","A1XODDMY1SJ0H9","3A3KKYU7P33Z3BR9PPFZ5194ZCQMWU","","","<img src=""img/flower4.png"" style=""width:200px;border:14px solid red;"">","null","","","","","",""
"1124","","image-keyboard-response","50","133075","0.0-50.0","36WLNQG780WBP4ZF420MUYNYLZWBEV","A1XODDMY1SJ0H9","3A3KKYU7P33Z3BR9PPFZ5194ZCQMWU","","","img/flower5.png","75","1126","2","1","2","",""
"null","","html-keyboard-response","51","133389","0.0-51.0","36WLNQG780WBP4ZF420MUYNYLZWBEV","A1XODDMY1SJ0H9","3A3KKYU7P33Z3BR9PPFZ5194ZCQMWU","","","<img src=""img/flower5.png"" style=""width:200px; border:14px solid green;"">","null","","","","","",""
"964","","image-keyboard-response","52","134354","0.0-52.0","36WLNQG780WBP4ZF420MUYNYLZWBEV","A1XODDMY1SJ0H9","3A3KKYU7P33Z3BR9PPFZ5194ZCQMWU","","","img/flower6.png","76","965","3","1","3","",""
"null","","html-keyboard-response","53","134664","0.0-53.0","36WLNQG780WBP4ZF420MUYNYLZWBEV","A1XODDMY1SJ0H9","3A3KKYU7P33Z3BR9PPFZ5194ZCQMWU","","","<img src=""img/flower6.png"" style=""width:200px; border:14px solid green;"">","null","","","","","",""
"798","","image-keyboard-response","54","135464","0.0-54.0","36WLNQG780WBP4ZF420MUYNYLZWBEV","A1XODDMY1SJ0H9","3A3KKYU7P33Z3BR9PPFZ5194ZCQMWU","","","img/flower5.png","75","799","2","0","2","",""
"null","","html-keyboard-response","55","135769","0.0-55.0","36WLNQG780WBP4ZF420MUYNYLZWBEV","A1XODDMY1SJ0H9","3A3KKYU7P33Z3BR9PPFZ5194ZCQMWU","","","<img src=""img/flower5.png"" style=""width:200px;border:14px solid red;"">","null","","","","","",""
"1144","","image-keyboard-response","56","136914","0.0-56.0","36WLNQG780WBP4ZF420MUYNYLZWBEV","A1XODDMY1SJ0H9","3A3KKYU7P33Z3BR9PPFZ5194ZCQMWU","","","img/flower5.png","74","1145","1","0","2","",""
"null","","html-keyboard-response","57","137221","0.0-57.0","36WLNQG780WBP4ZF420MUYNYLZWBEV","A1XODDMY1SJ0H9","3A3KKYU7P33Z3BR9PPFZ5194ZCQMWU","","","<img src=""img/flower5.png"" style=""width:200px;border:14px solid red;"">","null","","","","","",""
"1259","","image-keyboard-response","58","138482","0.0-58.0","36WLNQG780WBP4ZF420MUYNYLZWBEV","A1XODDMY1SJ0H9","3A3KKYU7P33Z3BR9PPFZ5194ZCQMWU","","","img/flower6.png","76","1261","3","1","3","",""
"null","","html-keyboard-response","59","138797","0.0-59.0","36WLNQG780WBP4ZF420MUYNYLZWBEV","A1XODDMY1SJ0H9","3A3KKYU7P33Z3BR9PPFZ5194ZCQMWU","","","<img src=""img/flower6.png"" style=""width:200px; border:14px solid green;"">","null","","","","","",""
"1135","","image-keyboard-response","60","139934","0.0-60.0","36WLNQG780WBP4ZF420MUYNYLZWBEV","A1XODDMY1SJ0H9","3A3KKYU7P33Z3BR9PPFZ5194ZCQMWU","","","img/flower5.png","75","1136","2","1","2","",""
"null","","html-keyboard-response","61","140239","0.0-61.0","36WLNQG780WBP4ZF420MUYNYLZWBEV","A1XODDMY1SJ0H9","3A3KKYU7P33Z3BR9PPFZ5194ZCQMWU","","","<img src=""img/flower5.png"" style=""width:200px; border:14px solid green;"">","null","","","","","",""
"1031","","image-keyboard-response","62","141275","0.0-62.0","36WLNQG780WBP4ZF420MUYNYLZWBEV","A1XODDMY1SJ0H9","3A3KKYU7P33Z3BR9PPFZ5194ZCQMWU","","","img/flower6.png","76","1033","3","1","3","",""
"null","","html-keyboard-response","63","141589","0.0-63.0","36WLNQG780WBP4ZF420MUYNYLZWBEV","A1XODDMY1SJ0H9","3A3KKYU7P33Z3BR9PPFZ5194ZCQMWU","","","<img src=""img/flower6.png"" style=""width:200px; border:14px solid green;"">","null","","","","","",""
"194304","","instructions","64","335895","0.0-64.0","36WLNQG780WBP4ZF420MUYNYLZWBEV","A1XODDMY1SJ0H9","3A3KKYU7P33Z3BR9PPFZ5194ZCQMWU","","[{""page_index"":0,""viewing_time"":22009},{""page_index"":1,""viewing_time"":172294}]","","","","","","","",""
"2579","","image-keyboard-response","65","338478","0.0-65.0","36WLNQG780WBP4ZF420MUYNYLZWBEV","A1XODDMY1SJ0H9","3A3KKYU7P33Z3BR9PPFZ5194ZCQMWU","","","img/flower4.png","75","2581","2","1","1","",""
"null","","html-keyboard-response","66","338783","0.0-66.0","36WLNQG780WBP4ZF420MUYNYLZWBEV","A1XODDMY1SJ0H9","3A3KKYU7P33Z3BR9PPFZ5194ZCQMWU","","","<img src=""img/flower4.png"" style=""width:200px; border:14px solid green;"">","null","","","","","",""
"1597","","image-keyboard-response","67","340383","0.0-67.0","36WLNQG780WBP4ZF420MUYNYLZWBEV","A1XODDMY1SJ0H9","3A3KKYU7P33Z3BR9PPFZ5194ZCQMWU","","","img/flower5.png","75","1599","2","1","2","",""
"null","","html-keyboard-response","68","340691","0.0-68.0","36WLNQG780WBP4ZF420MUYNYLZWBEV","A1XODDMY1SJ0H9","3A3KKYU7P33Z3BR9PPFZ5194ZCQMWU","","","<img src=""img/flower5.png"" style=""width:200px; border:14px solid green;"">","null","","","","","",""
"1746","","image-keyboard-response","69","342443","0.0-69.0","36WLNQG780WBP4ZF420MUYNYLZWBEV","A1XODDMY1SJ0H9","3A3KKYU7P33Z3BR9PPFZ5194ZCQMWU","","","img/flower5.png","75","1751","2","0","2","",""
"null","","html-keyboard-response","70","342755","0.0-70.0","36WLNQG780WBP4ZF420MUYNYLZWBEV","A1XODDMY1SJ0H9","3A3KKYU7P33Z3BR9PPFZ5194ZCQMWU","","","<img src=""img/flower5.png"" style=""width:200px;border:14px solid red;"">","null","","","","","",""
"1062","","image-keyboard-response","71","343819","0.0-71.0","36WLNQG780WBP4ZF420MUYNYLZWBEV","A1XODDMY1SJ0H9","3A3KKYU7P33Z3BR9PPFZ5194ZCQMWU","","","img/flower5.png","76","1063","3","1","2","",""
"null","","html-keyboard-response","72","344124","0.0-72.0","36WLNQG780WBP4ZF420MUYNYLZWBEV","A1XODDMY1SJ0H9","3A3KKYU7P33Z3BR9PPFZ5194ZCQMWU","","","<img src=""img/flower5.png"" style=""width:200px; border:14px solid green;"">","null","","","","","",""
"1577","","image-keyboard-response","73","345702","0.0-73.0","36WLNQG780WBP4ZF420MUYNYLZWBEV","A1XODDMY1SJ0H9","3A3KKYU7P33Z3BR9PPFZ5194ZCQMWU","","","img/flower4.png","75","1578","2","1","1","",""
"null","","html-keyboard-response","74","346007","0.0-74.0","36WLNQG780WBP4ZF420MUYNYLZWBEV","A1XODDMY1SJ0H9","3A3KKYU7P33Z3BR9PPFZ5194ZCQMWU","","","<img src=""img/flower4.png"" style=""width:200px; border:14px solid green;"">","null","","","","","",""
"1390","","image-keyboard-response","75","347399","0.0-75.0","36WLNQG780WBP4ZF420MUYNYLZWBEV","A1XODDMY1SJ0H9","3A3KKYU7P33Z3BR9PPFZ5194ZCQMWU","","","img/flower4.png","74","1392","1","0","1","",""
"null","","html-keyboard-response","76","347706","0.0-76.0","36WLNQG780WBP4ZF420MUYNYLZWBEV","A1XODDMY1SJ0H9","3A3KKYU7P33Z3BR9PPFZ5194ZCQMWU","","","<img src=""img/flower4.png"" style=""width:200px;border:14px solid red;"">","null","","","","","",""
"1191","","image-keyboard-response","77","348898","0.0-77.0","36WLNQG780WBP4ZF420MUYNYLZWBEV","A1XODDMY1SJ0H9","3A3KKYU7P33Z3BR9PPFZ5194ZCQMWU","","","img/flower4.png","75","1192","2","1","1","",""
"null","","html-keyboard-response","78","349202","0.0-78.0","36WLNQG780WBP4ZF420MUYNYLZWBEV","A1XODDMY1SJ0H9","3A3KKYU7P33Z3BR9PPFZ5194ZCQMWU","","","<img src=""img/flower4.png"" style=""width:200px; border:14px solid green;"">","null","","","","","",""
"1399","","image-keyboard-response","79","350603","0.0-79.0","36WLNQG780WBP4ZF420MUYNYLZWBEV","A1XODDMY1SJ0H9","3A3KKYU7P33Z3BR9PPFZ5194ZCQMWU","","","img/flower5.png","75","1400","2","1","2","",""
"null","","html-keyboard-response","80","350914","0.0-80.0","36WLNQG780WBP4ZF420MUYNYLZWBEV","A1XODDMY1SJ0H9","3A3KKYU7P33Z3BR9PPFZ5194ZCQMWU","","","<img src=""img/flower5.png"" style=""width:200px; border:14px solid green;"">","null","","","","","",""
"2438","","image-keyboard-response","81","353354","0.0-81.0","36WLNQG780WBP4ZF420MUYNYLZWBEV","A1XODDMY1SJ0H9","3A3KKYU7P33Z3BR9PPFZ5194ZCQMWU","","","img/flower5.png","75","2440","2","1","2","",""
"null","","html-keyboard-response","82","353661","0.0-82.0","36WLNQG780WBP4ZF420MUYNYLZWBEV","A1XODDMY1SJ0H9","3A3KKYU7P33Z3BR9PPFZ5194ZCQMWU","","","<img src=""img/flower5.png"" style=""width:200px; border:14px solid green;"">","null","","","","","",""
"1157","","image-keyboard-response","83","354820","0.0-83.0","36WLNQG780WBP4ZF420MUYNYLZWBEV","A1XODDMY1SJ0H9","3A3KKYU7P33Z3BR9PPFZ5194ZCQMWU","","","img/flower6.png","75","1158","2","0","3","",""
"null","","html-keyboard-response","84","355123","0.0-84.0","36WLNQG780WBP4ZF420MUYNYLZWBEV","A1XODDMY1SJ0H9","3A3KKYU7P33Z3BR9PPFZ5194ZCQMWU","","","<img src=""img/flower6.png"" style=""width:200px;border:14px solid red;"">","null","","","","","",""
"1091","","image-keyboard-response","85","356218","0.0-85.0","36WLNQG780WBP4ZF420MUYNYLZWBEV","A1XODDMY1SJ0H9","3A3KKYU7P33Z3BR9PPFZ5194ZCQMWU","","","img/flower4.png","74","1095","1","0","1","",""
"null","","html-keyboard-response","86","356524","0.0-86.0","36WLNQG780WBP4ZF420MUYNYLZWBEV","A1XODDMY1SJ0H9","3A3KKYU7P33Z3BR9PPFZ5194ZCQMWU","","","<img src=""img/flower4.png"" style=""width:200px;border:14px solid red;"">","null","","","","","",""
"1235","","image-keyboard-response","87","357760","0.0-87.0","36WLNQG780WBP4ZF420MUYNYLZWBEV","A1XODDMY1SJ0H9","3A3KKYU7P33Z3BR9PPFZ5194ZCQMWU","","","img/flower5.png","76","1237","3","1","2","",""
"null","","html-keyboard-response","88","358066","0.0-88.0","36WLNQG780WBP4ZF420MUYNYLZWBEV","A1XODDMY1SJ0H9","3A3KKYU7P33Z3BR9PPFZ5194ZCQMWU","","","<img src=""img/flower5.png"" style=""width:200px; border:14px solid green;"">","null","","","","","",""
"899","","image-keyboard-response","89","358968","0.0-89.0","36WLNQG780WBP4ZF420MUYNYLZWBEV","A1XODDMY1SJ0H9","3A3KKYU7P33Z3BR9PPFZ5194ZCQMWU","","","img/flower6.png","76","901","3","1","3","",""
"null","","html-keyboard-response","90","359275","0.0-90.0","36WLNQG780WBP4ZF420MUYNYLZWBEV","A1XODDMY1SJ0H9","3A3KKYU7P33Z3BR9PPFZ5194ZCQMWU","","","<img src=""img/flower6.png"" style=""width:200px; border:14px solid green;"">","null","","","","","",""
"901","","image-keyboard-response","91","360178","0.0-91.0","36WLNQG780WBP4ZF420MUYNYLZWBEV","A1XODDMY1SJ0H9","3A3KKYU7P33Z3BR9PPFZ5194ZCQMWU","","","img/flower6.png","76","902","3","0","3","",""
"null","","html-keyboard-response","92","360484","0.0-92.0","36WLNQG780WBP4ZF420MUYNYLZWBEV","A1XODDMY1SJ0H9","3A3KKYU7P33Z3BR9PPFZ5194ZCQMWU","","","<img src=""img/flower6.png"" style=""width:200px;border:14px solid red;"">","null","","","","","",""
"1395","","image-keyboard-response","93","361882","0.0-93.0","36WLNQG780WBP4ZF420MUYNYLZWBEV","A1XODDMY1SJ0H9","3A3KKYU7P33Z3BR9PPFZ5194ZCQMWU","","","img/flower6.png","74","1398","1","1","3","",""
"null","","html-keyboard-response","94","362184","0.0-94.0","36WLNQG780WBP4ZF420MUYNYLZWBEV","A1XODDMY1SJ0H9","3A3KKYU7P33Z3BR9PPFZ5194ZCQMWU","","","<img src=""img/flower6.png"" style=""width:200px; border:14px solid green;"">","null","","","","","",""
"1037","","image-keyboard-response","95","363224","0.0-95.0","36WLNQG780WBP4ZF420MUYNYLZWBEV","A1XODDMY1SJ0H9","3A3KKYU7P33Z3BR9PPFZ5194ZCQMWU","","","img/flower4.png","74","1039","1","1","1","",""
"null","","html-keyboard-response","96","363534","0.0-96.0","36WLNQG780WBP4ZF420MUYNYLZWBEV","A1XODDMY1SJ0H9","3A3KKYU7P33Z3BR9PPFZ5194ZCQMWU","","","<img src=""img/flower4.png"" style=""width:200px; border:14px solid green;"">","null","","","","","",""
"1787","","image-keyboard-response","97","365322","0.0-97.0","36WLNQG780WBP4ZF420MUYNYLZWBEV","A1XODDMY1SJ0H9","3A3KKYU7P33Z3BR9PPFZ5194ZCQMWU","","","img/flower4.png","75","1788","2","1","1","",""
"null","","html-keyboard-response","98","365627","0.0-98.0","36WLNQG780WBP4ZF420MUYNYLZWBEV","A1XODDMY1SJ0H9","3A3KKYU7P33Z3BR9PPFZ5194ZCQMWU","","","<img src=""img/flower4.png"" style=""width:200px; border:14px solid green;"">","null","","","","","",""
"1419","","image-keyboard-response","99","367049","0.0-99.0","36WLNQG780WBP4ZF420MUYNYLZWBEV","A1XODDMY1SJ0H9","3A3KKYU7P33Z3BR9PPFZ5194ZCQMWU","","","img/flower4.png","75","1422","2","1","1","",""
"null","","html-keyboard-response","100","367354","0.0-100.0","36WLNQG780WBP4ZF420MUYNYLZWBEV","A1XODDMY1SJ0H9","3A3KKYU7P33Z3BR9PPFZ5194ZCQMWU","","","<img src=""img/flower4.png"" style=""width:200px; border:14px solid green;"">","null","","","","","",""
"1891","","image-keyboard-response","101","369247","0.0-101.0","36WLNQG780WBP4ZF420MUYNYLZWBEV","A1XODDMY1SJ0H9","3A3KKYU7P33Z3BR9PPFZ5194ZCQMWU","","","img/flower6.png","75","1893","2","0","3","",""
"null","","html-keyboard-response","102","369553","0.0-102.0","36WLNQG780WBP4ZF420MUYNYLZWBEV","A1XODDMY1SJ0H9","3A3KKYU7P33Z3BR9PPFZ5194ZCQMWU","","","<img src=""img/flower6.png"" style=""width:200px;border:14px solid red;"">","null","","","","","",""
"649","","image-keyboard-response","103","370205","0.0-103.0","36WLNQG780WBP4ZF420MUYNYLZWBEV","A1XODDMY1SJ0H9","3A3KKYU7P33Z3BR9PPFZ5194ZCQMWU","","","img/flower5.png","75","651","2","1","2","",""
"null","","html-keyboard-response","104","370514","0.0-104.0","36WLNQG780WBP4ZF420MUYNYLZWBEV","A1XODDMY1SJ0H9","3A3KKYU7P33Z3BR9PPFZ5194ZCQMWU","","","<img src=""img/flower5.png"" style=""width:200px; border:14px solid green;"">","null","","","","","",""
"1007","","image-keyboard-response","105","371523","0.0-105.0","36WLNQG780WBP4ZF420MUYNYLZWBEV","A1XODDMY1SJ0H9","3A3KKYU7P33Z3BR9PPFZ5194ZCQMWU","","","img/flower6.png","75","1009","2","0","3","",""
"null","","html-keyboard-response","106","371834","0.0-106.0","36WLNQG780WBP4ZF420MUYNYLZWBEV","A1XODDMY1SJ0H9","3A3KKYU7P33Z3BR9PPFZ5194ZCQMWU","","","<img src=""img/flower6.png"" style=""width:200px;border:14px solid red;"">","null","","","","","",""
"594","","image-keyboard-response","107","372444","0.0-107.0","36WLNQG780WBP4ZF420MUYNYLZWBEV","A1XODDMY1SJ0H9","3A3KKYU7P33Z3BR9PPFZ5194ZCQMWU","","","img/flower4.png","74","609","1","1","1","",""
"null","","html-keyboard-response","108","372749","0.0-108.0","36WLNQG780WBP4ZF420MUYNYLZWBEV","A1XODDMY1SJ0H9","3A3KKYU7P33Z3BR9PPFZ5194ZCQMWU","","","<img src=""img/flower4.png"" style=""width:200px; border:14px solid green;"">","null","","","","","",""
"1112","","image-keyboard-response","109","373865","0.0-109.0","36WLNQG780WBP4ZF420MUYNYLZWBEV","A1XODDMY1SJ0H9","3A3KKYU7P33Z3BR9PPFZ5194ZCQMWU","","","img/flower6.png","75","1116","2","0","3","",""
"null","","html-keyboard-response","110","374167","0.0-110.0","36WLNQG780WBP4ZF420MUYNYLZWBEV","A1XODDMY1SJ0H9","3A3KKYU7P33Z3BR9PPFZ5194ZCQMWU","","","<img src=""img/flower6.png"" style=""width:200px;border:14px solid red;"">","null","","","","","",""
"735","","image-keyboard-response","111","374905","0.0-111.0","36WLNQG780WBP4ZF420MUYNYLZWBEV","A1XODDMY1SJ0H9","3A3KKYU7P33Z3BR9PPFZ5194ZCQMWU","","","img/flower5.png","75","737","2","1","2","",""
"null","","html-keyboard-response","112","375206","0.0-112.0","36WLNQG780WBP4ZF420MUYNYLZWBEV","A1XODDMY1SJ0H9","3A3KKYU7P33Z3BR9PPFZ5194ZCQMWU","","","<img src=""img/flower5.png"" style=""width:200px; border:14px solid green;"">","null","","","","","",""
"1452","","image-keyboard-response","113","376661","0.0-113.0","36WLNQG780WBP4ZF420MUYNYLZWBEV","A1XODDMY1SJ0H9","3A3KKYU7P33Z3BR9PPFZ5194ZCQMWU","","","img/flower6.png","75","1454","2","0","3","",""
"null","","html-keyboard-response","114","376982","0.0-114.0","36WLNQG780WBP4ZF420MUYNYLZWBEV","A1XODDMY1SJ0H9","3A3KKYU7P33Z3BR9PPFZ5194ZCQMWU","","","<img src=""img/flower6.png"" style=""width:200px;border:14px solid red;"">","null","","","","","",""
"634","","image-keyboard-response","115","377618","0.0-115.0","36WLNQG780WBP4ZF420MUYNYLZWBEV","A1XODDMY1SJ0H9","3A3KKYU7P33Z3BR9PPFZ5194ZCQMWU","","","img/flower6.png","75","636","2","1","3","",""
"null","","html-keyboard-response","116","377920","0.0-116.0","36WLNQG780WBP4ZF420MUYNYLZWBEV","A1XODDMY1SJ0H9","3A3KKYU7P33Z3BR9PPFZ5194ZCQMWU","","","<img src=""img/flower6.png"" style=""width:200px; border:14px solid green;"">","null","","","","","",""
"3548","","image-keyboard-response","117","381470","0.0-117.0","36WLNQG780WBP4ZF420MUYNYLZWBEV","A1XODDMY1SJ0H9","3A3KKYU7P33Z3BR9PPFZ5194ZCQMWU","","","img/flower5.png","75","3550","2","1","2","",""
"null","","html-keyboard-response","118","381775","0.0-118.0","36WLNQG780WBP4ZF420MUYNYLZWBEV","A1XODDMY1SJ0H9","3A3KKYU7P33Z3BR9PPFZ5194ZCQMWU","","","<img src=""img/flower5.png"" style=""width:200px; border:14px solid green;"">","null","","","","","",""
"1216","","image-keyboard-response","119","382995","0.0-119.0","36WLNQG780WBP4ZF420MUYNYLZWBEV","A1XODDMY1SJ0H9","3A3KKYU7P33Z3BR9PPFZ5194ZCQMWU","","","img/flower6.png","75","1218","2","1","3","",""
"null","","html-keyboard-response","120","383302","0.0-120.0","36WLNQG780WBP4ZF420MUYNYLZWBEV","A1XODDMY1SJ0H9","3A3KKYU7P33Z3BR9PPFZ5194ZCQMWU","","","<img src=""img/flower6.png"" style=""width:200px; border:14px solid green;"">","null","","","","","",""
"1087","","image-keyboard-response","121","384391","0.0-121.0","36WLNQG780WBP4ZF420MUYNYLZWBEV","A1XODDMY1SJ0H9","3A3KKYU7P33Z3BR9PPFZ5194ZCQMWU","","","img/flower4.png","74","1088","1","0","1","",""
"null","","html-keyboard-response","122","384699","0.0-122.0","36WLNQG780WBP4ZF420MUYNYLZWBEV","A1XODDMY1SJ0H9","3A3KKYU7P33Z3BR9PPFZ5194ZCQMWU","","","<img src=""img/flower4.png"" style=""width:200px;border:14px solid red;"">","null","","","","","",""
"1736","","image-keyboard-response","123","386437","0.0-123.0","36WLNQG780WBP4ZF420MUYNYLZWBEV","A1XODDMY1SJ0H9","3A3KKYU7P33Z3BR9PPFZ5194ZCQMWU","","","img/flower5.png","75","1737","2","1","2","",""
"null","","html-keyboard-response","124","386748","0.0-124.0","36WLNQG780WBP4ZF420MUYNYLZWBEV","A1XODDMY1SJ0H9","3A3KKYU7P33Z3BR9PPFZ5194ZCQMWU","","","<img src=""img/flower5.png"" style=""width:200px; border:14px solid green;"">","null","","","","","",""
"5521","","instructions","125","392270","0.0-125.0","36WLNQG780WBP4ZF420MUYNYLZWBEV","A1XODDMY1SJ0H9","3A3KKYU7P33Z3BR9PPFZ5194ZCQMWU","","[{""page_index"":0,""viewing_time"":5520}]","","","","","","","",""
"1976","","image-keyboard-response","126","394249","0.0-126.0","36WLNQG780WBP4ZF420MUYNYLZWBEV","A1XODDMY1SJ0H9","3A3KKYU7P33Z3BR9PPFZ5194ZCQMWU","","","img/flower3.png","74","1979","1","1","2","1,0.5,0.5,0.5,1,0.5,0.5,0.5,1",""
"null","","html-keyboard-response","127","394568","0.0-127.0","36WLNQG780WBP4ZF420MUYNYLZWBEV","A1XODDMY1SJ0H9","3A3KKYU7P33Z3BR9PPFZ5194ZCQMWU","","","<img src=""img/flower3.png"" style=""width:200px; border:14px solid green;"">","null","","","","","",""
"1354","","image-keyboard-response","128","395923","0.0-128.0","36WLNQG780WBP4ZF420MUYNYLZWBEV","A1XODDMY1SJ0H9","3A3KKYU7P33Z3BR9PPFZ5194ZCQMWU","","","img/flower3.png","74","1355","1","1","2","1,0.5,0.5,0.5,1,0.5,0.5,0.5,1",""
"null","","html-keyboard-response","129","396239","0.0-129.0","36WLNQG780WBP4ZF420MUYNYLZWBEV","A1XODDMY1SJ0H9","3A3KKYU7P33Z3BR9PPFZ5194ZCQMWU","","","<img src=""img/flower3.png"" style=""width:200px; border:14px solid green;"">","null","","","","","",""
"778","","image-keyboard-response","130","397032","0.0-130.0","36WLNQG780WBP4ZF420MUYNYLZWBEV","A1XODDMY1SJ0H9","3A3KKYU7P33Z3BR9PPFZ5194ZCQMWU","","","img/flower6.png","75","793","2","0","3","1,0.5,0.5,0.5,1,0.5,0.5,0.5,1",""
"null","","html-keyboard-response","131","397346","0.0-131.0","36WLNQG780WBP4ZF420MUYNYLZWBEV","A1XODDMY1SJ0H9","3A3KKYU7P33Z3BR9PPFZ5194ZCQMWU","","","<img src=""img/flower6.png"" style=""width:200px;border:14px solid red;"">","null","","","","","",""
"1011","","image-keyboard-response","132","398359","0.0-132.0","36WLNQG780WBP4ZF420MUYNYLZWBEV","A1XODDMY1SJ0H9","3A3KKYU7P33Z3BR9PPFZ5194ZCQMWU","","","img/flower3.png","74","1013","1","1","2","1,0.5,0.5,0.5,1,0.5,0.5,0.5,1",""
"null","","html-keyboard-response","133","398670","0.0-133.0","36WLNQG780WBP4ZF420MUYNYLZWBEV","A1XODDMY1SJ0H9","3A3KKYU7P33Z3BR9PPFZ5194ZCQMWU","","","<img src=""img/flower3.png"" style=""width:200px; border:14px solid green;"">","null","","","","","",""
"1464","","image-keyboard-response","134","400137","0.0-134.0","36WLNQG780WBP4ZF420MUYNYLZWBEV","A1XODDMY1SJ0H9","3A3KKYU7P33Z3BR9PPFZ5194ZCQMWU","","","img/flower6.png","75","1466","2","0","3","1,0.5,0.5,0.5,1,0.5,0.5,0.5,1",""
"null","","html-keyboard-response","135","400443","0.0-135.0","36WLNQG780WBP4ZF420MUYNYLZWBEV","A1XODDMY1SJ0H9","3A3KKYU7P33Z3BR9PPFZ5194ZCQMWU","","","<img src=""img/flower6.png"" style=""width:200px;border:14px solid red;"">","null","","","","","",""
"628","","image-keyboard-response","136","401079","0.0-136.0","36WLNQG780WBP4ZF420MUYNYLZWBEV","A1XODDMY1SJ0H9","3A3KKYU7P33Z3BR9PPFZ5194ZCQMWU","","","img/flower6.png","74","636","1","0","3","1,0.5,0.5,0.5,1,0.5,0.5,0.5,1",""
"null","","html-keyboard-response","137","401392","0.0-137.0","36WLNQG780WBP4ZF420MUYNYLZWBEV","A1XODDMY1SJ0H9","3A3KKYU7P33Z3BR9PPFZ5194ZCQMWU","","","<img src=""img/flower6.png"" style=""width:200px;border:14px solid red;"">","null","","","","","",""
"1313","","image-keyboard-response","138","402707","0.0-138.0","36WLNQG780WBP4ZF420MUYNYLZWBEV","A1XODDMY1SJ0H9","3A3KKYU7P33Z3BR9PPFZ5194ZCQMWU","","","img/flower6.png","76","1314","3","1","3","1,0.5,0.5,0.5,1,0.5,0.5,0.5,1",""
"null","","html-keyboard-response","139","403009","0.0-139.0","36WLNQG780WBP4ZF420MUYNYLZWBEV","A1XODDMY1SJ0H9","3A3KKYU7P33Z3BR9PPFZ5194ZCQMWU","","","<img src=""img/flower6.png"" style=""width:200px; border:14px solid green;"">","null","","","","","",""
"1361","","image-keyboard-response","140","404377","0.0-140.0","36WLNQG780WBP4ZF420MUYNYLZWBEV","A1XODDMY1SJ0H9","3A3KKYU7P33Z3BR9PPFZ5194ZCQMWU","","","img/flower3.png","74","1363","1","1","2","1,0.5,0.5,0.5,1,0.5,0.5,0.5,1",""
"null","","html-keyboard-response","141","404685","0.0-141.0","36WLNQG780WBP4ZF420MUYNYLZWBEV","A1XODDMY1SJ0H9","3A3KKYU7P33Z3BR9PPFZ5194ZCQMWU","","","<img src=""img/flower3.png"" style=""width:200px; border:14px solid green;"">","null","","","","","",""
"941","","image-keyboard-response","142","405631","0.0-142.0","36WLNQG780WBP4ZF420MUYNYLZWBEV","A1XODDMY1SJ0H9","3A3KKYU7P33Z3BR9PPFZ5194ZCQMWU","","","img/flower3.png","74","943","1","1","2","1,0.5,0.5,0.5,1,0.5,0.5,0.5,1",""
"null","","html-keyboard-response","143","405939","0.0-143.0","36WLNQG780WBP4ZF420MUYNYLZWBEV","A1XODDMY1SJ0H9","3A3KKYU7P33Z3BR9PPFZ5194ZCQMWU","","","<img src=""img/flower3.png"" style=""width:200px; border:14px solid green;"">","null","","","","","",""
"921","","image-keyboard-response","144","406861","0.0-144.0","36WLNQG780WBP4ZF420MUYNYLZWBEV","A1XODDMY1SJ0H9","3A3KKYU7P33Z3BR9PPFZ5194ZCQMWU","","","img/flower5.png","75","921","2","1","1","1,0.5,0.5,0.5,1,0.5,0.5,0.5,1",""
"null","","html-keyboard-response","145","407164","0.0-145.0","36WLNQG780WBP4ZF420MUYNYLZWBEV","A1XODDMY1SJ0H9","3A3KKYU7P33Z3BR9PPFZ5194ZCQMWU","","","<img src=""img/flower5.png"" style=""width:200px; border:14px solid green;"">","null","","","","","",""
"867","","image-keyboard-response","146","408033","0.0-146.0","36WLNQG780WBP4ZF420MUYNYLZWBEV","A1XODDMY1SJ0H9","3A3KKYU7P33Z3BR9PPFZ5194ZCQMWU","","","img/flower3.png","74","869","1","0","2","1,0.5,0.5,0.5,1,0.5,0.5,0.5,1",""
"null","","html-keyboard-response","147","408340","0.0-147.0","36WLNQG780WBP4ZF420MUYNYLZWBEV","A1XODDMY1SJ0H9","3A3KKYU7P33Z3BR9PPFZ5194ZCQMWU","","","<img src=""img/flower3.png"" style=""width:200px;border:14px solid red;"">","null","","","","","",""
"1208","","image-keyboard-response","148","409550","0.0-148.0","36WLNQG780WBP4ZF420MUYNYLZWBEV","A1XODDMY1SJ0H9","3A3KKYU7P33Z3BR9PPFZ5194ZCQMWU","","","img/flower5.png","75","1209","2","0","1","1,0.5,0.5,0.5,1,0.5,0.5,0.5,1",""
"null","","html-keyboard-response","149","409861","0.0-149.0","36WLNQG780WBP4ZF420MUYNYLZWBEV","A1XODDMY1SJ0H9","3A3KKYU7P33Z3BR9PPFZ5194ZCQMWU","","","<img src=""img/flower5.png"" style=""width:200px;border:14px solid red;"">","null","","","","","",""
"3183","","image-keyboard-response","150","413046","0.0-150.0","36WLNQG780WBP4ZF420MUYNYLZWBEV","A1XODDMY1SJ0H9","3A3KKYU7P33Z3BR9PPFZ5194ZCQMWU","","","img/flower5.png","76","3185","3","0","1","1,0.5,0.5,0.5,1,0.5,0.5,0.5,1",""
"null","","html-keyboard-response","151","413351","0.0-151.0","36WLNQG780WBP4ZF420MUYNYLZWBEV","A1XODDMY1SJ0H9","3A3KKYU7P33Z3BR9PPFZ5194ZCQMWU","","","<img src=""img/flower5.png"" style=""width:200px;border:14px solid red;"">","null","","","","","",""
"468","","image-keyboard-response","152","413822","0.0-152.0","36WLNQG780WBP4ZF420MUYNYLZWBEV","A1XODDMY1SJ0H9","3A3KKYU7P33Z3BR9PPFZ5194ZCQMWU","","","img/flower3.png","75","471","2","1","2","1,0.5,0.5,0.5,1,0.5,0.5,0.5,1",""
"null","","html-keyboard-response","153","414127","0.0-153.0","36WLNQG780WBP4ZF420MUYNYLZWBEV","A1XODDMY1SJ0H9","3A3KKYU7P33Z3BR9PPFZ5194ZCQMWU","","","<img src=""img/flower3.png"" style=""width:200px; border:14px solid green;"">","null","","","","","",""
"1456","","image-keyboard-response","154","415586","0.0-154.0","36WLNQG780WBP4ZF420MUYNYLZWBEV","A1XODDMY1SJ0H9","3A3KKYU7P33Z3BR9PPFZ5194ZCQMWU","","","img/flower5.png","75","1458","2","1","1","1,0.5,0.5,0.5,1,0.5,0.5,0.5,1",""
"null","","html-keyboard-response","155","415898","0.0-155.0","36WLNQG780WBP4ZF420MUYNYLZWBEV","A1XODDMY1SJ0H9","3A3KKYU7P33Z3BR9PPFZ5194ZCQMWU","","","<img src=""img/flower5.png"" style=""width:200px; border:14px solid green;"">","null","","","","","",""
"911","","image-keyboard-response","156","416813","0.0-156.0","36WLNQG780WBP4ZF420MUYNYLZWBEV","A1XODDMY1SJ0H9","3A3KKYU7P33Z3BR9PPFZ5194ZCQMWU","","","img/flower6.png","76","914","3","1","3","1,0.5,0.5,0.5,1,0.5,0.5,0.5,1",""
"null","","html-keyboard-response","157","417121","0.0-157.0","36WLNQG780WBP4ZF420MUYNYLZWBEV","A1XODDMY1SJ0H9","3A3KKYU7P33Z3BR9PPFZ5194ZCQMWU","","","<img src=""img/flower6.png"" style=""width:200px; border:14px solid green;"">","null","","","","","",""
"796","","image-keyboard-response","158","417921","0.0-158.0","36WLNQG780WBP4ZF420MUYNYLZWBEV","A1XODDMY1SJ0H9","3A3KKYU7P33Z3BR9PPFZ5194ZCQMWU","","","img/flower3.png","74","799","1","0","2","1,0.5,0.5,0.5,1,0.5,0.5,0.5,1",""
"null","","html-keyboard-response","159","418228","0.0-159.0","36WLNQG780WBP4ZF420MUYNYLZWBEV","A1XODDMY1SJ0H9","3A3KKYU7P33Z3BR9PPFZ5194ZCQMWU","","","<img src=""img/flower3.png"" style=""width:200px;border:14px solid red;"">","null","","","","","",""
"846","","image-keyboard-response","160","419077","0.0-160.0","36WLNQG780WBP4ZF420MUYNYLZWBEV","A1XODDMY1SJ0H9","3A3KKYU7P33Z3BR9PPFZ5194ZCQMWU","","","img/flower5.png","75","848","2","0","1","1,0.5,0.5,0.5,1,0.5,0.5,0.5,1",""
"null","","html-keyboard-response","161","419382","0.0-161.0","36WLNQG780WBP4ZF420MUYNYLZWBEV","A1XODDMY1SJ0H9","3A3KKYU7P33Z3BR9PPFZ5194ZCQMWU","","","<img src=""img/flower5.png"" style=""width:200px;border:14px solid red;"">","null","","","","","",""
"607","","image-keyboard-response","162","419992","0.0-162.0","36WLNQG780WBP4ZF420MUYNYLZWBEV","A1XODDMY1SJ0H9","3A3KKYU7P33Z3BR9PPFZ5194ZCQMWU","","","img/flower6.png","76","609","3","1","3","1,0.5,0.5,0.5,1,0.5,0.5,0.5,1",""
"null","","html-keyboard-response","163","420305","0.0-163.0","36WLNQG780WBP4ZF420MUYNYLZWBEV","A1XODDMY1SJ0H9","3A3KKYU7P33Z3BR9PPFZ5194ZCQMWU","","","<img src=""img/flower6.png"" style=""width:200px; border:14px solid green;"">","null","","","","","",""
"1487","","image-keyboard-response","164","421804","0.0-164.0","36WLNQG780WBP4ZF420MUYNYLZWBEV","A1XODDMY1SJ0H9","3A3KKYU7P33Z3BR9PPFZ5194ZCQMWU","","","img/flower5.png","75","1497","2","1","1","1,0.5,0.5,0.5,1,0.5,0.5,0.5,1",""
"null","","html-keyboard-response","165","422108","0.0-165.0","36WLNQG780WBP4ZF420MUYNYLZWBEV","A1XODDMY1SJ0H9","3A3KKYU7P33Z3BR9PPFZ5194ZCQMWU","","","<img src=""img/flower5.png"" style=""width:200px; border:14px solid green;"">","null","","","","","",""
"2195","","image-keyboard-response","166","424304","0.0-166.0","36WLNQG780WBP4ZF420MUYNYLZWBEV","A1XODDMY1SJ0H9","3A3KKYU7P33Z3BR9PPFZ5194ZCQMWU","","","img/flower3.png","74","2196","1","1","2","1,0.5,0.5,0.5,1,0.5,0.5,0.5,1",""
"null","","html-keyboard-response","167","424611","0.0-167.0","36WLNQG780WBP4ZF420MUYNYLZWBEV","A1XODDMY1SJ0H9","3A3KKYU7P33Z3BR9PPFZ5194ZCQMWU","","","<img src=""img/flower3.png"" style=""width:200px; border:14px solid green;"">","null","","","","","",""
"30832","","image-keyboard-response","168","455447","0.0-168.0","36WLNQG780WBP4ZF420MUYNYLZWBEV","A1XODDMY1SJ0H9","3A3KKYU7P33Z3BR9PPFZ5194ZCQMWU","","","img/flower6.png","76","30836","3","1","3","1,0.5,0.5,0.5,1,0.5,0.5,0.5,1",""
"null","","html-keyboard-response","169","455760","0.0-169.0","36WLNQG780WBP4ZF420MUYNYLZWBEV","A1XODDMY1SJ0H9","3A3KKYU7P33Z3BR9PPFZ5194ZCQMWU","","","<img src=""img/flower6.png"" style=""width:200px; border:14px solid green;"">","null","","","","","",""
"911","","image-keyboard-response","170","456672","0.0-170.0","36WLNQG780WBP4ZF420MUYNYLZWBEV","A1XODDMY1SJ0H9","3A3KKYU7P33Z3BR9PPFZ5194ZCQMWU","","","img/flower6.png","76","913","3","1","3","1,0.5,0.5,0.5,1,0.5,0.5,0.5,1",""
"null","","html-keyboard-response","171","456977","0.0-171.0","36WLNQG780WBP4ZF420MUYNYLZWBEV","A1XODDMY1SJ0H9","3A3KKYU7P33Z3BR9PPFZ5194ZCQMWU","","","<img src=""img/flower6.png"" style=""width:200px; border:14px solid green;"">","null","","","","","",""
"1556","","image-keyboard-response","172","458538","0.0-172.0","36WLNQG780WBP4ZF420MUYNYLZWBEV","A1XODDMY1SJ0H9","3A3KKYU7P33Z3BR9PPFZ5194ZCQMWU","","","img/flower5.png","75","1558","2","0","1","1,0.5,0.5,0.5,1,0.5,0.5,0.5,1",""
"null","","html-keyboard-response","173","458845","0.0-173.0","36WLNQG780WBP4ZF420MUYNYLZWBEV","A1XODDMY1SJ0H9","3A3KKYU7P33Z3BR9PPFZ5194ZCQMWU","","","<img src=""img/flower5.png"" style=""width:200px;border:14px solid red;"">","null","","","","","",""
"566","","image-keyboard-response","174","459414","0.0-174.0","36WLNQG780WBP4ZF420MUYNYLZWBEV","A1XODDMY1SJ0H9","3A3KKYU7P33Z3BR9PPFZ5194ZCQMWU","","","img/flower5.png","74","568","1","1","1","1,0.5,0.5,0.5,1,0.5,0.5,0.5,1",""
"null","","html-keyboard-response","175","459721","0.0-175.0","36WLNQG780WBP4ZF420MUYNYLZWBEV","A1XODDMY1SJ0H9","3A3KKYU7P33Z3BR9PPFZ5194ZCQMWU","","","<img src=""img/flower5.png"" style=""width:200px; border:14px solid green;"">","null","","","","","",""
"1604","","image-keyboard-response","176","461328","0.0-176.0","36WLNQG780WBP4ZF420MUYNYLZWBEV","A1XODDMY1SJ0H9","3A3KKYU7P33Z3BR9PPFZ5194ZCQMWU","","","img/flower6.png","76","1606","3","1","3","1,0.5,0.5,0.5,1,0.5,0.5,0.5,1",""
"null","","html-keyboard-response","177","461635","0.0-177.0","36WLNQG780WBP4ZF420MUYNYLZWBEV","A1XODDMY1SJ0H9","3A3KKYU7P33Z3BR9PPFZ5194ZCQMWU","","","<img src=""img/flower6.png"" style=""width:200px; border:14px solid green;"">","null","","","","","",""
"1476","","image-keyboard-response","178","463114","0.0-178.0","36WLNQG780WBP4ZF420MUYNYLZWBEV","A1XODDMY1SJ0H9","3A3KKYU7P33Z3BR9PPFZ5194ZCQMWU","","","img/flower5.png","75","1478","2","1","1","1,0.5,0.5,0.5,1,0.5,0.5,0.5,1",""
"null","","html-keyboard-response","179","463422","0.0-179.0","36WLNQG780WBP4ZF420MUYNYLZWBEV","A1XODDMY1SJ0H9","3A3KKYU7P33Z3BR9PPFZ5194ZCQMWU","","","<img src=""img/flower5.png"" style=""width:200px; border:14px solid green;"">","null","","","","","",""
"1335","","image-keyboard-response","180","464759","0.0-180.0","36WLNQG780WBP4ZF420MUYNYLZWBEV","A1XODDMY1SJ0H9","3A3KKYU7P33Z3BR9PPFZ5194ZCQMWU","","","img/flower3.png","74","1337","1","0","2","1,0.5,0.5,0.5,1,0.5,0.5,0.5,1",""
"null","","html-keyboard-response","181","465062","0.0-181.0","36WLNQG780WBP4ZF420MUYNYLZWBEV","A1XODDMY1SJ0H9","3A3KKYU7P33Z3BR9PPFZ5194ZCQMWU","","","<img src=""img/flower3.png"" style=""width:200px;border:14px solid red;"">","null","","","","","",""
"783","","image-keyboard-response","182","465863","0.0-182.0","36WLNQG780WBP4ZF420MUYNYLZWBEV","A1XODDMY1SJ0H9","3A3KKYU7P33Z3BR9PPFZ5194ZCQMWU","","","img/flower3.png","75","800","2","1","2","1,0.5,0.5,0.5,1,0.5,0.5,0.5,1",""
"null","","html-keyboard-response","183","466190","0.0-183.0","36WLNQG780WBP4ZF420MUYNYLZWBEV","A1XODDMY1SJ0H9","3A3KKYU7P33Z3BR9PPFZ5194ZCQMWU","","","<img src=""img/flower3.png"" style=""width:200px; border:14px solid green;"">","null","","","","","",""
"2388","","image-keyboard-response","184","468581","0.0-184.0","36WLNQG780WBP4ZF420MUYNYLZWBEV","A1XODDMY1SJ0H9","3A3KKYU7P33Z3BR9PPFZ5194ZCQMWU","","","img/flower6.png","76","2391","3","1","3","1,0.5,0.5,0.5,1,0.5,0.5,0.5,1",""
"null","","html-keyboard-response","185","468885","0.0-185.0","36WLNQG780WBP4ZF420MUYNYLZWBEV","A1XODDMY1SJ0H9","3A3KKYU7P33Z3BR9PPFZ5194ZCQMWU","","","<img src=""img/flower6.png"" style=""width:200px; border:14px solid green;"">","null","","","","","",""
"1526","","image-keyboard-response","186","470414","0.0-186.0","36WLNQG780WBP4ZF420MUYNYLZWBEV","A1XODDMY1SJ0H9","3A3KKYU7P33Z3BR9PPFZ5194ZCQMWU","","","img/flower5.png","75","1527","2","1","1","1,0.5,0.5,0.5,1,0.5,0.5,0.5,1",""
"null","","html-keyboard-response","187","470719","0.0-187.0","36WLNQG780WBP4ZF420MUYNYLZWBEV","A1XODDMY1SJ0H9","3A3KKYU7P33Z3BR9PPFZ5194ZCQMWU","","","<img src=""img/flower5.png"" style=""width:200px; border:14px solid green;"">","null","","","","","",""
"937","","image-keyboard-response","188","471657","0.0-188.0","36WLNQG780WBP4ZF420MUYNYLZWBEV","A1XODDMY1SJ0H9","3A3KKYU7P33Z3BR9PPFZ5194ZCQMWU","","","img/flower6.png","76","937","3","1","3","1,0.5,0.5,0.5,1,0.5,0.5,0.5,1",""
"null","","html-keyboard-response","189","471962","0.0-189.0","36WLNQG780WBP4ZF420MUYNYLZWBEV","A1XODDMY1SJ0H9","3A3KKYU7P33Z3BR9PPFZ5194ZCQMWU","","","<img src=""img/flower6.png"" style=""width:200px; border:14px solid green;"">","null","","","","","",""
"875","","image-keyboard-response","190","472844","0.0-190.0","36WLNQG780WBP4ZF420MUYNYLZWBEV","A1XODDMY1SJ0H9","3A3KKYU7P33Z3BR9PPFZ5194ZCQMWU","","","img/flower5.png","74","882","1","1","1","1,0.5,0.5,0.5,1,0.5,0.5,0.5,1",""
"null","","html-keyboard-response","191","473149","0.0-191.0","36WLNQG780WBP4ZF420MUYNYLZWBEV","A1XODDMY1SJ0H9","3A3KKYU7P33Z3BR9PPFZ5194ZCQMWU","","","<img src=""img/flower5.png"" style=""width:200px; border:14px solid green;"">","null","","","","","",""
"1668","","image-keyboard-response","192","474819","0.0-192.0","36WLNQG780WBP4ZF420MUYNYLZWBEV","A1XODDMY1SJ0H9","3A3KKYU7P33Z3BR9PPFZ5194ZCQMWU","","","img/flower5.png","75","1669","2","0","1","1,0.5,0.5,0.5,1,0.5,0.5,0.5,1",""
"null","","html-keyboard-response","193","475129","0.0-193.0","36WLNQG780WBP4ZF420MUYNYLZWBEV","A1XODDMY1SJ0H9","3A3KKYU7P33Z3BR9PPFZ5194ZCQMWU","","","<img src=""img/flower5.png"" style=""width:200px;border:14px solid red;"">","null","","","","","",""
"548","","image-keyboard-response","194","475679","0.0-194.0","36WLNQG780WBP4ZF420MUYNYLZWBEV","A1XODDMY1SJ0H9","3A3KKYU7P33Z3BR9PPFZ5194ZCQMWU","","","img/flower6.png","74","550","1","1","3","1,0.5,0.5,0.5,1,0.5,0.5,0.5,1",""
"null","","html-keyboard-response","195","475985","0.0-195.0","36WLNQG780WBP4ZF420MUYNYLZWBEV","A1XODDMY1SJ0H9","3A3KKYU7P33Z3BR9PPFZ5194ZCQMWU","","","<img src=""img/flower6.png"" style=""width:200px; border:14px solid green;"">","null","","","","","",""
"1763","","image-keyboard-response","196","477754","0.0-196.0","36WLNQG780WBP4ZF420MUYNYLZWBEV","A1XODDMY1SJ0H9","3A3KKYU7P33Z3BR9PPFZ5194ZCQMWU","","","img/flower5.png","75","1768","2","1","1","1,0.5,0.5,0.5,1,0.5,0.5,0.5,1",""
"null","","html-keyboard-response","197","478059","0.0-197.0","36WLNQG780WBP4ZF420MUYNYLZWBEV","A1XODDMY1SJ0H9","3A3KKYU7P33Z3BR9PPFZ5194ZCQMWU","","","<img src=""img/flower5.png"" style=""width:200px; border:14px solid green;"">","null","","","","","",""
"3460","","image-keyboard-response","198","481526","0.0-198.0","36WLNQG780WBP4ZF420MUYNYLZWBEV","A1XODDMY1SJ0H9","3A3KKYU7P33Z3BR9PPFZ5194ZCQMWU","","","img/flower5.png","74","3466","1","1","1","1,0.5,0.5,0.5,1,0.5,0.5,0.5,1",""
"null","","html-keyboard-response","199","481833","0.0-199.0","36WLNQG780WBP4ZF420MUYNYLZWBEV","A1XODDMY1SJ0H9","3A3KKYU7P33Z3BR9PPFZ5194ZCQMWU","","","<img src=""img/flower5.png"" style=""width:200px; border:14px solid green;"">","null","","","","","",""
"1009","","image-keyboard-response","200","482845","0.0-200.0","36WLNQG780WBP4ZF420MUYNYLZWBEV","A1XODDMY1SJ0H9","3A3KKYU7P33Z3BR9PPFZ5194ZCQMWU","","","img/flower3.png","74","1011","1","1","2","1,0.5,0.5,0.5,1,0.5,0.5,0.5,1",""
"null","","html-keyboard-response","201","483162","0.0-201.0","36WLNQG780WBP4ZF420MUYNYLZWBEV","A1XODDMY1SJ0H9","3A3KKYU7P33Z3BR9PPFZ5194ZCQMWU","","","<img src=""img/flower3.png"" style=""width:200px; border:14px solid green;"">","null","","","","","",""
"1290","","image-keyboard-response","202","484454","0.0-202.0","36WLNQG780WBP4ZF420MUYNYLZWBEV","A1XODDMY1SJ0H9","3A3KKYU7P33Z3BR9PPFZ5194ZCQMWU","","","img/flower3.png","75","1291","2","1","2","1,0.5,0.5,0.5,1,0.5,0.5,0.5,1",""
"null","","html-keyboard-response","203","484767","0.0-203.0","36WLNQG780WBP4ZF420MUYNYLZWBEV","A1XODDMY1SJ0H9","3A3KKYU7P33Z3BR9PPFZ5194ZCQMWU","","","<img src=""img/flower3.png"" style=""width:200px; border:14px solid green;"">","null","","","","","",""
"842","","image-keyboard-response","204","485612","0.0-204.0","36WLNQG780WBP4ZF420MUYNYLZWBEV","A1XODDMY1SJ0H9","3A3KKYU7P33Z3BR9PPFZ5194ZCQMWU","","","img/flower6.png","76","843","3","1","3","1,0.5,0.5,0.5,1,0.5,0.5,0.5,1",""
"null","","html-keyboard-response","205","485917","0.0-205.0","36WLNQG780WBP4ZF420MUYNYLZWBEV","A1XODDMY1SJ0H9","3A3KKYU7P33Z3BR9PPFZ5194ZCQMWU","","","<img src=""img/flower6.png"" style=""width:200px; border:14px solid green;"">","null","","","","","",""
"1269","","image-keyboard-response","206","487190","0.0-206.0","36WLNQG780WBP4ZF420MUYNYLZWBEV","A1XODDMY1SJ0H9","3A3KKYU7P33Z3BR9PPFZ5194ZCQMWU","","","img/flower6.png","76","1272","3","1","3","1,0.5,0.5,0.5,1,0.5,0.5,0.5,1",""
"null","","html-keyboard-response","207","487497","0.0-207.0","36WLNQG780WBP4ZF420MUYNYLZWBEV","A1XODDMY1SJ0H9","3A3KKYU7P33Z3BR9PPFZ5194ZCQMWU","","","<img src=""img/flower6.png"" style=""width:200px; border:14px solid green;"">","null","","","","","",""
"1242","","image-keyboard-response","208","488742","0.0-208.0","36WLNQG780WBP4ZF420MUYNYLZWBEV","A1XODDMY1SJ0H9","3A3KKYU7P33Z3BR9PPFZ5194ZCQMWU","","","img/flower6.png","75","1244","2","0","3","1,0.5,0.5,0.5,1,0.5,0.5,0.5,1",""
"null","","html-keyboard-response","209","489048","0.0-209.0","36WLNQG780WBP4ZF420MUYNYLZWBEV","A1XODDMY1SJ0H9","3A3KKYU7P33Z3BR9PPFZ5194ZCQMWU","","","<img src=""img/flower6.png"" style=""width:200px;border:14px solid red;"">","null","","","","","",""
"557","","image-keyboard-response","210","489607","0.0-210.0","36WLNQG780WBP4ZF420MUYNYLZWBEV","A1XODDMY1SJ0H9","3A3KKYU7P33Z3BR9PPFZ5194ZCQMWU","","","img/flower3.png","74","558","1","1","2","1,0.5,0.5,0.5,1,0.5,0.5,0.5,1",""
"null","","html-keyboard-response","211","489915","0.0-211.0","36WLNQG780WBP4ZF420MUYNYLZWBEV","A1XODDMY1SJ0H9","3A3KKYU7P33Z3BR9PPFZ5194ZCQMWU","","","<img src=""img/flower3.png"" style=""width:200px; border:14px solid green;"">","null","","","","","",""
"1361","","image-keyboard-response","212","491280","0.0-212.0","36WLNQG780WBP4ZF420MUYNYLZWBEV","A1XODDMY1SJ0H9","3A3KKYU7P33Z3BR9PPFZ5194ZCQMWU","","","img/flower6.png","76","1364","3","1","3","1,0.5,0.5,0.5,1,0.5,0.5,0.5,1",""
"null","","html-keyboard-response","213","491592","0.0-213.0","36WLNQG780WBP4ZF420MUYNYLZWBEV","A1XODDMY1SJ0H9","3A3KKYU7P33Z3BR9PPFZ5194ZCQMWU","","","<img src=""img/flower6.png"" style=""width:200px; border:14px solid green;"">","null","","","","","",""
"1170","","image-keyboard-response","214","492763","0.0-214.0","36WLNQG780WBP4ZF420MUYNYLZWBEV","A1XODDMY1SJ0H9","3A3KKYU7P33Z3BR9PPFZ5194ZCQMWU","","","img/flower3.png","74","1171","1","0","2","1,0.5,0.5,0.5,1,0.5,0.5,0.5,1",""
"null","","html-keyboard-response","215","493068","0.0-215.0","36WLNQG780WBP4ZF420MUYNYLZWBEV","A1XODDMY1SJ0H9","3A3KKYU7P33Z3BR9PPFZ5194ZCQMWU","","","<img src=""img/flower3.png"" style=""width:200px;border:14px solid red;"">","null","","","","","",""
"1492","","image-keyboard-response","216","494562","0.0-216.0","36WLNQG780WBP4ZF420MUYNYLZWBEV","A1XODDMY1SJ0H9","3A3KKYU7P33Z3BR9PPFZ5194ZCQMWU","","","img/flower6.png","76","1494","3","1","3","1,0.5,0.5,0.5,1,0.5,0.5,0.5,1",""
"null","","html-keyboard-response","217","494868","0.0-217.0","36WLNQG780WBP4ZF420MUYNYLZWBEV","A1XODDMY1SJ0H9","3A3KKYU7P33Z3BR9PPFZ5194ZCQMWU","","","<img src=""img/flower6.png"" style=""width:200px; border:14px solid green;"">","null","","","","","",""
"1284","","image-keyboard-response","218","496154","0.0-218.0","36WLNQG780WBP4ZF420MUYNYLZWBEV","A1XODDMY1SJ0H9","3A3KKYU7P33Z3BR9PPFZ5194ZCQMWU","","","img/flower3.png","74","1285","1","1","2","1,0.5,0.5,0.5,1,0.5,0.5,0.5,1",""
"null","","html-keyboard-response","219","496464","0.0-219.0","36WLNQG780WBP4ZF420MUYNYLZWBEV","A1XODDMY1SJ0H9","3A3KKYU7P33Z3BR9PPFZ5194ZCQMWU","","","<img src=""img/flower3.png"" style=""width:200px; border:14px solid green;"">","null","","","","","",""
"7872","","image-keyboard-response","220","504338","0.0-220.0","36WLNQG780WBP4ZF420MUYNYLZWBEV","A1XODDMY1SJ0H9","3A3KKYU7P33Z3BR9PPFZ5194ZCQMWU","","","img/flower5.png","75","7890","2","1","1","1,0.5,0.5,0.5,1,0.5,0.5,0.5,1",""
"null","","html-keyboard-response","221","504668","0.0-221.0","36WLNQG780WBP4ZF420MUYNYLZWBEV","A1XODDMY1SJ0H9","3A3KKYU7P33Z3BR9PPFZ5194ZCQMWU","","","<img src=""img/flower5.png"" style=""width:200px; border:14px solid green;"">","null","","","","","",""
"2281","","image-keyboard-response","222","506952","0.0-222.0","36WLNQG780WBP4ZF420MUYNYLZWBEV","A1XODDMY1SJ0H9","3A3KKYU7P33Z3BR9PPFZ5194ZCQMWU","","","img/flower5.png","75","2283","2","1","1","1,0.5,0.5,0.5,1,0.5,0.5,0.5,1",""
"null","","html-keyboard-response","223","507256","0.0-223.0","36WLNQG780WBP4ZF420MUYNYLZWBEV","A1XODDMY1SJ0H9","3A3KKYU7P33Z3BR9PPFZ5194ZCQMWU","","","<img src=""img/flower5.png"" style=""width:200px; border:14px solid green;"">","null","","","","","",""
"1259","","image-keyboard-response","224","508518","0.0-224.0","36WLNQG780WBP4ZF420MUYNYLZWBEV","A1XODDMY1SJ0H9","3A3KKYU7P33Z3BR9PPFZ5194ZCQMWU","","","img/flower5.png","75","1262","2","1","1","1,0.5,0.5,0.5,1,0.5,0.5,0.5,1",""
"null","","html-keyboard-response","225","508828","0.0-225.0","36WLNQG780WBP4ZF420MUYNYLZWBEV","A1XODDMY1SJ0H9","3A3KKYU7P33Z3BR9PPFZ5194ZCQMWU","","","<img src=""img/flower5.png"" style=""width:200px; border:14px solid green;"">","null","","","","","",""
"1075","","image-keyboard-response","226","509906","0.0-226.0","36WLNQG780WBP4ZF420MUYNYLZWBEV","A1XODDMY1SJ0H9","3A3KKYU7P33Z3BR9PPFZ5194ZCQMWU","","","img/flower6.png","76","1077","3","1","3","1,0.5,0.5,0.5,1,0.5,0.5,0.5,1",""
"null","","html-keyboard-response","227","510212","0.0-227.0","36WLNQG780WBP4ZF420MUYNYLZWBEV","A1XODDMY1SJ0H9","3A3KKYU7P33Z3BR9PPFZ5194ZCQMWU","","","<img src=""img/flower6.png"" style=""width:200px; border:14px solid green;"">","null","","","","","",""
"1097","","image-keyboard-response","228","511312","0.0-228.0","36WLNQG780WBP4ZF420MUYNYLZWBEV","A1XODDMY1SJ0H9","3A3KKYU7P33Z3BR9PPFZ5194ZCQMWU","","","img/flower3.png","74","1099","1","1","2","1,0.5,0.5,0.5,1,0.5,0.5,0.5,1",""
"null","","html-keyboard-response","229","511621","0.0-229.0","36WLNQG780WBP4ZF420MUYNYLZWBEV","A1XODDMY1SJ0H9","3A3KKYU7P33Z3BR9PPFZ5194ZCQMWU","","","<img src=""img/flower3.png"" style=""width:200px; border:14px solid green;"">","null","","","","","",""
"5739","","image-keyboard-response","230","517364","0.0-230.0","36WLNQG780WBP4ZF420MUYNYLZWBEV","A1XODDMY1SJ0H9","3A3KKYU7P33Z3BR9PPFZ5194ZCQMWU","","","img/flower6.png","76","5744","3","1","3","1,0.5,0.5,0.5,1,0.5,0.5,0.5,1",""
"null","","html-keyboard-response","231","517678","0.0-231.0","36WLNQG780WBP4ZF420MUYNYLZWBEV","A1XODDMY1SJ0H9","3A3KKYU7P33Z3BR9PPFZ5194ZCQMWU","","","<img src=""img/flower6.png"" style=""width:200px; border:14px solid green;"">","null","","","","","",""
"3322","","image-keyboard-response","232","521003","0.0-232.0","36WLNQG780WBP4ZF420MUYNYLZWBEV","A1XODDMY1SJ0H9","3A3KKYU7P33Z3BR9PPFZ5194ZCQMWU","","","img/flower6.png","76","3324","3","1","3","1,0.5,0.5,0.5,1,0.5,0.5,0.5,1",""
"null","","html-keyboard-response","233","521324","0.0-233.0","36WLNQG780WBP4ZF420MUYNYLZWBEV","A1XODDMY1SJ0H9","3A3KKYU7P33Z3BR9PPFZ5194ZCQMWU","","","<img src=""img/flower6.png"" style=""width:200px; border:14px solid green;"">","null","","","","","",""
"817","","image-keyboard-response","234","522143","0.0-234.0","36WLNQG780WBP4ZF420MUYNYLZWBEV","A1XODDMY1SJ0H9","3A3KKYU7P33Z3BR9PPFZ5194ZCQMWU","","","img/flower3.png","74","819","1","1","2","1,0.5,0.5,0.5,1,0.5,0.5,0.5,1",""
"null","","html-keyboard-response","235","522456","0.0-235.0","36WLNQG780WBP4ZF420MUYNYLZWBEV","A1XODDMY1SJ0H9","3A3KKYU7P33Z3BR9PPFZ5194ZCQMWU","","","<img src=""img/flower3.png"" style=""width:200px; border:14px solid green;"">","null","","","","","",""
"4144","","image-keyboard-response","236","526602","0.0-236.0","36WLNQG780WBP4ZF420MUYNYLZWBEV","A1XODDMY1SJ0H9","3A3KKYU7P33Z3BR9PPFZ5194ZCQMWU","","","img/flower3.png","74","4146","1","0","2","1,0.5,0.5,0.5,1,0.5,0.5,0.5,1",""
"null","","html-keyboard-response","237","526912","0.0-237.0","36WLNQG780WBP4ZF420MUYNYLZWBEV","A1XODDMY1SJ0H9","3A3KKYU7P33Z3BR9PPFZ5194ZCQMWU","","","<img src=""img/flower3.png"" style=""width:200px;border:14px solid red;"">","null","","","","","",""
"721","","image-keyboard-response","238","527636","0.0-238.0","36WLNQG780WBP4ZF420MUYNYLZWBEV","A1XODDMY1SJ0H9","3A3KKYU7P33Z3BR9PPFZ5194ZCQMWU","","","img/flower5.png","75","723","2","1","1","1,0.5,0.5,0.5,1,0.5,0.5,0.5,1",""
"null","","html-keyboard-response","239","527947","0.0-239.0","36WLNQG780WBP4ZF420MUYNYLZWBEV","A1XODDMY1SJ0H9","3A3KKYU7P33Z3BR9PPFZ5194ZCQMWU","","","<img src=""img/flower5.png"" style=""width:200px; border:14px solid green;"">","null","","","","","",""
"1000","","image-keyboard-response","240","528950","0.0-240.0","36WLNQG780WBP4ZF420MUYNYLZWBEV","A1XODDMY1SJ0H9","3A3KKYU7P33Z3BR9PPFZ5194ZCQMWU","","","img/flower3.png","74","1002","1","1","2","1,0.5,0.5,0.5,1,0.5,0.5,0.5,1",""
"null","","html-keyboard-response","241","529255","0.0-241.0","36WLNQG780WBP4ZF420MUYNYLZWBEV","A1XODDMY1SJ0H9","3A3KKYU7P33Z3BR9PPFZ5194ZCQMWU","","","<img src=""img/flower3.png"" style=""width:200px; border:14px solid green;"">","null","","","","","",""
"1310","","image-keyboard-response","242","530568","0.0-242.0","36WLNQG780WBP4ZF420MUYNYLZWBEV","A1XODDMY1SJ0H9","3A3KKYU7P33Z3BR9PPFZ5194ZCQMWU","","","img/flower3.png","74","1312","1","0","2","1,0.5,0.5,0.5,1,0.5,0.5,0.5,1",""
"null","","html-keyboard-response","243","530878","0.0-243.0","36WLNQG780WBP4ZF420MUYNYLZWBEV","A1XODDMY1SJ0H9","3A3KKYU7P33Z3BR9PPFZ5194ZCQMWU","","","<img src=""img/flower3.png"" style=""width:200px;border:14px solid red;"">","null","","","","","",""
"561","","image-keyboard-response","244","531447","0.0-244.0","36WLNQG780WBP4ZF420MUYNYLZWBEV","A1XODDMY1SJ0H9","3A3KKYU7P33Z3BR9PPFZ5194ZCQMWU","","","img/flower3.png","75","568","2","1","2","1,0.5,0.5,0.5,1,0.5,0.5,0.5,1",""
"null","","html-keyboard-response","245","531751","0.0-245.0","36WLNQG780WBP4ZF420MUYNYLZWBEV","A1XODDMY1SJ0H9","3A3KKYU7P33Z3BR9PPFZ5194ZCQMWU","","","<img src=""img/flower3.png"" style=""width:200px; border:14px solid green;"">","null","","","","","",""
"6250","","image-keyboard-response","246","538004","0.0-246.0","36WLNQG780WBP4ZF420MUYNYLZWBEV","A1XODDMY1SJ0H9","3A3KKYU7P33Z3BR9PPFZ5194ZCQMWU","","","img/flower3.png","74","6253","1","1","2","1,0.5,0.5,0.5,1,0.5,0.5,0.5,1",""
"null","","html-keyboard-response","247","538312","0.0-247.0","36WLNQG780WBP4ZF420MUYNYLZWBEV","A1XODDMY1SJ0H9","3A3KKYU7P33Z3BR9PPFZ5194ZCQMWU","","","<img src=""img/flower3.png"" style=""width:200px; border:14px solid green;"">","null","","","","","",""
"993","","image-keyboard-response","248","539306","0.0-248.0","36WLNQG780WBP4ZF420MUYNYLZWBEV","A1XODDMY1SJ0H9","3A3KKYU7P33Z3BR9PPFZ5194ZCQMWU","","","img/flower5.png","75","995","2","0","1","1,0.5,0.5,0.5,1,0.5,0.5,0.5,1",""
"null","","html-keyboard-response","249","539621","0.0-249.0","36WLNQG780WBP4ZF420MUYNYLZWBEV","A1XODDMY1SJ0H9","3A3KKYU7P33Z3BR9PPFZ5194ZCQMWU","","","<img src=""img/flower5.png"" style=""width:200px;border:14px solid red;"">","null","","","","","",""
"1975","","image-keyboard-response","250","541600","0.0-250.0","36WLNQG780WBP4ZF420MUYNYLZWBEV","A1XODDMY1SJ0H9","3A3KKYU7P33Z3BR9PPFZ5194ZCQMWU","","","img/flower6.png","76","1978","3","1","3","1,0.5,0.5,0.5,1,0.5,0.5,0.5,1",""
"null","","html-keyboard-response","251","541913","0.0-251.0","36WLNQG780WBP4ZF420MUYNYLZWBEV","A1XODDMY1SJ0H9","3A3KKYU7P33Z3BR9PPFZ5194ZCQMWU","","","<img src=""img/flower6.png"" style=""width:200px; border:14px solid green;"">","null","","","","","",""
"2845","","image-keyboard-response","252","544761","0.0-252.0","36WLNQG780WBP4ZF420MUYNYLZWBEV","A1XODDMY1SJ0H9","3A3KKYU7P33Z3BR9PPFZ5194ZCQMWU","","","img/flower5.png","76","2847","3","0","1","1,0.5,0.5,0.5,1,0.5,0.5,0.5,1",""
"null","","html-keyboard-response","253","545072","0.0-253.0","36WLNQG780WBP4ZF420MUYNYLZWBEV","A1XODDMY1SJ0H9","3A3KKYU7P33Z3BR9PPFZ5194ZCQMWU","","","<img src=""img/flower5.png"" style=""width:200px;border:14px solid red;"">","null","","","","","",""
"1101","","image-keyboard-response","254","546176","0.0-254.0","36WLNQG780WBP4ZF420MUYNYLZWBEV","A1XODDMY1SJ0H9","3A3KKYU7P33Z3BR9PPFZ5194ZCQMWU","","","img/flower6.png","75","1103","2","0","3","1,0.5,0.5,0.5,1,0.5,0.5,0.5,1",""
"null","","html-keyboard-response","255","546490","0.0-255.0","36WLNQG780WBP4ZF420MUYNYLZWBEV","A1XODDMY1SJ0H9","3A3KKYU7P33Z3BR9PPFZ5194ZCQMWU","","","<img src=""img/flower6.png"" style=""width:200px;border:14px solid red;"">","null","","","","","",""
"280","","image-keyboard-response","256","546775","0.0-256.0","36WLNQG780WBP4ZF420MUYNYLZWBEV","A1XODDMY1SJ0H9","3A3KKYU7P33Z3BR9PPFZ5194ZCQMWU","","","img/flower3.png","76","282","3","1","2","1,0.5,0.5,0.5,1,0.5,0.5,0.5,1",""
"null","","html-keyboard-response","257","547085","0.0-257.0","36WLNQG780WBP4ZF420MUYNYLZWBEV","A1XODDMY1SJ0H9","3A3KKYU7P33Z3BR9PPFZ5194ZCQMWU","","","<img src=""img/flower3.png"" style=""width:200px; border:14px solid green;"">","null","","","","","",""
"2601","","image-keyboard-response","258","549688","0.0-258.0","36WLNQG780WBP4ZF420MUYNYLZWBEV","A1XODDMY1SJ0H9","3A3KKYU7P33Z3BR9PPFZ5194ZCQMWU","","","img/flower6.png","74","2603","1","1","3","1,0.5,0.5,0.5,1,0.5,0.5,0.5,1",""
"null","","html-keyboard-response","259","549997","0.0-259.0","36WLNQG780WBP4ZF420MUYNYLZWBEV","A1XODDMY1SJ0H9","3A3KKYU7P33Z3BR9PPFZ5194ZCQMWU","","","<img src=""img/flower6.png"" style=""width:200px; border:14px solid green;"">","null","","","","","",""
"1509","","image-keyboard-response","260","551507","0.0-260.0","36WLNQG780WBP4ZF420MUYNYLZWBEV","A1XODDMY1SJ0H9","3A3KKYU7P33Z3BR9PPFZ5194ZCQMWU","","","img/flower5.png","75","1511","2","1","1","1,0.5,0.5,0.5,1,0.5,0.5,0.5,1",""
"null","","html-keyboard-response","261","551811","0.0-261.0","36WLNQG780WBP4ZF420MUYNYLZWBEV","A1XODDMY1SJ0H9","3A3KKYU7P33Z3BR9PPFZ5194ZCQMWU","","","<img src=""img/flower5.png"" style=""width:200px; border:14px solid green;"">","null","","","","","",""
"1262","","image-keyboard-response","262","553076","0.0-262.0","36WLNQG780WBP4ZF420MUYNYLZWBEV","A1XODDMY1SJ0H9","3A3KKYU7P33Z3BR9PPFZ5194ZCQMWU","","","img/flower5.png","75","1264","2","1","1","1,0.5,0.5,0.5,1,0.5,0.5,0.5,1",""
"null","","html-keyboard-response","263","553381","0.0-263.0","36WLNQG780WBP4ZF420MUYNYLZWBEV","A1XODDMY1SJ0H9","3A3KKYU7P33Z3BR9PPFZ5194ZCQMWU","","","<img src=""img/flower5.png"" style=""width:200px; border:14px solid green;"">","null","","","","","",""
"1190","","image-keyboard-response","264","554575","0.0-264.0","36WLNQG780WBP4ZF420MUYNYLZWBEV","A1XODDMY1SJ0H9","3A3KKYU7P33Z3BR9PPFZ5194ZCQMWU","","","img/flower3.png","74","1192","1","0","2","1,0.5,0.5,0.5,1,0.5,0.5,0.5,1",""
"null","","html-keyboard-response","265","554879","0.0-265.0","36WLNQG780WBP4ZF420MUYNYLZWBEV","A1XODDMY1SJ0H9","3A3KKYU7P33Z3BR9PPFZ5194ZCQMWU","","","<img src=""img/flower3.png"" style=""width:200px;border:14px solid red;"">","null","","","","","",""
"553","","image-keyboard-response","266","555436","0.0-266.0","36WLNQG780WBP4ZF420MUYNYLZWBEV","A1XODDMY1SJ0H9","3A3KKYU7P33Z3BR9PPFZ5194ZCQMWU","","","img/flower5.png","76","555","3","0","1","1,0.5,0.5,0.5,1,0.5,0.5,0.5,1",""
"null","","html-keyboard-response","267","555741","0.0-267.0","36WLNQG780WBP4ZF420MUYNYLZWBEV","A1XODDMY1SJ0H9","3A3KKYU7P33Z3BR9PPFZ5194ZCQMWU","","","<img src=""img/flower5.png"" style=""width:200px;border:14px solid red;"">","null","","","","","",""
"1038","","image-keyboard-response","268","556781","0.0-268.0","36WLNQG780WBP4ZF420MUYNYLZWBEV","A1XODDMY1SJ0H9","3A3KKYU7P33Z3BR9PPFZ5194ZCQMWU","","","img/flower3.png","74","1041","1","0","2","1,0.5,0.5,0.5,1,0.5,0.5,0.5,1",""
"null","","html-keyboard-response","269","557090","0.0-269.0","36WLNQG780WBP4ZF420MUYNYLZWBEV","A1XODDMY1SJ0H9","3A3KKYU7P33Z3BR9PPFZ5194ZCQMWU","","","<img src=""img/flower3.png"" style=""width:200px;border:14px solid red;"">","null","","","","","",""
"537","","image-keyboard-response","270","557629","0.0-270.0","36WLNQG780WBP4ZF420MUYNYLZWBEV","A1XODDMY1SJ0H9","3A3KKYU7P33Z3BR9PPFZ5194ZCQMWU","","","img/flower5.png","75","538","2","1","1","1,0.5,0.5,0.5,1,0.5,0.5,0.5,1",""
"null","","html-keyboard-response","271","557935","0.0-271.0","36WLNQG780WBP4ZF420MUYNYLZWBEV","A1XODDMY1SJ0H9","3A3KKYU7P33Z3BR9PPFZ5194ZCQMWU","","","<img src=""img/flower5.png"" style=""width:200px; border:14px solid green;"">","null","","","","","",""
"1150","","image-keyboard-response","272","559092","0.0-272.0","36WLNQG780WBP4ZF420MUYNYLZWBEV","A1XODDMY1SJ0H9","3A3KKYU7P33Z3BR9PPFZ5194ZCQMWU","","","img/flower3.png","75","1157","2","1","2","1,0.5,0.5,0.5,1,0.5,0.5,0.5,1",""
"null","","html-keyboard-response","273","559402","0.0-273.0","36WLNQG780WBP4ZF420MUYNYLZWBEV","A1XODDMY1SJ0H9","3A3KKYU7P33Z3BR9PPFZ5194ZCQMWU","","","<img src=""img/flower3.png"" style=""width:200px; border:14px solid green;"">","null","","","","","",""
"845","","image-keyboard-response","274","560248","0.0-274.0","36WLNQG780WBP4ZF420MUYNYLZWBEV","A1XODDMY1SJ0H9","3A3KKYU7P33Z3BR9PPFZ5194ZCQMWU","","","img/flower6.png","76","845","3","1","3","1,0.5,0.5,0.5,1,0.5,0.5,0.5,1",""
"null","","html-keyboard-response","275","560551","0.0-275.0","36WLNQG780WBP4ZF420MUYNYLZWBEV","A1XODDMY1SJ0H9","3A3KKYU7P33Z3BR9PPFZ5194ZCQMWU","","","<img src=""img/flower6.png"" style=""width:200px; border:14px solid green;"">","null","","","","","",""
"764","","image-keyboard-response","276","561317","0.0-276.0","36WLNQG780WBP4ZF420MUYNYLZWBEV","A1XODDMY1SJ0H9","3A3KKYU7P33Z3BR9PPFZ5194ZCQMWU","","","img/flower5.png","75","766","2","1","1","1,0.5,0.5,0.5,1,0.5,0.5,0.5,1",""
"null","","html-keyboard-response","277","561623","0.0-277.0","36WLNQG780WBP4ZF420MUYNYLZWBEV","A1XODDMY1SJ0H9","3A3KKYU7P33Z3BR9PPFZ5194ZCQMWU","","","<img src=""img/flower5.png"" style=""width:200px; border:14px solid green;"">","null","","","","","",""
"1245","","image-keyboard-response","278","562870","0.0-278.0","36WLNQG780WBP4ZF420MUYNYLZWBEV","A1XODDMY1SJ0H9","3A3KKYU7P33Z3BR9PPFZ5194ZCQMWU","","","img/flower6.png","76","1247","3","1","3","1,0.5,0.5,0.5,1,0.5,0.5,0.5,1",""
"null","","html-keyboard-response","279","563177","0.0-279.0","36WLNQG780WBP4ZF420MUYNYLZWBEV","A1XODDMY1SJ0H9","3A3KKYU7P33Z3BR9PPFZ5194ZCQMWU","","","<img src=""img/flower6.png"" style=""width:200px; border:14px solid green;"">","null","","","","","",""
"1105","","image-keyboard-response","280","564283","0.0-280.0","36WLNQG780WBP4ZF420MUYNYLZWBEV","A1XODDMY1SJ0H9","3A3KKYU7P33Z3BR9PPFZ5194ZCQMWU","","","img/flower6.png","76","1107","3","1","3","1,0.5,0.5,0.5,1,0.5,0.5,0.5,1",""
"null","","html-keyboard-response","281","564593","0.0-281.0","36WLNQG780WBP4ZF420MUYNYLZWBEV","A1XODDMY1SJ0H9","3A3KKYU7P33Z3BR9PPFZ5194ZCQMWU","","","<img src=""img/flower6.png"" style=""width:200px; border:14px solid green;"">","null","","","","","",""
"809","","image-keyboard-response","282","565403","0.0-282.0","36WLNQG780WBP4ZF420MUYNYLZWBEV","A1XODDMY1SJ0H9","3A3KKYU7P33Z3BR9PPFZ5194ZCQMWU","","","img/flower3.png","74","810","1","0","2","1,0.5,0.5,0.5,1,0.5,0.5,0.5,1",""
"null","","html-keyboard-response","283","565723","0.0-283.0","36WLNQG780WBP4ZF420MUYNYLZWBEV","A1XODDMY1SJ0H9","3A3KKYU7P33Z3BR9PPFZ5194ZCQMWU","","","<img src=""img/flower3.png"" style=""width:200px;border:14px solid red;"">","null","","","","","",""
"655","","image-keyboard-response","284","566380","0.0-284.0","36WLNQG780WBP4ZF420MUYNYLZWBEV","A1XODDMY1SJ0H9","3A3KKYU7P33Z3BR9PPFZ5194ZCQMWU","","","img/flower6.png","75","656","2","0","3","1,0.5,0.5,0.5,1,0.5,0.5,0.5,1",""
"null","","html-keyboard-response","285","566685","0.0-285.0","36WLNQG780WBP4ZF420MUYNYLZWBEV","A1XODDMY1SJ0H9","3A3KKYU7P33Z3BR9PPFZ5194ZCQMWU","","","<img src=""img/flower6.png"" style=""width:200px;border:14px solid red;"">","null","","","","","",""
"1319","","image-keyboard-response","286","568010","0.0-286.0","36WLNQG780WBP4ZF420MUYNYLZWBEV","A1XODDMY1SJ0H9","3A3KKYU7P33Z3BR9PPFZ5194ZCQMWU","","","img/flower5.png","76","1324","3","1","1","1,0.5,0.5,0.5,1,0.5,0.5,0.5,1",""
"null","","html-keyboard-response","287","568316","0.0-287.0","36WLNQG780WBP4ZF420MUYNYLZWBEV","A1XODDMY1SJ0H9","3A3KKYU7P33Z3BR9PPFZ5194ZCQMWU","","","<img src=""img/flower5.png"" style=""width:200px; border:14px solid green;"">","null","","","","","",""
"1020","","image-keyboard-response","288","569339","0.0-288.0","36WLNQG780WBP4ZF420MUYNYLZWBEV","A1XODDMY1SJ0H9","3A3KKYU7P33Z3BR9PPFZ5194ZCQMWU","","","img/flower6.png","76","1022","3","1","3","1,0.5,0.5,0.5,1,0.5,0.5,0.5,1",""
"null","","html-keyboard-response","289","569652","0.0-289.0","36WLNQG780WBP4ZF420MUYNYLZWBEV","A1XODDMY1SJ0H9","3A3KKYU7P33Z3BR9PPFZ5194ZCQMWU","","","<img src=""img/flower6.png"" style=""width:200px; border:14px solid green;"">","null","","","","","",""
"954","","image-keyboard-response","290","570608","0.0-290.0","36WLNQG780WBP4ZF420MUYNYLZWBEV","A1XODDMY1SJ0H9","3A3KKYU7P33Z3BR9PPFZ5194ZCQMWU","","","img/flower6.png","76","956","3","1","3","1,0.5,0.5,0.5,1,0.5,0.5,0.5,1",""
"null","","html-keyboard-response","291","570914","0.0-291.0","36WLNQG780WBP4ZF420MUYNYLZWBEV","A1XODDMY1SJ0H9","3A3KKYU7P33Z3BR9PPFZ5194ZCQMWU","","","<img src=""img/flower6.png"" style=""width:200px; border:14px solid green;"">","null","","","","","",""
"1609","","image-keyboard-response","292","572531","0.0-292.0","36WLNQG780WBP4ZF420MUYNYLZWBEV","A1XODDMY1SJ0H9","3A3KKYU7P33Z3BR9PPFZ5194ZCQMWU","","","img/flower5.png","76","1617","3","1","1","1,0.5,0.5,0.5,1,0.5,0.5,0.5,1",""
"null","","html-keyboard-response","293","572843","0.0-293.0","36WLNQG780WBP4ZF420MUYNYLZWBEV","A1XODDMY1SJ0H9","3A3KKYU7P33Z3BR9PPFZ5194ZCQMWU","","","<img src=""img/flower5.png"" style=""width:200px; border:14px solid green;"">","null","","","","","",""
"1005","","image-keyboard-response","294","573850","0.0-294.0","36WLNQG780WBP4ZF420MUYNYLZWBEV","A1XODDMY1SJ0H9","3A3KKYU7P33Z3BR9PPFZ5194ZCQMWU","","","img/flower5.png","75","1006","2","1","1","1,0.5,0.5,0.5,1,0.5,0.5,0.5,1",""
"null","","html-keyboard-response","295","574157","0.0-295.0","36WLNQG780WBP4ZF420MUYNYLZWBEV","A1XODDMY1SJ0H9","3A3KKYU7P33Z3BR9PPFZ5194ZCQMWU","","","<img src=""img/flower5.png"" style=""width:200px; border:14px solid green;"">","null","","","","","",""
"1184","","image-keyboard-response","296","575343","0.0-296.0","36WLNQG780WBP4ZF420MUYNYLZWBEV","A1XODDMY1SJ0H9","3A3KKYU7P33Z3BR9PPFZ5194ZCQMWU","","","img/flower3.png","75","1186","2","1","2","1,0.5,0.5,0.5,1,0.5,0.5,0.5,1",""
"null","","html-keyboard-response","297","575655","0.0-297.0","36WLNQG780WBP4ZF420MUYNYLZWBEV","A1XODDMY1SJ0H9","3A3KKYU7P33Z3BR9PPFZ5194ZCQMWU","","","<img src=""img/flower3.png"" style=""width:200px; border:14px solid green;"">","null","","","","","",""
"1363","","image-keyboard-response","298","577020","0.0-298.0","36WLNQG780WBP4ZF420MUYNYLZWBEV","A1XODDMY1SJ0H9","3A3KKYU7P33Z3BR9PPFZ5194ZCQMWU","","","img/flower3.png","75","1365","2","1","2","1,0.5,0.5,0.5,1,0.5,0.5,0.5,1",""
"null","","html-keyboard-response","299","577329","0.0-299.0","36WLNQG780WBP4ZF420MUYNYLZWBEV","A1XODDMY1SJ0H9","3A3KKYU7P33Z3BR9PPFZ5194ZCQMWU","","","<img src=""img/flower3.png"" style=""width:200px; border:14px solid green;"">","null","","","","","",""
"1267","","image-keyboard-response","300","578600","0.0-300.0","36WLNQG780WBP4ZF420MUYNYLZWBEV","A1XODDMY1SJ0H9","3A3KKYU7P33Z3BR9PPFZ5194ZCQMWU","","","img/flower5.png","76","1269","3","0","1","1,0.5,0.5,0.5,1,0.5,0.5,0.5,1",""
"null","","html-keyboard-response","301","578908","0.0-301.0","36WLNQG780WBP4ZF420MUYNYLZWBEV","A1XODDMY1SJ0H9","3A3KKYU7P33Z3BR9PPFZ5194ZCQMWU","","","<img src=""img/flower5.png"" style=""width:200px;border:14px solid red;"">","null","","","","","",""
"1114","","image-keyboard-response","302","580024","0.0-302.0","36WLNQG780WBP4ZF420MUYNYLZWBEV","A1XODDMY1SJ0H9","3A3KKYU7P33Z3BR9PPFZ5194ZCQMWU","","","img/flower6.png","76","1125","3","1","3","1,0.5,0.5,0.5,1,0.5,0.5,0.5,1",""
"null","","html-keyboard-response","303","580347","0.0-303.0","36WLNQG780WBP4ZF420MUYNYLZWBEV","A1XODDMY1SJ0H9","3A3KKYU7P33Z3BR9PPFZ5194ZCQMWU","","","<img src=""img/flower6.png"" style=""width:200px; border:14px solid green;"">","null","","","","","",""
"1142","","image-keyboard-response","304","581490","0.0-304.0","36WLNQG780WBP4ZF420MUYNYLZWBEV","A1XODDMY1SJ0H9","3A3KKYU7P33Z3BR9PPFZ5194ZCQMWU","","","img/flower5.png","76","1157","3","1","1","1,0.5,0.5,0.5,1,0.5,0.5,0.5,1",""
"null","","html-keyboard-response","305","581810","0.0-305.0","36WLNQG780WBP4ZF420MUYNYLZWBEV","A1XODDMY1SJ0H9","3A3KKYU7P33Z3BR9PPFZ5194ZCQMWU","","","<img src=""img/flower5.png"" style=""width:200px; border:14px solid green;"">","null","","","","","",""
"","","html-keyboard-response","306","585939","0.0-306.0","36WLNQG780WBP4ZF420MUYNYLZWBEV","A1XODDMY1SJ0H9","3A3KKYU7P33Z3BR9PPFZ5194ZCQMWU","","","","","","","","","",""
"1874","","image-keyboard-response","307","587817","0.0-307.0","36WLNQG780WBP4ZF420MUYNYLZWBEV","A1XODDMY1SJ0H9","3A3KKYU7P33Z3BR9PPFZ5194ZCQMWU","","","img/flower2.png","74","1877","1","0","2","1,1,0,0,1,1,1,0,1",""
"null","","html-keyboard-response","308","588129","0.0-308.0","36WLNQG780WBP4ZF420MUYNYLZWBEV","A1XODDMY1SJ0H9","3A3KKYU7P33Z3BR9PPFZ5194ZCQMWU","","","<img src=""img/flower2.png"" style=""width:200px;border:14px solid red;"">","null","","","","","",""
"3731","","image-keyboard-response","309","591864","0.0-309.0","36WLNQG780WBP4ZF420MUYNYLZWBEV","A1XODDMY1SJ0H9","3A3KKYU7P33Z3BR9PPFZ5194ZCQMWU","","","img/flower1.png","76","3732","3","0","1","1,1,0,0,1,1,1,0,1",""
"null","","html-keyboard-response","310","592175","0.0-310.0","36WLNQG780WBP4ZF420MUYNYLZWBEV","A1XODDMY1SJ0H9","3A3KKYU7P33Z3BR9PPFZ5194ZCQMWU","","","<img src=""img/flower1.png"" style=""width:200px;border:14px solid red;"">","null","","","","","",""
"649","","image-keyboard-response","311","592828","0.0-311.0","36WLNQG780WBP4ZF420MUYNYLZWBEV","A1XODDMY1SJ0H9","3A3KKYU7P33Z3BR9PPFZ5194ZCQMWU","","","img/flower2.png","75","652","2","1","2","1,1,0,0,1,1,1,0,1",""
"null","","html-keyboard-response","312","593134","0.0-312.0","36WLNQG780WBP4ZF420MUYNYLZWBEV","A1XODDMY1SJ0H9","3A3KKYU7P33Z3BR9PPFZ5194ZCQMWU","","","<img src=""img/flower2.png"" style=""width:200px; border:14px solid green;"">","null","","","","","",""
"1260","","image-keyboard-response","313","594396","0.0-313.0","36WLNQG780WBP4ZF420MUYNYLZWBEV","A1XODDMY1SJ0H9","3A3KKYU7P33Z3BR9PPFZ5194ZCQMWU","","","img/flower1.png","75","1261","2","1","1","1,1,0,0,1,1,1,0,1",""
"null","","html-keyboard-response","314","594708","0.0-314.0","36WLNQG780WBP4ZF420MUYNYLZWBEV","A1XODDMY1SJ0H9","3A3KKYU7P33Z3BR9PPFZ5194ZCQMWU","","","<img src=""img/flower1.png"" style=""width:200px; border:14px solid green;"">","null","","","","","",""
"1174","","image-keyboard-response","315","595884","0.0-315.0","36WLNQG780WBP4ZF420MUYNYLZWBEV","A1XODDMY1SJ0H9","3A3KKYU7P33Z3BR9PPFZ5194ZCQMWU","","","img/flower4.png","74","1176","1","1","3","1,1,0,0,1,1,1,0,1",""
"null","","html-keyboard-response","316","596190","0.0-316.0","36WLNQG780WBP4ZF420MUYNYLZWBEV","A1XODDMY1SJ0H9","3A3KKYU7P33Z3BR9PPFZ5194ZCQMWU","","","<img src=""img/flower4.png"" style=""width:200px; border:14px solid green;"">","null","","","","","",""
"971","","image-keyboard-response","317","597169","0.0-317.0","36WLNQG780WBP4ZF420MUYNYLZWBEV","A1XODDMY1SJ0H9","3A3KKYU7P33Z3BR9PPFZ5194ZCQMWU","","","img/flower1.png","74","977","1","1","1","1,1,0,0,1,1,1,0,1",""
"null","","html-keyboard-response","318","597489","0.0-318.0","36WLNQG780WBP4ZF420MUYNYLZWBEV","A1XODDMY1SJ0H9","3A3KKYU7P33Z3BR9PPFZ5194ZCQMWU","","","<img src=""img/flower1.png"" style=""width:200px; border:14px solid green;"">","null","","","","","",""
"1131","","image-keyboard-response","319","598624","0.0-319.0","36WLNQG780WBP4ZF420MUYNYLZWBEV","A1XODDMY1SJ0H9","3A3KKYU7P33Z3BR9PPFZ5194ZCQMWU","","","img/flower4.png","74","1135","1","1","3","1,1,0,0,1,1,1,0,1",""
"null","","html-keyboard-response","320","598932","0.0-320.0","36WLNQG780WBP4ZF420MUYNYLZWBEV","A1XODDMY1SJ0H9","3A3KKYU7P33Z3BR9PPFZ5194ZCQMWU","","","<img src=""img/flower4.png"" style=""width:200px; border:14px solid green;"">","null","","","","","",""
"883","","image-keyboard-response","321","599817","0.0-321.0","36WLNQG780WBP4ZF420MUYNYLZWBEV","A1XODDMY1SJ0H9","3A3KKYU7P33Z3BR9PPFZ5194ZCQMWU","","","img/flower2.png","75","885","2","1","2","1,1,0,0,1,1,1,0,1",""
"null","","html-keyboard-response","322","600124","0.0-322.0","36WLNQG780WBP4ZF420MUYNYLZWBEV","A1XODDMY1SJ0H9","3A3KKYU7P33Z3BR9PPFZ5194ZCQMWU","","","<img src=""img/flower2.png"" style=""width:200px; border:14px solid green;"">","null","","","","","",""
"1151","","image-keyboard-response","323","601277","0.0-323.0","36WLNQG780WBP4ZF420MUYNYLZWBEV","A1XODDMY1SJ0H9","3A3KKYU7P33Z3BR9PPFZ5194ZCQMWU","","","img/flower4.png","74","1153","1","1","3","1,1,0,0,1,1,1,0,1",""
"null","","html-keyboard-response","324","601584","0.0-324.0","36WLNQG780WBP4ZF420MUYNYLZWBEV","A1XODDMY1SJ0H9","3A3KKYU7P33Z3BR9PPFZ5194ZCQMWU","","","<img src=""img/flower4.png"" style=""width:200px; border:14px solid green;"">","null","","","","","",""
"103474","","image-keyboard-response","325","705061","0.0-325.0","36WLNQG780WBP4ZF420MUYNYLZWBEV","A1XODDMY1SJ0H9","3A3KKYU7P33Z3BR9PPFZ5194ZCQMWU","","","img/flower2.png","74","103477","1","0","2","1,1,0,0,1,1,1,0,1",""
"null","","html-keyboard-response","326","705375","0.0-326.0","36WLNQG780WBP4ZF420MUYNYLZWBEV","A1XODDMY1SJ0H9","3A3KKYU7P33Z3BR9PPFZ5194ZCQMWU","","","<img src=""img/flower2.png"" style=""width:200px;border:14px solid red;"">","null","","","","","",""
"716","","image-keyboard-response","327","706093","0.0-327.0","36WLNQG780WBP4ZF420MUYNYLZWBEV","A1XODDMY1SJ0H9","3A3KKYU7P33Z3BR9PPFZ5194ZCQMWU","","","img/flower1.png","75","718","2","1","1","1,1,0,0,1,1,1,0,1",""
"null","","html-keyboard-response","328","706404","0.0-328.0","36WLNQG780WBP4ZF420MUYNYLZWBEV","A1XODDMY1SJ0H9","3A3KKYU7P33Z3BR9PPFZ5194ZCQMWU","","","<img src=""img/flower1.png"" style=""width:200px; border:14px solid green;"">","null","","","","","",""
"911","","image-keyboard-response","329","707318","0.0-329.0","36WLNQG780WBP4ZF420MUYNYLZWBEV","A1XODDMY1SJ0H9","3A3KKYU7P33Z3BR9PPFZ5194ZCQMWU","","","img/flower4.png","75","913","2","0","3","1,1,0,0,1,1,1,0,1",""
"null","","html-keyboard-response","330","707620","0.0-330.0","36WLNQG780WBP4ZF420MUYNYLZWBEV","A1XODDMY1SJ0H9","3A3KKYU7P33Z3BR9PPFZ5194ZCQMWU","","","<img src=""img/flower4.png"" style=""width:200px;border:14px solid red;"">","null","","","","","",""
"507","","image-keyboard-response","331","708128","0.0-331.0","36WLNQG780WBP4ZF420MUYNYLZWBEV","A1XODDMY1SJ0H9","3A3KKYU7P33Z3BR9PPFZ5194ZCQMWU","","","img/flower2.png","76","508","3","1","2","1,1,0,0,1,1,1,0,1",""
"null","","html-keyboard-response","332","708432","0.0-332.0","36WLNQG780WBP4ZF420MUYNYLZWBEV","A1XODDMY1SJ0H9","3A3KKYU7P33Z3BR9PPFZ5194ZCQMWU","","","<img src=""img/flower2.png"" style=""width:200px; border:14px solid green;"">","null","","","","","",""
"1629","","image-keyboard-response","333","710063","0.0-333.0","36WLNQG780WBP4ZF420MUYNYLZWBEV","A1XODDMY1SJ0H9","3A3KKYU7P33Z3BR9PPFZ5194ZCQMWU","","","img/flower1.png","74","1630","1","1","1","1,1,0,0,1,1,1,0,1",""
"null","","html-keyboard-response","334","710372","0.0-334.0","36WLNQG780WBP4ZF420MUYNYLZWBEV","A1XODDMY1SJ0H9","3A3KKYU7P33Z3BR9PPFZ5194ZCQMWU","","","<img src=""img/flower1.png"" style=""width:200px; border:14px solid green;"">","null","","","","","",""
"856","","image-keyboard-response","335","711231","0.0-335.0","36WLNQG780WBP4ZF420MUYNYLZWBEV","A1XODDMY1SJ0H9","3A3KKYU7P33Z3BR9PPFZ5194ZCQMWU","","","img/flower4.png","74","858","1","1","3","1,1,0,0,1,1,1,0,1",""
"null","","html-keyboard-response","336","711543","0.0-336.0","36WLNQG780WBP4ZF420MUYNYLZWBEV","A1XODDMY1SJ0H9","3A3KKYU7P33Z3BR9PPFZ5194ZCQMWU","","","<img src=""img/flower4.png"" style=""width:200px; border:14px solid green;"">","null","","","","","",""
"962","","image-keyboard-response","337","712508","0.0-337.0","36WLNQG780WBP4ZF420MUYNYLZWBEV","A1XODDMY1SJ0H9","3A3KKYU7P33Z3BR9PPFZ5194ZCQMWU","","","img/flower4.png","75","964","2","0","3","1,1,0,0,1,1,1,0,1",""
"null","","html-keyboard-response","338","712818","0.0-338.0","36WLNQG780WBP4ZF420MUYNYLZWBEV","A1XODDMY1SJ0H9","3A3KKYU7P33Z3BR9PPFZ5194ZCQMWU","","","<img src=""img/flower4.png"" style=""width:200px;border:14px solid red;"">","null","","","","","",""
"519","","image-keyboard-response","339","713339","0.0-339.0","36WLNQG780WBP4ZF420MUYNYLZWBEV","A1XODDMY1SJ0H9","3A3KKYU7P33Z3BR9PPFZ5194ZCQMWU","","","img/flower4.png","76","520","3","1","3","1,1,0,0,1,1,1,0,1",""
"null","","html-keyboard-response","340","713650","0.0-340.0","36WLNQG780WBP4ZF420MUYNYLZWBEV","A1XODDMY1SJ0H9","3A3KKYU7P33Z3BR9PPFZ5194ZCQMWU","","","<img src=""img/flower4.png"" style=""width:200px; border:14px solid green;"">","null","","","","","",""
"1363","","image-keyboard-response","341","715014","0.0-341.0","36WLNQG780WBP4ZF420MUYNYLZWBEV","A1XODDMY1SJ0H9","3A3KKYU7P33Z3BR9PPFZ5194ZCQMWU","","","img/flower1.png","76","1364","3","0","1","1,1,0,0,1,1,1,0,1",""
"null","","html-keyboard-response","342","715326","0.0-342.0","36WLNQG780WBP4ZF420MUYNYLZWBEV","A1XODDMY1SJ0H9","3A3KKYU7P33Z3BR9PPFZ5194ZCQMWU","","","<img src=""img/flower1.png"" style=""width:200px;border:14px solid red;"">","null","","","","","",""
"537","","image-keyboard-response","343","715865","0.0-343.0","36WLNQG780WBP4ZF420MUYNYLZWBEV","A1XODDMY1SJ0H9","3A3KKYU7P33Z3BR9PPFZ5194ZCQMWU","","","img/flower2.png","74","538","1","0","2","1,1,0,0,1,1,1,0,1",""
"null","","html-keyboard-response","344","716173","0.0-344.0","36WLNQG780WBP4ZF420MUYNYLZWBEV","A1XODDMY1SJ0H9","3A3KKYU7P33Z3BR9PPFZ5194ZCQMWU","","","<img src=""img/flower2.png"" style=""width:200px;border:14px solid red;"">","null","","","","","",""
"573","","image-keyboard-response","345","716748","0.0-345.0","36WLNQG780WBP4ZF420MUYNYLZWBEV","A1XODDMY1SJ0H9","3A3KKYU7P33Z3BR9PPFZ5194ZCQMWU","","","img/flower4.png","75","575","2","0","3","1,1,0,0,1,1,1,0,1",""
"null","","html-keyboard-response","346","717051","0.0-346.0","36WLNQG780WBP4ZF420MUYNYLZWBEV","A1XODDMY1SJ0H9","3A3KKYU7P33Z3BR9PPFZ5194ZCQMWU","","","<img src=""img/flower4.png"" style=""width:200px;border:14px solid red;"">","null","","","","","",""
"1079","","image-keyboard-response","347","718133","0.0-347.0","36WLNQG780WBP4ZF420MUYNYLZWBEV","A1XODDMY1SJ0H9","3A3KKYU7P33Z3BR9PPFZ5194ZCQMWU","","","img/flower1.png","75","1081","2","1","1","1,1,0,0,1,1,1,0,1",""
"null","","html-keyboard-response","348","718445","0.0-348.0","36WLNQG780WBP4ZF420MUYNYLZWBEV","A1XODDMY1SJ0H9","3A3KKYU7P33Z3BR9PPFZ5194ZCQMWU","","","<img src=""img/flower1.png"" style=""width:200px; border:14px solid green;"">","null","","","","","",""
"710","","image-keyboard-response","349","719158","0.0-349.0","36WLNQG780WBP4ZF420MUYNYLZWBEV","A1XODDMY1SJ0H9","3A3KKYU7P33Z3BR9PPFZ5194ZCQMWU","","","img/flower4.png","75","712","2","0","3","1,1,0,0,1,1,1,0,1",""
"null","","html-keyboard-response","350","719470","0.0-350.0","36WLNQG780WBP4ZF420MUYNYLZWBEV","A1XODDMY1SJ0H9","3A3KKYU7P33Z3BR9PPFZ5194ZCQMWU","","","<img src=""img/flower4.png"" style=""width:200px;border:14px solid red;"">","null","","","","","",""
"774","","image-keyboard-response","351","720246","0.0-351.0","36WLNQG780WBP4ZF420MUYNYLZWBEV","A1XODDMY1SJ0H9","3A3KKYU7P33Z3BR9PPFZ5194ZCQMWU","","","img/flower1.png","76","775","3","0","1","1,1,0,0,1,1,1,0,1",""
"null","","html-keyboard-response","352","720558","0.0-352.0","36WLNQG780WBP4ZF420MUYNYLZWBEV","A1XODDMY1SJ0H9","3A3KKYU7P33Z3BR9PPFZ5194ZCQMWU","","","<img src=""img/flower1.png"" style=""width:200px;border:14px solid red;"">","null","","","","","",""
"1164","","image-keyboard-response","353","721723","0.0-353.0","36WLNQG780WBP4ZF420MUYNYLZWBEV","A1XODDMY1SJ0H9","3A3KKYU7P33Z3BR9PPFZ5194ZCQMWU","","","img/flower1.png","75","1165","2","1","1","1,1,0,0,1,1,1,0,1",""
"null","","html-keyboard-response","354","722031","0.0-354.0","36WLNQG780WBP4ZF420MUYNYLZWBEV","A1XODDMY1SJ0H9","3A3KKYU7P33Z3BR9PPFZ5194ZCQMWU","","","<img src=""img/flower1.png"" style=""width:200px; border:14px solid green;"">","null","","","","","",""
"884","","image-keyboard-response","355","722921","0.0-355.0","36WLNQG780WBP4ZF420MUYNYLZWBEV","A1XODDMY1SJ0H9","3A3KKYU7P33Z3BR9PPFZ5194ZCQMWU","","","img/flower4.png","74","888","1","1","3","1,1,0,0,1,1,1,0,1",""
"null","","html-keyboard-response","356","723229","0.0-356.0","36WLNQG780WBP4ZF420MUYNYLZWBEV","A1XODDMY1SJ0H9","3A3KKYU7P33Z3BR9PPFZ5194ZCQMWU","","","<img src=""img/flower4.png"" style=""width:200px; border:14px solid green;"">","null","","","","","",""
"845","","image-keyboard-response","357","724076","0.0-357.0","36WLNQG780WBP4ZF420MUYNYLZWBEV","A1XODDMY1SJ0H9","3A3KKYU7P33Z3BR9PPFZ5194ZCQMWU","","","img/flower2.png","75","847","2","1","2","1,1,0,0,1,1,1,0,1",""
"null","","html-keyboard-response","358","724388","0.0-358.0","36WLNQG780WBP4ZF420MUYNYLZWBEV","A1XODDMY1SJ0H9","3A3KKYU7P33Z3BR9PPFZ5194ZCQMWU","","","<img src=""img/flower2.png"" style=""width:200px; border:14px solid green;"">","null","","","","","",""
"718","","image-keyboard-response","359","725110","0.0-359.0","36WLNQG780WBP4ZF420MUYNYLZWBEV","A1XODDMY1SJ0H9","3A3KKYU7P33Z3BR9PPFZ5194ZCQMWU","","","img/flower4.png","74","722","1","1","3","1,1,0,0,1,1,1,0,1",""
"null","","html-keyboard-response","360","725418","0.0-360.0","36WLNQG780WBP4ZF420MUYNYLZWBEV","A1XODDMY1SJ0H9","3A3KKYU7P33Z3BR9PPFZ5194ZCQMWU","","","<img src=""img/flower4.png"" style=""width:200px; border:14px solid green;"">","null","","","","","",""
"923","","image-keyboard-response","361","726343","0.0-361.0","36WLNQG780WBP4ZF420MUYNYLZWBEV","A1XODDMY1SJ0H9","3A3KKYU7P33Z3BR9PPFZ5194ZCQMWU","","","img/flower1.png","75","924","2","1","1","1,1,0,0,1,1,1,0,1",""
"null","","html-keyboard-response","362","726651","0.0-362.0","36WLNQG780WBP4ZF420MUYNYLZWBEV","A1XODDMY1SJ0H9","3A3KKYU7P33Z3BR9PPFZ5194ZCQMWU","","","<img src=""img/flower1.png"" style=""width:200px; border:14px solid green;"">","null","","","","","",""
"1319","","image-keyboard-response","363","727973","0.0-363.0","36WLNQG780WBP4ZF420MUYNYLZWBEV","A1XODDMY1SJ0H9","3A3KKYU7P33Z3BR9PPFZ5194ZCQMWU","","","img/flower2.png","74","1321","1","0","2","1,1,0,0,1,1,1,0,1",""
"null","","html-keyboard-response","364","728282","0.0-364.0","36WLNQG780WBP4ZF420MUYNYLZWBEV","A1XODDMY1SJ0H9","3A3KKYU7P33Z3BR9PPFZ5194ZCQMWU","","","<img src=""img/flower2.png"" style=""width:200px;border:14px solid red;"">","null","","","","","",""
"1295","","image-keyboard-response","365","729579","0.0-365.0","36WLNQG780WBP4ZF420MUYNYLZWBEV","A1XODDMY1SJ0H9","3A3KKYU7P33Z3BR9PPFZ5194ZCQMWU","","","img/flower4.png","75","1297","2","0","3","1,1,0,0,1,1,1,0,1",""
"null","","html-keyboard-response","366","729888","0.0-366.0","36WLNQG780WBP4ZF420MUYNYLZWBEV","A1XODDMY1SJ0H9","3A3KKYU7P33Z3BR9PPFZ5194ZCQMWU","","","<img src=""img/flower4.png"" style=""width:200px;border:14px solid red;"">","null","","","","","",""
"550","","image-keyboard-response","367","730440","0.0-367.0","36WLNQG780WBP4ZF420MUYNYLZWBEV","A1XODDMY1SJ0H9","3A3KKYU7P33Z3BR9PPFZ5194ZCQMWU","","","img/flower4.png","76","551","3","1","3","1,1,0,0,1,1,1,0,1",""
"null","","html-keyboard-response","368","730749","0.0-368.0","36WLNQG780WBP4ZF420MUYNYLZWBEV","A1XODDMY1SJ0H9","3A3KKYU7P33Z3BR9PPFZ5194ZCQMWU","","","<img src=""img/flower4.png"" style=""width:200px; border:14px solid green;"">","null","","","","","",""
"683","","image-keyboard-response","369","731433","0.0-369.0","36WLNQG780WBP4ZF420MUYNYLZWBEV","A1XODDMY1SJ0H9","3A3KKYU7P33Z3BR9PPFZ5194ZCQMWU","","","img/flower4.png","76","684","3","1","3","1,1,0,0,1,1,1,0,1",""
"null","","html-keyboard-response","370","731742","0.0-370.0","36WLNQG780WBP4ZF420MUYNYLZWBEV","A1XODDMY1SJ0H9","3A3KKYU7P33Z3BR9PPFZ5194ZCQMWU","","","<img src=""img/flower4.png"" style=""width:200px; border:14px solid green;"">","null","","","","","",""
"784","","image-keyboard-response","371","732528","0.0-371.0","36WLNQG780WBP4ZF420MUYNYLZWBEV","A1XODDMY1SJ0H9","3A3KKYU7P33Z3BR9PPFZ5194ZCQMWU","","","img/flower1.png","75","786","2","1","1","1,1,0,0,1,1,1,0,1",""
"null","","html-keyboard-response","372","732835","0.0-372.0","36WLNQG780WBP4ZF420MUYNYLZWBEV","A1XODDMY1SJ0H9","3A3KKYU7P33Z3BR9PPFZ5194ZCQMWU","","","<img src=""img/flower1.png"" style=""width:200px; border:14px solid green;"">","null","","","","","",""
"825","","image-keyboard-response","373","733663","0.0-373.0","36WLNQG780WBP4ZF420MUYNYLZWBEV","A1XODDMY1SJ0H9","3A3KKYU7P33Z3BR9PPFZ5194ZCQMWU","","","img/flower4.png","74","827","1","1","3","1,1,0,0,1,1,1,0,1",""
"null","","html-keyboard-response","374","733972","0.0-374.0","36WLNQG780WBP4ZF420MUYNYLZWBEV","A1XODDMY1SJ0H9","3A3KKYU7P33Z3BR9PPFZ5194ZCQMWU","","","<img src=""img/flower4.png"" style=""width:200px; border:14px solid green;"">","null","","","","","",""
"1408","","image-keyboard-response","375","735383","0.0-375.0","36WLNQG780WBP4ZF420MUYNYLZWBEV","A1XODDMY1SJ0H9","3A3KKYU7P33Z3BR9PPFZ5194ZCQMWU","","","img/flower2.png","76","1411","3","1","2","1,1,0,0,1,1,1,0,1",""
"null","","html-keyboard-response","376","735691","0.0-376.0","36WLNQG780WBP4ZF420MUYNYLZWBEV","A1XODDMY1SJ0H9","3A3KKYU7P33Z3BR9PPFZ5194ZCQMWU","","","<img src=""img/flower2.png"" style=""width:200px; border:14px solid green;"">","null","","","","","",""
"894","","image-keyboard-response","377","736588","0.0-377.0","36WLNQG780WBP4ZF420MUYNYLZWBEV","A1XODDMY1SJ0H9","3A3KKYU7P33Z3BR9PPFZ5194ZCQMWU","","","img/flower2.png","76","896","3","1","2","1,1,0,0,1,1,1,0,1",""
"null","","html-keyboard-response","378","736894","0.0-378.0","36WLNQG780WBP4ZF420MUYNYLZWBEV","A1XODDMY1SJ0H9","3A3KKYU7P33Z3BR9PPFZ5194ZCQMWU","","","<img src=""img/flower2.png"" style=""width:200px; border:14px solid green;"">","null","","","","","",""
"761","","image-keyboard-response","379","737657","0.0-379.0","36WLNQG780WBP4ZF420MUYNYLZWBEV","A1XODDMY1SJ0H9","3A3KKYU7P33Z3BR9PPFZ5194ZCQMWU","","","img/flower4.png","75","763","2","0","3","1,1,0,0,1,1,1,0,1",""
"null","","html-keyboard-response","380","737964","0.0-380.0","36WLNQG780WBP4ZF420MUYNYLZWBEV","A1XODDMY1SJ0H9","3A3KKYU7P33Z3BR9PPFZ5194ZCQMWU","","","<img src=""img/flower4.png"" style=""width:200px;border:14px solid red;"">","null","","","","","",""
"1357","","image-keyboard-response","381","739322","0.0-381.0","36WLNQG780WBP4ZF420MUYNYLZWBEV","A1XODDMY1SJ0H9","3A3KKYU7P33Z3BR9PPFZ5194ZCQMWU","","","img/flower2.png","75","1357","2","1","2","1,1,0,0,1,1,1,0,1",""
"null","","html-keyboard-response","382","739631","0.0-382.0","36WLNQG780WBP4ZF420MUYNYLZWBEV","A1XODDMY1SJ0H9","3A3KKYU7P33Z3BR9PPFZ5194ZCQMWU","","","<img src=""img/flower2.png"" style=""width:200px; border:14px solid green;"">","null","","","","","",""
"1833","","image-keyboard-response","383","741467","0.0-383.0","36WLNQG780WBP4ZF420MUYNYLZWBEV","A1XODDMY1SJ0H9","3A3KKYU7P33Z3BR9PPFZ5194ZCQMWU","","","img/flower4.png","74","1836","1","1","3","1,1,0,0,1,1,1,0,1",""
"null","","html-keyboard-response","384","741772","0.0-384.0","36WLNQG780WBP4ZF420MUYNYLZWBEV","A1XODDMY1SJ0H9","3A3KKYU7P33Z3BR9PPFZ5194ZCQMWU","","","<img src=""img/flower4.png"" style=""width:200px; border:14px solid green;"">","null","","","","","",""
"1086","","image-keyboard-response","385","742860","0.0-385.0","36WLNQG780WBP4ZF420MUYNYLZWBEV","A1XODDMY1SJ0H9","3A3KKYU7P33Z3BR9PPFZ5194ZCQMWU","","","img/flower1.png","75","1088","2","1","1","1,1,0,0,1,1,1,0,1",""
"null","","html-keyboard-response","386","743166","0.0-386.0","36WLNQG780WBP4ZF420MUYNYLZWBEV","A1XODDMY1SJ0H9","3A3KKYU7P33Z3BR9PPFZ5194ZCQMWU","","","<img src=""img/flower1.png"" style=""width:200px; border:14px solid green;"">","null","","","","","",""
"822","","image-keyboard-response","387","743991","0.0-387.0","36WLNQG780WBP4ZF420MUYNYLZWBEV","A1XODDMY1SJ0H9","3A3KKYU7P33Z3BR9PPFZ5194ZCQMWU","","","img/flower1.png","75","824","2","1","1","1,1,0,0,1,1,1,0,1",""
"null","","html-keyboard-response","388","744308","0.0-388.0","36WLNQG780WBP4ZF420MUYNYLZWBEV","A1XODDMY1SJ0H9","3A3KKYU7P33Z3BR9PPFZ5194ZCQMWU","","","<img src=""img/flower1.png"" style=""width:200px; border:14px solid green;"">","null","","","","","",""
"1273","","image-keyboard-response","389","745581","0.0-389.0","36WLNQG780WBP4ZF420MUYNYLZWBEV","A1XODDMY1SJ0H9","3A3KKYU7P33Z3BR9PPFZ5194ZCQMWU","","","img/flower1.png","76","1274","3","0","1","1,1,0,0,1,1,1,0,1",""
"null","","html-keyboard-response","390","745891","0.0-390.0","36WLNQG780WBP4ZF420MUYNYLZWBEV","A1XODDMY1SJ0H9","3A3KKYU7P33Z3BR9PPFZ5194ZCQMWU","","","<img src=""img/flower1.png"" style=""width:200px;border:14px solid red;"">","null","","","","","",""
"620","","image-keyboard-response","391","746515","0.0-391.0","36WLNQG780WBP4ZF420MUYNYLZWBEV","A1XODDMY1SJ0H9","3A3KKYU7P33Z3BR9PPFZ5194ZCQMWU","","","img/flower2.png","74","622","1","0","2","1,1,0,0,1,1,1,0,1",""
"null","","html-keyboard-response","392","746822","0.0-392.0","36WLNQG780WBP4ZF420MUYNYLZWBEV","A1XODDMY1SJ0H9","3A3KKYU7P33Z3BR9PPFZ5194ZCQMWU","","","<img src=""img/flower2.png"" style=""width:200px;border:14px solid red;"">","null","","","","","",""
"575","","image-keyboard-response","393","747400","0.0-393.0","36WLNQG780WBP4ZF420MUYNYLZWBEV","A1XODDMY1SJ0H9","3A3KKYU7P33Z3BR9PPFZ5194ZCQMWU","","","img/flower4.png","75","576","2","0","3","1,1,0,0,1,1,1,0,1",""
"null","","html-keyboard-response","394","747711","0.0-394.0","36WLNQG780WBP4ZF420MUYNYLZWBEV","A1XODDMY1SJ0H9","3A3KKYU7P33Z3BR9PPFZ5194ZCQMWU","","","<img src=""img/flower4.png"" style=""width:200px;border:14px solid red;"">","null","","","","","",""
"1459","","image-keyboard-response","395","749176","0.0-395.0","36WLNQG780WBP4ZF420MUYNYLZWBEV","A1XODDMY1SJ0H9","3A3KKYU7P33Z3BR9PPFZ5194ZCQMWU","","","img/flower1.png","76","1460","3","0","1","1,1,0,0,1,1,1,0,1",""
"null","","html-keyboard-response","396","749484","0.0-396.0","36WLNQG780WBP4ZF420MUYNYLZWBEV","A1XODDMY1SJ0H9","3A3KKYU7P33Z3BR9PPFZ5194ZCQMWU","","","<img src=""img/flower1.png"" style=""width:200px;border:14px solid red;"">","null","","","","","",""
"2444","","image-keyboard-response","397","751930","0.0-397.0","36WLNQG780WBP4ZF420MUYNYLZWBEV","A1XODDMY1SJ0H9","3A3KKYU7P33Z3BR9PPFZ5194ZCQMWU","","","img/flower2.png","76","2446","3","1","2","1,1,0,0,1,1,1,0,1",""
"null","","html-keyboard-response","398","752243","0.0-398.0","36WLNQG780WBP4ZF420MUYNYLZWBEV","A1XODDMY1SJ0H9","3A3KKYU7P33Z3BR9PPFZ5194ZCQMWU","","","<img src=""img/flower2.png"" style=""width:200px; border:14px solid green;"">","null","","","","","",""
"1050","","image-keyboard-response","399","753296","0.0-399.0","36WLNQG780WBP4ZF420MUYNYLZWBEV","A1XODDMY1SJ0H9","3A3KKYU7P33Z3BR9PPFZ5194ZCQMWU","","","img/flower1.png","76","1053","3","0","1","1,1,0,0,1,1,1,0,1",""
"null","","html-keyboard-response","400","753606","0.0-400.0","36WLNQG780WBP4ZF420MUYNYLZWBEV","A1XODDMY1SJ0H9","3A3KKYU7P33Z3BR9PPFZ5194ZCQMWU","","","<img src=""img/flower1.png"" style=""width:200px;border:14px solid red;"">","null","","","","","",""
"610","","image-keyboard-response","401","754219","0.0-401.0","36WLNQG780WBP4ZF420MUYNYLZWBEV","A1XODDMY1SJ0H9","3A3KKYU7P33Z3BR9PPFZ5194ZCQMWU","","","img/flower1.png","75","612","2","1","1","1,1,0,0,1,1,1,0,1",""
"null","","html-keyboard-response","402","754525","0.0-402.0","36WLNQG780WBP4ZF420MUYNYLZWBEV","A1XODDMY1SJ0H9","3A3KKYU7P33Z3BR9PPFZ5194ZCQMWU","","","<img src=""img/flower1.png"" style=""width:200px; border:14px solid green;"">","null","","","","","",""
"1159","","image-keyboard-response","403","755688","0.0-403.0","36WLNQG780WBP4ZF420MUYNYLZWBEV","A1XODDMY1SJ0H9","3A3KKYU7P33Z3BR9PPFZ5194ZCQMWU","","","img/flower2.png","75","1162","2","1","2","1,1,0,0,1,1,1,0,1",""
"null","","html-keyboard-response","404","755993","0.0-404.0","36WLNQG780WBP4ZF420MUYNYLZWBEV","A1XODDMY1SJ0H9","3A3KKYU7P33Z3BR9PPFZ5194ZCQMWU","","","<img src=""img/flower2.png"" style=""width:200px; border:14px solid green;"">","null","","","","","",""
"1172","","image-keyboard-response","405","757168","0.0-405.0","36WLNQG780WBP4ZF420MUYNYLZWBEV","A1XODDMY1SJ0H9","3A3KKYU7P33Z3BR9PPFZ5194ZCQMWU","","","img/flower1.png","74","1174","1","1","1","1,1,0,0,1,1,1,0,1",""
"null","","html-keyboard-response","406","757474","0.0-406.0","36WLNQG780WBP4ZF420MUYNYLZWBEV","A1XODDMY1SJ0H9","3A3KKYU7P33Z3BR9PPFZ5194ZCQMWU","","","<img src=""img/flower1.png"" style=""width:200px; border:14px solid green;"">","null","","","","","",""
"859","","image-keyboard-response","407","758335","0.0-407.0","36WLNQG780WBP4ZF420MUYNYLZWBEV","A1XODDMY1SJ0H9","3A3KKYU7P33Z3BR9PPFZ5194ZCQMWU","","","img/flower4.png","74","861","1","1","3","1,1,0,0,1,1,1,0,1",""
"null","","html-keyboard-response","408","758642","0.0-408.0","36WLNQG780WBP4ZF420MUYNYLZWBEV","A1XODDMY1SJ0H9","3A3KKYU7P33Z3BR9PPFZ5194ZCQMWU","","","<img src=""img/flower4.png"" style=""width:200px; border:14px solid green;"">","null","","","","","",""
"1046","","image-keyboard-response","409","759690","0.0-409.0","36WLNQG780WBP4ZF420MUYNYLZWBEV","A1XODDMY1SJ0H9","3A3KKYU7P33Z3BR9PPFZ5194ZCQMWU","","","img/flower1.png","75","1048","2","1","1","1,1,0,0,1,1,1,0,1",""
"null","","html-keyboard-response","410","759996","0.0-410.0","36WLNQG780WBP4ZF420MUYNYLZWBEV","A1XODDMY1SJ0H9","3A3KKYU7P33Z3BR9PPFZ5194ZCQMWU","","","<img src=""img/flower1.png"" style=""width:200px; border:14px solid green;"">","null","","","","","",""
"1180","","image-keyboard-response","411","761178","0.0-411.0","36WLNQG780WBP4ZF420MUYNYLZWBEV","A1XODDMY1SJ0H9","3A3KKYU7P33Z3BR9PPFZ5194ZCQMWU","","","img/flower1.png","75","1182","2","1","1","1,1,0,0,1,1,1,0,1",""
"null","","html-keyboard-response","412","761490","0.0-412.0","36WLNQG780WBP4ZF420MUYNYLZWBEV","A1XODDMY1SJ0H9","3A3KKYU7P33Z3BR9PPFZ5194ZCQMWU","","","<img src=""img/flower1.png"" style=""width:200px; border:14px solid green;"">","null","","","","","",""
"4101","","image-keyboard-response","413","765605","0.0-413.0","36WLNQG780WBP4ZF420MUYNYLZWBEV","A1XODDMY1SJ0H9","3A3KKYU7P33Z3BR9PPFZ5194ZCQMWU","","","img/flower2.png","76","4115","3","1","2","1,1,0,0,1,1,1,0,1",""
"null","","html-keyboard-response","414","765914","0.0-414.0","36WLNQG780WBP4ZF420MUYNYLZWBEV","A1XODDMY1SJ0H9","3A3KKYU7P33Z3BR9PPFZ5194ZCQMWU","","","<img src=""img/flower2.png"" style=""width:200px; border:14px solid green;"">","null","","","","","",""
"755","","image-keyboard-response","415","766685","0.0-415.0","36WLNQG780WBP4ZF420MUYNYLZWBEV","A1XODDMY1SJ0H9","3A3KKYU7P33Z3BR9PPFZ5194ZCQMWU","","","img/flower2.png","76","770","3","1","2","1,1,0,0,1,1,1,0,1",""
"null","","html-keyboard-response","416","766997","0.0-416.0","36WLNQG780WBP4ZF420MUYNYLZWBEV","A1XODDMY1SJ0H9","3A3KKYU7P33Z3BR9PPFZ5194ZCQMWU","","","<img src=""img/flower2.png"" style=""width:200px; border:14px solid green;"">","null","","","","","",""
"2535","","image-keyboard-response","417","769537","0.0-417.0","36WLNQG780WBP4ZF420MUYNYLZWBEV","A1XODDMY1SJ0H9","3A3KKYU7P33Z3BR9PPFZ5194ZCQMWU","","","img/flower1.png","75","2540","2","1","1","1,1,0,0,1,1,1,0,1",""
"null","","html-keyboard-response","418","769852","0.0-418.0","36WLNQG780WBP4ZF420MUYNYLZWBEV","A1XODDMY1SJ0H9","3A3KKYU7P33Z3BR9PPFZ5194ZCQMWU","","","<img src=""img/flower1.png"" style=""width:200px; border:14px solid green;"">","null","","","","","",""
"1311","","image-keyboard-response","419","771164","0.0-419.0","36WLNQG780WBP4ZF420MUYNYLZWBEV","A1XODDMY1SJ0H9","3A3KKYU7P33Z3BR9PPFZ5194ZCQMWU","","","img/flower2.png","74","1312","1","0","2","1,1,0,0,1,1,1,0,1",""
"null","","html-keyboard-response","420","771473","0.0-420.0","36WLNQG780WBP4ZF420MUYNYLZWBEV","A1XODDMY1SJ0H9","3A3KKYU7P33Z3BR9PPFZ5194ZCQMWU","","","<img src=""img/flower2.png"" style=""width:200px;border:14px solid red;"">","null","","","","","",""
"525","","image-keyboard-response","421","772001","0.0-421.0","36WLNQG780WBP4ZF420MUYNYLZWBEV","A1XODDMY1SJ0H9","3A3KKYU7P33Z3BR9PPFZ5194ZCQMWU","","","img/flower2.png","75","527","2","1","2","1,1,0,0,1,1,1,0,1",""
"null","","html-keyboard-response","422","772309","0.0-422.0","36WLNQG780WBP4ZF420MUYNYLZWBEV","A1XODDMY1SJ0H9","3A3KKYU7P33Z3BR9PPFZ5194ZCQMWU","","","<img src=""img/flower2.png"" style=""width:200px; border:14px solid green;"">","null","","","","","",""
"1314","","image-keyboard-response","423","773625","0.0-423.0","36WLNQG780WBP4ZF420MUYNYLZWBEV","A1XODDMY1SJ0H9","3A3KKYU7P33Z3BR9PPFZ5194ZCQMWU","","","img/flower1.png","76","1316","3","0","1","1,1,0,0,1,1,1,0,1",""
