"rt","url","trial_type","trial_index","time_elapsed","internal_node_id","assignmentID","mturkID","hitID","success","view_history","stimulus","key_press","reactionTime","a","r","s","reward_cond","responses"
"3183.300000011921","consent.html","external-html","0","3257","0.0-0.0","3PJ71Z61R5OTHAQ6UURBW89EALU91X","A1YZ0ETOCJO1B2","3VJ4PFXFJ3TL96TFXMATEMT7KJHUAI","","","","","","","","","",""
"","","fullscreen","1","9780","0.0-1.0","3PJ71Z61R5OTHAQ6UURBW89EALU91X","A1YZ0ETOCJO1B2","3VJ4PFXFJ3TL96TFXMATEMT7KJHUAI","true","","","","","","","","",""
"137055.30000001192","","instructions","2","146837","0.0-2.0","3PJ71Z61R5OTHAQ6UURBW89EALU91X","A1YZ0ETOCJO1B2","3VJ4PFXFJ3TL96TFXMATEMT7KJHUAI","","[{""page_index"":0,""viewing_time"":43875.80000001192},{""page_index"":1,""viewing_time"":14453.59999999404},{""page_index"":2,""viewing_time"":15912.800000011921},{""page_index"":3,""viewing_time"":6503.399999976158},{""page_index"":4,""viewing_time"":18671.90000000596},{""page_index"":5,""viewing_time"":32450.30000001192},{""page_index"":6,""viewing_time"":5187}]","","","","","","","",""
"48336.80000001192","","instructions","3","195174","0.0-3.0","3PJ71Z61R5OTHAQ6UURBW89EALU91X","A1YZ0ETOCJO1B2","3VJ4PFXFJ3TL96TFXMATEMT7KJHUAI","","[{""page_index"":0,""viewing_time"":48336.59999999404}]","","","","","","","",""
"1585.300000011921","","image-keyboard-response","4","196761","0.0-4.0","3PJ71Z61R5OTHAQ6UURBW89EALU91X","A1YZ0ETOCJO1B2","3VJ4PFXFJ3TL96TFXMATEMT7KJHUAI","","","img/flower5.png","74","1586.7000000178814","1","0","2","",""
"null","","html-keyboard-response","5","197067","0.0-5.0","3PJ71Z61R5OTHAQ6UURBW89EALU91X","A1YZ0ETOCJO1B2","3VJ4PFXFJ3TL96TFXMATEMT7KJHUAI","","","<img src=""img/flower5.png"" style=""width:200px;border:14px solid red;"">","null","","","","","",""
"838.5","","image-keyboard-response","6","197906","0.0-6.0","3PJ71Z61R5OTHAQ6UURBW89EALU91X","A1YZ0ETOCJO1B2","3VJ4PFXFJ3TL96TFXMATEMT7KJHUAI","","","img/flower6.png","76","839","3","0","3","",""
"null","","html-keyboard-response","7","198220","0.0-7.0","3PJ71Z61R5OTHAQ6UURBW89EALU91X","A1YZ0ETOCJO1B2","3VJ4PFXFJ3TL96TFXMATEMT7KJHUAI","","","<img src=""img/flower6.png"" style=""width:200px;border:14px solid red;"">","null","","","","","",""
"1489.5","","image-keyboard-response","8","199710","0.0-8.0","3PJ71Z61R5OTHAQ6UURBW89EALU91X","A1YZ0ETOCJO1B2","3VJ4PFXFJ3TL96TFXMATEMT7KJHUAI","","","img/flower5.png","75","1490.0999999940395","2","0","2","",""
"null","","html-keyboard-response","9","200013","0.0-9.0","3PJ71Z61R5OTHAQ6UURBW89EALU91X","A1YZ0ETOCJO1B2","3VJ4PFXFJ3TL96TFXMATEMT7KJHUAI","","","<img src=""img/flower5.png"" style=""width:200px;border:14px solid red;"">","null","","","","","",""
"888.9000000059605","","image-keyboard-response","10","200902","0.0-10.0","3PJ71Z61R5OTHAQ6UURBW89EALU91X","A1YZ0ETOCJO1B2","3VJ4PFXFJ3TL96TFXMATEMT7KJHUAI","","","img/flower5.png","74","889.4000000059605","1","0","2","",""
"null","","html-keyboard-response","11","201204","0.0-11.0","3PJ71Z61R5OTHAQ6UURBW89EALU91X","A1YZ0ETOCJO1B2","3VJ4PFXFJ3TL96TFXMATEMT7KJHUAI","","","<img src=""img/flower5.png"" style=""width:200px;border:14px solid red;"">","null","","","","","",""
"811.5999999940395","","image-keyboard-response","12","202016","0.0-12.0","3PJ71Z61R5OTHAQ6UURBW89EALU91X","A1YZ0ETOCJO1B2","3VJ4PFXFJ3TL96TFXMATEMT7KJHUAI","","","img/flower6.png","76","812","3","1","3","",""
"null","","html-keyboard-response","13","202321","0.0-13.0","3PJ71Z61R5OTHAQ6UURBW89EALU91X","A1YZ0ETOCJO1B2","3VJ4PFXFJ3TL96TFXMATEMT7KJHUAI","","","<img src=""img/flower6.png"" style=""width:200px; border:14px solid green;"">","null","","","","","",""
"1322.4000000059605","","image-keyboard-response","14","203644","0.0-14.0","3PJ71Z61R5OTHAQ6UURBW89EALU91X","A1YZ0ETOCJO1B2","3VJ4PFXFJ3TL96TFXMATEMT7KJHUAI","","","img/flower5.png","74","1322.9000000059605","1","0","2","",""
"null","","html-keyboard-response","15","203949","0.0-15.0","3PJ71Z61R5OTHAQ6UURBW89EALU91X","A1YZ0ETOCJO1B2","3VJ4PFXFJ3TL96TFXMATEMT7KJHUAI","","","<img src=""img/flower5.png"" style=""width:200px;border:14px solid red;"">","null","","","","","",""
"1357.9000000059605","","image-keyboard-response","16","205308","0.0-16.0","3PJ71Z61R5OTHAQ6UURBW89EALU91X","A1YZ0ETOCJO1B2","3VJ4PFXFJ3TL96TFXMATEMT7KJHUAI","","","img/flower5.png","75","1358.300000011921","2","0","2","",""
"null","","html-keyboard-response","17","205611","0.0-17.0","3PJ71Z61R5OTHAQ6UURBW89EALU91X","A1YZ0ETOCJO1B2","3VJ4PFXFJ3TL96TFXMATEMT7KJHUAI","","","<img src=""img/flower5.png"" style=""width:200px;border:14px solid red;"">","null","","","","","",""
"1122.0999999940395","","image-keyboard-response","18","206733","0.0-18.0","3PJ71Z61R5OTHAQ6UURBW89EALU91X","A1YZ0ETOCJO1B2","3VJ4PFXFJ3TL96TFXMATEMT7KJHUAI","","","img/flower5.png","76","1122.699999988079","3","0","2","",""
"null","","html-keyboard-response","19","207048","0.0-19.0","3PJ71Z61R5OTHAQ6UURBW89EALU91X","A1YZ0ETOCJO1B2","3VJ4PFXFJ3TL96TFXMATEMT7KJHUAI","","","<img src=""img/flower5.png"" style=""width:200px;border:14px solid red;"">","null","","","","","",""
"767.5999999940395","","image-keyboard-response","20","207816","0.0-20.0","3PJ71Z61R5OTHAQ6UURBW89EALU91X","A1YZ0ETOCJO1B2","3VJ4PFXFJ3TL96TFXMATEMT7KJHUAI","","","img/flower5.png","74","767.9000000059605","1","0","2","",""
"null","","html-keyboard-response","21","208125","0.0-21.0","3PJ71Z61R5OTHAQ6UURBW89EALU91X","A1YZ0ETOCJO1B2","3VJ4PFXFJ3TL96TFXMATEMT7KJHUAI","","","<img src=""img/flower5.png"" style=""width:200px;border:14px solid red;"">","null","","","","","",""
"721.9000000059605","","image-keyboard-response","22","208847","0.0-22.0","3PJ71Z61R5OTHAQ6UURBW89EALU91X","A1YZ0ETOCJO1B2","3VJ4PFXFJ3TL96TFXMATEMT7KJHUAI","","","img/flower6.png","76","722.5","3","1","3","",""
"null","","html-keyboard-response","23","209153","0.0-23.0","3PJ71Z61R5OTHAQ6UURBW89EALU91X","A1YZ0ETOCJO1B2","3VJ4PFXFJ3TL96TFXMATEMT7KJHUAI","","","<img src=""img/flower6.png"" style=""width:200px; border:14px solid green;"">","null","","","","","",""
"669.5","","image-keyboard-response","24","209823","0.0-24.0","3PJ71Z61R5OTHAQ6UURBW89EALU91X","A1YZ0ETOCJO1B2","3VJ4PFXFJ3TL96TFXMATEMT7KJHUAI","","","img/flower5.png","74","670","1","0","2","",""
"null","","html-keyboard-response","25","210135","0.0-25.0","3PJ71Z61R5OTHAQ6UURBW89EALU91X","A1YZ0ETOCJO1B2","3VJ4PFXFJ3TL96TFXMATEMT7KJHUAI","","","<img src=""img/flower5.png"" style=""width:200px;border:14px solid red;"">","null","","","","","",""
"940.3000000119209","","image-keyboard-response","26","211076","0.0-26.0","3PJ71Z61R5OTHAQ6UURBW89EALU91X","A1YZ0ETOCJO1B2","3VJ4PFXFJ3TL96TFXMATEMT7KJHUAI","","","img/flower4.png","75","940.7999999821186","2","0","1","",""
"null","","html-keyboard-response","27","211385","0.0-27.0","3PJ71Z61R5OTHAQ6UURBW89EALU91X","A1YZ0ETOCJO1B2","3VJ4PFXFJ3TL96TFXMATEMT7KJHUAI","","","<img src=""img/flower4.png"" style=""width:200px;border:14px solid red;"">","null","","","","","",""
"1224.5","","image-keyboard-response","28","212610","0.0-28.0","3PJ71Z61R5OTHAQ6UURBW89EALU91X","A1YZ0ETOCJO1B2","3VJ4PFXFJ3TL96TFXMATEMT7KJHUAI","","","img/flower6.png","76","1225.0999999940395","3","1","3","",""
"null","","html-keyboard-response","29","212912","0.0-29.0","3PJ71Z61R5OTHAQ6UURBW89EALU91X","A1YZ0ETOCJO1B2","3VJ4PFXFJ3TL96TFXMATEMT7KJHUAI","","","<img src=""img/flower6.png"" style=""width:200px; border:14px solid green;"">","null","","","","","",""
"734.3000000119209","","image-keyboard-response","30","213647","0.0-30.0","3PJ71Z61R5OTHAQ6UURBW89EALU91X","A1YZ0ETOCJO1B2","3VJ4PFXFJ3TL96TFXMATEMT7KJHUAI","","","img/flower4.png","74","734.7999999821186","1","1","1","",""
"null","","html-keyboard-response","31","213957","0.0-31.0","3PJ71Z61R5OTHAQ6UURBW89EALU91X","A1YZ0ETOCJO1B2","3VJ4PFXFJ3TL96TFXMATEMT7KJHUAI","","","<img src=""img/flower4.png"" style=""width:200px; border:14px solid green;"">","null","","","","","",""
"943.9000000059605","","image-keyboard-response","32","214901","0.0-32.0","3PJ71Z61R5OTHAQ6UURBW89EALU91X","A1YZ0ETOCJO1B2","3VJ4PFXFJ3TL96TFXMATEMT7KJHUAI","","","img/flower5.png","75","944.2999999821186","2","1","2","",""
"null","","html-keyboard-response","33","215204","0.0-33.0","3PJ71Z61R5OTHAQ6UURBW89EALU91X","A1YZ0ETOCJO1B2","3VJ4PFXFJ3TL96TFXMATEMT7KJHUAI","","","<img src=""img/flower5.png"" style=""width:200px; border:14px solid green;"">","null","","","","","",""
"608.9000000059605","","image-keyboard-response","34","215813","0.0-34.0","3PJ71Z61R5OTHAQ6UURBW89EALU91X","A1YZ0ETOCJO1B2","3VJ4PFXFJ3TL96TFXMATEMT7KJHUAI","","","img/flower6.png","76","609.4000000059605","3","1","3","",""
"null","","html-keyboard-response","35","216115","0.0-35.0","3PJ71Z61R5OTHAQ6UURBW89EALU91X","A1YZ0ETOCJO1B2","3VJ4PFXFJ3TL96TFXMATEMT7KJHUAI","","","<img src=""img/flower6.png"" style=""width:200px; border:14px solid green;"">","null","","","","","",""
"744.4000000059605","","image-keyboard-response","36","216859","0.0-36.0","3PJ71Z61R5OTHAQ6UURBW89EALU91X","A1YZ0ETOCJO1B2","3VJ4PFXFJ3TL96TFXMATEMT7KJHUAI","","","img/flower5.png","75","744.6999999880791","2","1","2","",""
"null","","html-keyboard-response","37","217170","0.0-37.0","3PJ71Z61R5OTHAQ6UURBW89EALU91X","A1YZ0ETOCJO1B2","3VJ4PFXFJ3TL96TFXMATEMT7KJHUAI","","","<img src=""img/flower5.png"" style=""width:200px; border:14px solid green;"">","null","","","","","",""
"538.9000000059605","","image-keyboard-response","38","217709","0.0-38.0","3PJ71Z61R5OTHAQ6UURBW89EALU91X","A1YZ0ETOCJO1B2","3VJ4PFXFJ3TL96TFXMATEMT7KJHUAI","","","img/flower4.png","74","539.2999999821186","1","1","1","",""
"null","","html-keyboard-response","39","218012","0.0-39.0","3PJ71Z61R5OTHAQ6UURBW89EALU91X","A1YZ0ETOCJO1B2","3VJ4PFXFJ3TL96TFXMATEMT7KJHUAI","","","<img src=""img/flower4.png"" style=""width:200px; border:14px solid green;"">","null","","","","","",""
"697.7000000178814","","image-keyboard-response","40","218710","0.0-40.0","3PJ71Z61R5OTHAQ6UURBW89EALU91X","A1YZ0ETOCJO1B2","3VJ4PFXFJ3TL96TFXMATEMT7KJHUAI","","","img/flower4.png","74","698.1999999880791","1","1","1","",""
"null","","html-keyboard-response","41","219021","0.0-41.0","3PJ71Z61R5OTHAQ6UURBW89EALU91X","A1YZ0ETOCJO1B2","3VJ4PFXFJ3TL96TFXMATEMT7KJHUAI","","","<img src=""img/flower4.png"" style=""width:200px; border:14px solid green;"">","null","","","","","",""
"569.5999999940395","","image-keyboard-response","42","219591","0.0-42.0","3PJ71Z61R5OTHAQ6UURBW89EALU91X","A1YZ0ETOCJO1B2","3VJ4PFXFJ3TL96TFXMATEMT7KJHUAI","","","img/flower6.png","76","570.1999999880791","3","1","3","",""
"null","","html-keyboard-response","43","219902","0.0-43.0","3PJ71Z61R5OTHAQ6UURBW89EALU91X","A1YZ0ETOCJO1B2","3VJ4PFXFJ3TL96TFXMATEMT7KJHUAI","","","<img src=""img/flower6.png"" style=""width:200px; border:14px solid green;"">","null","","","","","",""
"424.5","","image-keyboard-response","44","220327","0.0-44.0","3PJ71Z61R5OTHAQ6UURBW89EALU91X","A1YZ0ETOCJO1B2","3VJ4PFXFJ3TL96TFXMATEMT7KJHUAI","","","img/flower6.png","76","425","3","1","3","",""
"null","","html-keyboard-response","45","220632","0.0-45.0","3PJ71Z61R5OTHAQ6UURBW89EALU91X","A1YZ0ETOCJO1B2","3VJ4PFXFJ3TL96TFXMATEMT7KJHUAI","","","<img src=""img/flower6.png"" style=""width:200px; border:14px solid green;"">","null","","","","","",""
"367.59999999403954","","image-keyboard-response","46","221001","0.0-46.0","3PJ71Z61R5OTHAQ6UURBW89EALU91X","A1YZ0ETOCJO1B2","3VJ4PFXFJ3TL96TFXMATEMT7KJHUAI","","","img/flower6.png","76","368.09999999403954","3","1","3","",""
"null","","html-keyboard-response","47","221305","0.0-47.0","3PJ71Z61R5OTHAQ6UURBW89EALU91X","A1YZ0ETOCJO1B2","3VJ4PFXFJ3TL96TFXMATEMT7KJHUAI","","","<img src=""img/flower6.png"" style=""width:200px; border:14px solid green;"">","null","","","","","",""
"415.7999999821186","","image-keyboard-response","48","221721","0.0-48.0","3PJ71Z61R5OTHAQ6UURBW89EALU91X","A1YZ0ETOCJO1B2","3VJ4PFXFJ3TL96TFXMATEMT7KJHUAI","","","img/flower6.png","76","416.40000000596046","3","1","3","",""
"null","","html-keyboard-response","49","222033","0.0-49.0","3PJ71Z61R5OTHAQ6UURBW89EALU91X","A1YZ0ETOCJO1B2","3VJ4PFXFJ3TL96TFXMATEMT7KJHUAI","","","<img src=""img/flower6.png"" style=""width:200px; border:14px solid green;"">","null","","","","","",""
"1191.2000000178814","","image-keyboard-response","50","223224","0.0-50.0","3PJ71Z61R5OTHAQ6UURBW89EALU91X","A1YZ0ETOCJO1B2","3VJ4PFXFJ3TL96TFXMATEMT7KJHUAI","","","img/flower4.png","74","1191.5999999940395","1","1","1","",""
"null","","html-keyboard-response","51","223532","0.0-51.0","3PJ71Z61R5OTHAQ6UURBW89EALU91X","A1YZ0ETOCJO1B2","3VJ4PFXFJ3TL96TFXMATEMT7KJHUAI","","","<img src=""img/flower4.png"" style=""width:200px; border:14px solid green;"">","null","","","","","",""
"572.5999999940395","","image-keyboard-response","52","224105","0.0-52.0","3PJ71Z61R5OTHAQ6UURBW89EALU91X","A1YZ0ETOCJO1B2","3VJ4PFXFJ3TL96TFXMATEMT7KJHUAI","","","img/flower4.png","74","573.2999999821186","1","1","1","",""
"null","","html-keyboard-response","53","224419","0.0-53.0","3PJ71Z61R5OTHAQ6UURBW89EALU91X","A1YZ0ETOCJO1B2","3VJ4PFXFJ3TL96TFXMATEMT7KJHUAI","","","<img src=""img/flower4.png"" style=""width:200px; border:14px solid green;"">","null","","","","","",""
"375","","image-keyboard-response","54","224794","0.0-54.0","3PJ71Z61R5OTHAQ6UURBW89EALU91X","A1YZ0ETOCJO1B2","3VJ4PFXFJ3TL96TFXMATEMT7KJHUAI","","","img/flower4.png","74","375.30000001192093","1","1","1","",""
"null","","html-keyboard-response","55","225104","0.0-55.0","3PJ71Z61R5OTHAQ6UURBW89EALU91X","A1YZ0ETOCJO1B2","3VJ4PFXFJ3TL96TFXMATEMT7KJHUAI","","","<img src=""img/flower4.png"" style=""width:200px; border:14px solid green;"">","null","","","","","",""
"727.1999999880791","","image-keyboard-response","56","225831","0.0-56.0","3PJ71Z61R5OTHAQ6UURBW89EALU91X","A1YZ0ETOCJO1B2","3VJ4PFXFJ3TL96TFXMATEMT7KJHUAI","","","img/flower6.png","76","727.5999999940395","3","0","3","",""
"null","","html-keyboard-response","57","226146","0.0-57.0","3PJ71Z61R5OTHAQ6UURBW89EALU91X","A1YZ0ETOCJO1B2","3VJ4PFXFJ3TL96TFXMATEMT7KJHUAI","","","<img src=""img/flower6.png"" style=""width:200px;border:14px solid red;"">","null","","","","","",""
"1187.7000000178814","","image-keyboard-response","58","227334","0.0-58.0","3PJ71Z61R5OTHAQ6UURBW89EALU91X","A1YZ0ETOCJO1B2","3VJ4PFXFJ3TL96TFXMATEMT7KJHUAI","","","img/flower4.png","74","1188.2999999821186","1","1","1","",""
"null","","html-keyboard-response","59","227650","0.0-59.0","3PJ71Z61R5OTHAQ6UURBW89EALU91X","A1YZ0ETOCJO1B2","3VJ4PFXFJ3TL96TFXMATEMT7KJHUAI","","","<img src=""img/flower4.png"" style=""width:200px; border:14px solid green;"">","null","","","","","",""
"388.80000001192093","","image-keyboard-response","60","228039","0.0-60.0","3PJ71Z61R5OTHAQ6UURBW89EALU91X","A1YZ0ETOCJO1B2","3VJ4PFXFJ3TL96TFXMATEMT7KJHUAI","","","img/flower4.png","74","389.09999999403954","1","1","1","",""
"null","","html-keyboard-response","61","228351","0.0-61.0","3PJ71Z61R5OTHAQ6UURBW89EALU91X","A1YZ0ETOCJO1B2","3VJ4PFXFJ3TL96TFXMATEMT7KJHUAI","","","<img src=""img/flower4.png"" style=""width:200px; border:14px solid green;"">","null","","","","","",""
"376.80000001192093","","image-keyboard-response","62","228728","0.0-62.0","3PJ71Z61R5OTHAQ6UURBW89EALU91X","A1YZ0ETOCJO1B2","3VJ4PFXFJ3TL96TFXMATEMT7KJHUAI","","","img/flower4.png","74","377.19999998807907","1","0","1","",""
"null","","html-keyboard-response","63","229035","0.0-63.0","3PJ71Z61R5OTHAQ6UURBW89EALU91X","A1YZ0ETOCJO1B2","3VJ4PFXFJ3TL96TFXMATEMT7KJHUAI","","","<img src=""img/flower4.png"" style=""width:200px;border:14px solid red;"">","null","","","","","",""
"8579.100000023842","","instructions","64","237614","0.0-64.0","3PJ71Z61R5OTHAQ6UURBW89EALU91X","A1YZ0ETOCJO1B2","3VJ4PFXFJ3TL96TFXMATEMT7KJHUAI","","[{""page_index"":0,""viewing_time"":4162.700000017881},{""page_index"":1,""viewing_time"":4416.0999999940395}]","","","","","","","",""
"1650.5","","image-keyboard-response","65","239265","0.0-65.0","3PJ71Z61R5OTHAQ6UURBW89EALU91X","A1YZ0ETOCJO1B2","3VJ4PFXFJ3TL96TFXMATEMT7KJHUAI","","","img/flower5.png","74","1651","1","0","2","",""
"null","","html-keyboard-response","66","239572","0.0-66.0","3PJ71Z61R5OTHAQ6UURBW89EALU91X","A1YZ0ETOCJO1B2","3VJ4PFXFJ3TL96TFXMATEMT7KJHUAI","","","<img src=""img/flower5.png"" style=""width:200px;border:14px solid red;"">","null","","","","","",""
"885.7999999821186","","image-keyboard-response","67","240458","0.0-67.0","3PJ71Z61R5OTHAQ6UURBW89EALU91X","A1YZ0ETOCJO1B2","3VJ4PFXFJ3TL96TFXMATEMT7KJHUAI","","","img/flower4.png","74","886.3000000119209","1","1","1","",""
"null","","html-keyboard-response","68","240774","0.0-68.0","3PJ71Z61R5OTHAQ6UURBW89EALU91X","A1YZ0ETOCJO1B2","3VJ4PFXFJ3TL96TFXMATEMT7KJHUAI","","","<img src=""img/flower4.png"" style=""width:200px; border:14px solid green;"">","null","","","","","",""
"812.4000000059605","","image-keyboard-response","69","241588","0.0-69.0","3PJ71Z61R5OTHAQ6UURBW89EALU91X","A1YZ0ETOCJO1B2","3VJ4PFXFJ3TL96TFXMATEMT7KJHUAI","","","img/flower6.png","76","812.8999999761581","3","0","3","",""
"null","","html-keyboard-response","70","241896","0.0-70.0","3PJ71Z61R5OTHAQ6UURBW89EALU91X","A1YZ0ETOCJO1B2","3VJ4PFXFJ3TL96TFXMATEMT7KJHUAI","","","<img src=""img/flower6.png"" style=""width:200px;border:14px solid red;"">","null","","","","","",""
"945.0999999940395","","image-keyboard-response","71","242841","0.0-71.0","3PJ71Z61R5OTHAQ6UURBW89EALU91X","A1YZ0ETOCJO1B2","3VJ4PFXFJ3TL96TFXMATEMT7KJHUAI","","","img/flower4.png","74","945.5","1","1","1","",""
"null","","html-keyboard-response","72","243143","0.0-72.0","3PJ71Z61R5OTHAQ6UURBW89EALU91X","A1YZ0ETOCJO1B2","3VJ4PFXFJ3TL96TFXMATEMT7KJHUAI","","","<img src=""img/flower4.png"" style=""width:200px; border:14px solid green;"">","null","","","","","",""
"573.5","","image-keyboard-response","73","243717","0.0-73.0","3PJ71Z61R5OTHAQ6UURBW89EALU91X","A1YZ0ETOCJO1B2","3VJ4PFXFJ3TL96TFXMATEMT7KJHUAI","","","img/flower4.png","74","573.8000000119209","1","1","1","",""
"null","","html-keyboard-response","74","244030","0.0-74.0","3PJ71Z61R5OTHAQ6UURBW89EALU91X","A1YZ0ETOCJO1B2","3VJ4PFXFJ3TL96TFXMATEMT7KJHUAI","","","<img src=""img/flower4.png"" style=""width:200px; border:14px solid green;"">","null","","","","","",""
"800.5","","image-keyboard-response","75","244831","0.0-75.0","3PJ71Z61R5OTHAQ6UURBW89EALU91X","A1YZ0ETOCJO1B2","3VJ4PFXFJ3TL96TFXMATEMT7KJHUAI","","","img/flower5.png","75","801.0999999940395","2","1","2","",""
"null","","html-keyboard-response","76","245137","0.0-76.0","3PJ71Z61R5OTHAQ6UURBW89EALU91X","A1YZ0ETOCJO1B2","3VJ4PFXFJ3TL96TFXMATEMT7KJHUAI","","","<img src=""img/flower5.png"" style=""width:200px; border:14px solid green;"">","null","","","","","",""
"539.7000000178814","","image-keyboard-response","77","245677","0.0-77.0","3PJ71Z61R5OTHAQ6UURBW89EALU91X","A1YZ0ETOCJO1B2","3VJ4PFXFJ3TL96TFXMATEMT7KJHUAI","","","img/flower5.png","75","540.1999999880791","2","1","2","",""
"null","","html-keyboard-response","78","245991","0.0-78.0","3PJ71Z61R5OTHAQ6UURBW89EALU91X","A1YZ0ETOCJO1B2","3VJ4PFXFJ3TL96TFXMATEMT7KJHUAI","","","<img src=""img/flower5.png"" style=""width:200px; border:14px solid green;"">","null","","","","","",""
"389.59999999403954","","image-keyboard-response","79","246381","0.0-79.0","3PJ71Z61R5OTHAQ6UURBW89EALU91X","A1YZ0ETOCJO1B2","3VJ4PFXFJ3TL96TFXMATEMT7KJHUAI","","","img/flower5.png","75","390.09999999403954","2","1","2","",""
"null","","html-keyboard-response","80","246690","0.0-80.0","3PJ71Z61R5OTHAQ6UURBW89EALU91X","A1YZ0ETOCJO1B2","3VJ4PFXFJ3TL96TFXMATEMT7KJHUAI","","","<img src=""img/flower5.png"" style=""width:200px; border:14px solid green;"">","null","","","","","",""
"508.80000001192093","","image-keyboard-response","81","247199","0.0-81.0","3PJ71Z61R5OTHAQ6UURBW89EALU91X","A1YZ0ETOCJO1B2","3VJ4PFXFJ3TL96TFXMATEMT7KJHUAI","","","img/flower4.png","74","509.30000001192093","1","1","1","",""
"null","","html-keyboard-response","82","247512","0.0-82.0","3PJ71Z61R5OTHAQ6UURBW89EALU91X","A1YZ0ETOCJO1B2","3VJ4PFXFJ3TL96TFXMATEMT7KJHUAI","","","<img src=""img/flower4.png"" style=""width:200px; border:14px solid green;"">","null","","","","","",""
"578.0999999940395","","image-keyboard-response","83","248091","0.0-83.0","3PJ71Z61R5OTHAQ6UURBW89EALU91X","A1YZ0ETOCJO1B2","3VJ4PFXFJ3TL96TFXMATEMT7KJHUAI","","","img/flower5.png","75","578.8999999761581","2","1","2","",""
"null","","html-keyboard-response","84","248400","0.0-84.0","3PJ71Z61R5OTHAQ6UURBW89EALU91X","A1YZ0ETOCJO1B2","3VJ4PFXFJ3TL96TFXMATEMT7KJHUAI","","","<img src=""img/flower5.png"" style=""width:200px; border:14px solid green;"">","null","","","","","",""
"649.9000000059605","","image-keyboard-response","85","249050","0.0-85.0","3PJ71Z61R5OTHAQ6UURBW89EALU91X","A1YZ0ETOCJO1B2","3VJ4PFXFJ3TL96TFXMATEMT7KJHUAI","","","img/flower6.png","76","650.2999999821186","3","1","3","",""
"null","","html-keyboard-response","86","249362","0.0-86.0","3PJ71Z61R5OTHAQ6UURBW89EALU91X","A1YZ0ETOCJO1B2","3VJ4PFXFJ3TL96TFXMATEMT7KJHUAI","","","<img src=""img/flower6.png"" style=""width:200px; border:14px solid green;"">","null","","","","","",""
"377.59999999403954","","image-keyboard-response","87","249740","0.0-87.0","3PJ71Z61R5OTHAQ6UURBW89EALU91X","A1YZ0ETOCJO1B2","3VJ4PFXFJ3TL96TFXMATEMT7KJHUAI","","","img/flower6.png","76","378.09999999403954","3","0","3","",""
"null","","html-keyboard-response","88","250045","0.0-88.0","3PJ71Z61R5OTHAQ6UURBW89EALU91X","A1YZ0ETOCJO1B2","3VJ4PFXFJ3TL96TFXMATEMT7KJHUAI","","","<img src=""img/flower6.png"" style=""width:200px;border:14px solid red;"">","null","","","","","",""
"771.9000000059605","","image-keyboard-response","89","250817","0.0-89.0","3PJ71Z61R5OTHAQ6UURBW89EALU91X","A1YZ0ETOCJO1B2","3VJ4PFXFJ3TL96TFXMATEMT7KJHUAI","","","img/flower5.png","74","772.4000000059605","1","0","2","",""
"null","","html-keyboard-response","90","251130","0.0-90.0","3PJ71Z61R5OTHAQ6UURBW89EALU91X","A1YZ0ETOCJO1B2","3VJ4PFXFJ3TL96TFXMATEMT7KJHUAI","","","<img src=""img/flower5.png"" style=""width:200px;border:14px solid red;"">","null","","","","","",""
"768.8000000119209","","image-keyboard-response","91","251899","0.0-91.0","3PJ71Z61R5OTHAQ6UURBW89EALU91X","A1YZ0ETOCJO1B2","3VJ4PFXFJ3TL96TFXMATEMT7KJHUAI","","","img/flower6.png","75","769.2999999821186","2","0","3","",""
"null","","html-keyboard-response","92","252200","0.0-92.0","3PJ71Z61R5OTHAQ6UURBW89EALU91X","A1YZ0ETOCJO1B2","3VJ4PFXFJ3TL96TFXMATEMT7KJHUAI","","","<img src=""img/flower6.png"" style=""width:200px;border:14px solid red;"">","null","","","","","",""
"358.09999999403954","","image-keyboard-response","93","252559","0.0-93.0","3PJ71Z61R5OTHAQ6UURBW89EALU91X","A1YZ0ETOCJO1B2","3VJ4PFXFJ3TL96TFXMATEMT7KJHUAI","","","img/flower6.png","76","358.69999998807907","3","0","3","",""
"null","","html-keyboard-response","94","252866","0.0-94.0","3PJ71Z61R5OTHAQ6UURBW89EALU91X","A1YZ0ETOCJO1B2","3VJ4PFXFJ3TL96TFXMATEMT7KJHUAI","","","<img src=""img/flower6.png"" style=""width:200px;border:14px solid red;"">","null","","","","","",""
"680.7999999821186","","image-keyboard-response","95","253548","0.0-95.0","3PJ71Z61R5OTHAQ6UURBW89EALU91X","A1YZ0ETOCJO1B2","3VJ4PFXFJ3TL96TFXMATEMT7KJHUAI","","","img/flower4.png","74","681.2000000178814","1","1","1","",""
"null","","html-keyboard-response","96","253861","0.0-96.0","3PJ71Z61R5OTHAQ6UURBW89EALU91X","A1YZ0ETOCJO1B2","3VJ4PFXFJ3TL96TFXMATEMT7KJHUAI","","","<img src=""img/flower4.png"" style=""width:200px; border:14px solid green;"">","null","","","","","",""
"607.8000000119209","","image-keyboard-response","97","254470","0.0-97.0","3PJ71Z61R5OTHAQ6UURBW89EALU91X","A1YZ0ETOCJO1B2","3VJ4PFXFJ3TL96TFXMATEMT7KJHUAI","","","img/flower4.png","74","608.2000000178814","1","1","1","",""
"null","","html-keyboard-response","98","254780","0.0-98.0","3PJ71Z61R5OTHAQ6UURBW89EALU91X","A1YZ0ETOCJO1B2","3VJ4PFXFJ3TL96TFXMATEMT7KJHUAI","","","<img src=""img/flower4.png"" style=""width:200px; border:14px solid green;"">","null","","","","","",""
"409.30000001192093","","image-keyboard-response","99","255190","0.0-99.0","3PJ71Z61R5OTHAQ6UURBW89EALU91X","A1YZ0ETOCJO1B2","3VJ4PFXFJ3TL96TFXMATEMT7KJHUAI","","","img/flower4.png","74","409.89999997615814","1","1","1","",""
"null","","html-keyboard-response","100","255495","0.0-100.0","3PJ71Z61R5OTHAQ6UURBW89EALU91X","A1YZ0ETOCJO1B2","3VJ4PFXFJ3TL96TFXMATEMT7KJHUAI","","","<img src=""img/flower4.png"" style=""width:200px; border:14px solid green;"">","null","","","","","",""
"871.8000000119209","","image-keyboard-response","101","256367","0.0-101.0","3PJ71Z61R5OTHAQ6UURBW89EALU91X","A1YZ0ETOCJO1B2","3VJ4PFXFJ3TL96TFXMATEMT7KJHUAI","","","img/flower5.png","75","872.0999999940395","2","1","2","",""
"null","","html-keyboard-response","102","256678","0.0-102.0","3PJ71Z61R5OTHAQ6UURBW89EALU91X","A1YZ0ETOCJO1B2","3VJ4PFXFJ3TL96TFXMATEMT7KJHUAI","","","<img src=""img/flower5.png"" style=""width:200px; border:14px solid green;"">","null","","","","","",""
"554","","image-keyboard-response","103","257232","0.0-103.0","3PJ71Z61R5OTHAQ6UURBW89EALU91X","A1YZ0ETOCJO1B2","3VJ4PFXFJ3TL96TFXMATEMT7KJHUAI","","","img/flower4.png","74","554.2000000178814","1","1","1","",""
"null","","html-keyboard-response","104","257548","0.0-104.0","3PJ71Z61R5OTHAQ6UURBW89EALU91X","A1YZ0ETOCJO1B2","3VJ4PFXFJ3TL96TFXMATEMT7KJHUAI","","","<img src=""img/flower4.png"" style=""width:200px; border:14px solid green;"">","null","","","","","",""
"514","","image-keyboard-response","105","258062","0.0-105.0","3PJ71Z61R5OTHAQ6UURBW89EALU91X","A1YZ0ETOCJO1B2","3VJ4PFXFJ3TL96TFXMATEMT7KJHUAI","","","img/flower5.png","75","514.3000000119209","2","1","2","",""
"null","","html-keyboard-response","106","258371","0.0-106.0","3PJ71Z61R5OTHAQ6UURBW89EALU91X","A1YZ0ETOCJO1B2","3VJ4PFXFJ3TL96TFXMATEMT7KJHUAI","","","<img src=""img/flower5.png"" style=""width:200px; border:14px solid green;"">","null","","","","","",""
"679.5999999940395","","image-keyboard-response","107","259051","0.0-107.0","3PJ71Z61R5OTHAQ6UURBW89EALU91X","A1YZ0ETOCJO1B2","3VJ4PFXFJ3TL96TFXMATEMT7KJHUAI","","","img/flower4.png","74","680.5999999940395","1","0","1","",""
"null","","html-keyboard-response","108","259360","0.0-108.0","3PJ71Z61R5OTHAQ6UURBW89EALU91X","A1YZ0ETOCJO1B2","3VJ4PFXFJ3TL96TFXMATEMT7KJHUAI","","","<img src=""img/flower4.png"" style=""width:200px;border:14px solid red;"">","null","","","","","",""
"628.6000000238419","","image-keyboard-response","109","259989","0.0-109.0","3PJ71Z61R5OTHAQ6UURBW89EALU91X","A1YZ0ETOCJO1B2","3VJ4PFXFJ3TL96TFXMATEMT7KJHUAI","","","img/flower6.png","76","629","3","1","3","",""
"null","","html-keyboard-response","110","260304","0.0-110.0","3PJ71Z61R5OTHAQ6UURBW89EALU91X","A1YZ0ETOCJO1B2","3VJ4PFXFJ3TL96TFXMATEMT7KJHUAI","","","<img src=""img/flower6.png"" style=""width:200px; border:14px solid green;"">","null","","","","","",""
"1551.2000000178814","","image-keyboard-response","111","261856","0.0-111.0","3PJ71Z61R5OTHAQ6UURBW89EALU91X","A1YZ0ETOCJO1B2","3VJ4PFXFJ3TL96TFXMATEMT7KJHUAI","","","img/flower4.png","74","1551.9000000059605","1","1","1","",""
"null","","html-keyboard-response","112","262171","0.0-112.0","3PJ71Z61R5OTHAQ6UURBW89EALU91X","A1YZ0ETOCJO1B2","3VJ4PFXFJ3TL96TFXMATEMT7KJHUAI","","","<img src=""img/flower4.png"" style=""width:200px; border:14px solid green;"">","null","","","","","",""
"1332.0999999940395","","image-keyboard-response","113","263504","0.0-113.0","3PJ71Z61R5OTHAQ6UURBW89EALU91X","A1YZ0ETOCJO1B2","3VJ4PFXFJ3TL96TFXMATEMT7KJHUAI","","","img/flower6.png","75","1332.7999999821186","2","0","3","",""
"null","","html-keyboard-response","114","263812","0.0-114.0","3PJ71Z61R5OTHAQ6UURBW89EALU91X","A1YZ0ETOCJO1B2","3VJ4PFXFJ3TL96TFXMATEMT7KJHUAI","","","<img src=""img/flower6.png"" style=""width:200px;border:14px solid red;"">","null","","","","","",""
"565.5","","image-keyboard-response","115","264379","0.0-115.0","3PJ71Z61R5OTHAQ6UURBW89EALU91X","A1YZ0ETOCJO1B2","3VJ4PFXFJ3TL96TFXMATEMT7KJHUAI","","","img/flower6.png","76","566","3","1","3","",""
"null","","html-keyboard-response","116","264687","0.0-116.0","3PJ71Z61R5OTHAQ6UURBW89EALU91X","A1YZ0ETOCJO1B2","3VJ4PFXFJ3TL96TFXMATEMT7KJHUAI","","","<img src=""img/flower6.png"" style=""width:200px; border:14px solid green;"">","null","","","","","",""
"473.30000001192093","","image-keyboard-response","117","265161","0.0-117.0","3PJ71Z61R5OTHAQ6UURBW89EALU91X","A1YZ0ETOCJO1B2","3VJ4PFXFJ3TL96TFXMATEMT7KJHUAI","","","img/flower6.png","76","473.90000000596046","3","1","3","",""
"null","","html-keyboard-response","118","265468","0.0-118.0","3PJ71Z61R5OTHAQ6UURBW89EALU91X","A1YZ0ETOCJO1B2","3VJ4PFXFJ3TL96TFXMATEMT7KJHUAI","","","<img src=""img/flower6.png"" style=""width:200px; border:14px solid green;"">","null","","","","","",""
"822.5","","image-keyboard-response","119","266292","0.0-119.0","3PJ71Z61R5OTHAQ6UURBW89EALU91X","A1YZ0ETOCJO1B2","3VJ4PFXFJ3TL96TFXMATEMT7KJHUAI","","","img/flower5.png","75","823.2000000178814","2","1","2","",""
"null","","html-keyboard-response","120","266594","0.0-120.0","3PJ71Z61R5OTHAQ6UURBW89EALU91X","A1YZ0ETOCJO1B2","3VJ4PFXFJ3TL96TFXMATEMT7KJHUAI","","","<img src=""img/flower5.png"" style=""width:200px; border:14px solid green;"">","null","","","","","",""
"701.8999999761581","","image-keyboard-response","121","267297","0.0-121.0","3PJ71Z61R5OTHAQ6UURBW89EALU91X","A1YZ0ETOCJO1B2","3VJ4PFXFJ3TL96TFXMATEMT7KJHUAI","","","img/flower6.png","76","702.5","3","1","3","",""
"null","","html-keyboard-response","122","267604","0.0-122.0","3PJ71Z61R5OTHAQ6UURBW89EALU91X","A1YZ0ETOCJO1B2","3VJ4PFXFJ3TL96TFXMATEMT7KJHUAI","","","<img src=""img/flower6.png"" style=""width:200px; border:14px solid green;"">","null","","","","","",""
"568.7000000178814","","image-keyboard-response","123","268173","0.0-123.0","3PJ71Z61R5OTHAQ6UURBW89EALU91X","A1YZ0ETOCJO1B2","3VJ4PFXFJ3TL96TFXMATEMT7KJHUAI","","","img/flower5.png","74","569.1999999880791","1","0","2","",""
"null","","html-keyboard-response","124","268475","0.0-124.0","3PJ71Z61R5OTHAQ6UURBW89EALU91X","A1YZ0ETOCJO1B2","3VJ4PFXFJ3TL96TFXMATEMT7KJHUAI","","","<img src=""img/flower5.png"" style=""width:200px;border:14px solid red;"">","null","","","","","",""
"2341.300000011921","","instructions","125","270817","0.0-125.0","3PJ71Z61R5OTHAQ6UURBW89EALU91X","A1YZ0ETOCJO1B2","3VJ4PFXFJ3TL96TFXMATEMT7KJHUAI","","[{""page_index"":0,""viewing_time"":2341.199999988079}]","","","","","","","",""
"1666.5","","image-keyboard-response","126","272484","0.0-126.0","3PJ71Z61R5OTHAQ6UURBW89EALU91X","A1YZ0ETOCJO1B2","3VJ4PFXFJ3TL96TFXMATEMT7KJHUAI","","","img/flower6.png","76","1667.0999999940395","3","0","1","1,0.5,0.5,0.5,1,0.5,0.5,0.5,1",""
"null","","html-keyboard-response","127","272796","0.0-127.0","3PJ71Z61R5OTHAQ6UURBW89EALU91X","A1YZ0ETOCJO1B2","3VJ4PFXFJ3TL96TFXMATEMT7KJHUAI","","","<img src=""img/flower6.png"" style=""width:200px;border:14px solid red;"">","null","","","","","",""
"722.8000000119209","","image-keyboard-response","128","273519","0.0-128.0","3PJ71Z61R5OTHAQ6UURBW89EALU91X","A1YZ0ETOCJO1B2","3VJ4PFXFJ3TL96TFXMATEMT7KJHUAI","","","img/flower6.png","75","723.2000000178814","2","0","1","1,0.5,0.5,0.5,1,0.5,0.5,0.5,1",""
"null","","html-keyboard-response","129","273822","0.0-129.0","3PJ71Z61R5OTHAQ6UURBW89EALU91X","A1YZ0ETOCJO1B2","3VJ4PFXFJ3TL96TFXMATEMT7KJHUAI","","","<img src=""img/flower6.png"" style=""width:200px;border:14px solid red;"">","null","","","","","",""
"1106.4000000059605","","image-keyboard-response","130","274929","0.0-130.0","3PJ71Z61R5OTHAQ6UURBW89EALU91X","A1YZ0ETOCJO1B2","3VJ4PFXFJ3TL96TFXMATEMT7KJHUAI","","","img/flower5.png","74","1106.9000000059605","1","1","2","1,0.5,0.5,0.5,1,0.5,0.5,0.5,1",""
"null","","html-keyboard-response","131","275239","0.0-131.0","3PJ71Z61R5OTHAQ6UURBW89EALU91X","A1YZ0ETOCJO1B2","3VJ4PFXFJ3TL96TFXMATEMT7KJHUAI","","","<img src=""img/flower5.png"" style=""width:200px; border:14px solid green;"">","null","","","","","",""
"1237.699999988079","","image-keyboard-response","132","276478","0.0-132.0","3PJ71Z61R5OTHAQ6UURBW89EALU91X","A1YZ0ETOCJO1B2","3VJ4PFXFJ3TL96TFXMATEMT7KJHUAI","","","img/flower6.png","75","1238.300000011921","2","1","1","1,0.5,0.5,0.5,1,0.5,0.5,0.5,1",""
"null","","html-keyboard-response","133","276782","0.0-133.0","3PJ71Z61R5OTHAQ6UURBW89EALU91X","A1YZ0ETOCJO1B2","3VJ4PFXFJ3TL96TFXMATEMT7KJHUAI","","","<img src=""img/flower6.png"" style=""width:200px; border:14px solid green;"">","null","","","","","",""
"715.5999999940395","","image-keyboard-response","134","277499","0.0-134.0","3PJ71Z61R5OTHAQ6UURBW89EALU91X","A1YZ0ETOCJO1B2","3VJ4PFXFJ3TL96TFXMATEMT7KJHUAI","","","img/flower5.png","74","716.0999999940395","1","1","2","1,0.5,0.5,0.5,1,0.5,0.5,0.5,1",""
"null","","html-keyboard-response","135","277811","0.0-135.0","3PJ71Z61R5OTHAQ6UURBW89EALU91X","A1YZ0ETOCJO1B2","3VJ4PFXFJ3TL96TFXMATEMT7KJHUAI","","","<img src=""img/flower5.png"" style=""width:200px; border:14px solid green;"">","null","","","","","",""
"469.69999998807907","","image-keyboard-response","136","278282","0.0-136.0","3PJ71Z61R5OTHAQ6UURBW89EALU91X","A1YZ0ETOCJO1B2","3VJ4PFXFJ3TL96TFXMATEMT7KJHUAI","","","img/flower6.png","75","470.2000000178814","2","1","1","1,0.5,0.5,0.5,1,0.5,0.5,0.5,1",""
"null","","html-keyboard-response","137","278591","0.0-137.0","3PJ71Z61R5OTHAQ6UURBW89EALU91X","A1YZ0ETOCJO1B2","3VJ4PFXFJ3TL96TFXMATEMT7KJHUAI","","","<img src=""img/flower6.png"" style=""width:200px; border:14px solid green;"">","null","","","","","",""
"442.30000001192093","","image-keyboard-response","138","279034","0.0-138.0","3PJ71Z61R5OTHAQ6UURBW89EALU91X","A1YZ0ETOCJO1B2","3VJ4PFXFJ3TL96TFXMATEMT7KJHUAI","","","img/flower6.png","75","442.7000000178814","2","1","1","1,0.5,0.5,0.5,1,0.5,0.5,0.5,1",""
"null","","html-keyboard-response","139","279339","0.0-139.0","3PJ71Z61R5OTHAQ6UURBW89EALU91X","A1YZ0ETOCJO1B2","3VJ4PFXFJ3TL96TFXMATEMT7KJHUAI","","","<img src=""img/flower6.png"" style=""width:200px; border:14px solid green;"">","null","","","","","",""
"979","","image-keyboard-response","140","280319","0.0-140.0","3PJ71Z61R5OTHAQ6UURBW89EALU91X","A1YZ0ETOCJO1B2","3VJ4PFXFJ3TL96TFXMATEMT7KJHUAI","","","img/flower3.png","76","979.2999999821186","3","1","3","1,0.5,0.5,0.5,1,0.5,0.5,0.5,1",""
"null","","html-keyboard-response","141","280622","0.0-141.0","3PJ71Z61R5OTHAQ6UURBW89EALU91X","A1YZ0ETOCJO1B2","3VJ4PFXFJ3TL96TFXMATEMT7KJHUAI","","","<img src=""img/flower3.png"" style=""width:200px; border:14px solid green;"">","null","","","","","",""
"407.59999999403954","","image-keyboard-response","142","281030","0.0-142.0","3PJ71Z61R5OTHAQ6UURBW89EALU91X","A1YZ0ETOCJO1B2","3VJ4PFXFJ3TL96TFXMATEMT7KJHUAI","","","img/flower3.png","76","407.90000000596046","3","1","3","1,0.5,0.5,0.5,1,0.5,0.5,0.5,1",""
"null","","html-keyboard-response","143","281340","0.0-143.0","3PJ71Z61R5OTHAQ6UURBW89EALU91X","A1YZ0ETOCJO1B2","3VJ4PFXFJ3TL96TFXMATEMT7KJHUAI","","","<img src=""img/flower3.png"" style=""width:200px; border:14px solid green;"">","null","","","","","",""
"315","","image-keyboard-response","144","281656","0.0-144.0","3PJ71Z61R5OTHAQ6UURBW89EALU91X","A1YZ0ETOCJO1B2","3VJ4PFXFJ3TL96TFXMATEMT7KJHUAI","","","img/flower3.png","76","315.5","3","1","3","1,0.5,0.5,0.5,1,0.5,0.5,0.5,1",""
"null","","html-keyboard-response","145","281965","0.0-145.0","3PJ71Z61R5OTHAQ6UURBW89EALU91X","A1YZ0ETOCJO1B2","3VJ4PFXFJ3TL96TFXMATEMT7KJHUAI","","","<img src=""img/flower3.png"" style=""width:200px; border:14px solid green;"">","null","","","","","",""
"317.19999998807907","","image-keyboard-response","146","282283","0.0-146.0","3PJ71Z61R5OTHAQ6UURBW89EALU91X","A1YZ0ETOCJO1B2","3VJ4PFXFJ3TL96TFXMATEMT7KJHUAI","","","img/flower3.png","76","317.80000001192093","3","1","3","1,0.5,0.5,0.5,1,0.5,0.5,0.5,1",""
"null","","html-keyboard-response","147","282589","0.0-147.0","3PJ71Z61R5OTHAQ6UURBW89EALU91X","A1YZ0ETOCJO1B2","3VJ4PFXFJ3TL96TFXMATEMT7KJHUAI","","","<img src=""img/flower3.png"" style=""width:200px; border:14px solid green;"">","null","","","","","",""
"304.40000000596046","","image-keyboard-response","148","282894","0.0-148.0","3PJ71Z61R5OTHAQ6UURBW89EALU91X","A1YZ0ETOCJO1B2","3VJ4PFXFJ3TL96TFXMATEMT7KJHUAI","","","img/flower3.png","76","304.90000000596046","3","1","3","1,0.5,0.5,0.5,1,0.5,0.5,0.5,1",""
"null","","html-keyboard-response","149","283200","0.0-149.0","3PJ71Z61R5OTHAQ6UURBW89EALU91X","A1YZ0ETOCJO1B2","3VJ4PFXFJ3TL96TFXMATEMT7KJHUAI","","","<img src=""img/flower3.png"" style=""width:200px; border:14px solid green;"">","null","","","","","",""
"1303.5","","image-keyboard-response","150","284505","0.0-150.0","3PJ71Z61R5OTHAQ6UURBW89EALU91X","A1YZ0ETOCJO1B2","3VJ4PFXFJ3TL96TFXMATEMT7KJHUAI","","","img/flower6.png","75","1304.199999988079","2","1","1","1,0.5,0.5,0.5,1,0.5,0.5,0.5,1",""
"null","","html-keyboard-response","151","284808","0.0-151.0","3PJ71Z61R5OTHAQ6UURBW89EALU91X","A1YZ0ETOCJO1B2","3VJ4PFXFJ3TL96TFXMATEMT7KJHUAI","","","<img src=""img/flower6.png"" style=""width:200px; border:14px solid green;"">","null","","","","","",""
"524.8000000119209","","image-keyboard-response","152","285334","0.0-152.0","3PJ71Z61R5OTHAQ6UURBW89EALU91X","A1YZ0ETOCJO1B2","3VJ4PFXFJ3TL96TFXMATEMT7KJHUAI","","","img/flower6.png","75","525.3000000119209","2","0","1","1,0.5,0.5,0.5,1,0.5,0.5,0.5,1",""
"null","","html-keyboard-response","153","285637","0.0-153.0","3PJ71Z61R5OTHAQ6UURBW89EALU91X","A1YZ0ETOCJO1B2","3VJ4PFXFJ3TL96TFXMATEMT7KJHUAI","","","<img src=""img/flower6.png"" style=""width:200px;border:14px solid red;"">","null","","","","","",""
"1705.9000000059605","","image-keyboard-response","154","287343","0.0-154.0","3PJ71Z61R5OTHAQ6UURBW89EALU91X","A1YZ0ETOCJO1B2","3VJ4PFXFJ3TL96TFXMATEMT7KJHUAI","","","img/flower6.png","76","1706.5","3","0","1","1,0.5,0.5,0.5,1,0.5,0.5,0.5,1",""
"null","","html-keyboard-response","155","287657","0.0-155.0","3PJ71Z61R5OTHAQ6UURBW89EALU91X","A1YZ0ETOCJO1B2","3VJ4PFXFJ3TL96TFXMATEMT7KJHUAI","","","<img src=""img/flower6.png"" style=""width:200px;border:14px solid red;"">","null","","","","","",""
"764.5","","image-keyboard-response","156","288422","0.0-156.0","3PJ71Z61R5OTHAQ6UURBW89EALU91X","A1YZ0ETOCJO1B2","3VJ4PFXFJ3TL96TFXMATEMT7KJHUAI","","","img/flower5.png","74","765.1999999880791","1","0","2","1,0.5,0.5,0.5,1,0.5,0.5,0.5,1",""
"null","","html-keyboard-response","157","288729","0.0-157.0","3PJ71Z61R5OTHAQ6UURBW89EALU91X","A1YZ0ETOCJO1B2","3VJ4PFXFJ3TL96TFXMATEMT7KJHUAI","","","<img src=""img/flower5.png"" style=""width:200px;border:14px solid red;"">","null","","","","","",""
"1495.4000000059605","","image-keyboard-response","158","290225","0.0-158.0","3PJ71Z61R5OTHAQ6UURBW89EALU91X","A1YZ0ETOCJO1B2","3VJ4PFXFJ3TL96TFXMATEMT7KJHUAI","","","img/flower5.png","75","1495.9000000059605","2","1","2","1,0.5,0.5,0.5,1,0.5,0.5,0.5,1",""
"null","","html-keyboard-response","159","290534","0.0-159.0","3PJ71Z61R5OTHAQ6UURBW89EALU91X","A1YZ0ETOCJO1B2","3VJ4PFXFJ3TL96TFXMATEMT7KJHUAI","","","<img src=""img/flower5.png"" style=""width:200px; border:14px solid green;"">","null","","","","","",""
"395.5","","image-keyboard-response","160","290931","0.0-160.0","3PJ71Z61R5OTHAQ6UURBW89EALU91X","A1YZ0ETOCJO1B2","3VJ4PFXFJ3TL96TFXMATEMT7KJHUAI","","","img/flower5.png","75","396","2","1","2","1,0.5,0.5,0.5,1,0.5,0.5,0.5,1",""
"null","","html-keyboard-response","161","291236","0.0-161.0","3PJ71Z61R5OTHAQ6UURBW89EALU91X","A1YZ0ETOCJO1B2","3VJ4PFXFJ3TL96TFXMATEMT7KJHUAI","","","<img src=""img/flower5.png"" style=""width:200px; border:14px solid green;"">","null","","","","","",""
"746.2000000178814","","image-keyboard-response","162","291983","0.0-162.0","3PJ71Z61R5OTHAQ6UURBW89EALU91X","A1YZ0ETOCJO1B2","3VJ4PFXFJ3TL96TFXMATEMT7KJHUAI","","","img/flower6.png","76","746.5","3","0","1","1,0.5,0.5,0.5,1,0.5,0.5,0.5,1",""
"null","","html-keyboard-response","163","292293","0.0-163.0","3PJ71Z61R5OTHAQ6UURBW89EALU91X","A1YZ0ETOCJO1B2","3VJ4PFXFJ3TL96TFXMATEMT7KJHUAI","","","<img src=""img/flower6.png"" style=""width:200px;border:14px solid red;"">","null","","","","","",""
"1228.7000000178814","","image-keyboard-response","164","293522","0.0-164.0","3PJ71Z61R5OTHAQ6UURBW89EALU91X","A1YZ0ETOCJO1B2","3VJ4PFXFJ3TL96TFXMATEMT7KJHUAI","","","img/flower6.png","74","1229.199999988079","1","1","1","1,0.5,0.5,0.5,1,0.5,0.5,0.5,1",""
"null","","html-keyboard-response","165","293831","0.0-165.0","3PJ71Z61R5OTHAQ6UURBW89EALU91X","A1YZ0ETOCJO1B2","3VJ4PFXFJ3TL96TFXMATEMT7KJHUAI","","","<img src=""img/flower6.png"" style=""width:200px; border:14px solid green;"">","null","","","","","",""
"1302.0999999940395","","image-keyboard-response","166","295134","0.0-166.0","3PJ71Z61R5OTHAQ6UURBW89EALU91X","A1YZ0ETOCJO1B2","3VJ4PFXFJ3TL96TFXMATEMT7KJHUAI","","","img/flower3.png","76","1302.5999999940395","3","1","3","1,0.5,0.5,0.5,1,0.5,0.5,0.5,1",""
"null","","html-keyboard-response","167","295441","0.0-167.0","3PJ71Z61R5OTHAQ6UURBW89EALU91X","A1YZ0ETOCJO1B2","3VJ4PFXFJ3TL96TFXMATEMT7KJHUAI","","","<img src=""img/flower3.png"" style=""width:200px; border:14px solid green;"">","null","","","","","",""
"1696.699999988079","","image-keyboard-response","168","297139","0.0-168.0","3PJ71Z61R5OTHAQ6UURBW89EALU91X","A1YZ0ETOCJO1B2","3VJ4PFXFJ3TL96TFXMATEMT7KJHUAI","","","img/flower5.png","75","1697.2000000178814","2","1","2","1,0.5,0.5,0.5,1,0.5,0.5,0.5,1",""
"null","","html-keyboard-response","169","297446","0.0-169.0","3PJ71Z61R5OTHAQ6UURBW89EALU91X","A1YZ0ETOCJO1B2","3VJ4PFXFJ3TL96TFXMATEMT7KJHUAI","","","<img src=""img/flower5.png"" style=""width:200px; border:14px solid green;"">","null","","","","","",""
"335.5","","image-keyboard-response","170","297782","0.0-170.0","3PJ71Z61R5OTHAQ6UURBW89EALU91X","A1YZ0ETOCJO1B2","3VJ4PFXFJ3TL96TFXMATEMT7KJHUAI","","","img/flower5.png","75","335.90000000596046","2","1","2","1,0.5,0.5,0.5,1,0.5,0.5,0.5,1",""
"null","","html-keyboard-response","171","298094","0.0-171.0","3PJ71Z61R5OTHAQ6UURBW89EALU91X","A1YZ0ETOCJO1B2","3VJ4PFXFJ3TL96TFXMATEMT7KJHUAI","","","<img src=""img/flower5.png"" style=""width:200px; border:14px solid green;"">","null","","","","","",""
"1033.4000000059605","","image-keyboard-response","172","299129","0.0-172.0","3PJ71Z61R5OTHAQ6UURBW89EALU91X","A1YZ0ETOCJO1B2","3VJ4PFXFJ3TL96TFXMATEMT7KJHUAI","","","img/flower3.png","76","1034","3","1","3","1,0.5,0.5,0.5,1,0.5,0.5,0.5,1",""
"null","","html-keyboard-response","173","299436","0.0-173.0","3PJ71Z61R5OTHAQ6UURBW89EALU91X","A1YZ0ETOCJO1B2","3VJ4PFXFJ3TL96TFXMATEMT7KJHUAI","","","<img src=""img/flower3.png"" style=""width:200px; border:14px solid green;"">","null","","","","","",""
"792","","image-keyboard-response","174","300229","0.0-174.0","3PJ71Z61R5OTHAQ6UURBW89EALU91X","A1YZ0ETOCJO1B2","3VJ4PFXFJ3TL96TFXMATEMT7KJHUAI","","","img/flower5.png","75","792.9000000059605","2","1","2","1,0.5,0.5,0.5,1,0.5,0.5,0.5,1",""
"null","","html-keyboard-response","175","300535","0.0-175.0","3PJ71Z61R5OTHAQ6UURBW89EALU91X","A1YZ0ETOCJO1B2","3VJ4PFXFJ3TL96TFXMATEMT7KJHUAI","","","<img src=""img/flower5.png"" style=""width:200px; border:14px solid green;"">","null","","","","","",""
"319.09999999403954","","image-keyboard-response","176","300854","0.0-176.0","3PJ71Z61R5OTHAQ6UURBW89EALU91X","A1YZ0ETOCJO1B2","3VJ4PFXFJ3TL96TFXMATEMT7KJHUAI","","","img/flower5.png","75","319.5","2","1","2","1,0.5,0.5,0.5,1,0.5,0.5,0.5,1",""
"null","","html-keyboard-response","177","301167","0.0-177.0","3PJ71Z61R5OTHAQ6UURBW89EALU91X","A1YZ0ETOCJO1B2","3VJ4PFXFJ3TL96TFXMATEMT7KJHUAI","","","<img src=""img/flower5.png"" style=""width:200px; border:14px solid green;"">","null","","","","","",""
"282.69999998807907","","image-keyboard-response","178","301451","0.0-178.0","3PJ71Z61R5OTHAQ6UURBW89EALU91X","A1YZ0ETOCJO1B2","3VJ4PFXFJ3TL96TFXMATEMT7KJHUAI","","","img/flower5.png","75","283.19999998807907","2","1","2","1,0.5,0.5,0.5,1,0.5,0.5,0.5,1",""
"null","","html-keyboard-response","179","301758","0.0-179.0","3PJ71Z61R5OTHAQ6UURBW89EALU91X","A1YZ0ETOCJO1B2","3VJ4PFXFJ3TL96TFXMATEMT7KJHUAI","","","<img src=""img/flower5.png"" style=""width:200px; border:14px solid green;"">","null","","","","","",""
"915.7999999821186","","image-keyboard-response","180","302674","0.0-180.0","3PJ71Z61R5OTHAQ6UURBW89EALU91X","A1YZ0ETOCJO1B2","3VJ4PFXFJ3TL96TFXMATEMT7KJHUAI","","","img/flower6.png","74","916.2000000178814","1","1","1","1,0.5,0.5,0.5,1,0.5,0.5,0.5,1",""
"null","","html-keyboard-response","181","302981","0.0-181.0","3PJ71Z61R5OTHAQ6UURBW89EALU91X","A1YZ0ETOCJO1B2","3VJ4PFXFJ3TL96TFXMATEMT7KJHUAI","","","<img src=""img/flower6.png"" style=""width:200px; border:14px solid green;"">","null","","","","","",""
"992","","image-keyboard-response","182","303973","0.0-182.0","3PJ71Z61R5OTHAQ6UURBW89EALU91X","A1YZ0ETOCJO1B2","3VJ4PFXFJ3TL96TFXMATEMT7KJHUAI","","","img/flower3.png","76","992.4000000059605","3","1","3","1,0.5,0.5,0.5,1,0.5,0.5,0.5,1",""
"null","","html-keyboard-response","183","304289","0.0-183.0","3PJ71Z61R5OTHAQ6UURBW89EALU91X","A1YZ0ETOCJO1B2","3VJ4PFXFJ3TL96TFXMATEMT7KJHUAI","","","<img src=""img/flower3.png"" style=""width:200px; border:14px solid green;"">","null","","","","","",""
"327.5","","image-keyboard-response","184","304617","0.0-184.0","3PJ71Z61R5OTHAQ6UURBW89EALU91X","A1YZ0ETOCJO1B2","3VJ4PFXFJ3TL96TFXMATEMT7KJHUAI","","","img/flower3.png","76","328.09999999403954","3","1","3","1,0.5,0.5,0.5,1,0.5,0.5,0.5,1",""
"null","","html-keyboard-response","185","304925","0.0-185.0","3PJ71Z61R5OTHAQ6UURBW89EALU91X","A1YZ0ETOCJO1B2","3VJ4PFXFJ3TL96TFXMATEMT7KJHUAI","","","<img src=""img/flower3.png"" style=""width:200px; border:14px solid green;"">","null","","","","","",""
"1322.5999999940395","","image-keyboard-response","186","306249","0.0-186.0","3PJ71Z61R5OTHAQ6UURBW89EALU91X","A1YZ0ETOCJO1B2","3VJ4PFXFJ3TL96TFXMATEMT7KJHUAI","","","img/flower5.png","75","1323","2","1","2","1,0.5,0.5,0.5,1,0.5,0.5,0.5,1",""
"null","","html-keyboard-response","187","306555","0.0-187.0","3PJ71Z61R5OTHAQ6UURBW89EALU91X","A1YZ0ETOCJO1B2","3VJ4PFXFJ3TL96TFXMATEMT7KJHUAI","","","<img src=""img/flower5.png"" style=""width:200px; border:14px solid green;"">","null","","","","","",""
"335.5","","image-keyboard-response","188","306891","0.0-188.0","3PJ71Z61R5OTHAQ6UURBW89EALU91X","A1YZ0ETOCJO1B2","3VJ4PFXFJ3TL96TFXMATEMT7KJHUAI","","","img/flower5.png","75","335.90000000596046","2","1","2","1,0.5,0.5,0.5,1,0.5,0.5,0.5,1",""
"null","","html-keyboard-response","189","307195","0.0-189.0","3PJ71Z61R5OTHAQ6UURBW89EALU91X","A1YZ0ETOCJO1B2","3VJ4PFXFJ3TL96TFXMATEMT7KJHUAI","","","<img src=""img/flower5.png"" style=""width:200px; border:14px solid green;"">","null","","","","","",""
"779.4000000059605","","image-keyboard-response","190","307975","0.0-190.0","3PJ71Z61R5OTHAQ6UURBW89EALU91X","A1YZ0ETOCJO1B2","3VJ4PFXFJ3TL96TFXMATEMT7KJHUAI","","","img/flower6.png","74","779.9000000059605","1","1","1","1,0.5,0.5,0.5,1,0.5,0.5,0.5,1",""
"null","","html-keyboard-response","191","308281","0.0-191.0","3PJ71Z61R5OTHAQ6UURBW89EALU91X","A1YZ0ETOCJO1B2","3VJ4PFXFJ3TL96TFXMATEMT7KJHUAI","","","<img src=""img/flower6.png"" style=""width:200px; border:14px solid green;"">","null","","","","","",""
"739.5","","image-keyboard-response","192","309021","0.0-192.0","3PJ71Z61R5OTHAQ6UURBW89EALU91X","A1YZ0ETOCJO1B2","3VJ4PFXFJ3TL96TFXMATEMT7KJHUAI","","","img/flower3.png","76","739.9000000059605","3","1","3","1,0.5,0.5,0.5,1,0.5,0.5,0.5,1",""
"null","","html-keyboard-response","193","309337","0.0-193.0","3PJ71Z61R5OTHAQ6UURBW89EALU91X","A1YZ0ETOCJO1B2","3VJ4PFXFJ3TL96TFXMATEMT7KJHUAI","","","<img src=""img/flower3.png"" style=""width:200px; border:14px solid green;"">","null","","","","","",""
"1161.4000000059605","","image-keyboard-response","194","310499","0.0-194.0","3PJ71Z61R5OTHAQ6UURBW89EALU91X","A1YZ0ETOCJO1B2","3VJ4PFXFJ3TL96TFXMATEMT7KJHUAI","","","img/flower5.png","74","1162","1","0","2","1,0.5,0.5,0.5,1,0.5,0.5,0.5,1",""
"null","","html-keyboard-response","195","310808","0.0-195.0","3PJ71Z61R5OTHAQ6UURBW89EALU91X","A1YZ0ETOCJO1B2","3VJ4PFXFJ3TL96TFXMATEMT7KJHUAI","","","<img src=""img/flower5.png"" style=""width:200px;border:14px solid red;"">","null","","","","","",""
"1602.9000000059605","","image-keyboard-response","196","312412","0.0-196.0","3PJ71Z61R5OTHAQ6UURBW89EALU91X","A1YZ0ETOCJO1B2","3VJ4PFXFJ3TL96TFXMATEMT7KJHUAI","","","img/flower6.png","74","1603.3999999761581","1","1","1","1,0.5,0.5,0.5,1,0.5,0.5,0.5,1",""
"null","","html-keyboard-response","197","312718","0.0-197.0","3PJ71Z61R5OTHAQ6UURBW89EALU91X","A1YZ0ETOCJO1B2","3VJ4PFXFJ3TL96TFXMATEMT7KJHUAI","","","<img src=""img/flower6.png"" style=""width:200px; border:14px solid green;"">","null","","","","","",""
"723.0999999940395","","image-keyboard-response","198","313442","0.0-198.0","3PJ71Z61R5OTHAQ6UURBW89EALU91X","A1YZ0ETOCJO1B2","3VJ4PFXFJ3TL96TFXMATEMT7KJHUAI","","","img/flower3.png","76","723.6000000238419","3","1","3","1,0.5,0.5,0.5,1,0.5,0.5,0.5,1",""
"null","","html-keyboard-response","199","313754","0.0-199.0","3PJ71Z61R5OTHAQ6UURBW89EALU91X","A1YZ0ETOCJO1B2","3VJ4PFXFJ3TL96TFXMATEMT7KJHUAI","","","<img src=""img/flower3.png"" style=""width:200px; border:14px solid green;"">","null","","","","","",""
"475","","image-keyboard-response","200","314230","0.0-200.0","3PJ71Z61R5OTHAQ6UURBW89EALU91X","A1YZ0ETOCJO1B2","3VJ4PFXFJ3TL96TFXMATEMT7KJHUAI","","","img/flower3.png","76","475.39999997615814","3","1","3","1,0.5,0.5,0.5,1,0.5,0.5,0.5,1",""
"null","","html-keyboard-response","201","314545","0.0-201.0","3PJ71Z61R5OTHAQ6UURBW89EALU91X","A1YZ0ETOCJO1B2","3VJ4PFXFJ3TL96TFXMATEMT7KJHUAI","","","<img src=""img/flower3.png"" style=""width:200px; border:14px solid green;"">","null","","","","","",""
"310.90000000596046","","image-keyboard-response","202","314857","0.0-202.0","3PJ71Z61R5OTHAQ6UURBW89EALU91X","A1YZ0ETOCJO1B2","3VJ4PFXFJ3TL96TFXMATEMT7KJHUAI","","","img/flower3.png","76","311.40000000596046","3","1","3","1,0.5,0.5,0.5,1,0.5,0.5,0.5,1",""
"null","","html-keyboard-response","203","315165","0.0-203.0","3PJ71Z61R5OTHAQ6UURBW89EALU91X","A1YZ0ETOCJO1B2","3VJ4PFXFJ3TL96TFXMATEMT7KJHUAI","","","<img src=""img/flower3.png"" style=""width:200px; border:14px solid green;"">","null","","","","","",""
"800","","image-keyboard-response","204","315966","0.0-204.0","3PJ71Z61R5OTHAQ6UURBW89EALU91X","A1YZ0ETOCJO1B2","3VJ4PFXFJ3TL96TFXMATEMT7KJHUAI","","","img/flower6.png","74","800.2999999821186","1","1","1","1,0.5,0.5,0.5,1,0.5,0.5,0.5,1",""
"null","","html-keyboard-response","205","316267","0.0-205.0","3PJ71Z61R5OTHAQ6UURBW89EALU91X","A1YZ0ETOCJO1B2","3VJ4PFXFJ3TL96TFXMATEMT7KJHUAI","","","<img src=""img/flower6.png"" style=""width:200px; border:14px solid green;"">","null","","","","","",""
"657.3000000119209","","image-keyboard-response","206","316924","0.0-206.0","3PJ71Z61R5OTHAQ6UURBW89EALU91X","A1YZ0ETOCJO1B2","3VJ4PFXFJ3TL96TFXMATEMT7KJHUAI","","","img/flower3.png","76","657.6999999880791","3","1","3","1,0.5,0.5,0.5,1,0.5,0.5,0.5,1",""
"null","","html-keyboard-response","207","317240","0.0-207.0","3PJ71Z61R5OTHAQ6UURBW89EALU91X","A1YZ0ETOCJO1B2","3VJ4PFXFJ3TL96TFXMATEMT7KJHUAI","","","<img src=""img/flower3.png"" style=""width:200px; border:14px solid green;"">","null","","","","","",""
"279.7000000178814","","image-keyboard-response","208","317520","0.0-208.0","3PJ71Z61R5OTHAQ6UURBW89EALU91X","A1YZ0ETOCJO1B2","3VJ4PFXFJ3TL96TFXMATEMT7KJHUAI","","","img/flower3.png","76","280.09999999403954","3","1","3","1,0.5,0.5,0.5,1,0.5,0.5,0.5,1",""
"null","","html-keyboard-response","209","317828","0.0-209.0","3PJ71Z61R5OTHAQ6UURBW89EALU91X","A1YZ0ETOCJO1B2","3VJ4PFXFJ3TL96TFXMATEMT7KJHUAI","","","<img src=""img/flower3.png"" style=""width:200px; border:14px solid green;"">","null","","","","","",""
"946.5999999940395","","image-keyboard-response","210","318775","0.0-210.0","3PJ71Z61R5OTHAQ6UURBW89EALU91X","A1YZ0ETOCJO1B2","3VJ4PFXFJ3TL96TFXMATEMT7KJHUAI","","","img/flower6.png","74","946.9000000059605","1","1","1","1,0.5,0.5,0.5,1,0.5,0.5,0.5,1",""
"null","","html-keyboard-response","211","319086","0.0-211.0","3PJ71Z61R5OTHAQ6UURBW89EALU91X","A1YZ0ETOCJO1B2","3VJ4PFXFJ3TL96TFXMATEMT7KJHUAI","","","<img src=""img/flower6.png"" style=""width:200px; border:14px solid green;"">","null","","","","","",""
"706.2999999821186","","image-keyboard-response","212","319793","0.0-212.0","3PJ71Z61R5OTHAQ6UURBW89EALU91X","A1YZ0ETOCJO1B2","3VJ4PFXFJ3TL96TFXMATEMT7KJHUAI","","","img/flower5.png","75","706.9000000059605","2","1","2","1,0.5,0.5,0.5,1,0.5,0.5,0.5,1",""
"null","","html-keyboard-response","213","320103","0.0-213.0","3PJ71Z61R5OTHAQ6UURBW89EALU91X","A1YZ0ETOCJO1B2","3VJ4PFXFJ3TL96TFXMATEMT7KJHUAI","","","<img src=""img/flower5.png"" style=""width:200px; border:14px solid green;"">","null","","","","","",""
"328.90000000596046","","image-keyboard-response","214","320433","0.0-214.0","3PJ71Z61R5OTHAQ6UURBW89EALU91X","A1YZ0ETOCJO1B2","3VJ4PFXFJ3TL96TFXMATEMT7KJHUAI","","","img/flower5.png","75","329.5","2","1","2","1,0.5,0.5,0.5,1,0.5,0.5,0.5,1",""
"null","","html-keyboard-response","215","320747","0.0-215.0","3PJ71Z61R5OTHAQ6UURBW89EALU91X","A1YZ0ETOCJO1B2","3VJ4PFXFJ3TL96TFXMATEMT7KJHUAI","","","<img src=""img/flower5.png"" style=""width:200px; border:14px solid green;"">","null","","","","","",""
"1022.1000000238419","","image-keyboard-response","216","321770","0.0-216.0","3PJ71Z61R5OTHAQ6UURBW89EALU91X","A1YZ0ETOCJO1B2","3VJ4PFXFJ3TL96TFXMATEMT7KJHUAI","","","img/flower3.png","74","1022.6999999880791","1","0","3","1,0.5,0.5,0.5,1,0.5,0.5,0.5,1",""
"null","","html-keyboard-response","217","322073","0.0-217.0","3PJ71Z61R5OTHAQ6UURBW89EALU91X","A1YZ0ETOCJO1B2","3VJ4PFXFJ3TL96TFXMATEMT7KJHUAI","","","<img src=""img/flower3.png"" style=""width:200px;border:14px solid red;"">","null","","","","","",""
"852.0999999940395","","image-keyboard-response","218","322926","0.0-218.0","3PJ71Z61R5OTHAQ6UURBW89EALU91X","A1YZ0ETOCJO1B2","3VJ4PFXFJ3TL96TFXMATEMT7KJHUAI","","","img/flower6.png","74","852.6000000238419","1","1","1","1,0.5,0.5,0.5,1,0.5,0.5,0.5,1",""
"null","","html-keyboard-response","219","323240","0.0-219.0","3PJ71Z61R5OTHAQ6UURBW89EALU91X","A1YZ0ETOCJO1B2","3VJ4PFXFJ3TL96TFXMATEMT7KJHUAI","","","<img src=""img/flower6.png"" style=""width:200px; border:14px solid green;"">","null","","","","","",""
"359.30000001192093","","image-keyboard-response","220","323600","0.0-220.0","3PJ71Z61R5OTHAQ6UURBW89EALU91X","A1YZ0ETOCJO1B2","3VJ4PFXFJ3TL96TFXMATEMT7KJHUAI","","","img/flower6.png","74","359.80000001192093","1","1","1","1,0.5,0.5,0.5,1,0.5,0.5,0.5,1",""
"null","","html-keyboard-response","221","323914","0.0-221.0","3PJ71Z61R5OTHAQ6UURBW89EALU91X","A1YZ0ETOCJO1B2","3VJ4PFXFJ3TL96TFXMATEMT7KJHUAI","","","<img src=""img/flower6.png"" style=""width:200px; border:14px solid green;"">","null","","","","","",""
"768.1999999880791","","image-keyboard-response","222","324682","0.0-222.0","3PJ71Z61R5OTHAQ6UURBW89EALU91X","A1YZ0ETOCJO1B2","3VJ4PFXFJ3TL96TFXMATEMT7KJHUAI","","","img/flower5.png","75","768.6999999880791","2","1","2","1,0.5,0.5,0.5,1,0.5,0.5,0.5,1",""
"null","","html-keyboard-response","223","324990","0.0-223.0","3PJ71Z61R5OTHAQ6UURBW89EALU91X","A1YZ0ETOCJO1B2","3VJ4PFXFJ3TL96TFXMATEMT7KJHUAI","","","<img src=""img/flower5.png"" style=""width:200px; border:14px solid green;"">","null","","","","","",""
"380.59999999403954","","image-keyboard-response","224","325372","0.0-224.0","3PJ71Z61R5OTHAQ6UURBW89EALU91X","A1YZ0ETOCJO1B2","3VJ4PFXFJ3TL96TFXMATEMT7KJHUAI","","","img/flower5.png","75","381.09999999403954","2","1","2","1,0.5,0.5,0.5,1,0.5,0.5,0.5,1",""
"null","","html-keyboard-response","225","325678","0.0-225.0","3PJ71Z61R5OTHAQ6UURBW89EALU91X","A1YZ0ETOCJO1B2","3VJ4PFXFJ3TL96TFXMATEMT7KJHUAI","","","<img src=""img/flower5.png"" style=""width:200px; border:14px solid green;"">","null","","","","","",""
"916.0999999940395","","image-keyboard-response","226","326594","0.0-226.0","3PJ71Z61R5OTHAQ6UURBW89EALU91X","A1YZ0ETOCJO1B2","3VJ4PFXFJ3TL96TFXMATEMT7KJHUAI","","","img/flower6.png","74","916.5999999940395","1","1","1","1,0.5,0.5,0.5,1,0.5,0.5,0.5,1",""
"null","","html-keyboard-response","227","326898","0.0-227.0","3PJ71Z61R5OTHAQ6UURBW89EALU91X","A1YZ0ETOCJO1B2","3VJ4PFXFJ3TL96TFXMATEMT7KJHUAI","","","<img src=""img/flower6.png"" style=""width:200px; border:14px solid green;"">","null","","","","","",""
"339.5","","image-keyboard-response","228","327238","0.0-228.0","3PJ71Z61R5OTHAQ6UURBW89EALU91X","A1YZ0ETOCJO1B2","3VJ4PFXFJ3TL96TFXMATEMT7KJHUAI","","","img/flower6.png","74","339.90000000596046","1","1","1","1,0.5,0.5,0.5,1,0.5,0.5,0.5,1",""
"null","","html-keyboard-response","229","327544","0.0-229.0","3PJ71Z61R5OTHAQ6UURBW89EALU91X","A1YZ0ETOCJO1B2","3VJ4PFXFJ3TL96TFXMATEMT7KJHUAI","","","<img src=""img/flower6.png"" style=""width:200px; border:14px solid green;"">","null","","","","","",""
"852.5999999940395","","image-keyboard-response","230","328398","0.0-230.0","3PJ71Z61R5OTHAQ6UURBW89EALU91X","A1YZ0ETOCJO1B2","3VJ4PFXFJ3TL96TFXMATEMT7KJHUAI","","","img/flower5.png","75","853.1000000238419","2","1","2","1,0.5,0.5,0.5,1,0.5,0.5,0.5,1",""
"null","","html-keyboard-response","231","328704","0.0-231.0","3PJ71Z61R5OTHAQ6UURBW89EALU91X","A1YZ0ETOCJO1B2","3VJ4PFXFJ3TL96TFXMATEMT7KJHUAI","","","<img src=""img/flower5.png"" style=""width:200px; border:14px solid green;"">","null","","","","","",""
"636.7999999821186","","image-keyboard-response","232","329342","0.0-232.0","3PJ71Z61R5OTHAQ6UURBW89EALU91X","A1YZ0ETOCJO1B2","3VJ4PFXFJ3TL96TFXMATEMT7KJHUAI","","","img/flower3.png","76","637.1000000238419","3","1","3","1,0.5,0.5,0.5,1,0.5,0.5,0.5,1",""
"null","","html-keyboard-response","233","329643","0.0-233.0","3PJ71Z61R5OTHAQ6UURBW89EALU91X","A1YZ0ETOCJO1B2","3VJ4PFXFJ3TL96TFXMATEMT7KJHUAI","","","<img src=""img/flower3.png"" style=""width:200px; border:14px solid green;"">","null","","","","","",""
"293.90000000596046","","image-keyboard-response","234","329937","0.0-234.0","3PJ71Z61R5OTHAQ6UURBW89EALU91X","A1YZ0ETOCJO1B2","3VJ4PFXFJ3TL96TFXMATEMT7KJHUAI","","","img/flower3.png","76","294.2999999821186","3","1","3","1,0.5,0.5,0.5,1,0.5,0.5,0.5,1",""
"null","","html-keyboard-response","235","330250","0.0-235.0","3PJ71Z61R5OTHAQ6UURBW89EALU91X","A1YZ0ETOCJO1B2","3VJ4PFXFJ3TL96TFXMATEMT7KJHUAI","","","<img src=""img/flower3.png"" style=""width:200px; border:14px solid green;"">","null","","","","","",""
"655.2999999821186","","image-keyboard-response","236","330906","0.0-236.0","3PJ71Z61R5OTHAQ6UURBW89EALU91X","A1YZ0ETOCJO1B2","3VJ4PFXFJ3TL96TFXMATEMT7KJHUAI","","","img/flower6.png","74","656.1000000238419","1","1","1","1,0.5,0.5,0.5,1,0.5,0.5,0.5,1",""
"null","","html-keyboard-response","237","331222","0.0-237.0","3PJ71Z61R5OTHAQ6UURBW89EALU91X","A1YZ0ETOCJO1B2","3VJ4PFXFJ3TL96TFXMATEMT7KJHUAI","","","<img src=""img/flower6.png"" style=""width:200px; border:14px solid green;"">","null","","","","","",""
"766.9000000059605","","image-keyboard-response","238","331989","0.0-238.0","3PJ71Z61R5OTHAQ6UURBW89EALU91X","A1YZ0ETOCJO1B2","3VJ4PFXFJ3TL96TFXMATEMT7KJHUAI","","","img/flower3.png","76","767.2999999821186","3","1","3","1,0.5,0.5,0.5,1,0.5,0.5,0.5,1",""
"null","","html-keyboard-response","239","332300","0.0-239.0","3PJ71Z61R5OTHAQ6UURBW89EALU91X","A1YZ0ETOCJO1B2","3VJ4PFXFJ3TL96TFXMATEMT7KJHUAI","","","<img src=""img/flower3.png"" style=""width:200px; border:14px solid green;"">","null","","","","","",""
"756.5999999940395","","image-keyboard-response","240","333058","0.0-240.0","3PJ71Z61R5OTHAQ6UURBW89EALU91X","A1YZ0ETOCJO1B2","3VJ4PFXFJ3TL96TFXMATEMT7KJHUAI","","","img/flower5.png","75","757","2","1","2","1,0.5,0.5,0.5,1,0.5,0.5,0.5,1",""
"null","","html-keyboard-response","241","333360","0.0-241.0","3PJ71Z61R5OTHAQ6UURBW89EALU91X","A1YZ0ETOCJO1B2","3VJ4PFXFJ3TL96TFXMATEMT7KJHUAI","","","<img src=""img/flower5.png"" style=""width:200px; border:14px solid green;"">","null","","","","","",""
"1014.4000000059605","","image-keyboard-response","242","334375","0.0-242.0","3PJ71Z61R5OTHAQ6UURBW89EALU91X","A1YZ0ETOCJO1B2","3VJ4PFXFJ3TL96TFXMATEMT7KJHUAI","","","img/flower6.png","74","1015.0999999940395","1","1","1","1,0.5,0.5,0.5,1,0.5,0.5,0.5,1",""
"null","","html-keyboard-response","243","334685","0.0-243.0","3PJ71Z61R5OTHAQ6UURBW89EALU91X","A1YZ0ETOCJO1B2","3VJ4PFXFJ3TL96TFXMATEMT7KJHUAI","","","<img src=""img/flower6.png"" style=""width:200px; border:14px solid green;"">","null","","","","","",""
"347.19999998807907","","image-keyboard-response","244","335033","0.0-244.0","3PJ71Z61R5OTHAQ6UURBW89EALU91X","A1YZ0ETOCJO1B2","3VJ4PFXFJ3TL96TFXMATEMT7KJHUAI","","","img/flower6.png","74","347.7000000178814","1","1","1","1,0.5,0.5,0.5,1,0.5,0.5,0.5,1",""
"null","","html-keyboard-response","245","335341","0.0-245.0","3PJ71Z61R5OTHAQ6UURBW89EALU91X","A1YZ0ETOCJO1B2","3VJ4PFXFJ3TL96TFXMATEMT7KJHUAI","","","<img src=""img/flower6.png"" style=""width:200px; border:14px solid green;"">","null","","","","","",""
"737.1999999880791","","image-keyboard-response","246","336079","0.0-246.0","3PJ71Z61R5OTHAQ6UURBW89EALU91X","A1YZ0ETOCJO1B2","3VJ4PFXFJ3TL96TFXMATEMT7KJHUAI","","","img/flower3.png","75","737.5999999940395","2","0","3","1,0.5,0.5,0.5,1,0.5,0.5,0.5,1",""
"null","","html-keyboard-response","247","336383","0.0-247.0","3PJ71Z61R5OTHAQ6UURBW89EALU91X","A1YZ0ETOCJO1B2","3VJ4PFXFJ3TL96TFXMATEMT7KJHUAI","","","<img src=""img/flower3.png"" style=""width:200px;border:14px solid red;"">","null","","","","","",""
"452.2000000178814","","image-keyboard-response","248","336836","0.0-248.0","3PJ71Z61R5OTHAQ6UURBW89EALU91X","A1YZ0ETOCJO1B2","3VJ4PFXFJ3TL96TFXMATEMT7KJHUAI","","","img/flower3.png","76","452.7999999821186","3","1","3","1,0.5,0.5,0.5,1,0.5,0.5,0.5,1",""
"null","","html-keyboard-response","249","337142","0.0-249.0","3PJ71Z61R5OTHAQ6UURBW89EALU91X","A1YZ0ETOCJO1B2","3VJ4PFXFJ3TL96TFXMATEMT7KJHUAI","","","<img src=""img/flower3.png"" style=""width:200px; border:14px solid green;"">","null","","","","","",""
"901.0999999940395","","image-keyboard-response","250","338044","0.0-250.0","3PJ71Z61R5OTHAQ6UURBW89EALU91X","A1YZ0ETOCJO1B2","3VJ4PFXFJ3TL96TFXMATEMT7KJHUAI","","","img/flower5.png","74","901.7000000178814","1","0","2","1,0.5,0.5,0.5,1,0.5,0.5,0.5,1",""
"null","","html-keyboard-response","251","338351","0.0-251.0","3PJ71Z61R5OTHAQ6UURBW89EALU91X","A1YZ0ETOCJO1B2","3VJ4PFXFJ3TL96TFXMATEMT7KJHUAI","","","<img src=""img/flower5.png"" style=""width:200px;border:14px solid red;"">","null","","","","","",""
"458.80000001192093","","image-keyboard-response","252","338810","0.0-252.0","3PJ71Z61R5OTHAQ6UURBW89EALU91X","A1YZ0ETOCJO1B2","3VJ4PFXFJ3TL96TFXMATEMT7KJHUAI","","","img/flower5.png","75","459.2999999821186","2","1","2","1,0.5,0.5,0.5,1,0.5,0.5,0.5,1",""
"null","","html-keyboard-response","253","339124","0.0-253.0","3PJ71Z61R5OTHAQ6UURBW89EALU91X","A1YZ0ETOCJO1B2","3VJ4PFXFJ3TL96TFXMATEMT7KJHUAI","","","<img src=""img/flower5.png"" style=""width:200px; border:14px solid green;"">","null","","","","","",""
"1001.8000000119209","","image-keyboard-response","254","340126","0.0-254.0","3PJ71Z61R5OTHAQ6UURBW89EALU91X","A1YZ0ETOCJO1B2","3VJ4PFXFJ3TL96TFXMATEMT7KJHUAI","","","img/flower6.png","74","1002.2999999821186","1","1","1","1,0.5,0.5,0.5,1,0.5,0.5,0.5,1",""
"null","","html-keyboard-response","255","340440","0.0-255.0","3PJ71Z61R5OTHAQ6UURBW89EALU91X","A1YZ0ETOCJO1B2","3VJ4PFXFJ3TL96TFXMATEMT7KJHUAI","","","<img src=""img/flower6.png"" style=""width:200px; border:14px solid green;"">","null","","","","","",""
"892.9000000059605","","image-keyboard-response","256","341333","0.0-256.0","3PJ71Z61R5OTHAQ6UURBW89EALU91X","A1YZ0ETOCJO1B2","3VJ4PFXFJ3TL96TFXMATEMT7KJHUAI","","","img/flower5.png","75","893.1999999880791","2","1","2","1,0.5,0.5,0.5,1,0.5,0.5,0.5,1",""
"null","","html-keyboard-response","257","341634","0.0-257.0","3PJ71Z61R5OTHAQ6UURBW89EALU91X","A1YZ0ETOCJO1B2","3VJ4PFXFJ3TL96TFXMATEMT7KJHUAI","","","<img src=""img/flower5.png"" style=""width:200px; border:14px solid green;"">","null","","","","","",""
"295.19999998807907","","image-keyboard-response","258","341930","0.0-258.0","3PJ71Z61R5OTHAQ6UURBW89EALU91X","A1YZ0ETOCJO1B2","3VJ4PFXFJ3TL96TFXMATEMT7KJHUAI","","","img/flower5.png","75","295.5","2","1","2","1,0.5,0.5,0.5,1,0.5,0.5,0.5,1",""
"null","","html-keyboard-response","259","342237","0.0-259.0","3PJ71Z61R5OTHAQ6UURBW89EALU91X","A1YZ0ETOCJO1B2","3VJ4PFXFJ3TL96TFXMATEMT7KJHUAI","","","<img src=""img/flower5.png"" style=""width:200px; border:14px solid green;"">","null","","","","","",""
"691.9000000059605","","image-keyboard-response","260","342929","0.0-260.0","3PJ71Z61R5OTHAQ6UURBW89EALU91X","A1YZ0ETOCJO1B2","3VJ4PFXFJ3TL96TFXMATEMT7KJHUAI","","","img/flower3.png","76","692.2999999821186","3","1","3","1,0.5,0.5,0.5,1,0.5,0.5,0.5,1",""
"null","","html-keyboard-response","261","343243","0.0-261.0","3PJ71Z61R5OTHAQ6UURBW89EALU91X","A1YZ0ETOCJO1B2","3VJ4PFXFJ3TL96TFXMATEMT7KJHUAI","","","<img src=""img/flower3.png"" style=""width:200px; border:14px solid green;"">","null","","","","","",""
"297.90000000596046","","image-keyboard-response","262","343542","0.0-262.0","3PJ71Z61R5OTHAQ6UURBW89EALU91X","A1YZ0ETOCJO1B2","3VJ4PFXFJ3TL96TFXMATEMT7KJHUAI","","","img/flower3.png","76","298.30000001192093","3","1","3","1,0.5,0.5,0.5,1,0.5,0.5,0.5,1",""
"null","","html-keyboard-response","263","343856","0.0-263.0","3PJ71Z61R5OTHAQ6UURBW89EALU91X","A1YZ0ETOCJO1B2","3VJ4PFXFJ3TL96TFXMATEMT7KJHUAI","","","<img src=""img/flower3.png"" style=""width:200px; border:14px solid green;"">","null","","","","","",""
"296.5","","image-keyboard-response","264","344153","0.0-264.0","3PJ71Z61R5OTHAQ6UURBW89EALU91X","A1YZ0ETOCJO1B2","3VJ4PFXFJ3TL96TFXMATEMT7KJHUAI","","","img/flower3.png","76","297.09999999403954","3","1","3","1,0.5,0.5,0.5,1,0.5,0.5,0.5,1",""
"null","","html-keyboard-response","265","344465","0.0-265.0","3PJ71Z61R5OTHAQ6UURBW89EALU91X","A1YZ0ETOCJO1B2","3VJ4PFXFJ3TL96TFXMATEMT7KJHUAI","","","<img src=""img/flower3.png"" style=""width:200px; border:14px solid green;"">","null","","","","","",""
"298.69999998807907","","image-keyboard-response","266","344764","0.0-266.0","3PJ71Z61R5OTHAQ6UURBW89EALU91X","A1YZ0ETOCJO1B2","3VJ4PFXFJ3TL96TFXMATEMT7KJHUAI","","","img/flower3.png","76","299.19999998807907","3","1","3","1,0.5,0.5,0.5,1,0.5,0.5,0.5,1",""
"null","","html-keyboard-response","267","345072","0.0-267.0","3PJ71Z61R5OTHAQ6UURBW89EALU91X","A1YZ0ETOCJO1B2","3VJ4PFXFJ3TL96TFXMATEMT7KJHUAI","","","<img src=""img/flower3.png"" style=""width:200px; border:14px solid green;"">","null","","","","","",""
"318.40000000596046","","image-keyboard-response","268","345391","0.0-268.0","3PJ71Z61R5OTHAQ6UURBW89EALU91X","A1YZ0ETOCJO1B2","3VJ4PFXFJ3TL96TFXMATEMT7KJHUAI","","","img/flower3.png","76","318.90000000596046","3","1","3","1,0.5,0.5,0.5,1,0.5,0.5,0.5,1",""
"null","","html-keyboard-response","269","345697","0.0-269.0","3PJ71Z61R5OTHAQ6UURBW89EALU91X","A1YZ0ETOCJO1B2","3VJ4PFXFJ3TL96TFXMATEMT7KJHUAI","","","<img src=""img/flower3.png"" style=""width:200px; border:14px solid green;"">","null","","","","","",""
"715.2000000178814","","image-keyboard-response","270","346413","0.0-270.0","3PJ71Z61R5OTHAQ6UURBW89EALU91X","A1YZ0ETOCJO1B2","3VJ4PFXFJ3TL96TFXMATEMT7KJHUAI","","","img/flower6.png","74","715.5999999940395","1","1","1","1,0.5,0.5,0.5,1,0.5,0.5,0.5,1",""
"null","","html-keyboard-response","271","346727","0.0-271.0","3PJ71Z61R5OTHAQ6UURBW89EALU91X","A1YZ0ETOCJO1B2","3VJ4PFXFJ3TL96TFXMATEMT7KJHUAI","","","<img src=""img/flower6.png"" style=""width:200px; border:14px solid green;"">","null","","","","","",""
"637.5999999940395","","image-keyboard-response","272","347366","0.0-272.0","3PJ71Z61R5OTHAQ6UURBW89EALU91X","A1YZ0ETOCJO1B2","3VJ4PFXFJ3TL96TFXMATEMT7KJHUAI","","","img/flower5.png","75","638.1000000238419","2","1","2","1,0.5,0.5,0.5,1,0.5,0.5,0.5,1",""
"null","","html-keyboard-response","273","347679","0.0-273.0","3PJ71Z61R5OTHAQ6UURBW89EALU91X","A1YZ0ETOCJO1B2","3VJ4PFXFJ3TL96TFXMATEMT7KJHUAI","","","<img src=""img/flower5.png"" style=""width:200px; border:14px solid green;"">","null","","","","","",""
"847.1999999880791","","image-keyboard-response","274","348527","0.0-274.0","3PJ71Z61R5OTHAQ6UURBW89EALU91X","A1YZ0ETOCJO1B2","3VJ4PFXFJ3TL96TFXMATEMT7KJHUAI","","","img/flower3.png","76","847.8000000119209","3","1","3","1,0.5,0.5,0.5,1,0.5,0.5,0.5,1",""
"null","","html-keyboard-response","275","348832","0.0-275.0","3PJ71Z61R5OTHAQ6UURBW89EALU91X","A1YZ0ETOCJO1B2","3VJ4PFXFJ3TL96TFXMATEMT7KJHUAI","","","<img src=""img/flower3.png"" style=""width:200px; border:14px solid green;"">","null","","","","","",""
"745.8999999761581","","image-keyboard-response","276","349579","0.0-276.0","3PJ71Z61R5OTHAQ6UURBW89EALU91X","A1YZ0ETOCJO1B2","3VJ4PFXFJ3TL96TFXMATEMT7KJHUAI","","","img/flower6.png","74","746.4000000059605","1","1","1","1,0.5,0.5,0.5,1,0.5,0.5,0.5,1",""
"null","","html-keyboard-response","277","349892","0.0-277.0","3PJ71Z61R5OTHAQ6UURBW89EALU91X","A1YZ0ETOCJO1B2","3VJ4PFXFJ3TL96TFXMATEMT7KJHUAI","","","<img src=""img/flower6.png"" style=""width:200px; border:14px solid green;"">","null","","","","","",""
"314.69999998807907","","image-keyboard-response","278","350207","0.0-278.0","3PJ71Z61R5OTHAQ6UURBW89EALU91X","A1YZ0ETOCJO1B2","3VJ4PFXFJ3TL96TFXMATEMT7KJHUAI","","","img/flower6.png","74","315.40000000596046","1","1","1","1,0.5,0.5,0.5,1,0.5,0.5,0.5,1",""
"null","","html-keyboard-response","279","350517","0.0-279.0","3PJ71Z61R5OTHAQ6UURBW89EALU91X","A1YZ0ETOCJO1B2","3VJ4PFXFJ3TL96TFXMATEMT7KJHUAI","","","<img src=""img/flower6.png"" style=""width:200px; border:14px solid green;"">","null","","","","","",""
"988.0999999940395","","image-keyboard-response","280","351506","0.0-280.0","3PJ71Z61R5OTHAQ6UURBW89EALU91X","A1YZ0ETOCJO1B2","3VJ4PFXFJ3TL96TFXMATEMT7KJHUAI","","","img/flower5.png","75","988.8000000119209","2","1","2","1,0.5,0.5,0.5,1,0.5,0.5,0.5,1",""
"null","","html-keyboard-response","281","351817","0.0-281.0","3PJ71Z61R5OTHAQ6UURBW89EALU91X","A1YZ0ETOCJO1B2","3VJ4PFXFJ3TL96TFXMATEMT7KJHUAI","","","<img src=""img/flower5.png"" style=""width:200px; border:14px solid green;"">","null","","","","","",""
"486.30000001192093","","image-keyboard-response","282","352304","0.0-282.0","3PJ71Z61R5OTHAQ6UURBW89EALU91X","A1YZ0ETOCJO1B2","3VJ4PFXFJ3TL96TFXMATEMT7KJHUAI","","","img/flower5.png","75","486.90000000596046","2","1","2","1,0.5,0.5,0.5,1,0.5,0.5,0.5,1",""
"null","","html-keyboard-response","283","352606","0.0-283.0","3PJ71Z61R5OTHAQ6UURBW89EALU91X","A1YZ0ETOCJO1B2","3VJ4PFXFJ3TL96TFXMATEMT7KJHUAI","","","<img src=""img/flower5.png"" style=""width:200px; border:14px solid green;"">","null","","","","","",""
"594.6999999880791","","image-keyboard-response","284","353201","0.0-284.0","3PJ71Z61R5OTHAQ6UURBW89EALU91X","A1YZ0ETOCJO1B2","3VJ4PFXFJ3TL96TFXMATEMT7KJHUAI","","","img/flower3.png","76","595.1999999880791","3","1","3","1,0.5,0.5,0.5,1,0.5,0.5,0.5,1",""
"null","","html-keyboard-response","285","353505","0.0-285.0","3PJ71Z61R5OTHAQ6UURBW89EALU91X","A1YZ0ETOCJO1B2","3VJ4PFXFJ3TL96TFXMATEMT7KJHUAI","","","<img src=""img/flower3.png"" style=""width:200px; border:14px solid green;"">","null","","","","","",""
"856.9000000059605","","image-keyboard-response","286","354362","0.0-286.0","3PJ71Z61R5OTHAQ6UURBW89EALU91X","A1YZ0ETOCJO1B2","3VJ4PFXFJ3TL96TFXMATEMT7KJHUAI","","","img/flower6.png","74","857.1999999880791","1","1","1","1,0.5,0.5,0.5,1,0.5,0.5,0.5,1",""
"null","","html-keyboard-response","287","354671","0.0-287.0","3PJ71Z61R5OTHAQ6UURBW89EALU91X","A1YZ0ETOCJO1B2","3VJ4PFXFJ3TL96TFXMATEMT7KJHUAI","","","<img src=""img/flower6.png"" style=""width:200px; border:14px solid green;"">","null","","","","","",""
"707","","image-keyboard-response","288","355378","0.0-288.0","3PJ71Z61R5OTHAQ6UURBW89EALU91X","A1YZ0ETOCJO1B2","3VJ4PFXFJ3TL96TFXMATEMT7KJHUAI","","","img/flower3.png","76","707.3999999761581","3","1","3","1,0.5,0.5,0.5,1,0.5,0.5,0.5,1",""
"null","","html-keyboard-response","289","355693","0.0-289.0","3PJ71Z61R5OTHAQ6UURBW89EALU91X","A1YZ0ETOCJO1B2","3VJ4PFXFJ3TL96TFXMATEMT7KJHUAI","","","<img src=""img/flower3.png"" style=""width:200px; border:14px solid green;"">","null","","","","","",""
"706","","image-keyboard-response","290","356400","0.0-290.0","3PJ71Z61R5OTHAQ6UURBW89EALU91X","A1YZ0ETOCJO1B2","3VJ4PFXFJ3TL96TFXMATEMT7KJHUAI","","","img/flower6.png","74","706.4000000059605","1","1","1","1,0.5,0.5,0.5,1,0.5,0.5,0.5,1",""
"null","","html-keyboard-response","291","356701","0.0-291.0","3PJ71Z61R5OTHAQ6UURBW89EALU91X","A1YZ0ETOCJO1B2","3VJ4PFXFJ3TL96TFXMATEMT7KJHUAI","","","<img src=""img/flower6.png"" style=""width:200px; border:14px solid green;"">","null","","","","","",""
"1046","","image-keyboard-response","292","357747","0.0-292.0","3PJ71Z61R5OTHAQ6UURBW89EALU91X","A1YZ0ETOCJO1B2","3VJ4PFXFJ3TL96TFXMATEMT7KJHUAI","","","img/flower5.png","75","1046.5","2","1","2","1,0.5,0.5,0.5,1,0.5,0.5,0.5,1",""
"null","","html-keyboard-response","293","358052","0.0-293.0","3PJ71Z61R5OTHAQ6UURBW89EALU91X","A1YZ0ETOCJO1B2","3VJ4PFXFJ3TL96TFXMATEMT7KJHUAI","","","<img src=""img/flower5.png"" style=""width:200px; border:14px solid green;"">","null","","","","","",""
"352.69999998807907","","image-keyboard-response","294","358405","0.0-294.0","3PJ71Z61R5OTHAQ6UURBW89EALU91X","A1YZ0ETOCJO1B2","3VJ4PFXFJ3TL96TFXMATEMT7KJHUAI","","","img/flower5.png","75","353.2000000178814","2","1","2","1,0.5,0.5,0.5,1,0.5,0.5,0.5,1",""
"null","","html-keyboard-response","295","358715","0.0-295.0","3PJ71Z61R5OTHAQ6UURBW89EALU91X","A1YZ0ETOCJO1B2","3VJ4PFXFJ3TL96TFXMATEMT7KJHUAI","","","<img src=""img/flower5.png"" style=""width:200px; border:14px solid green;"">","null","","","","","",""
"253.59999999403954","","image-keyboard-response","296","358970","0.0-296.0","3PJ71Z61R5OTHAQ6UURBW89EALU91X","A1YZ0ETOCJO1B2","3VJ4PFXFJ3TL96TFXMATEMT7KJHUAI","","","img/flower5.png","75","254.2000000178814","2","1","2","1,0.5,0.5,0.5,1,0.5,0.5,0.5,1",""
"null","","html-keyboard-response","297","359276","0.0-297.0","3PJ71Z61R5OTHAQ6UURBW89EALU91X","A1YZ0ETOCJO1B2","3VJ4PFXFJ3TL96TFXMATEMT7KJHUAI","","","<img src=""img/flower5.png"" style=""width:200px; border:14px solid green;"">","null","","","","","",""
"760.6000000238419","","image-keyboard-response","298","360038","0.0-298.0","3PJ71Z61R5OTHAQ6UURBW89EALU91X","A1YZ0ETOCJO1B2","3VJ4PFXFJ3TL96TFXMATEMT7KJHUAI","","","img/flower3.png","76","761.3999999761581","3","1","3","1,0.5,0.5,0.5,1,0.5,0.5,0.5,1",""
"null","","html-keyboard-response","299","360349","0.0-299.0","3PJ71Z61R5OTHAQ6UURBW89EALU91X","A1YZ0ETOCJO1B2","3VJ4PFXFJ3TL96TFXMATEMT7KJHUAI","","","<img src=""img/flower3.png"" style=""width:200px; border:14px solid green;"">","null","","","","","",""
"704.0999999940395","","image-keyboard-response","300","361054","0.0-300.0","3PJ71Z61R5OTHAQ6UURBW89EALU91X","A1YZ0ETOCJO1B2","3VJ4PFXFJ3TL96TFXMATEMT7KJHUAI","","","img/flower6.png","74","704.7999999821186","1","1","1","1,0.5,0.5,0.5,1,0.5,0.5,0.5,1",""
"null","","html-keyboard-response","301","361364","0.0-301.0","3PJ71Z61R5OTHAQ6UURBW89EALU91X","A1YZ0ETOCJO1B2","3VJ4PFXFJ3TL96TFXMATEMT7KJHUAI","","","<img src=""img/flower6.png"" style=""width:200px; border:14px solid green;"">","null","","","","","",""
"392.59999999403954","","image-keyboard-response","302","361758","0.0-302.0","3PJ71Z61R5OTHAQ6UURBW89EALU91X","A1YZ0ETOCJO1B2","3VJ4PFXFJ3TL96TFXMATEMT7KJHUAI","","","img/flower6.png","74","393.2000000178814","1","1","1","1,0.5,0.5,0.5,1,0.5,0.5,0.5,1",""
"null","","html-keyboard-response","303","362067","0.0-303.0","3PJ71Z61R5OTHAQ6UURBW89EALU91X","A1YZ0ETOCJO1B2","3VJ4PFXFJ3TL96TFXMATEMT7KJHUAI","","","<img src=""img/flower6.png"" style=""width:200px; border:14px solid green;"">","null","","","","","",""
"742.4000000059605","","image-keyboard-response","304","362810","0.0-304.0","3PJ71Z61R5OTHAQ6UURBW89EALU91X","A1YZ0ETOCJO1B2","3VJ4PFXFJ3TL96TFXMATEMT7KJHUAI","","","img/flower5.png","75","743","2","1","2","1,0.5,0.5,0.5,1,0.5,0.5,0.5,1",""
"null","","html-keyboard-response","305","363125","0.0-305.0","3PJ71Z61R5OTHAQ6UURBW89EALU91X","A1YZ0ETOCJO1B2","3VJ4PFXFJ3TL96TFXMATEMT7KJHUAI","","","<img src=""img/flower5.png"" style=""width:200px; border:14px solid green;"">","null","","","","","",""
"","","html-keyboard-response","306","372135","0.0-306.0","3PJ71Z61R5OTHAQ6UURBW89EALU91X","A1YZ0ETOCJO1B2","3VJ4PFXFJ3TL96TFXMATEMT7KJHUAI","","","","","","","","","",""
"1759.2999999821186","","image-keyboard-response","307","373896","0.0-307.0","3PJ71Z61R5OTHAQ6UURBW89EALU91X","A1YZ0ETOCJO1B2","3VJ4PFXFJ3TL96TFXMATEMT7KJHUAI","","","img/flower2.png","75","1760","2","1","1","1,1,0,0,1,1,1,0,1",""
"null","","html-keyboard-response","308","374210","0.0-308.0","3PJ71Z61R5OTHAQ6UURBW89EALU91X","A1YZ0ETOCJO1B2","3VJ4PFXFJ3TL96TFXMATEMT7KJHUAI","","","<img src=""img/flower2.png"" style=""width:200px; border:14px solid green;"">","null","","","","","",""
"1171.800000011921","","image-keyboard-response","309","375383","0.0-309.0","3PJ71Z61R5OTHAQ6UURBW89EALU91X","A1YZ0ETOCJO1B2","3VJ4PFXFJ3TL96TFXMATEMT7KJHUAI","","","img/flower4.png","74","1172.199999988079","1","1","3","1,1,0,0,1,1,1,0,1",""
"null","","html-keyboard-response","310","375686","0.0-310.0","3PJ71Z61R5OTHAQ6UURBW89EALU91X","A1YZ0ETOCJO1B2","3VJ4PFXFJ3TL96TFXMATEMT7KJHUAI","","","<img src=""img/flower4.png"" style=""width:200px; border:14px solid green;"">","null","","","","","",""
"624.8000000119209","","image-keyboard-response","311","376311","0.0-311.0","3PJ71Z61R5OTHAQ6UURBW89EALU91X","A1YZ0ETOCJO1B2","3VJ4PFXFJ3TL96TFXMATEMT7KJHUAI","","","img/flower2.png","75","625.5","2","1","1","1,1,0,0,1,1,1,0,1",""
"null","","html-keyboard-response","312","376620","0.0-312.0","3PJ71Z61R5OTHAQ6UURBW89EALU91X","A1YZ0ETOCJO1B2","3VJ4PFXFJ3TL96TFXMATEMT7KJHUAI","","","<img src=""img/flower2.png"" style=""width:200px; border:14px solid green;"">","null","","","","","",""
"784.1999999880791","","image-keyboard-response","313","377405","0.0-313.0","3PJ71Z61R5OTHAQ6UURBW89EALU91X","A1YZ0ETOCJO1B2","3VJ4PFXFJ3TL96TFXMATEMT7KJHUAI","","","img/flower1.png","76","784.7000000178814","3","1","2","1,1,0,0,1,1,1,0,1",""
"null","","html-keyboard-response","314","377709","0.0-314.0","3PJ71Z61R5OTHAQ6UURBW89EALU91X","A1YZ0ETOCJO1B2","3VJ4PFXFJ3TL96TFXMATEMT7KJHUAI","","","<img src=""img/flower1.png"" style=""width:200px; border:14px solid green;"">","null","","","","","",""
"653","","image-keyboard-response","315","378363","0.0-315.0","3PJ71Z61R5OTHAQ6UURBW89EALU91X","A1YZ0ETOCJO1B2","3VJ4PFXFJ3TL96TFXMATEMT7KJHUAI","","","img/flower2.png","75","653.5","2","1","1","1,1,0,0,1,1,1,0,1",""
"null","","html-keyboard-response","316","378673","0.0-316.0","3PJ71Z61R5OTHAQ6UURBW89EALU91X","A1YZ0ETOCJO1B2","3VJ4PFXFJ3TL96TFXMATEMT7KJHUAI","","","<img src=""img/flower2.png"" style=""width:200px; border:14px solid green;"">","null","","","","","",""
"565.5","","image-keyboard-response","317","379240","0.0-317.0","3PJ71Z61R5OTHAQ6UURBW89EALU91X","A1YZ0ETOCJO1B2","3VJ4PFXFJ3TL96TFXMATEMT7KJHUAI","","","img/flower4.png","74","565.9000000059605","1","1","3","1,1,0,0,1,1,1,0,1",""
"null","","html-keyboard-response","318","379550","0.0-318.0","3PJ71Z61R5OTHAQ6UURBW89EALU91X","A1YZ0ETOCJO1B2","3VJ4PFXFJ3TL96TFXMATEMT7KJHUAI","","","<img src=""img/flower4.png"" style=""width:200px; border:14px solid green;"">","null","","","","","",""
"507","","image-keyboard-response","319","380058","0.0-319.0","3PJ71Z61R5OTHAQ6UURBW89EALU91X","A1YZ0ETOCJO1B2","3VJ4PFXFJ3TL96TFXMATEMT7KJHUAI","","","img/flower2.png","75","507.5","2","1","1","1,1,0,0,1,1,1,0,1",""
"null","","html-keyboard-response","320","380363","0.0-320.0","3PJ71Z61R5OTHAQ6UURBW89EALU91X","A1YZ0ETOCJO1B2","3VJ4PFXFJ3TL96TFXMATEMT7KJHUAI","","","<img src=""img/flower2.png"" style=""width:200px; border:14px solid green;"">","null","","","","","",""
"661.6999999880791","","image-keyboard-response","321","381025","0.0-321.0","3PJ71Z61R5OTHAQ6UURBW89EALU91X","A1YZ0ETOCJO1B2","3VJ4PFXFJ3TL96TFXMATEMT7KJHUAI","","","img/flower1.png","76","662.0999999940395","3","1","2","1,1,0,0,1,1,1,0,1",""
"null","","html-keyboard-response","322","381330","0.0-322.0","3PJ71Z61R5OTHAQ6UURBW89EALU91X","A1YZ0ETOCJO1B2","3VJ4PFXFJ3TL96TFXMATEMT7KJHUAI","","","<img src=""img/flower1.png"" style=""width:200px; border:14px solid green;"">","null","","","","","",""
"554.5999999940395","","image-keyboard-response","323","381885","0.0-323.0","3PJ71Z61R5OTHAQ6UURBW89EALU91X","A1YZ0ETOCJO1B2","3VJ4PFXFJ3TL96TFXMATEMT7KJHUAI","","","img/flower1.png","76","555","3","1","2","1,1,0,0,1,1,1,0,1",""
"null","","html-keyboard-response","324","382190","0.0-324.0","3PJ71Z61R5OTHAQ6UURBW89EALU91X","A1YZ0ETOCJO1B2","3VJ4PFXFJ3TL96TFXMATEMT7KJHUAI","","","<img src=""img/flower1.png"" style=""width:200px; border:14px solid green;"">","null","","","","","",""
"779.0999999940395","","image-keyboard-response","325","382970","0.0-325.0","3PJ71Z61R5OTHAQ6UURBW89EALU91X","A1YZ0ETOCJO1B2","3VJ4PFXFJ3TL96TFXMATEMT7KJHUAI","","","img/flower4.png","74","779.6000000238419","1","1","3","1,1,0,0,1,1,1,0,1",""
"null","","html-keyboard-response","326","383281","0.0-326.0","3PJ71Z61R5OTHAQ6UURBW89EALU91X","A1YZ0ETOCJO1B2","3VJ4PFXFJ3TL96TFXMATEMT7KJHUAI","","","<img src=""img/flower4.png"" style=""width:200px; border:14px solid green;"">","null","","","","","",""
"785.7000000178814","","image-keyboard-response","327","384068","0.0-327.0","3PJ71Z61R5OTHAQ6UURBW89EALU91X","A1YZ0ETOCJO1B2","3VJ4PFXFJ3TL96TFXMATEMT7KJHUAI","","","img/flower1.png","76","786.3000000119209","3","1","2","1,1,0,0,1,1,1,0,1",""
"null","","html-keyboard-response","328","384373","0.0-328.0","3PJ71Z61R5OTHAQ6UURBW89EALU91X","A1YZ0ETOCJO1B2","3VJ4PFXFJ3TL96TFXMATEMT7KJHUAI","","","<img src=""img/flower1.png"" style=""width:200px; border:14px solid green;"">","null","","","","","",""
"823.7999999821186","","image-keyboard-response","329","385197","0.0-329.0","3PJ71Z61R5OTHAQ6UURBW89EALU91X","A1YZ0ETOCJO1B2","3VJ4PFXFJ3TL96TFXMATEMT7KJHUAI","","","img/flower4.png","74","824.3000000119209","1","1","3","1,1,0,0,1,1,1,0,1",""
"null","","html-keyboard-response","330","385509","0.0-330.0","3PJ71Z61R5OTHAQ6UURBW89EALU91X","A1YZ0ETOCJO1B2","3VJ4PFXFJ3TL96TFXMATEMT7KJHUAI","","","<img src=""img/flower4.png"" style=""width:200px; border:14px solid green;"">","null","","","","","",""
"579.9000000059605","","image-keyboard-response","331","386090","0.0-331.0","3PJ71Z61R5OTHAQ6UURBW89EALU91X","A1YZ0ETOCJO1B2","3VJ4PFXFJ3TL96TFXMATEMT7KJHUAI","","","img/flower2.png","75","580.5","2","1","1","1,1,0,0,1,1,1,0,1",""
"null","","html-keyboard-response","332","386403","0.0-332.0","3PJ71Z61R5OTHAQ6UURBW89EALU91X","A1YZ0ETOCJO1B2","3VJ4PFXFJ3TL96TFXMATEMT7KJHUAI","","","<img src=""img/flower2.png"" style=""width:200px; border:14px solid green;"">","null","","","","","",""
"406.7999999821186","","image-keyboard-response","333","386810","0.0-333.0","3PJ71Z61R5OTHAQ6UURBW89EALU91X","A1YZ0ETOCJO1B2","3VJ4PFXFJ3TL96TFXMATEMT7KJHUAI","","","img/flower2.png","75","407.40000000596046","2","1","1","1,1,0,0,1,1,1,0,1",""
"null","","html-keyboard-response","334","387121","0.0-334.0","3PJ71Z61R5OTHAQ6UURBW89EALU91X","A1YZ0ETOCJO1B2","3VJ4PFXFJ3TL96TFXMATEMT7KJHUAI","","","<img src=""img/flower2.png"" style=""width:200px; border:14px solid green;"">","null","","","","","",""
"330.5","","image-keyboard-response","335","387452","0.0-335.0","3PJ71Z61R5OTHAQ6UURBW89EALU91X","A1YZ0ETOCJO1B2","3VJ4PFXFJ3TL96TFXMATEMT7KJHUAI","","","img/flower2.png","75","331","2","1","1","1,1,0,0,1,1,1,0,1",""
"null","","html-keyboard-response","336","387760","0.0-336.0","3PJ71Z61R5OTHAQ6UURBW89EALU91X","A1YZ0ETOCJO1B2","3VJ4PFXFJ3TL96TFXMATEMT7KJHUAI","","","<img src=""img/flower2.png"" style=""width:200px; border:14px solid green;"">","null","","","","","",""
"572.6999999880791","","image-keyboard-response","337","388334","0.0-337.0","3PJ71Z61R5OTHAQ6UURBW89EALU91X","A1YZ0ETOCJO1B2","3VJ4PFXFJ3TL96TFXMATEMT7KJHUAI","","","img/flower4.png","76","573.3000000119209","3","1","3","1,1,0,0,1,1,1,0,1",""
"null","","html-keyboard-response","338","388648","0.0-338.0","3PJ71Z61R5OTHAQ6UURBW89EALU91X","A1YZ0ETOCJO1B2","3VJ4PFXFJ3TL96TFXMATEMT7KJHUAI","","","<img src=""img/flower4.png"" style=""width:200px; border:14px solid green;"">","null","","","","","",""
"1141","","image-keyboard-response","339","389790","0.0-339.0","3PJ71Z61R5OTHAQ6UURBW89EALU91X","A1YZ0ETOCJO1B2","3VJ4PFXFJ3TL96TFXMATEMT7KJHUAI","","","img/flower1.png","74","1141.699999988079","1","0","2","1,1,0,0,1,1,1,0,1",""
"null","","html-keyboard-response","340","390098","0.0-340.0","3PJ71Z61R5OTHAQ6UURBW89EALU91X","A1YZ0ETOCJO1B2","3VJ4PFXFJ3TL96TFXMATEMT7KJHUAI","","","<img src=""img/flower1.png"" style=""width:200px;border:14px solid red;"">","null","","","","","",""
"929.5999999940395","","image-keyboard-response","341","391028","0.0-341.0","3PJ71Z61R5OTHAQ6UURBW89EALU91X","A1YZ0ETOCJO1B2","3VJ4PFXFJ3TL96TFXMATEMT7KJHUAI","","","img/flower2.png","75","930.2000000178814","2","1","1","1,1,0,0,1,1,1,0,1",""
"null","","html-keyboard-response","342","391344","0.0-342.0","3PJ71Z61R5OTHAQ6UURBW89EALU91X","A1YZ0ETOCJO1B2","3VJ4PFXFJ3TL96TFXMATEMT7KJHUAI","","","<img src=""img/flower2.png"" style=""width:200px; border:14px solid green;"">","null","","","","","",""
"1108.7000000178814","","image-keyboard-response","343","392454","0.0-343.0","3PJ71Z61R5OTHAQ6UURBW89EALU91X","A1YZ0ETOCJO1B2","3VJ4PFXFJ3TL96TFXMATEMT7KJHUAI","","","img/flower4.png","74","1109.0999999940395","1","1","3","1,1,0,0,1,1,1,0,1",""
"null","","html-keyboard-response","344","392763","0.0-344.0","3PJ71Z61R5OTHAQ6UURBW89EALU91X","A1YZ0ETOCJO1B2","3VJ4PFXFJ3TL96TFXMATEMT7KJHUAI","","","<img src=""img/flower4.png"" style=""width:200px; border:14px solid green;"">","null","","","","","",""
"1509.0999999940395","","image-keyboard-response","345","394273","0.0-345.0","3PJ71Z61R5OTHAQ6UURBW89EALU91X","A1YZ0ETOCJO1B2","3VJ4PFXFJ3TL96TFXMATEMT7KJHUAI","","","img/flower1.png","76","1509.5","3","1","2","1,1,0,0,1,1,1,0,1",""
"null","","html-keyboard-response","346","394580","0.0-346.0","3PJ71Z61R5OTHAQ6UURBW89EALU91X","A1YZ0ETOCJO1B2","3VJ4PFXFJ3TL96TFXMATEMT7KJHUAI","","","<img src=""img/flower1.png"" style=""width:200px; border:14px solid green;"">","null","","","","","",""
"789.6000000238419","","image-keyboard-response","347","395371","0.0-347.0","3PJ71Z61R5OTHAQ6UURBW89EALU91X","A1YZ0ETOCJO1B2","3VJ4PFXFJ3TL96TFXMATEMT7KJHUAI","","","img/flower4.png","76","790.0999999940395","3","1","3","1,1,0,0,1,1,1,0,1",""
"null","","html-keyboard-response","348","395683","0.0-348.0","3PJ71Z61R5OTHAQ6UURBW89EALU91X","A1YZ0ETOCJO1B2","3VJ4PFXFJ3TL96TFXMATEMT7KJHUAI","","","<img src=""img/flower4.png"" style=""width:200px; border:14px solid green;"">","null","","","","","",""
"564.2000000178814","","image-keyboard-response","349","396248","0.0-349.0","3PJ71Z61R5OTHAQ6UURBW89EALU91X","A1YZ0ETOCJO1B2","3VJ4PFXFJ3TL96TFXMATEMT7KJHUAI","","","img/flower2.png","75","564.5999999940395","2","1","1","1,1,0,0,1,1,1,0,1",""
"null","","html-keyboard-response","350","396558","0.0-350.0","3PJ71Z61R5OTHAQ6UURBW89EALU91X","A1YZ0ETOCJO1B2","3VJ4PFXFJ3TL96TFXMATEMT7KJHUAI","","","<img src=""img/flower2.png"" style=""width:200px; border:14px solid green;"">","null","","","","","",""
"647","","image-keyboard-response","351","397205","0.0-351.0","3PJ71Z61R5OTHAQ6UURBW89EALU91X","A1YZ0ETOCJO1B2","3VJ4PFXFJ3TL96TFXMATEMT7KJHUAI","","","img/flower4.png","76","647.5","3","1","3","1,1,0,0,1,1,1,0,1",""
"null","","html-keyboard-response","352","397510","0.0-352.0","3PJ71Z61R5OTHAQ6UURBW89EALU91X","A1YZ0ETOCJO1B2","3VJ4PFXFJ3TL96TFXMATEMT7KJHUAI","","","<img src=""img/flower4.png"" style=""width:200px; border:14px solid green;"">","null","","","","","",""
"445.90000000596046","","image-keyboard-response","353","397957","0.0-353.0","3PJ71Z61R5OTHAQ6UURBW89EALU91X","A1YZ0ETOCJO1B2","3VJ4PFXFJ3TL96TFXMATEMT7KJHUAI","","","img/flower4.png","76","446.2999999821186","3","1","3","1,1,0,0,1,1,1,0,1",""
"null","","html-keyboard-response","354","398258","0.0-354.0","3PJ71Z61R5OTHAQ6UURBW89EALU91X","A1YZ0ETOCJO1B2","3VJ4PFXFJ3TL96TFXMATEMT7KJHUAI","","","<img src=""img/flower4.png"" style=""width:200px; border:14px solid green;"">","null","","","","","",""
"542.7999999821186","","image-keyboard-response","355","398801","0.0-355.0","3PJ71Z61R5OTHAQ6UURBW89EALU91X","A1YZ0ETOCJO1B2","3VJ4PFXFJ3TL96TFXMATEMT7KJHUAI","","","img/flower1.png","76","543.0999999940395","3","1","2","1,1,0,0,1,1,1,0,1",""
"null","","html-keyboard-response","356","399103","0.0-356.0","3PJ71Z61R5OTHAQ6UURBW89EALU91X","A1YZ0ETOCJO1B2","3VJ4PFXFJ3TL96TFXMATEMT7KJHUAI","","","<img src=""img/flower1.png"" style=""width:200px; border:14px solid green;"">","null","","","","","",""
"371.90000000596046","","image-keyboard-response","357","399476","0.0-357.0","3PJ71Z61R5OTHAQ6UURBW89EALU91X","A1YZ0ETOCJO1B2","3VJ4PFXFJ3TL96TFXMATEMT7KJHUAI","","","img/flower1.png","76","372.5","3","1","2","1,1,0,0,1,1,1,0,1",""
"null","","html-keyboard-response","358","399788","0.0-358.0","3PJ71Z61R5OTHAQ6UURBW89EALU91X","A1YZ0ETOCJO1B2","3VJ4PFXFJ3TL96TFXMATEMT7KJHUAI","","","<img src=""img/flower1.png"" style=""width:200px; border:14px solid green;"">","null","","","","","",""
"1395.7000000178814","","image-keyboard-response","359","401185","0.0-359.0","3PJ71Z61R5OTHAQ6UURBW89EALU91X","A1YZ0ETOCJO1B2","3VJ4PFXFJ3TL96TFXMATEMT7KJHUAI","","","img/flower4.png","76","1396.199999988079","3","1","3","1,1,0,0,1,1,1,0,1",""
"null","","html-keyboard-response","360","401491","0.0-360.0","3PJ71Z61R5OTHAQ6UURBW89EALU91X","A1YZ0ETOCJO1B2","3VJ4PFXFJ3TL96TFXMATEMT7KJHUAI","","","<img src=""img/flower4.png"" style=""width:200px; border:14px solid green;"">","null","","","","","",""
"636.9000000059605","","image-keyboard-response","361","402129","0.0-361.0","3PJ71Z61R5OTHAQ6UURBW89EALU91X","A1YZ0ETOCJO1B2","3VJ4PFXFJ3TL96TFXMATEMT7KJHUAI","","","img/flower1.png","76","637.4000000059605","3","1","2","1,1,0,0,1,1,1,0,1",""
"null","","html-keyboard-response","362","402439","0.0-362.0","3PJ71Z61R5OTHAQ6UURBW89EALU91X","A1YZ0ETOCJO1B2","3VJ4PFXFJ3TL96TFXMATEMT7KJHUAI","","","<img src=""img/flower1.png"" style=""width:200px; border:14px solid green;"">","null","","","","","",""
"501.5","","image-keyboard-response","363","402941","0.0-363.0","3PJ71Z61R5OTHAQ6UURBW89EALU91X","A1YZ0ETOCJO1B2","3VJ4PFXFJ3TL96TFXMATEMT7KJHUAI","","","img/flower4.png","76","502","3","1","3","1,1,0,0,1,1,1,0,1",""
"null","","html-keyboard-response","364","403252","0.0-364.0","3PJ71Z61R5OTHAQ6UURBW89EALU91X","A1YZ0ETOCJO1B2","3VJ4PFXFJ3TL96TFXMATEMT7KJHUAI","","","<img src=""img/flower4.png"" style=""width:200px; border:14px solid green;"">","null","","","","","",""
"361.59999999403954","","image-keyboard-response","365","403615","0.0-365.0","3PJ71Z61R5OTHAQ6UURBW89EALU91X","A1YZ0ETOCJO1B2","3VJ4PFXFJ3TL96TFXMATEMT7KJHUAI","","","img/flower4.png","76","362","3","1","3","1,1,0,0,1,1,1,0,1",""
"null","","html-keyboard-response","366","403922","0.0-366.0","3PJ71Z61R5OTHAQ6UURBW89EALU91X","A1YZ0ETOCJO1B2","3VJ4PFXFJ3TL96TFXMATEMT7KJHUAI","","","<img src=""img/flower4.png"" style=""width:200px; border:14px solid green;"">","null","","","","","",""
"650.5","","image-keyboard-response","367","404574","0.0-367.0","3PJ71Z61R5OTHAQ6UURBW89EALU91X","A1YZ0ETOCJO1B2","3VJ4PFXFJ3TL96TFXMATEMT7KJHUAI","","","img/flower2.png","75","651.1999999880791","2","1","1","1,1,0,0,1,1,1,0,1",""
"null","","html-keyboard-response","368","404874","0.0-368.0","3PJ71Z61R5OTHAQ6UURBW89EALU91X","A1YZ0ETOCJO1B2","3VJ4PFXFJ3TL96TFXMATEMT7KJHUAI","","","<img src=""img/flower2.png"" style=""width:200px; border:14px solid green;"">","null","","","","","",""
"620.6000000238419","","image-keyboard-response","369","405496","0.0-369.0","3PJ71Z61R5OTHAQ6UURBW89EALU91X","A1YZ0ETOCJO1B2","3VJ4PFXFJ3TL96TFXMATEMT7KJHUAI","","","img/flower4.png","76","621.1999999880791","3","1","3","1,1,0,0,1,1,1,0,1",""
"null","","html-keyboard-response","370","405797","0.0-370.0","3PJ71Z61R5OTHAQ6UURBW89EALU91X","A1YZ0ETOCJO1B2","3VJ4PFXFJ3TL96TFXMATEMT7KJHUAI","","","<img src=""img/flower4.png"" style=""width:200px; border:14px solid green;"">","null","","","","","",""
"657.8000000119209","","image-keyboard-response","371","406455","0.0-371.0","3PJ71Z61R5OTHAQ6UURBW89EALU91X","A1YZ0ETOCJO1B2","3VJ4PFXFJ3TL96TFXMATEMT7KJHUAI","","","img/flower1.png","76","658.2999999821186","3","1","2","1,1,0,0,1,1,1,0,1",""
"null","","html-keyboard-response","372","406764","0.0-372.0","3PJ71Z61R5OTHAQ6UURBW89EALU91X","A1YZ0ETOCJO1B2","3VJ4PFXFJ3TL96TFXMATEMT7KJHUAI","","","<img src=""img/flower1.png"" style=""width:200px; border:14px solid green;"">","null","","","","","",""
"364.30000001192093","","image-keyboard-response","373","407128","0.0-373.0","3PJ71Z61R5OTHAQ6UURBW89EALU91X","A1YZ0ETOCJO1B2","3VJ4PFXFJ3TL96TFXMATEMT7KJHUAI","","","img/flower1.png","76","364.80000001192093","3","1","2","1,1,0,0,1,1,1,0,1",""
"null","","html-keyboard-response","374","407438","0.0-374.0","3PJ71Z61R5OTHAQ6UURBW89EALU91X","A1YZ0ETOCJO1B2","3VJ4PFXFJ3TL96TFXMATEMT7KJHUAI","","","<img src=""img/flower1.png"" style=""width:200px; border:14px solid green;"">","null","","","","","",""
"316.90000000596046","","image-keyboard-response","375","407756","0.0-375.0","3PJ71Z61R5OTHAQ6UURBW89EALU91X","A1YZ0ETOCJO1B2","3VJ4PFXFJ3TL96TFXMATEMT7KJHUAI","","","img/flower1.png","76","317.2000000178814","3","1","2","1,1,0,0,1,1,1,0,1",""
"null","","html-keyboard-response","376","408059","0.0-376.0","3PJ71Z61R5OTHAQ6UURBW89EALU91X","A1YZ0ETOCJO1B2","3VJ4PFXFJ3TL96TFXMATEMT7KJHUAI","","","<img src=""img/flower1.png"" style=""width:200px; border:14px solid green;"">","null","","","","","",""
"322.39999997615814","","image-keyboard-response","377","408383","0.0-377.0","3PJ71Z61R5OTHAQ6UURBW89EALU91X","A1YZ0ETOCJO1B2","3VJ4PFXFJ3TL96TFXMATEMT7KJHUAI","","","img/flower1.png","76","323","3","1","2","1,1,0,0,1,1,1,0,1",""
"null","","html-keyboard-response","378","408697","0.0-378.0","3PJ71Z61R5OTHAQ6UURBW89EALU91X","A1YZ0ETOCJO1B2","3VJ4PFXFJ3TL96TFXMATEMT7KJHUAI","","","<img src=""img/flower1.png"" style=""width:200px; border:14px solid green;"">","null","","","","","",""
"624","","image-keyboard-response","379","409322","0.0-379.0","3PJ71Z61R5OTHAQ6UURBW89EALU91X","A1YZ0ETOCJO1B2","3VJ4PFXFJ3TL96TFXMATEMT7KJHUAI","","","img/flower4.png","75","624.4000000059605","2","0","3","1,1,0,0,1,1,1,0,1",""
"null","","html-keyboard-response","380","409625","0.0-380.0","3PJ71Z61R5OTHAQ6UURBW89EALU91X","A1YZ0ETOCJO1B2","3VJ4PFXFJ3TL96TFXMATEMT7KJHUAI","","","<img src=""img/flower4.png"" style=""width:200px;border:14px solid red;"">","null","","","","","",""
"855.6000000238419","","image-keyboard-response","381","410482","0.0-381.0","3PJ71Z61R5OTHAQ6UURBW89EALU91X","A1YZ0ETOCJO1B2","3VJ4PFXFJ3TL96TFXMATEMT7KJHUAI","","","img/flower2.png","75","856.5","2","1","1","1,1,0,0,1,1,1,0,1",""
"null","","html-keyboard-response","382","410791","0.0-382.0","3PJ71Z61R5OTHAQ6UURBW89EALU91X","A1YZ0ETOCJO1B2","3VJ4PFXFJ3TL96TFXMATEMT7KJHUAI","","","<img src=""img/flower2.png"" style=""width:200px; border:14px solid green;"">","null","","","","","",""
"425.2999999821186","","image-keyboard-response","383","411217","0.0-383.0","3PJ71Z61R5OTHAQ6UURBW89EALU91X","A1YZ0ETOCJO1B2","3VJ4PFXFJ3TL96TFXMATEMT7KJHUAI","","","img/flower4.png","76","425.7000000178814","3","1","3","1,1,0,0,1,1,1,0,1",""
"null","","html-keyboard-response","384","411522","0.0-384.0","3PJ71Z61R5OTHAQ6UURBW89EALU91X","A1YZ0ETOCJO1B2","3VJ4PFXFJ3TL96TFXMATEMT7KJHUAI","","","<img src=""img/flower4.png"" style=""width:200px; border:14px solid green;"">","null","","","","","",""
"228.40000000596046","","image-keyboard-response","385","411751","0.0-385.0","3PJ71Z61R5OTHAQ6UURBW89EALU91X","A1YZ0ETOCJO1B2","3VJ4PFXFJ3TL96TFXMATEMT7KJHUAI","","","img/flower4.png","76","229.09999999403954","3","1","3","1,1,0,0,1,1,1,0,1",""
"null","","html-keyboard-response","386","412065","0.0-386.0","3PJ71Z61R5OTHAQ6UURBW89EALU91X","A1YZ0ETOCJO1B2","3VJ4PFXFJ3TL96TFXMATEMT7KJHUAI","","","<img src=""img/flower4.png"" style=""width:200px; border:14px solid green;"">","null","","","","","",""
"769.7000000178814","","image-keyboard-response","387","412835","0.0-387.0","3PJ71Z61R5OTHAQ6UURBW89EALU91X","A1YZ0ETOCJO1B2","3VJ4PFXFJ3TL96TFXMATEMT7KJHUAI","","","img/flower2.png","75","770.0999999940395","2","1","1","1,1,0,0,1,1,1,0,1",""
"null","","html-keyboard-response","388","413150","0.0-388.0","3PJ71Z61R5OTHAQ6UURBW89EALU91X","A1YZ0ETOCJO1B2","3VJ4PFXFJ3TL96TFXMATEMT7KJHUAI","","","<img src=""img/flower2.png"" style=""width:200px; border:14px solid green;"">","null","","","","","",""
"358.90000000596046","","image-keyboard-response","389","413509","0.0-389.0","3PJ71Z61R5OTHAQ6UURBW89EALU91X","A1YZ0ETOCJO1B2","3VJ4PFXFJ3TL96TFXMATEMT7KJHUAI","","","img/flower2.png","75","359.2999999821186","2","1","1","1,1,0,0,1,1,1,0,1",""
"null","","html-keyboard-response","390","413816","0.0-390.0","3PJ71Z61R5OTHAQ6UURBW89EALU91X","A1YZ0ETOCJO1B2","3VJ4PFXFJ3TL96TFXMATEMT7KJHUAI","","","<img src=""img/flower2.png"" style=""width:200px; border:14px solid green;"">","null","","","","","",""
"614.5999999940395","","image-keyboard-response","391","414431","0.0-391.0","3PJ71Z61R5OTHAQ6UURBW89EALU91X","A1YZ0ETOCJO1B2","3VJ4PFXFJ3TL96TFXMATEMT7KJHUAI","","","img/flower1.png","76","615","3","1","2","1,1,0,0,1,1,1,0,1",""
"null","","html-keyboard-response","392","414747","0.0-392.0","3PJ71Z61R5OTHAQ6UURBW89EALU91X","A1YZ0ETOCJO1B2","3VJ4PFXFJ3TL96TFXMATEMT7KJHUAI","","","<img src=""img/flower1.png"" style=""width:200px; border:14px solid green;"">","null","","","","","",""
"373.09999999403954","","image-keyboard-response","393","415121","0.0-393.0","3PJ71Z61R5OTHAQ6UURBW89EALU91X","A1YZ0ETOCJO1B2","3VJ4PFXFJ3TL96TFXMATEMT7KJHUAI","","","img/flower1.png","76","373.5","3","1","2","1,1,0,0,1,1,1,0,1",""
"null","","html-keyboard-response","394","415430","0.0-394.0","3PJ71Z61R5OTHAQ6UURBW89EALU91X","A1YZ0ETOCJO1B2","3VJ4PFXFJ3TL96TFXMATEMT7KJHUAI","","","<img src=""img/flower1.png"" style=""width:200px; border:14px solid green;"">","null","","","","","",""
"665","","image-keyboard-response","395","416095","0.0-395.0","3PJ71Z61R5OTHAQ6UURBW89EALU91X","A1YZ0ETOCJO1B2","3VJ4PFXFJ3TL96TFXMATEMT7KJHUAI","","","img/flower4.png","76","665.5999999940395","3","1","3","1,1,0,0,1,1,1,0,1",""
"null","","html-keyboard-response","396","416405","0.0-396.0","3PJ71Z61R5OTHAQ6UURBW89EALU91X","A1YZ0ETOCJO1B2","3VJ4PFXFJ3TL96TFXMATEMT7KJHUAI","","","<img src=""img/flower4.png"" style=""width:200px; border:14px solid green;"">","null","","","","","",""
"332.39999997615814","","image-keyboard-response","397","416737","0.0-397.0","3PJ71Z61R5OTHAQ6UURBW89EALU91X","A1YZ0ETOCJO1B2","3VJ4PFXFJ3TL96TFXMATEMT7KJHUAI","","","img/flower4.png","76","332.90000000596046","3","1","3","1,1,0,0,1,1,1,0,1",""
"null","","html-keyboard-response","398","417047","0.0-398.0","3PJ71Z61R5OTHAQ6UURBW89EALU91X","A1YZ0ETOCJO1B2","3VJ4PFXFJ3TL96TFXMATEMT7KJHUAI","","","<img src=""img/flower4.png"" style=""width:200px; border:14px solid green;"">","null","","","","","",""
"632.5","","image-keyboard-response","399","417680","0.0-399.0","3PJ71Z61R5OTHAQ6UURBW89EALU91X","A1YZ0ETOCJO1B2","3VJ4PFXFJ3TL96TFXMATEMT7KJHUAI","","","img/flower2.png","75","633.1000000238419","2","1","1","1,1,0,0,1,1,1,0,1",""
"null","","html-keyboard-response","400","417993","0.0-400.0","3PJ71Z61R5OTHAQ6UURBW89EALU91X","A1YZ0ETOCJO1B2","3VJ4PFXFJ3TL96TFXMATEMT7KJHUAI","","","<img src=""img/flower2.png"" style=""width:200px; border:14px solid green;"">","null","","","","","",""
"654.8000000119209","","image-keyboard-response","401","418648","0.0-401.0","3PJ71Z61R5OTHAQ6UURBW89EALU91X","A1YZ0ETOCJO1B2","3VJ4PFXFJ3TL96TFXMATEMT7KJHUAI","","","img/flower1.png","76","655.1999999880791","3","1","2","1,1,0,0,1,1,1,0,1",""
"null","","html-keyboard-response","402","418955","0.0-402.0","3PJ71Z61R5OTHAQ6UURBW89EALU91X","A1YZ0ETOCJO1B2","3VJ4PFXFJ3TL96TFXMATEMT7KJHUAI","","","<img src=""img/flower1.png"" style=""width:200px; border:14px solid green;"">","null","","","","","",""
"382.09999999403954","","image-keyboard-response","403","419337","0.0-403.0","3PJ71Z61R5OTHAQ6UURBW89EALU91X","A1YZ0ETOCJO1B2","3VJ4PFXFJ3TL96TFXMATEMT7KJHUAI","","","img/flower4.png","76","382.59999999403954","3","1","3","1,1,0,0,1,1,1,0,1",""
