"success","trial_type","trial_index","time_elapsed","internal_node_id","assignmentID","mturkID","hitID","view_history","rt","stimulus","key_press","reactionTime","a","r","s","cond","reward_cond","reward_cond_actual","reward_matrix_idx","responses"
"true","fullscreen","0","3630","0.0-0.0","3TYCR1GOTD5LD8CNR23TTBKLO00ZLY","A207MWA5U0GWA5","3RBI0I35XEP26UEZY8S8UZLEA1IY3E","","","","","","","","","","","","",""
"","instructions","1","49005","0.0-1.0","3TYCR1GOTD5LD8CNR23TTBKLO00ZLY","A207MWA5U0GWA5","3RBI0I35XEP26UEZY8S8UZLEA1IY3E","[{""page_index"":0,""viewing_time"":13462.69999999553},{""page_index"":1,""viewing_time"":8417.5},{""page_index"":2,""viewing_time"":3625.7000000029802},{""page_index"":3,""viewing_time"":3753.10000000149},{""page_index"":4,""viewing_time"":5373.5999999940395},{""page_index"":5,""viewing_time"":2320},{""page_index"":6,""viewing_time"":3550.9000000059605},{""page_index"":7,""viewing_time"":4867.0999999940395}]","45371.39999999851","","","","","","","","","","",""
"","image-keyboard-response","2","50340","0.0-2.0","3TYCR1GOTD5LD8CNR23TTBKLO00ZLY","A207MWA5U0GWA5","3RBI0I35XEP26UEZY8S8UZLEA1IY3E","","1329.0999999940395","img/flower3.png","76","1333.1000000014901","3","1","3","2","1,0,0,1,1,0,1,0,1","1,0,0,1,1,0,1,0,1","1",""
"","html-keyboard-response","3","50645","0.0-3.0","3TYCR1GOTD5LD8CNR23TTBKLO00ZLY","A207MWA5U0GWA5","3RBI0I35XEP26UEZY8S8UZLEA1IY3E","","null","<img src=""img/flower3.png"" style=""width:200px; border:14px solid green;"">","null","","","","","","","","",""
"","image-keyboard-response","4","51123","0.0-4.0","3TYCR1GOTD5LD8CNR23TTBKLO00ZLY","A207MWA5U0GWA5","3RBI0I35XEP26UEZY8S8UZLEA1IY3E","","475.29999999701977","img/flower1.png","76","477","3","0","1","2","1,0,0,1,1,0,1,0,1","1,0,0,1,1,0,1,0,1","1",""
"","html-keyboard-response","5","51426","0.0-5.0","3TYCR1GOTD5LD8CNR23TTBKLO00ZLY","A207MWA5U0GWA5","3RBI0I35XEP26UEZY8S8UZLEA1IY3E","","null","<img src=""img/flower1.png"" style=""width:200px;border:14px solid red;"">","null","","","","","","","","",""
"","image-keyboard-response","6","51731","0.0-6.0","3TYCR1GOTD5LD8CNR23TTBKLO00ZLY","A207MWA5U0GWA5","3RBI0I35XEP26UEZY8S8UZLEA1IY3E","","302.80000000447035","img/flower1.png","76","304.3999999985099","3","0","1","2","1,0,0,1,1,0,1,0,1","1,0,0,1,1,0,1,0,1","1",""
"","html-keyboard-response","7","52034","0.0-7.0","3TYCR1GOTD5LD8CNR23TTBKLO00ZLY","A207MWA5U0GWA5","3RBI0I35XEP26UEZY8S8UZLEA1IY3E","","null","<img src=""img/flower1.png"" style=""width:200px;border:14px solid red;"">","null","","","","","","","","",""
"","image-keyboard-response","8","52299","0.0-8.0","3TYCR1GOTD5LD8CNR23TTBKLO00ZLY","A207MWA5U0GWA5","3RBI0I35XEP26UEZY8S8UZLEA1IY3E","","262.80000000447035","img/flower1.png","76","264.6000000014901","3","0","1","2","1,0,0,1,1,0,1,0,1","1,0,0,1,1,0,1,0,1","1",""
"","html-keyboard-response","9","52602","0.0-9.0","3TYCR1GOTD5LD8CNR23TTBKLO00ZLY","A207MWA5U0GWA5","3RBI0I35XEP26UEZY8S8UZLEA1IY3E","","null","<img src=""img/flower1.png"" style=""width:200px;border:14px solid red;"">","null","","","","","","","","",""
"","image-keyboard-response","10","52835","0.0-10.0","3TYCR1GOTD5LD8CNR23TTBKLO00ZLY","A207MWA5U0GWA5","3RBI0I35XEP26UEZY8S8UZLEA1IY3E","","230","img/flower3.png","76","232","3","1","3","2","1,0,0,1,1,0,1,0,1","1,0,0,1,1,0,1,0,1","1",""
"","html-keyboard-response","11","53137","0.0-11.0","3TYCR1GOTD5LD8CNR23TTBKLO00ZLY","A207MWA5U0GWA5","3RBI0I35XEP26UEZY8S8UZLEA1IY3E","","null","<img src=""img/flower3.png"" style=""width:200px; border:14px solid green;"">","null","","","","","","","","",""
"","image-keyboard-response","12","53391","0.0-12.0","3TYCR1GOTD5LD8CNR23TTBKLO00ZLY","A207MWA5U0GWA5","3RBI0I35XEP26UEZY8S8UZLEA1IY3E","","251.40000000596046","img/flower3.png","76","253","3","1","3","2","1,0,0,1,1,0,1,0,1","1,0,0,1,1,0,1,0,1","1",""
"","html-keyboard-response","13","53693","0.0-13.0","3TYCR1GOTD5LD8CNR23TTBKLO00ZLY","A207MWA5U0GWA5","3RBI0I35XEP26UEZY8S8UZLEA1IY3E","","null","<img src=""img/flower3.png"" style=""width:200px; border:14px solid green;"">","null","","","","","","","","",""
"","image-keyboard-response","14","53870","0.0-14.0","3TYCR1GOTD5LD8CNR23TTBKLO00ZLY","A207MWA5U0GWA5","3RBI0I35XEP26UEZY8S8UZLEA1IY3E","","175.30000000447035","img/flower3.png","76","176.80000000447035","3","1","3","2","1,0,0,1,1,0,1,0,1","1,0,0,1,1,0,1,0,1","1",""
"","html-keyboard-response","15","54174","0.0-15.0","3TYCR1GOTD5LD8CNR23TTBKLO00ZLY","A207MWA5U0GWA5","3RBI0I35XEP26UEZY8S8UZLEA1IY3E","","null","<img src=""img/flower3.png"" style=""width:200px; border:14px solid green;"">","null","","","","","","","","",""
"","image-keyboard-response","16","54431","0.0-16.0","3TYCR1GOTD5LD8CNR23TTBKLO00ZLY","A207MWA5U0GWA5","3RBI0I35XEP26UEZY8S8UZLEA1IY3E","","254.5","img/flower3.png","76","256.1000000014901","3","1","3","2","1,0,0,1,1,0,1,0,1","1,0,0,1,1,0,1,0,1","1",""
"","html-keyboard-response","17","54733","0.0-17.0","3TYCR1GOTD5LD8CNR23TTBKLO00ZLY","A207MWA5U0GWA5","3RBI0I35XEP26UEZY8S8UZLEA1IY3E","","null","<img src=""img/flower3.png"" style=""width:200px; border:14px solid green;"">","null","","","","","","","","",""
"","image-keyboard-response","18","54879","0.0-18.0","3TYCR1GOTD5LD8CNR23TTBKLO00ZLY","A207MWA5U0GWA5","3RBI0I35XEP26UEZY8S8UZLEA1IY3E","","144.19999999552965","img/flower4.png","76","145.79999999701977","3","0","2","2","1,0,0,1,1,0,1,0,1","1,0,0,1,1,0,1,0,1","1",""
"","html-keyboard-response","19","55182","0.0-19.0","3TYCR1GOTD5LD8CNR23TTBKLO00ZLY","A207MWA5U0GWA5","3RBI0I35XEP26UEZY8S8UZLEA1IY3E","","null","<img src=""img/flower4.png"" style=""width:200px;border:14px solid red;"">","null","","","","","","","","",""
"","image-keyboard-response","20","55622","0.0-20.0","3TYCR1GOTD5LD8CNR23TTBKLO00ZLY","A207MWA5U0GWA5","3RBI0I35XEP26UEZY8S8UZLEA1IY3E","","438","img/flower1.png","76","439.5","3","0","1","2","1,0,0,1,1,0,1,0,1","1,0,0,1,1,0,1,0,1","1",""
"","html-keyboard-response","21","55926","0.0-21.0","3TYCR1GOTD5LD8CNR23TTBKLO00ZLY","A207MWA5U0GWA5","3RBI0I35XEP26UEZY8S8UZLEA1IY3E","","null","<img src=""img/flower1.png"" style=""width:200px;border:14px solid red;"">","null","","","","","","","","",""
"","image-keyboard-response","22","56247","0.0-22.0","3TYCR1GOTD5LD8CNR23TTBKLO00ZLY","A207MWA5U0GWA5","3RBI0I35XEP26UEZY8S8UZLEA1IY3E","","319.1000000014901","img/flower3.png","76","320.70000000298023","3","1","3","2","1,0,0,1,1,0,1,0,1","1,0,0,1,1,0,1,0,1","1",""
"","html-keyboard-response","23","56550","0.0-23.0","3TYCR1GOTD5LD8CNR23TTBKLO00ZLY","A207MWA5U0GWA5","3RBI0I35XEP26UEZY8S8UZLEA1IY3E","","null","<img src=""img/flower3.png"" style=""width:200px; border:14px solid green;"">","null","","","","","","","","",""
"","image-keyboard-response","24","56767","0.0-24.0","3TYCR1GOTD5LD8CNR23TTBKLO00ZLY","A207MWA5U0GWA5","3RBI0I35XEP26UEZY8S8UZLEA1IY3E","","215.19999999552965","img/flower1.png","76","216.69999999552965","3","0","1","2","1,0,0,1,1,0,1,0,1","1,0,0,1,1,0,1,0,1","1",""
"","html-keyboard-response","25","57070","0.0-25.0","3TYCR1GOTD5LD8CNR23TTBKLO00ZLY","A207MWA5U0GWA5","3RBI0I35XEP26UEZY8S8UZLEA1IY3E","","null","<img src=""img/flower1.png"" style=""width:200px;border:14px solid red;"">","null","","","","","","","","",""
"","image-keyboard-response","26","57314","0.0-26.0","3TYCR1GOTD5LD8CNR23TTBKLO00ZLY","A207MWA5U0GWA5","3RBI0I35XEP26UEZY8S8UZLEA1IY3E","","242.89999999850988","img/flower3.png","76","244.5","3","1","3","2","1,0,0,1,1,0,1,0,1","1,0,0,1,1,0,1,0,1","1",""
"","html-keyboard-response","27","57618","0.0-27.0","3TYCR1GOTD5LD8CNR23TTBKLO00ZLY","A207MWA5U0GWA5","3RBI0I35XEP26UEZY8S8UZLEA1IY3E","","null","<img src=""img/flower3.png"" style=""width:200px; border:14px solid green;"">","null","","","","","","","","",""
"","image-keyboard-response","28","57855","0.0-28.0","3TYCR1GOTD5LD8CNR23TTBKLO00ZLY","A207MWA5U0GWA5","3RBI0I35XEP26UEZY8S8UZLEA1IY3E","","234.80000000447035","img/flower3.png","76","236.39999999850988","3","1","3","2","1,0,0,1,1,0,1,0,1","1,0,0,1,1,0,1,0,1","1",""
"","html-keyboard-response","29","58158","0.0-29.0","3TYCR1GOTD5LD8CNR23TTBKLO00ZLY","A207MWA5U0GWA5","3RBI0I35XEP26UEZY8S8UZLEA1IY3E","","null","<img src=""img/flower3.png"" style=""width:200px; border:14px solid green;"">","null","","","","","","","","",""
"","image-keyboard-response","30","58383","0.0-30.0","3TYCR1GOTD5LD8CNR23TTBKLO00ZLY","A207MWA5U0GWA5","3RBI0I35XEP26UEZY8S8UZLEA1IY3E","","222.89999999850988","img/flower3.png","76","224.60000000149012","3","1","3","2","1,0,0,1,1,0,1,0,1","1,0,0,1,1,0,1,0,1","1",""
"","html-keyboard-response","31","58685","0.0-31.0","3TYCR1GOTD5LD8CNR23TTBKLO00ZLY","A207MWA5U0GWA5","3RBI0I35XEP26UEZY8S8UZLEA1IY3E","","null","<img src=""img/flower3.png"" style=""width:200px; border:14px solid green;"">","null","","","","","","","","",""
"","image-keyboard-response","32","58974","0.0-32.0","3TYCR1GOTD5LD8CNR23TTBKLO00ZLY","A207MWA5U0GWA5","3RBI0I35XEP26UEZY8S8UZLEA1IY3E","","288.20000000298023","img/flower3.png","76","289.6000000014901","3","1","3","2","1,0,0,1,1,0,1,0,1","1,0,0,1,1,0,1,0,1","1",""
"","html-keyboard-response","33","59277","0.0-33.0","3TYCR1GOTD5LD8CNR23TTBKLO00ZLY","A207MWA5U0GWA5","3RBI0I35XEP26UEZY8S8UZLEA1IY3E","","null","<img src=""img/flower3.png"" style=""width:200px; border:14px solid green;"">","null","","","","","","","","",""
"","image-keyboard-response","34","59591","0.0-34.0","3TYCR1GOTD5LD8CNR23TTBKLO00ZLY","A207MWA5U0GWA5","3RBI0I35XEP26UEZY8S8UZLEA1IY3E","","311.40000000596046","img/flower3.png","76","313.20000000298023","3","1","3","2","1,0,0,1,1,0,1,0,1","1,0,0,1,1,0,1,0,1","1",""
"","html-keyboard-response","35","59893","0.0-35.0","3TYCR1GOTD5LD8CNR23TTBKLO00ZLY","A207MWA5U0GWA5","3RBI0I35XEP26UEZY8S8UZLEA1IY3E","","null","<img src=""img/flower3.png"" style=""width:200px; border:14px solid green;"">","null","","","","","","","","",""
"","image-keyboard-response","36","60219","0.0-36.0","3TYCR1GOTD5LD8CNR23TTBKLO00ZLY","A207MWA5U0GWA5","3RBI0I35XEP26UEZY8S8UZLEA1IY3E","","323.8999999985099","img/flower1.png","76","325.79999999701977","3","0","1","2","1,0,0,1,1,0,1,0,1","1,0,0,1,1,0,1,0,1","1",""
"","html-keyboard-response","37","60522","0.0-37.0","3TYCR1GOTD5LD8CNR23TTBKLO00ZLY","A207MWA5U0GWA5","3RBI0I35XEP26UEZY8S8UZLEA1IY3E","","null","<img src=""img/flower1.png"" style=""width:200px;border:14px solid red;"">","null","","","","","","","","",""
"","image-keyboard-response","38","60707","0.0-38.0","3TYCR1GOTD5LD8CNR23TTBKLO00ZLY","A207MWA5U0GWA5","3RBI0I35XEP26UEZY8S8UZLEA1IY3E","","182.60000000149012","img/flower4.png","76","184.39999999850988","3","0","2","2","1,0,0,1,1,0,1,0,1","1,0,0,1,1,0,1,0,1","1",""
"","html-keyboard-response","39","61010","0.0-39.0","3TYCR1GOTD5LD8CNR23TTBKLO00ZLY","A207MWA5U0GWA5","3RBI0I35XEP26UEZY8S8UZLEA1IY3E","","null","<img src=""img/flower4.png"" style=""width:200px;border:14px solid red;"">","null","","","","","","","","",""
"","image-keyboard-response","40","61127","0.0-40.0","3TYCR1GOTD5LD8CNR23TTBKLO00ZLY","A207MWA5U0GWA5","3RBI0I35XEP26UEZY8S8UZLEA1IY3E","","114.89999999850988","img/flower1.png","76","116.30000000447035","3","0","1","2","1,0,0,1,1,0,1,0,1","1,0,0,1,1,0,1,0,1","1",""
"","html-keyboard-response","41","61429","0.0-41.0","3TYCR1GOTD5LD8CNR23TTBKLO00ZLY","A207MWA5U0GWA5","3RBI0I35XEP26UEZY8S8UZLEA1IY3E","","null","<img src=""img/flower1.png"" style=""width:200px;border:14px solid red;"">","null","","","","","","","","",""
"","image-keyboard-response","42","61663","0.0-42.0","3TYCR1GOTD5LD8CNR23TTBKLO00ZLY","A207MWA5U0GWA5","3RBI0I35XEP26UEZY8S8UZLEA1IY3E","","231.5","img/flower3.png","76","233.20000000298023","3","1","3","2","1,0,0,1,1,0,1,0,1","1,0,0,1,1,0,1,0,1","1",""
"","html-keyboard-response","43","61965","0.0-43.0","3TYCR1GOTD5LD8CNR23TTBKLO00ZLY","A207MWA5U0GWA5","3RBI0I35XEP26UEZY8S8UZLEA1IY3E","","null","<img src=""img/flower3.png"" style=""width:200px; border:14px solid green;"">","null","","","","","","","","",""
"","image-keyboard-response","44","62126","0.0-44.0","3TYCR1GOTD5LD8CNR23TTBKLO00ZLY","A207MWA5U0GWA5","3RBI0I35XEP26UEZY8S8UZLEA1IY3E","","159.80000000447035","img/flower3.png","76","161.10000000149012","3","1","3","2","1,0,0,1,1,0,1,0,1","1,0,0,1,1,0,1,0,1","1",""
"","html-keyboard-response","45","62429","0.0-45.0","3TYCR1GOTD5LD8CNR23TTBKLO00ZLY","A207MWA5U0GWA5","3RBI0I35XEP26UEZY8S8UZLEA1IY3E","","null","<img src=""img/flower3.png"" style=""width:200px; border:14px solid green;"">","null","","","","","","","","",""
"","image-keyboard-response","46","62647","0.0-46.0","3TYCR1GOTD5LD8CNR23TTBKLO00ZLY","A207MWA5U0GWA5","3RBI0I35XEP26UEZY8S8UZLEA1IY3E","","215.70000000298023","img/flower4.png","76","217.20000000298023","3","0","2","2","1,0,0,1,1,0,1,0,1","1,0,0,1,1,0,1,0,1","1",""
"","html-keyboard-response","47","62950","0.0-47.0","3TYCR1GOTD5LD8CNR23TTBKLO00ZLY","A207MWA5U0GWA5","3RBI0I35XEP26UEZY8S8UZLEA1IY3E","","null","<img src=""img/flower4.png"" style=""width:200px;border:14px solid red;"">","null","","","","","","","","",""
"","image-keyboard-response","48","63126","0.0-48.0","3TYCR1GOTD5LD8CNR23TTBKLO00ZLY","A207MWA5U0GWA5","3RBI0I35XEP26UEZY8S8UZLEA1IY3E","","174.69999999552965","img/flower3.png","76","176.60000000149012","3","1","3","2","1,0,0,1,1,0,1,0,1","1,0,0,1,1,0,1,0,1","1",""
"","html-keyboard-response","49","63429","0.0-49.0","3TYCR1GOTD5LD8CNR23TTBKLO00ZLY","A207MWA5U0GWA5","3RBI0I35XEP26UEZY8S8UZLEA1IY3E","","null","<img src=""img/flower3.png"" style=""width:200px; border:14px solid green;"">","null","","","","","","","","",""
"","image-keyboard-response","50","63775","0.0-50.0","3TYCR1GOTD5LD8CNR23TTBKLO00ZLY","A207MWA5U0GWA5","3RBI0I35XEP26UEZY8S8UZLEA1IY3E","","344.29999999701977","img/flower3.png","76","346.09999999403954","3","1","3","2","1,0,0,1,1,0,1,0,1","1,0,0,1,1,0,1,0,1","1",""
"","html-keyboard-response","51","64078","0.0-51.0","3TYCR1GOTD5LD8CNR23TTBKLO00ZLY","A207MWA5U0GWA5","3RBI0I35XEP26UEZY8S8UZLEA1IY3E","","null","<img src=""img/flower3.png"" style=""width:200px; border:14px solid green;"">","null","","","","","","","","",""
"","image-keyboard-response","52","64679","0.0-52.0","3TYCR1GOTD5LD8CNR23TTBKLO00ZLY","A207MWA5U0GWA5","3RBI0I35XEP26UEZY8S8UZLEA1IY3E","","598.3999999985099","img/flower3.png","76","600.8999999985099","3","1","3","2","1,0,0,1,1,0,1,0,1","1,0,0,1,1,0,1,0,1","1",""
"","html-keyboard-response","53","64984","0.0-53.0","3TYCR1GOTD5LD8CNR23TTBKLO00ZLY","A207MWA5U0GWA5","3RBI0I35XEP26UEZY8S8UZLEA1IY3E","","null","<img src=""img/flower3.png"" style=""width:200px; border:14px solid green;"">","null","","","","","","","","",""
"","image-keyboard-response","54","65128","0.0-54.0","3TYCR1GOTD5LD8CNR23TTBKLO00ZLY","A207MWA5U0GWA5","3RBI0I35XEP26UEZY8S8UZLEA1IY3E","","141.20000000298023","img/flower1.png","76","143.5","3","0","1","2","1,0,0,1,1,0,1,0,1","1,0,0,1,1,0,1,0,1","1",""
"","html-keyboard-response","55","65432","0.0-55.0","3TYCR1GOTD5LD8CNR23TTBKLO00ZLY","A207MWA5U0GWA5","3RBI0I35XEP26UEZY8S8UZLEA1IY3E","","null","<img src=""img/flower1.png"" style=""width:200px;border:14px solid red;"">","null","","","","","","","","",""
"","image-keyboard-response","56","65543","0.0-56.0","3TYCR1GOTD5LD8CNR23TTBKLO00ZLY","A207MWA5U0GWA5","3RBI0I35XEP26UEZY8S8UZLEA1IY3E","","109.30000000447035","img/flower4.png","76","110.80000000447035","3","0","2","2","1,0,0,1,1,0,1,0,1","1,0,0,1,1,0,1,0,1","1",""
"","html-keyboard-response","57","65845","0.0-57.0","3TYCR1GOTD5LD8CNR23TTBKLO00ZLY","A207MWA5U0GWA5","3RBI0I35XEP26UEZY8S8UZLEA1IY3E","","null","<img src=""img/flower4.png"" style=""width:200px;border:14px solid red;"">","null","","","","","","","","",""
"","image-keyboard-response","58","66079","0.0-58.0","3TYCR1GOTD5LD8CNR23TTBKLO00ZLY","A207MWA5U0GWA5","3RBI0I35XEP26UEZY8S8UZLEA1IY3E","","231.79999999701977","img/flower4.png","76","233.39999999850988","3","0","2","2","1,0,0,1,1,0,1,0,1","1,0,0,1,1,0,1,0,1","1",""
"","html-keyboard-response","59","66382","0.0-59.0","3TYCR1GOTD5LD8CNR23TTBKLO00ZLY","A207MWA5U0GWA5","3RBI0I35XEP26UEZY8S8UZLEA1IY3E","","null","<img src=""img/flower4.png"" style=""width:200px;border:14px solid red;"">","null","","","","","","","","",""
"","image-keyboard-response","60","66519","0.0-60.0","3TYCR1GOTD5LD8CNR23TTBKLO00ZLY","A207MWA5U0GWA5","3RBI0I35XEP26UEZY8S8UZLEA1IY3E","","134.60000000149012","img/flower3.png","76","136.69999999552965","3","1","3","2","1,0,0,1,1,0,1,0,1","1,0,0,1,1,0,1,0,1","1",""
"","html-keyboard-response","61","66821","0.0-61.0","3TYCR1GOTD5LD8CNR23TTBKLO00ZLY","A207MWA5U0GWA5","3RBI0I35XEP26UEZY8S8UZLEA1IY3E","","null","<img src=""img/flower3.png"" style=""width:200px; border:14px solid green;"">","null","","","","","","","","",""
"","image-keyboard-response","62","66967","0.0-62.0","3TYCR1GOTD5LD8CNR23TTBKLO00ZLY","A207MWA5U0GWA5","3RBI0I35XEP26UEZY8S8UZLEA1IY3E","","143.5","img/flower1.png","76","145","3","0","1","2","1,0,0,1,1,0,1,0,1","1,0,0,1,1,0,1,0,1","1",""
"","html-keyboard-response","63","67271","0.0-63.0","3TYCR1GOTD5LD8CNR23TTBKLO00ZLY","A207MWA5U0GWA5","3RBI0I35XEP26UEZY8S8UZLEA1IY3E","","null","<img src=""img/flower1.png"" style=""width:200px;border:14px solid red;"">","null","","","","","","","","",""
"","image-keyboard-response","64","67487","0.0-64.0","3TYCR1GOTD5LD8CNR23TTBKLO00ZLY","A207MWA5U0GWA5","3RBI0I35XEP26UEZY8S8UZLEA1IY3E","","213","img/flower3.png","76","215.89999999850988","3","1","3","2","1,0,0,1,1,0,1,0,1","1,0,0,1,1,0,1,0,1","1",""
"","html-keyboard-response","65","67790","0.0-65.0","3TYCR1GOTD5LD8CNR23TTBKLO00ZLY","A207MWA5U0GWA5","3RBI0I35XEP26UEZY8S8UZLEA1IY3E","","null","<img src=""img/flower3.png"" style=""width:200px; border:14px solid green;"">","null","","","","","","","","",""
"","image-keyboard-response","66","67886","0.0-66.0","3TYCR1GOTD5LD8CNR23TTBKLO00ZLY","A207MWA5U0GWA5","3RBI0I35XEP26UEZY8S8UZLEA1IY3E","","94.10000000149012","img/flower4.png","76","95.5","3","0","2","2","1,0,0,1,1,0,1,0,1","1,0,0,1,1,0,1,0,1","1",""
"","html-keyboard-response","67","68189","0.0-67.0","3TYCR1GOTD5LD8CNR23TTBKLO00ZLY","A207MWA5U0GWA5","3RBI0I35XEP26UEZY8S8UZLEA1IY3E","","null","<img src=""img/flower4.png"" style=""width:200px;border:14px solid red;"">","null","","","","","","","","",""
"","image-keyboard-response","68","68295","0.0-68.0","3TYCR1GOTD5LD8CNR23TTBKLO00ZLY","A207MWA5U0GWA5","3RBI0I35XEP26UEZY8S8UZLEA1IY3E","","103.5","img/flower3.png","76","105.10000000149012","3","1","3","2","1,0,0,1,1,0,1,0,1","1,0,0,1,1,0,1,0,1","1",""
"","html-keyboard-response","69","68598","0.0-69.0","3TYCR1GOTD5LD8CNR23TTBKLO00ZLY","A207MWA5U0GWA5","3RBI0I35XEP26UEZY8S8UZLEA1IY3E","","null","<img src=""img/flower3.png"" style=""width:200px; border:14px solid green;"">","null","","","","","","","","",""
"","image-keyboard-response","70","68711","0.0-70.0","3TYCR1GOTD5LD8CNR23TTBKLO00ZLY","A207MWA5U0GWA5","3RBI0I35XEP26UEZY8S8UZLEA1IY3E","","110.90000000596046","img/flower1.png","76","112.40000000596046","3","0","1","2","1,0,0,1,1,0,1,0,1","1,0,0,1,1,0,1,0,1","1",""
"","html-keyboard-response","71","69013","0.0-71.0","3TYCR1GOTD5LD8CNR23TTBKLO00ZLY","A207MWA5U0GWA5","3RBI0I35XEP26UEZY8S8UZLEA1IY3E","","null","<img src=""img/flower1.png"" style=""width:200px;border:14px solid red;"">","null","","","","","","","","",""
"","image-keyboard-response","72","69127","0.0-72.0","3TYCR1GOTD5LD8CNR23TTBKLO00ZLY","A207MWA5U0GWA5","3RBI0I35XEP26UEZY8S8UZLEA1IY3E","","112","img/flower1.png","76","113.5","3","0","1","2","1,0,0,1,1,0,1,0,1","1,0,0,1,1,0,1,0,1","1",""
"","html-keyboard-response","73","69430","0.0-73.0","3TYCR1GOTD5LD8CNR23TTBKLO00ZLY","A207MWA5U0GWA5","3RBI0I35XEP26UEZY8S8UZLEA1IY3E","","null","<img src=""img/flower1.png"" style=""width:200px;border:14px solid red;"">","null","","","","","","","","",""
"","image-keyboard-response","74","69559","0.0-74.0","3TYCR1GOTD5LD8CNR23TTBKLO00ZLY","A207MWA5U0GWA5","3RBI0I35XEP26UEZY8S8UZLEA1IY3E","","127","img/flower4.png","76","128.89999999850988","3","0","2","2","1,0,0,1,1,0,1,0,1","1,0,0,1,1,0,1,0,1","1",""
"","html-keyboard-response","75","69862","0.0-75.0","3TYCR1GOTD5LD8CNR23TTBKLO00ZLY","A207MWA5U0GWA5","3RBI0I35XEP26UEZY8S8UZLEA1IY3E","","null","<img src=""img/flower4.png"" style=""width:200px;border:14px solid red;"">","null","","","","","","","","",""
"","image-keyboard-response","76","69999","0.0-76.0","3TYCR1GOTD5LD8CNR23TTBKLO00ZLY","A207MWA5U0GWA5","3RBI0I35XEP26UEZY8S8UZLEA1IY3E","","135.39999999850988","img/flower3.png","76","137","3","1","3","2","1,0,0,1,1,0,1,0,1","1,0,0,1,1,0,1,0,1","1",""
"","html-keyboard-response","77","70303","0.0-77.0","3TYCR1GOTD5LD8CNR23TTBKLO00ZLY","A207MWA5U0GWA5","3RBI0I35XEP26UEZY8S8UZLEA1IY3E","","null","<img src=""img/flower3.png"" style=""width:200px; border:14px solid green;"">","null","","","","","","","","",""
"","image-keyboard-response","78","70422","0.0-78.0","3TYCR1GOTD5LD8CNR23TTBKLO00ZLY","A207MWA5U0GWA5","3RBI0I35XEP26UEZY8S8UZLEA1IY3E","","118.10000000149012","img/flower1.png","76","119.60000000149012","3","0","1","2","1,0,0,1,1,0,1,0,1","1,0,0,1,1,0,1,0,1","1",""
"","html-keyboard-response","79","70725","0.0-79.0","3TYCR1GOTD5LD8CNR23TTBKLO00ZLY","A207MWA5U0GWA5","3RBI0I35XEP26UEZY8S8UZLEA1IY3E","","null","<img src=""img/flower1.png"" style=""width:200px;border:14px solid red;"">","null","","","","","","","","",""
"","image-keyboard-response","80","70799","0.0-80.0","3TYCR1GOTD5LD8CNR23TTBKLO00ZLY","A207MWA5U0GWA5","3RBI0I35XEP26UEZY8S8UZLEA1IY3E","","71.89999999850988","img/flower4.png","76","73.70000000298023","3","0","2","2","1,0,0,1,1,0,1,0,1","1,0,0,1,1,0,1,0,1","1",""
"","html-keyboard-response","81","71103","0.0-81.0","3TYCR1GOTD5LD8CNR23TTBKLO00ZLY","A207MWA5U0GWA5","3RBI0I35XEP26UEZY8S8UZLEA1IY3E","","null","<img src=""img/flower4.png"" style=""width:200px;border:14px solid red;"">","null","","","","","","","","",""
"","image-keyboard-response","82","71206","0.0-82.0","3TYCR1GOTD5LD8CNR23TTBKLO00ZLY","A207MWA5U0GWA5","3RBI0I35XEP26UEZY8S8UZLEA1IY3E","","102.10000000149012","img/flower1.png","76","103.60000000149012","3","0","1","2","1,0,0,1,1,0,1,0,1","1,0,0,1,1,0,1,0,1","1",""
"","html-keyboard-response","83","71509","0.0-83.0","3TYCR1GOTD5LD8CNR23TTBKLO00ZLY","A207MWA5U0GWA5","3RBI0I35XEP26UEZY8S8UZLEA1IY3E","","null","<img src=""img/flower1.png"" style=""width:200px;border:14px solid red;"">","null","","","","","","","","",""
"","image-keyboard-response","84","71614","0.0-84.0","3TYCR1GOTD5LD8CNR23TTBKLO00ZLY","A207MWA5U0GWA5","3RBI0I35XEP26UEZY8S8UZLEA1IY3E","","103.70000000298023","img/flower1.png","76","105.30000000447035","3","0","1","2","1,0,0,1,1,0,1,0,1","1,0,0,1,1,0,1,0,1","1",""
"","html-keyboard-response","85","71916","0.0-85.0","3TYCR1GOTD5LD8CNR23TTBKLO00ZLY","A207MWA5U0GWA5","3RBI0I35XEP26UEZY8S8UZLEA1IY3E","","null","<img src=""img/flower1.png"" style=""width:200px;border:14px solid red;"">","null","","","","","","","","",""
"","image-keyboard-response","86","72151","0.0-86.0","3TYCR1GOTD5LD8CNR23TTBKLO00ZLY","A207MWA5U0GWA5","3RBI0I35XEP26UEZY8S8UZLEA1IY3E","","232.69999999552965","img/flower4.png","76","234.29999999701977","3","0","2","2","1,0,0,1,1,0,1,0,1","1,0,0,1,1,0,1,0,1","1",""
"","html-keyboard-response","87","72453","0.0-87.0","3TYCR1GOTD5LD8CNR23TTBKLO00ZLY","A207MWA5U0GWA5","3RBI0I35XEP26UEZY8S8UZLEA1IY3E","","null","<img src=""img/flower4.png"" style=""width:200px;border:14px solid red;"">","null","","","","","","","","",""
"","image-keyboard-response","88","72639","0.0-88.0","3TYCR1GOTD5LD8CNR23TTBKLO00ZLY","A207MWA5U0GWA5","3RBI0I35XEP26UEZY8S8UZLEA1IY3E","","183.5","img/flower4.png","76","185.5","3","0","2","2","1,0,0,1,1,0,1,0,1","1,0,0,1,1,0,1,0,1","1",""
"","html-keyboard-response","89","72943","0.0-89.0","3TYCR1GOTD5LD8CNR23TTBKLO00ZLY","A207MWA5U0GWA5","3RBI0I35XEP26UEZY8S8UZLEA1IY3E","","null","<img src=""img/flower4.png"" style=""width:200px;border:14px solid red;"">","null","","","","","","","","",""
"","image-keyboard-response","90","73159","0.0-90.0","3TYCR1GOTD5LD8CNR23TTBKLO00ZLY","A207MWA5U0GWA5","3RBI0I35XEP26UEZY8S8UZLEA1IY3E","","213.89999999850988","img/flower3.png","75","215.5","2","0","3","2","1,0,0,1,1,0,1,0,1","1,0,0,1,1,0,1,0,1","1",""
"","html-keyboard-response","91","73462","0.0-91.0","3TYCR1GOTD5LD8CNR23TTBKLO00ZLY","A207MWA5U0GWA5","3RBI0I35XEP26UEZY8S8UZLEA1IY3E","","null","<img src=""img/flower3.png"" style=""width:200px;border:14px solid red;"">","null","","","","","","","","",""
"","image-keyboard-response","92","73671","0.0-92.0","3TYCR1GOTD5LD8CNR23TTBKLO00ZLY","A207MWA5U0GWA5","3RBI0I35XEP26UEZY8S8UZLEA1IY3E","","206.39999999850988","img/flower3.png","75","208.10000000149012","2","0","3","2","1,0,0,1,1,0,1,0,1","1,0,0,1,1,0,1,0,1","1",""
"","html-keyboard-response","93","73973","0.0-93.0","3TYCR1GOTD5LD8CNR23TTBKLO00ZLY","A207MWA5U0GWA5","3RBI0I35XEP26UEZY8S8UZLEA1IY3E","","null","<img src=""img/flower3.png"" style=""width:200px;border:14px solid red;"">","null","","","","","","","","",""
"","image-keyboard-response","94","74079","0.0-94.0","3TYCR1GOTD5LD8CNR23TTBKLO00ZLY","A207MWA5U0GWA5","3RBI0I35XEP26UEZY8S8UZLEA1IY3E","","103.79999999701977","img/flower1.png","75","105.70000000298023","2","0","1","2","1,0,0,1,1,0,1,0,1","1,0,0,1,1,0,1,0,1","1",""
"","html-keyboard-response","95","74382","0.0-95.0","3TYCR1GOTD5LD8CNR23TTBKLO00ZLY","A207MWA5U0GWA5","3RBI0I35XEP26UEZY8S8UZLEA1IY3E","","null","<img src=""img/flower1.png"" style=""width:200px;border:14px solid red;"">","null","","","","","","","","",""
"","image-keyboard-response","96","74399","0.0-96.0","3TYCR1GOTD5LD8CNR23TTBKLO00ZLY","A207MWA5U0GWA5","3RBI0I35XEP26UEZY8S8UZLEA1IY3E","","14.899999998509884","img/flower3.png","75","16.599999994039536","2","0","3","2","1,0,0,1,1,0,1,0,1","1,0,0,1,1,0,1,0,1","1",""
"","html-keyboard-response","97","74702","0.0-97.0","3TYCR1GOTD5LD8CNR23TTBKLO00ZLY","A207MWA5U0GWA5","3RBI0I35XEP26UEZY8S8UZLEA1IY3E","","null","<img src=""img/flower3.png"" style=""width:200px;border:14px solid red;"">","null","","","","","","","","",""
"","image-keyboard-response","98","74754","0.0-98.0","3TYCR1GOTD5LD8CNR23TTBKLO00ZLY","A207MWA5U0GWA5","3RBI0I35XEP26UEZY8S8UZLEA1IY3E","","50.899999998509884","img/flower4.png","75","52.5","2","1","2","2","1,0,0,1,1,0,1,0,1","1,0,0,1,1,0,1,0,1","1",""
"","html-keyboard-response","99","75057","0.0-99.0","3TYCR1GOTD5LD8CNR23TTBKLO00ZLY","A207MWA5U0GWA5","3RBI0I35XEP26UEZY8S8UZLEA1IY3E","","null","<img src=""img/flower4.png"" style=""width:200px; border:14px solid green;"">","null","","","","","","","","",""
"","image-keyboard-response","100","75379","0.0-100.0","3TYCR1GOTD5LD8CNR23TTBKLO00ZLY","A207MWA5U0GWA5","3RBI0I35XEP26UEZY8S8UZLEA1IY3E","","319.30000000447035","img/flower4.png","75","321.3999999985099","2","1","2","2","1,0,0,1,1,0,1,0,1","1,0,0,1,1,0,1,0,1","1",""
"","html-keyboard-response","101","75682","0.0-101.0","3TYCR1GOTD5LD8CNR23TTBKLO00ZLY","A207MWA5U0GWA5","3RBI0I35XEP26UEZY8S8UZLEA1IY3E","","null","<img src=""img/flower4.png"" style=""width:200px; border:14px solid green;"">","null","","","","","","","","",""
"","image-keyboard-response","102","75751","0.0-102.0","3TYCR1GOTD5LD8CNR23TTBKLO00ZLY","A207MWA5U0GWA5","3RBI0I35XEP26UEZY8S8UZLEA1IY3E","","66.79999999701977","img/flower4.png","75","68.39999999850988","2","1","2","2","1,0,0,1,1,0,1,0,1","1,0,0,1,1,0,1,0,1","1",""
"","html-keyboard-response","103","76054","0.0-103.0","3TYCR1GOTD5LD8CNR23TTBKLO00ZLY","A207MWA5U0GWA5","3RBI0I35XEP26UEZY8S8UZLEA1IY3E","","null","<img src=""img/flower4.png"" style=""width:200px; border:14px solid green;"">","null","","","","","","","","",""
"","image-keyboard-response","104","76147","0.0-104.0","3TYCR1GOTD5LD8CNR23TTBKLO00ZLY","A207MWA5U0GWA5","3RBI0I35XEP26UEZY8S8UZLEA1IY3E","","91.10000000149012","img/flower4.png","75","92.69999999552965","2","1","2","2","1,0,0,1,1,0,1,0,1","1,0,0,1,1,0,1,0,1","1",""
"","html-keyboard-response","105","76449","0.0-105.0","3TYCR1GOTD5LD8CNR23TTBKLO00ZLY","A207MWA5U0GWA5","3RBI0I35XEP26UEZY8S8UZLEA1IY3E","","null","<img src=""img/flower4.png"" style=""width:200px; border:14px solid green;"">","null","","","","","","","","",""
"","image-keyboard-response","106","76474","0.0-106.0","3TYCR1GOTD5LD8CNR23TTBKLO00ZLY","A207MWA5U0GWA5","3RBI0I35XEP26UEZY8S8UZLEA1IY3E","","23.299999997019768","img/flower1.png","75","24.700000002980232","2","0","1","2","1,0,0,1,1,0,1,0,1","1,0,0,1,1,0,1,0,1","1",""
"","html-keyboard-response","107","76778","0.0-107.0","3TYCR1GOTD5LD8CNR23TTBKLO00ZLY","A207MWA5U0GWA5","3RBI0I35XEP26UEZY8S8UZLEA1IY3E","","null","<img src=""img/flower1.png"" style=""width:200px;border:14px solid red;"">","null","","","","","","","","",""
"","image-keyboard-response","108","76851","0.0-108.0","3TYCR1GOTD5LD8CNR23TTBKLO00ZLY","A207MWA5U0GWA5","3RBI0I35XEP26UEZY8S8UZLEA1IY3E","","70.5","img/flower4.png","75","72.39999999850988","2","1","2","2","1,0,0,1,1,0,1,0,1","1,0,0,1,1,0,1,0,1","1",""
"","html-keyboard-response","109","77153","0.0-109.0","3TYCR1GOTD5LD8CNR23TTBKLO00ZLY","A207MWA5U0GWA5","3RBI0I35XEP26UEZY8S8UZLEA1IY3E","","null","<img src=""img/flower4.png"" style=""width:200px; border:14px solid green;"">","null","","","","","","","","",""
"","image-keyboard-response","110","77239","0.0-110.0","3TYCR1GOTD5LD8CNR23TTBKLO00ZLY","A207MWA5U0GWA5","3RBI0I35XEP26UEZY8S8UZLEA1IY3E","","83.40000000596046","img/flower1.png","75","85","2","0","1","2","1,0,0,1,1,0,1,0,1","1,0,0,1,1,0,1,0,1","1",""
"","html-keyboard-response","111","77541","0.0-111.0","3TYCR1GOTD5LD8CNR23TTBKLO00ZLY","A207MWA5U0GWA5","3RBI0I35XEP26UEZY8S8UZLEA1IY3E","","null","<img src=""img/flower1.png"" style=""width:200px;border:14px solid red;"">","null","","","","","","","","",""
"","image-keyboard-response","112","77823","0.0-112.0","3TYCR1GOTD5LD8CNR23TTBKLO00ZLY","A207MWA5U0GWA5","3RBI0I35XEP26UEZY8S8UZLEA1IY3E","","279.79999999701977","img/flower3.png","75","281.6000000014901","2","0","3","2","1,0,0,1,1,0,1,0,1","1,0,0,1,1,0,1,0,1","1",""
"","html-keyboard-response","113","78126","0.0-113.0","3TYCR1GOTD5LD8CNR23TTBKLO00ZLY","A207MWA5U0GWA5","3RBI0I35XEP26UEZY8S8UZLEA1IY3E","","null","<img src=""img/flower3.png"" style=""width:200px;border:14px solid red;"">","null","","","","","","","","",""
"","image-keyboard-response","114","78195","0.0-114.0","3TYCR1GOTD5LD8CNR23TTBKLO00ZLY","A207MWA5U0GWA5","3RBI0I35XEP26UEZY8S8UZLEA1IY3E","","66.20000000298023","img/flower1.png","75","67.89999999850988","2","0","1","2","1,0,0,1,1,0,1,0,1","1,0,0,1,1,0,1,0,1","1",""
"","html-keyboard-response","115","78500","0.0-115.0","3TYCR1GOTD5LD8CNR23TTBKLO00ZLY","A207MWA5U0GWA5","3RBI0I35XEP26UEZY8S8UZLEA1IY3E","","null","<img src=""img/flower1.png"" style=""width:200px;border:14px solid red;"">","null","","","","","","","","",""
"","image-keyboard-response","116","78539","0.0-116.0","3TYCR1GOTD5LD8CNR23TTBKLO00ZLY","A207MWA5U0GWA5","3RBI0I35XEP26UEZY8S8UZLEA1IY3E","","34.400000005960464","img/flower4.png","75","38.19999999552965","2","1","2","2","1,0,0,1,1,0,1,0,1","1,0,0,1,1,0,1,0,1","1",""
"","html-keyboard-response","117","78842","0.0-117.0","3TYCR1GOTD5LD8CNR23TTBKLO00ZLY","A207MWA5U0GWA5","3RBI0I35XEP26UEZY8S8UZLEA1IY3E","","null","<img src=""img/flower4.png"" style=""width:200px; border:14px solid green;"">","null","","","","","","","","",""
"","image-keyboard-response","118","78847","0.0-118.0","3TYCR1GOTD5LD8CNR23TTBKLO00ZLY","A207MWA5U0GWA5","3RBI0I35XEP26UEZY8S8UZLEA1IY3E","","2.6999999955296516","img/flower1.png","75","4.0999999940395355","2","0","1","2","1,0,0,1,1,0,1,0,1","1,0,0,1,1,0,1,0,1","1",""
"","html-keyboard-response","119","79149","0.0-119.0","3TYCR1GOTD5LD8CNR23TTBKLO00ZLY","A207MWA5U0GWA5","3RBI0I35XEP26UEZY8S8UZLEA1IY3E","","null","<img src=""img/flower1.png"" style=""width:200px;border:14px solid red;"">","null","","","","","","","","",""
"","image-keyboard-response","120","79519","0.0-120.0","3TYCR1GOTD5LD8CNR23TTBKLO00ZLY","A207MWA5U0GWA5","3RBI0I35XEP26UEZY8S8UZLEA1IY3E","","367.3999999985099","img/flower3.png","75","369.20000000298023","2","0","3","2","1,0,0,1,1,0,1,0,1","1,0,0,1,1,0,1,0,1","1",""
"","html-keyboard-response","121","79823","0.0-121.0","3TYCR1GOTD5LD8CNR23TTBKLO00ZLY","A207MWA5U0GWA5","3RBI0I35XEP26UEZY8S8UZLEA1IY3E","","null","<img src=""img/flower3.png"" style=""width:200px;border:14px solid red;"">","null","","","","","","","","",""
"","image-keyboard-response","122","79903","0.0-122.0","3TYCR1GOTD5LD8CNR23TTBKLO00ZLY","A207MWA5U0GWA5","3RBI0I35XEP26UEZY8S8UZLEA1IY3E","","77.79999999701977","img/flower4.png","75","79.60000000149012","2","1","2","2","1,0,0,1,1,0,1,0,1","1,0,0,1,1,0,1,0,1","1",""
"","html-keyboard-response","123","80206","0.0-123.0","3TYCR1GOTD5LD8CNR23TTBKLO00ZLY","A207MWA5U0GWA5","3RBI0I35XEP26UEZY8S8UZLEA1IY3E","","null","<img src=""img/flower4.png"" style=""width:200px; border:14px solid green;"">","null","","","","","","","","",""
"","image-keyboard-response","124","80351","0.0-124.0","3TYCR1GOTD5LD8CNR23TTBKLO00ZLY","A207MWA5U0GWA5","3RBI0I35XEP26UEZY8S8UZLEA1IY3E","","143.19999999552965","img/flower4.png","75","144.70000000298023","2","1","2","2","1,0,0,1,1,0,1,0,1","1,0,0,1,1,0,1,0,1","1",""
"","html-keyboard-response","125","80654","0.0-125.0","3TYCR1GOTD5LD8CNR23TTBKLO00ZLY","A207MWA5U0GWA5","3RBI0I35XEP26UEZY8S8UZLEA1IY3E","","null","<img src=""img/flower4.png"" style=""width:200px; border:14px solid green;"">","null","","","","","","","","",""
"","image-keyboard-response","126","80711","0.0-126.0","3TYCR1GOTD5LD8CNR23TTBKLO00ZLY","A207MWA5U0GWA5","3RBI0I35XEP26UEZY8S8UZLEA1IY3E","","55.20000000298023","img/flower4.png","75","56.70000000298023","2","1","2","2","1,0,0,1,1,0,1,0,1","1,0,0,1,1,0,1,0,1","1",""
"","html-keyboard-response","127","81014","0.0-127.0","3TYCR1GOTD5LD8CNR23TTBKLO00ZLY","A207MWA5U0GWA5","3RBI0I35XEP26UEZY8S8UZLEA1IY3E","","null","<img src=""img/flower4.png"" style=""width:200px; border:14px solid green;"">","null","","","","","","","","",""
"","image-keyboard-response","128","81039","0.0-128.0","3TYCR1GOTD5LD8CNR23TTBKLO00ZLY","A207MWA5U0GWA5","3RBI0I35XEP26UEZY8S8UZLEA1IY3E","","23","img/flower3.png","75","24.600000001490116","2","0","3","2","1,0,0,1,1,0,1,0,1","1,0,0,1,1,0,1,0,1","1",""
"","html-keyboard-response","129","81342","0.0-129.0","3TYCR1GOTD5LD8CNR23TTBKLO00ZLY","A207MWA5U0GWA5","3RBI0I35XEP26UEZY8S8UZLEA1IY3E","","null","<img src=""img/flower3.png"" style=""width:200px;border:14px solid red;"">","null","","","","","","","","",""
"","image-keyboard-response","130","81775","0.0-130.0","3TYCR1GOTD5LD8CNR23TTBKLO00ZLY","A207MWA5U0GWA5","3RBI0I35XEP26UEZY8S8UZLEA1IY3E","","430.8999999985099","img/flower3.png","75","432.40000000596046","2","0","3","2","1,0,0,1,1,0,1,0,1","1,0,0,1,1,0,1,0,1","1",""
"","html-keyboard-response","131","82077","0.0-131.0","3TYCR1GOTD5LD8CNR23TTBKLO00ZLY","A207MWA5U0GWA5","3RBI0I35XEP26UEZY8S8UZLEA1IY3E","","null","<img src=""img/flower3.png"" style=""width:200px;border:14px solid red;"">","null","","","","","","","","",""
"","image-keyboard-response","132","82375","0.0-132.0","3TYCR1GOTD5LD8CNR23TTBKLO00ZLY","A207MWA5U0GWA5","3RBI0I35XEP26UEZY8S8UZLEA1IY3E","","295.59999999403954","img/flower3.png","74","297.19999999552965","1","1","3","2","1,0,0,1,1,0,1,0,1","1,0,0,1,1,0,1,0,1","1",""
"","html-keyboard-response","133","82679","0.0-133.0","3TYCR1GOTD5LD8CNR23TTBKLO00ZLY","A207MWA5U0GWA5","3RBI0I35XEP26UEZY8S8UZLEA1IY3E","","null","<img src=""img/flower3.png"" style=""width:200px; border:14px solid green;"">","null","","","","","","","","",""
"","image-keyboard-response","134","82755","0.0-134.0","3TYCR1GOTD5LD8CNR23TTBKLO00ZLY","A207MWA5U0GWA5","3RBI0I35XEP26UEZY8S8UZLEA1IY3E","","73","img/flower4.png","74","74.70000000298023","1","1","2","2","1,0,0,1,1,0,1,0,1","1,0,0,1,1,0,1,0,1","1",""
"","html-keyboard-response","135","83057","0.0-135.0","3TYCR1GOTD5LD8CNR23TTBKLO00ZLY","A207MWA5U0GWA5","3RBI0I35XEP26UEZY8S8UZLEA1IY3E","","null","<img src=""img/flower4.png"" style=""width:200px; border:14px solid green;"">","null","","","","","","","","",""
"","image-keyboard-response","136","83090","0.0-136.0","3TYCR1GOTD5LD8CNR23TTBKLO00ZLY","A207MWA5U0GWA5","3RBI0I35XEP26UEZY8S8UZLEA1IY3E","","31.200000002980232","img/flower1.png","74","32.79999999701977","1","1","1","2","1,0,0,1,1,0,1,0,1","1,0,0,1,1,0,1,0,1","1",""
"","html-keyboard-response","137","83394","0.0-137.0","3TYCR1GOTD5LD8CNR23TTBKLO00ZLY","A207MWA5U0GWA5","3RBI0I35XEP26UEZY8S8UZLEA1IY3E","","null","<img src=""img/flower1.png"" style=""width:200px; border:14px solid green;"">","null","","","","","","","","",""
"","image-keyboard-response","138","83435","0.0-138.0","3TYCR1GOTD5LD8CNR23TTBKLO00ZLY","A207MWA5U0GWA5","3RBI0I35XEP26UEZY8S8UZLEA1IY3E","","39.100000001490116","img/flower4.png","74","40.399999998509884","1","1","2","2","1,0,0,1,1,0,1,0,1","1,0,0,1,1,0,1,0,1","1",""
"","html-keyboard-response","139","83737","0.0-139.0","3TYCR1GOTD5LD8CNR23TTBKLO00ZLY","A207MWA5U0GWA5","3RBI0I35XEP26UEZY8S8UZLEA1IY3E","","null","<img src=""img/flower4.png"" style=""width:200px; border:14px solid green;"">","null","","","","","","","","",""
"","image-keyboard-response","140","83766","0.0-140.0","3TYCR1GOTD5LD8CNR23TTBKLO00ZLY","A207MWA5U0GWA5","3RBI0I35XEP26UEZY8S8UZLEA1IY3E","","27.200000002980232","img/flower4.png","74","28.600000001490116","1","1","2","2","1,0,0,1,1,0,1,0,1","1,0,0,1,1,0,1,0,1","1",""
"","html-keyboard-response","141","84070","0.0-141.0","3TYCR1GOTD5LD8CNR23TTBKLO00ZLY","A207MWA5U0GWA5","3RBI0I35XEP26UEZY8S8UZLEA1IY3E","","null","<img src=""img/flower4.png"" style=""width:200px; border:14px solid green;"">","null","","","","","","","","",""
"","image-keyboard-response","142","84072","0.0-142.0","3TYCR1GOTD5LD8CNR23TTBKLO00ZLY","A207MWA5U0GWA5","3RBI0I35XEP26UEZY8S8UZLEA1IY3E","","0.5","img/flower4.png","74","2","1","1","2","2","1,0,0,1,1,0,1,0,1","1,0,0,1,1,0,1,0,1","1",""
"","html-keyboard-response","143","84375","0.0-143.0","3TYCR1GOTD5LD8CNR23TTBKLO00ZLY","A207MWA5U0GWA5","3RBI0I35XEP26UEZY8S8UZLEA1IY3E","","null","<img src=""img/flower4.png"" style=""width:200px; border:14px solid green;"">","null","","","","","","","","",""
"","image-keyboard-response","144","84383","0.0-144.0","3TYCR1GOTD5LD8CNR23TTBKLO00ZLY","A207MWA5U0GWA5","3RBI0I35XEP26UEZY8S8UZLEA1IY3E","","6.399999998509884","img/flower1.png","74","8.100000001490116","1","1","1","2","1,0,0,1,1,0,1,0,1","1,0,0,1,1,0,1,0,1","1",""
"","html-keyboard-response","145","84687","0.0-145.0","3TYCR1GOTD5LD8CNR23TTBKLO00ZLY","A207MWA5U0GWA5","3RBI0I35XEP26UEZY8S8UZLEA1IY3E","","null","<img src=""img/flower1.png"" style=""width:200px; border:14px solid green;"">","null","","","","","","","","",""
"","image-keyboard-response","146","84723","0.0-146.0","3TYCR1GOTD5LD8CNR23TTBKLO00ZLY","A207MWA5U0GWA5","3RBI0I35XEP26UEZY8S8UZLEA1IY3E","","33.70000000298023","img/flower4.png","74","35.100000001490116","1","1","2","2","1,0,0,1,1,0,1,0,1","1,0,0,1,1,0,1,0,1","1",""
"","html-keyboard-response","147","85025","0.0-147.0","3TYCR1GOTD5LD8CNR23TTBKLO00ZLY","A207MWA5U0GWA5","3RBI0I35XEP26UEZY8S8UZLEA1IY3E","","null","<img src=""img/flower4.png"" style=""width:200px; border:14px solid green;"">","null","","","","","","","","",""
"","image-keyboard-response","148","85147","0.0-148.0","3TYCR1GOTD5LD8CNR23TTBKLO00ZLY","A207MWA5U0GWA5","3RBI0I35XEP26UEZY8S8UZLEA1IY3E","","119.70000000298023","img/flower3.png","74","121.19999999552965","1","1","3","2","1,0,0,1,1,0,1,0,1","1,0,0,1,1,0,1,0,1","1",""
"","html-keyboard-response","149","85449","0.0-149.0","3TYCR1GOTD5LD8CNR23TTBKLO00ZLY","A207MWA5U0GWA5","3RBI0I35XEP26UEZY8S8UZLEA1IY3E","","null","<img src=""img/flower3.png"" style=""width:200px; border:14px solid green;"">","null","","","","","","","","",""
"","image-keyboard-response","150","85514","0.0-150.0","3TYCR1GOTD5LD8CNR23TTBKLO00ZLY","A207MWA5U0GWA5","3RBI0I35XEP26UEZY8S8UZLEA1IY3E","","63.600000001490116","img/flower4.png","74","65.10000000149012","1","1","2","2","1,0,0,1,1,0,1,0,1","1,0,0,1,1,0,1,0,1","1",""
"","html-keyboard-response","151","85817","0.0-151.0","3TYCR1GOTD5LD8CNR23TTBKLO00ZLY","A207MWA5U0GWA5","3RBI0I35XEP26UEZY8S8UZLEA1IY3E","","null","<img src=""img/flower4.png"" style=""width:200px; border:14px solid green;"">","null","","","","","","","","",""
"","image-keyboard-response","152","85850","0.0-152.0","3TYCR1GOTD5LD8CNR23TTBKLO00ZLY","A207MWA5U0GWA5","3RBI0I35XEP26UEZY8S8UZLEA1IY3E","","31.5","img/flower1.png","74","32.899999998509884","1","1","1","2","1,0,0,1,1,0,1,0,1","1,0,0,1,1,0,1,0,1","1",""
"","html-keyboard-response","153","86154","0.0-153.0","3TYCR1GOTD5LD8CNR23TTBKLO00ZLY","A207MWA5U0GWA5","3RBI0I35XEP26UEZY8S8UZLEA1IY3E","","null","<img src=""img/flower1.png"" style=""width:200px; border:14px solid green;"">","null","","","","","","","","",""
"","image-keyboard-response","154","86179","0.0-154.0","3TYCR1GOTD5LD8CNR23TTBKLO00ZLY","A207MWA5U0GWA5","3RBI0I35XEP26UEZY8S8UZLEA1IY3E","","23.19999999552965","img/flower1.png","74","24.899999998509884","1","1","1","2","1,0,0,1,1,0,1,0,1","1,0,0,1,1,0,1,0,1","1",""
"","html-keyboard-response","155","86483","0.0-155.0","3TYCR1GOTD5LD8CNR23TTBKLO00ZLY","A207MWA5U0GWA5","3RBI0I35XEP26UEZY8S8UZLEA1IY3E","","null","<img src=""img/flower1.png"" style=""width:200px; border:14px solid green;"">","null","","","","","","","","",""
"","image-keyboard-response","156","86555","0.0-156.0","3TYCR1GOTD5LD8CNR23TTBKLO00ZLY","A207MWA5U0GWA5","3RBI0I35XEP26UEZY8S8UZLEA1IY3E","","70.40000000596046","img/flower3.png","74","71.89999999850988","1","1","3","2","1,0,0,1,1,0,1,0,1","1,0,0,1,1,0,1,0,1","1",""
"","html-keyboard-response","157","86857","0.0-157.0","3TYCR1GOTD5LD8CNR23TTBKLO00ZLY","A207MWA5U0GWA5","3RBI0I35XEP26UEZY8S8UZLEA1IY3E","","null","<img src=""img/flower3.png"" style=""width:200px; border:14px solid green;"">","null","","","","","","","","",""
"","image-keyboard-response","158","86882","0.0-158.0","3TYCR1GOTD5LD8CNR23TTBKLO00ZLY","A207MWA5U0GWA5","3RBI0I35XEP26UEZY8S8UZLEA1IY3E","","22.600000001490116","img/flower4.png","74","24.399999998509884","1","1","2","2","1,0,0,1,1,0,1,0,1","1,0,0,1,1,0,1,0,1","1",""
"","html-keyboard-response","159","87186","0.0-159.0","3TYCR1GOTD5LD8CNR23TTBKLO00ZLY","A207MWA5U0GWA5","3RBI0I35XEP26UEZY8S8UZLEA1IY3E","","null","<img src=""img/flower4.png"" style=""width:200px; border:14px solid green;"">","null","","","","","","","","",""
"","image-keyboard-response","160","87275","0.0-160.0","3TYCR1GOTD5LD8CNR23TTBKLO00ZLY","A207MWA5U0GWA5","3RBI0I35XEP26UEZY8S8UZLEA1IY3E","","85.70000000298023","img/flower1.png","74","87.89999999850988","1","1","1","2","1,0,0,1,1,0,1,0,1","1,0,0,1,1,0,1,0,1","1",""
"","html-keyboard-response","161","87578","0.0-161.0","3TYCR1GOTD5LD8CNR23TTBKLO00ZLY","A207MWA5U0GWA5","3RBI0I35XEP26UEZY8S8UZLEA1IY3E","","null","<img src=""img/flower1.png"" style=""width:200px; border:14px solid green;"">","null","","","","","","","","",""
"","image-keyboard-response","162","87581","0.0-162.0","3TYCR1GOTD5LD8CNR23TTBKLO00ZLY","A207MWA5U0GWA5","3RBI0I35XEP26UEZY8S8UZLEA1IY3E","","0.7000000029802322","img/flower4.png","74","2.600000001490116","1","1","2","2","1,0,0,1,1,0,1,0,1","1,0,0,1,1,0,1,0,1","1",""
"","html-keyboard-response","163","87883","0.0-163.0","3TYCR1GOTD5LD8CNR23TTBKLO00ZLY","A207MWA5U0GWA5","3RBI0I35XEP26UEZY8S8UZLEA1IY3E","","null","<img src=""img/flower4.png"" style=""width:200px; border:14px solid green;"">","null","","","","","","","","",""
"","image-keyboard-response","164","87931","0.0-164.0","3TYCR1GOTD5LD8CNR23TTBKLO00ZLY","A207MWA5U0GWA5","3RBI0I35XEP26UEZY8S8UZLEA1IY3E","","45.600000001490116","img/flower4.png","74","47.19999999552965","1","1","2","2","1,0,0,1,1,0,1,0,1","1,0,0,1,1,0,1,0,1","1",""
"","html-keyboard-response","165","88234","0.0-165.0","3TYCR1GOTD5LD8CNR23TTBKLO00ZLY","A207MWA5U0GWA5","3RBI0I35XEP26UEZY8S8UZLEA1IY3E","","null","<img src=""img/flower4.png"" style=""width:200px; border:14px solid green;"">","null","","","","","","","","",""
"","image-keyboard-response","166","88266","0.0-166.0","3TYCR1GOTD5LD8CNR23TTBKLO00ZLY","A207MWA5U0GWA5","3RBI0I35XEP26UEZY8S8UZLEA1IY3E","","31","img/flower4.png","74","32.600000001490116","1","1","2","2","1,0,0,1,1,0,1,0,1","1,0,0,1,1,0,1,0,1","1",""
"","html-keyboard-response","167","88569","0.0-167.0","3TYCR1GOTD5LD8CNR23TTBKLO00ZLY","A207MWA5U0GWA5","3RBI0I35XEP26UEZY8S8UZLEA1IY3E","","null","<img src=""img/flower4.png"" style=""width:200px; border:14px solid green;"">","null","","","","","","","","",""
"","image-keyboard-response","168","88787","0.0-168.0","3TYCR1GOTD5LD8CNR23TTBKLO00ZLY","A207MWA5U0GWA5","3RBI0I35XEP26UEZY8S8UZLEA1IY3E","","216.29999999701977","img/flower1.png","74","217.89999999850988","1","1","1","2","1,0,0,1,1,0,1,0,1","1,0,0,1,1,0,1,0,1","1",""
"","html-keyboard-response","169","89089","0.0-169.0","3TYCR1GOTD5LD8CNR23TTBKLO00ZLY","A207MWA5U0GWA5","3RBI0I35XEP26UEZY8S8UZLEA1IY3E","","null","<img src=""img/flower1.png"" style=""width:200px; border:14px solid green;"">","null","","","","","","","","",""
"","image-keyboard-response","170","89300","0.0-170.0","3TYCR1GOTD5LD8CNR23TTBKLO00ZLY","A207MWA5U0GWA5","3RBI0I35XEP26UEZY8S8UZLEA1IY3E","","208.10000000149012","img/flower1.png","74","209.70000000298023","1","1","1","2","1,0,0,1,1,0,1,0,1","1,0,0,1,1,0,1,0,1","1",""
"","html-keyboard-response","171","89607","0.0-171.0","3TYCR1GOTD5LD8CNR23TTBKLO00ZLY","A207MWA5U0GWA5","3RBI0I35XEP26UEZY8S8UZLEA1IY3E","","null","<img src=""img/flower1.png"" style=""width:200px; border:14px solid green;"">","null","","","","","","","","",""
"","image-keyboard-response","172","89730","0.0-172.0","3TYCR1GOTD5LD8CNR23TTBKLO00ZLY","A207MWA5U0GWA5","3RBI0I35XEP26UEZY8S8UZLEA1IY3E","","121.20000000298023","img/flower1.png","74","122.80000000447035","1","1","1","2","1,0,0,1,1,0,1,0,1","1,0,0,1,1,0,1,0,1","1",""
"","html-keyboard-response","173","90033","0.0-173.0","3TYCR1GOTD5LD8CNR23TTBKLO00ZLY","A207MWA5U0GWA5","3RBI0I35XEP26UEZY8S8UZLEA1IY3E","","null","<img src=""img/flower1.png"" style=""width:200px; border:14px solid green;"">","null","","","","","","","","",""
"","image-keyboard-response","174","90242","0.0-174.0","3TYCR1GOTD5LD8CNR23TTBKLO00ZLY","A207MWA5U0GWA5","3RBI0I35XEP26UEZY8S8UZLEA1IY3E","","207.20000000298023","img/flower4.png","74","209","1","1","2","2","1,0,0,1,1,0,1,0,1","1,0,0,1,1,0,1,0,1","1",""
"","html-keyboard-response","175","90545","0.0-175.0","3TYCR1GOTD5LD8CNR23TTBKLO00ZLY","A207MWA5U0GWA5","3RBI0I35XEP26UEZY8S8UZLEA1IY3E","","null","<img src=""img/flower4.png"" style=""width:200px; border:14px solid green;"">","null","","","","","","","","",""
"","image-keyboard-response","176","90570","0.0-176.0","3TYCR1GOTD5LD8CNR23TTBKLO00ZLY","A207MWA5U0GWA5","3RBI0I35XEP26UEZY8S8UZLEA1IY3E","","23.200000002980232","img/flower1.png","74","24.700000002980232","1","1","1","2","1,0,0,1,1,0,1,0,1","1,0,0,1,1,0,1,0,1","1",""
"","html-keyboard-response","177","90873","0.0-177.0","3TYCR1GOTD5LD8CNR23TTBKLO00ZLY","A207MWA5U0GWA5","3RBI0I35XEP26UEZY8S8UZLEA1IY3E","","null","<img src=""img/flower1.png"" style=""width:200px; border:14px solid green;"">","null","","","","","","","","",""
"","image-keyboard-response","178","91130","0.0-178.0","3TYCR1GOTD5LD8CNR23TTBKLO00ZLY","A207MWA5U0GWA5","3RBI0I35XEP26UEZY8S8UZLEA1IY3E","","255.60000000149012","img/flower1.png","74","257","1","1","1","2","1,0,0,1,1,0,1,0,1","1,0,0,1,1,0,1,0,1","1",""
"","html-keyboard-response","179","91434","0.0-179.0","3TYCR1GOTD5LD8CNR23TTBKLO00ZLY","A207MWA5U0GWA5","3RBI0I35XEP26UEZY8S8UZLEA1IY3E","","null","<img src=""img/flower1.png"" style=""width:200px; border:14px solid green;"">","null","","","","","","","","",""
"","image-keyboard-response","180","91626","0.0-180.0","3TYCR1GOTD5LD8CNR23TTBKLO00ZLY","A207MWA5U0GWA5","3RBI0I35XEP26UEZY8S8UZLEA1IY3E","","190.39999999850988","img/flower1.png","74","191.80000000447035","1","1","1","2","1,0,0,1,1,0,1,0,1","1,0,0,1,1,0,1,0,1","1",""
"","html-keyboard-response","181","91929","0.0-181.0","3TYCR1GOTD5LD8CNR23TTBKLO00ZLY","A207MWA5U0GWA5","3RBI0I35XEP26UEZY8S8UZLEA1IY3E","","null","<img src=""img/flower1.png"" style=""width:200px; border:14px solid green;"">","null","","","","","","","","",""
"","image-keyboard-response","182","92130","0.0-182.0","3TYCR1GOTD5LD8CNR23TTBKLO00ZLY","A207MWA5U0GWA5","3RBI0I35XEP26UEZY8S8UZLEA1IY3E","","199.20000000298023","img/flower5.png","74","200.70000000298023","1","1","1","1","1,0.333,0.333,0.333,1,0.333,0.333,0.333,1","1,0.333,0.333,0.333,1,0.333,0.333,0.333,1","1",""
"","html-keyboard-response","183","92433","0.0-183.0","3TYCR1GOTD5LD8CNR23TTBKLO00ZLY","A207MWA5U0GWA5","3RBI0I35XEP26UEZY8S8UZLEA1IY3E","","null","<img src=""img/flower5.png"" style=""width:200px; border:14px solid green;"">","null","","","","","","","","",""
"","image-keyboard-response","184","92674","0.0-184.0","3TYCR1GOTD5LD8CNR23TTBKLO00ZLY","A207MWA5U0GWA5","3RBI0I35XEP26UEZY8S8UZLEA1IY3E","","238.89999999850988","img/flower2.png","74","240.70000000298023","1","0","2","1","1,0.333,0.333,0.333,1,0.333,0.333,0.333,1","1,0.333,0.333,0.333,1,0.333,0.333,0.333,1","1",""
"","html-keyboard-response","185","92977","0.0-185.0","3TYCR1GOTD5LD8CNR23TTBKLO00ZLY","A207MWA5U0GWA5","3RBI0I35XEP26UEZY8S8UZLEA1IY3E","","null","<img src=""img/flower2.png"" style=""width:200px;border:14px solid red;"">","null","","","","","","","","",""
"","image-keyboard-response","186","93119","0.0-186.0","3TYCR1GOTD5LD8CNR23TTBKLO00ZLY","A207MWA5U0GWA5","3RBI0I35XEP26UEZY8S8UZLEA1IY3E","","139.70000000298023","img/flower5.png","74","141.60000000149012","1","1","1","1","1,0.333,0.333,0.333,1,0.333,0.333,0.333,1","1,0.333,0.333,0.333,1,0.333,0.333,0.333,1","1",""
"","html-keyboard-response","187","93421","0.0-187.0","3TYCR1GOTD5LD8CNR23TTBKLO00ZLY","A207MWA5U0GWA5","3RBI0I35XEP26UEZY8S8UZLEA1IY3E","","null","<img src=""img/flower5.png"" style=""width:200px; border:14px solid green;"">","null","","","","","","","","",""
"","image-keyboard-response","188","93554","0.0-188.0","3TYCR1GOTD5LD8CNR23TTBKLO00ZLY","A207MWA5U0GWA5","3RBI0I35XEP26UEZY8S8UZLEA1IY3E","","131.10000000149012","img/flower5.png","74","132.60000000149012","1","1","1","1","1,0.333,0.333,0.333,1,0.333,0.333,0.333,1","1,0.333,0.333,0.333,1,0.333,0.333,0.333,1","1",""
"","html-keyboard-response","189","93863","0.0-189.0","3TYCR1GOTD5LD8CNR23TTBKLO00ZLY","A207MWA5U0GWA5","3RBI0I35XEP26UEZY8S8UZLEA1IY3E","","null","<img src=""img/flower5.png"" style=""width:200px; border:14px solid green;"">","null","","","","","","","","",""
"","image-keyboard-response","190","94022","0.0-190.0","3TYCR1GOTD5LD8CNR23TTBKLO00ZLY","A207MWA5U0GWA5","3RBI0I35XEP26UEZY8S8UZLEA1IY3E","","157.60000000149012","img/flower6.png","74","159.20000000298023","1","1","3","1","1,0.333,0.333,0.333,1,0.333,0.333,0.333,1","1,0.333,0.333,0.333,1,0.333,0.333,0.333,1","1",""
"","html-keyboard-response","191","94325","0.0-191.0","3TYCR1GOTD5LD8CNR23TTBKLO00ZLY","A207MWA5U0GWA5","3RBI0I35XEP26UEZY8S8UZLEA1IY3E","","null","<img src=""img/flower6.png"" style=""width:200px; border:14px solid green;"">","null","","","","","","","","",""
"","image-keyboard-response","192","94522","0.0-192.0","3TYCR1GOTD5LD8CNR23TTBKLO00ZLY","A207MWA5U0GWA5","3RBI0I35XEP26UEZY8S8UZLEA1IY3E","","195","img/flower5.png","74","198.39999999850988","1","1","1","1","1,0.333,0.333,0.333,1,0.333,0.333,0.333,1","1,0.333,0.333,0.333,1,0.333,0.333,0.333,1","1",""
"","html-keyboard-response","193","94827","0.0-193.0","3TYCR1GOTD5LD8CNR23TTBKLO00ZLY","A207MWA5U0GWA5","3RBI0I35XEP26UEZY8S8UZLEA1IY3E","","null","<img src=""img/flower5.png"" style=""width:200px; border:14px solid green;"">","null","","","","","","","","",""
"","image-keyboard-response","194","95022","0.0-194.0","3TYCR1GOTD5LD8CNR23TTBKLO00ZLY","A207MWA5U0GWA5","3RBI0I35XEP26UEZY8S8UZLEA1IY3E","","193.10000000149012","img/flower5.png","74","194.5","1","1","1","1","1,0.333,0.333,0.333,1,0.333,0.333,0.333,1","1,0.333,0.333,0.333,1,0.333,0.333,0.333,1","1",""
"","html-keyboard-response","195","95325","0.0-195.0","3TYCR1GOTD5LD8CNR23TTBKLO00ZLY","A207MWA5U0GWA5","3RBI0I35XEP26UEZY8S8UZLEA1IY3E","","null","<img src=""img/flower5.png"" style=""width:200px; border:14px solid green;"">","null","","","","","","","","",""
"","image-keyboard-response","196","95518","0.0-196.0","3TYCR1GOTD5LD8CNR23TTBKLO00ZLY","A207MWA5U0GWA5","3RBI0I35XEP26UEZY8S8UZLEA1IY3E","","191.60000000149012","img/flower5.png","74","193.29999999701977","1","1","1","1","1,0.333,0.333,0.333,1,0.333,0.333,0.333,1","1,0.333,0.333,0.333,1,0.333,0.333,0.333,1","1",""
"","html-keyboard-response","197","95822","0.0-197.0","3TYCR1GOTD5LD8CNR23TTBKLO00ZLY","A207MWA5U0GWA5","3RBI0I35XEP26UEZY8S8UZLEA1IY3E","","null","<img src=""img/flower5.png"" style=""width:200px; border:14px solid green;"">","null","","","","","","","","",""
"","image-keyboard-response","198","95930","0.0-198.0","3TYCR1GOTD5LD8CNR23TTBKLO00ZLY","A207MWA5U0GWA5","3RBI0I35XEP26UEZY8S8UZLEA1IY3E","","106.39999999850988","img/flower5.png","74","108.60000000149012","1","1","1","1","1,0.333,0.333,0.333,1,0.333,0.333,0.333,1","1,0.333,0.333,0.333,1,0.333,0.333,0.333,1","1",""
"","html-keyboard-response","199","96234","0.0-199.0","3TYCR1GOTD5LD8CNR23TTBKLO00ZLY","A207MWA5U0GWA5","3RBI0I35XEP26UEZY8S8UZLEA1IY3E","","null","<img src=""img/flower5.png"" style=""width:200px; border:14px solid green;"">","null","","","","","","","","",""
"","image-keyboard-response","200","96434","0.0-200.0","3TYCR1GOTD5LD8CNR23TTBKLO00ZLY","A207MWA5U0GWA5","3RBI0I35XEP26UEZY8S8UZLEA1IY3E","","199","img/flower2.png","74","200.40000000596046","1","0","2","1","1,0.333,0.333,0.333,1,0.333,0.333,0.333,1","1,0.333,0.333,0.333,1,0.333,0.333,0.333,1","1",""
"","html-keyboard-response","201","96738","0.0-201.0","3TYCR1GOTD5LD8CNR23TTBKLO00ZLY","A207MWA5U0GWA5","3RBI0I35XEP26UEZY8S8UZLEA1IY3E","","null","<img src=""img/flower2.png"" style=""width:200px;border:14px solid red;"">","null","","","","","","","","",""
"","image-keyboard-response","202","96906","0.0-202.0","3TYCR1GOTD5LD8CNR23TTBKLO00ZLY","A207MWA5U0GWA5","3RBI0I35XEP26UEZY8S8UZLEA1IY3E","","166.5","img/flower2.png","74","168.10000000149012","1","0","2","1","1,0.333,0.333,0.333,1,0.333,0.333,0.333,1","1,0.333,0.333,0.333,1,0.333,0.333,0.333,1","1",""
"","html-keyboard-response","203","97209","0.0-203.0","3TYCR1GOTD5LD8CNR23TTBKLO00ZLY","A207MWA5U0GWA5","3RBI0I35XEP26UEZY8S8UZLEA1IY3E","","null","<img src=""img/flower2.png"" style=""width:200px;border:14px solid red;"">","null","","","","","","","","",""
"","image-keyboard-response","204","97310","0.0-204.0","3TYCR1GOTD5LD8CNR23TTBKLO00ZLY","A207MWA5U0GWA5","3RBI0I35XEP26UEZY8S8UZLEA1IY3E","","99","img/flower5.png","74","100.60000000149012","1","1","1","1","1,0.333,0.333,0.333,1,0.333,0.333,0.333,1","1,0.333,0.333,0.333,1,0.333,0.333,0.333,1","1",""
"","html-keyboard-response","205","97612","0.0-205.0","3TYCR1GOTD5LD8CNR23TTBKLO00ZLY","A207MWA5U0GWA5","3RBI0I35XEP26UEZY8S8UZLEA1IY3E","","null","<img src=""img/flower5.png"" style=""width:200px; border:14px solid green;"">","null","","","","","","","","",""
"","image-keyboard-response","206","97790","0.0-206.0","3TYCR1GOTD5LD8CNR23TTBKLO00ZLY","A207MWA5U0GWA5","3RBI0I35XEP26UEZY8S8UZLEA1IY3E","","175.70000000298023","img/flower6.png","74","177.29999999701977","1","1","3","1","1,0.333,0.333,0.333,1,0.333,0.333,0.333,1","1,0.333,0.333,0.333,1,0.333,0.333,0.333,1","1",""
"","html-keyboard-response","207","98093","0.0-207.0","3TYCR1GOTD5LD8CNR23TTBKLO00ZLY","A207MWA5U0GWA5","3RBI0I35XEP26UEZY8S8UZLEA1IY3E","","null","<img src=""img/flower6.png"" style=""width:200px; border:14px solid green;"">","null","","","","","","","","",""
"","image-keyboard-response","208","98230","0.0-208.0","3TYCR1GOTD5LD8CNR23TTBKLO00ZLY","A207MWA5U0GWA5","3RBI0I35XEP26UEZY8S8UZLEA1IY3E","","135.80000000447035","img/flower6.png","74","137.5","1","1","3","1","1,0.333,0.333,0.333,1,0.333,0.333,0.333,1","1,0.333,0.333,0.333,1,0.333,0.333,0.333,1","1",""
"","html-keyboard-response","209","98534","0.0-209.0","3TYCR1GOTD5LD8CNR23TTBKLO00ZLY","A207MWA5U0GWA5","3RBI0I35XEP26UEZY8S8UZLEA1IY3E","","null","<img src=""img/flower6.png"" style=""width:200px; border:14px solid green;"">","null","","","","","","","","",""
"","image-keyboard-response","210","98734","0.0-210.0","3TYCR1GOTD5LD8CNR23TTBKLO00ZLY","A207MWA5U0GWA5","3RBI0I35XEP26UEZY8S8UZLEA1IY3E","","198.10000000149012","img/flower2.png","74","199.79999999701977","1","0","2","1","1,0.333,0.333,0.333,1,0.333,0.333,0.333,1","1,0.333,0.333,0.333,1,0.333,0.333,0.333,1","1",""
"","html-keyboard-response","211","99037","0.0-211.0","3TYCR1GOTD5LD8CNR23TTBKLO00ZLY","A207MWA5U0GWA5","3RBI0I35XEP26UEZY8S8UZLEA1IY3E","","null","<img src=""img/flower2.png"" style=""width:200px;border:14px solid red;"">","null","","","","","","","","",""
"","image-keyboard-response","212","99246","0.0-212.0","3TYCR1GOTD5LD8CNR23TTBKLO00ZLY","A207MWA5U0GWA5","3RBI0I35XEP26UEZY8S8UZLEA1IY3E","","207.29999999701977","img/flower2.png","74","209.10000000149012","1","0","2","1","1,0.333,0.333,0.333,1,0.333,0.333,0.333,1","1,0.333,0.333,0.333,1,0.333,0.333,0.333,1","1",""
"","html-keyboard-response","213","99549","0.0-213.0","3TYCR1GOTD5LD8CNR23TTBKLO00ZLY","A207MWA5U0GWA5","3RBI0I35XEP26UEZY8S8UZLEA1IY3E","","null","<img src=""img/flower2.png"" style=""width:200px;border:14px solid red;"">","null","","","","","","","","",""
"","image-keyboard-response","214","99734","0.0-214.0","3TYCR1GOTD5LD8CNR23TTBKLO00ZLY","A207MWA5U0GWA5","3RBI0I35XEP26UEZY8S8UZLEA1IY3E","","182.70000000298023","img/flower5.png","74","184.30000000447035","1","1","1","1","1,0.333,0.333,0.333,1,0.333,0.333,0.333,1","1,0.333,0.333,0.333,1,0.333,0.333,0.333,1","1",""
"","html-keyboard-response","215","100037","0.0-215.0","3TYCR1GOTD5LD8CNR23TTBKLO00ZLY","A207MWA5U0GWA5","3RBI0I35XEP26UEZY8S8UZLEA1IY3E","","null","<img src=""img/flower5.png"" style=""width:200px; border:14px solid green;"">","null","","","","","","","","",""
"","image-keyboard-response","216","100254","0.0-216.0","3TYCR1GOTD5LD8CNR23TTBKLO00ZLY","A207MWA5U0GWA5","3RBI0I35XEP26UEZY8S8UZLEA1IY3E","","215","img/flower6.png","74","216.70000000298023","1","0","3","1","1,0.333,0.333,0.333,1,0.333,0.333,0.333,1","1,0.333,0.333,0.333,1,0.333,0.333,0.333,1","1",""
"","html-keyboard-response","217","100556","0.0-217.0","3TYCR1GOTD5LD8CNR23TTBKLO00ZLY","A207MWA5U0GWA5","3RBI0I35XEP26UEZY8S8UZLEA1IY3E","","null","<img src=""img/flower6.png"" style=""width:200px;border:14px solid red;"">","null","","","","","","","","",""
"","image-keyboard-response","218","100582","0.0-218.0","3TYCR1GOTD5LD8CNR23TTBKLO00ZLY","A207MWA5U0GWA5","3RBI0I35XEP26UEZY8S8UZLEA1IY3E","","24.099999994039536","img/flower6.png","74","25.700000002980232","1","0","3","1","1,0.333,0.333,0.333,1,0.333,0.333,0.333,1","1,0.333,0.333,0.333,1,0.333,0.333,0.333,1","1",""
"","html-keyboard-response","219","100884","0.0-219.0","3TYCR1GOTD5LD8CNR23TTBKLO00ZLY","A207MWA5U0GWA5","3RBI0I35XEP26UEZY8S8UZLEA1IY3E","","null","<img src=""img/flower6.png"" style=""width:200px;border:14px solid red;"">","null","","","","","","","","",""
"","image-keyboard-response","220","101102","0.0-220.0","3TYCR1GOTD5LD8CNR23TTBKLO00ZLY","A207MWA5U0GWA5","3RBI0I35XEP26UEZY8S8UZLEA1IY3E","","216","img/flower5.png","74","217.60000000149012","1","1","1","1","1,0.333,0.333,0.333,1,0.333,0.333,0.333,1","1,0.333,0.333,0.333,1,0.333,0.333,0.333,1","1",""
"","html-keyboard-response","221","101404","0.0-221.0","3TYCR1GOTD5LD8CNR23TTBKLO00ZLY","A207MWA5U0GWA5","3RBI0I35XEP26UEZY8S8UZLEA1IY3E","","null","<img src=""img/flower5.png"" style=""width:200px; border:14px solid green;"">","null","","","","","","","","",""
"","image-keyboard-response","222","101415","0.0-222.0","3TYCR1GOTD5LD8CNR23TTBKLO00ZLY","A207MWA5U0GWA5","3RBI0I35XEP26UEZY8S8UZLEA1IY3E","","8.5","img/flower2.png","74","10.699999995529652","1","0","2","1","1,0.333,0.333,0.333,1,0.333,0.333,0.333,1","1,0.333,0.333,0.333,1,0.333,0.333,0.333,1","1",""
"","html-keyboard-response","223","101719","0.0-223.0","3TYCR1GOTD5LD8CNR23TTBKLO00ZLY","A207MWA5U0GWA5","3RBI0I35XEP26UEZY8S8UZLEA1IY3E","","null","<img src=""img/flower2.png"" style=""width:200px;border:14px solid red;"">","null","","","","","","","","",""
"","image-keyboard-response","224","102190","0.0-224.0","3TYCR1GOTD5LD8CNR23TTBKLO00ZLY","A207MWA5U0GWA5","3RBI0I35XEP26UEZY8S8UZLEA1IY3E","","468.6000000014901","img/flower5.png","74","470.6000000014901","1","1","1","1","1,0.333,0.333,0.333,1,0.333,0.333,0.333,1","1,0.333,0.333,0.333,1,0.333,0.333,0.333,1","1",""
"","html-keyboard-response","225","102493","0.0-225.0","3TYCR1GOTD5LD8CNR23TTBKLO00ZLY","A207MWA5U0GWA5","3RBI0I35XEP26UEZY8S8UZLEA1IY3E","","null","<img src=""img/flower5.png"" style=""width:200px; border:14px solid green;"">","null","","","","","","","","",""
"","image-keyboard-response","226","102511","0.0-226.0","3TYCR1GOTD5LD8CNR23TTBKLO00ZLY","A207MWA5U0GWA5","3RBI0I35XEP26UEZY8S8UZLEA1IY3E","","15.700000002980232","img/flower2.png","74","17.200000002980232","1","0","2","1","1,0.333,0.333,0.333,1,0.333,0.333,0.333,1","1,0.333,0.333,0.333,1,0.333,0.333,0.333,1","1",""
"","html-keyboard-response","227","102813","0.0-227.0","3TYCR1GOTD5LD8CNR23TTBKLO00ZLY","A207MWA5U0GWA5","3RBI0I35XEP26UEZY8S8UZLEA1IY3E","","null","<img src=""img/flower2.png"" style=""width:200px;border:14px solid red;"">","null","","","","","","","","",""
"","image-keyboard-response","228","103070","0.0-228.0","3TYCR1GOTD5LD8CNR23TTBKLO00ZLY","A207MWA5U0GWA5","3RBI0I35XEP26UEZY8S8UZLEA1IY3E","","255.60000000149012","img/flower2.png","74","257.40000000596046","1","1","2","1","1,0.333,0.333,0.333,1,0.333,0.333,0.333,1","1,0.333,0.333,0.333,1,0.333,0.333,0.333,1","1",""
"","html-keyboard-response","229","103372","0.0-229.0","3TYCR1GOTD5LD8CNR23TTBKLO00ZLY","A207MWA5U0GWA5","3RBI0I35XEP26UEZY8S8UZLEA1IY3E","","null","<img src=""img/flower2.png"" style=""width:200px; border:14px solid green;"">","null","","","","","","","","",""
"","image-keyboard-response","230","103639","0.0-230.0","3TYCR1GOTD5LD8CNR23TTBKLO00ZLY","A207MWA5U0GWA5","3RBI0I35XEP26UEZY8S8UZLEA1IY3E","","264.3999999985099","img/flower6.png","74","266.1000000014901","1","0","3","1","1,0.333,0.333,0.333,1,0.333,0.333,0.333,1","1,0.333,0.333,0.333,1,0.333,0.333,0.333,1","1",""
"","html-keyboard-response","231","103952","0.0-231.0","3TYCR1GOTD5LD8CNR23TTBKLO00ZLY","A207MWA5U0GWA5","3RBI0I35XEP26UEZY8S8UZLEA1IY3E","","null","<img src=""img/flower6.png"" style=""width:200px;border:14px solid red;"">","null","","","","","","","","",""
"","image-keyboard-response","232","104190","0.0-232.0","3TYCR1GOTD5LD8CNR23TTBKLO00ZLY","A207MWA5U0GWA5","3RBI0I35XEP26UEZY8S8UZLEA1IY3E","","236.30000000447035","img/flower6.png","74","237.70000000298023","1","1","3","1","1,0.333,0.333,0.333,1,0.333,0.333,0.333,1","1,0.333,0.333,0.333,1,0.333,0.333,0.333,1","1",""
"","html-keyboard-response","233","104493","0.0-233.0","3TYCR1GOTD5LD8CNR23TTBKLO00ZLY","A207MWA5U0GWA5","3RBI0I35XEP26UEZY8S8UZLEA1IY3E","","null","<img src=""img/flower6.png"" style=""width:200px; border:14px solid green;"">","null","","","","","","","","",""
"","image-keyboard-response","234","104766","0.0-234.0","3TYCR1GOTD5LD8CNR23TTBKLO00ZLY","A207MWA5U0GWA5","3RBI0I35XEP26UEZY8S8UZLEA1IY3E","","271.6000000014901","img/flower6.png","74","273.20000000298023","1","1","3","1","1,0.333,0.333,0.333,1,0.333,0.333,0.333,1","1,0.333,0.333,0.333,1,0.333,0.333,0.333,1","1",""
"","html-keyboard-response","235","105069","0.0-235.0","3TYCR1GOTD5LD8CNR23TTBKLO00ZLY","A207MWA5U0GWA5","3RBI0I35XEP26UEZY8S8UZLEA1IY3E","","null","<img src=""img/flower6.png"" style=""width:200px; border:14px solid green;"">","null","","","","","","","","",""
"","image-keyboard-response","236","105071","0.0-236.0","3TYCR1GOTD5LD8CNR23TTBKLO00ZLY","A207MWA5U0GWA5","3RBI0I35XEP26UEZY8S8UZLEA1IY3E","","0.3999999985098839","img/flower2.png","74","1.6000000014901161","1","0","2","1","1,0.333,0.333,0.333,1,0.333,0.333,0.333,1","1,0.333,0.333,0.333,1,0.333,0.333,0.333,1","1",""
"","html-keyboard-response","237","105373","0.0-237.0","3TYCR1GOTD5LD8CNR23TTBKLO00ZLY","A207MWA5U0GWA5","3RBI0I35XEP26UEZY8S8UZLEA1IY3E","","null","<img src=""img/flower2.png"" style=""width:200px;border:14px solid red;"">","null","","","","","","","","",""
"","image-keyboard-response","238","105558","0.0-238.0","3TYCR1GOTD5LD8CNR23TTBKLO00ZLY","A207MWA5U0GWA5","3RBI0I35XEP26UEZY8S8UZLEA1IY3E","","183","img/flower6.png","74","184.69999999552965","1","0","3","1","1,0.333,0.333,0.333,1,0.333,0.333,0.333,1","1,0.333,0.333,0.333,1,0.333,0.333,0.333,1","1",""
"","html-keyboard-response","239","105862","0.0-239.0","3TYCR1GOTD5LD8CNR23TTBKLO00ZLY","A207MWA5U0GWA5","3RBI0I35XEP26UEZY8S8UZLEA1IY3E","","null","<img src=""img/flower6.png"" style=""width:200px;border:14px solid red;"">","null","","","","","","","","",""
"","image-keyboard-response","240","106071","0.0-240.0","3TYCR1GOTD5LD8CNR23TTBKLO00ZLY","A207MWA5U0GWA5","3RBI0I35XEP26UEZY8S8UZLEA1IY3E","","206.39999999850988","img/flower6.png","74","208.29999999701977","1","0","3","1","1,0.333,0.333,0.333,1,0.333,0.333,0.333,1","1,0.333,0.333,0.333,1,0.333,0.333,0.333,1","1",""
"","html-keyboard-response","241","106374","0.0-241.0","3TYCR1GOTD5LD8CNR23TTBKLO00ZLY","A207MWA5U0GWA5","3RBI0I35XEP26UEZY8S8UZLEA1IY3E","","null","<img src=""img/flower6.png"" style=""width:200px;border:14px solid red;"">","null","","","","","","","","",""
"","image-keyboard-response","242","106603","0.0-242.0","3TYCR1GOTD5LD8CNR23TTBKLO00ZLY","A207MWA5U0GWA5","3RBI0I35XEP26UEZY8S8UZLEA1IY3E","","226.60000000149012","img/flower2.png","74","228.60000000149012","1","0","2","1","1,0.333,0.333,0.333,1,0.333,0.333,0.333,1","1,0.333,0.333,0.333,1,0.333,0.333,0.333,1","1",""
"","html-keyboard-response","243","106907","0.0-243.0","3TYCR1GOTD5LD8CNR23TTBKLO00ZLY","A207MWA5U0GWA5","3RBI0I35XEP26UEZY8S8UZLEA1IY3E","","null","<img src=""img/flower2.png"" style=""width:200px;border:14px solid red;"">","null","","","","","","","","",""
"","image-keyboard-response","244","106963","0.0-244.0","3TYCR1GOTD5LD8CNR23TTBKLO00ZLY","A207MWA5U0GWA5","3RBI0I35XEP26UEZY8S8UZLEA1IY3E","","53.30000000447035","img/flower6.png","76","55.5","3","1","3","1","1,0.333,0.333,0.333,1,0.333,0.333,0.333,1","1,0.333,0.333,0.333,1,0.333,0.333,0.333,1","1",""
"","html-keyboard-response","245","107267","0.0-245.0","3TYCR1GOTD5LD8CNR23TTBKLO00ZLY","A207MWA5U0GWA5","3RBI0I35XEP26UEZY8S8UZLEA1IY3E","","null","<img src=""img/flower6.png"" style=""width:200px; border:14px solid green;"">","null","","","","","","","","",""
"","image-keyboard-response","246","107275","0.0-246.0","3TYCR1GOTD5LD8CNR23TTBKLO00ZLY","A207MWA5U0GWA5","3RBI0I35XEP26UEZY8S8UZLEA1IY3E","","4.0999999940395355","img/flower2.png","76","6.5","3","1","2","1","1,0.333,0.333,0.333,1,0.333,0.333,0.333,1","1,0.333,0.333,0.333,1,0.333,0.333,0.333,1","1",""
"","html-keyboard-response","247","107578","0.0-247.0","3TYCR1GOTD5LD8CNR23TTBKLO00ZLY","A207MWA5U0GWA5","3RBI0I35XEP26UEZY8S8UZLEA1IY3E","","null","<img src=""img/flower2.png"" style=""width:200px; border:14px solid green;"">","null","","","","","","","","",""
"","image-keyboard-response","248","107750","0.0-248.0","3TYCR1GOTD5LD8CNR23TTBKLO00ZLY","A207MWA5U0GWA5","3RBI0I35XEP26UEZY8S8UZLEA1IY3E","","170.29999999701977","img/flower5.png","76","172","3","0","1","1","1,0.333,0.333,0.333,1,0.333,0.333,0.333,1","1,0.333,0.333,0.333,1,0.333,0.333,0.333,1","1",""
"","html-keyboard-response","249","108054","0.0-249.0","3TYCR1GOTD5LD8CNR23TTBKLO00ZLY","A207MWA5U0GWA5","3RBI0I35XEP26UEZY8S8UZLEA1IY3E","","null","<img src=""img/flower5.png"" style=""width:200px;border:14px solid red;"">","null","","","","","","","","",""
"","image-keyboard-response","250","108366","0.0-250.0","3TYCR1GOTD5LD8CNR23TTBKLO00ZLY","A207MWA5U0GWA5","3RBI0I35XEP26UEZY8S8UZLEA1IY3E","","310.3999999985099","img/flower6.png","76","312","3","1","3","1","1,0.333,0.333,0.333,1,0.333,0.333,0.333,1","1,0.333,0.333,0.333,1,0.333,0.333,0.333,1","1",""
"","html-keyboard-response","251","108669","0.0-251.0","3TYCR1GOTD5LD8CNR23TTBKLO00ZLY","A207MWA5U0GWA5","3RBI0I35XEP26UEZY8S8UZLEA1IY3E","","null","<img src=""img/flower6.png"" style=""width:200px; border:14px solid green;"">","null","","","","","","","","",""
"","image-keyboard-response","252","108879","0.0-252.0","3TYCR1GOTD5LD8CNR23TTBKLO00ZLY","A207MWA5U0GWA5","3RBI0I35XEP26UEZY8S8UZLEA1IY3E","","206.90000000596046","img/flower6.png","76","208.80000000447035","3","1","3","1","1,0.333,0.333,0.333,1,0.333,0.333,0.333,1","1,0.333,0.333,0.333,1,0.333,0.333,0.333,1","1",""
"","html-keyboard-response","253","109182","0.0-253.0","3TYCR1GOTD5LD8CNR23TTBKLO00ZLY","A207MWA5U0GWA5","3RBI0I35XEP26UEZY8S8UZLEA1IY3E","","null","<img src=""img/flower6.png"" style=""width:200px; border:14px solid green;"">","null","","","","","","","","",""
"","image-keyboard-response","254","109386","0.0-254.0","3TYCR1GOTD5LD8CNR23TTBKLO00ZLY","A207MWA5U0GWA5","3RBI0I35XEP26UEZY8S8UZLEA1IY3E","","202.10000000149012","img/flower2.png","76","203.69999999552965","3","1","2","1","1,0.333,0.333,0.333,1,0.333,0.333,0.333,1","1,0.333,0.333,0.333,1,0.333,0.333,0.333,1","1",""
"","html-keyboard-response","255","109689","0.0-255.0","3TYCR1GOTD5LD8CNR23TTBKLO00ZLY","A207MWA5U0GWA5","3RBI0I35XEP26UEZY8S8UZLEA1IY3E","","null","<img src=""img/flower2.png"" style=""width:200px; border:14px solid green;"">","null","","","","","","","","",""
"","image-keyboard-response","256","109942","0.0-256.0","3TYCR1GOTD5LD8CNR23TTBKLO00ZLY","A207MWA5U0GWA5","3RBI0I35XEP26UEZY8S8UZLEA1IY3E","","251.60000000149012","img/flower2.png","76","253.10000000149012","3","1","2","1","1,0.333,0.333,0.333,1,0.333,0.333,0.333,1","1,0.333,0.333,0.333,1,0.333,0.333,0.333,1","1",""
"","html-keyboard-response","257","110245","0.0-257.0","3TYCR1GOTD5LD8CNR23TTBKLO00ZLY","A207MWA5U0GWA5","3RBI0I35XEP26UEZY8S8UZLEA1IY3E","","null","<img src=""img/flower2.png"" style=""width:200px; border:14px solid green;"">","null","","","","","","","","",""
"","image-keyboard-response","258","110518","0.0-258.0","3TYCR1GOTD5LD8CNR23TTBKLO00ZLY","A207MWA5U0GWA5","3RBI0I35XEP26UEZY8S8UZLEA1IY3E","","271.6000000014901","img/flower2.png","76","273.30000000447035","3","0","2","1","1,0.333,0.333,0.333,1,0.333,0.333,0.333,1","1,0.333,0.333,0.333,1,0.333,0.333,0.333,1","1",""
"","html-keyboard-response","259","110822","0.0-259.0","3TYCR1GOTD5LD8CNR23TTBKLO00ZLY","A207MWA5U0GWA5","3RBI0I35XEP26UEZY8S8UZLEA1IY3E","","null","<img src=""img/flower2.png"" style=""width:200px;border:14px solid red;"">","null","","","","","","","","",""
"","image-keyboard-response","260","111174","0.0-260.0","3TYCR1GOTD5LD8CNR23TTBKLO00ZLY","A207MWA5U0GWA5","3RBI0I35XEP26UEZY8S8UZLEA1IY3E","","350.5","img/flower5.png","76","352","3","0","1","1","1,0.333,0.333,0.333,1,0.333,0.333,0.333,1","1,0.333,0.333,0.333,1,0.333,0.333,0.333,1","1",""
"","html-keyboard-response","261","111477","0.0-261.0","3TYCR1GOTD5LD8CNR23TTBKLO00ZLY","A207MWA5U0GWA5","3RBI0I35XEP26UEZY8S8UZLEA1IY3E","","null","<img src=""img/flower5.png"" style=""width:200px;border:14px solid red;"">","null","","","","","","","","",""
"","image-keyboard-response","262","111519","0.0-262.0","3TYCR1GOTD5LD8CNR23TTBKLO00ZLY","A207MWA5U0GWA5","3RBI0I35XEP26UEZY8S8UZLEA1IY3E","","38","img/flower2.png","76","39.899999998509884","3","0","2","1","1,0.333,0.333,0.333,1,0.333,0.333,0.333,1","1,0.333,0.333,0.333,1,0.333,0.333,0.333,1","1",""
"","html-keyboard-response","263","111821","0.0-263.0","3TYCR1GOTD5LD8CNR23TTBKLO00ZLY","A207MWA5U0GWA5","3RBI0I35XEP26UEZY8S8UZLEA1IY3E","","null","<img src=""img/flower2.png"" style=""width:200px;border:14px solid red;"">","null","","","","","","","","",""
"","image-keyboard-response","264","112134","0.0-264.0","3TYCR1GOTD5LD8CNR23TTBKLO00ZLY","A207MWA5U0GWA5","3RBI0I35XEP26UEZY8S8UZLEA1IY3E","","311.3999999985099","img/flower6.png","76","312.79999999701977","3","1","3","1","1,0.333,0.333,0.333,1,0.333,0.333,0.333,1","1,0.333,0.333,0.333,1,0.333,0.333,0.333,1","1",""
"","html-keyboard-response","265","112437","0.0-265.0","3TYCR1GOTD5LD8CNR23TTBKLO00ZLY","A207MWA5U0GWA5","3RBI0I35XEP26UEZY8S8UZLEA1IY3E","","null","<img src=""img/flower6.png"" style=""width:200px; border:14px solid green;"">","null","","","","","","","","",""
"","image-keyboard-response","266","112614","0.0-266.0","3TYCR1GOTD5LD8CNR23TTBKLO00ZLY","A207MWA5U0GWA5","3RBI0I35XEP26UEZY8S8UZLEA1IY3E","","174.79999999701977","img/flower6.png","75","176.89999999850988","2","0","3","1","1,0.333,0.333,0.333,1,0.333,0.333,0.333,1","1,0.333,0.333,0.333,1,0.333,0.333,0.333,1","1",""
"","html-keyboard-response","267","112917","0.0-267.0","3TYCR1GOTD5LD8CNR23TTBKLO00ZLY","A207MWA5U0GWA5","3RBI0I35XEP26UEZY8S8UZLEA1IY3E","","null","<img src=""img/flower6.png"" style=""width:200px;border:14px solid red;"">","null","","","","","","","","",""
"","image-keyboard-response","268","113070","0.0-268.0","3TYCR1GOTD5LD8CNR23TTBKLO00ZLY","A207MWA5U0GWA5","3RBI0I35XEP26UEZY8S8UZLEA1IY3E","","151.20000000298023","img/flower2.png","75","152.90000000596046","2","1","2","1","1,0.333,0.333,0.333,1,0.333,0.333,0.333,1","1,0.333,0.333,0.333,1,0.333,0.333,0.333,1","1",""
"","html-keyboard-response","269","113373","0.0-269.0","3TYCR1GOTD5LD8CNR23TTBKLO00ZLY","A207MWA5U0GWA5","3RBI0I35XEP26UEZY8S8UZLEA1IY3E","","null","<img src=""img/flower2.png"" style=""width:200px; border:14px solid green;"">","null","","","","","","","","",""
"","image-keyboard-response","270","113558","0.0-270.0","3TYCR1GOTD5LD8CNR23TTBKLO00ZLY","A207MWA5U0GWA5","3RBI0I35XEP26UEZY8S8UZLEA1IY3E","","183","img/flower6.png","75","185.10000000149012","2","1","3","1","1,0.333,0.333,0.333,1,0.333,0.333,0.333,1","1,0.333,0.333,0.333,1,0.333,0.333,0.333,1","1",""
"","html-keyboard-response","271","113861","0.0-271.0","3TYCR1GOTD5LD8CNR23TTBKLO00ZLY","A207MWA5U0GWA5","3RBI0I35XEP26UEZY8S8UZLEA1IY3E","","null","<img src=""img/flower6.png"" style=""width:200px; border:14px solid green;"">","null","","","","","","","","",""
"","image-keyboard-response","272","114070","0.0-272.0","3TYCR1GOTD5LD8CNR23TTBKLO00ZLY","A207MWA5U0GWA5","3RBI0I35XEP26UEZY8S8UZLEA1IY3E","","207.10000000149012","img/flower2.png","75","208.70000000298023","2","1","2","1","1,0.333,0.333,0.333,1,0.333,0.333,0.333,1","1,0.333,0.333,0.333,1,0.333,0.333,0.333,1","1",""
"","html-keyboard-response","273","114373","0.0-273.0","3TYCR1GOTD5LD8CNR23TTBKLO00ZLY","A207MWA5U0GWA5","3RBI0I35XEP26UEZY8S8UZLEA1IY3E","","null","<img src=""img/flower2.png"" style=""width:200px; border:14px solid green;"">","null","","","","","","","","",""
"","image-keyboard-response","274","114382","0.0-274.0","3TYCR1GOTD5LD8CNR23TTBKLO00ZLY","A207MWA5U0GWA5","3RBI0I35XEP26UEZY8S8UZLEA1IY3E","","7.100000001490116","img/flower5.png","75","8.600000001490116","2","0","1","1","1,0.333,0.333,0.333,1,0.333,0.333,0.333,1","1,0.333,0.333,0.333,1,0.333,0.333,0.333,1","1",""
"","html-keyboard-response","275","114684","0.0-275.0","3TYCR1GOTD5LD8CNR23TTBKLO00ZLY","A207MWA5U0GWA5","3RBI0I35XEP26UEZY8S8UZLEA1IY3E","","null","<img src=""img/flower5.png"" style=""width:200px;border:14px solid red;"">","null","","","","","","","","",""
"","image-keyboard-response","276","114982","0.0-276.0","3TYCR1GOTD5LD8CNR23TTBKLO00ZLY","A207MWA5U0GWA5","3RBI0I35XEP26UEZY8S8UZLEA1IY3E","","296.19999999552965","img/flower6.png","74","297.59999999403954","1","0","3","1","1,0.333,0.333,0.333,1,0.333,0.333,0.333,1","1,0.333,0.333,0.333,1,0.333,0.333,0.333,1","1",""
"","html-keyboard-response","277","115286","0.0-277.0","3TYCR1GOTD5LD8CNR23TTBKLO00ZLY","A207MWA5U0GWA5","3RBI0I35XEP26UEZY8S8UZLEA1IY3E","","null","<img src=""img/flower6.png"" style=""width:200px;border:14px solid red;"">","null","","","","","","","","",""
"","image-keyboard-response","278","115310","0.0-278.0","3TYCR1GOTD5LD8CNR23TTBKLO00ZLY","A207MWA5U0GWA5","3RBI0I35XEP26UEZY8S8UZLEA1IY3E","","22.299999997019768","img/flower5.png","74","23.899999998509884","1","1","1","1","1,0.333,0.333,0.333,1,0.333,0.333,0.333,1","1,0.333,0.333,0.333,1,0.333,0.333,0.333,1","1",""
"","html-keyboard-response","279","115612","0.0-279.0","3TYCR1GOTD5LD8CNR23TTBKLO00ZLY","A207MWA5U0GWA5","3RBI0I35XEP26UEZY8S8UZLEA1IY3E","","null","<img src=""img/flower5.png"" style=""width:200px; border:14px solid green;"">","null","","","","","","","","",""
"","image-keyboard-response","280","115790","0.0-280.0","3TYCR1GOTD5LD8CNR23TTBKLO00ZLY","A207MWA5U0GWA5","3RBI0I35XEP26UEZY8S8UZLEA1IY3E","","175.70000000298023","img/flower5.png","74","177.5","1","1","1","1","1,0.333,0.333,0.333,1,0.333,0.333,0.333,1","1,0.333,0.333,0.333,1,0.333,0.333,0.333,1","1",""
"","html-keyboard-response","281","116093","0.0-281.0","3TYCR1GOTD5LD8CNR23TTBKLO00ZLY","A207MWA5U0GWA5","3RBI0I35XEP26UEZY8S8UZLEA1IY3E","","null","<img src=""img/flower5.png"" style=""width:200px; border:14px solid green;"">","null","","","","","","","","",""
"","image-keyboard-response","282","116330","0.0-282.0","3TYCR1GOTD5LD8CNR23TTBKLO00ZLY","A207MWA5U0GWA5","3RBI0I35XEP26UEZY8S8UZLEA1IY3E","","235.10000000149012","img/flower2.png","74","236.80000000447035","1","0","2","1","1,0.333,0.333,0.333,1,0.333,0.333,0.333,1","1,0.333,0.333,0.333,1,0.333,0.333,0.333,1","1",""
"","html-keyboard-response","283","116633","0.0-283.0","3TYCR1GOTD5LD8CNR23TTBKLO00ZLY","A207MWA5U0GWA5","3RBI0I35XEP26UEZY8S8UZLEA1IY3E","","null","<img src=""img/flower2.png"" style=""width:200px;border:14px solid red;"">","null","","","","","","","","",""
"","image-keyboard-response","284","116994","0.0-284.0","3TYCR1GOTD5LD8CNR23TTBKLO00ZLY","A207MWA5U0GWA5","3RBI0I35XEP26UEZY8S8UZLEA1IY3E","","359.5","img/flower6.png","74","361.30000000447035","1","0","3","1","1,0.333,0.333,0.333,1,0.333,0.333,0.333,1","1,0.333,0.333,0.333,1,0.333,0.333,0.333,1","1",""
"","html-keyboard-response","285","117297","0.0-285.0","3TYCR1GOTD5LD8CNR23TTBKLO00ZLY","A207MWA5U0GWA5","3RBI0I35XEP26UEZY8S8UZLEA1IY3E","","null","<img src=""img/flower6.png"" style=""width:200px;border:14px solid red;"">","null","","","","","","","","",""
"","image-keyboard-response","286","117300","0.0-286.0","3TYCR1GOTD5LD8CNR23TTBKLO00ZLY","A207MWA5U0GWA5","3RBI0I35XEP26UEZY8S8UZLEA1IY3E","","0.5999999940395355","img/flower5.png","74","2.100000001490116","1","1","1","1","1,0.333,0.333,0.333,1,0.333,0.333,0.333,1","1,0.333,0.333,0.333,1,0.333,0.333,0.333,1","1",""
"","html-keyboard-response","287","117603","0.0-287.0","3TYCR1GOTD5LD8CNR23TTBKLO00ZLY","A207MWA5U0GWA5","3RBI0I35XEP26UEZY8S8UZLEA1IY3E","","null","<img src=""img/flower5.png"" style=""width:200px; border:14px solid green;"">","null","","","","","","","","",""
"","image-keyboard-response","288","117659","0.0-288.0","3TYCR1GOTD5LD8CNR23TTBKLO00ZLY","A207MWA5U0GWA5","3RBI0I35XEP26UEZY8S8UZLEA1IY3E","","53.80000000447035","img/flower2.png","74","55.5","1","0","2","1","1,0.333,0.333,0.333,1,0.333,0.333,0.333,1","1,0.333,0.333,0.333,1,0.333,0.333,0.333,1","1",""
"","html-keyboard-response","289","117962","0.0-289.0","3TYCR1GOTD5LD8CNR23TTBKLO00ZLY","A207MWA5U0GWA5","3RBI0I35XEP26UEZY8S8UZLEA1IY3E","","null","<img src=""img/flower2.png"" style=""width:200px;border:14px solid red;"">","null","","","","","","","","",""
"","image-keyboard-response","290","118006","0.0-290.0","3TYCR1GOTD5LD8CNR23TTBKLO00ZLY","A207MWA5U0GWA5","3RBI0I35XEP26UEZY8S8UZLEA1IY3E","","42.600000001490116","img/flower5.png","74","44","1","1","1","1","1,0.333,0.333,0.333,1,0.333,0.333,0.333,1","1,0.333,0.333,0.333,1,0.333,0.333,0.333,1","1",""
"","html-keyboard-response","291","118309","0.0-291.0","3TYCR1GOTD5LD8CNR23TTBKLO00ZLY","A207MWA5U0GWA5","3RBI0I35XEP26UEZY8S8UZLEA1IY3E","","null","<img src=""img/flower5.png"" style=""width:200px; border:14px solid green;"">","null","","","","","","","","",""
"","image-keyboard-response","292","118666","0.0-292.0","3TYCR1GOTD5LD8CNR23TTBKLO00ZLY","A207MWA5U0GWA5","3RBI0I35XEP26UEZY8S8UZLEA1IY3E","","355.8999999985099","img/flower2.png","74","357.5","1","0","2","1","1,0.333,0.333,0.333,1,0.333,0.333,0.333,1","1,0.333,0.333,0.333,1,0.333,0.333,0.333,1","1",""
"","html-keyboard-response","293","118969","0.0-293.0","3TYCR1GOTD5LD8CNR23TTBKLO00ZLY","A207MWA5U0GWA5","3RBI0I35XEP26UEZY8S8UZLEA1IY3E","","null","<img src=""img/flower2.png"" style=""width:200px;border:14px solid red;"">","null","","","","","","","","",""
"","image-keyboard-response","294","118986","0.0-294.0","3TYCR1GOTD5LD8CNR23TTBKLO00ZLY","A207MWA5U0GWA5","3RBI0I35XEP26UEZY8S8UZLEA1IY3E","","15.100000001490116","img/flower2.png","74","16.399999998509884","1","0","2","1","1,0.333,0.333,0.333,1,0.333,0.333,0.333,1","1,0.333,0.333,0.333,1,0.333,0.333,0.333,1","1",""
"","html-keyboard-response","295","119289","0.0-295.0","3TYCR1GOTD5LD8CNR23TTBKLO00ZLY","A207MWA5U0GWA5","3RBI0I35XEP26UEZY8S8UZLEA1IY3E","","null","<img src=""img/flower2.png"" style=""width:200px;border:14px solid red;"">","null","","","","","","","","",""
"","image-keyboard-response","296","119370","0.0-296.0","3TYCR1GOTD5LD8CNR23TTBKLO00ZLY","A207MWA5U0GWA5","3RBI0I35XEP26UEZY8S8UZLEA1IY3E","","79.5","img/flower5.png","76","81","3","0","1","1","1,0.333,0.333,0.333,1,0.333,0.333,0.333,1","1,0.333,0.333,0.333,1,0.333,0.333,0.333,1","1",""
"","html-keyboard-response","297","119673","0.0-297.0","3TYCR1GOTD5LD8CNR23TTBKLO00ZLY","A207MWA5U0GWA5","3RBI0I35XEP26UEZY8S8UZLEA1IY3E","","null","<img src=""img/flower5.png"" style=""width:200px;border:14px solid red;"">","null","","","","","","","","",""
"","image-keyboard-response","298","119842","0.0-298.0","3TYCR1GOTD5LD8CNR23TTBKLO00ZLY","A207MWA5U0GWA5","3RBI0I35XEP26UEZY8S8UZLEA1IY3E","","166.79999999701977","img/flower5.png","76","168.70000000298023","3","0","1","1","1,0.333,0.333,0.333,1,0.333,0.333,0.333,1","1,0.333,0.333,0.333,1,0.333,0.333,0.333,1","1",""
"","html-keyboard-response","299","120145","0.0-299.0","3TYCR1GOTD5LD8CNR23TTBKLO00ZLY","A207MWA5U0GWA5","3RBI0I35XEP26UEZY8S8UZLEA1IY3E","","null","<img src=""img/flower5.png"" style=""width:200px;border:14px solid red;"">","null","","","","","","","","",""
"","image-keyboard-response","300","120419","0.0-300.0","3TYCR1GOTD5LD8CNR23TTBKLO00ZLY","A207MWA5U0GWA5","3RBI0I35XEP26UEZY8S8UZLEA1IY3E","","271.40000000596046","img/flower6.png","76","273.40000000596046","3","1","3","1","1,0.333,0.333,0.333,1,0.333,0.333,0.333,1","1,0.333,0.333,0.333,1,0.333,0.333,0.333,1","1",""
"","html-keyboard-response","301","120722","0.0-301.0","3TYCR1GOTD5LD8CNR23TTBKLO00ZLY","A207MWA5U0GWA5","3RBI0I35XEP26UEZY8S8UZLEA1IY3E","","null","<img src=""img/flower6.png"" style=""width:200px; border:14px solid green;"">","null","","","","","","","","",""
"","image-keyboard-response","302","120830","0.0-302.0","3TYCR1GOTD5LD8CNR23TTBKLO00ZLY","A207MWA5U0GWA5","3RBI0I35XEP26UEZY8S8UZLEA1IY3E","","106.80000000447035","img/flower6.png","76","108.30000000447035","3","1","3","1","1,0.333,0.333,0.333,1,0.333,0.333,0.333,1","1,0.333,0.333,0.333,1,0.333,0.333,0.333,1","1",""
"","html-keyboard-response","303","121132","0.0-303.0","3TYCR1GOTD5LD8CNR23TTBKLO00ZLY","A207MWA5U0GWA5","3RBI0I35XEP26UEZY8S8UZLEA1IY3E","","null","<img src=""img/flower6.png"" style=""width:200px; border:14px solid green;"">","null","","","","","","","","",""
"","image-keyboard-response","304","121302","0.0-304.0","3TYCR1GOTD5LD8CNR23TTBKLO00ZLY","A207MWA5U0GWA5","3RBI0I35XEP26UEZY8S8UZLEA1IY3E","","167.60000000149012","img/flower2.png","76","169.30000000447035","3","1","2","1","1,0.333,0.333,0.333,1,0.333,0.333,0.333,1","1,0.333,0.333,0.333,1,0.333,0.333,0.333,1","1",""
"","html-keyboard-response","305","121604","0.0-305.0","3TYCR1GOTD5LD8CNR23TTBKLO00ZLY","A207MWA5U0GWA5","3RBI0I35XEP26UEZY8S8UZLEA1IY3E","","null","<img src=""img/flower2.png"" style=""width:200px; border:14px solid green;"">","null","","","","","","","","",""
"","image-keyboard-response","306","121826","0.0-306.0","3TYCR1GOTD5LD8CNR23TTBKLO00ZLY","A207MWA5U0GWA5","3RBI0I35XEP26UEZY8S8UZLEA1IY3E","","220.30000000447035","img/flower5.png","76","221.80000000447035","3","1","1","1","1,0.333,0.333,0.333,1,0.333,0.333,0.333,1","1,0.333,0.333,0.333,1,0.333,0.333,0.333,1","1",""
"","html-keyboard-response","307","122128","0.0-307.0","3TYCR1GOTD5LD8CNR23TTBKLO00ZLY","A207MWA5U0GWA5","3RBI0I35XEP26UEZY8S8UZLEA1IY3E","","null","<img src=""img/flower5.png"" style=""width:200px; border:14px solid green;"">","null","","","","","","","","",""
"","image-keyboard-response","308","122386","0.0-308.0","3TYCR1GOTD5LD8CNR23TTBKLO00ZLY","A207MWA5U0GWA5","3RBI0I35XEP26UEZY8S8UZLEA1IY3E","","255.79999999701977","img/flower5.png","76","257.5","3","1","1","1","1,0.333,0.333,0.333,1,0.333,0.333,0.333,1","1,0.333,0.333,0.333,1,0.333,0.333,0.333,1","1",""
"","html-keyboard-response","309","122688","0.0-309.0","3TYCR1GOTD5LD8CNR23TTBKLO00ZLY","A207MWA5U0GWA5","3RBI0I35XEP26UEZY8S8UZLEA1IY3E","","null","<img src=""img/flower5.png"" style=""width:200px; border:14px solid green;"">","null","","","","","","","","",""
"","image-keyboard-response","310","122691","0.0-310.0","3TYCR1GOTD5LD8CNR23TTBKLO00ZLY","A207MWA5U0GWA5","3RBI0I35XEP26UEZY8S8UZLEA1IY3E","","0.3999999985098839","img/flower5.png","76","2","3","1","1","1","1,0.333,0.333,0.333,1,0.333,0.333,0.333,1","1,0.333,0.333,0.333,1,0.333,0.333,0.333,1","1",""
"","html-keyboard-response","311","122993","0.0-311.0","3TYCR1GOTD5LD8CNR23TTBKLO00ZLY","A207MWA5U0GWA5","3RBI0I35XEP26UEZY8S8UZLEA1IY3E","","null","<img src=""img/flower5.png"" style=""width:200px; border:14px solid green;"">","null","","","","","","","","",""
"","image-keyboard-response","312","123058","0.0-312.0","3TYCR1GOTD5LD8CNR23TTBKLO00ZLY","A207MWA5U0GWA5","3RBI0I35XEP26UEZY8S8UZLEA1IY3E","","63.29999999701977","img/flower2.png","76","65","3","1","2","1","1,0.333,0.333,0.333,1,0.333,0.333,0.333,1","1,0.333,0.333,0.333,1,0.333,0.333,0.333,1","1",""
"","html-keyboard-response","313","123363","0.0-313.0","3TYCR1GOTD5LD8CNR23TTBKLO00ZLY","A207MWA5U0GWA5","3RBI0I35XEP26UEZY8S8UZLEA1IY3E","","null","<img src=""img/flower2.png"" style=""width:200px; border:14px solid green;"">","null","","","","","","","","",""
"","image-keyboard-response","314","123626","0.0-314.0","3TYCR1GOTD5LD8CNR23TTBKLO00ZLY","A207MWA5U0GWA5","3RBI0I35XEP26UEZY8S8UZLEA1IY3E","","261.80000000447035","img/flower2.png","76","263.5","3","1","2","1","1,0.333,0.333,0.333,1,0.333,0.333,0.333,1","1,0.333,0.333,0.333,1,0.333,0.333,0.333,1","1",""
"","html-keyboard-response","315","123928","0.0-315.0","3TYCR1GOTD5LD8CNR23TTBKLO00ZLY","A207MWA5U0GWA5","3RBI0I35XEP26UEZY8S8UZLEA1IY3E","","null","<img src=""img/flower2.png"" style=""width:200px; border:14px solid green;"">","null","","","","","","","","",""
"","image-keyboard-response","316","124170","0.0-316.0","3TYCR1GOTD5LD8CNR23TTBKLO00ZLY","A207MWA5U0GWA5","3RBI0I35XEP26UEZY8S8UZLEA1IY3E","","239.80000000447035","img/flower5.png","76","241.30000000447035","3","0","1","1","1,0.333,0.333,0.333,1,0.333,0.333,0.333,1","1,0.333,0.333,0.333,1,0.333,0.333,0.333,1","1",""
"","html-keyboard-response","317","124479","0.0-317.0","3TYCR1GOTD5LD8CNR23TTBKLO00ZLY","A207MWA5U0GWA5","3RBI0I35XEP26UEZY8S8UZLEA1IY3E","","null","<img src=""img/flower5.png"" style=""width:200px;border:14px solid red;"">","null","","","","","","","","",""
"","image-keyboard-response","318","124706","0.0-318.0","3TYCR1GOTD5LD8CNR23TTBKLO00ZLY","A207MWA5U0GWA5","3RBI0I35XEP26UEZY8S8UZLEA1IY3E","","225.60000000149012","img/flower2.png","76","227.29999999701977","3","0","2","1","1,0.333,0.333,0.333,1,0.333,0.333,0.333,1","1,0.333,0.333,0.333,1,0.333,0.333,0.333,1","1",""
"","html-keyboard-response","319","125009","0.0-319.0","3TYCR1GOTD5LD8CNR23TTBKLO00ZLY","A207MWA5U0GWA5","3RBI0I35XEP26UEZY8S8UZLEA1IY3E","","null","<img src=""img/flower2.png"" style=""width:200px;border:14px solid red;"">","null","","","","","","","","",""
"","image-keyboard-response","320","125210","0.0-320.0","3TYCR1GOTD5LD8CNR23TTBKLO00ZLY","A207MWA5U0GWA5","3RBI0I35XEP26UEZY8S8UZLEA1IY3E","","199.20000000298023","img/flower2.png","76","200.70000000298023","3","0","2","1","1,0.333,0.333,0.333,1,0.333,0.333,0.333,1","1,0.333,0.333,0.333,1,0.333,0.333,0.333,1","1",""
"","html-keyboard-response","321","125513","0.0-321.0","3TYCR1GOTD5LD8CNR23TTBKLO00ZLY","A207MWA5U0GWA5","3RBI0I35XEP26UEZY8S8UZLEA1IY3E","","null","<img src=""img/flower2.png"" style=""width:200px;border:14px solid red;"">","null","","","","","","","","",""
"","image-keyboard-response","322","125730","0.0-322.0","3TYCR1GOTD5LD8CNR23TTBKLO00ZLY","A207MWA5U0GWA5","3RBI0I35XEP26UEZY8S8UZLEA1IY3E","","215.39999999850988","img/flower5.png","76","216.89999999850988","3","0","1","1","1,0.333,0.333,0.333,1,0.333,0.333,0.333,1","1,0.333,0.333,0.333,1,0.333,0.333,0.333,1","1",""
"","html-keyboard-response","323","126032","0.0-323.0","3TYCR1GOTD5LD8CNR23TTBKLO00ZLY","A207MWA5U0GWA5","3RBI0I35XEP26UEZY8S8UZLEA1IY3E","","null","<img src=""img/flower5.png"" style=""width:200px;border:14px solid red;"">","null","","","","","","","","",""
"","image-keyboard-response","324","126258","0.0-324.0","3TYCR1GOTD5LD8CNR23TTBKLO00ZLY","A207MWA5U0GWA5","3RBI0I35XEP26UEZY8S8UZLEA1IY3E","","224","img/flower5.png","76","225.60000000149012","3","0","1","1","1,0.333,0.333,0.333,1,0.333,0.333,0.333,1","1,0.333,0.333,0.333,1,0.333,0.333,0.333,1","1",""
"","html-keyboard-response","325","126561","0.0-325.0","3TYCR1GOTD5LD8CNR23TTBKLO00ZLY","A207MWA5U0GWA5","3RBI0I35XEP26UEZY8S8UZLEA1IY3E","","null","<img src=""img/flower5.png"" style=""width:200px;border:14px solid red;"">","null","","","","","","","","",""
"","image-keyboard-response","326","126826","0.0-326.0","3TYCR1GOTD5LD8CNR23TTBKLO00ZLY","A207MWA5U0GWA5","3RBI0I35XEP26UEZY8S8UZLEA1IY3E","","263.5","img/flower6.png","76","265","3","1","3","1","1,0.333,0.333,0.333,1,0.333,0.333,0.333,1","1,0.333,0.333,0.333,1,0.333,0.333,0.333,1","1",""
"","html-keyboard-response","327","127130","0.0-327.0","3TYCR1GOTD5LD8CNR23TTBKLO00ZLY","A207MWA5U0GWA5","3RBI0I35XEP26UEZY8S8UZLEA1IY3E","","null","<img src=""img/flower6.png"" style=""width:200px; border:14px solid green;"">","null","","","","","","","","",""
"","image-keyboard-response","328","127306","0.0-328.0","3TYCR1GOTD5LD8CNR23TTBKLO00ZLY","A207MWA5U0GWA5","3RBI0I35XEP26UEZY8S8UZLEA1IY3E","","174.5","img/flower2.png","76","176.19999999552965","3","0","2","1","1,0.333,0.333,0.333,1,0.333,0.333,0.333,1","1,0.333,0.333,0.333,1,0.333,0.333,0.333,1","1",""
"","html-keyboard-response","329","127609","0.0-329.0","3TYCR1GOTD5LD8CNR23TTBKLO00ZLY","A207MWA5U0GWA5","3RBI0I35XEP26UEZY8S8UZLEA1IY3E","","null","<img src=""img/flower2.png"" style=""width:200px;border:14px solid red;"">","null","","","","","","","","",""
"","image-keyboard-response","330","127890","0.0-330.0","3TYCR1GOTD5LD8CNR23TTBKLO00ZLY","A207MWA5U0GWA5","3RBI0I35XEP26UEZY8S8UZLEA1IY3E","","278.8999999985099","img/flower6.png","76","280.59999999403954","3","1","3","1","1,0.333,0.333,0.333,1,0.333,0.333,0.333,1","1,0.333,0.333,0.333,1,0.333,0.333,0.333,1","1",""
"","html-keyboard-response","331","128192","0.0-331.0","3TYCR1GOTD5LD8CNR23TTBKLO00ZLY","A207MWA5U0GWA5","3RBI0I35XEP26UEZY8S8UZLEA1IY3E","","null","<img src=""img/flower6.png"" style=""width:200px; border:14px solid green;"">","null","","","","","","","","",""
"","image-keyboard-response","332","128210","0.0-332.0","3TYCR1GOTD5LD8CNR23TTBKLO00ZLY","A207MWA5U0GWA5","3RBI0I35XEP26UEZY8S8UZLEA1IY3E","","15.900000005960464","img/flower6.png","76","17.400000005960464","3","1","3","1","1,0.333,0.333,0.333,1,0.333,0.333,0.333,1","1,0.333,0.333,0.333,1,0.333,0.333,0.333,1","1",""
"","html-keyboard-response","333","128513","0.0-333.0","3TYCR1GOTD5LD8CNR23TTBKLO00ZLY","A207MWA5U0GWA5","3RBI0I35XEP26UEZY8S8UZLEA1IY3E","","null","<img src=""img/flower6.png"" style=""width:200px; border:14px solid green;"">","null","","","","","","","","",""
"","image-keyboard-response","334","128786","0.0-334.0","3TYCR1GOTD5LD8CNR23TTBKLO00ZLY","A207MWA5U0GWA5","3RBI0I35XEP26UEZY8S8UZLEA1IY3E","","271.20000000298023","img/flower2.png","76","272.80000000447035","3","0","2","1","1,0.333,0.333,0.333,1,0.333,0.333,0.333,1","1,0.333,0.333,0.333,1,0.333,0.333,0.333,1","1",""
"","html-keyboard-response","335","129090","0.0-335.0","3TYCR1GOTD5LD8CNR23TTBKLO00ZLY","A207MWA5U0GWA5","3RBI0I35XEP26UEZY8S8UZLEA1IY3E","","null","<img src=""img/flower2.png"" style=""width:200px;border:14px solid red;"">","null","","","","","","","","",""
"","image-keyboard-response","336","129098","0.0-336.0","3TYCR1GOTD5LD8CNR23TTBKLO00ZLY","A207MWA5U0GWA5","3RBI0I35XEP26UEZY8S8UZLEA1IY3E","","6.799999997019768","img/flower5.png","76","8.299999997019768","3","0","1","1","1,0.333,0.333,0.333,1,0.333,0.333,0.333,1","1,0.333,0.333,0.333,1,0.333,0.333,0.333,1","1",""
"","html-keyboard-response","337","129401","0.0-337.0","3TYCR1GOTD5LD8CNR23TTBKLO00ZLY","A207MWA5U0GWA5","3RBI0I35XEP26UEZY8S8UZLEA1IY3E","","null","<img src=""img/flower5.png"" style=""width:200px;border:14px solid red;"">","null","","","","","","","","",""
"","image-keyboard-response","338","129434","0.0-338.0","3TYCR1GOTD5LD8CNR23TTBKLO00ZLY","A207MWA5U0GWA5","3RBI0I35XEP26UEZY8S8UZLEA1IY3E","","31.100000001490116","img/flower6.png","76","32.600000001490116","3","1","3","1","1,0.333,0.333,0.333,1,0.333,0.333,0.333,1","1,0.333,0.333,0.333,1,0.333,0.333,0.333,1","1",""
"","html-keyboard-response","339","129736","0.0-339.0","3TYCR1GOTD5LD8CNR23TTBKLO00ZLY","A207MWA5U0GWA5","3RBI0I35XEP26UEZY8S8UZLEA1IY3E","","null","<img src=""img/flower6.png"" style=""width:200px; border:14px solid green;"">","null","","","","","","","","",""
"","image-keyboard-response","340","130063","0.0-340.0","3TYCR1GOTD5LD8CNR23TTBKLO00ZLY","A207MWA5U0GWA5","3RBI0I35XEP26UEZY8S8UZLEA1IY3E","","324.6000000014901","img/flower5.png","76","326.3999999985099","3","0","1","1","1,0.333,0.333,0.333,1,0.333,0.333,0.333,1","1,0.333,0.333,0.333,1,0.333,0.333,0.333,1","1",""
"","html-keyboard-response","341","130366","0.0-341.0","3TYCR1GOTD5LD8CNR23TTBKLO00ZLY","A207MWA5U0GWA5","3RBI0I35XEP26UEZY8S8UZLEA1IY3E","","null","<img src=""img/flower5.png"" style=""width:200px;border:14px solid red;"">","null","","","","","","","","",""
"","image-keyboard-response","342","130739","0.0-342.0","3TYCR1GOTD5LD8CNR23TTBKLO00ZLY","A207MWA5U0GWA5","3RBI0I35XEP26UEZY8S8UZLEA1IY3E","","370.1000000014901","img/flower6.png","76","371.6000000014901","3","1","3","1","1,0.333,0.333,0.333,1,0.333,0.333,0.333,1","1,0.333,0.333,0.333,1,0.333,0.333,0.333,1","1",""
"","html-keyboard-response","343","131042","0.0-343.0","3TYCR1GOTD5LD8CNR23TTBKLO00ZLY","A207MWA5U0GWA5","3RBI0I35XEP26UEZY8S8UZLEA1IY3E","","null","<img src=""img/flower6.png"" style=""width:200px; border:14px solid green;"">","null","","","","","","","","",""
"","image-keyboard-response","344","131106","0.0-344.0","3TYCR1GOTD5LD8CNR23TTBKLO00ZLY","A207MWA5U0GWA5","3RBI0I35XEP26UEZY8S8UZLEA1IY3E","","62.29999999701977","img/flower2.png","76","63.900000005960464","3","0","2","1","1,0.333,0.333,0.333,1,0.333,0.333,0.333,1","1,0.333,0.333,0.333,1,0.333,0.333,0.333,1","1",""
"","html-keyboard-response","345","131409","0.0-345.0","3TYCR1GOTD5LD8CNR23TTBKLO00ZLY","A207MWA5U0GWA5","3RBI0I35XEP26UEZY8S8UZLEA1IY3E","","null","<img src=""img/flower2.png"" style=""width:200px;border:14px solid red;"">","null","","","","","","","","",""
"","image-keyboard-response","346","131666","0.0-346.0","3TYCR1GOTD5LD8CNR23TTBKLO00ZLY","A207MWA5U0GWA5","3RBI0I35XEP26UEZY8S8UZLEA1IY3E","","255.39999999850988","img/flower6.png","76","257","3","1","3","1","1,0.333,0.333,0.333,1,0.333,0.333,0.333,1","1,0.333,0.333,0.333,1,0.333,0.333,0.333,1","1",""
"","html-keyboard-response","347","131970","0.0-347.0","3TYCR1GOTD5LD8CNR23TTBKLO00ZLY","A207MWA5U0GWA5","3RBI0I35XEP26UEZY8S8UZLEA1IY3E","","null","<img src=""img/flower6.png"" style=""width:200px; border:14px solid green;"">","null","","","","","","","","",""
"","image-keyboard-response","348","132074","0.0-348.0","3TYCR1GOTD5LD8CNR23TTBKLO00ZLY","A207MWA5U0GWA5","3RBI0I35XEP26UEZY8S8UZLEA1IY3E","","102.70000000298023","img/flower2.png","74","104.20000000298023","1","1","2","1","1,0.333,0.333,0.333,1,0.333,0.333,0.333,1","1,0.333,0.333,0.333,1,0.333,0.333,0.333,1","1",""
"","html-keyboard-response","349","132377","0.0-349.0","3TYCR1GOTD5LD8CNR23TTBKLO00ZLY","A207MWA5U0GWA5","3RBI0I35XEP26UEZY8S8UZLEA1IY3E","","null","<img src=""img/flower2.png"" style=""width:200px; border:14px solid green;"">","null","","","","","","","","",""
"","image-keyboard-response","350","132434","0.0-350.0","3TYCR1GOTD5LD8CNR23TTBKLO00ZLY","A207MWA5U0GWA5","3RBI0I35XEP26UEZY8S8UZLEA1IY3E","","55.399999998509884","img/flower5.png","74","57.100000001490116","1","1","1","1","1,0.333,0.333,0.333,1,0.333,0.333,0.333,1","1,0.333,0.333,0.333,1,0.333,0.333,0.333,1","1",""
"","html-keyboard-response","351","132737","0.0-351.0","3TYCR1GOTD5LD8CNR23TTBKLO00ZLY","A207MWA5U0GWA5","3RBI0I35XEP26UEZY8S8UZLEA1IY3E","","null","<img src=""img/flower5.png"" style=""width:200px; border:14px solid green;"">","null","","","","","","","","",""
"","image-keyboard-response","352","132763","0.0-352.0","3TYCR1GOTD5LD8CNR23TTBKLO00ZLY","A207MWA5U0GWA5","3RBI0I35XEP26UEZY8S8UZLEA1IY3E","","24.30000000447035","img/flower6.png","74","25.700000002980232","1","0","3","1","1,0.333,0.333,0.333,1,0.333,0.333,0.333,1","1,0.333,0.333,0.333,1,0.333,0.333,0.333,1","1",""
"","html-keyboard-response","353","133067","0.0-353.0","3TYCR1GOTD5LD8CNR23TTBKLO00ZLY","A207MWA5U0GWA5","3RBI0I35XEP26UEZY8S8UZLEA1IY3E","","null","<img src=""img/flower6.png"" style=""width:200px;border:14px solid red;"">","null","","","","","","","","",""
"","image-keyboard-response","354","133370","0.0-354.0","3TYCR1GOTD5LD8CNR23TTBKLO00ZLY","A207MWA5U0GWA5","3RBI0I35XEP26UEZY8S8UZLEA1IY3E","","301.5","img/flower6.png","74","303.09999999403954","1","0","3","1","1,0.333,0.333,0.333,1,0.333,0.333,0.333,1","1,0.333,0.333,0.333,1,0.333,0.333,0.333,1","1",""
"","html-keyboard-response","355","133673","0.0-355.0","3TYCR1GOTD5LD8CNR23TTBKLO00ZLY","A207MWA5U0GWA5","3RBI0I35XEP26UEZY8S8UZLEA1IY3E","","null","<img src=""img/flower6.png"" style=""width:200px;border:14px solid red;"">","null","","","","","","","","",""
"","image-keyboard-response","356","133874","0.0-356.0","3TYCR1GOTD5LD8CNR23TTBKLO00ZLY","A207MWA5U0GWA5","3RBI0I35XEP26UEZY8S8UZLEA1IY3E","","199","img/flower6.png","75","201.10000000149012","2","0","3","1","1,0.333,0.333,0.333,1,0.333,0.333,0.333,1","1,0.333,0.333,0.333,1,0.333,0.333,0.333,1","1",""
"","html-keyboard-response","357","134178","0.0-357.0","3TYCR1GOTD5LD8CNR23TTBKLO00ZLY","A207MWA5U0GWA5","3RBI0I35XEP26UEZY8S8UZLEA1IY3E","","null","<img src=""img/flower6.png"" style=""width:200px;border:14px solid red;"">","null","","","","","","","","",""
"","image-keyboard-response","358","134242","0.0-358.0","3TYCR1GOTD5LD8CNR23TTBKLO00ZLY","A207MWA5U0GWA5","3RBI0I35XEP26UEZY8S8UZLEA1IY3E","","60.899999998509884","img/flower6.png","75","62.5","2","1","3","1","1,0.333,0.333,0.333,1,0.333,0.333,0.333,1","1,0.333,0.333,0.333,1,0.333,0.333,0.333,1","1",""
"","html-keyboard-response","359","134544","0.0-359.0","3TYCR1GOTD5LD8CNR23TTBKLO00ZLY","A207MWA5U0GWA5","3RBI0I35XEP26UEZY8S8UZLEA1IY3E","","null","<img src=""img/flower6.png"" style=""width:200px; border:14px solid green;"">","null","","","","","","","","",""
"","image-keyboard-response","360","134754","0.0-360.0","3TYCR1GOTD5LD8CNR23TTBKLO00ZLY","A207MWA5U0GWA5","3RBI0I35XEP26UEZY8S8UZLEA1IY3E","","208.10000000149012","img/flower5.png","75","209.69999999552965","2","0","1","1","1,0.333,0.333,0.333,1,0.333,0.333,0.333,1","1,0.333,0.333,0.333,1,0.333,0.333,0.333,1","1",""
"","html-keyboard-response","361","135057","0.0-361.0","3TYCR1GOTD5LD8CNR23TTBKLO00ZLY","A207MWA5U0GWA5","3RBI0I35XEP26UEZY8S8UZLEA1IY3E","","null","<img src=""img/flower5.png"" style=""width:200px;border:14px solid red;"">","null","","","","","","","","",""
"","html-keyboard-response","362","140981","0.0-362.0","3TYCR1GOTD5LD8CNR23TTBKLO00ZLY","A207MWA5U0GWA5","3RBI0I35XEP26UEZY8S8UZLEA1IY3E","","","","","","","","","","","","",""
"","instructions","363","145422","0.0-363.0","3TYCR1GOTD5LD8CNR23TTBKLO00ZLY","A207MWA5U0GWA5","3RBI0I35XEP26UEZY8S8UZLEA1IY3E","[{""page_index"":0,""viewing_time"":4439}]","4439.60000000149","","","","","","","","","","",""
"","survey-text","364","150248","0.0-364.0","3TYCR1GOTD5LD8CNR23TTBKLO00ZLY","A207MWA5U0GWA5","3RBI0I35XEP26UEZY8S8UZLEA1IY3E","","4810.80000000447","","","","","","","","","","","{""Q0"":""A207MWA5U0GWA5""}"
