"success","trial_type","trial_index","time_elapsed","internal_node_id","assignmentID","mturkID","hitID","view_history","rt","stimulus","key_press","reactionTime","a","r","s","cond","reward_cond","reward_cond_actual","reward_matrix_idx","responses"
"true","fullscreen","0","2855","0.0-0.0","3PB5A5BD0WSM76SGXGEUPZMEIJAG7C","A2196WCNDZULFS","3JUDR1D0D6D4CARU3YX9Y3DK5DJ2QK","","","","","","","","","","","","",""
"","instructions","1","26768","0.0-1.0","3PB5A5BD0WSM76SGXGEUPZMEIJAG7C","A2196WCNDZULFS","3JUDR1D0D6D4CARU3YX9Y3DK5DJ2QK","[{""page_index"":0,""viewing_time"":2086.4000000059605},{""page_index"":1,""viewing_time"":1632},{""page_index"":2,""viewing_time"":2672.199999988079},{""page_index"":3,""viewing_time"":1319.9000000059605},{""page_index"":2,""viewing_time"":512.4000000059605},{""page_index"":1,""viewing_time"":2936.199999988079},{""page_index"":2,""viewing_time"":663.4000000059605},{""page_index"":3,""viewing_time"":5264.20000000298},{""page_index"":4,""viewing_time"":1760.0999999940395},{""page_index"":5,""viewing_time"":1344.4000000059605},{""page_index"":6,""viewing_time"":1407.3999999910593},{""page_index"":7,""viewing_time"":2312.4000000059605}]","23911.29999999702","","","","","","","","","","",""
"","image-keyboard-response","2","27377","0.0-2.0","3PB5A5BD0WSM76SGXGEUPZMEIJAG7C","A2196WCNDZULFS","3JUDR1D0D6D4CARU3YX9Y3DK5DJ2QK","","607.7999999970198","img/flower4.png","74","609","1","1","3","2","1,0,0,1,1,0,1,0,1","0,1,0,0,1,1,1,1,0","3",""
"","html-keyboard-response","3","27687","0.0-3.0","3PB5A5BD0WSM76SGXGEUPZMEIJAG7C","A2196WCNDZULFS","3JUDR1D0D6D4CARU3YX9Y3DK5DJ2QK","","null","<img src=""img/flower4.png"" style=""width:200px; border:14px solid green;"">","null","","","","","","","","",""
"","image-keyboard-response","4","28319","0.0-4.0","3PB5A5BD0WSM76SGXGEUPZMEIJAG7C","A2196WCNDZULFS","3JUDR1D0D6D4CARU3YX9Y3DK5DJ2QK","","632.0999999940395","img/flower1.png","75","632.7000000029802","2","1","2","2","1,0,0,1,1,0,1,0,1","0,1,0,0,1,1,1,1,0","3",""
"","html-keyboard-response","5","28634","0.0-5.0","3PB5A5BD0WSM76SGXGEUPZMEIJAG7C","A2196WCNDZULFS","3JUDR1D0D6D4CARU3YX9Y3DK5DJ2QK","","null","<img src=""img/flower1.png"" style=""width:200px; border:14px solid green;"">","null","","","","","","","","",""
"","image-keyboard-response","6","29135","0.0-6.0","3PB5A5BD0WSM76SGXGEUPZMEIJAG7C","A2196WCNDZULFS","3JUDR1D0D6D4CARU3YX9Y3DK5DJ2QK","","499.8999999910593","img/flower1.png","75","500.79999999701977","2","1","2","2","1,0,0,1,1,0,1,0,1","0,1,0,0,1,1,1,1,0","3",""
"","html-keyboard-response","7","29437","0.0-7.0","3PB5A5BD0WSM76SGXGEUPZMEIJAG7C","A2196WCNDZULFS","3JUDR1D0D6D4CARU3YX9Y3DK5DJ2QK","","null","<img src=""img/flower1.png"" style=""width:200px; border:14px solid green;"">","null","","","","","","","","",""
"","image-keyboard-response","8","29808","0.0-8.0","3PB5A5BD0WSM76SGXGEUPZMEIJAG7C","A2196WCNDZULFS","3JUDR1D0D6D4CARU3YX9Y3DK5DJ2QK","","369.5","img/flower1.png","75","370.6000000089407","2","1","2","2","1,0,0,1,1,0,1,0,1","0,1,0,0,1,1,1,1,0","3",""
"","html-keyboard-response","9","30109","0.0-9.0","3PB5A5BD0WSM76SGXGEUPZMEIJAG7C","A2196WCNDZULFS","3JUDR1D0D6D4CARU3YX9Y3DK5DJ2QK","","null","<img src=""img/flower1.png"" style=""width:200px; border:14px solid green;"">","null","","","","","","","","",""
"","image-keyboard-response","10","30903","0.0-10.0","3PB5A5BD0WSM76SGXGEUPZMEIJAG7C","A2196WCNDZULFS","3JUDR1D0D6D4CARU3YX9Y3DK5DJ2QK","","792.7000000029802","img/flower4.png","75","793.6000000089407","2","1","3","2","1,0,0,1,1,0,1,0,1","0,1,0,0,1,1,1,1,0","3",""
"","html-keyboard-response","11","31204","0.0-11.0","3PB5A5BD0WSM76SGXGEUPZMEIJAG7C","A2196WCNDZULFS","3JUDR1D0D6D4CARU3YX9Y3DK5DJ2QK","","null","<img src=""img/flower4.png"" style=""width:200px; border:14px solid green;"">","null","","","","","","","","",""
"","image-keyboard-response","12","31753","0.0-12.0","3PB5A5BD0WSM76SGXGEUPZMEIJAG7C","A2196WCNDZULFS","3JUDR1D0D6D4CARU3YX9Y3DK5DJ2QK","","547.6000000089407","img/flower6.png","75","548.6000000089407","2","1","1","2","1,0,0,1,1,0,1,0,1","0,1,0,0,1,1,1,1,0","3",""
"","html-keyboard-response","13","32055","0.0-13.0","3PB5A5BD0WSM76SGXGEUPZMEIJAG7C","A2196WCNDZULFS","3JUDR1D0D6D4CARU3YX9Y3DK5DJ2QK","","null","<img src=""img/flower6.png"" style=""width:200px; border:14px solid green;"">","null","","","","","","","","",""
"","image-keyboard-response","14","32584","0.0-14.0","3PB5A5BD0WSM76SGXGEUPZMEIJAG7C","A2196WCNDZULFS","3JUDR1D0D6D4CARU3YX9Y3DK5DJ2QK","","528.1000000089407","img/flower1.png","75","529.2999999970198","2","1","2","2","1,0,0,1,1,0,1,0,1","0,1,0,0,1,1,1,1,0","3",""
"","html-keyboard-response","15","32886","0.0-15.0","3PB5A5BD0WSM76SGXGEUPZMEIJAG7C","A2196WCNDZULFS","3JUDR1D0D6D4CARU3YX9Y3DK5DJ2QK","","null","<img src=""img/flower1.png"" style=""width:200px; border:14px solid green;"">","null","","","","","","","","",""
"","image-keyboard-response","16","33312","0.0-16.0","3PB5A5BD0WSM76SGXGEUPZMEIJAG7C","A2196WCNDZULFS","3JUDR1D0D6D4CARU3YX9Y3DK5DJ2QK","","425.09999999403954","img/flower1.png","75","426.20000000298023","2","1","2","2","1,0,0,1,1,0,1,0,1","0,1,0,0,1,1,1,1,0","3",""
"","html-keyboard-response","17","33614","0.0-17.0","3PB5A5BD0WSM76SGXGEUPZMEIJAG7C","A2196WCNDZULFS","3JUDR1D0D6D4CARU3YX9Y3DK5DJ2QK","","null","<img src=""img/flower1.png"" style=""width:200px; border:14px solid green;"">","null","","","","","","","","",""
"","image-keyboard-response","18","34008","0.0-18.0","3PB5A5BD0WSM76SGXGEUPZMEIJAG7C","A2196WCNDZULFS","3JUDR1D0D6D4CARU3YX9Y3DK5DJ2QK","","392.6000000089407","img/flower6.png","75","393.59999999403954","2","1","1","2","1,0,0,1,1,0,1,0,1","0,1,0,0,1,1,1,1,0","3",""
"","html-keyboard-response","19","34310","0.0-19.0","3PB5A5BD0WSM76SGXGEUPZMEIJAG7C","A2196WCNDZULFS","3JUDR1D0D6D4CARU3YX9Y3DK5DJ2QK","","null","<img src=""img/flower6.png"" style=""width:200px; border:14px solid green;"">","null","","","","","","","","",""
"","image-keyboard-response","20","34647","0.0-20.0","3PB5A5BD0WSM76SGXGEUPZMEIJAG7C","A2196WCNDZULFS","3JUDR1D0D6D4CARU3YX9Y3DK5DJ2QK","","335.5","img/flower4.png","75","336.29999999701977","2","1","3","2","1,0,0,1,1,0,1,0,1","0,1,0,0,1,1,1,1,0","3",""
"","html-keyboard-response","21","34949","0.0-21.0","3PB5A5BD0WSM76SGXGEUPZMEIJAG7C","A2196WCNDZULFS","3JUDR1D0D6D4CARU3YX9Y3DK5DJ2QK","","null","<img src=""img/flower4.png"" style=""width:200px; border:14px solid green;"">","null","","","","","","","","",""
"","image-keyboard-response","22","35231","0.0-22.0","3PB5A5BD0WSM76SGXGEUPZMEIJAG7C","A2196WCNDZULFS","3JUDR1D0D6D4CARU3YX9Y3DK5DJ2QK","","281.79999999701977","img/flower4.png","75","282.6000000089407","2","1","3","2","1,0,0,1,1,0,1,0,1","0,1,0,0,1,1,1,1,0","3",""
"","html-keyboard-response","23","35534","0.0-23.0","3PB5A5BD0WSM76SGXGEUPZMEIJAG7C","A2196WCNDZULFS","3JUDR1D0D6D4CARU3YX9Y3DK5DJ2QK","","null","<img src=""img/flower4.png"" style=""width:200px; border:14px solid green;"">","null","","","","","","","","",""
"","image-keyboard-response","24","35865","0.0-24.0","3PB5A5BD0WSM76SGXGEUPZMEIJAG7C","A2196WCNDZULFS","3JUDR1D0D6D4CARU3YX9Y3DK5DJ2QK","","330.70000000298023","img/flower6.png","75","331.40000000596046","2","1","1","2","1,0,0,1,1,0,1,0,1","0,1,0,0,1,1,1,1,0","3",""
"","html-keyboard-response","25","36167","0.0-25.0","3PB5A5BD0WSM76SGXGEUPZMEIJAG7C","A2196WCNDZULFS","3JUDR1D0D6D4CARU3YX9Y3DK5DJ2QK","","null","<img src=""img/flower6.png"" style=""width:200px; border:14px solid green;"">","null","","","","","","","","",""
"","image-keyboard-response","26","36464","0.0-26.0","3PB5A5BD0WSM76SGXGEUPZMEIJAG7C","A2196WCNDZULFS","3JUDR1D0D6D4CARU3YX9Y3DK5DJ2QK","","296.20000000298023","img/flower4.png","75","296.90000000596046","2","1","3","2","1,0,0,1,1,0,1,0,1","0,1,0,0,1,1,1,1,0","3",""
"","html-keyboard-response","27","36765","0.0-27.0","3PB5A5BD0WSM76SGXGEUPZMEIJAG7C","A2196WCNDZULFS","3JUDR1D0D6D4CARU3YX9Y3DK5DJ2QK","","null","<img src=""img/flower4.png"" style=""width:200px; border:14px solid green;"">","null","","","","","","","","",""
"","image-keyboard-response","28","37088","0.0-28.0","3PB5A5BD0WSM76SGXGEUPZMEIJAG7C","A2196WCNDZULFS","3JUDR1D0D6D4CARU3YX9Y3DK5DJ2QK","","322","img/flower6.png","75","322.90000000596046","2","1","1","2","1,0,0,1,1,0,1,0,1","0,1,0,0,1,1,1,1,0","3",""
"","html-keyboard-response","29","37391","0.0-29.0","3PB5A5BD0WSM76SGXGEUPZMEIJAG7C","A2196WCNDZULFS","3JUDR1D0D6D4CARU3YX9Y3DK5DJ2QK","","null","<img src=""img/flower6.png"" style=""width:200px; border:14px solid green;"">","null","","","","","","","","",""
"","image-keyboard-response","30","37665","0.0-30.0","3PB5A5BD0WSM76SGXGEUPZMEIJAG7C","A2196WCNDZULFS","3JUDR1D0D6D4CARU3YX9Y3DK5DJ2QK","","273.5","img/flower4.png","75","274.20000000298023","2","1","3","2","1,0,0,1,1,0,1,0,1","0,1,0,0,1,1,1,1,0","3",""
"","html-keyboard-response","31","37967","0.0-31.0","3PB5A5BD0WSM76SGXGEUPZMEIJAG7C","A2196WCNDZULFS","3JUDR1D0D6D4CARU3YX9Y3DK5DJ2QK","","null","<img src=""img/flower4.png"" style=""width:200px; border:14px solid green;"">","null","","","","","","","","",""
"","image-keyboard-response","32","38248","0.0-32.0","3PB5A5BD0WSM76SGXGEUPZMEIJAG7C","A2196WCNDZULFS","3JUDR1D0D6D4CARU3YX9Y3DK5DJ2QK","","280.19999998807907","img/flower6.png","75","281.20000000298023","2","1","1","2","1,0,0,1,1,0,1,0,1","0,1,0,0,1,1,1,1,0","3",""
"","html-keyboard-response","33","38550","0.0-33.0","3PB5A5BD0WSM76SGXGEUPZMEIJAG7C","A2196WCNDZULFS","3JUDR1D0D6D4CARU3YX9Y3DK5DJ2QK","","null","<img src=""img/flower6.png"" style=""width:200px; border:14px solid green;"">","null","","","","","","","","",""
"","image-keyboard-response","34","38840","0.0-34.0","3PB5A5BD0WSM76SGXGEUPZMEIJAG7C","A2196WCNDZULFS","3JUDR1D0D6D4CARU3YX9Y3DK5DJ2QK","","288.59999999403954","img/flower6.png","75","289.59999999403954","2","1","1","2","1,0,0,1,1,0,1,0,1","0,1,0,0,1,1,1,1,0","3",""
"","html-keyboard-response","35","39141","0.0-35.0","3PB5A5BD0WSM76SGXGEUPZMEIJAG7C","A2196WCNDZULFS","3JUDR1D0D6D4CARU3YX9Y3DK5DJ2QK","","null","<img src=""img/flower6.png"" style=""width:200px; border:14px solid green;"">","null","","","","","","","","",""
"","image-keyboard-response","36","39424","0.0-36.0","3PB5A5BD0WSM76SGXGEUPZMEIJAG7C","A2196WCNDZULFS","3JUDR1D0D6D4CARU3YX9Y3DK5DJ2QK","","282","img/flower4.png","75","283.1000000089407","2","1","3","2","1,0,0,1,1,0,1,0,1","0,1,0,0,1,1,1,1,0","3",""
"","html-keyboard-response","37","39729","0.0-37.0","3PB5A5BD0WSM76SGXGEUPZMEIJAG7C","A2196WCNDZULFS","3JUDR1D0D6D4CARU3YX9Y3DK5DJ2QK","","null","<img src=""img/flower4.png"" style=""width:200px; border:14px solid green;"">","null","","","","","","","","",""
"","image-keyboard-response","38","40009","0.0-38.0","3PB5A5BD0WSM76SGXGEUPZMEIJAG7C","A2196WCNDZULFS","3JUDR1D0D6D4CARU3YX9Y3DK5DJ2QK","","279.5","img/flower1.png","75","280.70000000298023","2","1","2","2","1,0,0,1,1,0,1,0,1","0,1,0,0,1,1,1,1,0","3",""
"","html-keyboard-response","39","40312","0.0-39.0","3PB5A5BD0WSM76SGXGEUPZMEIJAG7C","A2196WCNDZULFS","3JUDR1D0D6D4CARU3YX9Y3DK5DJ2QK","","null","<img src=""img/flower1.png"" style=""width:200px; border:14px solid green;"">","null","","","","","","","","",""
"","image-keyboard-response","40","40544","0.0-40.0","3PB5A5BD0WSM76SGXGEUPZMEIJAG7C","A2196WCNDZULFS","3JUDR1D0D6D4CARU3YX9Y3DK5DJ2QK","","231","img/flower4.png","75","231.79999999701977","2","1","3","2","1,0,0,1,1,0,1,0,1","0,1,0,0,1,1,1,1,0","3",""
"","html-keyboard-response","41","40846","0.0-41.0","3PB5A5BD0WSM76SGXGEUPZMEIJAG7C","A2196WCNDZULFS","3JUDR1D0D6D4CARU3YX9Y3DK5DJ2QK","","null","<img src=""img/flower4.png"" style=""width:200px; border:14px solid green;"">","null","","","","","","","","",""
"","image-keyboard-response","42","41096","0.0-42.0","3PB5A5BD0WSM76SGXGEUPZMEIJAG7C","A2196WCNDZULFS","3JUDR1D0D6D4CARU3YX9Y3DK5DJ2QK","","249.59999999403954","img/flower6.png","75","250.09999999403954","2","1","1","2","1,0,0,1,1,0,1,0,1","0,1,0,0,1,1,1,1,0","3",""
"","html-keyboard-response","43","41398","0.0-43.0","3PB5A5BD0WSM76SGXGEUPZMEIJAG7C","A2196WCNDZULFS","3JUDR1D0D6D4CARU3YX9Y3DK5DJ2QK","","null","<img src=""img/flower6.png"" style=""width:200px; border:14px solid green;"">","null","","","","","","","","",""
"","image-keyboard-response","44","41640","0.0-44.0","3PB5A5BD0WSM76SGXGEUPZMEIJAG7C","A2196WCNDZULFS","3JUDR1D0D6D4CARU3YX9Y3DK5DJ2QK","","240.70000000298023","img/flower6.png","75","241.70000000298023","2","1","1","2","1,0,0,1,1,0,1,0,1","0,1,0,0,1,1,1,1,0","3",""
"","html-keyboard-response","45","41943","0.0-45.0","3PB5A5BD0WSM76SGXGEUPZMEIJAG7C","A2196WCNDZULFS","3JUDR1D0D6D4CARU3YX9Y3DK5DJ2QK","","null","<img src=""img/flower6.png"" style=""width:200px; border:14px solid green;"">","null","","","","","","","","",""
"","image-keyboard-response","46","42241","0.0-46.0","3PB5A5BD0WSM76SGXGEUPZMEIJAG7C","A2196WCNDZULFS","3JUDR1D0D6D4CARU3YX9Y3DK5DJ2QK","","296.80000001192093","img/flower6.png","75","298","2","1","1","2","1,0,0,1,1,0,1,0,1","0,1,0,0,1,1,1,1,0","3",""
"","html-keyboard-response","47","42543","0.0-47.0","3PB5A5BD0WSM76SGXGEUPZMEIJAG7C","A2196WCNDZULFS","3JUDR1D0D6D4CARU3YX9Y3DK5DJ2QK","","null","<img src=""img/flower6.png"" style=""width:200px; border:14px solid green;"">","null","","","","","","","","",""
"","image-keyboard-response","48","42769","0.0-48.0","3PB5A5BD0WSM76SGXGEUPZMEIJAG7C","A2196WCNDZULFS","3JUDR1D0D6D4CARU3YX9Y3DK5DJ2QK","","225","img/flower1.png","75","226","2","1","2","2","1,0,0,1,1,0,1,0,1","0,1,0,0,1,1,1,1,0","3",""
"","html-keyboard-response","49","43071","0.0-49.0","3PB5A5BD0WSM76SGXGEUPZMEIJAG7C","A2196WCNDZULFS","3JUDR1D0D6D4CARU3YX9Y3DK5DJ2QK","","null","<img src=""img/flower1.png"" style=""width:200px; border:14px solid green;"">","null","","","","","","","","",""
"","image-keyboard-response","50","43297","0.0-50.0","3PB5A5BD0WSM76SGXGEUPZMEIJAG7C","A2196WCNDZULFS","3JUDR1D0D6D4CARU3YX9Y3DK5DJ2QK","","225.3999999910593","img/flower6.png","75","226.40000000596046","2","1","1","2","1,0,0,1,1,0,1,0,1","0,1,0,0,1,1,1,1,0","3",""
"","html-keyboard-response","51","43599","0.0-51.0","3PB5A5BD0WSM76SGXGEUPZMEIJAG7C","A2196WCNDZULFS","3JUDR1D0D6D4CARU3YX9Y3DK5DJ2QK","","null","<img src=""img/flower6.png"" style=""width:200px; border:14px solid green;"">","null","","","","","","","","",""
"","image-keyboard-response","52","43784","0.0-52.0","3PB5A5BD0WSM76SGXGEUPZMEIJAG7C","A2196WCNDZULFS","3JUDR1D0D6D4CARU3YX9Y3DK5DJ2QK","","183.59999999403954","img/flower6.png","75","184.6000000089407","2","1","1","2","1,0,0,1,1,0,1,0,1","0,1,0,0,1,1,1,1,0","3",""
"","html-keyboard-response","53","44085","0.0-53.0","3PB5A5BD0WSM76SGXGEUPZMEIJAG7C","A2196WCNDZULFS","3JUDR1D0D6D4CARU3YX9Y3DK5DJ2QK","","null","<img src=""img/flower6.png"" style=""width:200px; border:14px solid green;"">","null","","","","","","","","",""
"","image-keyboard-response","54","44329","0.0-54.0","3PB5A5BD0WSM76SGXGEUPZMEIJAG7C","A2196WCNDZULFS","3JUDR1D0D6D4CARU3YX9Y3DK5DJ2QK","","242.59999999403954","img/flower1.png","75","243.70000000298023","2","1","2","2","1,0,0,1,1,0,1,0,1","0,1,0,0,1,1,1,1,0","3",""
"","html-keyboard-response","55","44631","0.0-55.0","3PB5A5BD0WSM76SGXGEUPZMEIJAG7C","A2196WCNDZULFS","3JUDR1D0D6D4CARU3YX9Y3DK5DJ2QK","","null","<img src=""img/flower1.png"" style=""width:200px; border:14px solid green;"">","null","","","","","","","","",""
"","image-keyboard-response","56","44799","0.0-56.0","3PB5A5BD0WSM76SGXGEUPZMEIJAG7C","A2196WCNDZULFS","3JUDR1D0D6D4CARU3YX9Y3DK5DJ2QK","","167.59999999403954","img/flower1.png","75","168.29999999701977","2","1","2","2","1,0,0,1,1,0,1,0,1","0,1,0,0,1,1,1,1,0","3",""
"","html-keyboard-response","57","45101","0.0-57.0","3PB5A5BD0WSM76SGXGEUPZMEIJAG7C","A2196WCNDZULFS","3JUDR1D0D6D4CARU3YX9Y3DK5DJ2QK","","null","<img src=""img/flower1.png"" style=""width:200px; border:14px solid green;"">","null","","","","","","","","",""
"","image-keyboard-response","58","45345","0.0-58.0","3PB5A5BD0WSM76SGXGEUPZMEIJAG7C","A2196WCNDZULFS","3JUDR1D0D6D4CARU3YX9Y3DK5DJ2QK","","243","img/flower6.png","75","243.90000000596046","2","1","1","2","1,0,0,1,1,0,1,0,1","0,1,0,0,1,1,1,1,0","3",""
"","html-keyboard-response","59","45648","0.0-59.0","3PB5A5BD0WSM76SGXGEUPZMEIJAG7C","A2196WCNDZULFS","3JUDR1D0D6D4CARU3YX9Y3DK5DJ2QK","","null","<img src=""img/flower6.png"" style=""width:200px; border:14px solid green;"">","null","","","","","","","","",""
"","image-keyboard-response","60","45848","0.0-60.0","3PB5A5BD0WSM76SGXGEUPZMEIJAG7C","A2196WCNDZULFS","3JUDR1D0D6D4CARU3YX9Y3DK5DJ2QK","","199.1000000089407","img/flower1.png","75","199.70000000298023","2","1","2","2","1,0,0,1,1,0,1,0,1","0,1,0,0,1,1,1,1,0","3",""
"","html-keyboard-response","61","46149","0.0-61.0","3PB5A5BD0WSM76SGXGEUPZMEIJAG7C","A2196WCNDZULFS","3JUDR1D0D6D4CARU3YX9Y3DK5DJ2QK","","null","<img src=""img/flower1.png"" style=""width:200px; border:14px solid green;"">","null","","","","","","","","",""
"","image-keyboard-response","62","46353","0.0-62.0","3PB5A5BD0WSM76SGXGEUPZMEIJAG7C","A2196WCNDZULFS","3JUDR1D0D6D4CARU3YX9Y3DK5DJ2QK","","203.3999999910593","img/flower6.png","75","204","2","1","1","2","1,0,0,1,1,0,1,0,1","0,1,0,0,1,1,1,1,0","3",""
"","html-keyboard-response","63","46655","0.0-63.0","3PB5A5BD0WSM76SGXGEUPZMEIJAG7C","A2196WCNDZULFS","3JUDR1D0D6D4CARU3YX9Y3DK5DJ2QK","","null","<img src=""img/flower6.png"" style=""width:200px; border:14px solid green;"">","null","","","","","","","","",""
"","image-keyboard-response","64","46832","0.0-64.0","3PB5A5BD0WSM76SGXGEUPZMEIJAG7C","A2196WCNDZULFS","3JUDR1D0D6D4CARU3YX9Y3DK5DJ2QK","","176.40000000596046","img/flower1.png","75","177.40000000596046","2","1","2","2","1,0,0,1,1,0,1,0,1","0,1,0,0,1,1,1,1,0","3",""
"","html-keyboard-response","65","47135","0.0-65.0","3PB5A5BD0WSM76SGXGEUPZMEIJAG7C","A2196WCNDZULFS","3JUDR1D0D6D4CARU3YX9Y3DK5DJ2QK","","null","<img src=""img/flower1.png"" style=""width:200px; border:14px solid green;"">","null","","","","","","","","",""
"","image-keyboard-response","66","47409","0.0-66.0","3PB5A5BD0WSM76SGXGEUPZMEIJAG7C","A2196WCNDZULFS","3JUDR1D0D6D4CARU3YX9Y3DK5DJ2QK","","272.40000000596046","img/flower1.png","75","273.40000000596046","2","1","2","2","1,0,0,1,1,0,1,0,1","0,1,0,0,1,1,1,1,0","3",""
"","html-keyboard-response","67","47710","0.0-67.0","3PB5A5BD0WSM76SGXGEUPZMEIJAG7C","A2196WCNDZULFS","3JUDR1D0D6D4CARU3YX9Y3DK5DJ2QK","","null","<img src=""img/flower1.png"" style=""width:200px; border:14px solid green;"">","null","","","","","","","","",""
"","image-keyboard-response","68","47904","0.0-68.0","3PB5A5BD0WSM76SGXGEUPZMEIJAG7C","A2196WCNDZULFS","3JUDR1D0D6D4CARU3YX9Y3DK5DJ2QK","","193.1000000089407","img/flower6.png","75","194.09999999403954","2","1","1","2","1,0,0,1,1,0,1,0,1","0,1,0,0,1,1,1,1,0","3",""
"","html-keyboard-response","69","48206","0.0-69.0","3PB5A5BD0WSM76SGXGEUPZMEIJAG7C","A2196WCNDZULFS","3JUDR1D0D6D4CARU3YX9Y3DK5DJ2QK","","null","<img src=""img/flower6.png"" style=""width:200px; border:14px solid green;"">","null","","","","","","","","",""
"","image-keyboard-response","70","48384","0.0-70.0","3PB5A5BD0WSM76SGXGEUPZMEIJAG7C","A2196WCNDZULFS","3JUDR1D0D6D4CARU3YX9Y3DK5DJ2QK","","176","img/flower6.png","75","177","2","1","1","2","1,0,0,1,1,0,1,0,1","0,1,0,0,1,1,1,1,0","3",""
"","html-keyboard-response","71","48689","0.0-71.0","3PB5A5BD0WSM76SGXGEUPZMEIJAG7C","A2196WCNDZULFS","3JUDR1D0D6D4CARU3YX9Y3DK5DJ2QK","","null","<img src=""img/flower6.png"" style=""width:200px; border:14px solid green;"">","null","","","","","","","","",""
"","image-keyboard-response","72","48872","0.0-72.0","3PB5A5BD0WSM76SGXGEUPZMEIJAG7C","A2196WCNDZULFS","3JUDR1D0D6D4CARU3YX9Y3DK5DJ2QK","","181.70000000298023","img/flower1.png","75","182.5","2","1","2","2","1,0,0,1,1,0,1,0,1","0,1,0,0,1,1,1,1,0","3",""
"","html-keyboard-response","73","49173","0.0-73.0","3PB5A5BD0WSM76SGXGEUPZMEIJAG7C","A2196WCNDZULFS","3JUDR1D0D6D4CARU3YX9Y3DK5DJ2QK","","null","<img src=""img/flower1.png"" style=""width:200px; border:14px solid green;"">","null","","","","","","","","",""
"","image-keyboard-response","74","49344","0.0-74.0","3PB5A5BD0WSM76SGXGEUPZMEIJAG7C","A2196WCNDZULFS","3JUDR1D0D6D4CARU3YX9Y3DK5DJ2QK","","169.90000000596046","img/flower4.png","75","170.59999999403954","2","1","3","2","1,0,0,1,1,0,1,0,1","0,1,0,0,1,1,1,1,0","3",""
"","html-keyboard-response","75","49646","0.0-75.0","3PB5A5BD0WSM76SGXGEUPZMEIJAG7C","A2196WCNDZULFS","3JUDR1D0D6D4CARU3YX9Y3DK5DJ2QK","","null","<img src=""img/flower4.png"" style=""width:200px; border:14px solid green;"">","null","","","","","","","","",""
"","image-keyboard-response","76","49817","0.0-76.0","3PB5A5BD0WSM76SGXGEUPZMEIJAG7C","A2196WCNDZULFS","3JUDR1D0D6D4CARU3YX9Y3DK5DJ2QK","","169.40000000596046","img/flower4.png","75","170.59999999403954","2","1","3","2","1,0,0,1,1,0,1,0,1","0,1,0,0,1,1,1,1,0","3",""
"","html-keyboard-response","77","50119","0.0-77.0","3PB5A5BD0WSM76SGXGEUPZMEIJAG7C","A2196WCNDZULFS","3JUDR1D0D6D4CARU3YX9Y3DK5DJ2QK","","null","<img src=""img/flower4.png"" style=""width:200px; border:14px solid green;"">","null","","","","","","","","",""
"","image-keyboard-response","78","50312","0.0-78.0","3PB5A5BD0WSM76SGXGEUPZMEIJAG7C","A2196WCNDZULFS","3JUDR1D0D6D4CARU3YX9Y3DK5DJ2QK","","192.70000000298023","img/flower6.png","75","193.40000000596046","2","1","1","2","1,0,0,1,1,0,1,0,1","0,1,0,0,1,1,1,1,0","3",""
"","html-keyboard-response","79","50618","0.0-79.0","3PB5A5BD0WSM76SGXGEUPZMEIJAG7C","A2196WCNDZULFS","3JUDR1D0D6D4CARU3YX9Y3DK5DJ2QK","","null","<img src=""img/flower6.png"" style=""width:200px; border:14px solid green;"">","null","","","","","","","","",""
"","image-keyboard-response","80","50792","0.0-80.0","3PB5A5BD0WSM76SGXGEUPZMEIJAG7C","A2196WCNDZULFS","3JUDR1D0D6D4CARU3YX9Y3DK5DJ2QK","","172.79999999701977","img/flower4.png","75","173.70000000298023","2","1","3","2","1,0,0,1,1,0,1,0,1","0,1,0,0,1,1,1,1,0","3",""
"","html-keyboard-response","81","51095","0.0-81.0","3PB5A5BD0WSM76SGXGEUPZMEIJAG7C","A2196WCNDZULFS","3JUDR1D0D6D4CARU3YX9Y3DK5DJ2QK","","null","<img src=""img/flower4.png"" style=""width:200px; border:14px solid green;"">","null","","","","","","","","",""
"","image-keyboard-response","82","51289","0.0-82.0","3PB5A5BD0WSM76SGXGEUPZMEIJAG7C","A2196WCNDZULFS","3JUDR1D0D6D4CARU3YX9Y3DK5DJ2QK","","193.09999999403954","img/flower6.png","75","194.30000001192093","2","1","1","2","1,0,0,1,1,0,1,0,1","0,1,0,0,1,1,1,1,0","3",""
"","html-keyboard-response","83","51592","0.0-83.0","3PB5A5BD0WSM76SGXGEUPZMEIJAG7C","A2196WCNDZULFS","3JUDR1D0D6D4CARU3YX9Y3DK5DJ2QK","","null","<img src=""img/flower6.png"" style=""width:200px; border:14px solid green;"">","null","","","","","","","","",""
"","image-keyboard-response","84","51785","0.0-84.0","3PB5A5BD0WSM76SGXGEUPZMEIJAG7C","A2196WCNDZULFS","3JUDR1D0D6D4CARU3YX9Y3DK5DJ2QK","","192.5","img/flower1.png","75","193.29999999701977","2","1","2","2","1,0,0,1,1,0,1,0,1","0,1,0,0,1,1,1,1,0","3",""
"","html-keyboard-response","85","52087","0.0-85.0","3PB5A5BD0WSM76SGXGEUPZMEIJAG7C","A2196WCNDZULFS","3JUDR1D0D6D4CARU3YX9Y3DK5DJ2QK","","null","<img src=""img/flower1.png"" style=""width:200px; border:14px solid green;"">","null","","","","","","","","",""
"","image-keyboard-response","86","52265","0.0-86.0","3PB5A5BD0WSM76SGXGEUPZMEIJAG7C","A2196WCNDZULFS","3JUDR1D0D6D4CARU3YX9Y3DK5DJ2QK","","176.40000000596046","img/flower6.png","75","177.6000000089407","2","1","1","2","1,0,0,1,1,0,1,0,1","0,1,0,0,1,1,1,1,0","3",""
"","html-keyboard-response","87","52567","0.0-87.0","3PB5A5BD0WSM76SGXGEUPZMEIJAG7C","A2196WCNDZULFS","3JUDR1D0D6D4CARU3YX9Y3DK5DJ2QK","","null","<img src=""img/flower6.png"" style=""width:200px; border:14px solid green;"">","null","","","","","","","","",""
"","image-keyboard-response","88","52752","0.0-88.0","3PB5A5BD0WSM76SGXGEUPZMEIJAG7C","A2196WCNDZULFS","3JUDR1D0D6D4CARU3YX9Y3DK5DJ2QK","","183.8999999910593","img/flower6.png","75","184.70000000298023","2","1","1","2","1,0,0,1,1,0,1,0,1","0,1,0,0,1,1,1,1,0","3",""
"","html-keyboard-response","89","53063","0.0-89.0","3PB5A5BD0WSM76SGXGEUPZMEIJAG7C","A2196WCNDZULFS","3JUDR1D0D6D4CARU3YX9Y3DK5DJ2QK","","null","<img src=""img/flower6.png"" style=""width:200px; border:14px solid green;"">","null","","","","","","","","",""
"","image-keyboard-response","90","53225","0.0-90.0","3PB5A5BD0WSM76SGXGEUPZMEIJAG7C","A2196WCNDZULFS","3JUDR1D0D6D4CARU3YX9Y3DK5DJ2QK","","161.59999999403954","img/flower6.png","75","162.20000000298023","2","1","1","2","1,0,0,1,1,0,1,0,1","0,1,0,0,1,1,1,1,0","3",""
"","html-keyboard-response","91","53526","0.0-91.0","3PB5A5BD0WSM76SGXGEUPZMEIJAG7C","A2196WCNDZULFS","3JUDR1D0D6D4CARU3YX9Y3DK5DJ2QK","","null","<img src=""img/flower6.png"" style=""width:200px; border:14px solid green;"">","null","","","","","","","","",""
"","image-keyboard-response","92","53697","0.0-92.0","3PB5A5BD0WSM76SGXGEUPZMEIJAG7C","A2196WCNDZULFS","3JUDR1D0D6D4CARU3YX9Y3DK5DJ2QK","","169.1000000089407","img/flower6.png","75","170.70000000298023","2","1","1","2","1,0,0,1,1,0,1,0,1","0,1,0,0,1,1,1,1,0","3",""
"","html-keyboard-response","93","53999","0.0-93.0","3PB5A5BD0WSM76SGXGEUPZMEIJAG7C","A2196WCNDZULFS","3JUDR1D0D6D4CARU3YX9Y3DK5DJ2QK","","null","<img src=""img/flower6.png"" style=""width:200px; border:14px solid green;"">","null","","","","","","","","",""
"","image-keyboard-response","94","54161","0.0-94.0","3PB5A5BD0WSM76SGXGEUPZMEIJAG7C","A2196WCNDZULFS","3JUDR1D0D6D4CARU3YX9Y3DK5DJ2QK","","160.30000001192093","img/flower6.png","75","161.5","2","1","1","2","1,0,0,1,1,0,1,0,1","0,1,0,0,1,1,1,1,0","3",""
"","html-keyboard-response","95","54463","0.0-95.0","3PB5A5BD0WSM76SGXGEUPZMEIJAG7C","A2196WCNDZULFS","3JUDR1D0D6D4CARU3YX9Y3DK5DJ2QK","","null","<img src=""img/flower6.png"" style=""width:200px; border:14px solid green;"">","null","","","","","","","","",""
"","image-keyboard-response","96","54648","0.0-96.0","3PB5A5BD0WSM76SGXGEUPZMEIJAG7C","A2196WCNDZULFS","3JUDR1D0D6D4CARU3YX9Y3DK5DJ2QK","","184.8999999910593","img/flower4.png","75","185.40000000596046","2","1","3","2","1,0,0,1,1,0,1,0,1","0,1,0,0,1,1,1,1,0","3",""
"","html-keyboard-response","97","54949","0.0-97.0","3PB5A5BD0WSM76SGXGEUPZMEIJAG7C","A2196WCNDZULFS","3JUDR1D0D6D4CARU3YX9Y3DK5DJ2QK","","null","<img src=""img/flower4.png"" style=""width:200px; border:14px solid green;"">","null","","","","","","","","",""
"","image-keyboard-response","98","55104","0.0-98.0","3PB5A5BD0WSM76SGXGEUPZMEIJAG7C","A2196WCNDZULFS","3JUDR1D0D6D4CARU3YX9Y3DK5DJ2QK","","153.59999999403954","img/flower4.png","75","154.59999999403954","2","1","3","2","1,0,0,1,1,0,1,0,1","0,1,0,0,1,1,1,1,0","3",""
"","html-keyboard-response","99","55407","0.0-99.0","3PB5A5BD0WSM76SGXGEUPZMEIJAG7C","A2196WCNDZULFS","3JUDR1D0D6D4CARU3YX9Y3DK5DJ2QK","","null","<img src=""img/flower4.png"" style=""width:200px; border:14px solid green;"">","null","","","","","","","","",""
"","image-keyboard-response","100","55569","0.0-100.0","3PB5A5BD0WSM76SGXGEUPZMEIJAG7C","A2196WCNDZULFS","3JUDR1D0D6D4CARU3YX9Y3DK5DJ2QK","","160.90000000596046","img/flower1.png","75","161.79999999701977","2","1","2","2","1,0,0,1,1,0,1,0,1","0,1,0,0,1,1,1,1,0","3",""
"","html-keyboard-response","101","55871","0.0-101.0","3PB5A5BD0WSM76SGXGEUPZMEIJAG7C","A2196WCNDZULFS","3JUDR1D0D6D4CARU3YX9Y3DK5DJ2QK","","null","<img src=""img/flower1.png"" style=""width:200px; border:14px solid green;"">","null","","","","","","","","",""
"","image-keyboard-response","102","56016","0.0-102.0","3PB5A5BD0WSM76SGXGEUPZMEIJAG7C","A2196WCNDZULFS","3JUDR1D0D6D4CARU3YX9Y3DK5DJ2QK","","144.29999999701977","img/flower1.png","75","145.09999999403954","2","1","2","2","1,0,0,1,1,0,1,0,1","0,1,0,0,1,1,1,1,0","3",""
"","html-keyboard-response","103","56319","0.0-103.0","3PB5A5BD0WSM76SGXGEUPZMEIJAG7C","A2196WCNDZULFS","3JUDR1D0D6D4CARU3YX9Y3DK5DJ2QK","","null","<img src=""img/flower1.png"" style=""width:200px; border:14px solid green;"">","null","","","","","","","","",""
"","image-keyboard-response","104","56481","0.0-104.0","3PB5A5BD0WSM76SGXGEUPZMEIJAG7C","A2196WCNDZULFS","3JUDR1D0D6D4CARU3YX9Y3DK5DJ2QK","","161","img/flower6.png","75","162","2","1","1","2","1,0,0,1,1,0,1,0,1","0,1,0,0,1,1,1,1,0","3",""
"","html-keyboard-response","105","56792","0.0-105.0","3PB5A5BD0WSM76SGXGEUPZMEIJAG7C","A2196WCNDZULFS","3JUDR1D0D6D4CARU3YX9Y3DK5DJ2QK","","null","<img src=""img/flower6.png"" style=""width:200px; border:14px solid green;"">","null","","","","","","","","",""
"","image-keyboard-response","106","56936","0.0-106.0","3PB5A5BD0WSM76SGXGEUPZMEIJAG7C","A2196WCNDZULFS","3JUDR1D0D6D4CARU3YX9Y3DK5DJ2QK","","142.79999999701977","img/flower6.png","75","143.40000000596046","2","1","1","2","1,0,0,1,1,0,1,0,1","0,1,0,0,1,1,1,1,0","3",""
"","html-keyboard-response","107","57238","0.0-107.0","3PB5A5BD0WSM76SGXGEUPZMEIJAG7C","A2196WCNDZULFS","3JUDR1D0D6D4CARU3YX9Y3DK5DJ2QK","","null","<img src=""img/flower6.png"" style=""width:200px; border:14px solid green;"">","null","","","","","","","","",""
"","image-keyboard-response","108","57393","0.0-108.0","3PB5A5BD0WSM76SGXGEUPZMEIJAG7C","A2196WCNDZULFS","3JUDR1D0D6D4CARU3YX9Y3DK5DJ2QK","","153.79999999701977","img/flower4.png","75","154.8999999910593","2","1","3","2","1,0,0,1,1,0,1,0,1","0,1,0,0,1,1,1,1,0","3",""
"","html-keyboard-response","109","57695","0.0-109.0","3PB5A5BD0WSM76SGXGEUPZMEIJAG7C","A2196WCNDZULFS","3JUDR1D0D6D4CARU3YX9Y3DK5DJ2QK","","null","<img src=""img/flower4.png"" style=""width:200px; border:14px solid green;"">","null","","","","","","","","",""
"","image-keyboard-response","110","57897","0.0-110.0","3PB5A5BD0WSM76SGXGEUPZMEIJAG7C","A2196WCNDZULFS","3JUDR1D0D6D4CARU3YX9Y3DK5DJ2QK","","201.1000000089407","img/flower4.png","75","202.20000000298023","2","1","3","2","1,0,0,1,1,0,1,0,1","0,1,0,0,1,1,1,1,0","3",""
"","html-keyboard-response","111","58203","0.0-111.0","3PB5A5BD0WSM76SGXGEUPZMEIJAG7C","A2196WCNDZULFS","3JUDR1D0D6D4CARU3YX9Y3DK5DJ2QK","","null","<img src=""img/flower4.png"" style=""width:200px; border:14px solid green;"">","null","","","","","","","","",""
"","image-keyboard-response","112","58357","0.0-112.0","3PB5A5BD0WSM76SGXGEUPZMEIJAG7C","A2196WCNDZULFS","3JUDR1D0D6D4CARU3YX9Y3DK5DJ2QK","","152.69999998807907","img/flower1.png","75","154","2","1","2","2","1,0,0,1,1,0,1,0,1","0,1,0,0,1,1,1,1,0","3",""
"","html-keyboard-response","113","58659","0.0-113.0","3PB5A5BD0WSM76SGXGEUPZMEIJAG7C","A2196WCNDZULFS","3JUDR1D0D6D4CARU3YX9Y3DK5DJ2QK","","null","<img src=""img/flower1.png"" style=""width:200px; border:14px solid green;"">","null","","","","","","","","",""
"","image-keyboard-response","114","58820","0.0-114.0","3PB5A5BD0WSM76SGXGEUPZMEIJAG7C","A2196WCNDZULFS","3JUDR1D0D6D4CARU3YX9Y3DK5DJ2QK","","159.3999999910593","img/flower6.png","75","160.6000000089407","2","1","1","2","1,0,0,1,1,0,1,0,1","0,1,0,0,1,1,1,1,0","3",""
"","html-keyboard-response","115","59122","0.0-115.0","3PB5A5BD0WSM76SGXGEUPZMEIJAG7C","A2196WCNDZULFS","3JUDR1D0D6D4CARU3YX9Y3DK5DJ2QK","","null","<img src=""img/flower6.png"" style=""width:200px; border:14px solid green;"">","null","","","","","","","","",""
"","image-keyboard-response","116","59252","0.0-116.0","3PB5A5BD0WSM76SGXGEUPZMEIJAG7C","A2196WCNDZULFS","3JUDR1D0D6D4CARU3YX9Y3DK5DJ2QK","","129.29999999701977","img/flower4.png","75","130.3999999910593","2","1","3","2","1,0,0,1,1,0,1,0,1","0,1,0,0,1,1,1,1,0","3",""
"","html-keyboard-response","117","59554","0.0-117.0","3PB5A5BD0WSM76SGXGEUPZMEIJAG7C","A2196WCNDZULFS","3JUDR1D0D6D4CARU3YX9Y3DK5DJ2QK","","null","<img src=""img/flower4.png"" style=""width:200px; border:14px solid green;"">","null","","","","","","","","",""
"","image-keyboard-response","118","59716","0.0-118.0","3PB5A5BD0WSM76SGXGEUPZMEIJAG7C","A2196WCNDZULFS","3JUDR1D0D6D4CARU3YX9Y3DK5DJ2QK","","160.80000001192093","img/flower4.png","75","161.79999999701977","2","1","3","2","1,0,0,1,1,0,1,0,1","0,1,0,0,1,1,1,1,0","3",""
"","html-keyboard-response","119","60018","0.0-119.0","3PB5A5BD0WSM76SGXGEUPZMEIJAG7C","A2196WCNDZULFS","3JUDR1D0D6D4CARU3YX9Y3DK5DJ2QK","","null","<img src=""img/flower4.png"" style=""width:200px; border:14px solid green;"">","null","","","","","","","","",""
"","image-keyboard-response","120","60188","0.0-120.0","3PB5A5BD0WSM76SGXGEUPZMEIJAG7C","A2196WCNDZULFS","3JUDR1D0D6D4CARU3YX9Y3DK5DJ2QK","","168.20000000298023","img/flower1.png","75","168.8999999910593","2","1","2","2","1,0,0,1,1,0,1,0,1","0,1,0,0,1,1,1,1,0","3",""
"","html-keyboard-response","121","60489","0.0-121.0","3PB5A5BD0WSM76SGXGEUPZMEIJAG7C","A2196WCNDZULFS","3JUDR1D0D6D4CARU3YX9Y3DK5DJ2QK","","null","<img src=""img/flower1.png"" style=""width:200px; border:14px solid green;"">","null","","","","","","","","",""
"","image-keyboard-response","122","60621","0.0-122.0","3PB5A5BD0WSM76SGXGEUPZMEIJAG7C","A2196WCNDZULFS","3JUDR1D0D6D4CARU3YX9Y3DK5DJ2QK","","130.30000001192093","img/flower4.png","75","131.20000000298023","2","1","3","2","1,0,0,1,1,0,1,0,1","0,1,0,0,1,1,1,1,0","3",""
"","html-keyboard-response","123","60923","0.0-123.0","3PB5A5BD0WSM76SGXGEUPZMEIJAG7C","A2196WCNDZULFS","3JUDR1D0D6D4CARU3YX9Y3DK5DJ2QK","","null","<img src=""img/flower4.png"" style=""width:200px; border:14px solid green;"">","null","","","","","","","","",""
"","image-keyboard-response","124","61068","0.0-124.0","3PB5A5BD0WSM76SGXGEUPZMEIJAG7C","A2196WCNDZULFS","3JUDR1D0D6D4CARU3YX9Y3DK5DJ2QK","","144","img/flower1.png","75","144.70000000298023","2","1","2","2","1,0,0,1,1,0,1,0,1","0,1,0,0,1,1,1,1,0","3",""
"","html-keyboard-response","125","61369","0.0-125.0","3PB5A5BD0WSM76SGXGEUPZMEIJAG7C","A2196WCNDZULFS","3JUDR1D0D6D4CARU3YX9Y3DK5DJ2QK","","null","<img src=""img/flower1.png"" style=""width:200px; border:14px solid green;"">","null","","","","","","","","",""
"","image-keyboard-response","126","61540","0.0-126.0","3PB5A5BD0WSM76SGXGEUPZMEIJAG7C","A2196WCNDZULFS","3JUDR1D0D6D4CARU3YX9Y3DK5DJ2QK","","169.20000000298023","img/flower4.png","75","170.40000000596046","2","1","3","2","1,0,0,1,1,0,1,0,1","0,1,0,0,1,1,1,1,0","3",""
"","html-keyboard-response","127","61842","0.0-127.0","3PB5A5BD0WSM76SGXGEUPZMEIJAG7C","A2196WCNDZULFS","3JUDR1D0D6D4CARU3YX9Y3DK5DJ2QK","","null","<img src=""img/flower4.png"" style=""width:200px; border:14px solid green;"">","null","","","","","","","","",""
"","image-keyboard-response","128","62013","0.0-128.0","3PB5A5BD0WSM76SGXGEUPZMEIJAG7C","A2196WCNDZULFS","3JUDR1D0D6D4CARU3YX9Y3DK5DJ2QK","","169.40000000596046","img/flower4.png","75","170.69999998807907","2","1","3","2","1,0,0,1,1,0,1,0,1","0,1,0,0,1,1,1,1,0","3",""
"","html-keyboard-response","129","62315","0.0-129.0","3PB5A5BD0WSM76SGXGEUPZMEIJAG7C","A2196WCNDZULFS","3JUDR1D0D6D4CARU3YX9Y3DK5DJ2QK","","null","<img src=""img/flower4.png"" style=""width:200px; border:14px solid green;"">","null","","","","","","","","",""
"","image-keyboard-response","130","62444","0.0-130.0","3PB5A5BD0WSM76SGXGEUPZMEIJAG7C","A2196WCNDZULFS","3JUDR1D0D6D4CARU3YX9Y3DK5DJ2QK","","127.80000001192093","img/flower6.png","75","128.70000000298023","2","1","1","2","1,0,0,1,1,0,1,0,1","0,1,0,0,1,1,1,1,0","3",""
"","html-keyboard-response","131","62746","0.0-131.0","3PB5A5BD0WSM76SGXGEUPZMEIJAG7C","A2196WCNDZULFS","3JUDR1D0D6D4CARU3YX9Y3DK5DJ2QK","","null","<img src=""img/flower6.png"" style=""width:200px; border:14px solid green;"">","null","","","","","","","","",""
"","image-keyboard-response","132","62907","0.0-132.0","3PB5A5BD0WSM76SGXGEUPZMEIJAG7C","A2196WCNDZULFS","3JUDR1D0D6D4CARU3YX9Y3DK5DJ2QK","","159.70000000298023","img/flower4.png","75","160.70000000298023","2","1","3","2","1,0,0,1,1,0,1,0,1","0,1,0,0,1,1,1,1,0","3",""
"","html-keyboard-response","133","63209","0.0-133.0","3PB5A5BD0WSM76SGXGEUPZMEIJAG7C","A2196WCNDZULFS","3JUDR1D0D6D4CARU3YX9Y3DK5DJ2QK","","null","<img src=""img/flower4.png"" style=""width:200px; border:14px solid green;"">","null","","","","","","","","",""
"","image-keyboard-response","134","63364","0.0-134.0","3PB5A5BD0WSM76SGXGEUPZMEIJAG7C","A2196WCNDZULFS","3JUDR1D0D6D4CARU3YX9Y3DK5DJ2QK","","153.90000000596046","img/flower4.png","75","155.20000000298023","2","1","3","2","1,0,0,1,1,0,1,0,1","0,1,0,0,1,1,1,1,0","3",""
"","html-keyboard-response","135","63666","0.0-135.0","3PB5A5BD0WSM76SGXGEUPZMEIJAG7C","A2196WCNDZULFS","3JUDR1D0D6D4CARU3YX9Y3DK5DJ2QK","","null","<img src=""img/flower4.png"" style=""width:200px; border:14px solid green;"">","null","","","","","","","","",""
"","image-keyboard-response","136","63779","0.0-136.0","3PB5A5BD0WSM76SGXGEUPZMEIJAG7C","A2196WCNDZULFS","3JUDR1D0D6D4CARU3YX9Y3DK5DJ2QK","","112.40000000596046","img/flower6.png","75","113.09999999403954","2","1","1","2","1,0,0,1,1,0,1,0,1","0,1,0,0,1,1,1,1,0","3",""
"","html-keyboard-response","137","64095","0.0-137.0","3PB5A5BD0WSM76SGXGEUPZMEIJAG7C","A2196WCNDZULFS","3JUDR1D0D6D4CARU3YX9Y3DK5DJ2QK","","null","<img src=""img/flower6.png"" style=""width:200px; border:14px solid green;"">","null","","","","","","","","",""
"","image-keyboard-response","138","64244","0.0-138.0","3PB5A5BD0WSM76SGXGEUPZMEIJAG7C","A2196WCNDZULFS","3JUDR1D0D6D4CARU3YX9Y3DK5DJ2QK","","147.5","img/flower1.png","75","148.5","2","1","2","2","1,0,0,1,1,0,1,0,1","0,1,0,0,1,1,1,1,0","3",""
"","html-keyboard-response","139","64546","0.0-139.0","3PB5A5BD0WSM76SGXGEUPZMEIJAG7C","A2196WCNDZULFS","3JUDR1D0D6D4CARU3YX9Y3DK5DJ2QK","","null","<img src=""img/flower1.png"" style=""width:200px; border:14px solid green;"">","null","","","","","","","","",""
"","image-keyboard-response","140","64669","0.0-140.0","3PB5A5BD0WSM76SGXGEUPZMEIJAG7C","A2196WCNDZULFS","3JUDR1D0D6D4CARU3YX9Y3DK5DJ2QK","","121.20000000298023","img/flower4.png","75","122.3999999910593","2","1","3","2","1,0,0,1,1,0,1,0,1","0,1,0,0,1,1,1,1,0","3",""
"","html-keyboard-response","141","64970","0.0-141.0","3PB5A5BD0WSM76SGXGEUPZMEIJAG7C","A2196WCNDZULFS","3JUDR1D0D6D4CARU3YX9Y3DK5DJ2QK","","null","<img src=""img/flower4.png"" style=""width:200px; border:14px solid green;"">","null","","","","","","","","",""
"","image-keyboard-response","142","65125","0.0-142.0","3PB5A5BD0WSM76SGXGEUPZMEIJAG7C","A2196WCNDZULFS","3JUDR1D0D6D4CARU3YX9Y3DK5DJ2QK","","153.79999999701977","img/flower4.png","75","155","2","1","3","2","1,0,0,1,1,0,1,0,1","0,1,0,0,1,1,1,1,0","3",""
"","html-keyboard-response","143","65428","0.0-143.0","3PB5A5BD0WSM76SGXGEUPZMEIJAG7C","A2196WCNDZULFS","3JUDR1D0D6D4CARU3YX9Y3DK5DJ2QK","","null","<img src=""img/flower4.png"" style=""width:200px; border:14px solid green;"">","null","","","","","","","","",""
"","image-keyboard-response","144","65539","0.0-144.0","3PB5A5BD0WSM76SGXGEUPZMEIJAG7C","A2196WCNDZULFS","3JUDR1D0D6D4CARU3YX9Y3DK5DJ2QK","","110.40000000596046","img/flower4.png","75","111.29999999701977","2","1","3","2","1,0,0,1,1,0,1,0,1","0,1,0,0,1,1,1,1,0","3",""
"","html-keyboard-response","145","65840","0.0-145.0","3PB5A5BD0WSM76SGXGEUPZMEIJAG7C","A2196WCNDZULFS","3JUDR1D0D6D4CARU3YX9Y3DK5DJ2QK","","null","<img src=""img/flower4.png"" style=""width:200px; border:14px solid green;"">","null","","","","","","","","",""
"","image-keyboard-response","146","65948","0.0-146.0","3PB5A5BD0WSM76SGXGEUPZMEIJAG7C","A2196WCNDZULFS","3JUDR1D0D6D4CARU3YX9Y3DK5DJ2QK","","105.70000000298023","img/flower4.png","75","106.90000000596046","2","1","3","2","1,0,0,1,1,0,1,0,1","0,1,0,0,1,1,1,1,0","3",""
"","html-keyboard-response","147","66249","0.0-147.0","3PB5A5BD0WSM76SGXGEUPZMEIJAG7C","A2196WCNDZULFS","3JUDR1D0D6D4CARU3YX9Y3DK5DJ2QK","","null","<img src=""img/flower4.png"" style=""width:200px; border:14px solid green;"">","null","","","","","","","","",""
"","image-keyboard-response","148","66389","0.0-148.0","3PB5A5BD0WSM76SGXGEUPZMEIJAG7C","A2196WCNDZULFS","3JUDR1D0D6D4CARU3YX9Y3DK5DJ2QK","","137.3999999910593","img/flower4.png","75","138.90000000596046","2","1","3","2","1,0,0,1,1,0,1,0,1","0,1,0,0,1,1,1,1,0","3",""
"","html-keyboard-response","149","66691","0.0-149.0","3PB5A5BD0WSM76SGXGEUPZMEIJAG7C","A2196WCNDZULFS","3JUDR1D0D6D4CARU3YX9Y3DK5DJ2QK","","null","<img src=""img/flower4.png"" style=""width:200px; border:14px solid green;"">","null","","","","","","","","",""
"","image-keyboard-response","150","66779","0.0-150.0","3PB5A5BD0WSM76SGXGEUPZMEIJAG7C","A2196WCNDZULFS","3JUDR1D0D6D4CARU3YX9Y3DK5DJ2QK","","88.19999998807907","img/flower4.png","75","88.70000000298023","2","1","3","2","1,0,0,1,1,0,1,0,1","0,1,0,0,1,1,1,1,0","3",""
"","html-keyboard-response","151","67081","0.0-151.0","3PB5A5BD0WSM76SGXGEUPZMEIJAG7C","A2196WCNDZULFS","3JUDR1D0D6D4CARU3YX9Y3DK5DJ2QK","","null","<img src=""img/flower4.png"" style=""width:200px; border:14px solid green;"">","null","","","","","","","","",""
"","image-keyboard-response","152","67219","0.0-152.0","3PB5A5BD0WSM76SGXGEUPZMEIJAG7C","A2196WCNDZULFS","3JUDR1D0D6D4CARU3YX9Y3DK5DJ2QK","","136.79999999701977","img/flower1.png","75","137.79999999701977","2","1","2","2","1,0,0,1,1,0,1,0,1","0,1,0,0,1,1,1,1,0","3",""
"","html-keyboard-response","153","67520","0.0-153.0","3PB5A5BD0WSM76SGXGEUPZMEIJAG7C","A2196WCNDZULFS","3JUDR1D0D6D4CARU3YX9Y3DK5DJ2QK","","null","<img src=""img/flower1.png"" style=""width:200px; border:14px solid green;"">","null","","","","","","","","",""
"","image-keyboard-response","154","67619","0.0-154.0","3PB5A5BD0WSM76SGXGEUPZMEIJAG7C","A2196WCNDZULFS","3JUDR1D0D6D4CARU3YX9Y3DK5DJ2QK","","98.09999999403954","img/flower4.png","75","99.29999999701977","2","1","3","2","1,0,0,1,1,0,1,0,1","0,1,0,0,1,1,1,1,0","3",""
"","html-keyboard-response","155","67921","0.0-155.0","3PB5A5BD0WSM76SGXGEUPZMEIJAG7C","A2196WCNDZULFS","3JUDR1D0D6D4CARU3YX9Y3DK5DJ2QK","","null","<img src=""img/flower4.png"" style=""width:200px; border:14px solid green;"">","null","","","","","","","","",""
"","image-keyboard-response","156","68051","0.0-156.0","3PB5A5BD0WSM76SGXGEUPZMEIJAG7C","A2196WCNDZULFS","3JUDR1D0D6D4CARU3YX9Y3DK5DJ2QK","","129.59999999403954","img/flower6.png","75","130.40000000596046","2","1","1","2","1,0,0,1,1,0,1,0,1","0,1,0,0,1,1,1,1,0","3",""
"","html-keyboard-response","157","68354","0.0-157.0","3PB5A5BD0WSM76SGXGEUPZMEIJAG7C","A2196WCNDZULFS","3JUDR1D0D6D4CARU3YX9Y3DK5DJ2QK","","null","<img src=""img/flower6.png"" style=""width:200px; border:14px solid green;"">","null","","","","","","","","",""
"","image-keyboard-response","158","68460","0.0-158.0","3PB5A5BD0WSM76SGXGEUPZMEIJAG7C","A2196WCNDZULFS","3JUDR1D0D6D4CARU3YX9Y3DK5DJ2QK","","104.79999999701977","img/flower1.png","75","105.5","2","1","2","2","1,0,0,1,1,0,1,0,1","0,1,0,0,1,1,1,1,0","3",""
"","html-keyboard-response","159","68761","0.0-159.0","3PB5A5BD0WSM76SGXGEUPZMEIJAG7C","A2196WCNDZULFS","3JUDR1D0D6D4CARU3YX9Y3DK5DJ2QK","","null","<img src=""img/flower1.png"" style=""width:200px; border:14px solid green;"">","null","","","","","","","","",""
"","image-keyboard-response","160","68860","0.0-160.0","3PB5A5BD0WSM76SGXGEUPZMEIJAG7C","A2196WCNDZULFS","3JUDR1D0D6D4CARU3YX9Y3DK5DJ2QK","","97.19999998807907","img/flower6.png","75","98.40000000596046","2","1","1","2","1,0,0,1,1,0,1,0,1","0,1,0,0,1,1,1,1,0","3",""
"","html-keyboard-response","161","69161","0.0-161.0","3PB5A5BD0WSM76SGXGEUPZMEIJAG7C","A2196WCNDZULFS","3JUDR1D0D6D4CARU3YX9Y3DK5DJ2QK","","null","<img src=""img/flower6.png"" style=""width:200px; border:14px solid green;"">","null","","","","","","","","",""
"","image-keyboard-response","162","69300","0.0-162.0","3PB5A5BD0WSM76SGXGEUPZMEIJAG7C","A2196WCNDZULFS","3JUDR1D0D6D4CARU3YX9Y3DK5DJ2QK","","137.79999999701977","img/flower1.png","75","138.79999999701977","2","1","2","2","1,0,0,1,1,0,1,0,1","0,1,0,0,1,1,1,1,0","3",""
"","html-keyboard-response","163","69602","0.0-163.0","3PB5A5BD0WSM76SGXGEUPZMEIJAG7C","A2196WCNDZULFS","3JUDR1D0D6D4CARU3YX9Y3DK5DJ2QK","","null","<img src=""img/flower1.png"" style=""width:200px; border:14px solid green;"">","null","","","","","","","","",""
"","image-keyboard-response","164","69725","0.0-164.0","3PB5A5BD0WSM76SGXGEUPZMEIJAG7C","A2196WCNDZULFS","3JUDR1D0D6D4CARU3YX9Y3DK5DJ2QK","","120.90000000596046","img/flower1.png","75","122","2","1","2","2","1,0,0,1,1,0,1,0,1","0,1,0,0,1,1,1,1,0","3",""
"","html-keyboard-response","165","70028","0.0-165.0","3PB5A5BD0WSM76SGXGEUPZMEIJAG7C","A2196WCNDZULFS","3JUDR1D0D6D4CARU3YX9Y3DK5DJ2QK","","null","<img src=""img/flower1.png"" style=""width:200px; border:14px solid green;"">","null","","","","","","","","",""
"","image-keyboard-response","166","70157","0.0-166.0","3PB5A5BD0WSM76SGXGEUPZMEIJAG7C","A2196WCNDZULFS","3JUDR1D0D6D4CARU3YX9Y3DK5DJ2QK","","127.70000000298023","img/flower1.png","75","128.8999999910593","2","1","2","2","1,0,0,1,1,0,1,0,1","0,1,0,0,1,1,1,1,0","3",""
"","html-keyboard-response","167","70458","0.0-167.0","3PB5A5BD0WSM76SGXGEUPZMEIJAG7C","A2196WCNDZULFS","3JUDR1D0D6D4CARU3YX9Y3DK5DJ2QK","","null","<img src=""img/flower1.png"" style=""width:200px; border:14px solid green;"">","null","","","","","","","","",""
"","image-keyboard-response","168","70613","0.0-168.0","3PB5A5BD0WSM76SGXGEUPZMEIJAG7C","A2196WCNDZULFS","3JUDR1D0D6D4CARU3YX9Y3DK5DJ2QK","","153.70000000298023","img/flower1.png","75","154.5","2","1","2","2","1,0,0,1,1,0,1,0,1","0,1,0,0,1,1,1,1,0","3",""
"","html-keyboard-response","169","70915","0.0-169.0","3PB5A5BD0WSM76SGXGEUPZMEIJAG7C","A2196WCNDZULFS","3JUDR1D0D6D4CARU3YX9Y3DK5DJ2QK","","null","<img src=""img/flower1.png"" style=""width:200px; border:14px solid green;"">","null","","","","","","","","",""
"","image-keyboard-response","170","70947","0.0-170.0","3PB5A5BD0WSM76SGXGEUPZMEIJAG7C","A2196WCNDZULFS","3JUDR1D0D6D4CARU3YX9Y3DK5DJ2QK","","31.600000008940697","img/flower1.png","75","32.29999999701977","2","1","2","2","1,0,0,1,1,0,1,0,1","0,1,0,0,1,1,1,1,0","3",""
"","html-keyboard-response","171","71249","0.0-171.0","3PB5A5BD0WSM76SGXGEUPZMEIJAG7C","A2196WCNDZULFS","3JUDR1D0D6D4CARU3YX9Y3DK5DJ2QK","","null","<img src=""img/flower1.png"" style=""width:200px; border:14px solid green;"">","null","","","","","","","","",""
"","image-keyboard-response","172","71348","0.0-172.0","3PB5A5BD0WSM76SGXGEUPZMEIJAG7C","A2196WCNDZULFS","3JUDR1D0D6D4CARU3YX9Y3DK5DJ2QK","","98.5","img/flower6.png","75","99.29999999701977","2","1","1","2","1,0,0,1,1,0,1,0,1","0,1,0,0,1,1,1,1,0","3",""
"","html-keyboard-response","173","71650","0.0-173.0","3PB5A5BD0WSM76SGXGEUPZMEIJAG7C","A2196WCNDZULFS","3JUDR1D0D6D4CARU3YX9Y3DK5DJ2QK","","null","<img src=""img/flower6.png"" style=""width:200px; border:14px solid green;"">","null","","","","","","","","",""
"","image-keyboard-response","174","71756","0.0-174.0","3PB5A5BD0WSM76SGXGEUPZMEIJAG7C","A2196WCNDZULFS","3JUDR1D0D6D4CARU3YX9Y3DK5DJ2QK","","104.70000000298023","img/flower1.png","75","105.70000000298023","2","1","2","2","1,0,0,1,1,0,1,0,1","0,1,0,0,1,1,1,1,0","3",""
"","html-keyboard-response","175","72058","0.0-175.0","3PB5A5BD0WSM76SGXGEUPZMEIJAG7C","A2196WCNDZULFS","3JUDR1D0D6D4CARU3YX9Y3DK5DJ2QK","","null","<img src=""img/flower1.png"" style=""width:200px; border:14px solid green;"">","null","","","","","","","","",""
"","image-keyboard-response","176","72139","0.0-176.0","3PB5A5BD0WSM76SGXGEUPZMEIJAG7C","A2196WCNDZULFS","3JUDR1D0D6D4CARU3YX9Y3DK5DJ2QK","","80.09999999403954","img/flower1.png","75","81.20000000298023","2","1","2","2","1,0,0,1,1,0,1,0,1","0,1,0,0,1,1,1,1,0","3",""
"","html-keyboard-response","177","72441","0.0-177.0","3PB5A5BD0WSM76SGXGEUPZMEIJAG7C","A2196WCNDZULFS","3JUDR1D0D6D4CARU3YX9Y3DK5DJ2QK","","null","<img src=""img/flower1.png"" style=""width:200px; border:14px solid green;"">","null","","","","","","","","",""
"","image-keyboard-response","178","72540","0.0-178.0","3PB5A5BD0WSM76SGXGEUPZMEIJAG7C","A2196WCNDZULFS","3JUDR1D0D6D4CARU3YX9Y3DK5DJ2QK","","98","img/flower1.png","75","98.5","2","1","2","2","1,0,0,1,1,0,1,0,1","0,1,0,0,1,1,1,1,0","3",""
"","html-keyboard-response","179","72841","0.0-179.0","3PB5A5BD0WSM76SGXGEUPZMEIJAG7C","A2196WCNDZULFS","3JUDR1D0D6D4CARU3YX9Y3DK5DJ2QK","","null","<img src=""img/flower1.png"" style=""width:200px; border:14px solid green;"">","null","","","","","","","","",""
"","image-keyboard-response","180","72956","0.0-180.0","3PB5A5BD0WSM76SGXGEUPZMEIJAG7C","A2196WCNDZULFS","3JUDR1D0D6D4CARU3YX9Y3DK5DJ2QK","","114.70000000298023","img/flower4.png","75","115.3999999910593","2","1","3","2","1,0,0,1,1,0,1,0,1","0,1,0,0,1,1,1,1,0","3",""
"","html-keyboard-response","181","73258","0.0-181.0","3PB5A5BD0WSM76SGXGEUPZMEIJAG7C","A2196WCNDZULFS","3JUDR1D0D6D4CARU3YX9Y3DK5DJ2QK","","null","<img src=""img/flower4.png"" style=""width:200px; border:14px solid green;"">","null","","","","","","","","",""
"","image-keyboard-response","182","73349","0.0-182.0","3PB5A5BD0WSM76SGXGEUPZMEIJAG7C","A2196WCNDZULFS","3JUDR1D0D6D4CARU3YX9Y3DK5DJ2QK","","90.20000000298023","img/flower5.png","75","90.79999999701977","2","0","3","1","1,0.333,0.333,0.333,1,0.333,0.333,0.333,1","1,0.333,0.333,0.333,1,0.333,0.333,0.333,1","1",""
"","html-keyboard-response","183","73651","0.0-183.0","3PB5A5BD0WSM76SGXGEUPZMEIJAG7C","A2196WCNDZULFS","3JUDR1D0D6D4CARU3YX9Y3DK5DJ2QK","","null","<img src=""img/flower5.png"" style=""width:200px;border:14px solid red;"">","null","","","","","","","","",""
"","image-keyboard-response","184","73741","0.0-184.0","3PB5A5BD0WSM76SGXGEUPZMEIJAG7C","A2196WCNDZULFS","3JUDR1D0D6D4CARU3YX9Y3DK5DJ2QK","","88.40000000596046","img/flower5.png","75","89.40000000596046","2","1","3","1","1,0.333,0.333,0.333,1,0.333,0.333,0.333,1","1,0.333,0.333,0.333,1,0.333,0.333,0.333,1","1",""
"","html-keyboard-response","185","74043","0.0-185.0","3PB5A5BD0WSM76SGXGEUPZMEIJAG7C","A2196WCNDZULFS","3JUDR1D0D6D4CARU3YX9Y3DK5DJ2QK","","null","<img src=""img/flower5.png"" style=""width:200px; border:14px solid green;"">","null","","","","","","","","",""
"","image-keyboard-response","186","74387","0.0-186.0","3PB5A5BD0WSM76SGXGEUPZMEIJAG7C","A2196WCNDZULFS","3JUDR1D0D6D4CARU3YX9Y3DK5DJ2QK","","342.8999999910593","img/flower3.png","75","343.90000000596046","2","1","2","1","1,0.333,0.333,0.333,1,0.333,0.333,0.333,1","1,0.333,0.333,0.333,1,0.333,0.333,0.333,1","1",""
"","html-keyboard-response","187","74688","0.0-187.0","3PB5A5BD0WSM76SGXGEUPZMEIJAG7C","A2196WCNDZULFS","3JUDR1D0D6D4CARU3YX9Y3DK5DJ2QK","","null","<img src=""img/flower3.png"" style=""width:200px; border:14px solid green;"">","null","","","","","","","","",""
"","image-keyboard-response","188","74779","0.0-188.0","3PB5A5BD0WSM76SGXGEUPZMEIJAG7C","A2196WCNDZULFS","3JUDR1D0D6D4CARU3YX9Y3DK5DJ2QK","","90.40000000596046","img/flower3.png","75","91","2","1","2","1","1,0.333,0.333,0.333,1,0.333,0.333,0.333,1","1,0.333,0.333,0.333,1,0.333,0.333,0.333,1","1",""
"","html-keyboard-response","189","75081","0.0-189.0","3PB5A5BD0WSM76SGXGEUPZMEIJAG7C","A2196WCNDZULFS","3JUDR1D0D6D4CARU3YX9Y3DK5DJ2QK","","null","<img src=""img/flower3.png"" style=""width:200px; border:14px solid green;"">","null","","","","","","","","",""
"","image-keyboard-response","190","75219","0.0-190.0","3PB5A5BD0WSM76SGXGEUPZMEIJAG7C","A2196WCNDZULFS","3JUDR1D0D6D4CARU3YX9Y3DK5DJ2QK","","137.20000000298023","img/flower3.png","75","138.3999999910593","2","1","2","1","1,0.333,0.333,0.333,1,0.333,0.333,0.333,1","1,0.333,0.333,0.333,1,0.333,0.333,0.333,1","1",""
"","html-keyboard-response","191","75521","0.0-191.0","3PB5A5BD0WSM76SGXGEUPZMEIJAG7C","A2196WCNDZULFS","3JUDR1D0D6D4CARU3YX9Y3DK5DJ2QK","","null","<img src=""img/flower3.png"" style=""width:200px; border:14px solid green;"">","null","","","","","","","","",""
"","image-keyboard-response","192","75668","0.0-192.0","3PB5A5BD0WSM76SGXGEUPZMEIJAG7C","A2196WCNDZULFS","3JUDR1D0D6D4CARU3YX9Y3DK5DJ2QK","","146","img/flower2.png","75","147","2","0","1","1","1,0.333,0.333,0.333,1,0.333,0.333,0.333,1","1,0.333,0.333,0.333,1,0.333,0.333,0.333,1","1",""
"","html-keyboard-response","193","75970","0.0-193.0","3PB5A5BD0WSM76SGXGEUPZMEIJAG7C","A2196WCNDZULFS","3JUDR1D0D6D4CARU3YX9Y3DK5DJ2QK","","null","<img src=""img/flower2.png"" style=""width:200px;border:14px solid red;"">","null","","","","","","","","",""
"","image-keyboard-response","194","76100","0.0-194.0","3PB5A5BD0WSM76SGXGEUPZMEIJAG7C","A2196WCNDZULFS","3JUDR1D0D6D4CARU3YX9Y3DK5DJ2QK","","129.29999999701977","img/flower2.png","75","131.79999999701977","2","0","1","1","1,0.333,0.333,0.333,1,0.333,0.333,0.333,1","1,0.333,0.333,0.333,1,0.333,0.333,0.333,1","1",""
"","html-keyboard-response","195","76404","0.0-195.0","3PB5A5BD0WSM76SGXGEUPZMEIJAG7C","A2196WCNDZULFS","3JUDR1D0D6D4CARU3YX9Y3DK5DJ2QK","","null","<img src=""img/flower2.png"" style=""width:200px;border:14px solid red;"">","null","","","","","","","","",""
"","image-keyboard-response","196","76539","0.0-196.0","3PB5A5BD0WSM76SGXGEUPZMEIJAG7C","A2196WCNDZULFS","3JUDR1D0D6D4CARU3YX9Y3DK5DJ2QK","","134.6000000089407","img/flower3.png","75","135.29999999701977","2","1","2","1","1,0.333,0.333,0.333,1,0.333,0.333,0.333,1","1,0.333,0.333,0.333,1,0.333,0.333,0.333,1","1",""
"","html-keyboard-response","197","76841","0.0-197.0","3PB5A5BD0WSM76SGXGEUPZMEIJAG7C","A2196WCNDZULFS","3JUDR1D0D6D4CARU3YX9Y3DK5DJ2QK","","null","<img src=""img/flower3.png"" style=""width:200px; border:14px solid green;"">","null","","","","","","","","",""
"","image-keyboard-response","198","76971","0.0-198.0","3PB5A5BD0WSM76SGXGEUPZMEIJAG7C","A2196WCNDZULFS","3JUDR1D0D6D4CARU3YX9Y3DK5DJ2QK","","129.5","img/flower2.png","75","130.29999999701977","2","0","1","1","1,0.333,0.333,0.333,1,0.333,0.333,0.333,1","1,0.333,0.333,0.333,1,0.333,0.333,0.333,1","1",""
"","html-keyboard-response","199","77272","0.0-199.0","3PB5A5BD0WSM76SGXGEUPZMEIJAG7C","A2196WCNDZULFS","3JUDR1D0D6D4CARU3YX9Y3DK5DJ2QK","","null","<img src=""img/flower2.png"" style=""width:200px;border:14px solid red;"">","null","","","","","","","","",""
"","image-keyboard-response","200","77420","0.0-200.0","3PB5A5BD0WSM76SGXGEUPZMEIJAG7C","A2196WCNDZULFS","3JUDR1D0D6D4CARU3YX9Y3DK5DJ2QK","","146.1000000089407","img/flower5.png","75","147.29999999701977","2","1","3","1","1,0.333,0.333,0.333,1,0.333,0.333,0.333,1","1,0.333,0.333,0.333,1,0.333,0.333,0.333,1","1",""
"","html-keyboard-response","201","77721","0.0-201.0","3PB5A5BD0WSM76SGXGEUPZMEIJAG7C","A2196WCNDZULFS","3JUDR1D0D6D4CARU3YX9Y3DK5DJ2QK","","null","<img src=""img/flower5.png"" style=""width:200px; border:14px solid green;"">","null","","","","","","","","",""
"","image-keyboard-response","202","78212","0.0-202.0","3PB5A5BD0WSM76SGXGEUPZMEIJAG7C","A2196WCNDZULFS","3JUDR1D0D6D4CARU3YX9Y3DK5DJ2QK","","489.90000000596046","img/flower2.png","75","491","2","1","1","1","1,0.333,0.333,0.333,1,0.333,0.333,0.333,1","1,0.333,0.333,0.333,1,0.333,0.333,0.333,1","1",""
"","html-keyboard-response","203","78515","0.0-203.0","3PB5A5BD0WSM76SGXGEUPZMEIJAG7C","A2196WCNDZULFS","3JUDR1D0D6D4CARU3YX9Y3DK5DJ2QK","","null","<img src=""img/flower2.png"" style=""width:200px; border:14px solid green;"">","null","","","","","","","","",""
"","image-keyboard-response","204","78835","0.0-204.0","3PB5A5BD0WSM76SGXGEUPZMEIJAG7C","A2196WCNDZULFS","3JUDR1D0D6D4CARU3YX9Y3DK5DJ2QK","","319.79999999701977","img/flower3.png","75","320.40000000596046","2","1","2","1","1,0.333,0.333,0.333,1,0.333,0.333,0.333,1","1,0.333,0.333,0.333,1,0.333,0.333,0.333,1","1",""
"","html-keyboard-response","205","79136","0.0-205.0","3PB5A5BD0WSM76SGXGEUPZMEIJAG7C","A2196WCNDZULFS","3JUDR1D0D6D4CARU3YX9Y3DK5DJ2QK","","null","<img src=""img/flower3.png"" style=""width:200px; border:14px solid green;"">","null","","","","","","","","",""
"","image-keyboard-response","206","79429","0.0-206.0","3PB5A5BD0WSM76SGXGEUPZMEIJAG7C","A2196WCNDZULFS","3JUDR1D0D6D4CARU3YX9Y3DK5DJ2QK","","292.59999999403954","img/flower5.png","75","293.1000000089407","2","0","3","1","1,0.333,0.333,0.333,1,0.333,0.333,0.333,1","1,0.333,0.333,0.333,1,0.333,0.333,0.333,1","1",""
"","html-keyboard-response","207","79736","0.0-207.0","3PB5A5BD0WSM76SGXGEUPZMEIJAG7C","A2196WCNDZULFS","3JUDR1D0D6D4CARU3YX9Y3DK5DJ2QK","","null","<img src=""img/flower5.png"" style=""width:200px;border:14px solid red;"">","null","","","","","","","","",""
"","image-keyboard-response","208","80044","0.0-208.0","3PB5A5BD0WSM76SGXGEUPZMEIJAG7C","A2196WCNDZULFS","3JUDR1D0D6D4CARU3YX9Y3DK5DJ2QK","","306.79999999701977","img/flower2.png","75","307.90000000596046","2","0","1","1","1,0.333,0.333,0.333,1,0.333,0.333,0.333,1","1,0.333,0.333,0.333,1,0.333,0.333,0.333,1","1",""
"","html-keyboard-response","209","80347","0.0-209.0","3PB5A5BD0WSM76SGXGEUPZMEIJAG7C","A2196WCNDZULFS","3JUDR1D0D6D4CARU3YX9Y3DK5DJ2QK","","null","<img src=""img/flower2.png"" style=""width:200px;border:14px solid red;"">","null","","","","","","","","",""
"","image-keyboard-response","210","80867","0.0-210.0","3PB5A5BD0WSM76SGXGEUPZMEIJAG7C","A2196WCNDZULFS","3JUDR1D0D6D4CARU3YX9Y3DK5DJ2QK","","519.9000000059605","img/flower5.png","75","520.3999999910593","2","1","3","1","1,0.333,0.333,0.333,1,0.333,0.333,0.333,1","1,0.333,0.333,0.333,1,0.333,0.333,0.333,1","1",""
"","html-keyboard-response","211","81169","0.0-211.0","3PB5A5BD0WSM76SGXGEUPZMEIJAG7C","A2196WCNDZULFS","3JUDR1D0D6D4CARU3YX9Y3DK5DJ2QK","","null","<img src=""img/flower5.png"" style=""width:200px; border:14px solid green;"">","null","","","","","","","","",""
"","image-keyboard-response","212","81563","0.0-212.0","3PB5A5BD0WSM76SGXGEUPZMEIJAG7C","A2196WCNDZULFS","3JUDR1D0D6D4CARU3YX9Y3DK5DJ2QK","","393.29999999701977","img/flower5.png","75","394.20000000298023","2","1","3","1","1,0.333,0.333,0.333,1,0.333,0.333,0.333,1","1,0.333,0.333,0.333,1,0.333,0.333,0.333,1","1",""
"","html-keyboard-response","213","81865","0.0-213.0","3PB5A5BD0WSM76SGXGEUPZMEIJAG7C","A2196WCNDZULFS","3JUDR1D0D6D4CARU3YX9Y3DK5DJ2QK","","null","<img src=""img/flower5.png"" style=""width:200px; border:14px solid green;"">","null","","","","","","","","",""
"","image-keyboard-response","214","82261","0.0-214.0","3PB5A5BD0WSM76SGXGEUPZMEIJAG7C","A2196WCNDZULFS","3JUDR1D0D6D4CARU3YX9Y3DK5DJ2QK","","395.20000000298023","img/flower5.png","75","396","2","1","3","1","1,0.333,0.333,0.333,1,0.333,0.333,0.333,1","1,0.333,0.333,0.333,1,0.333,0.333,0.333,1","1",""
"","html-keyboard-response","215","82563","0.0-215.0","3PB5A5BD0WSM76SGXGEUPZMEIJAG7C","A2196WCNDZULFS","3JUDR1D0D6D4CARU3YX9Y3DK5DJ2QK","","null","<img src=""img/flower5.png"" style=""width:200px; border:14px solid green;"">","null","","","","","","","","",""
"","image-keyboard-response","216","83221","0.0-216.0","3PB5A5BD0WSM76SGXGEUPZMEIJAG7C","A2196WCNDZULFS","3JUDR1D0D6D4CARU3YX9Y3DK5DJ2QK","","656.2000000029802","img/flower3.png","74","657.2999999970198","1","0","2","1","1,0.333,0.333,0.333,1,0.333,0.333,0.333,1","1,0.333,0.333,0.333,1,0.333,0.333,0.333,1","1",""
"","html-keyboard-response","217","83523","0.0-217.0","3PB5A5BD0WSM76SGXGEUPZMEIJAG7C","A2196WCNDZULFS","3JUDR1D0D6D4CARU3YX9Y3DK5DJ2QK","","null","<img src=""img/flower3.png"" style=""width:200px;border:14px solid red;"">","null","","","","","","","","",""
"","image-keyboard-response","218","83947","0.0-218.0","3PB5A5BD0WSM76SGXGEUPZMEIJAG7C","A2196WCNDZULFS","3JUDR1D0D6D4CARU3YX9Y3DK5DJ2QK","","423.5","img/flower5.png","75","424.09999999403954","2","0","3","1","1,0.333,0.333,0.333,1,0.333,0.333,0.333,1","1,0.333,0.333,0.333,1,0.333,0.333,0.333,1","1",""
"","html-keyboard-response","219","84248","0.0-219.0","3PB5A5BD0WSM76SGXGEUPZMEIJAG7C","A2196WCNDZULFS","3JUDR1D0D6D4CARU3YX9Y3DK5DJ2QK","","null","<img src=""img/flower5.png"" style=""width:200px;border:14px solid red;"">","null","","","","","","","","",""
"","image-keyboard-response","220","84773","0.0-220.0","3PB5A5BD0WSM76SGXGEUPZMEIJAG7C","A2196WCNDZULFS","3JUDR1D0D6D4CARU3YX9Y3DK5DJ2QK","","523.5","img/flower2.png","75","524.2999999970198","2","1","1","1","1,0.333,0.333,0.333,1,0.333,0.333,0.333,1","1,0.333,0.333,0.333,1,0.333,0.333,0.333,1","1",""
"","html-keyboard-response","221","85074","0.0-221.0","3PB5A5BD0WSM76SGXGEUPZMEIJAG7C","A2196WCNDZULFS","3JUDR1D0D6D4CARU3YX9Y3DK5DJ2QK","","null","<img src=""img/flower2.png"" style=""width:200px; border:14px solid green;"">","null","","","","","","","","",""
"","image-keyboard-response","222","85430","0.0-222.0","3PB5A5BD0WSM76SGXGEUPZMEIJAG7C","A2196WCNDZULFS","3JUDR1D0D6D4CARU3YX9Y3DK5DJ2QK","","354.5","img/flower2.png","75","355.59999999403954","2","0","1","1","1,0.333,0.333,0.333,1,0.333,0.333,0.333,1","1,0.333,0.333,0.333,1,0.333,0.333,0.333,1","1",""
"","html-keyboard-response","223","85731","0.0-223.0","3PB5A5BD0WSM76SGXGEUPZMEIJAG7C","A2196WCNDZULFS","3JUDR1D0D6D4CARU3YX9Y3DK5DJ2QK","","null","<img src=""img/flower2.png"" style=""width:200px;border:14px solid red;"">","null","","","","","","","","",""
"","image-keyboard-response","224","86397","0.0-224.0","3PB5A5BD0WSM76SGXGEUPZMEIJAG7C","A2196WCNDZULFS","3JUDR1D0D6D4CARU3YX9Y3DK5DJ2QK","","664.7000000029802","img/flower3.png","75","665.8999999910593","2","1","2","1","1,0.333,0.333,0.333,1,0.333,0.333,0.333,1","1,0.333,0.333,0.333,1,0.333,0.333,0.333,1","1",""
"","html-keyboard-response","225","86699","0.0-225.0","3PB5A5BD0WSM76SGXGEUPZMEIJAG7C","A2196WCNDZULFS","3JUDR1D0D6D4CARU3YX9Y3DK5DJ2QK","","null","<img src=""img/flower3.png"" style=""width:200px; border:14px solid green;"">","null","","","","","","","","",""
"","image-keyboard-response","226","87228","0.0-226.0","3PB5A5BD0WSM76SGXGEUPZMEIJAG7C","A2196WCNDZULFS","3JUDR1D0D6D4CARU3YX9Y3DK5DJ2QK","","527.7999999970198","img/flower5.png","75","528.6999999880791","2","1","3","1","1,0.333,0.333,0.333,1,0.333,0.333,0.333,1","1,0.333,0.333,0.333,1,0.333,0.333,0.333,1","1",""
"","html-keyboard-response","227","87529","0.0-227.0","3PB5A5BD0WSM76SGXGEUPZMEIJAG7C","A2196WCNDZULFS","3JUDR1D0D6D4CARU3YX9Y3DK5DJ2QK","","null","<img src=""img/flower5.png"" style=""width:200px; border:14px solid green;"">","null","","","","","","","","",""
"","image-keyboard-response","228","88069","0.0-228.0","3PB5A5BD0WSM76SGXGEUPZMEIJAG7C","A2196WCNDZULFS","3JUDR1D0D6D4CARU3YX9Y3DK5DJ2QK","","538.9000000059605","img/flower2.png","75","540","2","1","1","1","1,0.333,0.333,0.333,1,0.333,0.333,0.333,1","1,0.333,0.333,0.333,1,0.333,0.333,0.333,1","1",""
"","html-keyboard-response","229","88371","0.0-229.0","3PB5A5BD0WSM76SGXGEUPZMEIJAG7C","A2196WCNDZULFS","3JUDR1D0D6D4CARU3YX9Y3DK5DJ2QK","","null","<img src=""img/flower2.png"" style=""width:200px; border:14px solid green;"">","null","","","","","","","","",""
"","image-keyboard-response","230","88845","0.0-230.0","3PB5A5BD0WSM76SGXGEUPZMEIJAG7C","A2196WCNDZULFS","3JUDR1D0D6D4CARU3YX9Y3DK5DJ2QK","","472.80000001192093","img/flower2.png","75","473.90000000596046","2","0","1","1","1,0.333,0.333,0.333,1,0.333,0.333,0.333,1","1,0.333,0.333,0.333,1,0.333,0.333,0.333,1","1",""
"","html-keyboard-response","231","89147","0.0-231.0","3PB5A5BD0WSM76SGXGEUPZMEIJAG7C","A2196WCNDZULFS","3JUDR1D0D6D4CARU3YX9Y3DK5DJ2QK","","null","<img src=""img/flower2.png"" style=""width:200px;border:14px solid red;"">","null","","","","","","","","",""
"","image-keyboard-response","232","89628","0.0-232.0","3PB5A5BD0WSM76SGXGEUPZMEIJAG7C","A2196WCNDZULFS","3JUDR1D0D6D4CARU3YX9Y3DK5DJ2QK","","480.19999998807907","img/flower5.png","75","481.1000000089407","2","1","3","1","1,0.333,0.333,0.333,1,0.333,0.333,0.333,1","1,0.333,0.333,0.333,1,0.333,0.333,0.333,1","1",""
"","html-keyboard-response","233","89930","0.0-233.0","3PB5A5BD0WSM76SGXGEUPZMEIJAG7C","A2196WCNDZULFS","3JUDR1D0D6D4CARU3YX9Y3DK5DJ2QK","","null","<img src=""img/flower5.png"" style=""width:200px; border:14px solid green;"">","null","","","","","","","","",""
"","image-keyboard-response","234","90395","0.0-234.0","3PB5A5BD0WSM76SGXGEUPZMEIJAG7C","A2196WCNDZULFS","3JUDR1D0D6D4CARU3YX9Y3DK5DJ2QK","","464.29999999701977","img/flower5.png","75","465.09999999403954","2","1","3","1","1,0.333,0.333,0.333,1,0.333,0.333,0.333,1","1,0.333,0.333,0.333,1,0.333,0.333,0.333,1","1",""
"","html-keyboard-response","235","90698","0.0-235.0","3PB5A5BD0WSM76SGXGEUPZMEIJAG7C","A2196WCNDZULFS","3JUDR1D0D6D4CARU3YX9Y3DK5DJ2QK","","null","<img src=""img/flower5.png"" style=""width:200px; border:14px solid green;"">","null","","","","","","","","",""
"","image-keyboard-response","236","91205","0.0-236.0","3PB5A5BD0WSM76SGXGEUPZMEIJAG7C","A2196WCNDZULFS","3JUDR1D0D6D4CARU3YX9Y3DK5DJ2QK","","506.40000000596046","img/flower2.png","75","507.5","2","1","1","1","1,0.333,0.333,0.333,1,0.333,0.333,0.333,1","1,0.333,0.333,0.333,1,0.333,0.333,0.333,1","1",""
"","html-keyboard-response","237","91507","0.0-237.0","3PB5A5BD0WSM76SGXGEUPZMEIJAG7C","A2196WCNDZULFS","3JUDR1D0D6D4CARU3YX9Y3DK5DJ2QK","","null","<img src=""img/flower2.png"" style=""width:200px; border:14px solid green;"">","null","","","","","","","","",""
"","image-keyboard-response","238","91924","0.0-238.0","3PB5A5BD0WSM76SGXGEUPZMEIJAG7C","A2196WCNDZULFS","3JUDR1D0D6D4CARU3YX9Y3DK5DJ2QK","","417.1000000089407","img/flower3.png","75","417.70000000298023","2","1","2","1","1,0.333,0.333,0.333,1,0.333,0.333,0.333,1","1,0.333,0.333,0.333,1,0.333,0.333,0.333,1","1",""
"","html-keyboard-response","239","92227","0.0-239.0","3PB5A5BD0WSM76SGXGEUPZMEIJAG7C","A2196WCNDZULFS","3JUDR1D0D6D4CARU3YX9Y3DK5DJ2QK","","null","<img src=""img/flower3.png"" style=""width:200px; border:14px solid green;"">","null","","","","","","","","",""
"","image-keyboard-response","240","92677","0.0-240.0","3PB5A5BD0WSM76SGXGEUPZMEIJAG7C","A2196WCNDZULFS","3JUDR1D0D6D4CARU3YX9Y3DK5DJ2QK","","449.30000001192093","img/flower5.png","75","450.20000000298023","2","0","3","1","1,0.333,0.333,0.333,1,0.333,0.333,0.333,1","1,0.333,0.333,0.333,1,0.333,0.333,0.333,1","1",""
"","html-keyboard-response","241","92979","0.0-241.0","3PB5A5BD0WSM76SGXGEUPZMEIJAG7C","A2196WCNDZULFS","3JUDR1D0D6D4CARU3YX9Y3DK5DJ2QK","","null","<img src=""img/flower5.png"" style=""width:200px;border:14px solid red;"">","null","","","","","","","","",""
"","image-keyboard-response","242","93476","0.0-242.0","3PB5A5BD0WSM76SGXGEUPZMEIJAG7C","A2196WCNDZULFS","3JUDR1D0D6D4CARU3YX9Y3DK5DJ2QK","","496.5","img/flower2.png","75","497","2","0","1","1","1,0.333,0.333,0.333,1,0.333,0.333,0.333,1","1,0.333,0.333,0.333,1,0.333,0.333,0.333,1","1",""
"","html-keyboard-response","243","93778","0.0-243.0","3PB5A5BD0WSM76SGXGEUPZMEIJAG7C","A2196WCNDZULFS","3JUDR1D0D6D4CARU3YX9Y3DK5DJ2QK","","null","<img src=""img/flower2.png"" style=""width:200px;border:14px solid red;"">","null","","","","","","","","",""
"","image-keyboard-response","244","94196","0.0-244.0","3PB5A5BD0WSM76SGXGEUPZMEIJAG7C","A2196WCNDZULFS","3JUDR1D0D6D4CARU3YX9Y3DK5DJ2QK","","416.59999999403954","img/flower3.png","75","417.69999998807907","2","1","2","1","1,0.333,0.333,0.333,1,0.333,0.333,0.333,1","1,0.333,0.333,0.333,1,0.333,0.333,0.333,1","1",""
"","html-keyboard-response","245","94497","0.0-245.0","3PB5A5BD0WSM76SGXGEUPZMEIJAG7C","A2196WCNDZULFS","3JUDR1D0D6D4CARU3YX9Y3DK5DJ2QK","","null","<img src=""img/flower3.png"" style=""width:200px; border:14px solid green;"">","null","","","","","","","","",""
"","image-keyboard-response","246","94980","0.0-246.0","3PB5A5BD0WSM76SGXGEUPZMEIJAG7C","A2196WCNDZULFS","3JUDR1D0D6D4CARU3YX9Y3DK5DJ2QK","","481.59999999403954","img/flower2.png","75","482.30000001192093","2","0","1","1","1,0.333,0.333,0.333,1,0.333,0.333,0.333,1","1,0.333,0.333,0.333,1,0.333,0.333,0.333,1","1",""
"","html-keyboard-response","247","95282","0.0-247.0","3PB5A5BD0WSM76SGXGEUPZMEIJAG7C","A2196WCNDZULFS","3JUDR1D0D6D4CARU3YX9Y3DK5DJ2QK","","null","<img src=""img/flower2.png"" style=""width:200px;border:14px solid red;"">","null","","","","","","","","",""
"","image-keyboard-response","248","95757","0.0-248.0","3PB5A5BD0WSM76SGXGEUPZMEIJAG7C","A2196WCNDZULFS","3JUDR1D0D6D4CARU3YX9Y3DK5DJ2QK","","473.79999999701977","img/flower3.png","75","474.90000000596046","2","1","2","1","1,0.333,0.333,0.333,1,0.333,0.333,0.333,1","1,0.333,0.333,0.333,1,0.333,0.333,0.333,1","1",""
"","html-keyboard-response","249","96059","0.0-249.0","3PB5A5BD0WSM76SGXGEUPZMEIJAG7C","A2196WCNDZULFS","3JUDR1D0D6D4CARU3YX9Y3DK5DJ2QK","","null","<img src=""img/flower3.png"" style=""width:200px; border:14px solid green;"">","null","","","","","","","","",""
"","image-keyboard-response","250","96525","0.0-250.0","3PB5A5BD0WSM76SGXGEUPZMEIJAG7C","A2196WCNDZULFS","3JUDR1D0D6D4CARU3YX9Y3DK5DJ2QK","","464.5","img/flower3.png","75","465.59999999403954","2","1","2","1","1,0.333,0.333,0.333,1,0.333,0.333,0.333,1","1,0.333,0.333,0.333,1,0.333,0.333,0.333,1","1",""
"","html-keyboard-response","251","96827","0.0-251.0","3PB5A5BD0WSM76SGXGEUPZMEIJAG7C","A2196WCNDZULFS","3JUDR1D0D6D4CARU3YX9Y3DK5DJ2QK","","null","<img src=""img/flower3.png"" style=""width:200px; border:14px solid green;"">","null","","","","","","","","",""
"","image-keyboard-response","252","97301","0.0-252.0","3PB5A5BD0WSM76SGXGEUPZMEIJAG7C","A2196WCNDZULFS","3JUDR1D0D6D4CARU3YX9Y3DK5DJ2QK","","472.59999999403954","img/flower3.png","75","473.20000000298023","2","1","2","1","1,0.333,0.333,0.333,1,0.333,0.333,0.333,1","1,0.333,0.333,0.333,1,0.333,0.333,0.333,1","1",""
"","html-keyboard-response","253","97603","0.0-253.0","3PB5A5BD0WSM76SGXGEUPZMEIJAG7C","A2196WCNDZULFS","3JUDR1D0D6D4CARU3YX9Y3DK5DJ2QK","","null","<img src=""img/flower3.png"" style=""width:200px; border:14px solid green;"">","null","","","","","","","","",""
"","image-keyboard-response","254","98005","0.0-254.0","3PB5A5BD0WSM76SGXGEUPZMEIJAG7C","A2196WCNDZULFS","3JUDR1D0D6D4CARU3YX9Y3DK5DJ2QK","","401.20000000298023","img/flower3.png","75","402","2","1","2","1","1,0.333,0.333,0.333,1,0.333,0.333,0.333,1","1,0.333,0.333,0.333,1,0.333,0.333,0.333,1","1",""
"","html-keyboard-response","255","98307","0.0-255.0","3PB5A5BD0WSM76SGXGEUPZMEIJAG7C","A2196WCNDZULFS","3JUDR1D0D6D4CARU3YX9Y3DK5DJ2QK","","null","<img src=""img/flower3.png"" style=""width:200px; border:14px solid green;"">","null","","","","","","","","",""
"","image-keyboard-response","256","98765","0.0-256.0","3PB5A5BD0WSM76SGXGEUPZMEIJAG7C","A2196WCNDZULFS","3JUDR1D0D6D4CARU3YX9Y3DK5DJ2QK","","456.8999999910593","img/flower2.png","75","457.5","2","1","1","1","1,0.333,0.333,0.333,1,0.333,0.333,0.333,1","1,0.333,0.333,0.333,1,0.333,0.333,0.333,1","1",""
"","html-keyboard-response","257","99066","0.0-257.0","3PB5A5BD0WSM76SGXGEUPZMEIJAG7C","A2196WCNDZULFS","3JUDR1D0D6D4CARU3YX9Y3DK5DJ2QK","","null","<img src=""img/flower2.png"" style=""width:200px; border:14px solid green;"">","null","","","","","","","","",""
"","image-keyboard-response","258","99444","0.0-258.0","3PB5A5BD0WSM76SGXGEUPZMEIJAG7C","A2196WCNDZULFS","3JUDR1D0D6D4CARU3YX9Y3DK5DJ2QK","","377.40000000596046","img/flower5.png","75","378.19999998807907","2","0","3","1","1,0.333,0.333,0.333,1,0.333,0.333,0.333,1","1,0.333,0.333,0.333,1,0.333,0.333,0.333,1","1",""
"","html-keyboard-response","259","99745","0.0-259.0","3PB5A5BD0WSM76SGXGEUPZMEIJAG7C","A2196WCNDZULFS","3JUDR1D0D6D4CARU3YX9Y3DK5DJ2QK","","null","<img src=""img/flower5.png"" style=""width:200px;border:14px solid red;"">","null","","","","","","","","",""
"","image-keyboard-response","260","100182","0.0-260.0","3PB5A5BD0WSM76SGXGEUPZMEIJAG7C","A2196WCNDZULFS","3JUDR1D0D6D4CARU3YX9Y3DK5DJ2QK","","435.19999998807907","img/flower2.png","75","436.1000000089407","2","1","1","1","1,0.333,0.333,0.333,1,0.333,0.333,0.333,1","1,0.333,0.333,0.333,1,0.333,0.333,0.333,1","1",""
"","html-keyboard-response","261","100484","0.0-261.0","3PB5A5BD0WSM76SGXGEUPZMEIJAG7C","A2196WCNDZULFS","3JUDR1D0D6D4CARU3YX9Y3DK5DJ2QK","","null","<img src=""img/flower2.png"" style=""width:200px; border:14px solid green;"">","null","","","","","","","","",""
"","image-keyboard-response","262","100869","0.0-262.0","3PB5A5BD0WSM76SGXGEUPZMEIJAG7C","A2196WCNDZULFS","3JUDR1D0D6D4CARU3YX9Y3DK5DJ2QK","","383.1000000089407","img/flower5.png","75","384.29999999701977","2","1","3","1","1,0.333,0.333,0.333,1,0.333,0.333,0.333,1","1,0.333,0.333,0.333,1,0.333,0.333,0.333,1","1",""
"","html-keyboard-response","263","101170","0.0-263.0","3PB5A5BD0WSM76SGXGEUPZMEIJAG7C","A2196WCNDZULFS","3JUDR1D0D6D4CARU3YX9Y3DK5DJ2QK","","null","<img src=""img/flower5.png"" style=""width:200px; border:14px solid green;"">","null","","","","","","","","",""
"","image-keyboard-response","264","101565","0.0-264.0","3PB5A5BD0WSM76SGXGEUPZMEIJAG7C","A2196WCNDZULFS","3JUDR1D0D6D4CARU3YX9Y3DK5DJ2QK","","393.5","img/flower2.png","75","394.5","2","1","1","1","1,0.333,0.333,0.333,1,0.333,0.333,0.333,1","1,0.333,0.333,0.333,1,0.333,0.333,0.333,1","1",""
"","html-keyboard-response","265","101867","0.0-265.0","3PB5A5BD0WSM76SGXGEUPZMEIJAG7C","A2196WCNDZULFS","3JUDR1D0D6D4CARU3YX9Y3DK5DJ2QK","","null","<img src=""img/flower2.png"" style=""width:200px; border:14px solid green;"">","null","","","","","","","","",""
"","image-keyboard-response","266","102246","0.0-266.0","3PB5A5BD0WSM76SGXGEUPZMEIJAG7C","A2196WCNDZULFS","3JUDR1D0D6D4CARU3YX9Y3DK5DJ2QK","","377.79999999701977","img/flower2.png","75","379","2","0","1","1","1,0.333,0.333,0.333,1,0.333,0.333,0.333,1","1,0.333,0.333,0.333,1,0.333,0.333,0.333,1","1",""
"","html-keyboard-response","267","102548","0.0-267.0","3PB5A5BD0WSM76SGXGEUPZMEIJAG7C","A2196WCNDZULFS","3JUDR1D0D6D4CARU3YX9Y3DK5DJ2QK","","null","<img src=""img/flower2.png"" style=""width:200px;border:14px solid red;"">","null","","","","","","","","",""
"","image-keyboard-response","268","102997","0.0-268.0","3PB5A5BD0WSM76SGXGEUPZMEIJAG7C","A2196WCNDZULFS","3JUDR1D0D6D4CARU3YX9Y3DK5DJ2QK","","448","img/flower3.png","75","449","2","1","2","1","1,0.333,0.333,0.333,1,0.333,0.333,0.333,1","1,0.333,0.333,0.333,1,0.333,0.333,0.333,1","1",""
"","html-keyboard-response","269","103300","0.0-269.0","3PB5A5BD0WSM76SGXGEUPZMEIJAG7C","A2196WCNDZULFS","3JUDR1D0D6D4CARU3YX9Y3DK5DJ2QK","","null","<img src=""img/flower3.png"" style=""width:200px; border:14px solid green;"">","null","","","","","","","","",""
"","image-keyboard-response","270","103677","0.0-270.0","3PB5A5BD0WSM76SGXGEUPZMEIJAG7C","A2196WCNDZULFS","3JUDR1D0D6D4CARU3YX9Y3DK5DJ2QK","","375.79999999701977","img/flower2.png","75","376.8999999910593","2","0","1","1","1,0.333,0.333,0.333,1,0.333,0.333,0.333,1","1,0.333,0.333,0.333,1,0.333,0.333,0.333,1","1",""
"","html-keyboard-response","271","103979","0.0-271.0","3PB5A5BD0WSM76SGXGEUPZMEIJAG7C","A2196WCNDZULFS","3JUDR1D0D6D4CARU3YX9Y3DK5DJ2QK","","null","<img src=""img/flower2.png"" style=""width:200px;border:14px solid red;"">","null","","","","","","","","",""
"","image-keyboard-response","272","104356","0.0-272.0","3PB5A5BD0WSM76SGXGEUPZMEIJAG7C","A2196WCNDZULFS","3JUDR1D0D6D4CARU3YX9Y3DK5DJ2QK","","376.20000000298023","img/flower3.png","75","377","2","1","2","1","1,0.333,0.333,0.333,1,0.333,0.333,0.333,1","1,0.333,0.333,0.333,1,0.333,0.333,0.333,1","1",""
"","html-keyboard-response","273","104657","0.0-273.0","3PB5A5BD0WSM76SGXGEUPZMEIJAG7C","A2196WCNDZULFS","3JUDR1D0D6D4CARU3YX9Y3DK5DJ2QK","","null","<img src=""img/flower3.png"" style=""width:200px; border:14px solid green;"">","null","","","","","","","","",""
"","image-keyboard-response","274","105060","0.0-274.0","3PB5A5BD0WSM76SGXGEUPZMEIJAG7C","A2196WCNDZULFS","3JUDR1D0D6D4CARU3YX9Y3DK5DJ2QK","","402.09999999403954","img/flower2.png","75","402.90000000596046","2","0","1","1","1,0.333,0.333,0.333,1,0.333,0.333,0.333,1","1,0.333,0.333,0.333,1,0.333,0.333,0.333,1","1",""
"","html-keyboard-response","275","105363","0.0-275.0","3PB5A5BD0WSM76SGXGEUPZMEIJAG7C","A2196WCNDZULFS","3JUDR1D0D6D4CARU3YX9Y3DK5DJ2QK","","null","<img src=""img/flower2.png"" style=""width:200px;border:14px solid red;"">","null","","","","","","","","",""
"","image-keyboard-response","276","105822","0.0-276.0","3PB5A5BD0WSM76SGXGEUPZMEIJAG7C","A2196WCNDZULFS","3JUDR1D0D6D4CARU3YX9Y3DK5DJ2QK","","457.8999999910593","img/flower3.png","75","458.6000000089407","2","1","2","1","1,0.333,0.333,0.333,1,0.333,0.333,0.333,1","1,0.333,0.333,0.333,1,0.333,0.333,0.333,1","1",""
"","html-keyboard-response","277","106123","0.0-277.0","3PB5A5BD0WSM76SGXGEUPZMEIJAG7C","A2196WCNDZULFS","3JUDR1D0D6D4CARU3YX9Y3DK5DJ2QK","","null","<img src=""img/flower3.png"" style=""width:200px; border:14px solid green;"">","null","","","","","","","","",""
"","image-keyboard-response","278","106484","0.0-278.0","3PB5A5BD0WSM76SGXGEUPZMEIJAG7C","A2196WCNDZULFS","3JUDR1D0D6D4CARU3YX9Y3DK5DJ2QK","","360","img/flower2.png","75","361","2","0","1","1","1,0.333,0.333,0.333,1,0.333,0.333,0.333,1","1,0.333,0.333,0.333,1,0.333,0.333,0.333,1","1",""
"","html-keyboard-response","279","106785","0.0-279.0","3PB5A5BD0WSM76SGXGEUPZMEIJAG7C","A2196WCNDZULFS","3JUDR1D0D6D4CARU3YX9Y3DK5DJ2QK","","null","<img src=""img/flower2.png"" style=""width:200px;border:14px solid red;"">","null","","","","","","","","",""
"","image-keyboard-response","280","107164","0.0-280.0","3PB5A5BD0WSM76SGXGEUPZMEIJAG7C","A2196WCNDZULFS","3JUDR1D0D6D4CARU3YX9Y3DK5DJ2QK","","378.40000000596046","img/flower3.png","75","379","2","1","2","1","1,0.333,0.333,0.333,1,0.333,0.333,0.333,1","1,0.333,0.333,0.333,1,0.333,0.333,0.333,1","1",""
"","html-keyboard-response","281","107466","0.0-281.0","3PB5A5BD0WSM76SGXGEUPZMEIJAG7C","A2196WCNDZULFS","3JUDR1D0D6D4CARU3YX9Y3DK5DJ2QK","","null","<img src=""img/flower3.png"" style=""width:200px; border:14px solid green;"">","null","","","","","","","","",""
"","image-keyboard-response","282","107893","0.0-282.0","3PB5A5BD0WSM76SGXGEUPZMEIJAG7C","A2196WCNDZULFS","3JUDR1D0D6D4CARU3YX9Y3DK5DJ2QK","","426.20000000298023","img/flower3.png","75","427.29999999701977","2","1","2","1","1,0.333,0.333,0.333,1,0.333,0.333,0.333,1","1,0.333,0.333,0.333,1,0.333,0.333,0.333,1","1",""
"","html-keyboard-response","283","108196","0.0-283.0","3PB5A5BD0WSM76SGXGEUPZMEIJAG7C","A2196WCNDZULFS","3JUDR1D0D6D4CARU3YX9Y3DK5DJ2QK","","null","<img src=""img/flower3.png"" style=""width:200px; border:14px solid green;"">","null","","","","","","","","",""
"","image-keyboard-response","284","108710","0.0-284.0","3PB5A5BD0WSM76SGXGEUPZMEIJAG7C","A2196WCNDZULFS","3JUDR1D0D6D4CARU3YX9Y3DK5DJ2QK","","512.4000000059605","img/flower5.png","75","513.5999999940395","2","0","3","1","1,0.333,0.333,0.333,1,0.333,0.333,0.333,1","1,0.333,0.333,0.333,1,0.333,0.333,0.333,1","1",""
"","html-keyboard-response","285","109028","0.0-285.0","3PB5A5BD0WSM76SGXGEUPZMEIJAG7C","A2196WCNDZULFS","3JUDR1D0D6D4CARU3YX9Y3DK5DJ2QK","","null","<img src=""img/flower5.png"" style=""width:200px;border:14px solid red;"">","null","","","","","","","","",""
"","image-keyboard-response","286","109694","0.0-286.0","3PB5A5BD0WSM76SGXGEUPZMEIJAG7C","A2196WCNDZULFS","3JUDR1D0D6D4CARU3YX9Y3DK5DJ2QK","","665.1000000089407","img/flower5.png","76","665.8000000119209","3","1","3","1","1,0.333,0.333,0.333,1,0.333,0.333,0.333,1","1,0.333,0.333,0.333,1,0.333,0.333,0.333,1","1",""
"","html-keyboard-response","287","109995","0.0-287.0","3PB5A5BD0WSM76SGXGEUPZMEIJAG7C","A2196WCNDZULFS","3JUDR1D0D6D4CARU3YX9Y3DK5DJ2QK","","null","<img src=""img/flower5.png"" style=""width:200px; border:14px solid green;"">","null","","","","","","","","",""
"","image-keyboard-response","288","110845","0.0-288.0","3PB5A5BD0WSM76SGXGEUPZMEIJAG7C","A2196WCNDZULFS","3JUDR1D0D6D4CARU3YX9Y3DK5DJ2QK","","849.3999999910593","img/flower2.png","76","850.2000000029802","3","0","1","1","1,0.333,0.333,0.333,1,0.333,0.333,0.333,1","1,0.333,0.333,0.333,1,0.333,0.333,0.333,1","1",""
"","html-keyboard-response","289","111147","0.0-289.0","3PB5A5BD0WSM76SGXGEUPZMEIJAG7C","A2196WCNDZULFS","3JUDR1D0D6D4CARU3YX9Y3DK5DJ2QK","","null","<img src=""img/flower2.png"" style=""width:200px;border:14px solid red;"">","null","","","","","","","","",""
"","image-keyboard-response","290","112093","0.0-290.0","3PB5A5BD0WSM76SGXGEUPZMEIJAG7C","A2196WCNDZULFS","3JUDR1D0D6D4CARU3YX9Y3DK5DJ2QK","","945.3999999910593","img/flower5.png","76","946.4000000059605","3","1","3","1","1,0.333,0.333,0.333,1,0.333,0.333,0.333,1","1,0.333,0.333,0.333,1,0.333,0.333,0.333,1","1",""
"","html-keyboard-response","291","112395","0.0-291.0","3PB5A5BD0WSM76SGXGEUPZMEIJAG7C","A2196WCNDZULFS","3JUDR1D0D6D4CARU3YX9Y3DK5DJ2QK","","null","<img src=""img/flower5.png"" style=""width:200px; border:14px solid green;"">","null","","","","","","","","",""
"","image-keyboard-response","292","113205","0.0-292.0","3PB5A5BD0WSM76SGXGEUPZMEIJAG7C","A2196WCNDZULFS","3JUDR1D0D6D4CARU3YX9Y3DK5DJ2QK","","809.7999999970198","img/flower2.png","74","810.5999999940395","1","1","1","1","1,0.333,0.333,0.333,1,0.333,0.333,0.333,1","1,0.333,0.333,0.333,1,0.333,0.333,0.333,1","1",""
"","html-keyboard-response","293","113507","0.0-293.0","3PB5A5BD0WSM76SGXGEUPZMEIJAG7C","A2196WCNDZULFS","3JUDR1D0D6D4CARU3YX9Y3DK5DJ2QK","","null","<img src=""img/flower2.png"" style=""width:200px; border:14px solid green;"">","null","","","","","","","","",""
"","image-keyboard-response","294","114077","0.0-294.0","3PB5A5BD0WSM76SGXGEUPZMEIJAG7C","A2196WCNDZULFS","3JUDR1D0D6D4CARU3YX9Y3DK5DJ2QK","","568.0999999940395","img/flower2.png","74","569.0999999940395","1","1","1","1","1,0.333,0.333,0.333,1,0.333,0.333,0.333,1","1,0.333,0.333,0.333,1,0.333,0.333,0.333,1","1",""
"","html-keyboard-response","295","114378","0.0-295.0","3PB5A5BD0WSM76SGXGEUPZMEIJAG7C","A2196WCNDZULFS","3JUDR1D0D6D4CARU3YX9Y3DK5DJ2QK","","null","<img src=""img/flower2.png"" style=""width:200px; border:14px solid green;"">","null","","","","","","","","",""
"","image-keyboard-response","296","114893","0.0-296.0","3PB5A5BD0WSM76SGXGEUPZMEIJAG7C","A2196WCNDZULFS","3JUDR1D0D6D4CARU3YX9Y3DK5DJ2QK","","514.5999999940395","img/flower5.png","76","515.5","3","1","3","1","1,0.333,0.333,0.333,1,0.333,0.333,0.333,1","1,0.333,0.333,0.333,1,0.333,0.333,0.333,1","1",""
"","html-keyboard-response","297","115195","0.0-297.0","3PB5A5BD0WSM76SGXGEUPZMEIJAG7C","A2196WCNDZULFS","3JUDR1D0D6D4CARU3YX9Y3DK5DJ2QK","","null","<img src=""img/flower5.png"" style=""width:200px; border:14px solid green;"">","null","","","","","","","","",""
"","image-keyboard-response","298","115918","0.0-298.0","3PB5A5BD0WSM76SGXGEUPZMEIJAG7C","A2196WCNDZULFS","3JUDR1D0D6D4CARU3YX9Y3DK5DJ2QK","","721.9000000059605","img/flower3.png","75","722.8000000119209","2","1","2","1","1,0.333,0.333,0.333,1,0.333,0.333,0.333,1","1,0.333,0.333,0.333,1,0.333,0.333,0.333,1","1",""
"","html-keyboard-response","299","116220","0.0-299.0","3PB5A5BD0WSM76SGXGEUPZMEIJAG7C","A2196WCNDZULFS","3JUDR1D0D6D4CARU3YX9Y3DK5DJ2QK","","null","<img src=""img/flower3.png"" style=""width:200px; border:14px solid green;"">","null","","","","","","","","",""
"","image-keyboard-response","300","116630","0.0-300.0","3PB5A5BD0WSM76SGXGEUPZMEIJAG7C","A2196WCNDZULFS","3JUDR1D0D6D4CARU3YX9Y3DK5DJ2QK","","409.20000000298023","img/flower3.png","75","409.90000000596046","2","1","2","1","1,0.333,0.333,0.333,1,0.333,0.333,0.333,1","1,0.333,0.333,0.333,1,0.333,0.333,0.333,1","1",""
"","html-keyboard-response","301","116932","0.0-301.0","3PB5A5BD0WSM76SGXGEUPZMEIJAG7C","A2196WCNDZULFS","3JUDR1D0D6D4CARU3YX9Y3DK5DJ2QK","","null","<img src=""img/flower3.png"" style=""width:200px; border:14px solid green;"">","null","","","","","","","","",""
"","image-keyboard-response","302","117574","0.0-302.0","3PB5A5BD0WSM76SGXGEUPZMEIJAG7C","A2196WCNDZULFS","3JUDR1D0D6D4CARU3YX9Y3DK5DJ2QK","","641.2000000029802","img/flower2.png","74","642.5","1","1","1","1","1,0.333,0.333,0.333,1,0.333,0.333,0.333,1","1,0.333,0.333,0.333,1,0.333,0.333,0.333,1","1",""
"","html-keyboard-response","303","117876","0.0-303.0","3PB5A5BD0WSM76SGXGEUPZMEIJAG7C","A2196WCNDZULFS","3JUDR1D0D6D4CARU3YX9Y3DK5DJ2QK","","null","<img src=""img/flower2.png"" style=""width:200px; border:14px solid green;"">","null","","","","","","","","",""
"","image-keyboard-response","304","118581","0.0-304.0","3PB5A5BD0WSM76SGXGEUPZMEIJAG7C","A2196WCNDZULFS","3JUDR1D0D6D4CARU3YX9Y3DK5DJ2QK","","704.2000000029802","img/flower3.png","75","705.1000000089407","2","1","2","1","1,0.333,0.333,0.333,1,0.333,0.333,0.333,1","1,0.333,0.333,0.333,1,0.333,0.333,0.333,1","1",""
"","html-keyboard-response","305","118883","0.0-305.0","3PB5A5BD0WSM76SGXGEUPZMEIJAG7C","A2196WCNDZULFS","3JUDR1D0D6D4CARU3YX9Y3DK5DJ2QK","","null","<img src=""img/flower3.png"" style=""width:200px; border:14px solid green;"">","null","","","","","","","","",""
"","image-keyboard-response","306","119406","0.0-306.0","3PB5A5BD0WSM76SGXGEUPZMEIJAG7C","A2196WCNDZULFS","3JUDR1D0D6D4CARU3YX9Y3DK5DJ2QK","","521.3000000119209","img/flower5.png","76","522.2000000029802","3","1","3","1","1,0.333,0.333,0.333,1,0.333,0.333,0.333,1","1,0.333,0.333,0.333,1,0.333,0.333,0.333,1","1",""
"","html-keyboard-response","307","119708","0.0-307.0","3PB5A5BD0WSM76SGXGEUPZMEIJAG7C","A2196WCNDZULFS","3JUDR1D0D6D4CARU3YX9Y3DK5DJ2QK","","null","<img src=""img/flower5.png"" style=""width:200px; border:14px solid green;"">","null","","","","","","","","",""
"","image-keyboard-response","308","120670","0.0-308.0","3PB5A5BD0WSM76SGXGEUPZMEIJAG7C","A2196WCNDZULFS","3JUDR1D0D6D4CARU3YX9Y3DK5DJ2QK","","960.7999999970198","img/flower3.png","75","961.9000000059605","2","1","2","1","1,0.333,0.333,0.333,1,0.333,0.333,0.333,1","1,0.333,0.333,0.333,1,0.333,0.333,0.333,1","1",""
"","html-keyboard-response","309","120973","0.0-309.0","3PB5A5BD0WSM76SGXGEUPZMEIJAG7C","A2196WCNDZULFS","3JUDR1D0D6D4CARU3YX9Y3DK5DJ2QK","","null","<img src=""img/flower3.png"" style=""width:200px; border:14px solid green;"">","null","","","","","","","","",""
"","image-keyboard-response","310","121638","0.0-310.0","3PB5A5BD0WSM76SGXGEUPZMEIJAG7C","A2196WCNDZULFS","3JUDR1D0D6D4CARU3YX9Y3DK5DJ2QK","","663.9000000059605","img/flower5.png","76","665","3","1","3","1","1,0.333,0.333,0.333,1,0.333,0.333,0.333,1","1,0.333,0.333,0.333,1,0.333,0.333,0.333,1","1",""
"","html-keyboard-response","311","121940","0.0-311.0","3PB5A5BD0WSM76SGXGEUPZMEIJAG7C","A2196WCNDZULFS","3JUDR1D0D6D4CARU3YX9Y3DK5DJ2QK","","null","<img src=""img/flower5.png"" style=""width:200px; border:14px solid green;"">","null","","","","","","","","",""
"","image-keyboard-response","312","122310","0.0-312.0","3PB5A5BD0WSM76SGXGEUPZMEIJAG7C","A2196WCNDZULFS","3JUDR1D0D6D4CARU3YX9Y3DK5DJ2QK","","368.79999999701977","img/flower2.png","74","369.59999999403954","1","1","1","1","1,0.333,0.333,0.333,1,0.333,0.333,0.333,1","1,0.333,0.333,0.333,1,0.333,0.333,0.333,1","1",""
"","html-keyboard-response","313","122612","0.0-313.0","3PB5A5BD0WSM76SGXGEUPZMEIJAG7C","A2196WCNDZULFS","3JUDR1D0D6D4CARU3YX9Y3DK5DJ2QK","","null","<img src=""img/flower2.png"" style=""width:200px; border:14px solid green;"">","null","","","","","","","","",""
"","image-keyboard-response","314","122980","0.0-314.0","3PB5A5BD0WSM76SGXGEUPZMEIJAG7C","A2196WCNDZULFS","3JUDR1D0D6D4CARU3YX9Y3DK5DJ2QK","","367.5","img/flower3.png","75","368.5","2","1","2","1","1,0.333,0.333,0.333,1,0.333,0.333,0.333,1","1,0.333,0.333,0.333,1,0.333,0.333,0.333,1","1",""
"","html-keyboard-response","315","123282","0.0-315.0","3PB5A5BD0WSM76SGXGEUPZMEIJAG7C","A2196WCNDZULFS","3JUDR1D0D6D4CARU3YX9Y3DK5DJ2QK","","null","<img src=""img/flower3.png"" style=""width:200px; border:14px solid green;"">","null","","","","","","","","",""
"","image-keyboard-response","316","123861","0.0-316.0","3PB5A5BD0WSM76SGXGEUPZMEIJAG7C","A2196WCNDZULFS","3JUDR1D0D6D4CARU3YX9Y3DK5DJ2QK","","577.8000000119209","img/flower3.png","75","578.8999999910593","2","1","2","1","1,0.333,0.333,0.333,1,0.333,0.333,0.333,1","1,0.333,0.333,0.333,1,0.333,0.333,0.333,1","1",""
"","html-keyboard-response","317","124163","0.0-317.0","3PB5A5BD0WSM76SGXGEUPZMEIJAG7C","A2196WCNDZULFS","3JUDR1D0D6D4CARU3YX9Y3DK5DJ2QK","","null","<img src=""img/flower3.png"" style=""width:200px; border:14px solid green;"">","null","","","","","","","","",""
"","image-keyboard-response","318","124828","0.0-318.0","3PB5A5BD0WSM76SGXGEUPZMEIJAG7C","A2196WCNDZULFS","3JUDR1D0D6D4CARU3YX9Y3DK5DJ2QK","","663.5999999940395","img/flower2.png","74","664.6000000089407","1","1","1","1","1,0.333,0.333,0.333,1,0.333,0.333,0.333,1","1,0.333,0.333,0.333,1,0.333,0.333,0.333,1","1",""
"","html-keyboard-response","319","125130","0.0-319.0","3PB5A5BD0WSM76SGXGEUPZMEIJAG7C","A2196WCNDZULFS","3JUDR1D0D6D4CARU3YX9Y3DK5DJ2QK","","null","<img src=""img/flower2.png"" style=""width:200px; border:14px solid green;"">","null","","","","","","","","",""
"","image-keyboard-response","320","125790","0.0-320.0","3PB5A5BD0WSM76SGXGEUPZMEIJAG7C","A2196WCNDZULFS","3JUDR1D0D6D4CARU3YX9Y3DK5DJ2QK","","658.8999999910593","img/flower3.png","75","659.7999999970198","2","1","2","1","1,0.333,0.333,0.333,1,0.333,0.333,0.333,1","1,0.333,0.333,0.333,1,0.333,0.333,0.333,1","1",""
"","html-keyboard-response","321","126094","0.0-321.0","3PB5A5BD0WSM76SGXGEUPZMEIJAG7C","A2196WCNDZULFS","3JUDR1D0D6D4CARU3YX9Y3DK5DJ2QK","","null","<img src=""img/flower3.png"" style=""width:200px; border:14px solid green;"">","null","","","","","","","","",""
"","image-keyboard-response","322","126676","0.0-322.0","3PB5A5BD0WSM76SGXGEUPZMEIJAG7C","A2196WCNDZULFS","3JUDR1D0D6D4CARU3YX9Y3DK5DJ2QK","","581.5","img/flower2.png","74","582.3999999910593","1","1","1","1","1,0.333,0.333,0.333,1,0.333,0.333,0.333,1","1,0.333,0.333,0.333,1,0.333,0.333,0.333,1","1",""
"","html-keyboard-response","323","126978","0.0-323.0","3PB5A5BD0WSM76SGXGEUPZMEIJAG7C","A2196WCNDZULFS","3JUDR1D0D6D4CARU3YX9Y3DK5DJ2QK","","null","<img src=""img/flower2.png"" style=""width:200px; border:14px solid green;"">","null","","","","","","","","",""
"","image-keyboard-response","324","127605","0.0-324.0","3PB5A5BD0WSM76SGXGEUPZMEIJAG7C","A2196WCNDZULFS","3JUDR1D0D6D4CARU3YX9Y3DK5DJ2QK","","626.8999999910593","img/flower5.png","76","627.5","3","1","3","1","1,0.333,0.333,0.333,1,0.333,0.333,0.333,1","1,0.333,0.333,0.333,1,0.333,0.333,0.333,1","1",""
"","html-keyboard-response","325","127907","0.0-325.0","3PB5A5BD0WSM76SGXGEUPZMEIJAG7C","A2196WCNDZULFS","3JUDR1D0D6D4CARU3YX9Y3DK5DJ2QK","","null","<img src=""img/flower5.png"" style=""width:200px; border:14px solid green;"">","null","","","","","","","","",""
"","image-keyboard-response","326","128460","0.0-326.0","3PB5A5BD0WSM76SGXGEUPZMEIJAG7C","A2196WCNDZULFS","3JUDR1D0D6D4CARU3YX9Y3DK5DJ2QK","","552.7000000029802","img/flower3.png","75","553.2000000029802","2","1","2","1","1,0.333,0.333,0.333,1,0.333,0.333,0.333,1","1,0.333,0.333,0.333,1,0.333,0.333,0.333,1","1",""
"","html-keyboard-response","327","128762","0.0-327.0","3PB5A5BD0WSM76SGXGEUPZMEIJAG7C","A2196WCNDZULFS","3JUDR1D0D6D4CARU3YX9Y3DK5DJ2QK","","null","<img src=""img/flower3.png"" style=""width:200px; border:14px solid green;"">","null","","","","","","","","",""
"","image-keyboard-response","328","129469","0.0-328.0","3PB5A5BD0WSM76SGXGEUPZMEIJAG7C","A2196WCNDZULFS","3JUDR1D0D6D4CARU3YX9Y3DK5DJ2QK","","705.6000000089407","img/flower2.png","74","706.6000000089407","1","1","1","1","1,0.333,0.333,0.333,1,0.333,0.333,0.333,1","1,0.333,0.333,0.333,1,0.333,0.333,0.333,1","1",""
"","html-keyboard-response","329","129770","0.0-329.0","3PB5A5BD0WSM76SGXGEUPZMEIJAG7C","A2196WCNDZULFS","3JUDR1D0D6D4CARU3YX9Y3DK5DJ2QK","","null","<img src=""img/flower2.png"" style=""width:200px; border:14px solid green;"">","null","","","","","","","","",""
"","image-keyboard-response","330","130374","0.0-330.0","3PB5A5BD0WSM76SGXGEUPZMEIJAG7C","A2196WCNDZULFS","3JUDR1D0D6D4CARU3YX9Y3DK5DJ2QK","","602.7000000029802","img/flower5.png","76","604","3","1","3","1","1,0.333,0.333,0.333,1,0.333,0.333,0.333,1","1,0.333,0.333,0.333,1,0.333,0.333,0.333,1","1",""
"","html-keyboard-response","331","130676","0.0-331.0","3PB5A5BD0WSM76SGXGEUPZMEIJAG7C","A2196WCNDZULFS","3JUDR1D0D6D4CARU3YX9Y3DK5DJ2QK","","null","<img src=""img/flower5.png"" style=""width:200px; border:14px solid green;"">","null","","","","","","","","",""
"","image-keyboard-response","332","131390","0.0-332.0","3PB5A5BD0WSM76SGXGEUPZMEIJAG7C","A2196WCNDZULFS","3JUDR1D0D6D4CARU3YX9Y3DK5DJ2QK","","712.2999999970198","img/flower2.png","74","713.5","1","1","1","1","1,0.333,0.333,0.333,1,0.333,0.333,0.333,1","1,0.333,0.333,0.333,1,0.333,0.333,0.333,1","1",""
"","html-keyboard-response","333","131692","0.0-333.0","3PB5A5BD0WSM76SGXGEUPZMEIJAG7C","A2196WCNDZULFS","3JUDR1D0D6D4CARU3YX9Y3DK5DJ2QK","","null","<img src=""img/flower2.png"" style=""width:200px; border:14px solid green;"">","null","","","","","","","","",""
"","image-keyboard-response","334","132142","0.0-334.0","3PB5A5BD0WSM76SGXGEUPZMEIJAG7C","A2196WCNDZULFS","3JUDR1D0D6D4CARU3YX9Y3DK5DJ2QK","","448.79999999701977","img/flower3.png","75","449.90000000596046","2","1","2","1","1,0.333,0.333,0.333,1,0.333,0.333,0.333,1","1,0.333,0.333,0.333,1,0.333,0.333,0.333,1","1",""
"","html-keyboard-response","335","132444","0.0-335.0","3PB5A5BD0WSM76SGXGEUPZMEIJAG7C","A2196WCNDZULFS","3JUDR1D0D6D4CARU3YX9Y3DK5DJ2QK","","null","<img src=""img/flower3.png"" style=""width:200px; border:14px solid green;"">","null","","","","","","","","",""
"","image-keyboard-response","336","132854","0.0-336.0","3PB5A5BD0WSM76SGXGEUPZMEIJAG7C","A2196WCNDZULFS","3JUDR1D0D6D4CARU3YX9Y3DK5DJ2QK","","408.5","img/flower5.png","76","409.30000001192093","3","1","3","1","1,0.333,0.333,0.333,1,0.333,0.333,0.333,1","1,0.333,0.333,0.333,1,0.333,0.333,0.333,1","1",""
"","html-keyboard-response","337","133156","0.0-337.0","3PB5A5BD0WSM76SGXGEUPZMEIJAG7C","A2196WCNDZULFS","3JUDR1D0D6D4CARU3YX9Y3DK5DJ2QK","","null","<img src=""img/flower5.png"" style=""width:200px; border:14px solid green;"">","null","","","","","","","","",""
"","image-keyboard-response","338","133686","0.0-338.0","3PB5A5BD0WSM76SGXGEUPZMEIJAG7C","A2196WCNDZULFS","3JUDR1D0D6D4CARU3YX9Y3DK5DJ2QK","","528.9000000059605","img/flower5.png","76","530.0999999940395","3","1","3","1","1,0.333,0.333,0.333,1,0.333,0.333,0.333,1","1,0.333,0.333,0.333,1,0.333,0.333,0.333,1","1",""
"","html-keyboard-response","339","133994","0.0-339.0","3PB5A5BD0WSM76SGXGEUPZMEIJAG7C","A2196WCNDZULFS","3JUDR1D0D6D4CARU3YX9Y3DK5DJ2QK","","null","<img src=""img/flower5.png"" style=""width:200px; border:14px solid green;"">","null","","","","","","","","",""
"","image-keyboard-response","340","134374","0.0-340.0","3PB5A5BD0WSM76SGXGEUPZMEIJAG7C","A2196WCNDZULFS","3JUDR1D0D6D4CARU3YX9Y3DK5DJ2QK","","379.70000000298023","img/flower5.png","76","380.5","3","1","3","1","1,0.333,0.333,0.333,1,0.333,0.333,0.333,1","1,0.333,0.333,0.333,1,0.333,0.333,0.333,1","1",""
"","html-keyboard-response","341","134678","0.0-341.0","3PB5A5BD0WSM76SGXGEUPZMEIJAG7C","A2196WCNDZULFS","3JUDR1D0D6D4CARU3YX9Y3DK5DJ2QK","","null","<img src=""img/flower5.png"" style=""width:200px; border:14px solid green;"">","null","","","","","","","","",""
"","image-keyboard-response","342","135390","0.0-342.0","3PB5A5BD0WSM76SGXGEUPZMEIJAG7C","A2196WCNDZULFS","3JUDR1D0D6D4CARU3YX9Y3DK5DJ2QK","","710.6999999880791","img/flower3.png","75","711.7000000029802","2","1","2","1","1,0.333,0.333,0.333,1,0.333,0.333,0.333,1","1,0.333,0.333,0.333,1,0.333,0.333,0.333,1","1",""
"","html-keyboard-response","343","135692","0.0-343.0","3PB5A5BD0WSM76SGXGEUPZMEIJAG7C","A2196WCNDZULFS","3JUDR1D0D6D4CARU3YX9Y3DK5DJ2QK","","null","<img src=""img/flower3.png"" style=""width:200px; border:14px solid green;"">","null","","","","","","","","",""
"","image-keyboard-response","344","136382","0.0-344.0","3PB5A5BD0WSM76SGXGEUPZMEIJAG7C","A2196WCNDZULFS","3JUDR1D0D6D4CARU3YX9Y3DK5DJ2QK","","688.9000000059605","img/flower5.png","76","690.0999999940395","3","1","3","1","1,0.333,0.333,0.333,1,0.333,0.333,0.333,1","1,0.333,0.333,0.333,1,0.333,0.333,0.333,1","1",""
"","html-keyboard-response","345","136684","0.0-345.0","3PB5A5BD0WSM76SGXGEUPZMEIJAG7C","A2196WCNDZULFS","3JUDR1D0D6D4CARU3YX9Y3DK5DJ2QK","","null","<img src=""img/flower5.png"" style=""width:200px; border:14px solid green;"">","null","","","","","","","","",""
"","image-keyboard-response","346","137407","0.0-346.0","3PB5A5BD0WSM76SGXGEUPZMEIJAG7C","A2196WCNDZULFS","3JUDR1D0D6D4CARU3YX9Y3DK5DJ2QK","","721","img/flower3.png","75","722.3999999910593","2","1","2","1","1,0.333,0.333,0.333,1,0.333,0.333,0.333,1","1,0.333,0.333,0.333,1,0.333,0.333,0.333,1","1",""
"","html-keyboard-response","347","137709","0.0-347.0","3PB5A5BD0WSM76SGXGEUPZMEIJAG7C","A2196WCNDZULFS","3JUDR1D0D6D4CARU3YX9Y3DK5DJ2QK","","null","<img src=""img/flower3.png"" style=""width:200px; border:14px solid green;"">","null","","","","","","","","",""
"","image-keyboard-response","348","138197","0.0-348.0","3PB5A5BD0WSM76SGXGEUPZMEIJAG7C","A2196WCNDZULFS","3JUDR1D0D6D4CARU3YX9Y3DK5DJ2QK","","486.3999999910593","img/flower2.png","74","487.6000000089407","1","1","1","1","1,0.333,0.333,0.333,1,0.333,0.333,0.333,1","1,0.333,0.333,0.333,1,0.333,0.333,0.333,1","1",""
"","html-keyboard-response","349","138498","0.0-349.0","3PB5A5BD0WSM76SGXGEUPZMEIJAG7C","A2196WCNDZULFS","3JUDR1D0D6D4CARU3YX9Y3DK5DJ2QK","","null","<img src=""img/flower2.png"" style=""width:200px; border:14px solid green;"">","null","","","","","","","","",""
"","image-keyboard-response","350","139054","0.0-350.0","3PB5A5BD0WSM76SGXGEUPZMEIJAG7C","A2196WCNDZULFS","3JUDR1D0D6D4CARU3YX9Y3DK5DJ2QK","","555","img/flower3.png","75","555.7999999970198","2","1","2","1","1,0.333,0.333,0.333,1,0.333,0.333,0.333,1","1,0.333,0.333,0.333,1,0.333,0.333,0.333,1","1",""
"","html-keyboard-response","351","139356","0.0-351.0","3PB5A5BD0WSM76SGXGEUPZMEIJAG7C","A2196WCNDZULFS","3JUDR1D0D6D4CARU3YX9Y3DK5DJ2QK","","null","<img src=""img/flower3.png"" style=""width:200px; border:14px solid green;"">","null","","","","","","","","",""
"","image-keyboard-response","352","139788","0.0-352.0","3PB5A5BD0WSM76SGXGEUPZMEIJAG7C","A2196WCNDZULFS","3JUDR1D0D6D4CARU3YX9Y3DK5DJ2QK","","431.90000000596046","img/flower5.png","76","432.69999998807907","3","1","3","1","1,0.333,0.333,0.333,1,0.333,0.333,0.333,1","1,0.333,0.333,0.333,1,0.333,0.333,0.333,1","1",""
"","html-keyboard-response","353","140090","0.0-353.0","3PB5A5BD0WSM76SGXGEUPZMEIJAG7C","A2196WCNDZULFS","3JUDR1D0D6D4CARU3YX9Y3DK5DJ2QK","","null","<img src=""img/flower5.png"" style=""width:200px; border:14px solid green;"">","null","","","","","","","","",""
"","image-keyboard-response","354","140486","0.0-354.0","3PB5A5BD0WSM76SGXGEUPZMEIJAG7C","A2196WCNDZULFS","3JUDR1D0D6D4CARU3YX9Y3DK5DJ2QK","","394.79999999701977","img/flower5.png","76","396","3","1","3","1","1,0.333,0.333,0.333,1,0.333,0.333,0.333,1","1,0.333,0.333,0.333,1,0.333,0.333,0.333,1","1",""
"","html-keyboard-response","355","140787","0.0-355.0","3PB5A5BD0WSM76SGXGEUPZMEIJAG7C","A2196WCNDZULFS","3JUDR1D0D6D4CARU3YX9Y3DK5DJ2QK","","null","<img src=""img/flower5.png"" style=""width:200px; border:14px solid green;"">","null","","","","","","","","",""
"","image-keyboard-response","356","141117","0.0-356.0","3PB5A5BD0WSM76SGXGEUPZMEIJAG7C","A2196WCNDZULFS","3JUDR1D0D6D4CARU3YX9Y3DK5DJ2QK","","328.90000000596046","img/flower5.png","76","329.59999999403954","3","1","3","1","1,0.333,0.333,0.333,1,0.333,0.333,0.333,1","1,0.333,0.333,0.333,1,0.333,0.333,0.333,1","1",""
"","html-keyboard-response","357","141419","0.0-357.0","3PB5A5BD0WSM76SGXGEUPZMEIJAG7C","A2196WCNDZULFS","3JUDR1D0D6D4CARU3YX9Y3DK5DJ2QK","","null","<img src=""img/flower5.png"" style=""width:200px; border:14px solid green;"">","null","","","","","","","","",""
"","image-keyboard-response","358","141901","0.0-358.0","3PB5A5BD0WSM76SGXGEUPZMEIJAG7C","A2196WCNDZULFS","3JUDR1D0D6D4CARU3YX9Y3DK5DJ2QK","","481","img/flower5.png","76","482","3","1","3","1","1,0.333,0.333,0.333,1,0.333,0.333,0.333,1","1,0.333,0.333,0.333,1,0.333,0.333,0.333,1","1",""
"","html-keyboard-response","359","142202","0.0-359.0","3PB5A5BD0WSM76SGXGEUPZMEIJAG7C","A2196WCNDZULFS","3JUDR1D0D6D4CARU3YX9Y3DK5DJ2QK","","null","<img src=""img/flower5.png"" style=""width:200px; border:14px solid green;"">","null","","","","","","","","",""
"","image-keyboard-response","360","142766","0.0-360.0","3PB5A5BD0WSM76SGXGEUPZMEIJAG7C","A2196WCNDZULFS","3JUDR1D0D6D4CARU3YX9Y3DK5DJ2QK","","562.9000000059605","img/flower2.png","74","564.1000000089407","1","1","1","1","1,0.333,0.333,0.333,1,0.333,0.333,0.333,1","1,0.333,0.333,0.333,1,0.333,0.333,0.333,1","1",""
"","html-keyboard-response","361","143068","0.0-361.0","3PB5A5BD0WSM76SGXGEUPZMEIJAG7C","A2196WCNDZULFS","3JUDR1D0D6D4CARU3YX9Y3DK5DJ2QK","","null","<img src=""img/flower2.png"" style=""width:200px; border:14px solid green;"">","null","","","","","","","","",""
"","html-keyboard-response","362","147366","0.0-362.0","3PB5A5BD0WSM76SGXGEUPZMEIJAG7C","A2196WCNDZULFS","3JUDR1D0D6D4CARU3YX9Y3DK5DJ2QK","","","","","","","","","","","","",""
