"rt","url","trial_type","trial_index","time_elapsed","internal_node_id","assignmentID","mturkID","hitID","success","view_history","stimulus","key_press","reactionTime","a","r","s","cond","reward_cond","reward_cond_actual","reward_matrix_idx","responses"
"25613","consent.html","external-html","0","25686","0.0-0.0","3QRYMNZ7FZ3FFW69XNUQKFNT70FNTA","A22LRKFP5S22GR","3THR0FZ95PF7SK0MYRNAOUHTWA4OLV","","","","","","","","","","","","",""
"","","fullscreen","1","29842","0.0-1.0","3QRYMNZ7FZ3FFW69XNUQKFNT70FNTA","A22LRKFP5S22GR","3THR0FZ95PF7SK0MYRNAOUHTWA4OLV","true","","","","","","","","","","","",""
"130451","","instructions","2","160298","0.0-2.0","3QRYMNZ7FZ3FFW69XNUQKFNT70FNTA","A22LRKFP5S22GR","3THR0FZ95PF7SK0MYRNAOUHTWA4OLV","","[{""page_index"":0,""viewing_time"":14687},{""page_index"":1,""viewing_time"":11253},{""page_index"":2,""viewing_time"":21918},{""page_index"":3,""viewing_time"":27656},{""page_index"":4,""viewing_time"":27196},{""page_index"":5,""viewing_time"":13317},{""page_index"":6,""viewing_time"":14423}]","","","","","","","","","","",""
"44112","","instructions","3","204411","0.0-3.0","3QRYMNZ7FZ3FFW69XNUQKFNT70FNTA","A22LRKFP5S22GR","3THR0FZ95PF7SK0MYRNAOUHTWA4OLV","","[{""page_index"":0,""viewing_time"":44111}]","","","","","","","","","","",""
"1956","","image-keyboard-response","4","206369","0.0-4.0","3QRYMNZ7FZ3FFW69XNUQKFNT70FNTA","A22LRKFP5S22GR","3THR0FZ95PF7SK0MYRNAOUHTWA4OLV","","","img/flower5.png","75","1957","2","1","2","","","","",""
"null","","html-keyboard-response","5","206671","0.0-5.0","3QRYMNZ7FZ3FFW69XNUQKFNT70FNTA","A22LRKFP5S22GR","3THR0FZ95PF7SK0MYRNAOUHTWA4OLV","","","<img src=""img/flower5.png"" style=""width:200px; border:14px solid green;"">","null","","","","","","","","",""
"1514","","image-keyboard-response","6","208188","0.0-6.0","3QRYMNZ7FZ3FFW69XNUQKFNT70FNTA","A22LRKFP5S22GR","3THR0FZ95PF7SK0MYRNAOUHTWA4OLV","","","img/flower6.png","76","1516","3","1","3","","","","",""
"null","","html-keyboard-response","7","208501","0.0-7.0","3QRYMNZ7FZ3FFW69XNUQKFNT70FNTA","A22LRKFP5S22GR","3THR0FZ95PF7SK0MYRNAOUHTWA4OLV","","","<img src=""img/flower6.png"" style=""width:200px; border:14px solid green;"">","null","","","","","","","","",""
"1456","","image-keyboard-response","8","209967","0.0-8.0","3QRYMNZ7FZ3FFW69XNUQKFNT70FNTA","A22LRKFP5S22GR","3THR0FZ95PF7SK0MYRNAOUHTWA4OLV","","","img/flower6.png","75","1466","2","0","3","","","","",""
"null","","html-keyboard-response","9","210273","0.0-9.0","3QRYMNZ7FZ3FFW69XNUQKFNT70FNTA","A22LRKFP5S22GR","3THR0FZ95PF7SK0MYRNAOUHTWA4OLV","","","<img src=""img/flower6.png"" style=""width:200px;border:14px solid red;"">","null","","","","","","","","",""
"1909","","image-keyboard-response","10","212182","0.0-10.0","3QRYMNZ7FZ3FFW69XNUQKFNT70FNTA","A22LRKFP5S22GR","3THR0FZ95PF7SK0MYRNAOUHTWA4OLV","","","img/flower6.png","76","1909","3","0","3","","","","",""
"null","","html-keyboard-response","11","212501","0.0-11.0","3QRYMNZ7FZ3FFW69XNUQKFNT70FNTA","A22LRKFP5S22GR","3THR0FZ95PF7SK0MYRNAOUHTWA4OLV","","","<img src=""img/flower6.png"" style=""width:200px;border:14px solid red;"">","null","","","","","","","","",""
"1800","","image-keyboard-response","12","214316","0.0-12.0","3QRYMNZ7FZ3FFW69XNUQKFNT70FNTA","A22LRKFP5S22GR","3THR0FZ95PF7SK0MYRNAOUHTWA4OLV","","","img/flower4.png","74","1815","1","1","1","","","","",""
"null","","html-keyboard-response","13","214621","0.0-13.0","3QRYMNZ7FZ3FFW69XNUQKFNT70FNTA","A22LRKFP5S22GR","3THR0FZ95PF7SK0MYRNAOUHTWA4OLV","","","<img src=""img/flower4.png"" style=""width:200px; border:14px solid green;"">","null","","","","","","","","",""
"1557","","image-keyboard-response","14","216178","0.0-14.0","3QRYMNZ7FZ3FFW69XNUQKFNT70FNTA","A22LRKFP5S22GR","3THR0FZ95PF7SK0MYRNAOUHTWA4OLV","","","img/flower4.png","74","1567","1","1","1","","","","",""
"null","","html-keyboard-response","15","216498","0.0-15.0","3QRYMNZ7FZ3FFW69XNUQKFNT70FNTA","A22LRKFP5S22GR","3THR0FZ95PF7SK0MYRNAOUHTWA4OLV","","","<img src=""img/flower4.png"" style=""width:200px; border:14px solid green;"">","null","","","","","","","","",""
"1335","","image-keyboard-response","16","217833","0.0-16.0","3QRYMNZ7FZ3FFW69XNUQKFNT70FNTA","A22LRKFP5S22GR","3THR0FZ95PF7SK0MYRNAOUHTWA4OLV","","","img/flower4.png","74","1344","1","0","1","","","","",""
"null","","html-keyboard-response","17","218147","0.0-17.0","3QRYMNZ7FZ3FFW69XNUQKFNT70FNTA","A22LRKFP5S22GR","3THR0FZ95PF7SK0MYRNAOUHTWA4OLV","","","<img src=""img/flower4.png"" style=""width:200px;border:14px solid red;"">","null","","","","","","","","",""
"1115","","image-keyboard-response","18","219263","0.0-18.0","3QRYMNZ7FZ3FFW69XNUQKFNT70FNTA","A22LRKFP5S22GR","3THR0FZ95PF7SK0MYRNAOUHTWA4OLV","","","img/flower5.png","75","1116","2","0","2","","","","",""
"null","","html-keyboard-response","19","219576","0.0-19.0","3QRYMNZ7FZ3FFW69XNUQKFNT70FNTA","A22LRKFP5S22GR","3THR0FZ95PF7SK0MYRNAOUHTWA4OLV","","","<img src=""img/flower5.png"" style=""width:200px;border:14px solid red;"">","null","","","","","","","","",""
"1193","","image-keyboard-response","20","220776","0.0-20.0","3QRYMNZ7FZ3FFW69XNUQKFNT70FNTA","A22LRKFP5S22GR","3THR0FZ95PF7SK0MYRNAOUHTWA4OLV","","","img/flower6.png","76","1200","3","1","3","","","","",""
"null","","html-keyboard-response","21","221098","0.0-21.0","3QRYMNZ7FZ3FFW69XNUQKFNT70FNTA","A22LRKFP5S22GR","3THR0FZ95PF7SK0MYRNAOUHTWA4OLV","","","<img src=""img/flower6.png"" style=""width:200px; border:14px solid green;"">","null","","","","","","","","",""
"1531","","image-keyboard-response","22","222629","0.0-22.0","3QRYMNZ7FZ3FFW69XNUQKFNT70FNTA","A22LRKFP5S22GR","3THR0FZ95PF7SK0MYRNAOUHTWA4OLV","","","img/flower5.png","75","1532","2","1","2","","","","",""
"null","","html-keyboard-response","23","222936","0.0-23.0","3QRYMNZ7FZ3FFW69XNUQKFNT70FNTA","A22LRKFP5S22GR","3THR0FZ95PF7SK0MYRNAOUHTWA4OLV","","","<img src=""img/flower5.png"" style=""width:200px; border:14px solid green;"">","null","","","","","","","","",""
"1166","","image-keyboard-response","24","224116","0.0-24.0","3QRYMNZ7FZ3FFW69XNUQKFNT70FNTA","A22LRKFP5S22GR","3THR0FZ95PF7SK0MYRNAOUHTWA4OLV","","","img/flower6.png","76","1180","3","1","3","","","","",""
"null","","html-keyboard-response","25","224422","0.0-25.0","3QRYMNZ7FZ3FFW69XNUQKFNT70FNTA","A22LRKFP5S22GR","3THR0FZ95PF7SK0MYRNAOUHTWA4OLV","","","<img src=""img/flower6.png"" style=""width:200px; border:14px solid green;"">","null","","","","","","","","",""
"1129","","image-keyboard-response","26","225553","0.0-26.0","3QRYMNZ7FZ3FFW69XNUQKFNT70FNTA","A22LRKFP5S22GR","3THR0FZ95PF7SK0MYRNAOUHTWA4OLV","","","img/flower4.png","74","1131","1","1","1","","","","",""
"null","","html-keyboard-response","27","225865","0.0-27.0","3QRYMNZ7FZ3FFW69XNUQKFNT70FNTA","A22LRKFP5S22GR","3THR0FZ95PF7SK0MYRNAOUHTWA4OLV","","","<img src=""img/flower4.png"" style=""width:200px; border:14px solid green;"">","null","","","","","","","","",""
"1198","","image-keyboard-response","28","227070","0.0-28.0","3QRYMNZ7FZ3FFW69XNUQKFNT70FNTA","A22LRKFP5S22GR","3THR0FZ95PF7SK0MYRNAOUHTWA4OLV","","","img/flower4.png","74","1205","1","1","1","","","","",""
"null","","html-keyboard-response","29","227385","0.0-29.0","3QRYMNZ7FZ3FFW69XNUQKFNT70FNTA","A22LRKFP5S22GR","3THR0FZ95PF7SK0MYRNAOUHTWA4OLV","","","<img src=""img/flower4.png"" style=""width:200px; border:14px solid green;"">","null","","","","","","","","",""
"1087","","image-keyboard-response","30","228483","0.0-30.0","3QRYMNZ7FZ3FFW69XNUQKFNT70FNTA","A22LRKFP5S22GR","3THR0FZ95PF7SK0MYRNAOUHTWA4OLV","","","img/flower6.png","76","1098","3","1","3","","","","",""
"null","","html-keyboard-response","31","228798","0.0-31.0","3QRYMNZ7FZ3FFW69XNUQKFNT70FNTA","A22LRKFP5S22GR","3THR0FZ95PF7SK0MYRNAOUHTWA4OLV","","","<img src=""img/flower6.png"" style=""width:200px; border:14px solid green;"">","null","","","","","","","","",""
"1287","","image-keyboard-response","32","230090","0.0-32.0","3QRYMNZ7FZ3FFW69XNUQKFNT70FNTA","A22LRKFP5S22GR","3THR0FZ95PF7SK0MYRNAOUHTWA4OLV","","","img/flower4.png","74","1292","1","1","1","","","","",""
"null","","html-keyboard-response","33","230406","0.0-33.0","3QRYMNZ7FZ3FFW69XNUQKFNT70FNTA","A22LRKFP5S22GR","3THR0FZ95PF7SK0MYRNAOUHTWA4OLV","","","<img src=""img/flower4.png"" style=""width:200px; border:14px solid green;"">","null","","","","","","","","",""
"1005","","image-keyboard-response","34","231426","0.0-34.0","3QRYMNZ7FZ3FFW69XNUQKFNT70FNTA","A22LRKFP5S22GR","3THR0FZ95PF7SK0MYRNAOUHTWA4OLV","","","img/flower5.png","75","1020","2","1","2","","","","",""
"null","","html-keyboard-response","35","231740","0.0-35.0","3QRYMNZ7FZ3FFW69XNUQKFNT70FNTA","A22LRKFP5S22GR","3THR0FZ95PF7SK0MYRNAOUHTWA4OLV","","","<img src=""img/flower5.png"" style=""width:200px; border:14px solid green;"">","null","","","","","","","","",""
"1436","","image-keyboard-response","36","233188","0.0-36.0","3QRYMNZ7FZ3FFW69XNUQKFNT70FNTA","A22LRKFP5S22GR","3THR0FZ95PF7SK0MYRNAOUHTWA4OLV","","","img/flower6.png","76","1448","3","1","3","","","","",""
"null","","html-keyboard-response","37","233500","0.0-37.0","3QRYMNZ7FZ3FFW69XNUQKFNT70FNTA","A22LRKFP5S22GR","3THR0FZ95PF7SK0MYRNAOUHTWA4OLV","","","<img src=""img/flower6.png"" style=""width:200px; border:14px solid green;"">","null","","","","","","","","",""
"1068","","image-keyboard-response","38","234577","0.0-38.0","3QRYMNZ7FZ3FFW69XNUQKFNT70FNTA","A22LRKFP5S22GR","3THR0FZ95PF7SK0MYRNAOUHTWA4OLV","","","img/flower6.png","76","1077","3","1","3","","","","",""
"null","","html-keyboard-response","39","234889","0.0-39.0","3QRYMNZ7FZ3FFW69XNUQKFNT70FNTA","A22LRKFP5S22GR","3THR0FZ95PF7SK0MYRNAOUHTWA4OLV","","","<img src=""img/flower6.png"" style=""width:200px; border:14px solid green;"">","null","","","","","","","","",""
"1009","","image-keyboard-response","40","235913","0.0-40.0","3QRYMNZ7FZ3FFW69XNUQKFNT70FNTA","A22LRKFP5S22GR","3THR0FZ95PF7SK0MYRNAOUHTWA4OLV","","","img/flower4.png","74","1024","1","1","1","","","","",""
"null","","html-keyboard-response","41","236216","0.0-41.0","3QRYMNZ7FZ3FFW69XNUQKFNT70FNTA","A22LRKFP5S22GR","3THR0FZ95PF7SK0MYRNAOUHTWA4OLV","","","<img src=""img/flower4.png"" style=""width:200px; border:14px solid green;"">","null","","","","","","","","",""
"847","","image-keyboard-response","42","237069","0.0-42.0","3QRYMNZ7FZ3FFW69XNUQKFNT70FNTA","A22LRKFP5S22GR","3THR0FZ95PF7SK0MYRNAOUHTWA4OLV","","","img/flower5.png","75","853","2","1","2","","","","",""
"null","","html-keyboard-response","43","237383","0.0-43.0","3QRYMNZ7FZ3FFW69XNUQKFNT70FNTA","A22LRKFP5S22GR","3THR0FZ95PF7SK0MYRNAOUHTWA4OLV","","","<img src=""img/flower5.png"" style=""width:200px; border:14px solid green;"">","null","","","","","","","","",""
"930","","image-keyboard-response","44","238314","0.0-44.0","3QRYMNZ7FZ3FFW69XNUQKFNT70FNTA","A22LRKFP5S22GR","3THR0FZ95PF7SK0MYRNAOUHTWA4OLV","","","img/flower5.png","75","931","2","1","2","","","","",""
"null","","html-keyboard-response","45","238624","0.0-45.0","3QRYMNZ7FZ3FFW69XNUQKFNT70FNTA","A22LRKFP5S22GR","3THR0FZ95PF7SK0MYRNAOUHTWA4OLV","","","<img src=""img/flower5.png"" style=""width:200px; border:14px solid green;"">","null","","","","","","","","",""
"928","","image-keyboard-response","46","239563","0.0-46.0","3QRYMNZ7FZ3FFW69XNUQKFNT70FNTA","A22LRKFP5S22GR","3THR0FZ95PF7SK0MYRNAOUHTWA4OLV","","","img/flower6.png","76","939","3","1","3","","","","",""
"null","","html-keyboard-response","47","239880","0.0-47.0","3QRYMNZ7FZ3FFW69XNUQKFNT70FNTA","A22LRKFP5S22GR","3THR0FZ95PF7SK0MYRNAOUHTWA4OLV","","","<img src=""img/flower6.png"" style=""width:200px; border:14px solid green;"">","null","","","","","","","","",""
"921","","image-keyboard-response","48","240811","0.0-48.0","3QRYMNZ7FZ3FFW69XNUQKFNT70FNTA","A22LRKFP5S22GR","3THR0FZ95PF7SK0MYRNAOUHTWA4OLV","","","img/flower6.png","76","931","3","1","3","","","","",""
"null","","html-keyboard-response","49","241122","0.0-49.0","3QRYMNZ7FZ3FFW69XNUQKFNT70FNTA","A22LRKFP5S22GR","3THR0FZ95PF7SK0MYRNAOUHTWA4OLV","","","<img src=""img/flower6.png"" style=""width:200px; border:14px solid green;"">","null","","","","","","","","",""
"1028","","image-keyboard-response","50","242157","0.0-50.0","3QRYMNZ7FZ3FFW69XNUQKFNT70FNTA","A22LRKFP5S22GR","3THR0FZ95PF7SK0MYRNAOUHTWA4OLV","","","img/flower4.png","74","1033","1","1","1","","","","",""
"null","","html-keyboard-response","51","242471","0.0-51.0","3QRYMNZ7FZ3FFW69XNUQKFNT70FNTA","A22LRKFP5S22GR","3THR0FZ95PF7SK0MYRNAOUHTWA4OLV","","","<img src=""img/flower4.png"" style=""width:200px; border:14px solid green;"">","null","","","","","","","","",""
"1019","","image-keyboard-response","52","243497","0.0-52.0","3QRYMNZ7FZ3FFW69XNUQKFNT70FNTA","A22LRKFP5S22GR","3THR0FZ95PF7SK0MYRNAOUHTWA4OLV","","","img/flower5.png","75","1026","2","1","2","","","","",""
"null","","html-keyboard-response","53","243813","0.0-53.0","3QRYMNZ7FZ3FFW69XNUQKFNT70FNTA","A22LRKFP5S22GR","3THR0FZ95PF7SK0MYRNAOUHTWA4OLV","","","<img src=""img/flower5.png"" style=""width:200px; border:14px solid green;"">","null","","","","","","","","",""
"1256","","image-keyboard-response","54","245083","0.0-54.0","3QRYMNZ7FZ3FFW69XNUQKFNT70FNTA","A22LRKFP5S22GR","3THR0FZ95PF7SK0MYRNAOUHTWA4OLV","","","img/flower4.png","74","1270","1","1","1","","","","",""
"null","","html-keyboard-response","55","245392","0.0-55.0","3QRYMNZ7FZ3FFW69XNUQKFNT70FNTA","A22LRKFP5S22GR","3THR0FZ95PF7SK0MYRNAOUHTWA4OLV","","","<img src=""img/flower4.png"" style=""width:200px; border:14px solid green;"">","null","","","","","","","","",""
"1003","","image-keyboard-response","56","246403","0.0-56.0","3QRYMNZ7FZ3FFW69XNUQKFNT70FNTA","A22LRKFP5S22GR","3THR0FZ95PF7SK0MYRNAOUHTWA4OLV","","","img/flower5.png","75","1011","2","1","2","","","","",""
"null","","html-keyboard-response","57","246721","0.0-57.0","3QRYMNZ7FZ3FFW69XNUQKFNT70FNTA","A22LRKFP5S22GR","3THR0FZ95PF7SK0MYRNAOUHTWA4OLV","","","<img src=""img/flower5.png"" style=""width:200px; border:14px solid green;"">","null","","","","","","","","",""
"1595","","image-keyboard-response","58","248325","0.0-58.0","3QRYMNZ7FZ3FFW69XNUQKFNT70FNTA","A22LRKFP5S22GR","3THR0FZ95PF7SK0MYRNAOUHTWA4OLV","","","img/flower5.png","75","1604","2","1","2","","","","",""
"null","","html-keyboard-response","59","248641","0.0-59.0","3QRYMNZ7FZ3FFW69XNUQKFNT70FNTA","A22LRKFP5S22GR","3THR0FZ95PF7SK0MYRNAOUHTWA4OLV","","","<img src=""img/flower5.png"" style=""width:200px; border:14px solid green;"">","null","","","","","","","","",""
"1034","","image-keyboard-response","60","249686","0.0-60.0","3QRYMNZ7FZ3FFW69XNUQKFNT70FNTA","A22LRKFP5S22GR","3THR0FZ95PF7SK0MYRNAOUHTWA4OLV","","","img/flower4.png","74","1045","1","1","1","","","","",""
"null","","html-keyboard-response","61","250004","0.0-61.0","3QRYMNZ7FZ3FFW69XNUQKFNT70FNTA","A22LRKFP5S22GR","3THR0FZ95PF7SK0MYRNAOUHTWA4OLV","","","<img src=""img/flower4.png"" style=""width:200px; border:14px solid green;"">","null","","","","","","","","",""
"964","","image-keyboard-response","62","250983","0.0-62.0","3QRYMNZ7FZ3FFW69XNUQKFNT70FNTA","A22LRKFP5S22GR","3THR0FZ95PF7SK0MYRNAOUHTWA4OLV","","","img/flower5.png","75","979","2","0","2","","","","",""
"null","","html-keyboard-response","63","251288","0.0-63.0","3QRYMNZ7FZ3FFW69XNUQKFNT70FNTA","A22LRKFP5S22GR","3THR0FZ95PF7SK0MYRNAOUHTWA4OLV","","","<img src=""img/flower5.png"" style=""width:200px;border:14px solid red;"">","null","","","","","","","","",""
"103323","","instructions","64","354611","0.0-64.0","3QRYMNZ7FZ3FFW69XNUQKFNT70FNTA","A22LRKFP5S22GR","3THR0FZ95PF7SK0MYRNAOUHTWA4OLV","","[{""page_index"":0,""viewing_time"":5080},{""page_index"":1,""viewing_time"":98242}]","","","","","","","","","","",""
"2516","","image-keyboard-response","65","357128","0.0-65.0","3QRYMNZ7FZ3FFW69XNUQKFNT70FNTA","A22LRKFP5S22GR","3THR0FZ95PF7SK0MYRNAOUHTWA4OLV","","","img/flower6.png","74","2517","1","0","3","","","","",""
"null","","html-keyboard-response","66","357436","0.0-66.0","3QRYMNZ7FZ3FFW69XNUQKFNT70FNTA","A22LRKFP5S22GR","3THR0FZ95PF7SK0MYRNAOUHTWA4OLV","","","<img src=""img/flower6.png"" style=""width:200px;border:14px solid red;"">","null","","","","","","","","",""
"2285","","image-keyboard-response","67","359733","0.0-67.0","3QRYMNZ7FZ3FFW69XNUQKFNT70FNTA","A22LRKFP5S22GR","3THR0FZ95PF7SK0MYRNAOUHTWA4OLV","","","img/flower6.png","76","2294","3","1","3","","","","",""
"null","","html-keyboard-response","68","360049","0.0-68.0","3QRYMNZ7FZ3FFW69XNUQKFNT70FNTA","A22LRKFP5S22GR","3THR0FZ95PF7SK0MYRNAOUHTWA4OLV","","","<img src=""img/flower6.png"" style=""width:200px; border:14px solid green;"">","null","","","","","","","","",""
"2241","","image-keyboard-response","69","362291","0.0-69.0","3QRYMNZ7FZ3FFW69XNUQKFNT70FNTA","A22LRKFP5S22GR","3THR0FZ95PF7SK0MYRNAOUHTWA4OLV","","","img/flower6.png","76","2247","3","1","3","","","","",""
"null","","html-keyboard-response","70","362613","0.0-70.0","3QRYMNZ7FZ3FFW69XNUQKFNT70FNTA","A22LRKFP5S22GR","3THR0FZ95PF7SK0MYRNAOUHTWA4OLV","","","<img src=""img/flower6.png"" style=""width:200px; border:14px solid green;"">","null","","","","","","","","",""
"2250","","image-keyboard-response","71","364878","0.0-71.0","3QRYMNZ7FZ3FFW69XNUQKFNT70FNTA","A22LRKFP5S22GR","3THR0FZ95PF7SK0MYRNAOUHTWA4OLV","","","img/flower6.png","76","2265","3","1","3","","","","",""
"null","","html-keyboard-response","72","365197","0.0-72.0","3QRYMNZ7FZ3FFW69XNUQKFNT70FNTA","A22LRKFP5S22GR","3THR0FZ95PF7SK0MYRNAOUHTWA4OLV","","","<img src=""img/flower6.png"" style=""width:200px; border:14px solid green;"">","null","","","","","","","","",""
"1023","","image-keyboard-response","73","366220","0.0-73.0","3QRYMNZ7FZ3FFW69XNUQKFNT70FNTA","A22LRKFP5S22GR","3THR0FZ95PF7SK0MYRNAOUHTWA4OLV","","","img/flower6.png","76","1023","3","1","3","","","","",""
"null","","html-keyboard-response","74","366529","0.0-74.0","3QRYMNZ7FZ3FFW69XNUQKFNT70FNTA","A22LRKFP5S22GR","3THR0FZ95PF7SK0MYRNAOUHTWA4OLV","","","<img src=""img/flower6.png"" style=""width:200px; border:14px solid green;"">","null","","","","","","","","",""
"1173","","image-keyboard-response","75","367703","0.0-75.0","3QRYMNZ7FZ3FFW69XNUQKFNT70FNTA","A22LRKFP5S22GR","3THR0FZ95PF7SK0MYRNAOUHTWA4OLV","","","img/flower6.png","76","1184","3","0","3","","","","",""
"null","","html-keyboard-response","76","368035","0.0-76.0","3QRYMNZ7FZ3FFW69XNUQKFNT70FNTA","A22LRKFP5S22GR","3THR0FZ95PF7SK0MYRNAOUHTWA4OLV","","","<img src=""img/flower6.png"" style=""width:200px;border:14px solid red;"">","null","","","","","","","","",""
"1641","","image-keyboard-response","77","369676","0.0-77.0","3QRYMNZ7FZ3FFW69XNUQKFNT70FNTA","A22LRKFP5S22GR","3THR0FZ95PF7SK0MYRNAOUHTWA4OLV","","","img/flower5.png","75","1652","2","0","2","","","","",""
"null","","html-keyboard-response","78","369997","0.0-78.0","3QRYMNZ7FZ3FFW69XNUQKFNT70FNTA","A22LRKFP5S22GR","3THR0FZ95PF7SK0MYRNAOUHTWA4OLV","","","<img src=""img/flower5.png"" style=""width:200px;border:14px solid red;"">","null","","","","","","","","",""
"1738","","image-keyboard-response","79","371735","0.0-79.0","3QRYMNZ7FZ3FFW69XNUQKFNT70FNTA","A22LRKFP5S22GR","3THR0FZ95PF7SK0MYRNAOUHTWA4OLV","","","img/flower5.png","75","1738","2","1","2","","","","",""
"null","","html-keyboard-response","80","372046","0.0-80.0","3QRYMNZ7FZ3FFW69XNUQKFNT70FNTA","A22LRKFP5S22GR","3THR0FZ95PF7SK0MYRNAOUHTWA4OLV","","","<img src=""img/flower5.png"" style=""width:200px; border:14px solid green;"">","null","","","","","","","","",""
"1442","","image-keyboard-response","81","373500","0.0-81.0","3QRYMNZ7FZ3FFW69XNUQKFNT70FNTA","A22LRKFP5S22GR","3THR0FZ95PF7SK0MYRNAOUHTWA4OLV","","","img/flower5.png","75","1454","2","1","2","","","","",""
"null","","html-keyboard-response","82","373811","0.0-82.0","3QRYMNZ7FZ3FFW69XNUQKFNT70FNTA","A22LRKFP5S22GR","3THR0FZ95PF7SK0MYRNAOUHTWA4OLV","","","<img src=""img/flower5.png"" style=""width:200px; border:14px solid green;"">","null","","","","","","","","",""
"2163","","image-keyboard-response","83","375975","0.0-83.0","3QRYMNZ7FZ3FFW69XNUQKFNT70FNTA","A22LRKFP5S22GR","3THR0FZ95PF7SK0MYRNAOUHTWA4OLV","","","img/flower6.png","74","2165","1","0","3","","","","",""
"null","","html-keyboard-response","84","376279","0.0-84.0","3QRYMNZ7FZ3FFW69XNUQKFNT70FNTA","A22LRKFP5S22GR","3THR0FZ95PF7SK0MYRNAOUHTWA4OLV","","","<img src=""img/flower6.png"" style=""width:200px;border:14px solid red;"">","null","","","","","","","","",""
"2819","","image-keyboard-response","85","379098","0.0-85.0","3QRYMNZ7FZ3FFW69XNUQKFNT70FNTA","A22LRKFP5S22GR","3THR0FZ95PF7SK0MYRNAOUHTWA4OLV","","","img/flower4.png","74","2825","1","0","1","","","","",""
"null","","html-keyboard-response","86","379417","0.0-86.0","3QRYMNZ7FZ3FFW69XNUQKFNT70FNTA","A22LRKFP5S22GR","3THR0FZ95PF7SK0MYRNAOUHTWA4OLV","","","<img src=""img/flower4.png"" style=""width:200px;border:14px solid red;"">","null","","","","","","","","",""
"1872","","image-keyboard-response","87","381290","0.0-87.0","3QRYMNZ7FZ3FFW69XNUQKFNT70FNTA","A22LRKFP5S22GR","3THR0FZ95PF7SK0MYRNAOUHTWA4OLV","","","img/flower4.png","75","1873","2","0","1","","","","",""
"null","","html-keyboard-response","88","381594","0.0-88.0","3QRYMNZ7FZ3FFW69XNUQKFNT70FNTA","A22LRKFP5S22GR","3THR0FZ95PF7SK0MYRNAOUHTWA4OLV","","","<img src=""img/flower4.png"" style=""width:200px;border:14px solid red;"">","null","","","","","","","","",""
"4637","","image-keyboard-response","89","386231","0.0-89.0","3QRYMNZ7FZ3FFW69XNUQKFNT70FNTA","A22LRKFP5S22GR","3THR0FZ95PF7SK0MYRNAOUHTWA4OLV","","","img/flower4.png","74","4637","1","1","1","","","","",""
"null","","html-keyboard-response","90","386543","0.0-90.0","3QRYMNZ7FZ3FFW69XNUQKFNT70FNTA","A22LRKFP5S22GR","3THR0FZ95PF7SK0MYRNAOUHTWA4OLV","","","<img src=""img/flower4.png"" style=""width:200px; border:14px solid green;"">","null","","","","","","","","",""
"425","","image-keyboard-response","91","386969","0.0-91.0","3QRYMNZ7FZ3FFW69XNUQKFNT70FNTA","A22LRKFP5S22GR","3THR0FZ95PF7SK0MYRNAOUHTWA4OLV","","","img/flower4.png","75","439","2","1","1","","","","",""
"null","","html-keyboard-response","92","387293","0.0-92.0","3QRYMNZ7FZ3FFW69XNUQKFNT70FNTA","A22LRKFP5S22GR","3THR0FZ95PF7SK0MYRNAOUHTWA4OLV","","","<img src=""img/flower4.png"" style=""width:200px; border:14px solid green;"">","null","","","","","","","","",""
"3571","","image-keyboard-response","93","390865","0.0-93.0","3QRYMNZ7FZ3FFW69XNUQKFNT70FNTA","A22LRKFP5S22GR","3THR0FZ95PF7SK0MYRNAOUHTWA4OLV","","","img/flower5.png","75","3572","2","1","2","","","","",""
"null","","html-keyboard-response","94","391176","0.0-94.0","3QRYMNZ7FZ3FFW69XNUQKFNT70FNTA","A22LRKFP5S22GR","3THR0FZ95PF7SK0MYRNAOUHTWA4OLV","","","<img src=""img/flower5.png"" style=""width:200px; border:14px solid green;"">","null","","","","","","","","",""
"1497","","image-keyboard-response","95","392673","0.0-95.0","3QRYMNZ7FZ3FFW69XNUQKFNT70FNTA","A22LRKFP5S22GR","3THR0FZ95PF7SK0MYRNAOUHTWA4OLV","","","img/flower4.png","74","1502","1","1","1","","","","",""
"null","","html-keyboard-response","96","392988","0.0-96.0","3QRYMNZ7FZ3FFW69XNUQKFNT70FNTA","A22LRKFP5S22GR","3THR0FZ95PF7SK0MYRNAOUHTWA4OLV","","","<img src=""img/flower4.png"" style=""width:200px; border:14px solid green;"">","null","","","","","","","","",""
"1191","","image-keyboard-response","97","394188","0.0-97.0","3QRYMNZ7FZ3FFW69XNUQKFNT70FNTA","A22LRKFP5S22GR","3THR0FZ95PF7SK0MYRNAOUHTWA4OLV","","","img/flower6.png","76","1199","3","1","3","","","","",""
"null","","html-keyboard-response","98","394498","0.0-98.0","3QRYMNZ7FZ3FFW69XNUQKFNT70FNTA","A22LRKFP5S22GR","3THR0FZ95PF7SK0MYRNAOUHTWA4OLV","","","<img src=""img/flower6.png"" style=""width:200px; border:14px solid green;"">","null","","","","","","","","",""
"1258","","image-keyboard-response","99","395761","0.0-99.0","3QRYMNZ7FZ3FFW69XNUQKFNT70FNTA","A22LRKFP5S22GR","3THR0FZ95PF7SK0MYRNAOUHTWA4OLV","","","img/flower5.png","75","1263","2","0","2","","","","",""
"null","","html-keyboard-response","100","396082","0.0-100.0","3QRYMNZ7FZ3FFW69XNUQKFNT70FNTA","A22LRKFP5S22GR","3THR0FZ95PF7SK0MYRNAOUHTWA4OLV","","","<img src=""img/flower5.png"" style=""width:200px;border:14px solid red;"">","null","","","","","","","","",""
"1319","","image-keyboard-response","101","397418","0.0-101.0","3QRYMNZ7FZ3FFW69XNUQKFNT70FNTA","A22LRKFP5S22GR","3THR0FZ95PF7SK0MYRNAOUHTWA4OLV","","","img/flower4.png","74","1332","1","1","1","","","","",""
"null","","html-keyboard-response","102","397732","0.0-102.0","3QRYMNZ7FZ3FFW69XNUQKFNT70FNTA","A22LRKFP5S22GR","3THR0FZ95PF7SK0MYRNAOUHTWA4OLV","","","<img src=""img/flower4.png"" style=""width:200px; border:14px solid green;"">","null","","","","","","","","",""
"1643","","image-keyboard-response","103","399379","0.0-103.0","3QRYMNZ7FZ3FFW69XNUQKFNT70FNTA","A22LRKFP5S22GR","3THR0FZ95PF7SK0MYRNAOUHTWA4OLV","","","img/flower5.png","75","1647","2","1","2","","","","",""
"null","","html-keyboard-response","104","399692","0.0-104.0","3QRYMNZ7FZ3FFW69XNUQKFNT70FNTA","A22LRKFP5S22GR","3THR0FZ95PF7SK0MYRNAOUHTWA4OLV","","","<img src=""img/flower5.png"" style=""width:200px; border:14px solid green;"">","null","","","","","","","","",""
"1185","","image-keyboard-response","105","400890","0.0-105.0","3QRYMNZ7FZ3FFW69XNUQKFNT70FNTA","A22LRKFP5S22GR","3THR0FZ95PF7SK0MYRNAOUHTWA4OLV","","","img/flower4.png","74","1198","1","1","1","","","","",""
"null","","html-keyboard-response","106","401204","0.0-106.0","3QRYMNZ7FZ3FFW69XNUQKFNT70FNTA","A22LRKFP5S22GR","3THR0FZ95PF7SK0MYRNAOUHTWA4OLV","","","<img src=""img/flower4.png"" style=""width:200px; border:14px solid green;"">","null","","","","","","","","",""
"1127","","image-keyboard-response","107","402338","0.0-107.0","3QRYMNZ7FZ3FFW69XNUQKFNT70FNTA","A22LRKFP5S22GR","3THR0FZ95PF7SK0MYRNAOUHTWA4OLV","","","img/flower5.png","75","1134","2","0","2","","","","",""
"null","","html-keyboard-response","108","402657","0.0-108.0","3QRYMNZ7FZ3FFW69XNUQKFNT70FNTA","A22LRKFP5S22GR","3THR0FZ95PF7SK0MYRNAOUHTWA4OLV","","","<img src=""img/flower5.png"" style=""width:200px;border:14px solid red;"">","null","","","","","","","","",""
"1905","","image-keyboard-response","109","404563","0.0-109.0","3QRYMNZ7FZ3FFW69XNUQKFNT70FNTA","A22LRKFP5S22GR","3THR0FZ95PF7SK0MYRNAOUHTWA4OLV","","","img/flower6.png","76","1913","3","1","3","","","","",""
"null","","html-keyboard-response","110","404877","0.0-110.0","3QRYMNZ7FZ3FFW69XNUQKFNT70FNTA","A22LRKFP5S22GR","3THR0FZ95PF7SK0MYRNAOUHTWA4OLV","","","<img src=""img/flower6.png"" style=""width:200px; border:14px solid green;"">","null","","","","","","","","",""
"2770","","image-keyboard-response","111","407649","0.0-111.0","3QRYMNZ7FZ3FFW69XNUQKFNT70FNTA","A22LRKFP5S22GR","3THR0FZ95PF7SK0MYRNAOUHTWA4OLV","","","img/flower4.png","74","2772","1","0","1","","","","",""
"null","","html-keyboard-response","112","407953","0.0-112.0","3QRYMNZ7FZ3FFW69XNUQKFNT70FNTA","A22LRKFP5S22GR","3THR0FZ95PF7SK0MYRNAOUHTWA4OLV","","","<img src=""img/flower4.png"" style=""width:200px;border:14px solid red;"">","null","","","","","","","","",""
"2336","","image-keyboard-response","113","410290","0.0-113.0","3QRYMNZ7FZ3FFW69XNUQKFNT70FNTA","A22LRKFP5S22GR","3THR0FZ95PF7SK0MYRNAOUHTWA4OLV","","","img/flower6.png","76","2342","3","0","3","","","","",""
"null","","html-keyboard-response","114","410608","0.0-114.0","3QRYMNZ7FZ3FFW69XNUQKFNT70FNTA","A22LRKFP5S22GR","3THR0FZ95PF7SK0MYRNAOUHTWA4OLV","","","<img src=""img/flower6.png"" style=""width:200px;border:14px solid red;"">","null","","","","","","","","",""
"2226","","image-keyboard-response","115","412849","0.0-115.0","3QRYMNZ7FZ3FFW69XNUQKFNT70FNTA","A22LRKFP5S22GR","3THR0FZ95PF7SK0MYRNAOUHTWA4OLV","","","img/flower5.png","76","2241","3","1","2","","","","",""
"null","","html-keyboard-response","116","413159","0.0-116.0","3QRYMNZ7FZ3FFW69XNUQKFNT70FNTA","A22LRKFP5S22GR","3THR0FZ95PF7SK0MYRNAOUHTWA4OLV","","","<img src=""img/flower5.png"" style=""width:200px; border:14px solid green;"">","null","","","","","","","","",""
"1766","","image-keyboard-response","117","414928","0.0-117.0","3QRYMNZ7FZ3FFW69XNUQKFNT70FNTA","A22LRKFP5S22GR","3THR0FZ95PF7SK0MYRNAOUHTWA4OLV","","","img/flower5.png","75","1769","2","1","2","","","","",""
"null","","html-keyboard-response","118","415234","0.0-118.0","3QRYMNZ7FZ3FFW69XNUQKFNT70FNTA","A22LRKFP5S22GR","3THR0FZ95PF7SK0MYRNAOUHTWA4OLV","","","<img src=""img/flower5.png"" style=""width:200px; border:14px solid green;"">","null","","","","","","","","",""
"2129","","image-keyboard-response","119","417371","0.0-119.0","3QRYMNZ7FZ3FFW69XNUQKFNT70FNTA","A22LRKFP5S22GR","3THR0FZ95PF7SK0MYRNAOUHTWA4OLV","","","img/flower4.png","74","2137","1","1","1","","","","",""
"null","","html-keyboard-response","120","417685","0.0-120.0","3QRYMNZ7FZ3FFW69XNUQKFNT70FNTA","A22LRKFP5S22GR","3THR0FZ95PF7SK0MYRNAOUHTWA4OLV","","","<img src=""img/flower4.png"" style=""width:200px; border:14px solid green;"">","null","","","","","","","","",""
"1284","","image-keyboard-response","121","418981","0.0-121.0","3QRYMNZ7FZ3FFW69XNUQKFNT70FNTA","A22LRKFP5S22GR","3THR0FZ95PF7SK0MYRNAOUHTWA4OLV","","","img/flower4.png","74","1296","1","1","1","","","","",""
"null","","html-keyboard-response","122","419294","0.0-122.0","3QRYMNZ7FZ3FFW69XNUQKFNT70FNTA","A22LRKFP5S22GR","3THR0FZ95PF7SK0MYRNAOUHTWA4OLV","","","<img src=""img/flower4.png"" style=""width:200px; border:14px solid green;"">","null","","","","","","","","",""
"2223","","image-keyboard-response","123","421533","0.0-123.0","3QRYMNZ7FZ3FFW69XNUQKFNT70FNTA","A22LRKFP5S22GR","3THR0FZ95PF7SK0MYRNAOUHTWA4OLV","","","img/flower5.png","75","2239","2","1","2","","","","",""
"null","","html-keyboard-response","124","421846","0.0-124.0","3QRYMNZ7FZ3FFW69XNUQKFNT70FNTA","A22LRKFP5S22GR","3THR0FZ95PF7SK0MYRNAOUHTWA4OLV","","","<img src=""img/flower5.png"" style=""width:200px; border:14px solid green;"">","null","","","","","","","","",""
"4131","","instructions","125","425978","0.0-125.0","3QRYMNZ7FZ3FFW69XNUQKFNT70FNTA","A22LRKFP5S22GR","3THR0FZ95PF7SK0MYRNAOUHTWA4OLV","","[{""page_index"":0,""viewing_time"":4131}]","","","","","","","","","","",""
"3582","","image-keyboard-response","126","429561","0.0-126.0","3QRYMNZ7FZ3FFW69XNUQKFNT70FNTA","A22LRKFP5S22GR","3THR0FZ95PF7SK0MYRNAOUHTWA4OLV","","","img/flower3.png","74","3583","1","0","3","1","1,0.333,0.333,0.333,1,0.333,0.333,0.333,1","1,0.333,0.333,0.333,1,0.333,0.333,0.333,1","1",""
"null","","html-keyboard-response","127","429874","0.0-127.0","3QRYMNZ7FZ3FFW69XNUQKFNT70FNTA","A22LRKFP5S22GR","3THR0FZ95PF7SK0MYRNAOUHTWA4OLV","","","<img src=""img/flower3.png"" style=""width:200px;border:14px solid red;"">","null","","","","","","","","",""
"1460","","image-keyboard-response","128","431340","0.0-128.0","3QRYMNZ7FZ3FFW69XNUQKFNT70FNTA","A22LRKFP5S22GR","3THR0FZ95PF7SK0MYRNAOUHTWA4OLV","","","img/flower5.png","75","1466","2","1","2","1","1,0.333,0.333,0.333,1,0.333,0.333,0.333,1","1,0.333,0.333,0.333,1,0.333,0.333,0.333,1","1",""
"null","","html-keyboard-response","129","431653","0.0-129.0","3QRYMNZ7FZ3FFW69XNUQKFNT70FNTA","A22LRKFP5S22GR","3THR0FZ95PF7SK0MYRNAOUHTWA4OLV","","","<img src=""img/flower5.png"" style=""width:200px; border:14px solid green;"">","null","","","","","","","","",""
"1399","","image-keyboard-response","130","433058","0.0-130.0","3QRYMNZ7FZ3FFW69XNUQKFNT70FNTA","A22LRKFP5S22GR","3THR0FZ95PF7SK0MYRNAOUHTWA4OLV","","","img/flower5.png","75","1405","2","1","2","1","1,0.333,0.333,0.333,1,0.333,0.333,0.333,1","1,0.333,0.333,0.333,1,0.333,0.333,0.333,1","1",""
"null","","html-keyboard-response","131","433372","0.0-131.0","3QRYMNZ7FZ3FFW69XNUQKFNT70FNTA","A22LRKFP5S22GR","3THR0FZ95PF7SK0MYRNAOUHTWA4OLV","","","<img src=""img/flower5.png"" style=""width:200px; border:14px solid green;"">","null","","","","","","","","",""
"1100","","image-keyboard-response","132","434472","0.0-132.0","3QRYMNZ7FZ3FFW69XNUQKFNT70FNTA","A22LRKFP5S22GR","3THR0FZ95PF7SK0MYRNAOUHTWA4OLV","","","img/flower5.png","75","1110","2","1","2","1","1,0.333,0.333,0.333,1,0.333,0.333,0.333,1","1,0.333,0.333,0.333,1,0.333,0.333,0.333,1","1",""
"null","","html-keyboard-response","133","434795","0.0-133.0","3QRYMNZ7FZ3FFW69XNUQKFNT70FNTA","A22LRKFP5S22GR","3THR0FZ95PF7SK0MYRNAOUHTWA4OLV","","","<img src=""img/flower5.png"" style=""width:200px; border:14px solid green;"">","null","","","","","","","","",""
"928","","image-keyboard-response","134","435735","0.0-134.0","3QRYMNZ7FZ3FFW69XNUQKFNT70FNTA","A22LRKFP5S22GR","3THR0FZ95PF7SK0MYRNAOUHTWA4OLV","","","img/flower5.png","75","940","2","1","2","1","1,0.333,0.333,0.333,1,0.333,0.333,0.333,1","1,0.333,0.333,0.333,1,0.333,0.333,0.333,1","1",""
"null","","html-keyboard-response","135","436049","0.0-135.0","3QRYMNZ7FZ3FFW69XNUQKFNT70FNTA","A22LRKFP5S22GR","3THR0FZ95PF7SK0MYRNAOUHTWA4OLV","","","<img src=""img/flower5.png"" style=""width:200px; border:14px solid green;"">","null","","","","","","","","",""
"2625","","image-keyboard-response","136","438686","0.0-136.0","3QRYMNZ7FZ3FFW69XNUQKFNT70FNTA","A22LRKFP5S22GR","3THR0FZ95PF7SK0MYRNAOUHTWA4OLV","","","img/flower1.png","76","2637","3","1","1","1","1,0.333,0.333,0.333,1,0.333,0.333,0.333,1","1,0.333,0.333,0.333,1,0.333,0.333,0.333,1","1",""
"null","","html-keyboard-response","137","438988","0.0-137.0","3QRYMNZ7FZ3FFW69XNUQKFNT70FNTA","A22LRKFP5S22GR","3THR0FZ95PF7SK0MYRNAOUHTWA4OLV","","","<img src=""img/flower1.png"" style=""width:200px; border:14px solid green;"">","null","","","","","","","","",""
"1656","","image-keyboard-response","138","440660","0.0-138.0","3QRYMNZ7FZ3FFW69XNUQKFNT70FNTA","A22LRKFP5S22GR","3THR0FZ95PF7SK0MYRNAOUHTWA4OLV","","","img/flower3.png","74","1672","1","0","3","1","1,0.333,0.333,0.333,1,0.333,0.333,0.333,1","1,0.333,0.333,0.333,1,0.333,0.333,0.333,1","1",""
"null","","html-keyboard-response","139","440967","0.0-139.0","3QRYMNZ7FZ3FFW69XNUQKFNT70FNTA","A22LRKFP5S22GR","3THR0FZ95PF7SK0MYRNAOUHTWA4OLV","","","<img src=""img/flower3.png"" style=""width:200px;border:14px solid red;"">","null","","","","","","","","",""
"2332","","image-keyboard-response","140","443305","0.0-140.0","3QRYMNZ7FZ3FFW69XNUQKFNT70FNTA","A22LRKFP5S22GR","3THR0FZ95PF7SK0MYRNAOUHTWA4OLV","","","img/flower3.png","76","2337","3","1","3","1","1,0.333,0.333,0.333,1,0.333,0.333,0.333,1","1,0.333,0.333,0.333,1,0.333,0.333,0.333,1","1",""
"null","","html-keyboard-response","141","443608","0.0-141.0","3QRYMNZ7FZ3FFW69XNUQKFNT70FNTA","A22LRKFP5S22GR","3THR0FZ95PF7SK0MYRNAOUHTWA4OLV","","","<img src=""img/flower3.png"" style=""width:200px; border:14px solid green;"">","null","","","","","","","","",""
"1209","","image-keyboard-response","142","444817","0.0-142.0","3QRYMNZ7FZ3FFW69XNUQKFNT70FNTA","A22LRKFP5S22GR","3THR0FZ95PF7SK0MYRNAOUHTWA4OLV","","","img/flower5.png","75","1210","2","1","2","1","1,0.333,0.333,0.333,1,0.333,0.333,0.333,1","1,0.333,0.333,0.333,1,0.333,0.333,0.333,1","1",""
"null","","html-keyboard-response","143","445123","0.0-143.0","3QRYMNZ7FZ3FFW69XNUQKFNT70FNTA","A22LRKFP5S22GR","3THR0FZ95PF7SK0MYRNAOUHTWA4OLV","","","<img src=""img/flower5.png"" style=""width:200px; border:14px solid green;"">","null","","","","","","","","",""
"1423","","image-keyboard-response","144","446548","0.0-144.0","3QRYMNZ7FZ3FFW69XNUQKFNT70FNTA","A22LRKFP5S22GR","3THR0FZ95PF7SK0MYRNAOUHTWA4OLV","","","img/flower3.png","76","1425","3","1","3","1","1,0.333,0.333,0.333,1,0.333,0.333,0.333,1","1,0.333,0.333,0.333,1,0.333,0.333,0.333,1","1",""
"null","","html-keyboard-response","145","446861","0.0-145.0","3QRYMNZ7FZ3FFW69XNUQKFNT70FNTA","A22LRKFP5S22GR","3THR0FZ95PF7SK0MYRNAOUHTWA4OLV","","","<img src=""img/flower3.png"" style=""width:200px; border:14px solid green;"">","null","","","","","","","","",""
"1533","","image-keyboard-response","146","448407","0.0-146.0","3QRYMNZ7FZ3FFW69XNUQKFNT70FNTA","A22LRKFP5S22GR","3THR0FZ95PF7SK0MYRNAOUHTWA4OLV","","","img/flower1.png","74","1546","1","1","1","1","1,0.333,0.333,0.333,1,0.333,0.333,0.333,1","1,0.333,0.333,0.333,1,0.333,0.333,0.333,1","1",""
"null","","html-keyboard-response","147","448718","0.0-147.0","3QRYMNZ7FZ3FFW69XNUQKFNT70FNTA","A22LRKFP5S22GR","3THR0FZ95PF7SK0MYRNAOUHTWA4OLV","","","<img src=""img/flower1.png"" style=""width:200px; border:14px solid green;"">","null","","","","","","","","",""
"1582","","image-keyboard-response","148","450311","0.0-148.0","3QRYMNZ7FZ3FFW69XNUQKFNT70FNTA","A22LRKFP5S22GR","3THR0FZ95PF7SK0MYRNAOUHTWA4OLV","","","img/flower3.png","76","1593","3","1","3","1","1,0.333,0.333,0.333,1,0.333,0.333,0.333,1","1,0.333,0.333,0.333,1,0.333,0.333,0.333,1","1",""
"null","","html-keyboard-response","149","450628","0.0-149.0","3QRYMNZ7FZ3FFW69XNUQKFNT70FNTA","A22LRKFP5S22GR","3THR0FZ95PF7SK0MYRNAOUHTWA4OLV","","","<img src=""img/flower3.png"" style=""width:200px; border:14px solid green;"">","null","","","","","","","","",""
"1185","","image-keyboard-response","150","451820","0.0-150.0","3QRYMNZ7FZ3FFW69XNUQKFNT70FNTA","A22LRKFP5S22GR","3THR0FZ95PF7SK0MYRNAOUHTWA4OLV","","","img/flower3.png","76","1192","3","1","3","1","1,0.333,0.333,0.333,1,0.333,0.333,0.333,1","1,0.333,0.333,0.333,1,0.333,0.333,0.333,1","1",""
"null","","html-keyboard-response","151","452123","0.0-151.0","3QRYMNZ7FZ3FFW69XNUQKFNT70FNTA","A22LRKFP5S22GR","3THR0FZ95PF7SK0MYRNAOUHTWA4OLV","","","<img src=""img/flower3.png"" style=""width:200px; border:14px solid green;"">","null","","","","","","","","",""
"1053","","image-keyboard-response","152","453187","0.0-152.0","3QRYMNZ7FZ3FFW69XNUQKFNT70FNTA","A22LRKFP5S22GR","3THR0FZ95PF7SK0MYRNAOUHTWA4OLV","","","img/flower5.png","75","1064","2","1","2","1","1,0.333,0.333,0.333,1,0.333,0.333,0.333,1","1,0.333,0.333,0.333,1,0.333,0.333,0.333,1","1",""
"null","","html-keyboard-response","153","453497","0.0-153.0","3QRYMNZ7FZ3FFW69XNUQKFNT70FNTA","A22LRKFP5S22GR","3THR0FZ95PF7SK0MYRNAOUHTWA4OLV","","","<img src=""img/flower5.png"" style=""width:200px; border:14px solid green;"">","null","","","","","","","","",""
"1507","","image-keyboard-response","154","455006","0.0-154.0","3QRYMNZ7FZ3FFW69XNUQKFNT70FNTA","A22LRKFP5S22GR","3THR0FZ95PF7SK0MYRNAOUHTWA4OLV","","","img/flower1.png","74","1509","1","1","1","1","1,0.333,0.333,0.333,1,0.333,0.333,0.333,1","1,0.333,0.333,0.333,1,0.333,0.333,0.333,1","1",""
"null","","html-keyboard-response","155","455310","0.0-155.0","3QRYMNZ7FZ3FFW69XNUQKFNT70FNTA","A22LRKFP5S22GR","3THR0FZ95PF7SK0MYRNAOUHTWA4OLV","","","<img src=""img/flower1.png"" style=""width:200px; border:14px solid green;"">","null","","","","","","","","",""
"1115","","image-keyboard-response","156","456427","0.0-156.0","3QRYMNZ7FZ3FFW69XNUQKFNT70FNTA","A22LRKFP5S22GR","3THR0FZ95PF7SK0MYRNAOUHTWA4OLV","","","img/flower1.png","74","1117","1","1","1","1","1,0.333,0.333,0.333,1,0.333,0.333,0.333,1","1,0.333,0.333,0.333,1,0.333,0.333,0.333,1","1",""
"null","","html-keyboard-response","157","456733","0.0-157.0","3QRYMNZ7FZ3FFW69XNUQKFNT70FNTA","A22LRKFP5S22GR","3THR0FZ95PF7SK0MYRNAOUHTWA4OLV","","","<img src=""img/flower1.png"" style=""width:200px; border:14px solid green;"">","null","","","","","","","","",""
"1599","","image-keyboard-response","158","458332","0.0-158.0","3QRYMNZ7FZ3FFW69XNUQKFNT70FNTA","A22LRKFP5S22GR","3THR0FZ95PF7SK0MYRNAOUHTWA4OLV","","","img/flower3.png","76","1602","3","1","3","1","1,0.333,0.333,0.333,1,0.333,0.333,0.333,1","1,0.333,0.333,0.333,1,0.333,0.333,0.333,1","1",""
"null","","html-keyboard-response","159","458637","0.0-159.0","3QRYMNZ7FZ3FFW69XNUQKFNT70FNTA","A22LRKFP5S22GR","3THR0FZ95PF7SK0MYRNAOUHTWA4OLV","","","<img src=""img/flower3.png"" style=""width:200px; border:14px solid green;"">","null","","","","","","","","",""
"1412","","image-keyboard-response","160","460051","0.0-160.0","3QRYMNZ7FZ3FFW69XNUQKFNT70FNTA","A22LRKFP5S22GR","3THR0FZ95PF7SK0MYRNAOUHTWA4OLV","","","img/flower5.png","75","1415","2","1","2","1","1,0.333,0.333,0.333,1,0.333,0.333,0.333,1","1,0.333,0.333,0.333,1,0.333,0.333,0.333,1","1",""
"null","","html-keyboard-response","161","460367","0.0-161.0","3QRYMNZ7FZ3FFW69XNUQKFNT70FNTA","A22LRKFP5S22GR","3THR0FZ95PF7SK0MYRNAOUHTWA4OLV","","","<img src=""img/flower5.png"" style=""width:200px; border:14px solid green;"">","null","","","","","","","","",""
"1345","","image-keyboard-response","162","461712","0.0-162.0","3QRYMNZ7FZ3FFW69XNUQKFNT70FNTA","A22LRKFP5S22GR","3THR0FZ95PF7SK0MYRNAOUHTWA4OLV","","","img/flower1.png","74","1346","1","1","1","1","1,0.333,0.333,0.333,1,0.333,0.333,0.333,1","1,0.333,0.333,0.333,1,0.333,0.333,0.333,1","1",""
"null","","html-keyboard-response","163","462030","0.0-163.0","3QRYMNZ7FZ3FFW69XNUQKFNT70FNTA","A22LRKFP5S22GR","3THR0FZ95PF7SK0MYRNAOUHTWA4OLV","","","<img src=""img/flower1.png"" style=""width:200px; border:14px solid green;"">","null","","","","","","","","",""
"2179","","image-keyboard-response","164","464210","0.0-164.0","3QRYMNZ7FZ3FFW69XNUQKFNT70FNTA","A22LRKFP5S22GR","3THR0FZ95PF7SK0MYRNAOUHTWA4OLV","","","img/flower1.png","74","2180","1","1","1","1","1,0.333,0.333,0.333,1,0.333,0.333,0.333,1","1,0.333,0.333,0.333,1,0.333,0.333,0.333,1","1",""
"null","","html-keyboard-response","165","464514","0.0-165.0","3QRYMNZ7FZ3FFW69XNUQKFNT70FNTA","A22LRKFP5S22GR","3THR0FZ95PF7SK0MYRNAOUHTWA4OLV","","","<img src=""img/flower1.png"" style=""width:200px; border:14px solid green;"">","null","","","","","","","","",""
"2755","","image-keyboard-response","166","467279","0.0-166.0","3QRYMNZ7FZ3FFW69XNUQKFNT70FNTA","A22LRKFP5S22GR","3THR0FZ95PF7SK0MYRNAOUHTWA4OLV","","","img/flower1.png","74","2765","1","1","1","1","1,0.333,0.333,0.333,1,0.333,0.333,0.333,1","1,0.333,0.333,0.333,1,0.333,0.333,0.333,1","1",""
"null","","html-keyboard-response","167","467595","0.0-167.0","3QRYMNZ7FZ3FFW69XNUQKFNT70FNTA","A22LRKFP5S22GR","3THR0FZ95PF7SK0MYRNAOUHTWA4OLV","","","<img src=""img/flower1.png"" style=""width:200px; border:14px solid green;"">","null","","","","","","","","",""
"986","","image-keyboard-response","168","468597","0.0-168.0","3QRYMNZ7FZ3FFW69XNUQKFNT70FNTA","A22LRKFP5S22GR","3THR0FZ95PF7SK0MYRNAOUHTWA4OLV","","","img/flower5.png","75","1002","2","1","2","1","1,0.333,0.333,0.333,1,0.333,0.333,0.333,1","1,0.333,0.333,0.333,1,0.333,0.333,0.333,1","1",""
"null","","html-keyboard-response","169","468906","0.0-169.0","3QRYMNZ7FZ3FFW69XNUQKFNT70FNTA","A22LRKFP5S22GR","3THR0FZ95PF7SK0MYRNAOUHTWA4OLV","","","<img src=""img/flower5.png"" style=""width:200px; border:14px solid green;"">","null","","","","","","","","",""
"968","","image-keyboard-response","170","469874","0.0-170.0","3QRYMNZ7FZ3FFW69XNUQKFNT70FNTA","A22LRKFP5S22GR","3THR0FZ95PF7SK0MYRNAOUHTWA4OLV","","","img/flower5.png","75","971","2","1","2","1","1,0.333,0.333,0.333,1,0.333,0.333,0.333,1","1,0.333,0.333,0.333,1,0.333,0.333,0.333,1","1",""
"null","","html-keyboard-response","171","470186","0.0-171.0","3QRYMNZ7FZ3FFW69XNUQKFNT70FNTA","A22LRKFP5S22GR","3THR0FZ95PF7SK0MYRNAOUHTWA4OLV","","","<img src=""img/flower5.png"" style=""width:200px; border:14px solid green;"">","null","","","","","","","","",""
"892","","image-keyboard-response","172","471090","0.0-172.0","3QRYMNZ7FZ3FFW69XNUQKFNT70FNTA","A22LRKFP5S22GR","3THR0FZ95PF7SK0MYRNAOUHTWA4OLV","","","img/flower5.png","75","904","2","1","2","1","1,0.333,0.333,0.333,1,0.333,0.333,0.333,1","1,0.333,0.333,0.333,1,0.333,0.333,0.333,1","1",""
"null","","html-keyboard-response","173","471401","0.0-173.0","3QRYMNZ7FZ3FFW69XNUQKFNT70FNTA","A22LRKFP5S22GR","3THR0FZ95PF7SK0MYRNAOUHTWA4OLV","","","<img src=""img/flower5.png"" style=""width:200px; border:14px solid green;"">","null","","","","","","","","",""
"942","","image-keyboard-response","174","472352","0.0-174.0","3QRYMNZ7FZ3FFW69XNUQKFNT70FNTA","A22LRKFP5S22GR","3THR0FZ95PF7SK0MYRNAOUHTWA4OLV","","","img/flower1.png","74","951","1","1","1","1","1,0.333,0.333,0.333,1,0.333,0.333,0.333,1","1,0.333,0.333,0.333,1,0.333,0.333,0.333,1","1",""
"null","","html-keyboard-response","175","472664","0.0-175.0","3QRYMNZ7FZ3FFW69XNUQKFNT70FNTA","A22LRKFP5S22GR","3THR0FZ95PF7SK0MYRNAOUHTWA4OLV","","","<img src=""img/flower1.png"" style=""width:200px; border:14px solid green;"">","null","","","","","","","","",""
"945","","image-keyboard-response","176","473609","0.0-176.0","3QRYMNZ7FZ3FFW69XNUQKFNT70FNTA","A22LRKFP5S22GR","3THR0FZ95PF7SK0MYRNAOUHTWA4OLV","","","img/flower5.png","75","958","2","1","2","1","1,0.333,0.333,0.333,1,0.333,0.333,0.333,1","1,0.333,0.333,0.333,1,0.333,0.333,0.333,1","1",""
"null","","html-keyboard-response","177","473937","0.0-177.0","3QRYMNZ7FZ3FFW69XNUQKFNT70FNTA","A22LRKFP5S22GR","3THR0FZ95PF7SK0MYRNAOUHTWA4OLV","","","<img src=""img/flower5.png"" style=""width:200px; border:14px solid green;"">","null","","","","","","","","",""
"1194","","image-keyboard-response","178","475131","0.0-178.0","3QRYMNZ7FZ3FFW69XNUQKFNT70FNTA","A22LRKFP5S22GR","3THR0FZ95PF7SK0MYRNAOUHTWA4OLV","","","img/flower3.png","76","1210","3","1","3","1","1,0.333,0.333,0.333,1,0.333,0.333,0.333,1","1,0.333,0.333,0.333,1,0.333,0.333,0.333,1","1",""
"null","","html-keyboard-response","179","475453","0.0-179.0","3QRYMNZ7FZ3FFW69XNUQKFNT70FNTA","A22LRKFP5S22GR","3THR0FZ95PF7SK0MYRNAOUHTWA4OLV","","","<img src=""img/flower3.png"" style=""width:200px; border:14px solid green;"">","null","","","","","","","","",""
"1238","","image-keyboard-response","180","476692","0.0-180.0","3QRYMNZ7FZ3FFW69XNUQKFNT70FNTA","A22LRKFP5S22GR","3THR0FZ95PF7SK0MYRNAOUHTWA4OLV","","","img/flower5.png","75","1239","2","1","2","1","1,0.333,0.333,0.333,1,0.333,0.333,0.333,1","1,0.333,0.333,0.333,1,0.333,0.333,0.333,1","1",""
"null","","html-keyboard-response","181","476998","0.0-181.0","3QRYMNZ7FZ3FFW69XNUQKFNT70FNTA","A22LRKFP5S22GR","3THR0FZ95PF7SK0MYRNAOUHTWA4OLV","","","<img src=""img/flower5.png"" style=""width:200px; border:14px solid green;"">","null","","","","","","","","",""
"1255","","image-keyboard-response","182","478254","0.0-182.0","3QRYMNZ7FZ3FFW69XNUQKFNT70FNTA","A22LRKFP5S22GR","3THR0FZ95PF7SK0MYRNAOUHTWA4OLV","","","img/flower3.png","76","1267","3","1","3","1","1,0.333,0.333,0.333,1,0.333,0.333,0.333,1","1,0.333,0.333,0.333,1,0.333,0.333,0.333,1","1",""
"null","","html-keyboard-response","183","478578","0.0-183.0","3QRYMNZ7FZ3FFW69XNUQKFNT70FNTA","A22LRKFP5S22GR","3THR0FZ95PF7SK0MYRNAOUHTWA4OLV","","","<img src=""img/flower3.png"" style=""width:200px; border:14px solid green;"">","null","","","","","","","","",""
"1050","","image-keyboard-response","184","479628","0.0-184.0","3QRYMNZ7FZ3FFW69XNUQKFNT70FNTA","A22LRKFP5S22GR","3THR0FZ95PF7SK0MYRNAOUHTWA4OLV","","","img/flower3.png","76","1061","3","1","3","1","1,0.333,0.333,0.333,1,0.333,0.333,0.333,1","1,0.333,0.333,0.333,1,0.333,0.333,0.333,1","1",""
"null","","html-keyboard-response","185","479954","0.0-185.0","3QRYMNZ7FZ3FFW69XNUQKFNT70FNTA","A22LRKFP5S22GR","3THR0FZ95PF7SK0MYRNAOUHTWA4OLV","","","<img src=""img/flower3.png"" style=""width:200px; border:14px solid green;"">","null","","","","","","","","",""
"848","","image-keyboard-response","186","480803","0.0-186.0","3QRYMNZ7FZ3FFW69XNUQKFNT70FNTA","A22LRKFP5S22GR","3THR0FZ95PF7SK0MYRNAOUHTWA4OLV","","","img/flower3.png","76","854","3","1","3","1","1,0.333,0.333,0.333,1,0.333,0.333,0.333,1","1,0.333,0.333,0.333,1,0.333,0.333,0.333,1","1",""
"null","","html-keyboard-response","187","481122","0.0-187.0","3QRYMNZ7FZ3FFW69XNUQKFNT70FNTA","A22LRKFP5S22GR","3THR0FZ95PF7SK0MYRNAOUHTWA4OLV","","","<img src=""img/flower3.png"" style=""width:200px; border:14px solid green;"">","null","","","","","","","","",""
"862","","image-keyboard-response","188","481988","0.0-188.0","3QRYMNZ7FZ3FFW69XNUQKFNT70FNTA","A22LRKFP5S22GR","3THR0FZ95PF7SK0MYRNAOUHTWA4OLV","","","img/flower1.png","74","866","1","1","1","1","1,0.333,0.333,0.333,1,0.333,0.333,0.333,1","1,0.333,0.333,0.333,1,0.333,0.333,0.333,1","1",""
"null","","html-keyboard-response","189","482291","0.0-189.0","3QRYMNZ7FZ3FFW69XNUQKFNT70FNTA","A22LRKFP5S22GR","3THR0FZ95PF7SK0MYRNAOUHTWA4OLV","","","<img src=""img/flower1.png"" style=""width:200px; border:14px solid green;"">","null","","","","","","","","",""
"1119","","image-keyboard-response","190","483411","0.0-190.0","3QRYMNZ7FZ3FFW69XNUQKFNT70FNTA","A22LRKFP5S22GR","3THR0FZ95PF7SK0MYRNAOUHTWA4OLV","","","img/flower5.png","75","1131","2","1","2","1","1,0.333,0.333,0.333,1,0.333,0.333,0.333,1","1,0.333,0.333,0.333,1,0.333,0.333,0.333,1","1",""
"null","","html-keyboard-response","191","483738","0.0-191.0","3QRYMNZ7FZ3FFW69XNUQKFNT70FNTA","A22LRKFP5S22GR","3THR0FZ95PF7SK0MYRNAOUHTWA4OLV","","","<img src=""img/flower5.png"" style=""width:200px; border:14px solid green;"">","null","","","","","","","","",""
"1324","","image-keyboard-response","192","485073","0.0-192.0","3QRYMNZ7FZ3FFW69XNUQKFNT70FNTA","A22LRKFP5S22GR","3THR0FZ95PF7SK0MYRNAOUHTWA4OLV","","","img/flower3.png","76","1335","3","1","3","1","1,0.333,0.333,0.333,1,0.333,0.333,0.333,1","1,0.333,0.333,0.333,1,0.333,0.333,0.333,1","1",""
"null","","html-keyboard-response","193","485388","0.0-193.0","3QRYMNZ7FZ3FFW69XNUQKFNT70FNTA","A22LRKFP5S22GR","3THR0FZ95PF7SK0MYRNAOUHTWA4OLV","","","<img src=""img/flower3.png"" style=""width:200px; border:14px solid green;"">","null","","","","","","","","",""
"841","","image-keyboard-response","194","486232","0.0-194.0","3QRYMNZ7FZ3FFW69XNUQKFNT70FNTA","A22LRKFP5S22GR","3THR0FZ95PF7SK0MYRNAOUHTWA4OLV","","","img/flower3.png","76","844","3","1","3","1","1,0.333,0.333,0.333,1,0.333,0.333,0.333,1","1,0.333,0.333,0.333,1,0.333,0.333,0.333,1","1",""
"null","","html-keyboard-response","195","486547","0.0-195.0","3QRYMNZ7FZ3FFW69XNUQKFNT70FNTA","A22LRKFP5S22GR","3THR0FZ95PF7SK0MYRNAOUHTWA4OLV","","","<img src=""img/flower3.png"" style=""width:200px; border:14px solid green;"">","null","","","","","","","","",""
"1060","","image-keyboard-response","196","487620","0.0-196.0","3QRYMNZ7FZ3FFW69XNUQKFNT70FNTA","A22LRKFP5S22GR","3THR0FZ95PF7SK0MYRNAOUHTWA4OLV","","","img/flower5.png","75","1073","2","1","2","1","1,0.333,0.333,0.333,1,0.333,0.333,0.333,1","1,0.333,0.333,0.333,1,0.333,0.333,0.333,1","1",""
"null","","html-keyboard-response","197","487936","0.0-197.0","3QRYMNZ7FZ3FFW69XNUQKFNT70FNTA","A22LRKFP5S22GR","3THR0FZ95PF7SK0MYRNAOUHTWA4OLV","","","<img src=""img/flower5.png"" style=""width:200px; border:14px solid green;"">","null","","","","","","","","",""
"1333","","image-keyboard-response","198","489271","0.0-198.0","3QRYMNZ7FZ3FFW69XNUQKFNT70FNTA","A22LRKFP5S22GR","3THR0FZ95PF7SK0MYRNAOUHTWA4OLV","","","img/flower1.png","74","1335","1","1","1","1","1,0.333,0.333,0.333,1,0.333,0.333,0.333,1","1,0.333,0.333,0.333,1,0.333,0.333,0.333,1","1",""
"null","","html-keyboard-response","199","489578","0.0-199.0","3QRYMNZ7FZ3FFW69XNUQKFNT70FNTA","A22LRKFP5S22GR","3THR0FZ95PF7SK0MYRNAOUHTWA4OLV","","","<img src=""img/flower1.png"" style=""width:200px; border:14px solid green;"">","null","","","","","","","","",""
"890","","image-keyboard-response","200","490478","0.0-200.0","3QRYMNZ7FZ3FFW69XNUQKFNT70FNTA","A22LRKFP5S22GR","3THR0FZ95PF7SK0MYRNAOUHTWA4OLV","","","img/flower1.png","74","900","1","1","1","1","1,0.333,0.333,0.333,1,0.333,0.333,0.333,1","1,0.333,0.333,0.333,1,0.333,0.333,0.333,1","1",""
"null","","html-keyboard-response","201","490779","0.0-201.0","3QRYMNZ7FZ3FFW69XNUQKFNT70FNTA","A22LRKFP5S22GR","3THR0FZ95PF7SK0MYRNAOUHTWA4OLV","","","<img src=""img/flower1.png"" style=""width:200px; border:14px solid green;"">","null","","","","","","","","",""
"999","","image-keyboard-response","202","491781","0.0-202.0","3QRYMNZ7FZ3FFW69XNUQKFNT70FNTA","A22LRKFP5S22GR","3THR0FZ95PF7SK0MYRNAOUHTWA4OLV","","","img/flower3.png","76","1008","3","1","3","1","1,0.333,0.333,0.333,1,0.333,0.333,0.333,1","1,0.333,0.333,0.333,1,0.333,0.333,0.333,1","1",""
"null","","html-keyboard-response","203","492108","0.0-203.0","3QRYMNZ7FZ3FFW69XNUQKFNT70FNTA","A22LRKFP5S22GR","3THR0FZ95PF7SK0MYRNAOUHTWA4OLV","","","<img src=""img/flower3.png"" style=""width:200px; border:14px solid green;"">","null","","","","","","","","",""
"936","","image-keyboard-response","204","493047","0.0-204.0","3QRYMNZ7FZ3FFW69XNUQKFNT70FNTA","A22LRKFP5S22GR","3THR0FZ95PF7SK0MYRNAOUHTWA4OLV","","","img/flower5.png","75","940","2","1","2","1","1,0.333,0.333,0.333,1,0.333,0.333,0.333,1","1,0.333,0.333,0.333,1,0.333,0.333,0.333,1","1",""
"null","","html-keyboard-response","205","493358","0.0-205.0","3QRYMNZ7FZ3FFW69XNUQKFNT70FNTA","A22LRKFP5S22GR","3THR0FZ95PF7SK0MYRNAOUHTWA4OLV","","","<img src=""img/flower5.png"" style=""width:200px; border:14px solid green;"">","null","","","","","","","","",""
"1064","","image-keyboard-response","206","494438","0.0-206.0","3QRYMNZ7FZ3FFW69XNUQKFNT70FNTA","A22LRKFP5S22GR","3THR0FZ95PF7SK0MYRNAOUHTWA4OLV","","","img/flower1.png","74","1080","1","1","1","1","1,0.333,0.333,0.333,1,0.333,0.333,0.333,1","1,0.333,0.333,0.333,1,0.333,0.333,0.333,1","1",""
"null","","html-keyboard-response","207","494749","0.0-207.0","3QRYMNZ7FZ3FFW69XNUQKFNT70FNTA","A22LRKFP5S22GR","3THR0FZ95PF7SK0MYRNAOUHTWA4OLV","","","<img src=""img/flower1.png"" style=""width:200px; border:14px solid green;"">","null","","","","","","","","",""
"1100","","image-keyboard-response","208","495849","0.0-208.0","3QRYMNZ7FZ3FFW69XNUQKFNT70FNTA","A22LRKFP5S22GR","3THR0FZ95PF7SK0MYRNAOUHTWA4OLV","","","img/flower5.png","75","1100","2","1","2","1","1,0.333,0.333,0.333,1,0.333,0.333,0.333,1","1,0.333,0.333,0.333,1,0.333,0.333,0.333,1","1",""
"null","","html-keyboard-response","209","496173","0.0-209.0","3QRYMNZ7FZ3FFW69XNUQKFNT70FNTA","A22LRKFP5S22GR","3THR0FZ95PF7SK0MYRNAOUHTWA4OLV","","","<img src=""img/flower5.png"" style=""width:200px; border:14px solid green;"">","null","","","","","","","","",""
"917","","image-keyboard-response","210","497102","0.0-210.0","3QRYMNZ7FZ3FFW69XNUQKFNT70FNTA","A22LRKFP5S22GR","3THR0FZ95PF7SK0MYRNAOUHTWA4OLV","","","img/flower3.png","76","929","3","1","3","1","1,0.333,0.333,0.333,1,0.333,0.333,0.333,1","1,0.333,0.333,0.333,1,0.333,0.333,0.333,1","1",""
"null","","html-keyboard-response","211","497406","0.0-211.0","3QRYMNZ7FZ3FFW69XNUQKFNT70FNTA","A22LRKFP5S22GR","3THR0FZ95PF7SK0MYRNAOUHTWA4OLV","","","<img src=""img/flower3.png"" style=""width:200px; border:14px solid green;"">","null","","","","","","","","",""
"1051","","image-keyboard-response","212","498466","0.0-212.0","3QRYMNZ7FZ3FFW69XNUQKFNT70FNTA","A22LRKFP5S22GR","3THR0FZ95PF7SK0MYRNAOUHTWA4OLV","","","img/flower5.png","75","1060","2","1","2","1","1,0.333,0.333,0.333,1,0.333,0.333,0.333,1","1,0.333,0.333,0.333,1,0.333,0.333,0.333,1","1",""
"null","","html-keyboard-response","213","498781","0.0-213.0","3QRYMNZ7FZ3FFW69XNUQKFNT70FNTA","A22LRKFP5S22GR","3THR0FZ95PF7SK0MYRNAOUHTWA4OLV","","","<img src=""img/flower5.png"" style=""width:200px; border:14px solid green;"">","null","","","","","","","","",""
"842","","image-keyboard-response","214","499627","0.0-214.0","3QRYMNZ7FZ3FFW69XNUQKFNT70FNTA","A22LRKFP5S22GR","3THR0FZ95PF7SK0MYRNAOUHTWA4OLV","","","img/flower5.png","75","846","2","1","2","1","1,0.333,0.333,0.333,1,0.333,0.333,0.333,1","1,0.333,0.333,0.333,1,0.333,0.333,0.333,1","1",""
"null","","html-keyboard-response","215","499935","0.0-215.0","3QRYMNZ7FZ3FFW69XNUQKFNT70FNTA","A22LRKFP5S22GR","3THR0FZ95PF7SK0MYRNAOUHTWA4OLV","","","<img src=""img/flower5.png"" style=""width:200px; border:14px solid green;"">","null","","","","","","","","",""
"892","","image-keyboard-response","216","500830","0.0-216.0","3QRYMNZ7FZ3FFW69XNUQKFNT70FNTA","A22LRKFP5S22GR","3THR0FZ95PF7SK0MYRNAOUHTWA4OLV","","","img/flower1.png","74","895","1","1","1","1","1,0.333,0.333,0.333,1,0.333,0.333,0.333,1","1,0.333,0.333,0.333,1,0.333,0.333,0.333,1","1",""
"null","","html-keyboard-response","217","501137","0.0-217.0","3QRYMNZ7FZ3FFW69XNUQKFNT70FNTA","A22LRKFP5S22GR","3THR0FZ95PF7SK0MYRNAOUHTWA4OLV","","","<img src=""img/flower1.png"" style=""width:200px; border:14px solid green;"">","null","","","","","","","","",""
"825","","image-keyboard-response","218","501977","0.0-218.0","3QRYMNZ7FZ3FFW69XNUQKFNT70FNTA","A22LRKFP5S22GR","3THR0FZ95PF7SK0MYRNAOUHTWA4OLV","","","img/flower1.png","74","840","1","1","1","1","1,0.333,0.333,0.333,1,0.333,0.333,0.333,1","1,0.333,0.333,0.333,1,0.333,0.333,0.333,1","1",""
"null","","html-keyboard-response","219","502293","0.0-219.0","3QRYMNZ7FZ3FFW69XNUQKFNT70FNTA","A22LRKFP5S22GR","3THR0FZ95PF7SK0MYRNAOUHTWA4OLV","","","<img src=""img/flower1.png"" style=""width:200px; border:14px solid green;"">","null","","","","","","","","",""
"988","","image-keyboard-response","220","503281","0.0-220.0","3QRYMNZ7FZ3FFW69XNUQKFNT70FNTA","A22LRKFP5S22GR","3THR0FZ95PF7SK0MYRNAOUHTWA4OLV","","","img/flower5.png","75","996","2","1","2","1","1,0.333,0.333,0.333,1,0.333,0.333,0.333,1","1,0.333,0.333,0.333,1,0.333,0.333,0.333,1","1",""
"null","","html-keyboard-response","221","503592","0.0-221.0","3QRYMNZ7FZ3FFW69XNUQKFNT70FNTA","A22LRKFP5S22GR","3THR0FZ95PF7SK0MYRNAOUHTWA4OLV","","","<img src=""img/flower5.png"" style=""width:200px; border:14px solid green;"">","null","","","","","","","","",""
"1021","","image-keyboard-response","222","504627","0.0-222.0","3QRYMNZ7FZ3FFW69XNUQKFNT70FNTA","A22LRKFP5S22GR","3THR0FZ95PF7SK0MYRNAOUHTWA4OLV","","","img/flower3.png","76","1035","3","1","3","1","1,0.333,0.333,0.333,1,0.333,0.333,0.333,1","1,0.333,0.333,0.333,1,0.333,0.333,0.333,1","1",""
"null","","html-keyboard-response","223","504939","0.0-223.0","3QRYMNZ7FZ3FFW69XNUQKFNT70FNTA","A22LRKFP5S22GR","3THR0FZ95PF7SK0MYRNAOUHTWA4OLV","","","<img src=""img/flower3.png"" style=""width:200px; border:14px solid green;"">","null","","","","","","","","",""
"1756","","image-keyboard-response","224","506695","0.0-224.0","3QRYMNZ7FZ3FFW69XNUQKFNT70FNTA","A22LRKFP5S22GR","3THR0FZ95PF7SK0MYRNAOUHTWA4OLV","","","img/flower5.png","75","1768","2","1","2","1","1,0.333,0.333,0.333,1,0.333,0.333,0.333,1","1,0.333,0.333,0.333,1,0.333,0.333,0.333,1","1",""
"null","","html-keyboard-response","225","507014","0.0-225.0","3QRYMNZ7FZ3FFW69XNUQKFNT70FNTA","A22LRKFP5S22GR","3THR0FZ95PF7SK0MYRNAOUHTWA4OLV","","","<img src=""img/flower5.png"" style=""width:200px; border:14px solid green;"">","null","","","","","","","","",""
"995","","image-keyboard-response","226","508010","0.0-226.0","3QRYMNZ7FZ3FFW69XNUQKFNT70FNTA","A22LRKFP5S22GR","3THR0FZ95PF7SK0MYRNAOUHTWA4OLV","","","img/flower5.png","75","1010","2","1","2","1","1,0.333,0.333,0.333,1,0.333,0.333,0.333,1","1,0.333,0.333,0.333,1,0.333,0.333,0.333,1","1",""
"null","","html-keyboard-response","227","508338","0.0-227.0","3QRYMNZ7FZ3FFW69XNUQKFNT70FNTA","A22LRKFP5S22GR","3THR0FZ95PF7SK0MYRNAOUHTWA4OLV","","","<img src=""img/flower5.png"" style=""width:200px; border:14px solid green;"">","null","","","","","","","","",""
"894","","image-keyboard-response","228","509246","0.0-228.0","3QRYMNZ7FZ3FFW69XNUQKFNT70FNTA","A22LRKFP5S22GR","3THR0FZ95PF7SK0MYRNAOUHTWA4OLV","","","img/flower1.png","74","907","1","1","1","1","1,0.333,0.333,0.333,1,0.333,0.333,0.333,1","1,0.333,0.333,0.333,1,0.333,0.333,0.333,1","1",""
"null","","html-keyboard-response","229","509561","0.0-229.0","3QRYMNZ7FZ3FFW69XNUQKFNT70FNTA","A22LRKFP5S22GR","3THR0FZ95PF7SK0MYRNAOUHTWA4OLV","","","<img src=""img/flower1.png"" style=""width:200px; border:14px solid green;"">","null","","","","","","","","",""
"1067","","image-keyboard-response","230","510629","0.0-230.0","3QRYMNZ7FZ3FFW69XNUQKFNT70FNTA","A22LRKFP5S22GR","3THR0FZ95PF7SK0MYRNAOUHTWA4OLV","","","img/flower3.png","76","1073","3","1","3","1","1,0.333,0.333,0.333,1,0.333,0.333,0.333,1","1,0.333,0.333,0.333,1,0.333,0.333,0.333,1","1",""
"null","","html-keyboard-response","231","510938","0.0-231.0","3QRYMNZ7FZ3FFW69XNUQKFNT70FNTA","A22LRKFP5S22GR","3THR0FZ95PF7SK0MYRNAOUHTWA4OLV","","","<img src=""img/flower3.png"" style=""width:200px; border:14px solid green;"">","null","","","","","","","","",""
"905","","image-keyboard-response","232","511844","0.0-232.0","3QRYMNZ7FZ3FFW69XNUQKFNT70FNTA","A22LRKFP5S22GR","3THR0FZ95PF7SK0MYRNAOUHTWA4OLV","","","img/flower3.png","76","909","3","1","3","1","1,0.333,0.333,0.333,1,0.333,0.333,0.333,1","1,0.333,0.333,0.333,1,0.333,0.333,0.333,1","1",""
"null","","html-keyboard-response","233","512202","0.0-233.0","3QRYMNZ7FZ3FFW69XNUQKFNT70FNTA","A22LRKFP5S22GR","3THR0FZ95PF7SK0MYRNAOUHTWA4OLV","","","<img src=""img/flower3.png"" style=""width:200px; border:14px solid green;"">","null","","","","","","","","",""
"964","","image-keyboard-response","234","513166","0.0-234.0","3QRYMNZ7FZ3FFW69XNUQKFNT70FNTA","A22LRKFP5S22GR","3THR0FZ95PF7SK0MYRNAOUHTWA4OLV","","","img/flower1.png","74","964","1","1","1","1","1,0.333,0.333,0.333,1,0.333,0.333,0.333,1","1,0.333,0.333,0.333,1,0.333,0.333,0.333,1","1",""
"null","","html-keyboard-response","235","513469","0.0-235.0","3QRYMNZ7FZ3FFW69XNUQKFNT70FNTA","A22LRKFP5S22GR","3THR0FZ95PF7SK0MYRNAOUHTWA4OLV","","","<img src=""img/flower1.png"" style=""width:200px; border:14px solid green;"">","null","","","","","","","","",""
"1296","","image-keyboard-response","236","514766","0.0-236.0","3QRYMNZ7FZ3FFW69XNUQKFNT70FNTA","A22LRKFP5S22GR","3THR0FZ95PF7SK0MYRNAOUHTWA4OLV","","","img/flower3.png","75","1302","2","0","3","1","1,0.333,0.333,0.333,1,0.333,0.333,0.333,1","1,0.333,0.333,0.333,1,0.333,0.333,0.333,1","1",""
"null","","html-keyboard-response","237","515082","0.0-237.0","3QRYMNZ7FZ3FFW69XNUQKFNT70FNTA","A22LRKFP5S22GR","3THR0FZ95PF7SK0MYRNAOUHTWA4OLV","","","<img src=""img/flower3.png"" style=""width:200px;border:14px solid red;"">","null","","","","","","","","",""
"1130","","image-keyboard-response","238","516213","0.0-238.0","3QRYMNZ7FZ3FFW69XNUQKFNT70FNTA","A22LRKFP5S22GR","3THR0FZ95PF7SK0MYRNAOUHTWA4OLV","","","img/flower5.png","75","1131","2","1","2","1","1,0.333,0.333,0.333,1,0.333,0.333,0.333,1","1,0.333,0.333,0.333,1,0.333,0.333,0.333,1","1",""
"null","","html-keyboard-response","239","516533","0.0-239.0","3QRYMNZ7FZ3FFW69XNUQKFNT70FNTA","A22LRKFP5S22GR","3THR0FZ95PF7SK0MYRNAOUHTWA4OLV","","","<img src=""img/flower5.png"" style=""width:200px; border:14px solid green;"">","null","","","","","","","","",""
"934","","image-keyboard-response","240","517468","0.0-240.0","3QRYMNZ7FZ3FFW69XNUQKFNT70FNTA","A22LRKFP5S22GR","3THR0FZ95PF7SK0MYRNAOUHTWA4OLV","","","img/flower3.png","76","948","3","1","3","1","1,0.333,0.333,0.333,1,0.333,0.333,0.333,1","1,0.333,0.333,0.333,1,0.333,0.333,0.333,1","1",""
"null","","html-keyboard-response","241","517794","0.0-241.0","3QRYMNZ7FZ3FFW69XNUQKFNT70FNTA","A22LRKFP5S22GR","3THR0FZ95PF7SK0MYRNAOUHTWA4OLV","","","<img src=""img/flower3.png"" style=""width:200px; border:14px solid green;"">","null","","","","","","","","",""
"10055","","image-keyboard-response","242","527849","0.0-242.0","3QRYMNZ7FZ3FFW69XNUQKFNT70FNTA","A22LRKFP5S22GR","3THR0FZ95PF7SK0MYRNAOUHTWA4OLV","","","img/flower5.png","75","10056","2","1","2","1","1,0.333,0.333,0.333,1,0.333,0.333,0.333,1","1,0.333,0.333,0.333,1,0.333,0.333,0.333,1","1",""
"null","","html-keyboard-response","243","528152","0.0-243.0","3QRYMNZ7FZ3FFW69XNUQKFNT70FNTA","A22LRKFP5S22GR","3THR0FZ95PF7SK0MYRNAOUHTWA4OLV","","","<img src=""img/flower5.png"" style=""width:200px; border:14px solid green;"">","null","","","","","","","","",""
"1054","","image-keyboard-response","244","529206","0.0-244.0","3QRYMNZ7FZ3FFW69XNUQKFNT70FNTA","A22LRKFP5S22GR","3THR0FZ95PF7SK0MYRNAOUHTWA4OLV","","","img/flower3.png","76","1054","3","1","3","1","1,0.333,0.333,0.333,1,0.333,0.333,0.333,1","1,0.333,0.333,0.333,1,0.333,0.333,0.333,1","1",""
"null","","html-keyboard-response","245","529511","0.0-245.0","3QRYMNZ7FZ3FFW69XNUQKFNT70FNTA","A22LRKFP5S22GR","3THR0FZ95PF7SK0MYRNAOUHTWA4OLV","","","<img src=""img/flower3.png"" style=""width:200px; border:14px solid green;"">","null","","","","","","","","",""
"914","","image-keyboard-response","246","530428","0.0-246.0","3QRYMNZ7FZ3FFW69XNUQKFNT70FNTA","A22LRKFP5S22GR","3THR0FZ95PF7SK0MYRNAOUHTWA4OLV","","","img/flower1.png","74","917","1","1","1","1","1,0.333,0.333,0.333,1,0.333,0.333,0.333,1","1,0.333,0.333,0.333,1,0.333,0.333,0.333,1","1",""
"null","","html-keyboard-response","247","530743","0.0-247.0","3QRYMNZ7FZ3FFW69XNUQKFNT70FNTA","A22LRKFP5S22GR","3THR0FZ95PF7SK0MYRNAOUHTWA4OLV","","","<img src=""img/flower1.png"" style=""width:200px; border:14px solid green;"">","null","","","","","","","","",""
"1055","","image-keyboard-response","248","531812","0.0-248.0","3QRYMNZ7FZ3FFW69XNUQKFNT70FNTA","A22LRKFP5S22GR","3THR0FZ95PF7SK0MYRNAOUHTWA4OLV","","","img/flower3.png","76","1069","3","1","3","1","1,0.333,0.333,0.333,1,0.333,0.333,0.333,1","1,0.333,0.333,0.333,1,0.333,0.333,0.333,1","1",""
"null","","html-keyboard-response","249","532194","0.0-249.0","3QRYMNZ7FZ3FFW69XNUQKFNT70FNTA","A22LRKFP5S22GR","3THR0FZ95PF7SK0MYRNAOUHTWA4OLV","","","<img src=""img/flower3.png"" style=""width:200px; border:14px solid green;"">","null","","","","","","","","",""
"981","","image-keyboard-response","250","533176","0.0-250.0","3QRYMNZ7FZ3FFW69XNUQKFNT70FNTA","A22LRKFP5S22GR","3THR0FZ95PF7SK0MYRNAOUHTWA4OLV","","","img/flower3.png","76","993","3","1","3","1","1,0.333,0.333,0.333,1,0.333,0.333,0.333,1","1,0.333,0.333,0.333,1,0.333,0.333,0.333,1","1",""
"null","","html-keyboard-response","251","533498","0.0-251.0","3QRYMNZ7FZ3FFW69XNUQKFNT70FNTA","A22LRKFP5S22GR","3THR0FZ95PF7SK0MYRNAOUHTWA4OLV","","","<img src=""img/flower3.png"" style=""width:200px; border:14px solid green;"">","null","","","","","","","","",""
"850","","image-keyboard-response","252","534349","0.0-252.0","3QRYMNZ7FZ3FFW69XNUQKFNT70FNTA","A22LRKFP5S22GR","3THR0FZ95PF7SK0MYRNAOUHTWA4OLV","","","img/flower1.png","74","865","1","1","1","1","1,0.333,0.333,0.333,1,0.333,0.333,0.333,1","1,0.333,0.333,0.333,1,0.333,0.333,0.333,1","1",""
"null","","html-keyboard-response","253","534678","0.0-253.0","3QRYMNZ7FZ3FFW69XNUQKFNT70FNTA","A22LRKFP5S22GR","3THR0FZ95PF7SK0MYRNAOUHTWA4OLV","","","<img src=""img/flower1.png"" style=""width:200px; border:14px solid green;"">","null","","","","","","","","",""
"958","","image-keyboard-response","254","535647","0.0-254.0","3QRYMNZ7FZ3FFW69XNUQKFNT70FNTA","A22LRKFP5S22GR","3THR0FZ95PF7SK0MYRNAOUHTWA4OLV","","","img/flower1.png","75","969","2","0","1","1","1,0.333,0.333,0.333,1,0.333,0.333,0.333,1","1,0.333,0.333,0.333,1,0.333,0.333,0.333,1","1",""
"null","","html-keyboard-response","255","535953","0.0-255.0","3QRYMNZ7FZ3FFW69XNUQKFNT70FNTA","A22LRKFP5S22GR","3THR0FZ95PF7SK0MYRNAOUHTWA4OLV","","","<img src=""img/flower1.png"" style=""width:200px;border:14px solid red;"">","null","","","","","","","","",""
"673","","image-keyboard-response","256","536626","0.0-256.0","3QRYMNZ7FZ3FFW69XNUQKFNT70FNTA","A22LRKFP5S22GR","3THR0FZ95PF7SK0MYRNAOUHTWA4OLV","","","img/flower3.png","74","679","1","0","3","1","1,0.333,0.333,0.333,1,0.333,0.333,0.333,1","1,0.333,0.333,0.333,1,0.333,0.333,0.333,1","1",""
"null","","html-keyboard-response","257","536932","0.0-257.0","3QRYMNZ7FZ3FFW69XNUQKFNT70FNTA","A22LRKFP5S22GR","3THR0FZ95PF7SK0MYRNAOUHTWA4OLV","","","<img src=""img/flower3.png"" style=""width:200px;border:14px solid red;"">","null","","","","","","","","",""
"1300","","image-keyboard-response","258","538232","0.0-258.0","3QRYMNZ7FZ3FFW69XNUQKFNT70FNTA","A22LRKFP5S22GR","3THR0FZ95PF7SK0MYRNAOUHTWA4OLV","","","img/flower1.png","74","1311","1","1","1","1","1,0.333,0.333,0.333,1,0.333,0.333,0.333,1","1,0.333,0.333,0.333,1,0.333,0.333,0.333,1","1",""
"null","","html-keyboard-response","259","538545","0.0-259.0","3QRYMNZ7FZ3FFW69XNUQKFNT70FNTA","A22LRKFP5S22GR","3THR0FZ95PF7SK0MYRNAOUHTWA4OLV","","","<img src=""img/flower1.png"" style=""width:200px; border:14px solid green;"">","null","","","","","","","","",""
"1028","","image-keyboard-response","260","539582","0.0-260.0","3QRYMNZ7FZ3FFW69XNUQKFNT70FNTA","A22LRKFP5S22GR","3THR0FZ95PF7SK0MYRNAOUHTWA4OLV","","","img/flower5.png","75","1037","2","1","2","1","1,0.333,0.333,0.333,1,0.333,0.333,0.333,1","1,0.333,0.333,0.333,1,0.333,0.333,0.333,1","1",""
"null","","html-keyboard-response","261","539888","0.0-261.0","3QRYMNZ7FZ3FFW69XNUQKFNT70FNTA","A22LRKFP5S22GR","3THR0FZ95PF7SK0MYRNAOUHTWA4OLV","","","<img src=""img/flower5.png"" style=""width:200px; border:14px solid green;"">","null","","","","","","","","",""
"1116","","image-keyboard-response","262","541008","0.0-262.0","3QRYMNZ7FZ3FFW69XNUQKFNT70FNTA","A22LRKFP5S22GR","3THR0FZ95PF7SK0MYRNAOUHTWA4OLV","","","img/flower3.png","76","1120","3","1","3","1","1,0.333,0.333,0.333,1,0.333,0.333,0.333,1","1,0.333,0.333,0.333,1,0.333,0.333,0.333,1","1",""
"null","","html-keyboard-response","263","541315","0.0-263.0","3QRYMNZ7FZ3FFW69XNUQKFNT70FNTA","A22LRKFP5S22GR","3THR0FZ95PF7SK0MYRNAOUHTWA4OLV","","","<img src=""img/flower3.png"" style=""width:200px; border:14px solid green;"">","null","","","","","","","","",""
"939","","image-keyboard-response","264","542260","0.0-264.0","3QRYMNZ7FZ3FFW69XNUQKFNT70FNTA","A22LRKFP5S22GR","3THR0FZ95PF7SK0MYRNAOUHTWA4OLV","","","img/flower3.png","76","945","3","1","3","1","1,0.333,0.333,0.333,1,0.333,0.333,0.333,1","1,0.333,0.333,0.333,1,0.333,0.333,0.333,1","1",""
"null","","html-keyboard-response","265","542565","0.0-265.0","3QRYMNZ7FZ3FFW69XNUQKFNT70FNTA","A22LRKFP5S22GR","3THR0FZ95PF7SK0MYRNAOUHTWA4OLV","","","<img src=""img/flower3.png"" style=""width:200px; border:14px solid green;"">","null","","","","","","","","",""
"909","","image-keyboard-response","266","543474","0.0-266.0","3QRYMNZ7FZ3FFW69XNUQKFNT70FNTA","A22LRKFP5S22GR","3THR0FZ95PF7SK0MYRNAOUHTWA4OLV","","","img/flower3.png","76","923","3","1","3","1","1,0.333,0.333,0.333,1,0.333,0.333,0.333,1","1,0.333,0.333,0.333,1,0.333,0.333,0.333,1","1",""
"null","","html-keyboard-response","267","543796","0.0-267.0","3QRYMNZ7FZ3FFW69XNUQKFNT70FNTA","A22LRKFP5S22GR","3THR0FZ95PF7SK0MYRNAOUHTWA4OLV","","","<img src=""img/flower3.png"" style=""width:200px; border:14px solid green;"">","null","","","","","","","","",""
"1005","","image-keyboard-response","268","544802","0.0-268.0","3QRYMNZ7FZ3FFW69XNUQKFNT70FNTA","A22LRKFP5S22GR","3THR0FZ95PF7SK0MYRNAOUHTWA4OLV","","","img/flower5.png","75","1006","2","1","2","1","1,0.333,0.333,0.333,1,0.333,0.333,0.333,1","1,0.333,0.333,0.333,1,0.333,0.333,0.333,1","1",""
"null","","html-keyboard-response","269","545112","0.0-269.0","3QRYMNZ7FZ3FFW69XNUQKFNT70FNTA","A22LRKFP5S22GR","3THR0FZ95PF7SK0MYRNAOUHTWA4OLV","","","<img src=""img/flower5.png"" style=""width:200px; border:14px solid green;"">","null","","","","","","","","",""
"991","","image-keyboard-response","270","546110","0.0-270.0","3QRYMNZ7FZ3FFW69XNUQKFNT70FNTA","A22LRKFP5S22GR","3THR0FZ95PF7SK0MYRNAOUHTWA4OLV","","","img/flower1.png","74","998","1","1","1","1","1,0.333,0.333,0.333,1,0.333,0.333,0.333,1","1,0.333,0.333,0.333,1,0.333,0.333,0.333,1","1",""
"null","","html-keyboard-response","271","546413","0.0-271.0","3QRYMNZ7FZ3FFW69XNUQKFNT70FNTA","A22LRKFP5S22GR","3THR0FZ95PF7SK0MYRNAOUHTWA4OLV","","","<img src=""img/flower1.png"" style=""width:200px; border:14px solid green;"">","null","","","","","","","","",""
"842","","image-keyboard-response","272","547261","0.0-272.0","3QRYMNZ7FZ3FFW69XNUQKFNT70FNTA","A22LRKFP5S22GR","3THR0FZ95PF7SK0MYRNAOUHTWA4OLV","","","img/flower1.png","74","848","1","1","1","1","1,0.333,0.333,0.333,1,0.333,0.333,0.333,1","1,0.333,0.333,0.333,1,0.333,0.333,0.333,1","1",""
"null","","html-keyboard-response","273","547571","0.0-273.0","3QRYMNZ7FZ3FFW69XNUQKFNT70FNTA","A22LRKFP5S22GR","3THR0FZ95PF7SK0MYRNAOUHTWA4OLV","","","<img src=""img/flower1.png"" style=""width:200px; border:14px solid green;"">","null","","","","","","","","",""
"564","","image-keyboard-response","274","548142","0.0-274.0","3QRYMNZ7FZ3FFW69XNUQKFNT70FNTA","A22LRKFP5S22GR","3THR0FZ95PF7SK0MYRNAOUHTWA4OLV","","","img/flower1.png","74","571","1","1","1","1","1,0.333,0.333,0.333,1,0.333,0.333,0.333,1","1,0.333,0.333,0.333,1,0.333,0.333,0.333,1","1",""
"null","","html-keyboard-response","275","548442","0.0-275.0","3QRYMNZ7FZ3FFW69XNUQKFNT70FNTA","A22LRKFP5S22GR","3THR0FZ95PF7SK0MYRNAOUHTWA4OLV","","","<img src=""img/flower1.png"" style=""width:200px; border:14px solid green;"">","null","","","","","","","","",""
"984","","image-keyboard-response","276","549428","0.0-276.0","3QRYMNZ7FZ3FFW69XNUQKFNT70FNTA","A22LRKFP5S22GR","3THR0FZ95PF7SK0MYRNAOUHTWA4OLV","","","img/flower5.png","75","986","2","1","2","1","1,0.333,0.333,0.333,1,0.333,0.333,0.333,1","1,0.333,0.333,0.333,1,0.333,0.333,0.333,1","1",""
"null","","html-keyboard-response","277","549733","0.0-277.0","3QRYMNZ7FZ3FFW69XNUQKFNT70FNTA","A22LRKFP5S22GR","3THR0FZ95PF7SK0MYRNAOUHTWA4OLV","","","<img src=""img/flower5.png"" style=""width:200px; border:14px solid green;"">","null","","","","","","","","",""
"1068","","image-keyboard-response","278","550811","0.0-278.0","3QRYMNZ7FZ3FFW69XNUQKFNT70FNTA","A22LRKFP5S22GR","3THR0FZ95PF7SK0MYRNAOUHTWA4OLV","","","img/flower1.png","74","1078","1","1","1","1","1,0.333,0.333,0.333,1,0.333,0.333,0.333,1","1,0.333,0.333,0.333,1,0.333,0.333,0.333,1","1",""
"null","","html-keyboard-response","279","551117","0.0-279.0","3QRYMNZ7FZ3FFW69XNUQKFNT70FNTA","A22LRKFP5S22GR","3THR0FZ95PF7SK0MYRNAOUHTWA4OLV","","","<img src=""img/flower1.png"" style=""width:200px; border:14px solid green;"">","null","","","","","","","","",""
"1075","","image-keyboard-response","280","552192","0.0-280.0","3QRYMNZ7FZ3FFW69XNUQKFNT70FNTA","A22LRKFP5S22GR","3THR0FZ95PF7SK0MYRNAOUHTWA4OLV","","","img/flower5.png","75","1077","2","1","2","1","1,0.333,0.333,0.333,1,0.333,0.333,0.333,1","1,0.333,0.333,0.333,1,0.333,0.333,0.333,1","1",""
"null","","html-keyboard-response","281","552500","0.0-281.0","3QRYMNZ7FZ3FFW69XNUQKFNT70FNTA","A22LRKFP5S22GR","3THR0FZ95PF7SK0MYRNAOUHTWA4OLV","","","<img src=""img/flower5.png"" style=""width:200px; border:14px solid green;"">","null","","","","","","","","",""
"956","","image-keyboard-response","282","553472","0.0-282.0","3QRYMNZ7FZ3FFW69XNUQKFNT70FNTA","A22LRKFP5S22GR","3THR0FZ95PF7SK0MYRNAOUHTWA4OLV","","","img/flower3.png","76","972","3","1","3","1","1,0.333,0.333,0.333,1,0.333,0.333,0.333,1","1,0.333,0.333,0.333,1,0.333,0.333,0.333,1","1",""
"null","","html-keyboard-response","283","553783","0.0-283.0","3QRYMNZ7FZ3FFW69XNUQKFNT70FNTA","A22LRKFP5S22GR","3THR0FZ95PF7SK0MYRNAOUHTWA4OLV","","","<img src=""img/flower3.png"" style=""width:200px; border:14px solid green;"">","null","","","","","","","","",""
"937","","image-keyboard-response","284","554728","0.0-284.0","3QRYMNZ7FZ3FFW69XNUQKFNT70FNTA","A22LRKFP5S22GR","3THR0FZ95PF7SK0MYRNAOUHTWA4OLV","","","img/flower3.png","76","945","3","1","3","1","1,0.333,0.333,0.333,1,0.333,0.333,0.333,1","1,0.333,0.333,0.333,1,0.333,0.333,0.333,1","1",""
"null","","html-keyboard-response","285","555030","0.0-285.0","3QRYMNZ7FZ3FFW69XNUQKFNT70FNTA","A22LRKFP5S22GR","3THR0FZ95PF7SK0MYRNAOUHTWA4OLV","","","<img src=""img/flower3.png"" style=""width:200px; border:14px solid green;"">","null","","","","","","","","",""
"964","","image-keyboard-response","286","555998","0.0-286.0","3QRYMNZ7FZ3FFW69XNUQKFNT70FNTA","A22LRKFP5S22GR","3THR0FZ95PF7SK0MYRNAOUHTWA4OLV","","","img/flower1.png","74","968","1","1","1","1","1,0.333,0.333,0.333,1,0.333,0.333,0.333,1","1,0.333,0.333,0.333,1,0.333,0.333,0.333,1","1",""
"null","","html-keyboard-response","287","556313","0.0-287.0","3QRYMNZ7FZ3FFW69XNUQKFNT70FNTA","A22LRKFP5S22GR","3THR0FZ95PF7SK0MYRNAOUHTWA4OLV","","","<img src=""img/flower1.png"" style=""width:200px; border:14px solid green;"">","null","","","","","","","","",""
"843","","image-keyboard-response","288","557157","0.0-288.0","3QRYMNZ7FZ3FFW69XNUQKFNT70FNTA","A22LRKFP5S22GR","3THR0FZ95PF7SK0MYRNAOUHTWA4OLV","","","img/flower1.png","74","844","1","1","1","1","1,0.333,0.333,0.333,1,0.333,0.333,0.333,1","1,0.333,0.333,0.333,1,0.333,0.333,0.333,1","1",""
"null","","html-keyboard-response","289","557467","0.0-289.0","3QRYMNZ7FZ3FFW69XNUQKFNT70FNTA","A22LRKFP5S22GR","3THR0FZ95PF7SK0MYRNAOUHTWA4OLV","","","<img src=""img/flower1.png"" style=""width:200px; border:14px solid green;"">","null","","","","","","","","",""
"858","","image-keyboard-response","290","558337","0.0-290.0","3QRYMNZ7FZ3FFW69XNUQKFNT70FNTA","A22LRKFP5S22GR","3THR0FZ95PF7SK0MYRNAOUHTWA4OLV","","","img/flower1.png","74","870","1","1","1","1","1,0.333,0.333,0.333,1,0.333,0.333,0.333,1","1,0.333,0.333,0.333,1,0.333,0.333,0.333,1","1",""
"null","","html-keyboard-response","291","558650","0.0-291.0","3QRYMNZ7FZ3FFW69XNUQKFNT70FNTA","A22LRKFP5S22GR","3THR0FZ95PF7SK0MYRNAOUHTWA4OLV","","","<img src=""img/flower1.png"" style=""width:200px; border:14px solid green;"">","null","","","","","","","","",""
"933","","image-keyboard-response","292","559594","0.0-292.0","3QRYMNZ7FZ3FFW69XNUQKFNT70FNTA","A22LRKFP5S22GR","3THR0FZ95PF7SK0MYRNAOUHTWA4OLV","","","img/flower5.png","75","944","2","1","2","1","1,0.333,0.333,0.333,1,0.333,0.333,0.333,1","1,0.333,0.333,0.333,1,0.333,0.333,0.333,1","1",""
"null","","html-keyboard-response","293","559907","0.0-293.0","3QRYMNZ7FZ3FFW69XNUQKFNT70FNTA","A22LRKFP5S22GR","3THR0FZ95PF7SK0MYRNAOUHTWA4OLV","","","<img src=""img/flower5.png"" style=""width:200px; border:14px solid green;"">","null","","","","","","","","",""
"1084","","image-keyboard-response","294","560998","0.0-294.0","3QRYMNZ7FZ3FFW69XNUQKFNT70FNTA","A22LRKFP5S22GR","3THR0FZ95PF7SK0MYRNAOUHTWA4OLV","","","img/flower1.png","74","1091","1","1","1","1","1,0.333,0.333,0.333,1,0.333,0.333,0.333,1","1,0.333,0.333,0.333,1,0.333,0.333,0.333,1","1",""
"null","","html-keyboard-response","295","561304","0.0-295.0","3QRYMNZ7FZ3FFW69XNUQKFNT70FNTA","A22LRKFP5S22GR","3THR0FZ95PF7SK0MYRNAOUHTWA4OLV","","","<img src=""img/flower1.png"" style=""width:200px; border:14px solid green;"">","null","","","","","","","","",""
"948","","image-keyboard-response","296","562254","0.0-296.0","3QRYMNZ7FZ3FFW69XNUQKFNT70FNTA","A22LRKFP5S22GR","3THR0FZ95PF7SK0MYRNAOUHTWA4OLV","","","img/flower1.png","74","959","1","1","1","1","1,0.333,0.333,0.333,1,0.333,0.333,0.333,1","1,0.333,0.333,0.333,1,0.333,0.333,0.333,1","1",""
"null","","html-keyboard-response","297","562584","0.0-297.0","3QRYMNZ7FZ3FFW69XNUQKFNT70FNTA","A22LRKFP5S22GR","3THR0FZ95PF7SK0MYRNAOUHTWA4OLV","","","<img src=""img/flower1.png"" style=""width:200px; border:14px solid green;"">","null","","","","","","","","",""
"994","","image-keyboard-response","298","563580","0.0-298.0","3QRYMNZ7FZ3FFW69XNUQKFNT70FNTA","A22LRKFP5S22GR","3THR0FZ95PF7SK0MYRNAOUHTWA4OLV","","","img/flower3.png","76","996","3","1","3","1","1,0.333,0.333,0.333,1,0.333,0.333,0.333,1","1,0.333,0.333,0.333,1,0.333,0.333,0.333,1","1",""
"null","","html-keyboard-response","299","563889","0.0-299.0","3QRYMNZ7FZ3FFW69XNUQKFNT70FNTA","A22LRKFP5S22GR","3THR0FZ95PF7SK0MYRNAOUHTWA4OLV","","","<img src=""img/flower3.png"" style=""width:200px; border:14px solid green;"">","null","","","","","","","","",""
"1072","","image-keyboard-response","300","564963","0.0-300.0","3QRYMNZ7FZ3FFW69XNUQKFNT70FNTA","A22LRKFP5S22GR","3THR0FZ95PF7SK0MYRNAOUHTWA4OLV","","","img/flower5.png","75","1074","2","1","2","1","1,0.333,0.333,0.333,1,0.333,0.333,0.333,1","1,0.333,0.333,0.333,1,0.333,0.333,0.333,1","1",""
"null","","html-keyboard-response","301","565281","0.0-301.0","3QRYMNZ7FZ3FFW69XNUQKFNT70FNTA","A22LRKFP5S22GR","3THR0FZ95PF7SK0MYRNAOUHTWA4OLV","","","<img src=""img/flower5.png"" style=""width:200px; border:14px solid green;"">","null","","","","","","","","",""
"1319","","image-keyboard-response","302","566600","0.0-302.0","3QRYMNZ7FZ3FFW69XNUQKFNT70FNTA","A22LRKFP5S22GR","3THR0FZ95PF7SK0MYRNAOUHTWA4OLV","","","img/flower5.png","75","1323","2","1","2","1","1,0.333,0.333,0.333,1,0.333,0.333,0.333,1","1,0.333,0.333,0.333,1,0.333,0.333,0.333,1","1",""
"null","","html-keyboard-response","303","566906","0.0-303.0","3QRYMNZ7FZ3FFW69XNUQKFNT70FNTA","A22LRKFP5S22GR","3THR0FZ95PF7SK0MYRNAOUHTWA4OLV","","","<img src=""img/flower5.png"" style=""width:200px; border:14px solid green;"">","null","","","","","","","","",""
"896","","image-keyboard-response","304","567802","0.0-304.0","3QRYMNZ7FZ3FFW69XNUQKFNT70FNTA","A22LRKFP5S22GR","3THR0FZ95PF7SK0MYRNAOUHTWA4OLV","","","img/flower1.png","74","908","1","1","1","1","1,0.333,0.333,0.333,1,0.333,0.333,0.333,1","1,0.333,0.333,0.333,1,0.333,0.333,0.333,1","1",""
"null","","html-keyboard-response","305","568131","0.0-305.0","3QRYMNZ7FZ3FFW69XNUQKFNT70FNTA","A22LRKFP5S22GR","3THR0FZ95PF7SK0MYRNAOUHTWA4OLV","","","<img src=""img/flower1.png"" style=""width:200px; border:14px solid green;"">","null","","","","","","","","",""
"","","html-keyboard-response","306","647249","0.0-306.0","3QRYMNZ7FZ3FFW69XNUQKFNT70FNTA","A22LRKFP5S22GR","3THR0FZ95PF7SK0MYRNAOUHTWA4OLV","","","","","","","","","","","","",""
"3346","","image-keyboard-response","307","650597","0.0-307.0","3QRYMNZ7FZ3FFW69XNUQKFNT70FNTA","A22LRKFP5S22GR","3THR0FZ95PF7SK0MYRNAOUHTWA4OLV","","","img/flower2.png","76","3348","3","1","1","2","1,0,0,1,1,0,1,0,1","0,0,1,1,0,1,0,1,1","2",""
"null","","html-keyboard-response","308","650906","0.0-308.0","3QRYMNZ7FZ3FFW69XNUQKFNT70FNTA","A22LRKFP5S22GR","3THR0FZ95PF7SK0MYRNAOUHTWA4OLV","","","<img src=""img/flower2.png"" style=""width:200px; border:14px solid green;"">","null","","","","","","","","",""
"1869","","image-keyboard-response","309","652788","0.0-309.0","3QRYMNZ7FZ3FFW69XNUQKFNT70FNTA","A22LRKFP5S22GR","3THR0FZ95PF7SK0MYRNAOUHTWA4OLV","","","img/flower4.png","75","1882","2","0","2","2","1,0,0,1,1,0,1,0,1","0,0,1,1,0,1,0,1,1","2",""
"null","","html-keyboard-response","310","653093","0.0-310.0","3QRYMNZ7FZ3FFW69XNUQKFNT70FNTA","A22LRKFP5S22GR","3THR0FZ95PF7SK0MYRNAOUHTWA4OLV","","","<img src=""img/flower4.png"" style=""width:200px;border:14px solid red;"">","null","","","","","","","","",""
"1709","","image-keyboard-response","311","654808","0.0-311.0","3QRYMNZ7FZ3FFW69XNUQKFNT70FNTA","A22LRKFP5S22GR","3THR0FZ95PF7SK0MYRNAOUHTWA4OLV","","","img/flower2.png","76","1715","3","1","1","2","1,0,0,1,1,0,1,0,1","0,0,1,1,0,1,0,1,1","2",""
"null","","html-keyboard-response","312","655125","0.0-312.0","3QRYMNZ7FZ3FFW69XNUQKFNT70FNTA","A22LRKFP5S22GR","3THR0FZ95PF7SK0MYRNAOUHTWA4OLV","","","<img src=""img/flower2.png"" style=""width:200px; border:14px solid green;"">","null","","","","","","","","",""
"1723","","image-keyboard-response","313","656855","0.0-313.0","3QRYMNZ7FZ3FFW69XNUQKFNT70FNTA","A22LRKFP5S22GR","3THR0FZ95PF7SK0MYRNAOUHTWA4OLV","","","img/flower6.png","74","1730","1","0","3","2","1,0,0,1,1,0,1,0,1","0,0,1,1,0,1,0,1,1","2",""
"null","","html-keyboard-response","314","657170","0.0-314.0","3QRYMNZ7FZ3FFW69XNUQKFNT70FNTA","A22LRKFP5S22GR","3THR0FZ95PF7SK0MYRNAOUHTWA4OLV","","","<img src=""img/flower6.png"" style=""width:200px;border:14px solid red;"">","null","","","","","","","","",""
"1044","","image-keyboard-response","315","658226","0.0-315.0","3QRYMNZ7FZ3FFW69XNUQKFNT70FNTA","A22LRKFP5S22GR","3THR0FZ95PF7SK0MYRNAOUHTWA4OLV","","","img/flower6.png","76","1056","3","1","3","2","1,0,0,1,1,0,1,0,1","0,0,1,1,0,1,0,1,1","2",""
"null","","html-keyboard-response","316","658531","0.0-316.0","3QRYMNZ7FZ3FFW69XNUQKFNT70FNTA","A22LRKFP5S22GR","3THR0FZ95PF7SK0MYRNAOUHTWA4OLV","","","<img src=""img/flower6.png"" style=""width:200px; border:14px solid green;"">","null","","","","","","","","",""
"1515","","image-keyboard-response","317","660052","0.0-317.0","3QRYMNZ7FZ3FFW69XNUQKFNT70FNTA","A22LRKFP5S22GR","3THR0FZ95PF7SK0MYRNAOUHTWA4OLV","","","img/flower4.png","74","1521","1","1","2","2","1,0,0,1,1,0,1,0,1","0,0,1,1,0,1,0,1,1","2",""
"null","","html-keyboard-response","318","660370","0.0-318.0","3QRYMNZ7FZ3FFW69XNUQKFNT70FNTA","A22LRKFP5S22GR","3THR0FZ95PF7SK0MYRNAOUHTWA4OLV","","","<img src=""img/flower4.png"" style=""width:200px; border:14px solid green;"">","null","","","","","","","","",""
"1272","","image-keyboard-response","319","661648","0.0-319.0","3QRYMNZ7FZ3FFW69XNUQKFNT70FNTA","A22LRKFP5S22GR","3THR0FZ95PF7SK0MYRNAOUHTWA4OLV","","","img/flower2.png","75","1278","2","0","1","2","1,0,0,1,1,0,1,0,1","0,0,1,1,0,1,0,1,1","2",""
"null","","html-keyboard-response","320","661954","0.0-320.0","3QRYMNZ7FZ3FFW69XNUQKFNT70FNTA","A22LRKFP5S22GR","3THR0FZ95PF7SK0MYRNAOUHTWA4OLV","","","<img src=""img/flower2.png"" style=""width:200px;border:14px solid red;"">","null","","","","","","","","",""
"2503","","image-keyboard-response","321","664470","0.0-321.0","3QRYMNZ7FZ3FFW69XNUQKFNT70FNTA","A22LRKFP5S22GR","3THR0FZ95PF7SK0MYRNAOUHTWA4OLV","","","img/flower2.png","76","2516","3","1","1","2","1,0,0,1,1,0,1,0,1","0,0,1,1,0,1,0,1,1","2",""
"null","","html-keyboard-response","322","664781","0.0-322.0","3QRYMNZ7FZ3FFW69XNUQKFNT70FNTA","A22LRKFP5S22GR","3THR0FZ95PF7SK0MYRNAOUHTWA4OLV","","","<img src=""img/flower2.png"" style=""width:200px; border:14px solid green;"">","null","","","","","","","","",""
"1110","","image-keyboard-response","323","665904","0.0-323.0","3QRYMNZ7FZ3FFW69XNUQKFNT70FNTA","A22LRKFP5S22GR","3THR0FZ95PF7SK0MYRNAOUHTWA4OLV","","","img/flower2.png","76","1124","3","1","1","2","1,0,0,1,1,0,1,0,1","0,0,1,1,0,1,0,1,1","2",""
"null","","html-keyboard-response","324","666214","0.0-324.0","3QRYMNZ7FZ3FFW69XNUQKFNT70FNTA","A22LRKFP5S22GR","3THR0FZ95PF7SK0MYRNAOUHTWA4OLV","","","<img src=""img/flower2.png"" style=""width:200px; border:14px solid green;"">","null","","","","","","","","",""
"1175","","image-keyboard-response","325","667402","0.0-325.0","3QRYMNZ7FZ3FFW69XNUQKFNT70FNTA","A22LRKFP5S22GR","3THR0FZ95PF7SK0MYRNAOUHTWA4OLV","","","img/flower2.png","76","1188","3","1","1","2","1,0,0,1,1,0,1,0,1","0,0,1,1,0,1,0,1,1","2",""
"null","","html-keyboard-response","326","667720","0.0-326.0","3QRYMNZ7FZ3FFW69XNUQKFNT70FNTA","A22LRKFP5S22GR","3THR0FZ95PF7SK0MYRNAOUHTWA4OLV","","","<img src=""img/flower2.png"" style=""width:200px; border:14px solid green;"">","null","","","","","","","","",""
"1063","","image-keyboard-response","327","668795","0.0-327.0","3QRYMNZ7FZ3FFW69XNUQKFNT70FNTA","A22LRKFP5S22GR","3THR0FZ95PF7SK0MYRNAOUHTWA4OLV","","","img/flower6.png","76","1075","3","1","3","2","1,0,0,1,1,0,1,0,1","0,0,1,1,0,1,0,1,1","2",""
"null","","html-keyboard-response","328","669109","0.0-328.0","3QRYMNZ7FZ3FFW69XNUQKFNT70FNTA","A22LRKFP5S22GR","3THR0FZ95PF7SK0MYRNAOUHTWA4OLV","","","<img src=""img/flower6.png"" style=""width:200px; border:14px solid green;"">","null","","","","","","","","",""
"1375","","image-keyboard-response","329","670499","0.0-329.0","3QRYMNZ7FZ3FFW69XNUQKFNT70FNTA","A22LRKFP5S22GR","3THR0FZ95PF7SK0MYRNAOUHTWA4OLV","","","img/flower4.png","74","1389","1","1","2","2","1,0,0,1,1,0,1,0,1","0,0,1,1,0,1,0,1,1","2",""
"null","","html-keyboard-response","330","670811","0.0-330.0","3QRYMNZ7FZ3FFW69XNUQKFNT70FNTA","A22LRKFP5S22GR","3THR0FZ95PF7SK0MYRNAOUHTWA4OLV","","","<img src=""img/flower4.png"" style=""width:200px; border:14px solid green;"">","null","","","","","","","","",""
"955","","image-keyboard-response","331","671769","0.0-331.0","3QRYMNZ7FZ3FFW69XNUQKFNT70FNTA","A22LRKFP5S22GR","3THR0FZ95PF7SK0MYRNAOUHTWA4OLV","","","img/flower4.png","74","958","1","1","2","2","1,0,0,1,1,0,1,0,1","0,0,1,1,0,1,0,1,1","2",""
"null","","html-keyboard-response","332","672082","0.0-332.0","3QRYMNZ7FZ3FFW69XNUQKFNT70FNTA","A22LRKFP5S22GR","3THR0FZ95PF7SK0MYRNAOUHTWA4OLV","","","<img src=""img/flower4.png"" style=""width:200px; border:14px solid green;"">","null","","","","","","","","",""
"2208","","image-keyboard-response","333","674298","0.0-333.0","3QRYMNZ7FZ3FFW69XNUQKFNT70FNTA","A22LRKFP5S22GR","3THR0FZ95PF7SK0MYRNAOUHTWA4OLV","","","img/flower6.png","76","2216","3","1","3","2","1,0,0,1,1,0,1,0,1","0,0,1,1,0,1,0,1,1","2",""
"null","","html-keyboard-response","334","674609","0.0-334.0","3QRYMNZ7FZ3FFW69XNUQKFNT70FNTA","A22LRKFP5S22GR","3THR0FZ95PF7SK0MYRNAOUHTWA4OLV","","","<img src=""img/flower6.png"" style=""width:200px; border:14px solid green;"">","null","","","","","","","","",""
"1207","","image-keyboard-response","335","675820","0.0-335.0","3QRYMNZ7FZ3FFW69XNUQKFNT70FNTA","A22LRKFP5S22GR","3THR0FZ95PF7SK0MYRNAOUHTWA4OLV","","","img/flower4.png","74","1211","1","1","2","2","1,0,0,1,1,0,1,0,1","0,0,1,1,0,1,0,1,1","2",""
"null","","html-keyboard-response","336","676128","0.0-336.0","3QRYMNZ7FZ3FFW69XNUQKFNT70FNTA","A22LRKFP5S22GR","3THR0FZ95PF7SK0MYRNAOUHTWA4OLV","","","<img src=""img/flower4.png"" style=""width:200px; border:14px solid green;"">","null","","","","","","","","",""
"951","","image-keyboard-response","337","677079","0.0-337.0","3QRYMNZ7FZ3FFW69XNUQKFNT70FNTA","A22LRKFP5S22GR","3THR0FZ95PF7SK0MYRNAOUHTWA4OLV","","","img/flower6.png","76","951","3","1","3","2","1,0,0,1,1,0,1,0,1","0,0,1,1,0,1,0,1,1","2",""
"null","","html-keyboard-response","338","677397","0.0-338.0","3QRYMNZ7FZ3FFW69XNUQKFNT70FNTA","A22LRKFP5S22GR","3THR0FZ95PF7SK0MYRNAOUHTWA4OLV","","","<img src=""img/flower6.png"" style=""width:200px; border:14px solid green;"">","null","","","","","","","","",""
"1011","","image-keyboard-response","339","678414","0.0-339.0","3QRYMNZ7FZ3FFW69XNUQKFNT70FNTA","A22LRKFP5S22GR","3THR0FZ95PF7SK0MYRNAOUHTWA4OLV","","","img/flower4.png","74","1017","1","1","2","2","1,0,0,1,1,0,1,0,1","0,0,1,1,0,1,0,1,1","2",""
"null","","html-keyboard-response","340","678718","0.0-340.0","3QRYMNZ7FZ3FFW69XNUQKFNT70FNTA","A22LRKFP5S22GR","3THR0FZ95PF7SK0MYRNAOUHTWA4OLV","","","<img src=""img/flower4.png"" style=""width:200px; border:14px solid green;"">","null","","","","","","","","",""
"1029","","image-keyboard-response","341","679754","0.0-341.0","3QRYMNZ7FZ3FFW69XNUQKFNT70FNTA","A22LRKFP5S22GR","3THR0FZ95PF7SK0MYRNAOUHTWA4OLV","","","img/flower6.png","76","1034","3","1","3","2","1,0,0,1,1,0,1,0,1","0,0,1,1,0,1,0,1,1","2",""
"null","","html-keyboard-response","342","680064","0.0-342.0","3QRYMNZ7FZ3FFW69XNUQKFNT70FNTA","A22LRKFP5S22GR","3THR0FZ95PF7SK0MYRNAOUHTWA4OLV","","","<img src=""img/flower6.png"" style=""width:200px; border:14px solid green;"">","null","","","","","","","","",""
"1015","","image-keyboard-response","343","681082","0.0-343.0","3QRYMNZ7FZ3FFW69XNUQKFNT70FNTA","A22LRKFP5S22GR","3THR0FZ95PF7SK0MYRNAOUHTWA4OLV","","","img/flower2.png","75","1018","2","0","1","2","1,0,0,1,1,0,1,0,1","0,0,1,1,0,1,0,1,1","2",""
"null","","html-keyboard-response","344","681398","0.0-344.0","3QRYMNZ7FZ3FFW69XNUQKFNT70FNTA","A22LRKFP5S22GR","3THR0FZ95PF7SK0MYRNAOUHTWA4OLV","","","<img src=""img/flower2.png"" style=""width:200px;border:14px solid red;"">","null","","","","","","","","",""
"3638","","image-keyboard-response","345","685040","0.0-345.0","3QRYMNZ7FZ3FFW69XNUQKFNT70FNTA","A22LRKFP5S22GR","3THR0FZ95PF7SK0MYRNAOUHTWA4OLV","","","img/flower4.png","74","3642","1","1","2","2","1,0,0,1,1,0,1,0,1","0,0,1,1,0,1,0,1,1","2",""
"null","","html-keyboard-response","346","685355","0.0-346.0","3QRYMNZ7FZ3FFW69XNUQKFNT70FNTA","A22LRKFP5S22GR","3THR0FZ95PF7SK0MYRNAOUHTWA4OLV","","","<img src=""img/flower4.png"" style=""width:200px; border:14px solid green;"">","null","","","","","","","","",""
"1472","","image-keyboard-response","347","686830","0.0-347.0","3QRYMNZ7FZ3FFW69XNUQKFNT70FNTA","A22LRKFP5S22GR","3THR0FZ95PF7SK0MYRNAOUHTWA4OLV","","","img/flower2.png","76","1475","3","1","1","2","1,0,0,1,1,0,1,0,1","0,0,1,1,0,1,0,1,1","2",""
"null","","html-keyboard-response","348","687142","0.0-348.0","3QRYMNZ7FZ3FFW69XNUQKFNT70FNTA","A22LRKFP5S22GR","3THR0FZ95PF7SK0MYRNAOUHTWA4OLV","","","<img src=""img/flower2.png"" style=""width:200px; border:14px solid green;"">","null","","","","","","","","",""
"1105","","image-keyboard-response","349","688258","0.0-349.0","3QRYMNZ7FZ3FFW69XNUQKFNT70FNTA","A22LRKFP5S22GR","3THR0FZ95PF7SK0MYRNAOUHTWA4OLV","","","img/flower4.png","74","1116","1","1","2","2","1,0,0,1,1,0,1,0,1","0,0,1,1,0,1,0,1,1","2",""
"null","","html-keyboard-response","350","688565","0.0-350.0","3QRYMNZ7FZ3FFW69XNUQKFNT70FNTA","A22LRKFP5S22GR","3THR0FZ95PF7SK0MYRNAOUHTWA4OLV","","","<img src=""img/flower4.png"" style=""width:200px; border:14px solid green;"">","null","","","","","","","","",""
"1154","","image-keyboard-response","351","689728","0.0-351.0","3QRYMNZ7FZ3FFW69XNUQKFNT70FNTA","A22LRKFP5S22GR","3THR0FZ95PF7SK0MYRNAOUHTWA4OLV","","","img/flower2.png","76","1163","3","1","1","2","1,0,0,1,1,0,1,0,1","0,0,1,1,0,1,0,1,1","2",""
"null","","html-keyboard-response","352","690030","0.0-352.0","3QRYMNZ7FZ3FFW69XNUQKFNT70FNTA","A22LRKFP5S22GR","3THR0FZ95PF7SK0MYRNAOUHTWA4OLV","","","<img src=""img/flower2.png"" style=""width:200px; border:14px solid green;"">","null","","","","","","","","",""
"1073","","image-keyboard-response","353","691103","0.0-353.0","3QRYMNZ7FZ3FFW69XNUQKFNT70FNTA","A22LRKFP5S22GR","3THR0FZ95PF7SK0MYRNAOUHTWA4OLV","","","img/flower6.png","76","1083","3","1","3","2","1,0,0,1,1,0,1,0,1","0,0,1,1,0,1,0,1,1","2",""
"null","","html-keyboard-response","354","691420","0.0-354.0","3QRYMNZ7FZ3FFW69XNUQKFNT70FNTA","A22LRKFP5S22GR","3THR0FZ95PF7SK0MYRNAOUHTWA4OLV","","","<img src=""img/flower6.png"" style=""width:200px; border:14px solid green;"">","null","","","","","","","","",""
"1032","","image-keyboard-response","355","692464","0.0-355.0","3QRYMNZ7FZ3FFW69XNUQKFNT70FNTA","A22LRKFP5S22GR","3THR0FZ95PF7SK0MYRNAOUHTWA4OLV","","","img/flower2.png","76","1044","3","1","1","2","1,0,0,1,1,0,1,0,1","0,0,1,1,0,1,0,1,1","2",""
"null","","html-keyboard-response","356","692780","0.0-356.0","3QRYMNZ7FZ3FFW69XNUQKFNT70FNTA","A22LRKFP5S22GR","3THR0FZ95PF7SK0MYRNAOUHTWA4OLV","","","<img src=""img/flower2.png"" style=""width:200px; border:14px solid green;"">","null","","","","","","","","",""
"987","","image-keyboard-response","357","693767","0.0-357.0","3QRYMNZ7FZ3FFW69XNUQKFNT70FNTA","A22LRKFP5S22GR","3THR0FZ95PF7SK0MYRNAOUHTWA4OLV","","","img/flower6.png","76","988","3","1","3","2","1,0,0,1,1,0,1,0,1","0,0,1,1,0,1,0,1,1","2",""
"null","","html-keyboard-response","358","694079","0.0-358.0","3QRYMNZ7FZ3FFW69XNUQKFNT70FNTA","A22LRKFP5S22GR","3THR0FZ95PF7SK0MYRNAOUHTWA4OLV","","","<img src=""img/flower6.png"" style=""width:200px; border:14px solid green;"">","null","","","","","","","","",""
"888","","image-keyboard-response","359","694969","0.0-359.0","3QRYMNZ7FZ3FFW69XNUQKFNT70FNTA","A22LRKFP5S22GR","3THR0FZ95PF7SK0MYRNAOUHTWA4OLV","","","img/flower2.png","76","901","3","1","1","2","1,0,0,1,1,0,1,0,1","0,0,1,1,0,1,0,1,1","2",""
"null","","html-keyboard-response","360","695298","0.0-360.0","3QRYMNZ7FZ3FFW69XNUQKFNT70FNTA","A22LRKFP5S22GR","3THR0FZ95PF7SK0MYRNAOUHTWA4OLV","","","<img src=""img/flower2.png"" style=""width:200px; border:14px solid green;"">","null","","","","","","","","",""
"1394","","image-keyboard-response","361","696705","0.0-361.0","3QRYMNZ7FZ3FFW69XNUQKFNT70FNTA","A22LRKFP5S22GR","3THR0FZ95PF7SK0MYRNAOUHTWA4OLV","","","img/flower6.png","76","1407","3","1","3","2","1,0,0,1,1,0,1,0,1","0,0,1,1,0,1,0,1,1","2",""
"null","","html-keyboard-response","362","697019","0.0-362.0","3QRYMNZ7FZ3FFW69XNUQKFNT70FNTA","A22LRKFP5S22GR","3THR0FZ95PF7SK0MYRNAOUHTWA4OLV","","","<img src=""img/flower6.png"" style=""width:200px; border:14px solid green;"">","null","","","","","","","","",""
"934","","image-keyboard-response","363","697968","0.0-363.0","3QRYMNZ7FZ3FFW69XNUQKFNT70FNTA","A22LRKFP5S22GR","3THR0FZ95PF7SK0MYRNAOUHTWA4OLV","","","img/flower6.png","76","948","3","1","3","2","1,0,0,1,1,0,1,0,1","0,0,1,1,0,1,0,1,1","2",""
"null","","html-keyboard-response","364","698280","0.0-364.0","3QRYMNZ7FZ3FFW69XNUQKFNT70FNTA","A22LRKFP5S22GR","3THR0FZ95PF7SK0MYRNAOUHTWA4OLV","","","<img src=""img/flower6.png"" style=""width:200px; border:14px solid green;"">","null","","","","","","","","",""
"913","","image-keyboard-response","365","699212","0.0-365.0","3QRYMNZ7FZ3FFW69XNUQKFNT70FNTA","A22LRKFP5S22GR","3THR0FZ95PF7SK0MYRNAOUHTWA4OLV","","","img/flower6.png","76","932","3","1","3","2","1,0,0,1,1,0,1,0,1","0,0,1,1,0,1,0,1,1","2",""
"null","","html-keyboard-response","366","699529","0.0-366.0","3QRYMNZ7FZ3FFW69XNUQKFNT70FNTA","A22LRKFP5S22GR","3THR0FZ95PF7SK0MYRNAOUHTWA4OLV","","","<img src=""img/flower6.png"" style=""width:200px; border:14px solid green;"">","null","","","","","","","","",""
"1007","","image-keyboard-response","367","700541","0.0-367.0","3QRYMNZ7FZ3FFW69XNUQKFNT70FNTA","A22LRKFP5S22GR","3THR0FZ95PF7SK0MYRNAOUHTWA4OLV","","","img/flower6.png","76","1011","3","1","3","2","1,0,0,1,1,0,1,0,1","0,0,1,1,0,1,0,1,1","2",""
"null","","html-keyboard-response","368","700845","0.0-368.0","3QRYMNZ7FZ3FFW69XNUQKFNT70FNTA","A22LRKFP5S22GR","3THR0FZ95PF7SK0MYRNAOUHTWA4OLV","","","<img src=""img/flower6.png"" style=""width:200px; border:14px solid green;"">","null","","","","","","","","",""
"826","","image-keyboard-response","369","701677","0.0-369.0","3QRYMNZ7FZ3FFW69XNUQKFNT70FNTA","A22LRKFP5S22GR","3THR0FZ95PF7SK0MYRNAOUHTWA4OLV","","","img/flower6.png","76","832","3","1","3","2","1,0,0,1,1,0,1,0,1","0,0,1,1,0,1,0,1,1","2",""
"null","","html-keyboard-response","370","701984","0.0-370.0","3QRYMNZ7FZ3FFW69XNUQKFNT70FNTA","A22LRKFP5S22GR","3THR0FZ95PF7SK0MYRNAOUHTWA4OLV","","","<img src=""img/flower6.png"" style=""width:200px; border:14px solid green;"">","null","","","","","","","","",""
"899","","image-keyboard-response","371","702890","0.0-371.0","3QRYMNZ7FZ3FFW69XNUQKFNT70FNTA","A22LRKFP5S22GR","3THR0FZ95PF7SK0MYRNAOUHTWA4OLV","","","img/flower6.png","76","906","3","1","3","2","1,0,0,1,1,0,1,0,1","0,0,1,1,0,1,0,1,1","2",""
"null","","html-keyboard-response","372","703204","0.0-372.0","3QRYMNZ7FZ3FFW69XNUQKFNT70FNTA","A22LRKFP5S22GR","3THR0FZ95PF7SK0MYRNAOUHTWA4OLV","","","<img src=""img/flower6.png"" style=""width:200px; border:14px solid green;"">","null","","","","","","","","",""
"811","","image-keyboard-response","373","704029","0.0-373.0","3QRYMNZ7FZ3FFW69XNUQKFNT70FNTA","A22LRKFP5S22GR","3THR0FZ95PF7SK0MYRNAOUHTWA4OLV","","","img/flower6.png","76","825","3","1","3","2","1,0,0,1,1,0,1,0,1","0,0,1,1,0,1,0,1,1","2",""
"null","","html-keyboard-response","374","704338","0.0-374.0","3QRYMNZ7FZ3FFW69XNUQKFNT70FNTA","A22LRKFP5S22GR","3THR0FZ95PF7SK0MYRNAOUHTWA4OLV","","","<img src=""img/flower6.png"" style=""width:200px; border:14px solid green;"">","null","","","","","","","","",""
"1056","","image-keyboard-response","375","705401","0.0-375.0","3QRYMNZ7FZ3FFW69XNUQKFNT70FNTA","A22LRKFP5S22GR","3THR0FZ95PF7SK0MYRNAOUHTWA4OLV","","","img/flower4.png","74","1062","1","1","2","2","1,0,0,1,1,0,1,0,1","0,0,1,1,0,1,0,1,1","2",""
"null","","html-keyboard-response","376","705717","0.0-376.0","3QRYMNZ7FZ3FFW69XNUQKFNT70FNTA","A22LRKFP5S22GR","3THR0FZ95PF7SK0MYRNAOUHTWA4OLV","","","<img src=""img/flower4.png"" style=""width:200px; border:14px solid green;"">","null","","","","","","","","",""
"1143","","image-keyboard-response","377","706869","0.0-377.0","3QRYMNZ7FZ3FFW69XNUQKFNT70FNTA","A22LRKFP5S22GR","3THR0FZ95PF7SK0MYRNAOUHTWA4OLV","","","img/flower4.png","74","1153","1","1","2","2","1,0,0,1,1,0,1,0,1","0,0,1,1,0,1,0,1,1","2",""
"null","","html-keyboard-response","378","707188","0.0-378.0","3QRYMNZ7FZ3FFW69XNUQKFNT70FNTA","A22LRKFP5S22GR","3THR0FZ95PF7SK0MYRNAOUHTWA4OLV","","","<img src=""img/flower4.png"" style=""width:200px; border:14px solid green;"">","null","","","","","","","","",""
"1034","","image-keyboard-response","379","708224","0.0-379.0","3QRYMNZ7FZ3FFW69XNUQKFNT70FNTA","A22LRKFP5S22GR","3THR0FZ95PF7SK0MYRNAOUHTWA4OLV","","","img/flower2.png","76","1036","3","1","1","2","1,0,0,1,1,0,1,0,1","0,0,1,1,0,1,0,1,1","2",""
"null","","html-keyboard-response","380","708531","0.0-380.0","3QRYMNZ7FZ3FFW69XNUQKFNT70FNTA","A22LRKFP5S22GR","3THR0FZ95PF7SK0MYRNAOUHTWA4OLV","","","<img src=""img/flower2.png"" style=""width:200px; border:14px solid green;"">","null","","","","","","","","",""
"2313","","image-keyboard-response","381","710848","0.0-381.0","3QRYMNZ7FZ3FFW69XNUQKFNT70FNTA","A22LRKFP5S22GR","3THR0FZ95PF7SK0MYRNAOUHTWA4OLV","","","img/flower4.png","74","2317","1","1","2","2","1,0,0,1,1,0,1,0,1","0,0,1,1,0,1,0,1,1","2",""
"null","","html-keyboard-response","382","711154","0.0-382.0","3QRYMNZ7FZ3FFW69XNUQKFNT70FNTA","A22LRKFP5S22GR","3THR0FZ95PF7SK0MYRNAOUHTWA4OLV","","","<img src=""img/flower4.png"" style=""width:200px; border:14px solid green;"">","null","","","","","","","","",""
"888","","image-keyboard-response","383","712057","0.0-383.0","3QRYMNZ7FZ3FFW69XNUQKFNT70FNTA","A22LRKFP5S22GR","3THR0FZ95PF7SK0MYRNAOUHTWA4OLV","","","img/flower4.png","74","903","1","1","2","2","1,0,0,1,1,0,1,0,1","0,0,1,1,0,1,0,1,1","2",""
