"rt","url","trial_type","trial_index","time_elapsed","internal_node_id","assignmentID","mturkID","hitID","success","view_history","stimulus","key_press","reactionTime","a","r","s","cond","reward_cond","reward_cond_actual","reward_matrix_idx","responses"
"8380","consent.html","external-html","0","8837","0.0-0.0","3CFJTT4SXUC03XYBN4EXABZUW4U7I2","A24IWWIUPASCQJ","3AQN9REUTF20OMGWRXYK787Q1B1YD0","","","","","","","","","","","","",""
"","","fullscreen","1","11695","0.0-1.0","3CFJTT4SXUC03XYBN4EXABZUW4U7I2","A24IWWIUPASCQJ","3AQN9REUTF20OMGWRXYK787Q1B1YD0","true","","","","","","","","","","","",""
"21075","","instructions","2","32774","0.0-2.0","3CFJTT4SXUC03XYBN4EXABZUW4U7I2","A24IWWIUPASCQJ","3AQN9REUTF20OMGWRXYK787Q1B1YD0","","[{""page_index"":0,""viewing_time"":4775},{""page_index"":1,""viewing_time"":3663},{""page_index"":2,""viewing_time"":2765},{""page_index"":3,""viewing_time"":3659},{""page_index"":4,""viewing_time"":2179},{""page_index"":5,""viewing_time"":2227},{""page_index"":6,""viewing_time"":1805}]","","","","","","","","","","",""
"6654","","instructions","3","39430","0.0-3.0","3CFJTT4SXUC03XYBN4EXABZUW4U7I2","A24IWWIUPASCQJ","3AQN9REUTF20OMGWRXYK787Q1B1YD0","","[{""page_index"":0,""viewing_time"":6654}]","","","","","","","","","","",""
"2021","","image-keyboard-response","4","41458","0.0-4.0","3CFJTT4SXUC03XYBN4EXABZUW4U7I2","A24IWWIUPASCQJ","3AQN9REUTF20OMGWRXYK787Q1B1YD0","","","img/flower5.png","74","2023","1","0","2","","","","",""
"null","","html-keyboard-response","5","41775","0.0-5.0","3CFJTT4SXUC03XYBN4EXABZUW4U7I2","A24IWWIUPASCQJ","3AQN9REUTF20OMGWRXYK787Q1B1YD0","","","<img src=""img/flower5.png"" style=""width:200px;border:14px solid red;"">","null","","","","","","","","",""
"1323","","image-keyboard-response","6","43099","0.0-6.0","3CFJTT4SXUC03XYBN4EXABZUW4U7I2","A24IWWIUPASCQJ","3AQN9REUTF20OMGWRXYK787Q1B1YD0","","","img/flower4.png","74","1323","1","1","1","","","","",""
"null","","html-keyboard-response","7","43414","0.0-7.0","3CFJTT4SXUC03XYBN4EXABZUW4U7I2","A24IWWIUPASCQJ","3AQN9REUTF20OMGWRXYK787Q1B1YD0","","","<img src=""img/flower4.png"" style=""width:200px; border:14px solid green;"">","null","","","","","","","","",""
"1449","","image-keyboard-response","8","44865","0.0-8.0","3CFJTT4SXUC03XYBN4EXABZUW4U7I2","A24IWWIUPASCQJ","3AQN9REUTF20OMGWRXYK787Q1B1YD0","","","img/flower5.png","75","1451","2","1","2","","","","",""
"null","","html-keyboard-response","9","45177","0.0-9.0","3CFJTT4SXUC03XYBN4EXABZUW4U7I2","A24IWWIUPASCQJ","3AQN9REUTF20OMGWRXYK787Q1B1YD0","","","<img src=""img/flower5.png"" style=""width:200px; border:14px solid green;"">","null","","","","","","","","",""
"2860","","image-keyboard-response","10","48037","0.0-10.0","3CFJTT4SXUC03XYBN4EXABZUW4U7I2","A24IWWIUPASCQJ","3AQN9REUTF20OMGWRXYK787Q1B1YD0","","","img/flower5.png","75","2860","2","1","2","","","","",""
"null","","html-keyboard-response","11","48365","0.0-11.0","3CFJTT4SXUC03XYBN4EXABZUW4U7I2","A24IWWIUPASCQJ","3AQN9REUTF20OMGWRXYK787Q1B1YD0","","","<img src=""img/flower5.png"" style=""width:200px; border:14px solid green;"">","null","","","","","","","","",""
"1187","","image-keyboard-response","12","49553","0.0-12.0","3CFJTT4SXUC03XYBN4EXABZUW4U7I2","A24IWWIUPASCQJ","3AQN9REUTF20OMGWRXYK787Q1B1YD0","","","img/flower5.png","76","1187","3","0","2","","","","",""
"null","","html-keyboard-response","13","49883","0.0-13.0","3CFJTT4SXUC03XYBN4EXABZUW4U7I2","A24IWWIUPASCQJ","3AQN9REUTF20OMGWRXYK787Q1B1YD0","","","<img src=""img/flower5.png"" style=""width:200px;border:14px solid red;"">","null","","","","","","","","",""
"699","","image-keyboard-response","14","50583","0.0-14.0","3CFJTT4SXUC03XYBN4EXABZUW4U7I2","A24IWWIUPASCQJ","3AQN9REUTF20OMGWRXYK787Q1B1YD0","","","img/flower5.png","75","700","2","1","2","","","","",""
"null","","html-keyboard-response","15","50913","0.0-15.0","3CFJTT4SXUC03XYBN4EXABZUW4U7I2","A24IWWIUPASCQJ","3AQN9REUTF20OMGWRXYK787Q1B1YD0","","","<img src=""img/flower5.png"" style=""width:200px; border:14px solid green;"">","null","","","","","","","","",""
"7068","","image-keyboard-response","16","57992","0.0-16.0","3CFJTT4SXUC03XYBN4EXABZUW4U7I2","A24IWWIUPASCQJ","3AQN9REUTF20OMGWRXYK787Q1B1YD0","","","img/flower4.png","74","7068","1","1","1","","","","",""
"null","","html-keyboard-response","17","58307","0.0-17.0","3CFJTT4SXUC03XYBN4EXABZUW4U7I2","A24IWWIUPASCQJ","3AQN9REUTF20OMGWRXYK787Q1B1YD0","","","<img src=""img/flower4.png"" style=""width:200px; border:14px solid green;"">","null","","","","","","","","",""
"684","","image-keyboard-response","18","58993","0.0-18.0","3CFJTT4SXUC03XYBN4EXABZUW4U7I2","A24IWWIUPASCQJ","3AQN9REUTF20OMGWRXYK787Q1B1YD0","","","img/flower6.png","74","686","1","0","3","","","","",""
"null","","html-keyboard-response","19","59302","0.0-19.0","3CFJTT4SXUC03XYBN4EXABZUW4U7I2","A24IWWIUPASCQJ","3AQN9REUTF20OMGWRXYK787Q1B1YD0","","","<img src=""img/flower6.png"" style=""width:200px;border:14px solid red;"">","null","","","","","","","","",""
"764","","image-keyboard-response","20","60068","0.0-20.0","3CFJTT4SXUC03XYBN4EXABZUW4U7I2","A24IWWIUPASCQJ","3AQN9REUTF20OMGWRXYK787Q1B1YD0","","","img/flower6.png","75","765","2","0","3","","","","",""
"null","","html-keyboard-response","21","60399","0.0-21.0","3CFJTT4SXUC03XYBN4EXABZUW4U7I2","A24IWWIUPASCQJ","3AQN9REUTF20OMGWRXYK787Q1B1YD0","","","<img src=""img/flower6.png"" style=""width:200px;border:14px solid red;"">","null","","","","","","","","",""
"713","","image-keyboard-response","22","61115","0.0-22.0","3CFJTT4SXUC03XYBN4EXABZUW4U7I2","A24IWWIUPASCQJ","3AQN9REUTF20OMGWRXYK787Q1B1YD0","","","img/flower6.png","75","716","2","0","3","","","","",""
"null","","html-keyboard-response","23","61430","0.0-23.0","3CFJTT4SXUC03XYBN4EXABZUW4U7I2","A24IWWIUPASCQJ","3AQN9REUTF20OMGWRXYK787Q1B1YD0","","","<img src=""img/flower6.png"" style=""width:200px;border:14px solid red;"">","null","","","","","","","","",""
"745","","image-keyboard-response","24","62177","0.0-24.0","3CFJTT4SXUC03XYBN4EXABZUW4U7I2","A24IWWIUPASCQJ","3AQN9REUTF20OMGWRXYK787Q1B1YD0","","","img/flower4.png","76","747","3","1","1","","","","",""
"null","","html-keyboard-response","25","62490","0.0-25.0","3CFJTT4SXUC03XYBN4EXABZUW4U7I2","A24IWWIUPASCQJ","3AQN9REUTF20OMGWRXYK787Q1B1YD0","","","<img src=""img/flower4.png"" style=""width:200px; border:14px solid green;"">","null","","","","","","","","",""
"814","","image-keyboard-response","26","63304","0.0-26.0","3CFJTT4SXUC03XYBN4EXABZUW4U7I2","A24IWWIUPASCQJ","3AQN9REUTF20OMGWRXYK787Q1B1YD0","","","img/flower5.png","75","814","2","1","2","","","","",""
"null","","html-keyboard-response","27","63615","0.0-27.0","3CFJTT4SXUC03XYBN4EXABZUW4U7I2","A24IWWIUPASCQJ","3AQN9REUTF20OMGWRXYK787Q1B1YD0","","","<img src=""img/flower5.png"" style=""width:200px; border:14px solid green;"">","null","","","","","","","","",""
"1704","","image-keyboard-response","28","65319","0.0-28.0","3CFJTT4SXUC03XYBN4EXABZUW4U7I2","A24IWWIUPASCQJ","3AQN9REUTF20OMGWRXYK787Q1B1YD0","","","img/flower4.png","74","1704","1","1","1","","","","",""
"null","","html-keyboard-response","29","65633","0.0-29.0","3CFJTT4SXUC03XYBN4EXABZUW4U7I2","A24IWWIUPASCQJ","3AQN9REUTF20OMGWRXYK787Q1B1YD0","","","<img src=""img/flower4.png"" style=""width:200px; border:14px solid green;"">","null","","","","","","","","",""
"2465","","image-keyboard-response","30","68099","0.0-30.0","3CFJTT4SXUC03XYBN4EXABZUW4U7I2","A24IWWIUPASCQJ","3AQN9REUTF20OMGWRXYK787Q1B1YD0","","","img/flower6.png","74","2466","1","0","3","","","","",""
"null","","html-keyboard-response","31","68419","0.0-31.0","3CFJTT4SXUC03XYBN4EXABZUW4U7I2","A24IWWIUPASCQJ","3AQN9REUTF20OMGWRXYK787Q1B1YD0","","","<img src=""img/flower6.png"" style=""width:200px;border:14px solid red;"">","null","","","","","","","","",""
"834","","image-keyboard-response","32","69257","0.0-32.0","3CFJTT4SXUC03XYBN4EXABZUW4U7I2","A24IWWIUPASCQJ","3AQN9REUTF20OMGWRXYK787Q1B1YD0","","","img/flower6.png","75","838","2","0","3","","","","",""
"null","","html-keyboard-response","33","69568","0.0-33.0","3CFJTT4SXUC03XYBN4EXABZUW4U7I2","A24IWWIUPASCQJ","3AQN9REUTF20OMGWRXYK787Q1B1YD0","","","<img src=""img/flower6.png"" style=""width:200px;border:14px solid red;"">","null","","","","","","","","",""
"10813","","image-keyboard-response","34","80381","0.0-34.0","3CFJTT4SXUC03XYBN4EXABZUW4U7I2","A24IWWIUPASCQJ","3AQN9REUTF20OMGWRXYK787Q1B1YD0","","","img/flower4.png","75","10813","2","0","1","","","","",""
"null","","html-keyboard-response","35","80690","0.0-35.0","3CFJTT4SXUC03XYBN4EXABZUW4U7I2","A24IWWIUPASCQJ","3AQN9REUTF20OMGWRXYK787Q1B1YD0","","","<img src=""img/flower4.png"" style=""width:200px;border:14px solid red;"">","null","","","","","","","","",""
"958","","image-keyboard-response","36","81650","0.0-36.0","3CFJTT4SXUC03XYBN4EXABZUW4U7I2","A24IWWIUPASCQJ","3AQN9REUTF20OMGWRXYK787Q1B1YD0","","","img/flower6.png","75","958","2","0","3","","","","",""
"null","","html-keyboard-response","37","82037","0.0-37.0","3CFJTT4SXUC03XYBN4EXABZUW4U7I2","A24IWWIUPASCQJ","3AQN9REUTF20OMGWRXYK787Q1B1YD0","","","<img src=""img/flower6.png"" style=""width:200px;border:14px solid red;"">","null","","","","","","","","",""
"58781","","image-keyboard-response","38","140818","0.0-38.0","3CFJTT4SXUC03XYBN4EXABZUW4U7I2","A24IWWIUPASCQJ","3AQN9REUTF20OMGWRXYK787Q1B1YD0","","","img/flower6.png","75","58781","2","0","3","","","","",""
"null","","html-keyboard-response","39","141132","0.0-39.0","3CFJTT4SXUC03XYBN4EXABZUW4U7I2","A24IWWIUPASCQJ","3AQN9REUTF20OMGWRXYK787Q1B1YD0","","","<img src=""img/flower6.png"" style=""width:200px;border:14px solid red;"">","null","","","","","","","","",""
"1045","","image-keyboard-response","40","142177","0.0-40.0","3CFJTT4SXUC03XYBN4EXABZUW4U7I2","A24IWWIUPASCQJ","3AQN9REUTF20OMGWRXYK787Q1B1YD0","","","img/flower4.png","76","1045","3","0","1","","","","",""
"null","","html-keyboard-response","41","142491","0.0-41.0","3CFJTT4SXUC03XYBN4EXABZUW4U7I2","A24IWWIUPASCQJ","3AQN9REUTF20OMGWRXYK787Q1B1YD0","","","<img src=""img/flower4.png"" style=""width:200px;border:14px solid red;"">","null","","","","","","","","",""
"451","","image-keyboard-response","42","142943","0.0-42.0","3CFJTT4SXUC03XYBN4EXABZUW4U7I2","A24IWWIUPASCQJ","3AQN9REUTF20OMGWRXYK787Q1B1YD0","","","img/flower4.png","76","465","3","0","1","","","","",""
"null","","html-keyboard-response","43","143275","0.0-43.0","3CFJTT4SXUC03XYBN4EXABZUW4U7I2","A24IWWIUPASCQJ","3AQN9REUTF20OMGWRXYK787Q1B1YD0","","","<img src=""img/flower4.png"" style=""width:200px;border:14px solid red;"">","null","","","","","","","","",""
"718","","image-keyboard-response","44","143994","0.0-44.0","3CFJTT4SXUC03XYBN4EXABZUW4U7I2","A24IWWIUPASCQJ","3AQN9REUTF20OMGWRXYK787Q1B1YD0","","","img/flower4.png","74","718","1","0","1","","","","",""
"null","","html-keyboard-response","45","144303","0.0-45.0","3CFJTT4SXUC03XYBN4EXABZUW4U7I2","A24IWWIUPASCQJ","3AQN9REUTF20OMGWRXYK787Q1B1YD0","","","<img src=""img/flower4.png"" style=""width:200px;border:14px solid red;"">","null","","","","","","","","",""
"248","","image-keyboard-response","46","144552","0.0-46.0","3CFJTT4SXUC03XYBN4EXABZUW4U7I2","A24IWWIUPASCQJ","3AQN9REUTF20OMGWRXYK787Q1B1YD0","","","img/flower4.png","74","249","1","1","1","","","","",""
"null","","html-keyboard-response","47","144866","0.0-47.0","3CFJTT4SXUC03XYBN4EXABZUW4U7I2","A24IWWIUPASCQJ","3AQN9REUTF20OMGWRXYK787Q1B1YD0","","","<img src=""img/flower4.png"" style=""width:200px; border:14px solid green;"">","null","","","","","","","","",""
"295","","image-keyboard-response","48","145162","0.0-48.0","3CFJTT4SXUC03XYBN4EXABZUW4U7I2","A24IWWIUPASCQJ","3AQN9REUTF20OMGWRXYK787Q1B1YD0","","","img/flower4.png","75","296","2","1","1","","","","",""
"null","","html-keyboard-response","49","145474","0.0-49.0","3CFJTT4SXUC03XYBN4EXABZUW4U7I2","A24IWWIUPASCQJ","3AQN9REUTF20OMGWRXYK787Q1B1YD0","","","<img src=""img/flower4.png"" style=""width:200px; border:14px solid green;"">","null","","","","","","","","",""
"252","","image-keyboard-response","50","145726","0.0-50.0","3CFJTT4SXUC03XYBN4EXABZUW4U7I2","A24IWWIUPASCQJ","3AQN9REUTF20OMGWRXYK787Q1B1YD0","","","img/flower5.png","76","252","3","0","2","","","","",""
"null","","html-keyboard-response","51","146038","0.0-51.0","3CFJTT4SXUC03XYBN4EXABZUW4U7I2","A24IWWIUPASCQJ","3AQN9REUTF20OMGWRXYK787Q1B1YD0","","","<img src=""img/flower5.png"" style=""width:200px;border:14px solid red;"">","null","","","","","","","","",""
"576","","image-keyboard-response","52","146615","0.0-52.0","3CFJTT4SXUC03XYBN4EXABZUW4U7I2","A24IWWIUPASCQJ","3AQN9REUTF20OMGWRXYK787Q1B1YD0","","","img/flower6.png","75","577","2","0","3","","","","",""
"null","","html-keyboard-response","53","146927","0.0-53.0","3CFJTT4SXUC03XYBN4EXABZUW4U7I2","A24IWWIUPASCQJ","3AQN9REUTF20OMGWRXYK787Q1B1YD0","","","<img src=""img/flower6.png"" style=""width:200px;border:14px solid red;"">","null","","","","","","","","",""
"579","","image-keyboard-response","54","147506","0.0-54.0","3CFJTT4SXUC03XYBN4EXABZUW4U7I2","A24IWWIUPASCQJ","3AQN9REUTF20OMGWRXYK787Q1B1YD0","","","img/flower5.png","74","579","1","0","2","","","","",""
"null","","html-keyboard-response","55","147850","0.0-55.0","3CFJTT4SXUC03XYBN4EXABZUW4U7I2","A24IWWIUPASCQJ","3AQN9REUTF20OMGWRXYK787Q1B1YD0","","","<img src=""img/flower5.png"" style=""width:200px;border:14px solid red;"">","null","","","","","","","","",""
"297","","image-keyboard-response","56","148170","0.0-56.0","3CFJTT4SXUC03XYBN4EXABZUW4U7I2","A24IWWIUPASCQJ","3AQN9REUTF20OMGWRXYK787Q1B1YD0","","","img/flower6.png","76","297","3","0","3","","","","",""
"null","","html-keyboard-response","57","148475","0.0-57.0","3CFJTT4SXUC03XYBN4EXABZUW4U7I2","A24IWWIUPASCQJ","3AQN9REUTF20OMGWRXYK787Q1B1YD0","","","<img src=""img/flower6.png"" style=""width:200px;border:14px solid red;"">","null","","","","","","","","",""
"264","","image-keyboard-response","58","148740","0.0-58.0","3CFJTT4SXUC03XYBN4EXABZUW4U7I2","A24IWWIUPASCQJ","3AQN9REUTF20OMGWRXYK787Q1B1YD0","","","img/flower5.png","74","265","1","1","2","","","","",""
"null","","html-keyboard-response","59","149069","0.0-59.0","3CFJTT4SXUC03XYBN4EXABZUW4U7I2","A24IWWIUPASCQJ","3AQN9REUTF20OMGWRXYK787Q1B1YD0","","","<img src=""img/flower5.png"" style=""width:200px; border:14px solid green;"">","null","","","","","","","","",""
"232","","image-keyboard-response","60","149318","0.0-60.0","3CFJTT4SXUC03XYBN4EXABZUW4U7I2","A24IWWIUPASCQJ","3AQN9REUTF20OMGWRXYK787Q1B1YD0","","","img/flower6.png","75","249","2","0","3","","","","",""
"null","","html-keyboard-response","61","149631","0.0-61.0","3CFJTT4SXUC03XYBN4EXABZUW4U7I2","A24IWWIUPASCQJ","3AQN9REUTF20OMGWRXYK787Q1B1YD0","","","<img src=""img/flower6.png"" style=""width:200px;border:14px solid red;"">","null","","","","","","","","",""
"374","","image-keyboard-response","62","150005","0.0-62.0","3CFJTT4SXUC03XYBN4EXABZUW4U7I2","A24IWWIUPASCQJ","3AQN9REUTF20OMGWRXYK787Q1B1YD0","","","img/flower5.png","74","374","1","0","2","","","","",""
"null","","html-keyboard-response","63","150319","0.0-63.0","3CFJTT4SXUC03XYBN4EXABZUW4U7I2","A24IWWIUPASCQJ","3AQN9REUTF20OMGWRXYK787Q1B1YD0","","","<img src=""img/flower5.png"" style=""width:200px;border:14px solid red;"">","null","","","","","","","","",""
"5021","","instructions","64","155340","0.0-64.0","3CFJTT4SXUC03XYBN4EXABZUW4U7I2","A24IWWIUPASCQJ","3AQN9REUTF20OMGWRXYK787Q1B1YD0","","[{""page_index"":0,""viewing_time"":3030},{""page_index"":1,""viewing_time"":1991}]","","","","","","","","","","",""
"1380","","image-keyboard-response","65","156727","0.0-65.0","3CFJTT4SXUC03XYBN4EXABZUW4U7I2","A24IWWIUPASCQJ","3AQN9REUTF20OMGWRXYK787Q1B1YD0","","","img/flower4.png","74","1386","1","1","1","","","","",""
"null","","html-keyboard-response","66","157038","0.0-66.0","3CFJTT4SXUC03XYBN4EXABZUW4U7I2","A24IWWIUPASCQJ","3AQN9REUTF20OMGWRXYK787Q1B1YD0","","","<img src=""img/flower4.png"" style=""width:200px; border:14px solid green;"">","null","","","","","","","","",""
"780","","image-keyboard-response","67","157818","0.0-67.0","3CFJTT4SXUC03XYBN4EXABZUW4U7I2","A24IWWIUPASCQJ","3AQN9REUTF20OMGWRXYK787Q1B1YD0","","","img/flower4.png","75","780","2","1","1","","","","",""
"null","","html-keyboard-response","68","158131","0.0-68.0","3CFJTT4SXUC03XYBN4EXABZUW4U7I2","A24IWWIUPASCQJ","3AQN9REUTF20OMGWRXYK787Q1B1YD0","","","<img src=""img/flower4.png"" style=""width:200px; border:14px solid green;"">","null","","","","","","","","",""
"2063","","image-keyboard-response","69","160195","0.0-69.0","3CFJTT4SXUC03XYBN4EXABZUW4U7I2","A24IWWIUPASCQJ","3AQN9REUTF20OMGWRXYK787Q1B1YD0","","","img/flower6.png","74","2064","1","0","3","","","","",""
"null","","html-keyboard-response","70","160505","0.0-70.0","3CFJTT4SXUC03XYBN4EXABZUW4U7I2","A24IWWIUPASCQJ","3AQN9REUTF20OMGWRXYK787Q1B1YD0","","","<img src=""img/flower6.png"" style=""width:200px;border:14px solid red;"">","null","","","","","","","","",""
"4830","","image-keyboard-response","71","165337","0.0-71.0","3CFJTT4SXUC03XYBN4EXABZUW4U7I2","A24IWWIUPASCQJ","3AQN9REUTF20OMGWRXYK787Q1B1YD0","","","img/flower5.png","75","4832","2","0","2","","","","",""
"null","","html-keyboard-response","72","165646","0.0-72.0","3CFJTT4SXUC03XYBN4EXABZUW4U7I2","A24IWWIUPASCQJ","3AQN9REUTF20OMGWRXYK787Q1B1YD0","","","<img src=""img/flower5.png"" style=""width:200px;border:14px solid red;"">","null","","","","","","","","",""
"516","","image-keyboard-response","73","166162","0.0-73.0","3CFJTT4SXUC03XYBN4EXABZUW4U7I2","A24IWWIUPASCQJ","3AQN9REUTF20OMGWRXYK787Q1B1YD0","","","img/flower5.png","74","516","1","0","2","","","","",""
"null","","html-keyboard-response","74","166490","0.0-74.0","3CFJTT4SXUC03XYBN4EXABZUW4U7I2","A24IWWIUPASCQJ","3AQN9REUTF20OMGWRXYK787Q1B1YD0","","","<img src=""img/flower5.png"" style=""width:200px;border:14px solid red;"">","null","","","","","","","","",""
"594","","image-keyboard-response","75","167084","0.0-75.0","3CFJTT4SXUC03XYBN4EXABZUW4U7I2","A24IWWIUPASCQJ","3AQN9REUTF20OMGWRXYK787Q1B1YD0","","","img/flower4.png","74","594","1","1","1","","","","",""
"null","","html-keyboard-response","76","167396","0.0-76.0","3CFJTT4SXUC03XYBN4EXABZUW4U7I2","A24IWWIUPASCQJ","3AQN9REUTF20OMGWRXYK787Q1B1YD0","","","<img src=""img/flower4.png"" style=""width:200px; border:14px solid green;"">","null","","","","","","","","",""
"640","","image-keyboard-response","77","168037","0.0-77.0","3CFJTT4SXUC03XYBN4EXABZUW4U7I2","A24IWWIUPASCQJ","3AQN9REUTF20OMGWRXYK787Q1B1YD0","","","img/flower6.png","74","640","1","1","3","","","","",""
"null","","html-keyboard-response","78","168350","0.0-78.0","3CFJTT4SXUC03XYBN4EXABZUW4U7I2","A24IWWIUPASCQJ","3AQN9REUTF20OMGWRXYK787Q1B1YD0","","","<img src=""img/flower6.png"" style=""width:200px; border:14px solid green;"">","null","","","","","","","","",""
"545","","image-keyboard-response","79","168896","0.0-79.0","3CFJTT4SXUC03XYBN4EXABZUW4U7I2","A24IWWIUPASCQJ","3AQN9REUTF20OMGWRXYK787Q1B1YD0","","","img/flower4.png","75","545","2","1","1","","","","",""
"null","","html-keyboard-response","80","169211","0.0-80.0","3CFJTT4SXUC03XYBN4EXABZUW4U7I2","A24IWWIUPASCQJ","3AQN9REUTF20OMGWRXYK787Q1B1YD0","","","<img src=""img/flower4.png"" style=""width:200px; border:14px solid green;"">","null","","","","","","","","",""
"279","","image-keyboard-response","81","169490","0.0-81.0","3CFJTT4SXUC03XYBN4EXABZUW4U7I2","A24IWWIUPASCQJ","3AQN9REUTF20OMGWRXYK787Q1B1YD0","","","img/flower4.png","74","279","1","1","1","","","","",""
"null","","html-keyboard-response","82","169802","0.0-82.0","3CFJTT4SXUC03XYBN4EXABZUW4U7I2","A24IWWIUPASCQJ","3AQN9REUTF20OMGWRXYK787Q1B1YD0","","","<img src=""img/flower4.png"" style=""width:200px; border:14px solid green;"">","null","","","","","","","","",""
"438","","image-keyboard-response","83","170240","0.0-83.0","3CFJTT4SXUC03XYBN4EXABZUW4U7I2","A24IWWIUPASCQJ","3AQN9REUTF20OMGWRXYK787Q1B1YD0","","","img/flower5.png","75","438","2","0","2","","","","",""
"null","","html-keyboard-response","84","170553","0.0-84.0","3CFJTT4SXUC03XYBN4EXABZUW4U7I2","A24IWWIUPASCQJ","3AQN9REUTF20OMGWRXYK787Q1B1YD0","","","<img src=""img/flower5.png"" style=""width:200px;border:14px solid red;"">","null","","","","","","","","",""
"326","","image-keyboard-response","85","170880","0.0-85.0","3CFJTT4SXUC03XYBN4EXABZUW4U7I2","A24IWWIUPASCQJ","3AQN9REUTF20OMGWRXYK787Q1B1YD0","","","img/flower5.png","76","326","3","1","2","","","","",""
"null","","html-keyboard-response","86","171194","0.0-86.0","3CFJTT4SXUC03XYBN4EXABZUW4U7I2","A24IWWIUPASCQJ","3AQN9REUTF20OMGWRXYK787Q1B1YD0","","","<img src=""img/flower5.png"" style=""width:200px; border:14px solid green;"">","null","","","","","","","","",""
"264","","image-keyboard-response","87","171459","0.0-87.0","3CFJTT4SXUC03XYBN4EXABZUW4U7I2","A24IWWIUPASCQJ","3AQN9REUTF20OMGWRXYK787Q1B1YD0","","","img/flower6.png","74","265","1","1","3","","","","",""
"null","","html-keyboard-response","88","171772","0.0-88.0","3CFJTT4SXUC03XYBN4EXABZUW4U7I2","A24IWWIUPASCQJ","3AQN9REUTF20OMGWRXYK787Q1B1YD0","","","<img src=""img/flower6.png"" style=""width:200px; border:14px solid green;"">","null","","","","","","","","",""
"217","","image-keyboard-response","89","171990","0.0-89.0","3CFJTT4SXUC03XYBN4EXABZUW4U7I2","A24IWWIUPASCQJ","3AQN9REUTF20OMGWRXYK787Q1B1YD0","","","img/flower6.png","75","232","2","1","3","","","","",""
"null","","html-keyboard-response","90","172319","0.0-90.0","3CFJTT4SXUC03XYBN4EXABZUW4U7I2","A24IWWIUPASCQJ","3AQN9REUTF20OMGWRXYK787Q1B1YD0","","","<img src=""img/flower6.png"" style=""width:200px; border:14px solid green;"">","null","","","","","","","","",""
"217","","image-keyboard-response","91","172537","0.0-91.0","3CFJTT4SXUC03XYBN4EXABZUW4U7I2","A24IWWIUPASCQJ","3AQN9REUTF20OMGWRXYK787Q1B1YD0","","","img/flower4.png","74","217","1","1","1","","","","",""
"null","","html-keyboard-response","92","172866","0.0-92.0","3CFJTT4SXUC03XYBN4EXABZUW4U7I2","A24IWWIUPASCQJ","3AQN9REUTF20OMGWRXYK787Q1B1YD0","","","<img src=""img/flower4.png"" style=""width:200px; border:14px solid green;"">","null","","","","","","","","",""
"91","","image-keyboard-response","93","172958","0.0-93.0","3CFJTT4SXUC03XYBN4EXABZUW4U7I2","A24IWWIUPASCQJ","3AQN9REUTF20OMGWRXYK787Q1B1YD0","","","img/flower5.png","75","92","2","1","2","","","","",""
"null","","html-keyboard-response","94","173272","0.0-94.0","3CFJTT4SXUC03XYBN4EXABZUW4U7I2","A24IWWIUPASCQJ","3AQN9REUTF20OMGWRXYK787Q1B1YD0","","","<img src=""img/flower5.png"" style=""width:200px; border:14px solid green;"">","null","","","","","","","","",""
"373","","image-keyboard-response","95","173647","0.0-95.0","3CFJTT4SXUC03XYBN4EXABZUW4U7I2","A24IWWIUPASCQJ","3AQN9REUTF20OMGWRXYK787Q1B1YD0","","","img/flower5.png","74","375","1","0","2","","","","",""
"null","","html-keyboard-response","96","173979","0.0-96.0","3CFJTT4SXUC03XYBN4EXABZUW4U7I2","A24IWWIUPASCQJ","3AQN9REUTF20OMGWRXYK787Q1B1YD0","","","<img src=""img/flower5.png"" style=""width:200px;border:14px solid red;"">","null","","","","","","","","",""
"91","","image-keyboard-response","97","174073","0.0-97.0","3CFJTT4SXUC03XYBN4EXABZUW4U7I2","A24IWWIUPASCQJ","3AQN9REUTF20OMGWRXYK787Q1B1YD0","","","img/flower6.png","75","94","2","1","3","","","","",""
"null","","html-keyboard-response","98","174382","0.0-98.0","3CFJTT4SXUC03XYBN4EXABZUW4U7I2","A24IWWIUPASCQJ","3AQN9REUTF20OMGWRXYK787Q1B1YD0","","","<img src=""img/flower6.png"" style=""width:200px; border:14px solid green;"">","null","","","","","","","","",""
"170","","image-keyboard-response","99","174553","0.0-99.0","3CFJTT4SXUC03XYBN4EXABZUW4U7I2","A24IWWIUPASCQJ","3AQN9REUTF20OMGWRXYK787Q1B1YD0","","","img/flower6.png","75","171","2","0","3","","","","",""
"null","","html-keyboard-response","100","174866","0.0-100.0","3CFJTT4SXUC03XYBN4EXABZUW4U7I2","A24IWWIUPASCQJ","3AQN9REUTF20OMGWRXYK787Q1B1YD0","","","<img src=""img/flower6.png"" style=""width:200px;border:14px solid red;"">","null","","","","","","","","",""
"185","","image-keyboard-response","101","175052","0.0-101.0","3CFJTT4SXUC03XYBN4EXABZUW4U7I2","A24IWWIUPASCQJ","3AQN9REUTF20OMGWRXYK787Q1B1YD0","","","img/flower4.png","75","186","2","0","1","","","","",""
"null","","html-keyboard-response","102","175366","0.0-102.0","3CFJTT4SXUC03XYBN4EXABZUW4U7I2","A24IWWIUPASCQJ","3AQN9REUTF20OMGWRXYK787Q1B1YD0","","","<img src=""img/flower4.png"" style=""width:200px;border:14px solid red;"">","null","","","","","","","","",""
"216","","image-keyboard-response","103","175583","0.0-103.0","3CFJTT4SXUC03XYBN4EXABZUW4U7I2","A24IWWIUPASCQJ","3AQN9REUTF20OMGWRXYK787Q1B1YD0","","","img/flower6.png","75","217","2","0","3","","","","",""
"null","","html-keyboard-response","104","175896","0.0-104.0","3CFJTT4SXUC03XYBN4EXABZUW4U7I2","A24IWWIUPASCQJ","3AQN9REUTF20OMGWRXYK787Q1B1YD0","","","<img src=""img/flower6.png"" style=""width:200px;border:14px solid red;"">","null","","","","","","","","",""
"234","","image-keyboard-response","105","176130","0.0-105.0","3CFJTT4SXUC03XYBN4EXABZUW4U7I2","A24IWWIUPASCQJ","3AQN9REUTF20OMGWRXYK787Q1B1YD0","","","img/flower5.png","75","234","2","1","2","","","","",""
"null","","html-keyboard-response","106","176443","0.0-106.0","3CFJTT4SXUC03XYBN4EXABZUW4U7I2","A24IWWIUPASCQJ","3AQN9REUTF20OMGWRXYK787Q1B1YD0","","","<img src=""img/flower5.png"" style=""width:200px; border:14px solid green;"">","null","","","","","","","","",""
"423","","image-keyboard-response","107","176866","0.0-107.0","3CFJTT4SXUC03XYBN4EXABZUW4U7I2","A24IWWIUPASCQJ","3AQN9REUTF20OMGWRXYK787Q1B1YD0","","","img/flower5.png","75","423","2","1","2","","","","",""
"null","","html-keyboard-response","108","177178","0.0-108.0","3CFJTT4SXUC03XYBN4EXABZUW4U7I2","A24IWWIUPASCQJ","3AQN9REUTF20OMGWRXYK787Q1B1YD0","","","<img src=""img/flower5.png"" style=""width:200px; border:14px solid green;"">","null","","","","","","","","",""
"155","","image-keyboard-response","109","177334","0.0-109.0","3CFJTT4SXUC03XYBN4EXABZUW4U7I2","A24IWWIUPASCQJ","3AQN9REUTF20OMGWRXYK787Q1B1YD0","","","img/flower6.png","74","156","1","1","3","","","","",""
"null","","html-keyboard-response","110","177664","0.0-110.0","3CFJTT4SXUC03XYBN4EXABZUW4U7I2","A24IWWIUPASCQJ","3AQN9REUTF20OMGWRXYK787Q1B1YD0","","","<img src=""img/flower6.png"" style=""width:200px; border:14px solid green;"">","null","","","","","","","","",""
"482","","image-keyboard-response","111","178146","0.0-111.0","3CFJTT4SXUC03XYBN4EXABZUW4U7I2","A24IWWIUPASCQJ","3AQN9REUTF20OMGWRXYK787Q1B1YD0","","","img/flower6.png","74","482","1","1","3","","","","",""
"null","","html-keyboard-response","112","178459","0.0-112.0","3CFJTT4SXUC03XYBN4EXABZUW4U7I2","A24IWWIUPASCQJ","3AQN9REUTF20OMGWRXYK787Q1B1YD0","","","<img src=""img/flower6.png"" style=""width:200px; border:14px solid green;"">","null","","","","","","","","",""
"55","","image-keyboard-response","113","178516","0.0-113.0","3CFJTT4SXUC03XYBN4EXABZUW4U7I2","A24IWWIUPASCQJ","3AQN9REUTF20OMGWRXYK787Q1B1YD0","","","img/flower4.png","76","57","3","0","1","","","","",""
"null","","html-keyboard-response","114","178818","0.0-114.0","3CFJTT4SXUC03XYBN4EXABZUW4U7I2","A24IWWIUPASCQJ","3AQN9REUTF20OMGWRXYK787Q1B1YD0","","","<img src=""img/flower4.png"" style=""width:200px;border:14px solid red;"">","null","","","","","","","","",""
"298","","image-keyboard-response","115","179116","0.0-115.0","3CFJTT4SXUC03XYBN4EXABZUW4U7I2","A24IWWIUPASCQJ","3AQN9REUTF20OMGWRXYK787Q1B1YD0","","","img/flower4.png","75","298","2","1","1","","","","",""
"null","","html-keyboard-response","116","179435","0.0-116.0","3CFJTT4SXUC03XYBN4EXABZUW4U7I2","A24IWWIUPASCQJ","3AQN9REUTF20OMGWRXYK787Q1B1YD0","","","<img src=""img/flower4.png"" style=""width:200px; border:14px solid green;"">","null","","","","","","","","",""
"258","","image-keyboard-response","117","179694","0.0-117.0","3CFJTT4SXUC03XYBN4EXABZUW4U7I2","A24IWWIUPASCQJ","3AQN9REUTF20OMGWRXYK787Q1B1YD0","","","img/flower5.png","74","259","1","0","2","","","","",""
"null","","html-keyboard-response","118","180021","0.0-118.0","3CFJTT4SXUC03XYBN4EXABZUW4U7I2","A24IWWIUPASCQJ","3AQN9REUTF20OMGWRXYK787Q1B1YD0","","","<img src=""img/flower5.png"" style=""width:200px;border:14px solid red;"">","null","","","","","","","","",""
"328","","image-keyboard-response","119","180349","0.0-119.0","3CFJTT4SXUC03XYBN4EXABZUW4U7I2","A24IWWIUPASCQJ","3AQN9REUTF20OMGWRXYK787Q1B1YD0","","","img/flower6.png","76","328","3","0","3","","","","",""
"null","","html-keyboard-response","120","180653","0.0-120.0","3CFJTT4SXUC03XYBN4EXABZUW4U7I2","A24IWWIUPASCQJ","3AQN9REUTF20OMGWRXYK787Q1B1YD0","","","<img src=""img/flower6.png"" style=""width:200px;border:14px solid red;"">","null","","","","","","","","",""
"1681","","image-keyboard-response","121","182334","0.0-121.0","3CFJTT4SXUC03XYBN4EXABZUW4U7I2","A24IWWIUPASCQJ","3AQN9REUTF20OMGWRXYK787Q1B1YD0","","","img/flower4.png","74","1681","1","0","1","","","","",""
"null","","html-keyboard-response","122","182634","0.0-122.0","3CFJTT4SXUC03XYBN4EXABZUW4U7I2","A24IWWIUPASCQJ","3AQN9REUTF20OMGWRXYK787Q1B1YD0","","","<img src=""img/flower4.png"" style=""width:200px;border:14px solid red;"">","null","","","","","","","","",""
"243","","image-keyboard-response","123","182880","0.0-123.0","3CFJTT4SXUC03XYBN4EXABZUW4U7I2","A24IWWIUPASCQJ","3AQN9REUTF20OMGWRXYK787Q1B1YD0","","","img/flower5.png","76","245","3","1","2","","","","",""
"null","","html-keyboard-response","124","183193","0.0-124.0","3CFJTT4SXUC03XYBN4EXABZUW4U7I2","A24IWWIUPASCQJ","3AQN9REUTF20OMGWRXYK787Q1B1YD0","","","<img src=""img/flower5.png"" style=""width:200px; border:14px solid green;"">","null","","","","","","","","",""
"2664","","instructions","125","185857","0.0-125.0","3CFJTT4SXUC03XYBN4EXABZUW4U7I2","A24IWWIUPASCQJ","3AQN9REUTF20OMGWRXYK787Q1B1YD0","","[{""page_index"":0,""viewing_time"":2662}]","","","","","","","","","","",""
"1381","","image-keyboard-response","126","187240","0.0-126.0","3CFJTT4SXUC03XYBN4EXABZUW4U7I2","A24IWWIUPASCQJ","3AQN9REUTF20OMGWRXYK787Q1B1YD0","","","img/flower3.png","74","1382","1","0","3","2","1,0,0,1,1,0,1,0,1","0,0,1,1,0,1,0,1,1","2",""
"null","","html-keyboard-response","127","187554","0.0-127.0","3CFJTT4SXUC03XYBN4EXABZUW4U7I2","A24IWWIUPASCQJ","3AQN9REUTF20OMGWRXYK787Q1B1YD0","","","<img src=""img/flower3.png"" style=""width:200px;border:14px solid red;"">","null","","","","","","","","",""
"482","","image-keyboard-response","128","188037","0.0-128.0","3CFJTT4SXUC03XYBN4EXABZUW4U7I2","A24IWWIUPASCQJ","3AQN9REUTF20OMGWRXYK787Q1B1YD0","","","img/flower3.png","75","483","2","1","3","2","1,0,0,1,1,0,1,0,1","0,0,1,1,0,1,0,1,1","2",""
"null","","html-keyboard-response","129","188350","0.0-129.0","3CFJTT4SXUC03XYBN4EXABZUW4U7I2","A24IWWIUPASCQJ","3AQN9REUTF20OMGWRXYK787Q1B1YD0","","","<img src=""img/flower3.png"" style=""width:200px; border:14px solid green;"">","null","","","","","","","","",""
"529","","image-keyboard-response","130","188880","0.0-130.0","3CFJTT4SXUC03XYBN4EXABZUW4U7I2","A24IWWIUPASCQJ","3AQN9REUTF20OMGWRXYK787Q1B1YD0","","","img/flower2.png","75","530","2","0","1","2","1,0,0,1,1,0,1,0,1","0,0,1,1,0,1,0,1,1","2",""
"null","","html-keyboard-response","131","189194","0.0-131.0","3CFJTT4SXUC03XYBN4EXABZUW4U7I2","A24IWWIUPASCQJ","3AQN9REUTF20OMGWRXYK787Q1B1YD0","","","<img src=""img/flower2.png"" style=""width:200px;border:14px solid red;"">","null","","","","","","","","",""
"717","","image-keyboard-response","132","189929","0.0-132.0","3CFJTT4SXUC03XYBN4EXABZUW4U7I2","A24IWWIUPASCQJ","3AQN9REUTF20OMGWRXYK787Q1B1YD0","","","img/flower2.png","76","736","3","1","1","2","1,0,0,1,1,0,1,0,1","0,0,1,1,0,1,0,1,1","2",""
"null","","html-keyboard-response","133","190256","0.0-133.0","3CFJTT4SXUC03XYBN4EXABZUW4U7I2","A24IWWIUPASCQJ","3AQN9REUTF20OMGWRXYK787Q1B1YD0","","","<img src=""img/flower2.png"" style=""width:200px; border:14px solid green;"">","null","","","","","","","","",""
"795","","image-keyboard-response","134","191052","0.0-134.0","3CFJTT4SXUC03XYBN4EXABZUW4U7I2","A24IWWIUPASCQJ","3AQN9REUTF20OMGWRXYK787Q1B1YD0","","","img/flower2.png","74","796","1","0","1","2","1,0,0,1,1,0,1,0,1","0,0,1,1,0,1,0,1,1","2",""
"null","","html-keyboard-response","135","191366","0.0-135.0","3CFJTT4SXUC03XYBN4EXABZUW4U7I2","A24IWWIUPASCQJ","3AQN9REUTF20OMGWRXYK787Q1B1YD0","","","<img src=""img/flower2.png"" style=""width:200px;border:14px solid red;"">","null","","","","","","","","",""
"404","","image-keyboard-response","136","191771","0.0-136.0","3CFJTT4SXUC03XYBN4EXABZUW4U7I2","A24IWWIUPASCQJ","3AQN9REUTF20OMGWRXYK787Q1B1YD0","","","img/flower1.png","75","405","2","0","2","2","1,0,0,1,1,0,1,0,1","0,0,1,1,0,1,0,1,1","2",""
"null","","html-keyboard-response","137","192099","0.0-137.0","3CFJTT4SXUC03XYBN4EXABZUW4U7I2","A24IWWIUPASCQJ","3AQN9REUTF20OMGWRXYK787Q1B1YD0","","","<img src=""img/flower1.png"" style=""width:200px;border:14px solid red;"">","null","","","","","","","","",""
"527","","image-keyboard-response","138","192629","0.0-138.0","3CFJTT4SXUC03XYBN4EXABZUW4U7I2","A24IWWIUPASCQJ","3AQN9REUTF20OMGWRXYK787Q1B1YD0","","","img/flower1.png","76","529","3","1","2","2","1,0,0,1,1,0,1,0,1","0,0,1,1,0,1,0,1,1","2",""
"null","","html-keyboard-response","139","192945","0.0-139.0","3CFJTT4SXUC03XYBN4EXABZUW4U7I2","A24IWWIUPASCQJ","3AQN9REUTF20OMGWRXYK787Q1B1YD0","","","<img src=""img/flower1.png"" style=""width:200px; border:14px solid green;"">","null","","","","","","","","",""
"232","","image-keyboard-response","140","193178","0.0-140.0","3CFJTT4SXUC03XYBN4EXABZUW4U7I2","A24IWWIUPASCQJ","3AQN9REUTF20OMGWRXYK787Q1B1YD0","","","img/flower2.png","74","233","1","0","1","2","1,0,0,1,1,0,1,0,1","0,0,1,1,0,1,0,1,1","2",""
"null","","html-keyboard-response","141","193492","0.0-141.0","3CFJTT4SXUC03XYBN4EXABZUW4U7I2","A24IWWIUPASCQJ","3AQN9REUTF20OMGWRXYK787Q1B1YD0","","","<img src=""img/flower2.png"" style=""width:200px;border:14px solid red;"">","null","","","","","","","","",""
"4","","image-keyboard-response","142","193496","0.0-142.0","3CFJTT4SXUC03XYBN4EXABZUW4U7I2","A24IWWIUPASCQJ","3AQN9REUTF20OMGWRXYK787Q1B1YD0","","","img/flower1.png","75","4","2","0","2","2","1,0,0,1,1,0,1,0,1","0,0,1,1,0,1,0,1,1","2",""
"null","","html-keyboard-response","143","193819","0.0-143.0","3CFJTT4SXUC03XYBN4EXABZUW4U7I2","A24IWWIUPASCQJ","3AQN9REUTF20OMGWRXYK787Q1B1YD0","","","<img src=""img/flower1.png"" style=""width:200px;border:14px solid red;"">","null","","","","","","","","",""
"0","","image-keyboard-response","144","193819","0.0-144.0","3CFJTT4SXUC03XYBN4EXABZUW4U7I2","A24IWWIUPASCQJ","3AQN9REUTF20OMGWRXYK787Q1B1YD0","","","img/flower3.png","76","0","3","1","3","2","1,0,0,1,1,0,1,0,1","0,0,1,1,0,1,0,1,1","2",""
"null","","html-keyboard-response","145","194131","0.0-145.0","3CFJTT4SXUC03XYBN4EXABZUW4U7I2","A24IWWIUPASCQJ","3AQN9REUTF20OMGWRXYK787Q1B1YD0","","","<img src=""img/flower3.png"" style=""width:200px; border:14px solid green;"">","null","","","","","","","","",""
"36","","image-keyboard-response","146","194167","0.0-146.0","3CFJTT4SXUC03XYBN4EXABZUW4U7I2","A24IWWIUPASCQJ","3AQN9REUTF20OMGWRXYK787Q1B1YD0","","","img/flower1.png","74","36","1","1","2","2","1,0,0,1,1,0,1,0,1","0,0,1,1,0,1,0,1,1","2",""
"null","","html-keyboard-response","147","194474","0.0-147.0","3CFJTT4SXUC03XYBN4EXABZUW4U7I2","A24IWWIUPASCQJ","3AQN9REUTF20OMGWRXYK787Q1B1YD0","","","<img src=""img/flower1.png"" style=""width:200px; border:14px solid green;"">","null","","","","","","","","",""
"240","","image-keyboard-response","148","194714","0.0-148.0","3CFJTT4SXUC03XYBN4EXABZUW4U7I2","A24IWWIUPASCQJ","3AQN9REUTF20OMGWRXYK787Q1B1YD0","","","img/flower1.png","76","241","3","1","2","2","1,0,0,1,1,0,1,0,1","0,0,1,1,0,1,0,1,1","2",""
"null","","html-keyboard-response","149","195023","0.0-149.0","3CFJTT4SXUC03XYBN4EXABZUW4U7I2","A24IWWIUPASCQJ","3AQN9REUTF20OMGWRXYK787Q1B1YD0","","","<img src=""img/flower1.png"" style=""width:200px; border:14px solid green;"">","null","","","","","","","","",""
"50","","image-keyboard-response","150","195074","0.0-150.0","3CFJTT4SXUC03XYBN4EXABZUW4U7I2","A24IWWIUPASCQJ","3AQN9REUTF20OMGWRXYK787Q1B1YD0","","","img/flower3.png","74","51","1","0","3","2","1,0,0,1,1,0,1,0,1","0,0,1,1,0,1,0,1,1","2",""
"null","","html-keyboard-response","151","195397","0.0-151.0","3CFJTT4SXUC03XYBN4EXABZUW4U7I2","A24IWWIUPASCQJ","3AQN9REUTF20OMGWRXYK787Q1B1YD0","","","<img src=""img/flower3.png"" style=""width:200px;border:14px solid red;"">","null","","","","","","","","",""
"389","","image-keyboard-response","152","195787","0.0-152.0","3CFJTT4SXUC03XYBN4EXABZUW4U7I2","A24IWWIUPASCQJ","3AQN9REUTF20OMGWRXYK787Q1B1YD0","","","img/flower2.png","75","390","2","0","1","2","1,0,0,1,1,0,1,0,1","0,0,1,1,0,1,0,1,1","2",""
"null","","html-keyboard-response","153","196204","0.0-153.0","3CFJTT4SXUC03XYBN4EXABZUW4U7I2","A24IWWIUPASCQJ","3AQN9REUTF20OMGWRXYK787Q1B1YD0","","","<img src=""img/flower2.png"" style=""width:200px;border:14px solid red;"">","null","","","","","","","","",""
"289","","image-keyboard-response","154","196494","0.0-154.0","3CFJTT4SXUC03XYBN4EXABZUW4U7I2","A24IWWIUPASCQJ","3AQN9REUTF20OMGWRXYK787Q1B1YD0","","","img/flower1.png","76","289","3","1","2","2","1,0,0,1,1,0,1,0,1","0,0,1,1,0,1,0,1,1","2",""
"null","","html-keyboard-response","155","196802","0.0-155.0","3CFJTT4SXUC03XYBN4EXABZUW4U7I2","A24IWWIUPASCQJ","3AQN9REUTF20OMGWRXYK787Q1B1YD0","","","<img src=""img/flower1.png"" style=""width:200px; border:14px solid green;"">","null","","","","","","","","",""
"328","","image-keyboard-response","156","197146","0.0-156.0","3CFJTT4SXUC03XYBN4EXABZUW4U7I2","A24IWWIUPASCQJ","3AQN9REUTF20OMGWRXYK787Q1B1YD0","","","img/flower1.png","75","344","2","0","2","2","1,0,0,1,1,0,1,0,1","0,0,1,1,0,1,0,1,1","2",""
"null","","html-keyboard-response","157","197474","0.0-157.0","3CFJTT4SXUC03XYBN4EXABZUW4U7I2","A24IWWIUPASCQJ","3AQN9REUTF20OMGWRXYK787Q1B1YD0","","","<img src=""img/flower1.png"" style=""width:200px;border:14px solid red;"">","null","","","","","","","","",""
"483","","image-keyboard-response","158","197968","0.0-158.0","3CFJTT4SXUC03XYBN4EXABZUW4U7I2","A24IWWIUPASCQJ","3AQN9REUTF20OMGWRXYK787Q1B1YD0","","","img/flower3.png","74","492","1","0","3","2","1,0,0,1,1,0,1,0,1","0,0,1,1,0,1,0,1,1","2",""
"null","","html-keyboard-response","159","198273","0.0-159.0","3CFJTT4SXUC03XYBN4EXABZUW4U7I2","A24IWWIUPASCQJ","3AQN9REUTF20OMGWRXYK787Q1B1YD0","","","<img src=""img/flower3.png"" style=""width:200px;border:14px solid red;"">","null","","","","","","","","",""
"499","","image-keyboard-response","160","198774","0.0-160.0","3CFJTT4SXUC03XYBN4EXABZUW4U7I2","A24IWWIUPASCQJ","3AQN9REUTF20OMGWRXYK787Q1B1YD0","","","img/flower2.png","75","501","2","0","1","2","1,0,0,1,1,0,1,0,1","0,0,1,1,0,1,0,1,1","2",""
"null","","html-keyboard-response","161","199085","0.0-161.0","3CFJTT4SXUC03XYBN4EXABZUW4U7I2","A24IWWIUPASCQJ","3AQN9REUTF20OMGWRXYK787Q1B1YD0","","","<img src=""img/flower2.png"" style=""width:200px;border:14px solid red;"">","null","","","","","","","","",""
"736","","image-keyboard-response","162","199821","0.0-162.0","3CFJTT4SXUC03XYBN4EXABZUW4U7I2","A24IWWIUPASCQJ","3AQN9REUTF20OMGWRXYK787Q1B1YD0","","","img/flower2.png","74","736","1","0","1","2","1,0,0,1,1,0,1,0,1","0,0,1,1,0,1,0,1,1","2",""
"null","","html-keyboard-response","163","200131","0.0-163.0","3CFJTT4SXUC03XYBN4EXABZUW4U7I2","A24IWWIUPASCQJ","3AQN9REUTF20OMGWRXYK787Q1B1YD0","","","<img src=""img/flower2.png"" style=""width:200px;border:14px solid red;"">","null","","","","","","","","",""
"294","","image-keyboard-response","164","200427","0.0-164.0","3CFJTT4SXUC03XYBN4EXABZUW4U7I2","A24IWWIUPASCQJ","3AQN9REUTF20OMGWRXYK787Q1B1YD0","","","img/flower1.png","75","296","2","0","2","2","1,0,0,1,1,0,1,0,1","0,0,1,1,0,1,0,1,1","2",""
"null","","html-keyboard-response","165","200742","0.0-165.0","3CFJTT4SXUC03XYBN4EXABZUW4U7I2","A24IWWIUPASCQJ","3AQN9REUTF20OMGWRXYK787Q1B1YD0","","","<img src=""img/flower1.png"" style=""width:200px;border:14px solid red;"">","null","","","","","","","","",""
"512","","image-keyboard-response","166","201255","0.0-166.0","3CFJTT4SXUC03XYBN4EXABZUW4U7I2","A24IWWIUPASCQJ","3AQN9REUTF20OMGWRXYK787Q1B1YD0","","","img/flower1.png","74","527","1","1","2","2","1,0,0,1,1,0,1,0,1","0,0,1,1,0,1,0,1,1","2",""
"null","","html-keyboard-response","167","201585","0.0-167.0","3CFJTT4SXUC03XYBN4EXABZUW4U7I2","A24IWWIUPASCQJ","3AQN9REUTF20OMGWRXYK787Q1B1YD0","","","<img src=""img/flower1.png"" style=""width:200px; border:14px solid green;"">","null","","","","","","","","",""
"139","","image-keyboard-response","168","201724","0.0-168.0","3CFJTT4SXUC03XYBN4EXABZUW4U7I2","A24IWWIUPASCQJ","3AQN9REUTF20OMGWRXYK787Q1B1YD0","","","img/flower3.png","75","139","2","1","3","2","1,0,0,1,1,0,1,0,1","0,0,1,1,0,1,0,1,1","2",""
"null","","html-keyboard-response","169","202099","0.0-169.0","3CFJTT4SXUC03XYBN4EXABZUW4U7I2","A24IWWIUPASCQJ","3AQN9REUTF20OMGWRXYK787Q1B1YD0","","","<img src=""img/flower3.png"" style=""width:200px; border:14px solid green;"">","null","","","","","","","","",""
"172","","image-keyboard-response","170","202271","0.0-170.0","3CFJTT4SXUC03XYBN4EXABZUW4U7I2","A24IWWIUPASCQJ","3AQN9REUTF20OMGWRXYK787Q1B1YD0","","","img/flower2.png","76","173","3","1","1","2","1,0,0,1,1,0,1,0,1","0,0,1,1,0,1,0,1,1","2",""
"null","","html-keyboard-response","171","202585","0.0-171.0","3CFJTT4SXUC03XYBN4EXABZUW4U7I2","A24IWWIUPASCQJ","3AQN9REUTF20OMGWRXYK787Q1B1YD0","","","<img src=""img/flower2.png"" style=""width:200px; border:14px solid green;"">","null","","","","","","","","",""
"26","","image-keyboard-response","172","202611","0.0-172.0","3CFJTT4SXUC03XYBN4EXABZUW4U7I2","A24IWWIUPASCQJ","3AQN9REUTF20OMGWRXYK787Q1B1YD0","","","img/flower3.png","74","26","1","0","3","2","1,0,0,1,1,0,1,0,1","0,0,1,1,0,1,0,1,1","2",""
"null","","html-keyboard-response","173","202928","0.0-173.0","3CFJTT4SXUC03XYBN4EXABZUW4U7I2","A24IWWIUPASCQJ","3AQN9REUTF20OMGWRXYK787Q1B1YD0","","","<img src=""img/flower3.png"" style=""width:200px;border:14px solid red;"">","null","","","","","","","","",""
"75","","image-keyboard-response","174","203004","0.0-174.0","3CFJTT4SXUC03XYBN4EXABZUW4U7I2","A24IWWIUPASCQJ","3AQN9REUTF20OMGWRXYK787Q1B1YD0","","","img/flower2.png","75","76","2","0","1","2","1,0,0,1,1,0,1,0,1","0,0,1,1,0,1,0,1,1","2",""
"null","","html-keyboard-response","175","203319","0.0-175.0","3CFJTT4SXUC03XYBN4EXABZUW4U7I2","A24IWWIUPASCQJ","3AQN9REUTF20OMGWRXYK787Q1B1YD0","","","<img src=""img/flower2.png"" style=""width:200px;border:14px solid red;"">","null","","","","","","","","",""
"83","","image-keyboard-response","176","203403","0.0-176.0","3CFJTT4SXUC03XYBN4EXABZUW4U7I2","A24IWWIUPASCQJ","3AQN9REUTF20OMGWRXYK787Q1B1YD0","","","img/flower2.png","76","84","3","1","1","2","1,0,0,1,1,0,1,0,1","0,0,1,1,0,1,0,1,1","2",""
"null","","html-keyboard-response","177","203728","0.0-177.0","3CFJTT4SXUC03XYBN4EXABZUW4U7I2","A24IWWIUPASCQJ","3AQN9REUTF20OMGWRXYK787Q1B1YD0","","","<img src=""img/flower2.png"" style=""width:200px; border:14px solid green;"">","null","","","","","","","","",""
"262","","image-keyboard-response","178","204010","0.0-178.0","3CFJTT4SXUC03XYBN4EXABZUW4U7I2","A24IWWIUPASCQJ","3AQN9REUTF20OMGWRXYK787Q1B1YD0","","","img/flower3.png","76","282","3","1","3","2","1,0,0,1,1,0,1,0,1","0,0,1,1,0,1,0,1,1","2",""
"null","","html-keyboard-response","179","204318","0.0-179.0","3CFJTT4SXUC03XYBN4EXABZUW4U7I2","A24IWWIUPASCQJ","3AQN9REUTF20OMGWRXYK787Q1B1YD0","","","<img src=""img/flower3.png"" style=""width:200px; border:14px solid green;"">","null","","","","","","","","",""
"434","","image-keyboard-response","180","204755","0.0-180.0","3CFJTT4SXUC03XYBN4EXABZUW4U7I2","A24IWWIUPASCQJ","3AQN9REUTF20OMGWRXYK787Q1B1YD0","","","img/flower1.png","75","436","2","0","2","2","1,0,0,1,1,0,1,0,1","0,0,1,1,0,1,0,1,1","2",""
"null","","html-keyboard-response","181","205069","0.0-181.0","3CFJTT4SXUC03XYBN4EXABZUW4U7I2","A24IWWIUPASCQJ","3AQN9REUTF20OMGWRXYK787Q1B1YD0","","","<img src=""img/flower1.png"" style=""width:200px;border:14px solid red;"">","null","","","","","","","","",""
"857","","image-keyboard-response","182","205928","0.0-182.0","3CFJTT4SXUC03XYBN4EXABZUW4U7I2","A24IWWIUPASCQJ","3AQN9REUTF20OMGWRXYK787Q1B1YD0","","","img/flower2.png","76","859","3","1","1","2","1,0,0,1,1,0,1,0,1","0,0,1,1,0,1,0,1,1","2",""
"null","","html-keyboard-response","183","206241","0.0-183.0","3CFJTT4SXUC03XYBN4EXABZUW4U7I2","A24IWWIUPASCQJ","3AQN9REUTF20OMGWRXYK787Q1B1YD0","","","<img src=""img/flower2.png"" style=""width:200px; border:14px solid green;"">","null","","","","","","","","",""
"592","","image-keyboard-response","184","206834","0.0-184.0","3CFJTT4SXUC03XYBN4EXABZUW4U7I2","A24IWWIUPASCQJ","3AQN9REUTF20OMGWRXYK787Q1B1YD0","","","img/flower2.png","74","593","1","0","1","2","1,0,0,1,1,0,1,0,1","0,0,1,1,0,1,0,1,1","2",""
"null","","html-keyboard-response","185","207174","0.0-185.0","3CFJTT4SXUC03XYBN4EXABZUW4U7I2","A24IWWIUPASCQJ","3AQN9REUTF20OMGWRXYK787Q1B1YD0","","","<img src=""img/flower2.png"" style=""width:200px;border:14px solid red;"">","null","","","","","","","","",""
"238","","image-keyboard-response","186","207412","0.0-186.0","3CFJTT4SXUC03XYBN4EXABZUW4U7I2","A24IWWIUPASCQJ","3AQN9REUTF20OMGWRXYK787Q1B1YD0","","","img/flower3.png","74","238","1","0","3","2","1,0,0,1,1,0,1,0,1","0,0,1,1,0,1,0,1,1","2",""
"null","","html-keyboard-response","187","207725","0.0-187.0","3CFJTT4SXUC03XYBN4EXABZUW4U7I2","A24IWWIUPASCQJ","3AQN9REUTF20OMGWRXYK787Q1B1YD0","","","<img src=""img/flower3.png"" style=""width:200px;border:14px solid red;"">","null","","","","","","","","",""
"217","","image-keyboard-response","188","207946","0.0-188.0","3CFJTT4SXUC03XYBN4EXABZUW4U7I2","A24IWWIUPASCQJ","3AQN9REUTF20OMGWRXYK787Q1B1YD0","","","img/flower3.png","75","217","2","1","3","2","1,0,0,1,1,0,1,0,1","0,0,1,1,0,1,0,1,1","2",""
"null","","html-keyboard-response","189","208256","0.0-189.0","3CFJTT4SXUC03XYBN4EXABZUW4U7I2","A24IWWIUPASCQJ","3AQN9REUTF20OMGWRXYK787Q1B1YD0","","","<img src=""img/flower3.png"" style=""width:200px; border:14px solid green;"">","null","","","","","","","","",""
"294","","image-keyboard-response","190","208552","0.0-190.0","3CFJTT4SXUC03XYBN4EXABZUW4U7I2","A24IWWIUPASCQJ","3AQN9REUTF20OMGWRXYK787Q1B1YD0","","","img/flower1.png","75","296","2","0","2","2","1,0,0,1,1,0,1,0,1","0,0,1,1,0,1,0,1,1","2",""
"null","","html-keyboard-response","191","208865","0.0-191.0","3CFJTT4SXUC03XYBN4EXABZUW4U7I2","A24IWWIUPASCQJ","3AQN9REUTF20OMGWRXYK787Q1B1YD0","","","<img src=""img/flower1.png"" style=""width:200px;border:14px solid red;"">","null","","","","","","","","",""
"295","","image-keyboard-response","192","209162","0.0-192.0","3CFJTT4SXUC03XYBN4EXABZUW4U7I2","A24IWWIUPASCQJ","3AQN9REUTF20OMGWRXYK787Q1B1YD0","","","img/flower2.png","75","296","2","0","1","2","1,0,0,1,1,0,1,0,1","0,0,1,1,0,1,0,1,1","2",""
"null","","html-keyboard-response","193","209475","0.0-193.0","3CFJTT4SXUC03XYBN4EXABZUW4U7I2","A24IWWIUPASCQJ","3AQN9REUTF20OMGWRXYK787Q1B1YD0","","","<img src=""img/flower2.png"" style=""width:200px;border:14px solid red;"">","null","","","","","","","","",""
"295","","image-keyboard-response","194","209772","0.0-194.0","3CFJTT4SXUC03XYBN4EXABZUW4U7I2","A24IWWIUPASCQJ","3AQN9REUTF20OMGWRXYK787Q1B1YD0","","","img/flower1.png","75","297","2","0","2","2","1,0,0,1,1,0,1,0,1","0,0,1,1,0,1,0,1,1","2",""
"null","","html-keyboard-response","195","210085","0.0-195.0","3CFJTT4SXUC03XYBN4EXABZUW4U7I2","A24IWWIUPASCQJ","3AQN9REUTF20OMGWRXYK787Q1B1YD0","","","<img src=""img/flower1.png"" style=""width:200px;border:14px solid red;"">","null","","","","","","","","",""
"287","","image-keyboard-response","196","210372","0.0-196.0","3CFJTT4SXUC03XYBN4EXABZUW4U7I2","A24IWWIUPASCQJ","3AQN9REUTF20OMGWRXYK787Q1B1YD0","","","img/flower3.png","74","287","1","0","3","2","1,0,0,1,1,0,1,0,1","0,0,1,1,0,1,0,1,1","2",""
"null","","html-keyboard-response","197","210678","0.0-197.0","3CFJTT4SXUC03XYBN4EXABZUW4U7I2","A24IWWIUPASCQJ","3AQN9REUTF20OMGWRXYK787Q1B1YD0","","","<img src=""img/flower3.png"" style=""width:200px;border:14px solid red;"">","null","","","","","","","","",""
"285","","image-keyboard-response","198","210975","0.0-198.0","3CFJTT4SXUC03XYBN4EXABZUW4U7I2","A24IWWIUPASCQJ","3AQN9REUTF20OMGWRXYK787Q1B1YD0","","","img/flower3.png","75","297","2","1","3","2","1,0,0,1,1,0,1,0,1","0,0,1,1,0,1,0,1,1","2",""
"null","","html-keyboard-response","199","211287","0.0-199.0","3CFJTT4SXUC03XYBN4EXABZUW4U7I2","A24IWWIUPASCQJ","3AQN9REUTF20OMGWRXYK787Q1B1YD0","","","<img src=""img/flower3.png"" style=""width:200px; border:14px solid green;"">","null","","","","","","","","",""
"355","","image-keyboard-response","200","211642","0.0-200.0","3CFJTT4SXUC03XYBN4EXABZUW4U7I2","A24IWWIUPASCQJ","3AQN9REUTF20OMGWRXYK787Q1B1YD0","","","img/flower3.png","75","355","2","1","3","2","1,0,0,1,1,0,1,0,1","0,0,1,1,0,1,0,1,1","2",""
"null","","html-keyboard-response","201","211959","0.0-201.0","3CFJTT4SXUC03XYBN4EXABZUW4U7I2","A24IWWIUPASCQJ","3AQN9REUTF20OMGWRXYK787Q1B1YD0","","","<img src=""img/flower3.png"" style=""width:200px; border:14px solid green;"">","null","","","","","","","","",""
"95","","image-keyboard-response","202","212054","0.0-202.0","3CFJTT4SXUC03XYBN4EXABZUW4U7I2","A24IWWIUPASCQJ","3AQN9REUTF20OMGWRXYK787Q1B1YD0","","","img/flower1.png","76","109","3","1","2","2","1,0,0,1,1,0,1,0,1","0,0,1,1,0,1,0,1,1","2",""
"null","","html-keyboard-response","203","212382","0.0-203.0","3CFJTT4SXUC03XYBN4EXABZUW4U7I2","A24IWWIUPASCQJ","3AQN9REUTF20OMGWRXYK787Q1B1YD0","","","<img src=""img/flower1.png"" style=""width:200px; border:14px solid green;"">","null","","","","","","","","",""
"138","","image-keyboard-response","204","212537","0.0-204.0","3CFJTT4SXUC03XYBN4EXABZUW4U7I2","A24IWWIUPASCQJ","3AQN9REUTF20OMGWRXYK787Q1B1YD0","","","img/flower3.png","75","155","2","1","3","2","1,0,0,1,1,0,1,0,1","0,0,1,1,0,1,0,1,1","2",""
"null","","html-keyboard-response","205","212849","0.0-205.0","3CFJTT4SXUC03XYBN4EXABZUW4U7I2","A24IWWIUPASCQJ","3AQN9REUTF20OMGWRXYK787Q1B1YD0","","","<img src=""img/flower3.png"" style=""width:200px; border:14px solid green;"">","null","","","","","","","","",""
"110","","image-keyboard-response","206","212959","0.0-206.0","3CFJTT4SXUC03XYBN4EXABZUW4U7I2","A24IWWIUPASCQJ","3AQN9REUTF20OMGWRXYK787Q1B1YD0","","","img/flower2.png","74","110","1","0","1","2","1,0,0,1,1,0,1,0,1","0,0,1,1,0,1,0,1,1","2",""
"null","","html-keyboard-response","207","213275","0.0-207.0","3CFJTT4SXUC03XYBN4EXABZUW4U7I2","A24IWWIUPASCQJ","3AQN9REUTF20OMGWRXYK787Q1B1YD0","","","<img src=""img/flower2.png"" style=""width:200px;border:14px solid red;"">","null","","","","","","","","",""
"356","","image-keyboard-response","208","213631","0.0-208.0","3CFJTT4SXUC03XYBN4EXABZUW4U7I2","A24IWWIUPASCQJ","3AQN9REUTF20OMGWRXYK787Q1B1YD0","","","img/flower3.png","74","356","1","0","3","2","1,0,0,1,1,0,1,0,1","0,0,1,1,0,1,0,1,1","2",""
"null","","html-keyboard-response","209","213944","0.0-209.0","3CFJTT4SXUC03XYBN4EXABZUW4U7I2","A24IWWIUPASCQJ","3AQN9REUTF20OMGWRXYK787Q1B1YD0","","","<img src=""img/flower3.png"" style=""width:200px;border:14px solid red;"">","null","","","","","","","","",""
"35","","image-keyboard-response","210","213979","0.0-210.0","3CFJTT4SXUC03XYBN4EXABZUW4U7I2","A24IWWIUPASCQJ","3AQN9REUTF20OMGWRXYK787Q1B1YD0","","","img/flower2.png","75","35","2","0","1","2","1,0,0,1,1,0,1,0,1","0,0,1,1,0,1,0,1,1","2",""
"null","","html-keyboard-response","211","214290","0.0-211.0","3CFJTT4SXUC03XYBN4EXABZUW4U7I2","A24IWWIUPASCQJ","3AQN9REUTF20OMGWRXYK787Q1B1YD0","","","<img src=""img/flower2.png"" style=""width:200px;border:14px solid red;"">","null","","","","","","","","",""
"263","","image-keyboard-response","212","214553","0.0-212.0","3CFJTT4SXUC03XYBN4EXABZUW4U7I2","A24IWWIUPASCQJ","3AQN9REUTF20OMGWRXYK787Q1B1YD0","","","img/flower2.png","75","263","2","0","1","2","1,0,0,1,1,0,1,0,1","0,0,1,1,0,1,0,1,1","2",""
"null","","html-keyboard-response","213","214865","0.0-213.0","3CFJTT4SXUC03XYBN4EXABZUW4U7I2","A24IWWIUPASCQJ","3AQN9REUTF20OMGWRXYK787Q1B1YD0","","","<img src=""img/flower2.png"" style=""width:200px;border:14px solid red;"">","null","","","","","","","","",""
"152","","image-keyboard-response","214","215021","0.0-214.0","3CFJTT4SXUC03XYBN4EXABZUW4U7I2","A24IWWIUPASCQJ","3AQN9REUTF20OMGWRXYK787Q1B1YD0","","","img/flower3.png","76","163","3","1","3","2","1,0,0,1,1,0,1,0,1","0,0,1,1,0,1,0,1,1","2",""
"null","","html-keyboard-response","215","215333","0.0-215.0","3CFJTT4SXUC03XYBN4EXABZUW4U7I2","A24IWWIUPASCQJ","3AQN9REUTF20OMGWRXYK787Q1B1YD0","","","<img src=""img/flower3.png"" style=""width:200px; border:14px solid green;"">","null","","","","","","","","",""
"395","","image-keyboard-response","216","215728","0.0-216.0","3CFJTT4SXUC03XYBN4EXABZUW4U7I2","A24IWWIUPASCQJ","3AQN9REUTF20OMGWRXYK787Q1B1YD0","","","img/flower3.png","75","395","2","1","3","2","1,0,0,1,1,0,1,0,1","0,0,1,1,0,1,0,1,1","2",""
"null","","html-keyboard-response","217","216037","0.0-217.0","3CFJTT4SXUC03XYBN4EXABZUW4U7I2","A24IWWIUPASCQJ","3AQN9REUTF20OMGWRXYK787Q1B1YD0","","","<img src=""img/flower3.png"" style=""width:200px; border:14px solid green;"">","null","","","","","","","","",""
"232","","image-keyboard-response","218","216271","0.0-218.0","3CFJTT4SXUC03XYBN4EXABZUW4U7I2","A24IWWIUPASCQJ","3AQN9REUTF20OMGWRXYK787Q1B1YD0","","","img/flower2.png","75","234","2","0","1","2","1,0,0,1,1,0,1,0,1","0,0,1,1,0,1,0,1,1","2",""
"null","","html-keyboard-response","219","216584","0.0-219.0","3CFJTT4SXUC03XYBN4EXABZUW4U7I2","A24IWWIUPASCQJ","3AQN9REUTF20OMGWRXYK787Q1B1YD0","","","<img src=""img/flower2.png"" style=""width:200px;border:14px solid red;"">","null","","","","","","","","",""
"217","","image-keyboard-response","220","216802","0.0-220.0","3CFJTT4SXUC03XYBN4EXABZUW4U7I2","A24IWWIUPASCQJ","3AQN9REUTF20OMGWRXYK787Q1B1YD0","","","img/flower2.png","74","218","1","0","1","2","1,0,0,1,1,0,1,0,1","0,0,1,1,0,1,0,1,1","2",""
"null","","html-keyboard-response","221","217117","0.0-221.0","3CFJTT4SXUC03XYBN4EXABZUW4U7I2","A24IWWIUPASCQJ","3AQN9REUTF20OMGWRXYK787Q1B1YD0","","","<img src=""img/flower2.png"" style=""width:200px;border:14px solid red;"">","null","","","","","","","","",""
"200","","image-keyboard-response","222","217318","0.0-222.0","3CFJTT4SXUC03XYBN4EXABZUW4U7I2","A24IWWIUPASCQJ","3AQN9REUTF20OMGWRXYK787Q1B1YD0","","","img/flower2.png","75","201","2","0","1","2","1,0,0,1,1,0,1,0,1","0,0,1,1,0,1,0,1,1","2",""
"null","","html-keyboard-response","223","217631","0.0-223.0","3CFJTT4SXUC03XYBN4EXABZUW4U7I2","A24IWWIUPASCQJ","3AQN9REUTF20OMGWRXYK787Q1B1YD0","","","<img src=""img/flower2.png"" style=""width:200px;border:14px solid red;"">","null","","","","","","","","",""
"156","","image-keyboard-response","224","217787","0.0-224.0","3CFJTT4SXUC03XYBN4EXABZUW4U7I2","A24IWWIUPASCQJ","3AQN9REUTF20OMGWRXYK787Q1B1YD0","","","img/flower3.png","76","156","3","1","3","2","1,0,0,1,1,0,1,0,1","0,0,1,1,0,1,0,1,1","2",""
"null","","html-keyboard-response","225","218100","0.0-225.0","3CFJTT4SXUC03XYBN4EXABZUW4U7I2","A24IWWIUPASCQJ","3AQN9REUTF20OMGWRXYK787Q1B1YD0","","","<img src=""img/flower3.png"" style=""width:200px; border:14px solid green;"">","null","","","","","","","","",""
"294","","image-keyboard-response","226","218396","0.0-226.0","3CFJTT4SXUC03XYBN4EXABZUW4U7I2","A24IWWIUPASCQJ","3AQN9REUTF20OMGWRXYK787Q1B1YD0","","","img/flower3.png","75","296","2","1","3","2","1,0,0,1,1,0,1,0,1","0,0,1,1,0,1,0,1,1","2",""
"null","","html-keyboard-response","227","218702","0.0-227.0","3CFJTT4SXUC03XYBN4EXABZUW4U7I2","A24IWWIUPASCQJ","3AQN9REUTF20OMGWRXYK787Q1B1YD0","","","<img src=""img/flower3.png"" style=""width:200px; border:14px solid green;"">","null","","","","","","","","",""
"266","","image-keyboard-response","228","218968","0.0-228.0","3CFJTT4SXUC03XYBN4EXABZUW4U7I2","A24IWWIUPASCQJ","3AQN9REUTF20OMGWRXYK787Q1B1YD0","","","img/flower1.png","74","266","1","1","2","2","1,0,0,1,1,0,1,0,1","0,0,1,1,0,1,0,1,1","2",""
"null","","html-keyboard-response","229","219303","0.0-229.0","3CFJTT4SXUC03XYBN4EXABZUW4U7I2","A24IWWIUPASCQJ","3AQN9REUTF20OMGWRXYK787Q1B1YD0","","","<img src=""img/flower1.png"" style=""width:200px; border:14px solid green;"">","null","","","","","","","","",""
"26","","image-keyboard-response","230","219340","0.0-230.0","3CFJTT4SXUC03XYBN4EXABZUW4U7I2","A24IWWIUPASCQJ","3AQN9REUTF20OMGWRXYK787Q1B1YD0","","","img/flower1.png","75","37","2","0","2","2","1,0,0,1,1,0,1,0,1","0,0,1,1,0,1,0,1,1","2",""
"null","","html-keyboard-response","231","219673","0.0-231.0","3CFJTT4SXUC03XYBN4EXABZUW4U7I2","A24IWWIUPASCQJ","3AQN9REUTF20OMGWRXYK787Q1B1YD0","","","<img src=""img/flower1.png"" style=""width:200px;border:14px solid red;"">","null","","","","","","","","",""
"189","","image-keyboard-response","232","219865","0.0-232.0","3CFJTT4SXUC03XYBN4EXABZUW4U7I2","A24IWWIUPASCQJ","3AQN9REUTF20OMGWRXYK787Q1B1YD0","","","img/flower3.png","76","192","3","1","3","2","1,0,0,1,1,0,1,0,1","0,0,1,1,0,1,0,1,1","2",""
"null","","html-keyboard-response","233","220177","0.0-233.0","3CFJTT4SXUC03XYBN4EXABZUW4U7I2","A24IWWIUPASCQJ","3AQN9REUTF20OMGWRXYK787Q1B1YD0","","","<img src=""img/flower3.png"" style=""width:200px; border:14px solid green;"">","null","","","","","","","","",""
"342","","image-keyboard-response","234","220521","0.0-234.0","3CFJTT4SXUC03XYBN4EXABZUW4U7I2","A24IWWIUPASCQJ","3AQN9REUTF20OMGWRXYK787Q1B1YD0","","","img/flower1.png","75","342","2","0","2","2","1,0,0,1,1,0,1,0,1","0,0,1,1,0,1,0,1,1","2",""
"null","","html-keyboard-response","235","220834","0.0-235.0","3CFJTT4SXUC03XYBN4EXABZUW4U7I2","A24IWWIUPASCQJ","3AQN9REUTF20OMGWRXYK787Q1B1YD0","","","<img src=""img/flower1.png"" style=""width:200px;border:14px solid red;"">","null","","","","","","","","",""
"248","","image-keyboard-response","236","221084","0.0-236.0","3CFJTT4SXUC03XYBN4EXABZUW4U7I2","A24IWWIUPASCQJ","3AQN9REUTF20OMGWRXYK787Q1B1YD0","","","img/flower1.png","74","251","1","1","2","2","1,0,0,1,1,0,1,0,1","0,0,1,1,0,1,0,1,1","2",""
"null","","html-keyboard-response","237","221397","0.0-237.0","3CFJTT4SXUC03XYBN4EXABZUW4U7I2","A24IWWIUPASCQJ","3AQN9REUTF20OMGWRXYK787Q1B1YD0","","","<img src=""img/flower1.png"" style=""width:200px; border:14px solid green;"">","null","","","","","","","","",""
"248","","image-keyboard-response","238","221646","0.0-238.0","3CFJTT4SXUC03XYBN4EXABZUW4U7I2","A24IWWIUPASCQJ","3AQN9REUTF20OMGWRXYK787Q1B1YD0","","","img/flower1.png","75","249","2","0","2","2","1,0,0,1,1,0,1,0,1","0,0,1,1,0,1,0,1,1","2",""
"null","","html-keyboard-response","239","221974","0.0-239.0","3CFJTT4SXUC03XYBN4EXABZUW4U7I2","A24IWWIUPASCQJ","3AQN9REUTF20OMGWRXYK787Q1B1YD0","","","<img src=""img/flower1.png"" style=""width:200px;border:14px solid red;"">","null","","","","","","","","",""
"125","","image-keyboard-response","240","222101","0.0-240.0","3CFJTT4SXUC03XYBN4EXABZUW4U7I2","A24IWWIUPASCQJ","3AQN9REUTF20OMGWRXYK787Q1B1YD0","","","img/flower3.png","76","126","3","1","3","2","1,0,0,1,1,0,1,0,1","0,0,1,1,0,1,0,1,1","2",""
"null","","html-keyboard-response","241","222412","0.0-241.0","3CFJTT4SXUC03XYBN4EXABZUW4U7I2","A24IWWIUPASCQJ","3AQN9REUTF20OMGWRXYK787Q1B1YD0","","","<img src=""img/flower3.png"" style=""width:200px; border:14px solid green;"">","null","","","","","","","","",""
"206","","image-keyboard-response","242","222618","0.0-242.0","3CFJTT4SXUC03XYBN4EXABZUW4U7I2","A24IWWIUPASCQJ","3AQN9REUTF20OMGWRXYK787Q1B1YD0","","","img/flower1.png","75","206","2","0","2","2","1,0,0,1,1,0,1,0,1","0,0,1,1,0,1,0,1,1","2",""
"null","","html-keyboard-response","243","222944","0.0-243.0","3CFJTT4SXUC03XYBN4EXABZUW4U7I2","A24IWWIUPASCQJ","3AQN9REUTF20OMGWRXYK787Q1B1YD0","","","<img src=""img/flower1.png"" style=""width:200px;border:14px solid red;"">","null","","","","","","","","",""
"39","","image-keyboard-response","244","222986","0.0-244.0","3CFJTT4SXUC03XYBN4EXABZUW4U7I2","A24IWWIUPASCQJ","3AQN9REUTF20OMGWRXYK787Q1B1YD0","","","img/flower3.png","74","42","1","0","3","2","1,0,0,1,1,0,1,0,1","0,0,1,1,0,1,0,1,1","2",""
"null","","html-keyboard-response","245","223303","0.0-245.0","3CFJTT4SXUC03XYBN4EXABZUW4U7I2","A24IWWIUPASCQJ","3AQN9REUTF20OMGWRXYK787Q1B1YD0","","","<img src=""img/flower3.png"" style=""width:200px;border:14px solid red;"">","null","","","","","","","","",""
"53","","image-keyboard-response","246","223358","0.0-246.0","3CFJTT4SXUC03XYBN4EXABZUW4U7I2","A24IWWIUPASCQJ","3AQN9REUTF20OMGWRXYK787Q1B1YD0","","","img/flower2.png","75","55","2","0","1","2","1,0,0,1,1,0,1,0,1","0,0,1,1,0,1,0,1,1","2",""
"null","","html-keyboard-response","247","223662","0.0-247.0","3CFJTT4SXUC03XYBN4EXABZUW4U7I2","A24IWWIUPASCQJ","3AQN9REUTF20OMGWRXYK787Q1B1YD0","","","<img src=""img/flower2.png"" style=""width:200px;border:14px solid red;"">","null","","","","","","","","",""
"126","","image-keyboard-response","248","223788","0.0-248.0","3CFJTT4SXUC03XYBN4EXABZUW4U7I2","A24IWWIUPASCQJ","3AQN9REUTF20OMGWRXYK787Q1B1YD0","","","img/flower2.png","76","126","3","1","1","2","1,0,0,1,1,0,1,0,1","0,0,1,1,0,1,0,1,1","2",""
"null","","html-keyboard-response","249","224099","0.0-249.0","3CFJTT4SXUC03XYBN4EXABZUW4U7I2","A24IWWIUPASCQJ","3AQN9REUTF20OMGWRXYK787Q1B1YD0","","","<img src=""img/flower2.png"" style=""width:200px; border:14px solid green;"">","null","","","","","","","","",""
"154","","image-keyboard-response","250","224255","0.0-250.0","3CFJTT4SXUC03XYBN4EXABZUW4U7I2","A24IWWIUPASCQJ","3AQN9REUTF20OMGWRXYK787Q1B1YD0","","","img/flower3.png","75","155","2","1","3","2","1,0,0,1,1,0,1,0,1","0,0,1,1,0,1,0,1,1","2",""
"null","","html-keyboard-response","251","224568","0.0-251.0","3CFJTT4SXUC03XYBN4EXABZUW4U7I2","A24IWWIUPASCQJ","3AQN9REUTF20OMGWRXYK787Q1B1YD0","","","<img src=""img/flower3.png"" style=""width:200px; border:14px solid green;"">","null","","","","","","","","",""
"297","","image-keyboard-response","252","224865","0.0-252.0","3CFJTT4SXUC03XYBN4EXABZUW4U7I2","A24IWWIUPASCQJ","3AQN9REUTF20OMGWRXYK787Q1B1YD0","","","img/flower1.png","75","297","2","0","2","2","1,0,0,1,1,0,1,0,1","0,0,1,1,0,1,0,1,1","2",""
"null","","html-keyboard-response","253","225181","0.0-253.0","3CFJTT4SXUC03XYBN4EXABZUW4U7I2","A24IWWIUPASCQJ","3AQN9REUTF20OMGWRXYK787Q1B1YD0","","","<img src=""img/flower1.png"" style=""width:200px;border:14px solid red;"">","null","","","","","","","","",""
"277","","image-keyboard-response","254","225459","0.0-254.0","3CFJTT4SXUC03XYBN4EXABZUW4U7I2","A24IWWIUPASCQJ","3AQN9REUTF20OMGWRXYK787Q1B1YD0","","","img/flower3.png","76","278","3","1","3","2","1,0,0,1,1,0,1,0,1","0,0,1,1,0,1,0,1,1","2",""
"null","","html-keyboard-response","255","225787","0.0-255.0","3CFJTT4SXUC03XYBN4EXABZUW4U7I2","A24IWWIUPASCQJ","3AQN9REUTF20OMGWRXYK787Q1B1YD0","","","<img src=""img/flower3.png"" style=""width:200px; border:14px solid green;"">","null","","","","","","","","",""
"798","","image-keyboard-response","256","226585","0.0-256.0","3CFJTT4SXUC03XYBN4EXABZUW4U7I2","A24IWWIUPASCQJ","3AQN9REUTF20OMGWRXYK787Q1B1YD0","","","img/flower3.png","75","798","2","1","3","2","1,0,0,1,1,0,1,0,1","0,0,1,1,0,1,0,1,1","2",""
"null","","html-keyboard-response","257","226897","0.0-257.0","3CFJTT4SXUC03XYBN4EXABZUW4U7I2","A24IWWIUPASCQJ","3AQN9REUTF20OMGWRXYK787Q1B1YD0","","","<img src=""img/flower3.png"" style=""width:200px; border:14px solid green;"">","null","","","","","","","","",""
"685","","image-keyboard-response","258","227584","0.0-258.0","3CFJTT4SXUC03XYBN4EXABZUW4U7I2","A24IWWIUPASCQJ","3AQN9REUTF20OMGWRXYK787Q1B1YD0","","","img/flower3.png","75","686","2","1","3","2","1,0,0,1,1,0,1,0,1","0,0,1,1,0,1,0,1,1","2",""
"null","","html-keyboard-response","259","227927","0.0-259.0","3CFJTT4SXUC03XYBN4EXABZUW4U7I2","A24IWWIUPASCQJ","3AQN9REUTF20OMGWRXYK787Q1B1YD0","","","<img src=""img/flower3.png"" style=""width:200px; border:14px solid green;"">","null","","","","","","","","",""
"740","","image-keyboard-response","260","228669","0.0-260.0","3CFJTT4SXUC03XYBN4EXABZUW4U7I2","A24IWWIUPASCQJ","3AQN9REUTF20OMGWRXYK787Q1B1YD0","","","img/flower1.png","75","744","2","0","2","2","1,0,0,1,1,0,1,0,1","0,0,1,1,0,1,0,1,1","2",""
"null","","html-keyboard-response","261","228974","0.0-261.0","3CFJTT4SXUC03XYBN4EXABZUW4U7I2","A24IWWIUPASCQJ","3AQN9REUTF20OMGWRXYK787Q1B1YD0","","","<img src=""img/flower1.png"" style=""width:200px;border:14px solid red;"">","null","","","","","","","","",""
"357","","image-keyboard-response","262","229396","0.0-262.0","3CFJTT4SXUC03XYBN4EXABZUW4U7I2","A24IWWIUPASCQJ","3AQN9REUTF20OMGWRXYK787Q1B1YD0","","","img/flower1.png","74","422","1","1","2","2","1,0,0,1,1,0,1,0,1","0,0,1,1,0,1,0,1,1","2",""
"null","","html-keyboard-response","263","229700","0.0-263.0","3CFJTT4SXUC03XYBN4EXABZUW4U7I2","A24IWWIUPASCQJ","3AQN9REUTF20OMGWRXYK787Q1B1YD0","","","<img src=""img/flower1.png"" style=""width:200px; border:14px solid green;"">","null","","","","","","","","",""
"697","","image-keyboard-response","264","230399","0.0-264.0","3CFJTT4SXUC03XYBN4EXABZUW4U7I2","A24IWWIUPASCQJ","3AQN9REUTF20OMGWRXYK787Q1B1YD0","","","img/flower2.png","74","698","1","0","1","2","1,0,0,1,1,0,1,0,1","0,0,1,1,0,1,0,1,1","2",""
"null","","html-keyboard-response","265","230723","0.0-265.0","3CFJTT4SXUC03XYBN4EXABZUW4U7I2","A24IWWIUPASCQJ","3AQN9REUTF20OMGWRXYK787Q1B1YD0","","","<img src=""img/flower2.png"" style=""width:200px;border:14px solid red;"">","null","","","","","","","","",""
"716","","image-keyboard-response","266","231443","0.0-266.0","3CFJTT4SXUC03XYBN4EXABZUW4U7I2","A24IWWIUPASCQJ","3AQN9REUTF20OMGWRXYK787Q1B1YD0","","","img/flower1.png","75","719","2","0","2","2","1,0,0,1,1,0,1,0,1","0,0,1,1,0,1,0,1,1","2",""
"null","","html-keyboard-response","267","231772","0.0-267.0","3CFJTT4SXUC03XYBN4EXABZUW4U7I2","A24IWWIUPASCQJ","3AQN9REUTF20OMGWRXYK787Q1B1YD0","","","<img src=""img/flower1.png"" style=""width:200px;border:14px solid red;"">","null","","","","","","","","",""
"639","","image-keyboard-response","268","232412","0.0-268.0","3CFJTT4SXUC03XYBN4EXABZUW4U7I2","A24IWWIUPASCQJ","3AQN9REUTF20OMGWRXYK787Q1B1YD0","","","img/flower2.png","74","640","1","0","1","2","1,0,0,1,1,0,1,0,1","0,0,1,1,0,1,0,1,1","2",""
"null","","html-keyboard-response","269","232724","0.0-269.0","3CFJTT4SXUC03XYBN4EXABZUW4U7I2","A24IWWIUPASCQJ","3AQN9REUTF20OMGWRXYK787Q1B1YD0","","","<img src=""img/flower2.png"" style=""width:200px;border:14px solid red;"">","null","","","","","","","","",""
"297","","image-keyboard-response","270","233021","0.0-270.0","3CFJTT4SXUC03XYBN4EXABZUW4U7I2","A24IWWIUPASCQJ","3AQN9REUTF20OMGWRXYK787Q1B1YD0","","","img/flower1.png","76","297","3","1","2","2","1,0,0,1,1,0,1,0,1","0,0,1,1,0,1,0,1,1","2",""
"null","","html-keyboard-response","271","233334","0.0-271.0","3CFJTT4SXUC03XYBN4EXABZUW4U7I2","A24IWWIUPASCQJ","3AQN9REUTF20OMGWRXYK787Q1B1YD0","","","<img src=""img/flower1.png"" style=""width:200px; border:14px solid green;"">","null","","","","","","","","",""
"331","","image-keyboard-response","272","233666","0.0-272.0","3CFJTT4SXUC03XYBN4EXABZUW4U7I2","A24IWWIUPASCQJ","3AQN9REUTF20OMGWRXYK787Q1B1YD0","","","img/flower1.png","74","332","1","1","2","2","1,0,0,1,1,0,1,0,1","0,0,1,1,0,1,0,1,1","2",""
"null","","html-keyboard-response","273","233969","0.0-273.0","3CFJTT4SXUC03XYBN4EXABZUW4U7I2","A24IWWIUPASCQJ","3AQN9REUTF20OMGWRXYK787Q1B1YD0","","","<img src=""img/flower1.png"" style=""width:200px; border:14px solid green;"">","null","","","","","","","","",""
"253","","image-keyboard-response","274","234224","0.0-274.0","3CFJTT4SXUC03XYBN4EXABZUW4U7I2","A24IWWIUPASCQJ","3AQN9REUTF20OMGWRXYK787Q1B1YD0","","","img/flower3.png","74","255","1","0","3","2","1,0,0,1,1,0,1,0,1","0,0,1,1,0,1,0,1,1","2",""
"null","","html-keyboard-response","275","234538","0.0-275.0","3CFJTT4SXUC03XYBN4EXABZUW4U7I2","A24IWWIUPASCQJ","3AQN9REUTF20OMGWRXYK787Q1B1YD0","","","<img src=""img/flower3.png"" style=""width:200px;border:14px solid red;"">","null","","","","","","","","",""
"34","","image-keyboard-response","276","234573","0.0-276.0","3CFJTT4SXUC03XYBN4EXABZUW4U7I2","A24IWWIUPASCQJ","3AQN9REUTF20OMGWRXYK787Q1B1YD0","","","img/flower2.png","75","34","2","0","1","2","1,0,0,1,1,0,1,0,1","0,0,1,1,0,1,0,1,1","2",""
"null","","html-keyboard-response","277","234881","0.0-277.0","3CFJTT4SXUC03XYBN4EXABZUW4U7I2","A24IWWIUPASCQJ","3AQN9REUTF20OMGWRXYK787Q1B1YD0","","","<img src=""img/flower2.png"" style=""width:200px;border:14px solid red;"">","null","","","","","","","","",""
"34","","image-keyboard-response","278","234917","0.0-278.0","3CFJTT4SXUC03XYBN4EXABZUW4U7I2","A24IWWIUPASCQJ","3AQN9REUTF20OMGWRXYK787Q1B1YD0","","","img/flower1.png","76","36","3","1","2","2","1,0,0,1,1,0,1,0,1","0,0,1,1,0,1,0,1,1","2",""
"null","","html-keyboard-response","279","235240","0.0-279.0","3CFJTT4SXUC03XYBN4EXABZUW4U7I2","A24IWWIUPASCQJ","3AQN9REUTF20OMGWRXYK787Q1B1YD0","","","<img src=""img/flower1.png"" style=""width:200px; border:14px solid green;"">","null","","","","","","","","",""
"248","","image-keyboard-response","280","235490","0.0-280.0","3CFJTT4SXUC03XYBN4EXABZUW4U7I2","A24IWWIUPASCQJ","3AQN9REUTF20OMGWRXYK787Q1B1YD0","","","img/flower3.png","74","249","1","0","3","2","1,0,0,1,1,0,1,0,1","0,0,1,1,0,1,0,1,1","2",""
"null","","html-keyboard-response","281","235849","0.0-281.0","3CFJTT4SXUC03XYBN4EXABZUW4U7I2","A24IWWIUPASCQJ","3AQN9REUTF20OMGWRXYK787Q1B1YD0","","","<img src=""img/flower3.png"" style=""width:200px;border:14px solid red;"">","null","","","","","","","","",""
"192","","image-keyboard-response","282","236046","0.0-282.0","3CFJTT4SXUC03XYBN4EXABZUW4U7I2","A24IWWIUPASCQJ","3AQN9REUTF20OMGWRXYK787Q1B1YD0","","","img/flower2.png","75","197","2","0","1","2","1,0,0,1,1,0,1,0,1","0,0,1,1,0,1,0,1,1","2",""
"null","","html-keyboard-response","283","236350","0.0-283.0","3CFJTT4SXUC03XYBN4EXABZUW4U7I2","A24IWWIUPASCQJ","3AQN9REUTF20OMGWRXYK787Q1B1YD0","","","<img src=""img/flower2.png"" style=""width:200px;border:14px solid red;"">","null","","","","","","","","",""
"484","","image-keyboard-response","284","236834","0.0-284.0","3CFJTT4SXUC03XYBN4EXABZUW4U7I2","A24IWWIUPASCQJ","3AQN9REUTF20OMGWRXYK787Q1B1YD0","","","img/flower2.png","74","484","1","0","1","2","1,0,0,1,1,0,1,0,1","0,0,1,1,0,1,0,1,1","2",""
"null","","html-keyboard-response","285","237146","0.0-285.0","3CFJTT4SXUC03XYBN4EXABZUW4U7I2","A24IWWIUPASCQJ","3AQN9REUTF20OMGWRXYK787Q1B1YD0","","","<img src=""img/flower2.png"" style=""width:200px;border:14px solid red;"">","null","","","","","","","","",""
"286","","image-keyboard-response","286","237444","0.0-286.0","3CFJTT4SXUC03XYBN4EXABZUW4U7I2","A24IWWIUPASCQJ","3AQN9REUTF20OMGWRXYK787Q1B1YD0","","","img/flower3.png","76","296","3","1","3","2","1,0,0,1,1,0,1,0,1","0,0,1,1,0,1,0,1,1","2",""
"null","","html-keyboard-response","287","237755","0.0-287.0","3CFJTT4SXUC03XYBN4EXABZUW4U7I2","A24IWWIUPASCQJ","3AQN9REUTF20OMGWRXYK787Q1B1YD0","","","<img src=""img/flower3.png"" style=""width:200px; border:14px solid green;"">","null","","","","","","","","",""
"161","","image-keyboard-response","288","237927","0.0-288.0","3CFJTT4SXUC03XYBN4EXABZUW4U7I2","A24IWWIUPASCQJ","3AQN9REUTF20OMGWRXYK787Q1B1YD0","","","img/flower1.png","74","164","1","1","2","2","1,0,0,1,1,0,1,0,1","0,0,1,1,0,1,0,1,1","2",""
"null","","html-keyboard-response","289","238240","0.0-289.0","3CFJTT4SXUC03XYBN4EXABZUW4U7I2","A24IWWIUPASCQJ","3AQN9REUTF20OMGWRXYK787Q1B1YD0","","","<img src=""img/flower1.png"" style=""width:200px; border:14px solid green;"">","null","","","","","","","","",""
"47","","image-keyboard-response","290","238288","0.0-290.0","3CFJTT4SXUC03XYBN4EXABZUW4U7I2","A24IWWIUPASCQJ","3AQN9REUTF20OMGWRXYK787Q1B1YD0","","","img/flower3.png","75","47","2","1","3","2","1,0,0,1,1,0,1,0,1","0,0,1,1,0,1,0,1,1","2",""
"null","","html-keyboard-response","291","238601","0.0-291.0","3CFJTT4SXUC03XYBN4EXABZUW4U7I2","A24IWWIUPASCQJ","3AQN9REUTF20OMGWRXYK787Q1B1YD0","","","<img src=""img/flower3.png"" style=""width:200px; border:14px solid green;"">","null","","","","","","","","",""
"100","","image-keyboard-response","292","238709","0.0-292.0","3CFJTT4SXUC03XYBN4EXABZUW4U7I2","A24IWWIUPASCQJ","3AQN9REUTF20OMGWRXYK787Q1B1YD0","","","img/flower2.png","76","108","3","1","1","2","1,0,0,1,1,0,1,0,1","0,0,1,1,0,1,0,1,1","2",""
"null","","html-keyboard-response","293","239023","0.0-293.0","3CFJTT4SXUC03XYBN4EXABZUW4U7I2","A24IWWIUPASCQJ","3AQN9REUTF20OMGWRXYK787Q1B1YD0","","","<img src=""img/flower2.png"" style=""width:200px; border:14px solid green;"">","null","","","","","","","","",""
"154","","image-keyboard-response","294","239177","0.0-294.0","3CFJTT4SXUC03XYBN4EXABZUW4U7I2","A24IWWIUPASCQJ","3AQN9REUTF20OMGWRXYK787Q1B1YD0","","","img/flower1.png","74","154","1","1","2","2","1,0,0,1,1,0,1,0,1","0,0,1,1,0,1,0,1,1","2",""
"null","","html-keyboard-response","295","239507","0.0-295.0","3CFJTT4SXUC03XYBN4EXABZUW4U7I2","A24IWWIUPASCQJ","3AQN9REUTF20OMGWRXYK787Q1B1YD0","","","<img src=""img/flower1.png"" style=""width:200px; border:14px solid green;"">","null","","","","","","","","",""
"156","","image-keyboard-response","296","239664","0.0-296.0","3CFJTT4SXUC03XYBN4EXABZUW4U7I2","A24IWWIUPASCQJ","3AQN9REUTF20OMGWRXYK787Q1B1YD0","","","img/flower2.png","76","157","3","1","1","2","1,0,0,1,1,0,1,0,1","0,0,1,1,0,1,0,1,1","2",""
"null","","html-keyboard-response","297","239977","0.0-297.0","3CFJTT4SXUC03XYBN4EXABZUW4U7I2","A24IWWIUPASCQJ","3AQN9REUTF20OMGWRXYK787Q1B1YD0","","","<img src=""img/flower2.png"" style=""width:200px; border:14px solid green;"">","null","","","","","","","","",""
"41","","image-keyboard-response","298","240019","0.0-298.0","3CFJTT4SXUC03XYBN4EXABZUW4U7I2","A24IWWIUPASCQJ","3AQN9REUTF20OMGWRXYK787Q1B1YD0","","","img/flower1.png","74","42","1","1","2","2","1,0,0,1,1,0,1,0,1","0,0,1,1,0,1,0,1,1","2",""
"null","","html-keyboard-response","299","240333","0.0-299.0","3CFJTT4SXUC03XYBN4EXABZUW4U7I2","A24IWWIUPASCQJ","3AQN9REUTF20OMGWRXYK787Q1B1YD0","","","<img src=""img/flower1.png"" style=""width:200px; border:14px solid green;"">","null","","","","","","","","",""
"49","","image-keyboard-response","300","240385","0.0-300.0","3CFJTT4SXUC03XYBN4EXABZUW4U7I2","A24IWWIUPASCQJ","3AQN9REUTF20OMGWRXYK787Q1B1YD0","","","img/flower2.png","75","53","2","0","1","2","1,0,0,1,1,0,1,0,1","0,0,1,1,0,1,0,1,1","2",""
"null","","html-keyboard-response","301","240694","0.0-301.0","3CFJTT4SXUC03XYBN4EXABZUW4U7I2","A24IWWIUPASCQJ","3AQN9REUTF20OMGWRXYK787Q1B1YD0","","","<img src=""img/flower2.png"" style=""width:200px;border:14px solid red;"">","null","","","","","","","","",""
"135","","image-keyboard-response","302","240838","0.0-302.0","3CFJTT4SXUC03XYBN4EXABZUW4U7I2","A24IWWIUPASCQJ","3AQN9REUTF20OMGWRXYK787Q1B1YD0","","","img/flower2.png","75","144","2","0","1","2","1,0,0,1,1,0,1,0,1","0,0,1,1,0,1,0,1,1","2",""
"null","","html-keyboard-response","303","241147","0.0-303.0","3CFJTT4SXUC03XYBN4EXABZUW4U7I2","A24IWWIUPASCQJ","3AQN9REUTF20OMGWRXYK787Q1B1YD0","","","<img src=""img/flower2.png"" style=""width:200px;border:14px solid red;"">","null","","","","","","","","",""
"231","","image-keyboard-response","304","241398","0.0-304.0","3CFJTT4SXUC03XYBN4EXABZUW4U7I2","A24IWWIUPASCQJ","3AQN9REUTF20OMGWRXYK787Q1B1YD0","","","img/flower1.png","74","251","1","1","2","2","1,0,0,1,1,0,1,0,1","0,0,1,1,0,1,0,1,1","2",""
"null","","html-keyboard-response","305","241711","0.0-305.0","3CFJTT4SXUC03XYBN4EXABZUW4U7I2","A24IWWIUPASCQJ","3AQN9REUTF20OMGWRXYK787Q1B1YD0","","","<img src=""img/flower1.png"" style=""width:200px; border:14px solid green;"">","null","","","","","","","","",""
"245","","image-keyboard-response","306","241958","0.0-306.0","3CFJTT4SXUC03XYBN4EXABZUW4U7I2","A24IWWIUPASCQJ","3AQN9REUTF20OMGWRXYK787Q1B1YD0","","","img/flower5.png","74","247","1","1","2","1","1,0.333,0.333,0.333,1,0.333,0.333,0.333,1","1,0.333,0.333,0.333,1,0.333,0.333,0.333,1","1",""
"null","","html-keyboard-response","307","242273","0.0-307.0","3CFJTT4SXUC03XYBN4EXABZUW4U7I2","A24IWWIUPASCQJ","3AQN9REUTF20OMGWRXYK787Q1B1YD0","","","<img src=""img/flower5.png"" style=""width:200px; border:14px solid green;"">","null","","","","","","","","",""
"201","","image-keyboard-response","308","242474","0.0-308.0","3CFJTT4SXUC03XYBN4EXABZUW4U7I2","A24IWWIUPASCQJ","3AQN9REUTF20OMGWRXYK787Q1B1YD0","","","img/flower5.png","75","201","2","1","2","1","1,0.333,0.333,0.333,1,0.333,0.333,0.333,1","1,0.333,0.333,0.333,1,0.333,0.333,0.333,1","1",""
"null","","html-keyboard-response","309","242788","0.0-309.0","3CFJTT4SXUC03XYBN4EXABZUW4U7I2","A24IWWIUPASCQJ","3AQN9REUTF20OMGWRXYK787Q1B1YD0","","","<img src=""img/flower5.png"" style=""width:200px; border:14px solid green;"">","null","","","","","","","","",""
"23","","image-keyboard-response","310","242819","0.0-310.0","3CFJTT4SXUC03XYBN4EXABZUW4U7I2","A24IWWIUPASCQJ","3AQN9REUTF20OMGWRXYK787Q1B1YD0","","","img/flower6.png","76","31","3","1","3","1","1,0.333,0.333,0.333,1,0.333,0.333,0.333,1","1,0.333,0.333,0.333,1,0.333,0.333,0.333,1","1",""
"null","","html-keyboard-response","311","243148","0.0-311.0","3CFJTT4SXUC03XYBN4EXABZUW4U7I2","A24IWWIUPASCQJ","3AQN9REUTF20OMGWRXYK787Q1B1YD0","","","<img src=""img/flower6.png"" style=""width:200px; border:14px solid green;"">","null","","","","","","","","",""
"34","","image-keyboard-response","312","243186","0.0-312.0","3CFJTT4SXUC03XYBN4EXABZUW4U7I2","A24IWWIUPASCQJ","3AQN9REUTF20OMGWRXYK787Q1B1YD0","","","img/flower6.png","74","38","1","0","3","1","1,0.333,0.333,0.333,1,0.333,0.333,0.333,1","1,0.333,0.333,0.333,1,0.333,0.333,0.333,1","1",""
"null","","html-keyboard-response","313","243491","0.0-313.0","3CFJTT4SXUC03XYBN4EXABZUW4U7I2","A24IWWIUPASCQJ","3AQN9REUTF20OMGWRXYK787Q1B1YD0","","","<img src=""img/flower6.png"" style=""width:200px;border:14px solid red;"">","null","","","","","","","","",""
"281","","image-keyboard-response","314","243772","0.0-314.0","3CFJTT4SXUC03XYBN4EXABZUW4U7I2","A24IWWIUPASCQJ","3AQN9REUTF20OMGWRXYK787Q1B1YD0","","","img/flower5.png","76","281","3","0","2","1","1,0.333,0.333,0.333,1,0.333,0.333,0.333,1","1,0.333,0.333,0.333,1,0.333,0.333,0.333,1","1",""
"null","","html-keyboard-response","315","244084","0.0-315.0","3CFJTT4SXUC03XYBN4EXABZUW4U7I2","A24IWWIUPASCQJ","3AQN9REUTF20OMGWRXYK787Q1B1YD0","","","<img src=""img/flower5.png"" style=""width:200px;border:14px solid red;"">","null","","","","","","","","",""
"124","","image-keyboard-response","316","244208","0.0-316.0","3CFJTT4SXUC03XYBN4EXABZUW4U7I2","A24IWWIUPASCQJ","3AQN9REUTF20OMGWRXYK787Q1B1YD0","","","img/flower4.png","74","124","1","1","1","1","1,0.333,0.333,0.333,1,0.333,0.333,0.333,1","1,0.333,0.333,0.333,1,0.333,0.333,0.333,1","1",""
"null","","html-keyboard-response","317","244525","0.0-317.0","3CFJTT4SXUC03XYBN4EXABZUW4U7I2","A24IWWIUPASCQJ","3AQN9REUTF20OMGWRXYK787Q1B1YD0","","","<img src=""img/flower4.png"" style=""width:200px; border:14px solid green;"">","null","","","","","","","","",""
"73","","image-keyboard-response","318","244598","0.0-318.0","3CFJTT4SXUC03XYBN4EXABZUW4U7I2","A24IWWIUPASCQJ","3AQN9REUTF20OMGWRXYK787Q1B1YD0","","","img/flower6.png","74","73","1","0","3","1","1,0.333,0.333,0.333,1,0.333,0.333,0.333,1","1,0.333,0.333,0.333,1,0.333,0.333,0.333,1","1",""
"null","","html-keyboard-response","319","244917","0.0-319.0","3CFJTT4SXUC03XYBN4EXABZUW4U7I2","A24IWWIUPASCQJ","3AQN9REUTF20OMGWRXYK787Q1B1YD0","","","<img src=""img/flower6.png"" style=""width:200px;border:14px solid red;"">","null","","","","","","","","",""
"105","","image-keyboard-response","320","245053","0.0-320.0","3CFJTT4SXUC03XYBN4EXABZUW4U7I2","A24IWWIUPASCQJ","3AQN9REUTF20OMGWRXYK787Q1B1YD0","","","img/flower5.png","74","129","1","0","2","1","1,0.333,0.333,0.333,1,0.333,0.333,0.333,1","1,0.333,0.333,0.333,1,0.333,0.333,0.333,1","1",""
"null","","html-keyboard-response","321","245366","0.0-321.0","3CFJTT4SXUC03XYBN4EXABZUW4U7I2","A24IWWIUPASCQJ","3AQN9REUTF20OMGWRXYK787Q1B1YD0","","","<img src=""img/flower5.png"" style=""width:200px;border:14px solid red;"">","null","","","","","","","","",""
"89","","image-keyboard-response","322","245459","0.0-322.0","3CFJTT4SXUC03XYBN4EXABZUW4U7I2","A24IWWIUPASCQJ","3AQN9REUTF20OMGWRXYK787Q1B1YD0","","","img/flower6.png","74","91","1","1","3","1","1,0.333,0.333,0.333,1,0.333,0.333,0.333,1","1,0.333,0.333,0.333,1,0.333,0.333,0.333,1","1",""
"null","","html-keyboard-response","323","245780","0.0-323.0","3CFJTT4SXUC03XYBN4EXABZUW4U7I2","A24IWWIUPASCQJ","3AQN9REUTF20OMGWRXYK787Q1B1YD0","","","<img src=""img/flower6.png"" style=""width:200px; border:14px solid green;"">","null","","","","","","","","",""
"115","","image-keyboard-response","324","245896","0.0-324.0","3CFJTT4SXUC03XYBN4EXABZUW4U7I2","A24IWWIUPASCQJ","3AQN9REUTF20OMGWRXYK787Q1B1YD0","","","img/flower4.png","74","116","1","1","1","1","1,0.333,0.333,0.333,1,0.333,0.333,0.333,1","1,0.333,0.333,0.333,1,0.333,0.333,0.333,1","1",""
"null","","html-keyboard-response","325","246209","0.0-325.0","3CFJTT4SXUC03XYBN4EXABZUW4U7I2","A24IWWIUPASCQJ","3AQN9REUTF20OMGWRXYK787Q1B1YD0","","","<img src=""img/flower4.png"" style=""width:200px; border:14px solid green;"">","null","","","","","","","","",""
"113","","image-keyboard-response","326","246322","0.0-326.0","3CFJTT4SXUC03XYBN4EXABZUW4U7I2","A24IWWIUPASCQJ","3AQN9REUTF20OMGWRXYK787Q1B1YD0","","","img/flower4.png","74","113","1","1","1","1","1,0.333,0.333,0.333,1,0.333,0.333,0.333,1","1,0.333,0.333,0.333,1,0.333,0.333,0.333,1","1",""
"null","","html-keyboard-response","327","246630","0.0-327.0","3CFJTT4SXUC03XYBN4EXABZUW4U7I2","A24IWWIUPASCQJ","3AQN9REUTF20OMGWRXYK787Q1B1YD0","","","<img src=""img/flower4.png"" style=""width:200px; border:14px solid green;"">","null","","","","","","","","",""
"168","","image-keyboard-response","328","246803","0.0-328.0","3CFJTT4SXUC03XYBN4EXABZUW4U7I2","A24IWWIUPASCQJ","3AQN9REUTF20OMGWRXYK787Q1B1YD0","","","img/flower6.png","74","173","1","0","3","1","1,0.333,0.333,0.333,1,0.333,0.333,0.333,1","1,0.333,0.333,0.333,1,0.333,0.333,0.333,1","1",""
"null","","html-keyboard-response","329","247116","0.0-329.0","3CFJTT4SXUC03XYBN4EXABZUW4U7I2","A24IWWIUPASCQJ","3AQN9REUTF20OMGWRXYK787Q1B1YD0","","","<img src=""img/flower6.png"" style=""width:200px;border:14px solid red;"">","null","","","","","","","","",""
"184","","image-keyboard-response","330","247302","0.0-330.0","3CFJTT4SXUC03XYBN4EXABZUW4U7I2","A24IWWIUPASCQJ","3AQN9REUTF20OMGWRXYK787Q1B1YD0","","","img/flower6.png","74","185","1","0","3","1","1,0.333,0.333,0.333,1,0.333,0.333,0.333,1","1,0.333,0.333,0.333,1,0.333,0.333,0.333,1","1",""
"null","","html-keyboard-response","331","247615","0.0-331.0","3CFJTT4SXUC03XYBN4EXABZUW4U7I2","A24IWWIUPASCQJ","3AQN9REUTF20OMGWRXYK787Q1B1YD0","","","<img src=""img/flower6.png"" style=""width:200px;border:14px solid red;"">","null","","","","","","","","",""
"112","","image-keyboard-response","332","247727","0.0-332.0","3CFJTT4SXUC03XYBN4EXABZUW4U7I2","A24IWWIUPASCQJ","3AQN9REUTF20OMGWRXYK787Q1B1YD0","","","img/flower6.png","75","112","2","1","3","1","1,0.333,0.333,0.333,1,0.333,0.333,0.333,1","1,0.333,0.333,0.333,1,0.333,0.333,0.333,1","1",""
"null","","html-keyboard-response","333","248037","0.0-333.0","3CFJTT4SXUC03XYBN4EXABZUW4U7I2","A24IWWIUPASCQJ","3AQN9REUTF20OMGWRXYK787Q1B1YD0","","","<img src=""img/flower6.png"" style=""width:200px; border:14px solid green;"">","null","","","","","","","","",""
"312","","image-keyboard-response","334","248349","0.0-334.0","3CFJTT4SXUC03XYBN4EXABZUW4U7I2","A24IWWIUPASCQJ","3AQN9REUTF20OMGWRXYK787Q1B1YD0","","","img/flower6.png","74","312","1","0","3","1","1,0.333,0.333,0.333,1,0.333,0.333,0.333,1","1,0.333,0.333,0.333,1,0.333,0.333,0.333,1","1",""
"null","","html-keyboard-response","335","248662","0.0-335.0","3CFJTT4SXUC03XYBN4EXABZUW4U7I2","A24IWWIUPASCQJ","3AQN9REUTF20OMGWRXYK787Q1B1YD0","","","<img src=""img/flower6.png"" style=""width:200px;border:14px solid red;"">","null","","","","","","","","",""
"29","","image-keyboard-response","336","248691","0.0-336.0","3CFJTT4SXUC03XYBN4EXABZUW4U7I2","A24IWWIUPASCQJ","3AQN9REUTF20OMGWRXYK787Q1B1YD0","","","img/flower4.png","75","29","2","1","1","1","1,0.333,0.333,0.333,1,0.333,0.333,0.333,1","1,0.333,0.333,0.333,1,0.333,0.333,0.333,1","1",""
"null","","html-keyboard-response","337","249005","0.0-337.0","3CFJTT4SXUC03XYBN4EXABZUW4U7I2","A24IWWIUPASCQJ","3AQN9REUTF20OMGWRXYK787Q1B1YD0","","","<img src=""img/flower4.png"" style=""width:200px; border:14px solid green;"">","null","","","","","","","","",""
"344","","image-keyboard-response","338","249349","0.0-338.0","3CFJTT4SXUC03XYBN4EXABZUW4U7I2","A24IWWIUPASCQJ","3AQN9REUTF20OMGWRXYK787Q1B1YD0","","","img/flower5.png","74","344","1","0","2","1","1,0.333,0.333,0.333,1,0.333,0.333,0.333,1","1,0.333,0.333,0.333,1,0.333,0.333,0.333,1","1",""
"null","","html-keyboard-response","339","249661","0.0-339.0","3CFJTT4SXUC03XYBN4EXABZUW4U7I2","A24IWWIUPASCQJ","3AQN9REUTF20OMGWRXYK787Q1B1YD0","","","<img src=""img/flower5.png"" style=""width:200px;border:14px solid red;"">","null","","","","","","","","",""
"56","","image-keyboard-response","340","249717","0.0-340.0","3CFJTT4SXUC03XYBN4EXABZUW4U7I2","A24IWWIUPASCQJ","3AQN9REUTF20OMGWRXYK787Q1B1YD0","","","img/flower5.png","75","57","2","1","2","1","1,0.333,0.333,0.333,1,0.333,0.333,0.333,1","1,0.333,0.333,0.333,1,0.333,0.333,0.333,1","1",""
"null","","html-keyboard-response","341","250037","0.0-341.0","3CFJTT4SXUC03XYBN4EXABZUW4U7I2","A24IWWIUPASCQJ","3AQN9REUTF20OMGWRXYK787Q1B1YD0","","","<img src=""img/flower5.png"" style=""width:200px; border:14px solid green;"">","null","","","","","","","","",""
"312","","image-keyboard-response","342","250349","0.0-342.0","3CFJTT4SXUC03XYBN4EXABZUW4U7I2","A24IWWIUPASCQJ","3AQN9REUTF20OMGWRXYK787Q1B1YD0","","","img/flower5.png","74","312","1","0","2","1","1,0.333,0.333,0.333,1,0.333,0.333,0.333,1","1,0.333,0.333,0.333,1,0.333,0.333,0.333,1","1",""
"null","","html-keyboard-response","343","250649","0.0-343.0","3CFJTT4SXUC03XYBN4EXABZUW4U7I2","A24IWWIUPASCQJ","3AQN9REUTF20OMGWRXYK787Q1B1YD0","","","<img src=""img/flower5.png"" style=""width:200px;border:14px solid red;"">","null","","","","","","","","",""
"91","","image-keyboard-response","344","250757","0.0-344.0","3CFJTT4SXUC03XYBN4EXABZUW4U7I2","A24IWWIUPASCQJ","3AQN9REUTF20OMGWRXYK787Q1B1YD0","","","img/flower5.png","74","108","1","0","2","1","1,0.333,0.333,0.333,1,0.333,0.333,0.333,1","1,0.333,0.333,0.333,1,0.333,0.333,0.333,1","1",""
"null","","html-keyboard-response","345","251069","0.0-345.0","3CFJTT4SXUC03XYBN4EXABZUW4U7I2","A24IWWIUPASCQJ","3AQN9REUTF20OMGWRXYK787Q1B1YD0","","","<img src=""img/flower5.png"" style=""width:200px;border:14px solid red;"">","null","","","","","","","","",""
"124","","image-keyboard-response","346","251193","0.0-346.0","3CFJTT4SXUC03XYBN4EXABZUW4U7I2","A24IWWIUPASCQJ","3AQN9REUTF20OMGWRXYK787Q1B1YD0","","","img/flower4.png","75","132","2","1","1","1","1,0.333,0.333,0.333,1,0.333,0.333,0.333,1","1,0.333,0.333,0.333,1,0.333,0.333,0.333,1","1",""
"null","","html-keyboard-response","347","251505","0.0-347.0","3CFJTT4SXUC03XYBN4EXABZUW4U7I2","A24IWWIUPASCQJ","3AQN9REUTF20OMGWRXYK787Q1B1YD0","","","<img src=""img/flower4.png"" style=""width:200px; border:14px solid green;"">","null","","","","","","","","",""
"29","","image-keyboard-response","348","251534","0.0-348.0","3CFJTT4SXUC03XYBN4EXABZUW4U7I2","A24IWWIUPASCQJ","3AQN9REUTF20OMGWRXYK787Q1B1YD0","","","img/flower4.png","76","29","3","1","1","1","1,0.333,0.333,0.333,1,0.333,0.333,0.333,1","1,0.333,0.333,0.333,1,0.333,0.333,0.333,1","1",""
"null","","html-keyboard-response","349","251850","0.0-349.0","3CFJTT4SXUC03XYBN4EXABZUW4U7I2","A24IWWIUPASCQJ","3AQN9REUTF20OMGWRXYK787Q1B1YD0","","","<img src=""img/flower4.png"" style=""width:200px; border:14px solid green;"">","null","","","","","","","","",""
"124","","image-keyboard-response","350","251974","0.0-350.0","3CFJTT4SXUC03XYBN4EXABZUW4U7I2","A24IWWIUPASCQJ","3AQN9REUTF20OMGWRXYK787Q1B1YD0","","","img/flower6.png","75","124","2","0","3","1","1,0.333,0.333,0.333,1,0.333,0.333,0.333,1","1,0.333,0.333,0.333,1,0.333,0.333,0.333,1","1",""
"null","","html-keyboard-response","351","252292","0.0-351.0","3CFJTT4SXUC03XYBN4EXABZUW4U7I2","A24IWWIUPASCQJ","3AQN9REUTF20OMGWRXYK787Q1B1YD0","","","<img src=""img/flower6.png"" style=""width:200px;border:14px solid red;"">","null","","","","","","","","",""
"137","","image-keyboard-response","352","252429","0.0-352.0","3CFJTT4SXUC03XYBN4EXABZUW4U7I2","A24IWWIUPASCQJ","3AQN9REUTF20OMGWRXYK787Q1B1YD0","","","img/flower5.png","74","137","1","0","2","1","1,0.333,0.333,0.333,1,0.333,0.333,0.333,1","1,0.333,0.333,0.333,1,0.333,0.333,0.333,1","1",""
"null","","html-keyboard-response","353","252742","0.0-353.0","3CFJTT4SXUC03XYBN4EXABZUW4U7I2","A24IWWIUPASCQJ","3AQN9REUTF20OMGWRXYK787Q1B1YD0","","","<img src=""img/flower5.png"" style=""width:200px;border:14px solid red;"">","null","","","","","","","","",""
"529","","image-keyboard-response","354","253271","0.0-354.0","3CFJTT4SXUC03XYBN4EXABZUW4U7I2","A24IWWIUPASCQJ","3AQN9REUTF20OMGWRXYK787Q1B1YD0","","","img/flower6.png","75","529","2","1","3","1","1,0.333,0.333,0.333,1,0.333,0.333,0.333,1","1,0.333,0.333,0.333,1,0.333,0.333,0.333,1","1",""
"null","","html-keyboard-response","355","253584","0.0-355.0","3CFJTT4SXUC03XYBN4EXABZUW4U7I2","A24IWWIUPASCQJ","3AQN9REUTF20OMGWRXYK787Q1B1YD0","","","<img src=""img/flower6.png"" style=""width:200px; border:14px solid green;"">","null","","","","","","","","",""
"519","","image-keyboard-response","356","254103","0.0-356.0","3CFJTT4SXUC03XYBN4EXABZUW4U7I2","A24IWWIUPASCQJ","3AQN9REUTF20OMGWRXYK787Q1B1YD0","","","img/flower4.png","75","519","2","0","1","1","1,0.333,0.333,0.333,1,0.333,0.333,0.333,1","1,0.333,0.333,0.333,1,0.333,0.333,0.333,1","1",""
"null","","html-keyboard-response","357","254427","0.0-357.0","3CFJTT4SXUC03XYBN4EXABZUW4U7I2","A24IWWIUPASCQJ","3AQN9REUTF20OMGWRXYK787Q1B1YD0","","","<img src=""img/flower4.png"" style=""width:200px;border:14px solid red;"">","null","","","","","","","","",""
"435","","image-keyboard-response","358","254882","0.0-358.0","3CFJTT4SXUC03XYBN4EXABZUW4U7I2","A24IWWIUPASCQJ","3AQN9REUTF20OMGWRXYK787Q1B1YD0","","","img/flower5.png","75","455","2","1","2","1","1,0.333,0.333,0.333,1,0.333,0.333,0.333,1","1,0.333,0.333,0.333,1,0.333,0.333,0.333,1","1",""
"null","","html-keyboard-response","359","255194","0.0-359.0","3CFJTT4SXUC03XYBN4EXABZUW4U7I2","A24IWWIUPASCQJ","3AQN9REUTF20OMGWRXYK787Q1B1YD0","","","<img src=""img/flower5.png"" style=""width:200px; border:14px solid green;"">","null","","","","","","","","",""
"187","","image-keyboard-response","360","255382","0.0-360.0","3CFJTT4SXUC03XYBN4EXABZUW4U7I2","A24IWWIUPASCQJ","3AQN9REUTF20OMGWRXYK787Q1B1YD0","","","img/flower4.png","74","188","1","1","1","1","1,0.333,0.333,0.333,1,0.333,0.333,0.333,1","1,0.333,0.333,0.333,1,0.333,0.333,0.333,1","1",""
"null","","html-keyboard-response","361","255694","0.0-361.0","3CFJTT4SXUC03XYBN4EXABZUW4U7I2","A24IWWIUPASCQJ","3AQN9REUTF20OMGWRXYK787Q1B1YD0","","","<img src=""img/flower4.png"" style=""width:200px; border:14px solid green;"">","null","","","","","","","","",""
"1","","image-keyboard-response","362","255699","0.0-362.0","3CFJTT4SXUC03XYBN4EXABZUW4U7I2","A24IWWIUPASCQJ","3AQN9REUTF20OMGWRXYK787Q1B1YD0","","","img/flower6.png","75","2","2","1","3","1","1,0.333,0.333,0.333,1,0.333,0.333,0.333,1","1,0.333,0.333,0.333,1,0.333,0.333,0.333,1","1",""
"null","","html-keyboard-response","363","256005","0.0-363.0","3CFJTT4SXUC03XYBN4EXABZUW4U7I2","A24IWWIUPASCQJ","3AQN9REUTF20OMGWRXYK787Q1B1YD0","","","<img src=""img/flower6.png"" style=""width:200px; border:14px solid green;"">","null","","","","","","","","",""
"359","","image-keyboard-response","364","256367","0.0-364.0","3CFJTT4SXUC03XYBN4EXABZUW4U7I2","A24IWWIUPASCQJ","3AQN9REUTF20OMGWRXYK787Q1B1YD0","","","img/flower5.png","75","362","2","1","2","1","1,0.333,0.333,0.333,1,0.333,0.333,0.333,1","1,0.333,0.333,0.333,1,0.333,0.333,0.333,1","1",""
"null","","html-keyboard-response","365","256679","0.0-365.0","3CFJTT4SXUC03XYBN4EXABZUW4U7I2","A24IWWIUPASCQJ","3AQN9REUTF20OMGWRXYK787Q1B1YD0","","","<img src=""img/flower5.png"" style=""width:200px; border:14px solid green;"">","null","","","","","","","","",""
"110","","image-keyboard-response","366","256789","0.0-366.0","3CFJTT4SXUC03XYBN4EXABZUW4U7I2","A24IWWIUPASCQJ","3AQN9REUTF20OMGWRXYK787Q1B1YD0","","","img/flower5.png","75","110","2","1","2","1","1,0.333,0.333,0.333,1,0.333,0.333,0.333,1","1,0.333,0.333,0.333,1,0.333,0.333,0.333,1","1",""
"null","","html-keyboard-response","367","257099","0.0-367.0","3CFJTT4SXUC03XYBN4EXABZUW4U7I2","A24IWWIUPASCQJ","3AQN9REUTF20OMGWRXYK787Q1B1YD0","","","<img src=""img/flower5.png"" style=""width:200px; border:14px solid green;"">","null","","","","","","","","",""
"172","","image-keyboard-response","368","257271","0.0-368.0","3CFJTT4SXUC03XYBN4EXABZUW4U7I2","A24IWWIUPASCQJ","3AQN9REUTF20OMGWRXYK787Q1B1YD0","","","img/flower5.png","75","172","2","1","2","1","1,0.333,0.333,0.333,1,0.333,0.333,0.333,1","1,0.333,0.333,0.333,1,0.333,0.333,0.333,1","1",""
"null","","html-keyboard-response","369","257592","0.0-369.0","3CFJTT4SXUC03XYBN4EXABZUW4U7I2","A24IWWIUPASCQJ","3AQN9REUTF20OMGWRXYK787Q1B1YD0","","","<img src=""img/flower5.png"" style=""width:200px; border:14px solid green;"">","null","","","","","","","","",""
"88","","image-keyboard-response","370","257682","0.0-370.0","3CFJTT4SXUC03XYBN4EXABZUW4U7I2","A24IWWIUPASCQJ","3AQN9REUTF20OMGWRXYK787Q1B1YD0","","","img/flower6.png","75","89","2","0","3","1","1,0.333,0.333,0.333,1,0.333,0.333,0.333,1","1,0.333,0.333,0.333,1,0.333,0.333,0.333,1","1",""
"null","","html-keyboard-response","371","258005","0.0-371.0","3CFJTT4SXUC03XYBN4EXABZUW4U7I2","A24IWWIUPASCQJ","3AQN9REUTF20OMGWRXYK787Q1B1YD0","","","<img src=""img/flower6.png"" style=""width:200px;border:14px solid red;"">","null","","","","","","","","",""
"219","","image-keyboard-response","372","258224","0.0-372.0","3CFJTT4SXUC03XYBN4EXABZUW4U7I2","A24IWWIUPASCQJ","3AQN9REUTF20OMGWRXYK787Q1B1YD0","","","img/flower5.png","74","219","1","0","2","1","1,0.333,0.333,0.333,1,0.333,0.333,0.333,1","1,0.333,0.333,0.333,1,0.333,0.333,0.333,1","1",""
"null","","html-keyboard-response","373","258537","0.0-373.0","3CFJTT4SXUC03XYBN4EXABZUW4U7I2","A24IWWIUPASCQJ","3AQN9REUTF20OMGWRXYK787Q1B1YD0","","","<img src=""img/flower5.png"" style=""width:200px;border:14px solid red;"">","null","","","","","","","","",""
"112","","image-keyboard-response","374","258649","0.0-374.0","3CFJTT4SXUC03XYBN4EXABZUW4U7I2","A24IWWIUPASCQJ","3AQN9REUTF20OMGWRXYK787Q1B1YD0","","","img/flower5.png","75","112","2","1","2","1","1,0.333,0.333,0.333,1,0.333,0.333,0.333,1","1,0.333,0.333,0.333,1,0.333,0.333,0.333,1","1",""
"null","","html-keyboard-response","375","258974","0.0-375.0","3CFJTT4SXUC03XYBN4EXABZUW4U7I2","A24IWWIUPASCQJ","3AQN9REUTF20OMGWRXYK787Q1B1YD0","","","<img src=""img/flower5.png"" style=""width:200px; border:14px solid green;"">","null","","","","","","","","",""
"328","","image-keyboard-response","376","259302","0.0-376.0","3CFJTT4SXUC03XYBN4EXABZUW4U7I2","A24IWWIUPASCQJ","3AQN9REUTF20OMGWRXYK787Q1B1YD0","","","img/flower4.png","74","328","1","1","1","1","1,0.333,0.333,0.333,1,0.333,0.333,0.333,1","1,0.333,0.333,0.333,1,0.333,0.333,0.333,1","1",""
"null","","html-keyboard-response","377","259620","0.0-377.0","3CFJTT4SXUC03XYBN4EXABZUW4U7I2","A24IWWIUPASCQJ","3AQN9REUTF20OMGWRXYK787Q1B1YD0","","","<img src=""img/flower4.png"" style=""width:200px; border:14px solid green;"">","null","","","","","","","","",""
"214","","image-keyboard-response","378","259834","0.0-378.0","3CFJTT4SXUC03XYBN4EXABZUW4U7I2","A24IWWIUPASCQJ","3AQN9REUTF20OMGWRXYK787Q1B1YD0","","","img/flower5.png","76","214","3","0","2","1","1,0.333,0.333,0.333,1,0.333,0.333,0.333,1","1,0.333,0.333,0.333,1,0.333,0.333,0.333,1","1",""
"null","","html-keyboard-response","379","260163","0.0-379.0","3CFJTT4SXUC03XYBN4EXABZUW4U7I2","A24IWWIUPASCQJ","3AQN9REUTF20OMGWRXYK787Q1B1YD0","","","<img src=""img/flower5.png"" style=""width:200px;border:14px solid red;"">","null","","","","","","","","",""
"200","","image-keyboard-response","380","260365","0.0-380.0","3CFJTT4SXUC03XYBN4EXABZUW4U7I2","A24IWWIUPASCQJ","3AQN9REUTF20OMGWRXYK787Q1B1YD0","","","img/flower5.png","74","201","1","1","2","1","1,0.333,0.333,0.333,1,0.333,0.333,0.333,1","1,0.333,0.333,0.333,1,0.333,0.333,0.333,1","1",""
"null","","html-keyboard-response","381","260667","0.0-381.0","3CFJTT4SXUC03XYBN4EXABZUW4U7I2","A24IWWIUPASCQJ","3AQN9REUTF20OMGWRXYK787Q1B1YD0","","","<img src=""img/flower5.png"" style=""width:200px; border:14px solid green;"">","null","","","","","","","","",""
"56","","image-keyboard-response","382","260725","0.0-382.0","3CFJTT4SXUC03XYBN4EXABZUW4U7I2","A24IWWIUPASCQJ","3AQN9REUTF20OMGWRXYK787Q1B1YD0","","","img/flower6.png","75","58","2","1","3","1","1,0.333,0.333,0.333,1,0.333,0.333,0.333,1","1,0.333,0.333,0.333,1,0.333,0.333,0.333,1","1",""
"null","","html-keyboard-response","383","261037","0.0-383.0","3CFJTT4SXUC03XYBN4EXABZUW4U7I2","A24IWWIUPASCQJ","3AQN9REUTF20OMGWRXYK787Q1B1YD0","","","<img src=""img/flower6.png"" style=""width:200px; border:14px solid green;"">","null","","","","","","","","",""
"343","","image-keyboard-response","384","261380","0.0-384.0","3CFJTT4SXUC03XYBN4EXABZUW4U7I2","A24IWWIUPASCQJ","3AQN9REUTF20OMGWRXYK787Q1B1YD0","","","img/flower6.png","74","343","1","1","3","1","1,0.333,0.333,0.333,1,0.333,0.333,0.333,1","1,0.333,0.333,0.333,1,0.333,0.333,0.333,1","1",""
"null","","html-keyboard-response","385","261700","0.0-385.0","3CFJTT4SXUC03XYBN4EXABZUW4U7I2","A24IWWIUPASCQJ","3AQN9REUTF20OMGWRXYK787Q1B1YD0","","","<img src=""img/flower6.png"" style=""width:200px; border:14px solid green;"">","null","","","","","","","","",""
"39","","image-keyboard-response","386","261739","0.0-386.0","3CFJTT4SXUC03XYBN4EXABZUW4U7I2","A24IWWIUPASCQJ","3AQN9REUTF20OMGWRXYK787Q1B1YD0","","","img/flower5.png","75","40","2","1","2","1","1,0.333,0.333,0.333,1,0.333,0.333,0.333,1","1,0.333,0.333,0.333,1,0.333,0.333,0.333,1","1",""
"null","","html-keyboard-response","387","262055","0.0-387.0","3CFJTT4SXUC03XYBN4EXABZUW4U7I2","A24IWWIUPASCQJ","3AQN9REUTF20OMGWRXYK787Q1B1YD0","","","<img src=""img/flower5.png"" style=""width:200px; border:14px solid green;"">","null","","","","","","","","",""
"311","","image-keyboard-response","388","262380","0.0-388.0","3CFJTT4SXUC03XYBN4EXABZUW4U7I2","A24IWWIUPASCQJ","3AQN9REUTF20OMGWRXYK787Q1B1YD0","","","img/flower4.png","74","335","1","1","1","1","1,0.333,0.333,0.333,1,0.333,0.333,0.333,1","1,0.333,0.333,0.333,1,0.333,0.333,0.333,1","1",""
"null","","html-keyboard-response","389","262696","0.0-389.0","3CFJTT4SXUC03XYBN4EXABZUW4U7I2","A24IWWIUPASCQJ","3AQN9REUTF20OMGWRXYK787Q1B1YD0","","","<img src=""img/flower4.png"" style=""width:200px; border:14px solid green;"">","null","","","","","","","","",""
"49","","image-keyboard-response","390","262747","0.0-390.0","3CFJTT4SXUC03XYBN4EXABZUW4U7I2","A24IWWIUPASCQJ","3AQN9REUTF20OMGWRXYK787Q1B1YD0","","","img/flower5.png","75","50","2","1","2","1","1,0.333,0.333,0.333,1,0.333,0.333,0.333,1","1,0.333,0.333,0.333,1,0.333,0.333,0.333,1","1",""
"null","","html-keyboard-response","391","263053","0.0-391.0","3CFJTT4SXUC03XYBN4EXABZUW4U7I2","A24IWWIUPASCQJ","3AQN9REUTF20OMGWRXYK787Q1B1YD0","","","<img src=""img/flower5.png"" style=""width:200px; border:14px solid green;"">","null","","","","","","","","",""
"0","","image-keyboard-response","392","263055","0.0-392.0","3CFJTT4SXUC03XYBN4EXABZUW4U7I2","A24IWWIUPASCQJ","3AQN9REUTF20OMGWRXYK787Q1B1YD0","","","img/flower4.png","76","0","3","0","1","1","1,0.333,0.333,0.333,1,0.333,0.333,0.333,1","1,0.333,0.333,0.333,1,0.333,0.333,0.333,1","1",""
"null","","html-keyboard-response","393","263366","0.0-393.0","3CFJTT4SXUC03XYBN4EXABZUW4U7I2","A24IWWIUPASCQJ","3AQN9REUTF20OMGWRXYK787Q1B1YD0","","","<img src=""img/flower4.png"" style=""width:200px;border:14px solid red;"">","null","","","","","","","","",""
"297","","image-keyboard-response","394","263664","0.0-394.0","3CFJTT4SXUC03XYBN4EXABZUW4U7I2","A24IWWIUPASCQJ","3AQN9REUTF20OMGWRXYK787Q1B1YD0","","","img/flower4.png","74","297","1","1","1","1","1,0.333,0.333,0.333,1,0.333,0.333,0.333,1","1,0.333,0.333,0.333,1,0.333,0.333,0.333,1","1",""
