"rt","url","trial_type","trial_index","time_elapsed","internal_node_id","assignmentID","mturkID","hitID","success","view_history","stimulus","key_press","reactionTime","a","r","s","cond","reward_cond","reward_cond_actual","reward_matrix_idx","responses"
"14110.199999988079","consent.html","external-html","0","14205","0.0-0.0","3SITXWYCNWVKV4QWZ7QEIN8537PXBE","A24LB89P1BPKKF","3THR0FZ95PF7SK0MYRNAOUHTWA4OLV","","","","","","","","","","","","",""
"","","fullscreen","1","16217","0.0-1.0","3SITXWYCNWVKV4QWZ7QEIN8537PXBE","A24LB89P1BPKKF","3THR0FZ95PF7SK0MYRNAOUHTWA4OLV","true","","","","","","","","","","","",""
"111648.40000003576","","instructions","2","127868","0.0-2.0","3SITXWYCNWVKV4QWZ7QEIN8537PXBE","A24LB89P1BPKKF","3THR0FZ95PF7SK0MYRNAOUHTWA4OLV","","[{""page_index"":0,""viewing_time"":37511.30000001192},{""page_index"":1,""viewing_time"":7610.100000023842},{""page_index"":2,""viewing_time"":8978},{""page_index"":3,""viewing_time"":31792.299999952316},{""page_index"":4,""viewing_time"":7253.400000035763},{""page_index"":5,""viewing_time"":14648.300000011921},{""page_index"":6,""viewing_time"":3854.099999964237}]","","","","","","","","","","",""
"23199.899999976158","","instructions","3","151069","0.0-3.0","3SITXWYCNWVKV4QWZ7QEIN8537PXBE","A24LB89P1BPKKF","3THR0FZ95PF7SK0MYRNAOUHTWA4OLV","","[{""page_index"":0,""viewing_time"":23198.69999998808}]","","","","","","","","","","",""
"679.6999999880791","","image-keyboard-response","4","151753","0.0-4.0","3SITXWYCNWVKV4QWZ7QEIN8537PXBE","A24LB89P1BPKKF","3THR0FZ95PF7SK0MYRNAOUHTWA4OLV","","","img/flower4.png","74","683.1999999880791","1","1","1","","","","",""
"null","","html-keyboard-response","5","152071","0.0-5.0","3SITXWYCNWVKV4QWZ7QEIN8537PXBE","A24LB89P1BPKKF","3THR0FZ95PF7SK0MYRNAOUHTWA4OLV","","","<img src=""img/flower4.png"" style=""width:200px; border:14px solid green;"">","null","","","","","","","","",""
"731.0999999642372","","image-keyboard-response","6","152804","0.0-6.0","3SITXWYCNWVKV4QWZ7QEIN8537PXBE","A24LB89P1BPKKF","3THR0FZ95PF7SK0MYRNAOUHTWA4OLV","","","img/flower4.png","74","733.3000000119209","1","0","1","","","","",""
"null","","html-keyboard-response","7","153110","0.0-7.0","3SITXWYCNWVKV4QWZ7QEIN8537PXBE","A24LB89P1BPKKF","3THR0FZ95PF7SK0MYRNAOUHTWA4OLV","","","<img src=""img/flower4.png"" style=""width:200px;border:14px solid red;"">","null","","","","","","","","",""
"1186.3999999761581","","image-keyboard-response","8","154299","0.0-8.0","3SITXWYCNWVKV4QWZ7QEIN8537PXBE","A24LB89P1BPKKF","3THR0FZ95PF7SK0MYRNAOUHTWA4OLV","","","img/flower4.png","74","1187.8999999761581","1","1","1","","","","",""
"null","","html-keyboard-response","9","154606","0.0-9.0","3SITXWYCNWVKV4QWZ7QEIN8537PXBE","A24LB89P1BPKKF","3THR0FZ95PF7SK0MYRNAOUHTWA4OLV","","","<img src=""img/flower4.png"" style=""width:200px; border:14px solid green;"">","null","","","","","","","","",""
"465","","image-keyboard-response","10","155074","0.0-10.0","3SITXWYCNWVKV4QWZ7QEIN8537PXBE","A24LB89P1BPKKF","3THR0FZ95PF7SK0MYRNAOUHTWA4OLV","","","img/flower4.png","74","467.0999999642372","1","1","1","","","","",""
"null","","html-keyboard-response","11","155381","0.0-11.0","3SITXWYCNWVKV4QWZ7QEIN8537PXBE","A24LB89P1BPKKF","3THR0FZ95PF7SK0MYRNAOUHTWA4OLV","","","<img src=""img/flower4.png"" style=""width:200px; border:14px solid green;"">","null","","","","","","","","",""
"337.89999997615814","","image-keyboard-response","12","155722","0.0-12.0","3SITXWYCNWVKV4QWZ7QEIN8537PXBE","A24LB89P1BPKKF","3THR0FZ95PF7SK0MYRNAOUHTWA4OLV","","","img/flower4.png","74","340.10000002384186","1","0","1","","","","",""
"null","","html-keyboard-response","13","156035","0.0-13.0","3SITXWYCNWVKV4QWZ7QEIN8537PXBE","A24LB89P1BPKKF","3THR0FZ95PF7SK0MYRNAOUHTWA4OLV","","","<img src=""img/flower4.png"" style=""width:200px;border:14px solid red;"">","null","","","","","","","","",""
"686.9000000357628","","image-keyboard-response","14","156723","0.0-14.0","3SITXWYCNWVKV4QWZ7QEIN8537PXBE","A24LB89P1BPKKF","3THR0FZ95PF7SK0MYRNAOUHTWA4OLV","","","img/flower5.png","75","688.7000000476837","2","1","2","","","","",""
"null","","html-keyboard-response","15","157029","0.0-15.0","3SITXWYCNWVKV4QWZ7QEIN8537PXBE","A24LB89P1BPKKF","3THR0FZ95PF7SK0MYRNAOUHTWA4OLV","","","<img src=""img/flower5.png"" style=""width:200px; border:14px solid green;"">","null","","","","","","","","",""
"266.89999997615814","","image-keyboard-response","16","157298","0.0-16.0","3SITXWYCNWVKV4QWZ7QEIN8537PXBE","A24LB89P1BPKKF","3THR0FZ95PF7SK0MYRNAOUHTWA4OLV","","","img/flower5.png","75","268.7999999523163","2","1","2","","","","",""
"null","","html-keyboard-response","17","157606","0.0-17.0","3SITXWYCNWVKV4QWZ7QEIN8537PXBE","A24LB89P1BPKKF","3THR0FZ95PF7SK0MYRNAOUHTWA4OLV","","","<img src=""img/flower5.png"" style=""width:200px; border:14px solid green;"">","null","","","","","","","","",""
"341.7999999523163","","image-keyboard-response","18","157950","0.0-18.0","3SITXWYCNWVKV4QWZ7QEIN8537PXBE","A24LB89P1BPKKF","3THR0FZ95PF7SK0MYRNAOUHTWA4OLV","","","img/flower5.png","75","344.19999998807907","2","1","2","","","","",""
"null","","html-keyboard-response","19","158260","0.0-19.0","3SITXWYCNWVKV4QWZ7QEIN8537PXBE","A24LB89P1BPKKF","3THR0FZ95PF7SK0MYRNAOUHTWA4OLV","","","<img src=""img/flower5.png"" style=""width:200px; border:14px solid green;"">","null","","","","","","","","",""
"505.7000000476837","","image-keyboard-response","20","158768","0.0-20.0","3SITXWYCNWVKV4QWZ7QEIN8537PXBE","A24LB89P1BPKKF","3THR0FZ95PF7SK0MYRNAOUHTWA4OLV","","","img/flower6.png","76","507.69999998807907","3","0","3","","","","",""
"null","","html-keyboard-response","21","159083","0.0-21.0","3SITXWYCNWVKV4QWZ7QEIN8537PXBE","A24LB89P1BPKKF","3THR0FZ95PF7SK0MYRNAOUHTWA4OLV","","","<img src=""img/flower6.png"" style=""width:200px;border:14px solid red;"">","null","","","","","","","","",""
"178.60000002384186","","image-keyboard-response","22","159264","0.0-22.0","3SITXWYCNWVKV4QWZ7QEIN8537PXBE","A24LB89P1BPKKF","3THR0FZ95PF7SK0MYRNAOUHTWA4OLV","","","img/flower6.png","76","180.9000000357628","3","0","3","","","","",""
"null","","html-keyboard-response","23","159579","0.0-23.0","3SITXWYCNWVKV4QWZ7QEIN8537PXBE","A24LB89P1BPKKF","3THR0FZ95PF7SK0MYRNAOUHTWA4OLV","","","<img src=""img/flower6.png"" style=""width:200px;border:14px solid red;"">","null","","","","","","","","",""
"284.0999999642372","","image-keyboard-response","24","159865","0.0-24.0","3SITXWYCNWVKV4QWZ7QEIN8537PXBE","A24LB89P1BPKKF","3THR0FZ95PF7SK0MYRNAOUHTWA4OLV","","","img/flower6.png","76","285.69999998807907","3","1","3","","","","",""
"null","","html-keyboard-response","25","160169","0.0-25.0","3SITXWYCNWVKV4QWZ7QEIN8537PXBE","A24LB89P1BPKKF","3THR0FZ95PF7SK0MYRNAOUHTWA4OLV","","","<img src=""img/flower6.png"" style=""width:200px; border:14px solid green;"">","null","","","","","","","","",""
"345.80000001192093","","image-keyboard-response","26","160517","0.0-26.0","3SITXWYCNWVKV4QWZ7QEIN8537PXBE","A24LB89P1BPKKF","3THR0FZ95PF7SK0MYRNAOUHTWA4OLV","","","img/flower6.png","76","347.7000000476837","3","1","3","","","","",""
"null","","html-keyboard-response","27","160827","0.0-27.0","3SITXWYCNWVKV4QWZ7QEIN8537PXBE","A24LB89P1BPKKF","3THR0FZ95PF7SK0MYRNAOUHTWA4OLV","","","<img src=""img/flower6.png"" style=""width:200px; border:14px solid green;"">","null","","","","","","","","",""
"1239.300000011921","","image-keyboard-response","28","162070","0.0-28.0","3SITXWYCNWVKV4QWZ7QEIN8537PXBE","A24LB89P1BPKKF","3THR0FZ95PF7SK0MYRNAOUHTWA4OLV","","","img/flower5.png","75","1242","2","1","2","","","","",""
"null","","html-keyboard-response","29","162387","0.0-29.0","3SITXWYCNWVKV4QWZ7QEIN8537PXBE","A24LB89P1BPKKF","3THR0FZ95PF7SK0MYRNAOUHTWA4OLV","","","<img src=""img/flower5.png"" style=""width:200px; border:14px solid green;"">","null","","","","","","","","",""
"562.5","","image-keyboard-response","30","162951","0.0-30.0","3SITXWYCNWVKV4QWZ7QEIN8537PXBE","A24LB89P1BPKKF","3THR0FZ95PF7SK0MYRNAOUHTWA4OLV","","","img/flower4.png","74","563.3999999761581","1","1","1","","","","",""
"null","","html-keyboard-response","31","163260","0.0-31.0","3SITXWYCNWVKV4QWZ7QEIN8537PXBE","A24LB89P1BPKKF","3THR0FZ95PF7SK0MYRNAOUHTWA4OLV","","","<img src=""img/flower4.png"" style=""width:200px; border:14px solid green;"">","null","","","","","","","","",""
"801.5","","image-keyboard-response","32","164064","0.0-32.0","3SITXWYCNWVKV4QWZ7QEIN8537PXBE","A24LB89P1BPKKF","3THR0FZ95PF7SK0MYRNAOUHTWA4OLV","","","img/flower5.png","75","803.3000000119209","2","1","2","","","","",""
"null","","html-keyboard-response","33","164367","0.0-33.0","3SITXWYCNWVKV4QWZ7QEIN8537PXBE","A24LB89P1BPKKF","3THR0FZ95PF7SK0MYRNAOUHTWA4OLV","","","<img src=""img/flower5.png"" style=""width:200px; border:14px solid green;"">","null","","","","","","","","",""
"1043.800000011921","","image-keyboard-response","34","165412","0.0-34.0","3SITXWYCNWVKV4QWZ7QEIN8537PXBE","A24LB89P1BPKKF","3THR0FZ95PF7SK0MYRNAOUHTWA4OLV","","","img/flower4.png","74","1045.2000000476837","1","1","1","","","","",""
"null","","html-keyboard-response","35","165722","0.0-35.0","3SITXWYCNWVKV4QWZ7QEIN8537PXBE","A24LB89P1BPKKF","3THR0FZ95PF7SK0MYRNAOUHTWA4OLV","","","<img src=""img/flower4.png"" style=""width:200px; border:14px solid green;"">","null","","","","","","","","",""
"469.89999997615814","","image-keyboard-response","36","166195","0.0-36.0","3SITXWYCNWVKV4QWZ7QEIN8537PXBE","A24LB89P1BPKKF","3THR0FZ95PF7SK0MYRNAOUHTWA4OLV","","","img/flower5.png","75","471.80000001192093","2","1","2","","","","",""
"null","","html-keyboard-response","37","166503","0.0-37.0","3SITXWYCNWVKV4QWZ7QEIN8537PXBE","A24LB89P1BPKKF","3THR0FZ95PF7SK0MYRNAOUHTWA4OLV","","","<img src=""img/flower5.png"" style=""width:200px; border:14px solid green;"">","null","","","","","","","","",""
"419.5999999642372","","image-keyboard-response","38","166925","0.0-38.0","3SITXWYCNWVKV4QWZ7QEIN8537PXBE","A24LB89P1BPKKF","3THR0FZ95PF7SK0MYRNAOUHTWA4OLV","","","img/flower5.png","75","421.4000000357628","2","1","2","","","","",""
"null","","html-keyboard-response","39","167240","0.0-39.0","3SITXWYCNWVKV4QWZ7QEIN8537PXBE","A24LB89P1BPKKF","3THR0FZ95PF7SK0MYRNAOUHTWA4OLV","","","<img src=""img/flower5.png"" style=""width:200px; border:14px solid green;"">","null","","","","","","","","",""
"586.5","","image-keyboard-response","40","167829","0.0-40.0","3SITXWYCNWVKV4QWZ7QEIN8537PXBE","A24LB89P1BPKKF","3THR0FZ95PF7SK0MYRNAOUHTWA4OLV","","","img/flower6.png","76","588.8000000119209","3","1","3","","","","",""
"null","","html-keyboard-response","41","168147","0.0-41.0","3SITXWYCNWVKV4QWZ7QEIN8537PXBE","A24LB89P1BPKKF","3THR0FZ95PF7SK0MYRNAOUHTWA4OLV","","","<img src=""img/flower6.png"" style=""width:200px; border:14px solid green;"">","null","","","","","","","","",""
"573.3000000119209","","image-keyboard-response","42","168723","0.0-42.0","3SITXWYCNWVKV4QWZ7QEIN8537PXBE","A24LB89P1BPKKF","3THR0FZ95PF7SK0MYRNAOUHTWA4OLV","","","img/flower4.png","74","575.8000000119209","1","1","1","","","","",""
"null","","html-keyboard-response","43","169031","0.0-43.0","3SITXWYCNWVKV4QWZ7QEIN8537PXBE","A24LB89P1BPKKF","3THR0FZ95PF7SK0MYRNAOUHTWA4OLV","","","<img src=""img/flower4.png"" style=""width:200px; border:14px solid green;"">","null","","","","","","","","",""
"843.0999999642372","","image-keyboard-response","44","169876","0.0-44.0","3SITXWYCNWVKV4QWZ7QEIN8537PXBE","A24LB89P1BPKKF","3THR0FZ95PF7SK0MYRNAOUHTWA4OLV","","","img/flower5.png","75","844.6000000238419","2","1","2","","","","",""
"null","","html-keyboard-response","45","170186","0.0-45.0","3SITXWYCNWVKV4QWZ7QEIN8537PXBE","A24LB89P1BPKKF","3THR0FZ95PF7SK0MYRNAOUHTWA4OLV","","","<img src=""img/flower5.png"" style=""width:200px; border:14px solid green;"">","null","","","","","","","","",""
"1019.0999999642372","","image-keyboard-response","46","171208","0.0-46.0","3SITXWYCNWVKV4QWZ7QEIN8537PXBE","A24LB89P1BPKKF","3THR0FZ95PF7SK0MYRNAOUHTWA4OLV","","","img/flower4.png","74","1021.0999999642372","1","1","1","","","","",""
"null","","html-keyboard-response","47","171522","0.0-47.0","3SITXWYCNWVKV4QWZ7QEIN8537PXBE","A24LB89P1BPKKF","3THR0FZ95PF7SK0MYRNAOUHTWA4OLV","","","<img src=""img/flower4.png"" style=""width:200px; border:14px solid green;"">","null","","","","","","","","",""
"643.1000000238419","","image-keyboard-response","48","172167","0.0-48.0","3SITXWYCNWVKV4QWZ7QEIN8537PXBE","A24LB89P1BPKKF","3THR0FZ95PF7SK0MYRNAOUHTWA4OLV","","","img/flower5.png","75","644.3999999761581","2","1","2","","","","",""
"null","","html-keyboard-response","49","172481","0.0-49.0","3SITXWYCNWVKV4QWZ7QEIN8537PXBE","A24LB89P1BPKKF","3THR0FZ95PF7SK0MYRNAOUHTWA4OLV","","","<img src=""img/flower5.png"" style=""width:200px; border:14px solid green;"">","null","","","","","","","","",""
"621.5999999642372","","image-keyboard-response","50","173105","0.0-50.0","3SITXWYCNWVKV4QWZ7QEIN8537PXBE","A24LB89P1BPKKF","3THR0FZ95PF7SK0MYRNAOUHTWA4OLV","","","img/flower5.png","75","622.9000000357628","2","1","2","","","","",""
"null","","html-keyboard-response","51","173420","0.0-51.0","3SITXWYCNWVKV4QWZ7QEIN8537PXBE","A24LB89P1BPKKF","3THR0FZ95PF7SK0MYRNAOUHTWA4OLV","","","<img src=""img/flower5.png"" style=""width:200px; border:14px solid green;"">","null","","","","","","","","",""
"591.5","","image-keyboard-response","52","174012","0.0-52.0","3SITXWYCNWVKV4QWZ7QEIN8537PXBE","A24LB89P1BPKKF","3THR0FZ95PF7SK0MYRNAOUHTWA4OLV","","","img/flower6.png","76","592.3000000119209","3","1","3","","","","",""
"null","","html-keyboard-response","53","174321","0.0-53.0","3SITXWYCNWVKV4QWZ7QEIN8537PXBE","A24LB89P1BPKKF","3THR0FZ95PF7SK0MYRNAOUHTWA4OLV","","","<img src=""img/flower6.png"" style=""width:200px; border:14px solid green;"">","null","","","","","","","","",""
"709.3000000119209","","image-keyboard-response","54","175031","0.0-54.0","3SITXWYCNWVKV4QWZ7QEIN8537PXBE","A24LB89P1BPKKF","3THR0FZ95PF7SK0MYRNAOUHTWA4OLV","","","img/flower6.png","76","710.4000000357628","3","1","3","","","","",""
"null","","html-keyboard-response","55","175335","0.0-55.0","3SITXWYCNWVKV4QWZ7QEIN8537PXBE","A24LB89P1BPKKF","3THR0FZ95PF7SK0MYRNAOUHTWA4OLV","","","<img src=""img/flower6.png"" style=""width:200px; border:14px solid green;"">","null","","","","","","","","",""
"310.4000000357628","","image-keyboard-response","56","175646","0.0-56.0","3SITXWYCNWVKV4QWZ7QEIN8537PXBE","A24LB89P1BPKKF","3THR0FZ95PF7SK0MYRNAOUHTWA4OLV","","","img/flower6.png","76","311.10000002384186","3","1","3","","","","",""
"null","","html-keyboard-response","57","175952","0.0-57.0","3SITXWYCNWVKV4QWZ7QEIN8537PXBE","A24LB89P1BPKKF","3THR0FZ95PF7SK0MYRNAOUHTWA4OLV","","","<img src=""img/flower6.png"" style=""width:200px; border:14px solid green;"">","null","","","","","","","","",""
"333.7000000476837","","image-keyboard-response","58","176287","0.0-58.0","3SITXWYCNWVKV4QWZ7QEIN8537PXBE","A24LB89P1BPKKF","3THR0FZ95PF7SK0MYRNAOUHTWA4OLV","","","img/flower6.png","76","334.80000001192093","3","1","3","","","","",""
"null","","html-keyboard-response","59","176594","0.0-59.0","3SITXWYCNWVKV4QWZ7QEIN8537PXBE","A24LB89P1BPKKF","3THR0FZ95PF7SK0MYRNAOUHTWA4OLV","","","<img src=""img/flower6.png"" style=""width:200px; border:14px solid green;"">","null","","","","","","","","",""
"344.5","","image-keyboard-response","60","176940","0.0-60.0","3SITXWYCNWVKV4QWZ7QEIN8537PXBE","A24LB89P1BPKKF","3THR0FZ95PF7SK0MYRNAOUHTWA4OLV","","","img/flower6.png","76","345.5","3","1","3","","","","",""
"null","","html-keyboard-response","61","177255","0.0-61.0","3SITXWYCNWVKV4QWZ7QEIN8537PXBE","A24LB89P1BPKKF","3THR0FZ95PF7SK0MYRNAOUHTWA4OLV","","","<img src=""img/flower6.png"" style=""width:200px; border:14px solid green;"">","null","","","","","","","","",""
"739.9000000357628","","image-keyboard-response","62","177997","0.0-62.0","3SITXWYCNWVKV4QWZ7QEIN8537PXBE","A24LB89P1BPKKF","3THR0FZ95PF7SK0MYRNAOUHTWA4OLV","","","img/flower4.png","74","741.1000000238419","1","1","1","","","","",""
"null","","html-keyboard-response","63","178313","0.0-63.0","3SITXWYCNWVKV4QWZ7QEIN8537PXBE","A24LB89P1BPKKF","3THR0FZ95PF7SK0MYRNAOUHTWA4OLV","","","<img src=""img/flower4.png"" style=""width:200px; border:14px solid green;"">","null","","","","","","","","",""
"15290.400000035763","","instructions","64","193605","0.0-64.0","3SITXWYCNWVKV4QWZ7QEIN8537PXBE","A24LB89P1BPKKF","3THR0FZ95PF7SK0MYRNAOUHTWA4OLV","","[{""page_index"":0,""viewing_time"":2590.800000011921},{""page_index"":1,""viewing_time"":12699.300000011921}]","","","","","","","","","","",""
"1643.1000000238419","","image-keyboard-response","65","195250","0.0-65.0","3SITXWYCNWVKV4QWZ7QEIN8537PXBE","A24LB89P1BPKKF","3THR0FZ95PF7SK0MYRNAOUHTWA4OLV","","","img/flower5.png","75","1644.800000011921","2","1","2","","","","",""
"null","","html-keyboard-response","66","195553","0.0-66.0","3SITXWYCNWVKV4QWZ7QEIN8537PXBE","A24LB89P1BPKKF","3THR0FZ95PF7SK0MYRNAOUHTWA4OLV","","","<img src=""img/flower5.png"" style=""width:200px; border:14px solid green;"">","null","","","","","","","","",""
"438.19999998807907","","image-keyboard-response","67","195993","0.0-67.0","3SITXWYCNWVKV4QWZ7QEIN8537PXBE","A24LB89P1BPKKF","3THR0FZ95PF7SK0MYRNAOUHTWA4OLV","","","img/flower5.png","75","439.30000001192093","2","1","2","","","","",""
"null","","html-keyboard-response","68","196314","0.0-68.0","3SITXWYCNWVKV4QWZ7QEIN8537PXBE","A24LB89P1BPKKF","3THR0FZ95PF7SK0MYRNAOUHTWA4OLV","","","<img src=""img/flower5.png"" style=""width:200px; border:14px solid green;"">","null","","","","","","","","",""
"442.89999997615814","","image-keyboard-response","69","196758","0.0-69.0","3SITXWYCNWVKV4QWZ7QEIN8537PXBE","A24LB89P1BPKKF","3THR0FZ95PF7SK0MYRNAOUHTWA4OLV","","","img/flower5.png","76","444.39999997615814","3","1","2","","","","",""
"null","","html-keyboard-response","70","197062","0.0-70.0","3SITXWYCNWVKV4QWZ7QEIN8537PXBE","A24LB89P1BPKKF","3THR0FZ95PF7SK0MYRNAOUHTWA4OLV","","","<img src=""img/flower5.png"" style=""width:200px; border:14px solid green;"">","null","","","","","","","","",""
"943","","image-keyboard-response","71","198007","0.0-71.0","3SITXWYCNWVKV4QWZ7QEIN8537PXBE","A24LB89P1BPKKF","3THR0FZ95PF7SK0MYRNAOUHTWA4OLV","","","img/flower6.png","76","944.3000000119209","3","1","3","","","","",""
"null","","html-keyboard-response","72","198342","0.0-72.0","3SITXWYCNWVKV4QWZ7QEIN8537PXBE","A24LB89P1BPKKF","3THR0FZ95PF7SK0MYRNAOUHTWA4OLV","","","<img src=""img/flower6.png"" style=""width:200px; border:14px solid green;"">","null","","","","","","","","",""
"358","","image-keyboard-response","73","198702","0.0-73.0","3SITXWYCNWVKV4QWZ7QEIN8537PXBE","A24LB89P1BPKKF","3THR0FZ95PF7SK0MYRNAOUHTWA4OLV","","","img/flower6.png","76","359.39999997615814","3","1","3","","","","",""
"null","","html-keyboard-response","74","199005","0.0-74.0","3SITXWYCNWVKV4QWZ7QEIN8537PXBE","A24LB89P1BPKKF","3THR0FZ95PF7SK0MYRNAOUHTWA4OLV","","","<img src=""img/flower6.png"" style=""width:200px; border:14px solid green;"">","null","","","","","","","","",""
"1022.1999999880791","","image-keyboard-response","75","200028","0.0-75.0","3SITXWYCNWVKV4QWZ7QEIN8537PXBE","A24LB89P1BPKKF","3THR0FZ95PF7SK0MYRNAOUHTWA4OLV","","","img/flower4.png","74","1023.6999999880791","1","1","1","","","","",""
"null","","html-keyboard-response","76","200342","0.0-76.0","3SITXWYCNWVKV4QWZ7QEIN8537PXBE","A24LB89P1BPKKF","3THR0FZ95PF7SK0MYRNAOUHTWA4OLV","","","<img src=""img/flower4.png"" style=""width:200px; border:14px solid green;"">","null","","","","","","","","",""
"782.5","","image-keyboard-response","77","201126","0.0-77.0","3SITXWYCNWVKV4QWZ7QEIN8537PXBE","A24LB89P1BPKKF","3THR0FZ95PF7SK0MYRNAOUHTWA4OLV","","","img/flower5.png","75","784","2","1","2","","","","",""
"null","","html-keyboard-response","78","201435","0.0-78.0","3SITXWYCNWVKV4QWZ7QEIN8537PXBE","A24LB89P1BPKKF","3THR0FZ95PF7SK0MYRNAOUHTWA4OLV","","","<img src=""img/flower5.png"" style=""width:200px; border:14px solid green;"">","null","","","","","","","","",""
"327.60000002384186","","image-keyboard-response","79","201765","0.0-79.0","3SITXWYCNWVKV4QWZ7QEIN8537PXBE","A24LB89P1BPKKF","3THR0FZ95PF7SK0MYRNAOUHTWA4OLV","","","img/flower5.png","75","329.5","2","1","2","","","","",""
"null","","html-keyboard-response","80","202081","0.0-80.0","3SITXWYCNWVKV4QWZ7QEIN8537PXBE","A24LB89P1BPKKF","3THR0FZ95PF7SK0MYRNAOUHTWA4OLV","","","<img src=""img/flower5.png"" style=""width:200px; border:14px solid green;"">","null","","","","","","","","",""
"732","","image-keyboard-response","81","202815","0.0-81.0","3SITXWYCNWVKV4QWZ7QEIN8537PXBE","A24LB89P1BPKKF","3THR0FZ95PF7SK0MYRNAOUHTWA4OLV","","","img/flower5.png","75","733.3999999761581","2","1","2","","","","",""
"null","","html-keyboard-response","82","203131","0.0-82.0","3SITXWYCNWVKV4QWZ7QEIN8537PXBE","A24LB89P1BPKKF","3THR0FZ95PF7SK0MYRNAOUHTWA4OLV","","","<img src=""img/flower5.png"" style=""width:200px; border:14px solid green;"">","null","","","","","","","","",""
"931.8000000119209","","image-keyboard-response","83","204065","0.0-83.0","3SITXWYCNWVKV4QWZ7QEIN8537PXBE","A24LB89P1BPKKF","3THR0FZ95PF7SK0MYRNAOUHTWA4OLV","","","img/flower6.png","75","933.8999999761581","2","0","3","","","","",""
"null","","html-keyboard-response","84","204371","0.0-84.0","3SITXWYCNWVKV4QWZ7QEIN8537PXBE","A24LB89P1BPKKF","3THR0FZ95PF7SK0MYRNAOUHTWA4OLV","","","<img src=""img/flower6.png"" style=""width:200px;border:14px solid red;"">","null","","","","","","","","",""
"873.6000000238419","","image-keyboard-response","85","205247","0.0-85.0","3SITXWYCNWVKV4QWZ7QEIN8537PXBE","A24LB89P1BPKKF","3THR0FZ95PF7SK0MYRNAOUHTWA4OLV","","","img/flower5.png","75","875.5","2","1","2","","","","",""
"null","","html-keyboard-response","86","205563","0.0-86.0","3SITXWYCNWVKV4QWZ7QEIN8537PXBE","A24LB89P1BPKKF","3THR0FZ95PF7SK0MYRNAOUHTWA4OLV","","","<img src=""img/flower5.png"" style=""width:200px; border:14px solid green;"">","null","","","","","","","","",""
"895.5","","image-keyboard-response","87","206460","0.0-87.0","3SITXWYCNWVKV4QWZ7QEIN8537PXBE","A24LB89P1BPKKF","3THR0FZ95PF7SK0MYRNAOUHTWA4OLV","","","img/flower4.png","75","896.8999999761581","2","1","1","","","","",""
"null","","html-keyboard-response","88","206771","0.0-88.0","3SITXWYCNWVKV4QWZ7QEIN8537PXBE","A24LB89P1BPKKF","3THR0FZ95PF7SK0MYRNAOUHTWA4OLV","","","<img src=""img/flower4.png"" style=""width:200px; border:14px solid green;"">","null","","","","","","","","",""
"367.80000001192093","","image-keyboard-response","89","207141","0.0-89.0","3SITXWYCNWVKV4QWZ7QEIN8537PXBE","A24LB89P1BPKKF","3THR0FZ95PF7SK0MYRNAOUHTWA4OLV","","","img/flower4.png","75","369.69999998807907","2","1","1","","","","",""
"null","","html-keyboard-response","90","207456","0.0-90.0","3SITXWYCNWVKV4QWZ7QEIN8537PXBE","A24LB89P1BPKKF","3THR0FZ95PF7SK0MYRNAOUHTWA4OLV","","","<img src=""img/flower4.png"" style=""width:200px; border:14px solid green;"">","null","","","","","","","","",""
"766.6000000238419","","image-keyboard-response","91","208226","0.0-91.0","3SITXWYCNWVKV4QWZ7QEIN8537PXBE","A24LB89P1BPKKF","3THR0FZ95PF7SK0MYRNAOUHTWA4OLV","","","img/flower4.png","75","768.8999999761581","2","0","1","","","","",""
"null","","html-keyboard-response","92","208535","0.0-92.0","3SITXWYCNWVKV4QWZ7QEIN8537PXBE","A24LB89P1BPKKF","3THR0FZ95PF7SK0MYRNAOUHTWA4OLV","","","<img src=""img/flower4.png"" style=""width:200px;border:14px solid red;"">","null","","","","","","","","",""
"1034.300000011921","","image-keyboard-response","93","209572","0.0-93.0","3SITXWYCNWVKV4QWZ7QEIN8537PXBE","A24LB89P1BPKKF","3THR0FZ95PF7SK0MYRNAOUHTWA4OLV","","","img/flower6.png","76","1036.3999999761581","3","1","3","","","","",""
"null","","html-keyboard-response","94","209875","0.0-94.0","3SITXWYCNWVKV4QWZ7QEIN8537PXBE","A24LB89P1BPKKF","3THR0FZ95PF7SK0MYRNAOUHTWA4OLV","","","<img src=""img/flower6.png"" style=""width:200px; border:14px solid green;"">","null","","","","","","","","",""
"923.3000000119209","","image-keyboard-response","95","210801","0.0-95.0","3SITXWYCNWVKV4QWZ7QEIN8537PXBE","A24LB89P1BPKKF","3THR0FZ95PF7SK0MYRNAOUHTWA4OLV","","","img/flower5.png","75","925.1000000238419","2","1","2","","","","",""
"null","","html-keyboard-response","96","211111","0.0-96.0","3SITXWYCNWVKV4QWZ7QEIN8537PXBE","A24LB89P1BPKKF","3THR0FZ95PF7SK0MYRNAOUHTWA4OLV","","","<img src=""img/flower5.png"" style=""width:200px; border:14px solid green;"">","null","","","","","","","","",""
"1401.5999999642372","","image-keyboard-response","97","212516","0.0-97.0","3SITXWYCNWVKV4QWZ7QEIN8537PXBE","A24LB89P1BPKKF","3THR0FZ95PF7SK0MYRNAOUHTWA4OLV","","","img/flower6.png","76","1403.699999988079","3","1","3","","","","",""
"null","","html-keyboard-response","98","212831","0.0-98.0","3SITXWYCNWVKV4QWZ7QEIN8537PXBE","A24LB89P1BPKKF","3THR0FZ95PF7SK0MYRNAOUHTWA4OLV","","","<img src=""img/flower6.png"" style=""width:200px; border:14px solid green;"">","null","","","","","","","","",""
"805.5999999642372","","image-keyboard-response","99","213640","0.0-99.0","3SITXWYCNWVKV4QWZ7QEIN8537PXBE","A24LB89P1BPKKF","3THR0FZ95PF7SK0MYRNAOUHTWA4OLV","","","img/flower6.png","76","808.1999999880791","3","1","3","","","","",""
"null","","html-keyboard-response","100","213955","0.0-100.0","3SITXWYCNWVKV4QWZ7QEIN8537PXBE","A24LB89P1BPKKF","3THR0FZ95PF7SK0MYRNAOUHTWA4OLV","","","<img src=""img/flower6.png"" style=""width:200px; border:14px solid green;"">","null","","","","","","","","",""
"854.6000000238419","","image-keyboard-response","101","214814","0.0-101.0","3SITXWYCNWVKV4QWZ7QEIN8537PXBE","A24LB89P1BPKKF","3THR0FZ95PF7SK0MYRNAOUHTWA4OLV","","","img/flower5.png","75","856.8999999761581","2","0","2","","","","",""
"null","","html-keyboard-response","102","215123","0.0-102.0","3SITXWYCNWVKV4QWZ7QEIN8537PXBE","A24LB89P1BPKKF","3THR0FZ95PF7SK0MYRNAOUHTWA4OLV","","","<img src=""img/flower5.png"" style=""width:200px;border:14px solid red;"">","null","","","","","","","","",""
"1436.0999999642372","","image-keyboard-response","103","216561","0.0-103.0","3SITXWYCNWVKV4QWZ7QEIN8537PXBE","A24LB89P1BPKKF","3THR0FZ95PF7SK0MYRNAOUHTWA4OLV","","","img/flower4.png","74","1437.6000000238419","1","1","1","","","","",""
"null","","html-keyboard-response","104","216877","0.0-104.0","3SITXWYCNWVKV4QWZ7QEIN8537PXBE","A24LB89P1BPKKF","3THR0FZ95PF7SK0MYRNAOUHTWA4OLV","","","<img src=""img/flower4.png"" style=""width:200px; border:14px solid green;"">","null","","","","","","","","",""
"1817.800000011921","","image-keyboard-response","105","218697","0.0-105.0","3SITXWYCNWVKV4QWZ7QEIN8537PXBE","A24LB89P1BPKKF","3THR0FZ95PF7SK0MYRNAOUHTWA4OLV","","","img/flower6.png","76","1819.7000000476837","3","1","3","","","","",""
"null","","html-keyboard-response","106","219004","0.0-106.0","3SITXWYCNWVKV4QWZ7QEIN8537PXBE","A24LB89P1BPKKF","3THR0FZ95PF7SK0MYRNAOUHTWA4OLV","","","<img src=""img/flower6.png"" style=""width:200px; border:14px solid green;"">","null","","","","","","","","",""
"1085.3999999761581","","image-keyboard-response","107","220091","0.0-107.0","3SITXWYCNWVKV4QWZ7QEIN8537PXBE","A24LB89P1BPKKF","3THR0FZ95PF7SK0MYRNAOUHTWA4OLV","","","img/flower4.png","74","1086.800000011921","1","1","1","","","","",""
"null","","html-keyboard-response","108","220403","0.0-108.0","3SITXWYCNWVKV4QWZ7QEIN8537PXBE","A24LB89P1BPKKF","3THR0FZ95PF7SK0MYRNAOUHTWA4OLV","","","<img src=""img/flower4.png"" style=""width:200px; border:14px solid green;"">","null","","","","","","","","",""
"2353.800000011921","","image-keyboard-response","109","222759","0.0-109.0","3SITXWYCNWVKV4QWZ7QEIN8537PXBE","A24LB89P1BPKKF","3THR0FZ95PF7SK0MYRNAOUHTWA4OLV","","","img/flower5.png","75","2355.899999976158","2","0","2","","","","",""
"null","","html-keyboard-response","110","223071","0.0-110.0","3SITXWYCNWVKV4QWZ7QEIN8537PXBE","A24LB89P1BPKKF","3THR0FZ95PF7SK0MYRNAOUHTWA4OLV","","","<img src=""img/flower5.png"" style=""width:200px;border:14px solid red;"">","null","","","","","","","","",""
"1264.800000011921","","image-keyboard-response","111","224338","0.0-111.0","3SITXWYCNWVKV4QWZ7QEIN8537PXBE","A24LB89P1BPKKF","3THR0FZ95PF7SK0MYRNAOUHTWA4OLV","","","img/flower6.png","76","1266.6000000238419","3","1","3","","","","",""
"null","","html-keyboard-response","112","224643","0.0-112.0","3SITXWYCNWVKV4QWZ7QEIN8537PXBE","A24LB89P1BPKKF","3THR0FZ95PF7SK0MYRNAOUHTWA4OLV","","","<img src=""img/flower6.png"" style=""width:200px; border:14px solid green;"">","null","","","","","","","","",""
"419.5","","image-keyboard-response","113","225065","0.0-113.0","3SITXWYCNWVKV4QWZ7QEIN8537PXBE","A24LB89P1BPKKF","3THR0FZ95PF7SK0MYRNAOUHTWA4OLV","","","img/flower6.png","76","421.30000001192093","3","1","3","","","","",""
"null","","html-keyboard-response","114","225376","0.0-114.0","3SITXWYCNWVKV4QWZ7QEIN8537PXBE","A24LB89P1BPKKF","3THR0FZ95PF7SK0MYRNAOUHTWA4OLV","","","<img src=""img/flower6.png"" style=""width:200px; border:14px solid green;"">","null","","","","","","","","",""
"753.1999999880791","","image-keyboard-response","115","226131","0.0-115.0","3SITXWYCNWVKV4QWZ7QEIN8537PXBE","A24LB89P1BPKKF","3THR0FZ95PF7SK0MYRNAOUHTWA4OLV","","","img/flower4.png","74","754.8999999761581","1","1","1","","","","",""
"null","","html-keyboard-response","116","226436","0.0-116.0","3SITXWYCNWVKV4QWZ7QEIN8537PXBE","A24LB89P1BPKKF","3THR0FZ95PF7SK0MYRNAOUHTWA4OLV","","","<img src=""img/flower4.png"" style=""width:200px; border:14px solid green;"">","null","","","","","","","","",""
"391.60000002384186","","image-keyboard-response","117","226830","0.0-117.0","3SITXWYCNWVKV4QWZ7QEIN8537PXBE","A24LB89P1BPKKF","3THR0FZ95PF7SK0MYRNAOUHTWA4OLV","","","img/flower4.png","74","393.2999999523163","1","1","1","","","","",""
"null","","html-keyboard-response","118","227139","0.0-118.0","3SITXWYCNWVKV4QWZ7QEIN8537PXBE","A24LB89P1BPKKF","3THR0FZ95PF7SK0MYRNAOUHTWA4OLV","","","<img src=""img/flower4.png"" style=""width:200px; border:14px solid green;"">","null","","","","","","","","",""
"832.3000000119209","","image-keyboard-response","119","227974","0.0-119.0","3SITXWYCNWVKV4QWZ7QEIN8537PXBE","A24LB89P1BPKKF","3THR0FZ95PF7SK0MYRNAOUHTWA4OLV","","","img/flower6.png","76","834.3000000119209","3","1","3","","","","",""
"null","","html-keyboard-response","120","228287","0.0-120.0","3SITXWYCNWVKV4QWZ7QEIN8537PXBE","A24LB89P1BPKKF","3THR0FZ95PF7SK0MYRNAOUHTWA4OLV","","","<img src=""img/flower6.png"" style=""width:200px; border:14px solid green;"">","null","","","","","","","","",""
"1025.4000000357628","","image-keyboard-response","121","229314","0.0-121.0","3SITXWYCNWVKV4QWZ7QEIN8537PXBE","A24LB89P1BPKKF","3THR0FZ95PF7SK0MYRNAOUHTWA4OLV","","","img/flower4.png","76","1027.1000000238419","3","0","1","","","","",""
"null","","html-keyboard-response","122","229624","0.0-122.0","3SITXWYCNWVKV4QWZ7QEIN8537PXBE","A24LB89P1BPKKF","3THR0FZ95PF7SK0MYRNAOUHTWA4OLV","","","<img src=""img/flower4.png"" style=""width:200px;border:14px solid red;"">","null","","","","","","","","",""
"630.1000000238419","","image-keyboard-response","123","230257","0.0-123.0","3SITXWYCNWVKV4QWZ7QEIN8537PXBE","A24LB89P1BPKKF","3THR0FZ95PF7SK0MYRNAOUHTWA4OLV","","","img/flower4.png","75","632","2","1","1","","","","",""
"null","","html-keyboard-response","124","230564","0.0-124.0","3SITXWYCNWVKV4QWZ7QEIN8537PXBE","A24LB89P1BPKKF","3THR0FZ95PF7SK0MYRNAOUHTWA4OLV","","","<img src=""img/flower4.png"" style=""width:200px; border:14px solid green;"">","null","","","","","","","","",""
"2462","","instructions","125","233027","0.0-125.0","3SITXWYCNWVKV4QWZ7QEIN8537PXBE","A24LB89P1BPKKF","3THR0FZ95PF7SK0MYRNAOUHTWA4OLV","","[{""page_index"":0,""viewing_time"":2461.599999964237}]","","","","","","","","","","",""
"1077.5999999642372","","image-keyboard-response","126","234106","0.0-126.0","3SITXWYCNWVKV4QWZ7QEIN8537PXBE","A24LB89P1BPKKF","3THR0FZ95PF7SK0MYRNAOUHTWA4OLV","","","img/flower3.png","74","1079.0999999642372","1","1","2","2","1,0,0,1,1,0,1,0,1","1,0,0,1,1,0,1,0,1","1",""
"null","","html-keyboard-response","127","234423","0.0-127.0","3SITXWYCNWVKV4QWZ7QEIN8537PXBE","A24LB89P1BPKKF","3THR0FZ95PF7SK0MYRNAOUHTWA4OLV","","","<img src=""img/flower3.png"" style=""width:200px; border:14px solid green;"">","null","","","","","","","","",""
"738.3999999761581","","image-keyboard-response","128","235163","0.0-128.0","3SITXWYCNWVKV4QWZ7QEIN8537PXBE","A24LB89P1BPKKF","3THR0FZ95PF7SK0MYRNAOUHTWA4OLV","","","img/flower5.png","75","739.8000000119209","2","0","3","2","1,0,0,1,1,0,1,0,1","1,0,0,1,1,0,1,0,1","1",""
"null","","html-keyboard-response","129","235473","0.0-129.0","3SITXWYCNWVKV4QWZ7QEIN8537PXBE","A24LB89P1BPKKF","3THR0FZ95PF7SK0MYRNAOUHTWA4OLV","","","<img src=""img/flower5.png"" style=""width:200px;border:14px solid red;"">","null","","","","","","","","",""
"518.8000000119209","","image-keyboard-response","130","235993","0.0-130.0","3SITXWYCNWVKV4QWZ7QEIN8537PXBE","A24LB89P1BPKKF","3THR0FZ95PF7SK0MYRNAOUHTWA4OLV","","","img/flower5.png","75","519.6999999880791","2","0","3","2","1,0,0,1,1,0,1,0,1","1,0,0,1,1,0,1,0,1","1",""
"null","","html-keyboard-response","131","236297","0.0-131.0","3SITXWYCNWVKV4QWZ7QEIN8537PXBE","A24LB89P1BPKKF","3THR0FZ95PF7SK0MYRNAOUHTWA4OLV","","","<img src=""img/flower5.png"" style=""width:200px;border:14px solid red;"">","null","","","","","","","","",""
"928.8999999761581","","image-keyboard-response","132","237228","0.0-132.0","3SITXWYCNWVKV4QWZ7QEIN8537PXBE","A24LB89P1BPKKF","3THR0FZ95PF7SK0MYRNAOUHTWA4OLV","","","img/flower4.png","74","930.1999999880791","1","1","1","2","1,0,0,1,1,0,1,0,1","1,0,0,1,1,0,1,0,1","1",""
"null","","html-keyboard-response","133","237538","0.0-133.0","3SITXWYCNWVKV4QWZ7QEIN8537PXBE","A24LB89P1BPKKF","3THR0FZ95PF7SK0MYRNAOUHTWA4OLV","","","<img src=""img/flower4.png"" style=""width:200px; border:14px solid green;"">","null","","","","","","","","",""
"1045.5","","image-keyboard-response","134","238587","0.0-134.0","3SITXWYCNWVKV4QWZ7QEIN8537PXBE","A24LB89P1BPKKF","3THR0FZ95PF7SK0MYRNAOUHTWA4OLV","","","img/flower3.png","75","1048.1000000238419","2","1","2","2","1,0,0,1,1,0,1,0,1","1,0,0,1,1,0,1,0,1","1",""
"null","","html-keyboard-response","135","238904","0.0-135.0","3SITXWYCNWVKV4QWZ7QEIN8537PXBE","A24LB89P1BPKKF","3THR0FZ95PF7SK0MYRNAOUHTWA4OLV","","","<img src=""img/flower3.png"" style=""width:200px; border:14px solid green;"">","null","","","","","","","","",""
"856.5","","image-keyboard-response","136","239763","0.0-136.0","3SITXWYCNWVKV4QWZ7QEIN8537PXBE","A24LB89P1BPKKF","3THR0FZ95PF7SK0MYRNAOUHTWA4OLV","","","img/flower4.png","74","858","1","1","1","2","1,0,0,1,1,0,1,0,1","1,0,0,1,1,0,1,0,1","1",""
"null","","html-keyboard-response","137","240079","0.0-137.0","3SITXWYCNWVKV4QWZ7QEIN8537PXBE","A24LB89P1BPKKF","3THR0FZ95PF7SK0MYRNAOUHTWA4OLV","","","<img src=""img/flower4.png"" style=""width:200px; border:14px solid green;"">","null","","","","","","","","",""
"478.30000001192093","","image-keyboard-response","138","240559","0.0-138.0","3SITXWYCNWVKV4QWZ7QEIN8537PXBE","A24LB89P1BPKKF","3THR0FZ95PF7SK0MYRNAOUHTWA4OLV","","","img/flower3.png","75","480.19999998807907","2","1","2","2","1,0,0,1,1,0,1,0,1","1,0,0,1,1,0,1,0,1","1",""
"null","","html-keyboard-response","139","240875","0.0-139.0","3SITXWYCNWVKV4QWZ7QEIN8537PXBE","A24LB89P1BPKKF","3THR0FZ95PF7SK0MYRNAOUHTWA4OLV","","","<img src=""img/flower3.png"" style=""width:200px; border:14px solid green;"">","null","","","","","","","","",""
"371.5","","image-keyboard-response","140","241248","0.0-140.0","3SITXWYCNWVKV4QWZ7QEIN8537PXBE","A24LB89P1BPKKF","3THR0FZ95PF7SK0MYRNAOUHTWA4OLV","","","img/flower3.png","75","372.39999997615814","2","1","2","2","1,0,0,1,1,0,1,0,1","1,0,0,1,1,0,1,0,1","1",""
"null","","html-keyboard-response","141","241549","0.0-141.0","3SITXWYCNWVKV4QWZ7QEIN8537PXBE","A24LB89P1BPKKF","3THR0FZ95PF7SK0MYRNAOUHTWA4OLV","","","<img src=""img/flower3.png"" style=""width:200px; border:14px solid green;"">","null","","","","","","","","",""
"789.2000000476837","","image-keyboard-response","142","242340","0.0-142.0","3SITXWYCNWVKV4QWZ7QEIN8537PXBE","A24LB89P1BPKKF","3THR0FZ95PF7SK0MYRNAOUHTWA4OLV","","","img/flower5.png","76","790.5","3","1","3","2","1,0,0,1,1,0,1,0,1","1,0,0,1,1,0,1,0,1","1",""
"null","","html-keyboard-response","143","242658","0.0-143.0","3SITXWYCNWVKV4QWZ7QEIN8537PXBE","A24LB89P1BPKKF","3THR0FZ95PF7SK0MYRNAOUHTWA4OLV","","","<img src=""img/flower5.png"" style=""width:200px; border:14px solid green;"">","null","","","","","","","","",""
"855.5","","image-keyboard-response","144","243516","0.0-144.0","3SITXWYCNWVKV4QWZ7QEIN8537PXBE","A24LB89P1BPKKF","3THR0FZ95PF7SK0MYRNAOUHTWA4OLV","","","img/flower4.png","74","857.4000000357628","1","1","1","2","1,0,0,1,1,0,1,0,1","1,0,0,1,1,0,1,0,1","1",""
"null","","html-keyboard-response","145","243829","0.0-145.0","3SITXWYCNWVKV4QWZ7QEIN8537PXBE","A24LB89P1BPKKF","3THR0FZ95PF7SK0MYRNAOUHTWA4OLV","","","<img src=""img/flower4.png"" style=""width:200px; border:14px solid green;"">","null","","","","","","","","",""
"797","","image-keyboard-response","146","244629","0.0-146.0","3SITXWYCNWVKV4QWZ7QEIN8537PXBE","A24LB89P1BPKKF","3THR0FZ95PF7SK0MYRNAOUHTWA4OLV","","","img/flower3.png","75","799.6000000238419","2","1","2","2","1,0,0,1,1,0,1,0,1","1,0,0,1,1,0,1,0,1","1",""
"null","","html-keyboard-response","147","244947","0.0-147.0","3SITXWYCNWVKV4QWZ7QEIN8537PXBE","A24LB89P1BPKKF","3THR0FZ95PF7SK0MYRNAOUHTWA4OLV","","","<img src=""img/flower3.png"" style=""width:200px; border:14px solid green;"">","null","","","","","","","","",""
"797.1000000238419","","image-keyboard-response","148","245746","0.0-148.0","3SITXWYCNWVKV4QWZ7QEIN8537PXBE","A24LB89P1BPKKF","3THR0FZ95PF7SK0MYRNAOUHTWA4OLV","","","img/flower5.png","76","798.5","3","1","3","2","1,0,0,1,1,0,1,0,1","1,0,0,1,1,0,1,0,1","1",""
"null","","html-keyboard-response","149","246050","0.0-149.0","3SITXWYCNWVKV4QWZ7QEIN8537PXBE","A24LB89P1BPKKF","3THR0FZ95PF7SK0MYRNAOUHTWA4OLV","","","<img src=""img/flower5.png"" style=""width:200px; border:14px solid green;"">","null","","","","","","","","",""
"625.4000000357628","","image-keyboard-response","150","246678","0.0-150.0","3SITXWYCNWVKV4QWZ7QEIN8537PXBE","A24LB89P1BPKKF","3THR0FZ95PF7SK0MYRNAOUHTWA4OLV","","","img/flower4.png","74","627.4000000357628","1","1","1","2","1,0,0,1,1,0,1,0,1","1,0,0,1,1,0,1,0,1","1",""
"null","","html-keyboard-response","151","246986","0.0-151.0","3SITXWYCNWVKV4QWZ7QEIN8537PXBE","A24LB89P1BPKKF","3THR0FZ95PF7SK0MYRNAOUHTWA4OLV","","","<img src=""img/flower4.png"" style=""width:200px; border:14px solid green;"">","null","","","","","","","","",""
"503","","image-keyboard-response","152","247491","0.0-152.0","3SITXWYCNWVKV4QWZ7QEIN8537PXBE","A24LB89P1BPKKF","3THR0FZ95PF7SK0MYRNAOUHTWA4OLV","","","img/flower5.png","76","504.30000001192093","3","1","3","2","1,0,0,1,1,0,1,0,1","1,0,0,1,1,0,1,0,1","1",""
"null","","html-keyboard-response","153","247805","0.0-153.0","3SITXWYCNWVKV4QWZ7QEIN8537PXBE","A24LB89P1BPKKF","3THR0FZ95PF7SK0MYRNAOUHTWA4OLV","","","<img src=""img/flower5.png"" style=""width:200px; border:14px solid green;"">","null","","","","","","","","",""
"1167.4000000357628","","image-keyboard-response","154","248974","0.0-154.0","3SITXWYCNWVKV4QWZ7QEIN8537PXBE","A24LB89P1BPKKF","3THR0FZ95PF7SK0MYRNAOUHTWA4OLV","","","img/flower4.png","74","1168.5","1","1","1","2","1,0,0,1,1,0,1,0,1","1,0,0,1,1,0,1,0,1","1",""
"null","","html-keyboard-response","155","249286","0.0-155.0","3SITXWYCNWVKV4QWZ7QEIN8537PXBE","A24LB89P1BPKKF","3THR0FZ95PF7SK0MYRNAOUHTWA4OLV","","","<img src=""img/flower4.png"" style=""width:200px; border:14px solid green;"">","null","","","","","","","","",""
"482.0999999642372","","image-keyboard-response","156","249770","0.0-156.0","3SITXWYCNWVKV4QWZ7QEIN8537PXBE","A24LB89P1BPKKF","3THR0FZ95PF7SK0MYRNAOUHTWA4OLV","","","img/flower5.png","76","483.69999998807907","3","1","3","2","1,0,0,1,1,0,1,0,1","1,0,0,1,1,0,1,0,1","1",""
"null","","html-keyboard-response","157","250078","0.0-157.0","3SITXWYCNWVKV4QWZ7QEIN8537PXBE","A24LB89P1BPKKF","3THR0FZ95PF7SK0MYRNAOUHTWA4OLV","","","<img src=""img/flower5.png"" style=""width:200px; border:14px solid green;"">","null","","","","","","","","",""
"631.5","","image-keyboard-response","158","250711","0.0-158.0","3SITXWYCNWVKV4QWZ7QEIN8537PXBE","A24LB89P1BPKKF","3THR0FZ95PF7SK0MYRNAOUHTWA4OLV","","","img/flower3.png","75","632.7999999523163","2","1","2","2","1,0,0,1,1,0,1,0,1","1,0,0,1,1,0,1,0,1","1",""
"null","","html-keyboard-response","159","251023","0.0-159.0","3SITXWYCNWVKV4QWZ7QEIN8537PXBE","A24LB89P1BPKKF","3THR0FZ95PF7SK0MYRNAOUHTWA4OLV","","","<img src=""img/flower3.png"" style=""width:200px; border:14px solid green;"">","null","","","","","","","","",""
"777.7999999523163","","image-keyboard-response","160","251802","0.0-160.0","3SITXWYCNWVKV4QWZ7QEIN8537PXBE","A24LB89P1BPKKF","3THR0FZ95PF7SK0MYRNAOUHTWA4OLV","","","img/flower4.png","74","779.5","1","1","1","2","1,0,0,1,1,0,1,0,1","1,0,0,1,1,0,1,0,1","1",""
"null","","html-keyboard-response","161","252114","0.0-161.0","3SITXWYCNWVKV4QWZ7QEIN8537PXBE","A24LB89P1BPKKF","3THR0FZ95PF7SK0MYRNAOUHTWA4OLV","","","<img src=""img/flower4.png"" style=""width:200px; border:14px solid green;"">","null","","","","","","","","",""
"868.8000000119209","","image-keyboard-response","162","252986","0.0-162.0","3SITXWYCNWVKV4QWZ7QEIN8537PXBE","A24LB89P1BPKKF","3THR0FZ95PF7SK0MYRNAOUHTWA4OLV","","","img/flower5.png","76","870.9000000357628","3","1","3","2","1,0,0,1,1,0,1,0,1","1,0,0,1,1,0,1,0,1","1",""
"null","","html-keyboard-response","163","253299","0.0-163.0","3SITXWYCNWVKV4QWZ7QEIN8537PXBE","A24LB89P1BPKKF","3THR0FZ95PF7SK0MYRNAOUHTWA4OLV","","","<img src=""img/flower5.png"" style=""width:200px; border:14px solid green;"">","null","","","","","","","","",""
"548","","image-keyboard-response","164","253849","0.0-164.0","3SITXWYCNWVKV4QWZ7QEIN8537PXBE","A24LB89P1BPKKF","3THR0FZ95PF7SK0MYRNAOUHTWA4OLV","","","img/flower4.png","74","549.6000000238419","1","1","1","2","1,0,0,1,1,0,1,0,1","1,0,0,1,1,0,1,0,1","1",""
"null","","html-keyboard-response","165","254155","0.0-165.0","3SITXWYCNWVKV4QWZ7QEIN8537PXBE","A24LB89P1BPKKF","3THR0FZ95PF7SK0MYRNAOUHTWA4OLV","","","<img src=""img/flower4.png"" style=""width:200px; border:14px solid green;"">","null","","","","","","","","",""
"437.19999998807907","","image-keyboard-response","166","254595","0.0-166.0","3SITXWYCNWVKV4QWZ7QEIN8537PXBE","A24LB89P1BPKKF","3THR0FZ95PF7SK0MYRNAOUHTWA4OLV","","","img/flower5.png","76","439.0999999642372","3","1","3","2","1,0,0,1,1,0,1,0,1","1,0,0,1,1,0,1,0,1","1",""
"null","","html-keyboard-response","167","254905","0.0-167.0","3SITXWYCNWVKV4QWZ7QEIN8537PXBE","A24LB89P1BPKKF","3THR0FZ95PF7SK0MYRNAOUHTWA4OLV","","","<img src=""img/flower5.png"" style=""width:200px; border:14px solid green;"">","null","","","","","","","","",""
"534.7000000476837","","image-keyboard-response","168","255442","0.0-168.0","3SITXWYCNWVKV4QWZ7QEIN8537PXBE","A24LB89P1BPKKF","3THR0FZ95PF7SK0MYRNAOUHTWA4OLV","","","img/flower4.png","75","536.6999999880791","2","0","1","2","1,0,0,1,1,0,1,0,1","1,0,0,1,1,0,1,0,1","1",""
"null","","html-keyboard-response","169","255747","0.0-169.0","3SITXWYCNWVKV4QWZ7QEIN8537PXBE","A24LB89P1BPKKF","3THR0FZ95PF7SK0MYRNAOUHTWA4OLV","","","<img src=""img/flower4.png"" style=""width:200px;border:14px solid red;"">","null","","","","","","","","",""
"815.7999999523163","","image-keyboard-response","170","256565","0.0-170.0","3SITXWYCNWVKV4QWZ7QEIN8537PXBE","A24LB89P1BPKKF","3THR0FZ95PF7SK0MYRNAOUHTWA4OLV","","","img/flower3.png","75","817.3000000119209","2","1","2","2","1,0,0,1,1,0,1,0,1","1,0,0,1,1,0,1,0,1","1",""
"null","","html-keyboard-response","171","256880","0.0-171.0","3SITXWYCNWVKV4QWZ7QEIN8537PXBE","A24LB89P1BPKKF","3THR0FZ95PF7SK0MYRNAOUHTWA4OLV","","","<img src=""img/flower3.png"" style=""width:200px; border:14px solid green;"">","null","","","","","","","","",""
"890","","image-keyboard-response","172","257773","0.0-172.0","3SITXWYCNWVKV4QWZ7QEIN8537PXBE","A24LB89P1BPKKF","3THR0FZ95PF7SK0MYRNAOUHTWA4OLV","","","img/flower4.png","74","892.4000000357628","1","1","1","2","1,0,0,1,1,0,1,0,1","1,0,0,1,1,0,1,0,1","1",""
"null","","html-keyboard-response","173","258080","0.0-173.0","3SITXWYCNWVKV4QWZ7QEIN8537PXBE","A24LB89P1BPKKF","3THR0FZ95PF7SK0MYRNAOUHTWA4OLV","","","<img src=""img/flower4.png"" style=""width:200px; border:14px solid green;"">","null","","","","","","","","",""
"430.7999999523163","","image-keyboard-response","174","258514","0.0-174.0","3SITXWYCNWVKV4QWZ7QEIN8537PXBE","A24LB89P1BPKKF","3THR0FZ95PF7SK0MYRNAOUHTWA4OLV","","","img/flower5.png","76","433","3","1","3","2","1,0,0,1,1,0,1,0,1","1,0,0,1,1,0,1,0,1","1",""
"null","","html-keyboard-response","175","258827","0.0-175.0","3SITXWYCNWVKV4QWZ7QEIN8537PXBE","A24LB89P1BPKKF","3THR0FZ95PF7SK0MYRNAOUHTWA4OLV","","","<img src=""img/flower5.png"" style=""width:200px; border:14px solid green;"">","null","","","","","","","","",""
"642.1000000238419","","image-keyboard-response","176","259471","0.0-176.0","3SITXWYCNWVKV4QWZ7QEIN8537PXBE","A24LB89P1BPKKF","3THR0FZ95PF7SK0MYRNAOUHTWA4OLV","","","img/flower4.png","74","643.8999999761581","1","1","1","2","1,0,0,1,1,0,1,0,1","1,0,0,1,1,0,1,0,1","1",""
"null","","html-keyboard-response","177","259776","0.0-177.0","3SITXWYCNWVKV4QWZ7QEIN8537PXBE","A24LB89P1BPKKF","3THR0FZ95PF7SK0MYRNAOUHTWA4OLV","","","<img src=""img/flower4.png"" style=""width:200px; border:14px solid green;"">","null","","","","","","","","",""
"410.80000001192093","","image-keyboard-response","178","260189","0.0-178.0","3SITXWYCNWVKV4QWZ7QEIN8537PXBE","A24LB89P1BPKKF","3THR0FZ95PF7SK0MYRNAOUHTWA4OLV","","","img/flower4.png","74","412.9000000357628","1","1","1","2","1,0,0,1,1,0,1,0,1","1,0,0,1,1,0,1,0,1","1",""
"null","","html-keyboard-response","179","260500","0.0-179.0","3SITXWYCNWVKV4QWZ7QEIN8537PXBE","A24LB89P1BPKKF","3THR0FZ95PF7SK0MYRNAOUHTWA4OLV","","","<img src=""img/flower4.png"" style=""width:200px; border:14px solid green;"">","null","","","","","","","","",""
"592.3000000119209","","image-keyboard-response","180","261095","0.0-180.0","3SITXWYCNWVKV4QWZ7QEIN8537PXBE","A24LB89P1BPKKF","3THR0FZ95PF7SK0MYRNAOUHTWA4OLV","","","img/flower5.png","76","594.5","3","1","3","2","1,0,0,1,1,0,1,0,1","1,0,0,1,1,0,1,0,1","1",""
"null","","html-keyboard-response","181","261406","0.0-181.0","3SITXWYCNWVKV4QWZ7QEIN8537PXBE","A24LB89P1BPKKF","3THR0FZ95PF7SK0MYRNAOUHTWA4OLV","","","<img src=""img/flower5.png"" style=""width:200px; border:14px solid green;"">","null","","","","","","","","",""
"323","","image-keyboard-response","182","261731","0.0-182.0","3SITXWYCNWVKV4QWZ7QEIN8537PXBE","A24LB89P1BPKKF","3THR0FZ95PF7SK0MYRNAOUHTWA4OLV","","","img/flower5.png","76","324.80000001192093","3","1","3","2","1,0,0,1,1,0,1,0,1","1,0,0,1,1,0,1,0,1","1",""
"null","","html-keyboard-response","183","262047","0.0-183.0","3SITXWYCNWVKV4QWZ7QEIN8537PXBE","A24LB89P1BPKKF","3THR0FZ95PF7SK0MYRNAOUHTWA4OLV","","","<img src=""img/flower5.png"" style=""width:200px; border:14px solid green;"">","null","","","","","","","","",""
"993","","image-keyboard-response","184","263042","0.0-184.0","3SITXWYCNWVKV4QWZ7QEIN8537PXBE","A24LB89P1BPKKF","3THR0FZ95PF7SK0MYRNAOUHTWA4OLV","","","img/flower3.png","75","995.1000000238419","2","1","2","2","1,0,0,1,1,0,1,0,1","1,0,0,1,1,0,1,0,1","1",""
"null","","html-keyboard-response","185","263357","0.0-185.0","3SITXWYCNWVKV4QWZ7QEIN8537PXBE","A24LB89P1BPKKF","3THR0FZ95PF7SK0MYRNAOUHTWA4OLV","","","<img src=""img/flower3.png"" style=""width:200px; border:14px solid green;"">","null","","","","","","","","",""
"1017.5","","image-keyboard-response","186","264376","0.0-186.0","3SITXWYCNWVKV4QWZ7QEIN8537PXBE","A24LB89P1BPKKF","3THR0FZ95PF7SK0MYRNAOUHTWA4OLV","","","img/flower4.png","74","1018.5999999642372","1","1","1","2","1,0,0,1,1,0,1,0,1","1,0,0,1,1,0,1,0,1","1",""
"null","","html-keyboard-response","187","264693","0.0-187.0","3SITXWYCNWVKV4QWZ7QEIN8537PXBE","A24LB89P1BPKKF","3THR0FZ95PF7SK0MYRNAOUHTWA4OLV","","","<img src=""img/flower4.png"" style=""width:200px; border:14px solid green;"">","null","","","","","","","","",""
"525.1999999880791","","image-keyboard-response","188","265220","0.0-188.0","3SITXWYCNWVKV4QWZ7QEIN8537PXBE","A24LB89P1BPKKF","3THR0FZ95PF7SK0MYRNAOUHTWA4OLV","","","img/flower4.png","74","526.6999999880791","1","1","1","2","1,0,0,1,1,0,1,0,1","1,0,0,1,1,0,1,0,1","1",""
"null","","html-keyboard-response","189","265534","0.0-189.0","3SITXWYCNWVKV4QWZ7QEIN8537PXBE","A24LB89P1BPKKF","3THR0FZ95PF7SK0MYRNAOUHTWA4OLV","","","<img src=""img/flower4.png"" style=""width:200px; border:14px solid green;"">","null","","","","","","","","",""
"921.0999999642372","","image-keyboard-response","190","266458","0.0-190.0","3SITXWYCNWVKV4QWZ7QEIN8537PXBE","A24LB89P1BPKKF","3THR0FZ95PF7SK0MYRNAOUHTWA4OLV","","","img/flower5.png","75","923.1999999880791","2","0","3","2","1,0,0,1,1,0,1,0,1","1,0,0,1,1,0,1,0,1","1",""
"null","","html-keyboard-response","191","266764","0.0-191.0","3SITXWYCNWVKV4QWZ7QEIN8537PXBE","A24LB89P1BPKKF","3THR0FZ95PF7SK0MYRNAOUHTWA4OLV","","","<img src=""img/flower5.png"" style=""width:200px;border:14px solid red;"">","null","","","","","","","","",""
"421.39999997615814","","image-keyboard-response","192","267189","0.0-192.0","3SITXWYCNWVKV4QWZ7QEIN8537PXBE","A24LB89P1BPKKF","3THR0FZ95PF7SK0MYRNAOUHTWA4OLV","","","img/flower5.png","76","423.5999999642372","3","1","3","2","1,0,0,1,1,0,1,0,1","1,0,0,1,1,0,1,0,1","1",""
"null","","html-keyboard-response","193","267496","0.0-193.0","3SITXWYCNWVKV4QWZ7QEIN8537PXBE","A24LB89P1BPKKF","3THR0FZ95PF7SK0MYRNAOUHTWA4OLV","","","<img src=""img/flower5.png"" style=""width:200px; border:14px solid green;"">","null","","","","","","","","",""
"577.6000000238419","","image-keyboard-response","194","268076","0.0-194.0","3SITXWYCNWVKV4QWZ7QEIN8537PXBE","A24LB89P1BPKKF","3THR0FZ95PF7SK0MYRNAOUHTWA4OLV","","","img/flower4.png","74","579.1000000238419","1","1","1","2","1,0,0,1,1,0,1,0,1","1,0,0,1,1,0,1,0,1","1",""
"null","","html-keyboard-response","195","268391","0.0-195.0","3SITXWYCNWVKV4QWZ7QEIN8537PXBE","A24LB89P1BPKKF","3THR0FZ95PF7SK0MYRNAOUHTWA4OLV","","","<img src=""img/flower4.png"" style=""width:200px; border:14px solid green;"">","null","","","","","","","","",""
"785.0999999642372","","image-keyboard-response","196","269178","0.0-196.0","3SITXWYCNWVKV4QWZ7QEIN8537PXBE","A24LB89P1BPKKF","3THR0FZ95PF7SK0MYRNAOUHTWA4OLV","","","img/flower3.png","75","786.6999999880791","2","1","2","2","1,0,0,1,1,0,1,0,1","1,0,0,1,1,0,1,0,1","1",""
"null","","html-keyboard-response","197","269486","0.0-197.0","3SITXWYCNWVKV4QWZ7QEIN8537PXBE","A24LB89P1BPKKF","3THR0FZ95PF7SK0MYRNAOUHTWA4OLV","","","<img src=""img/flower3.png"" style=""width:200px; border:14px solid green;"">","null","","","","","","","","",""
"1521.800000011921","","image-keyboard-response","198","271010","0.0-198.0","3SITXWYCNWVKV4QWZ7QEIN8537PXBE","A24LB89P1BPKKF","3THR0FZ95PF7SK0MYRNAOUHTWA4OLV","","","img/flower5.png","76","1523.300000011921","3","1","3","2","1,0,0,1,1,0,1,0,1","1,0,0,1,1,0,1,0,1","1",""
"null","","html-keyboard-response","199","271314","0.0-199.0","3SITXWYCNWVKV4QWZ7QEIN8537PXBE","A24LB89P1BPKKF","3THR0FZ95PF7SK0MYRNAOUHTWA4OLV","","","<img src=""img/flower5.png"" style=""width:200px; border:14px solid green;"">","null","","","","","","","","",""
"359.30000001192093","","image-keyboard-response","200","271676","0.0-200.0","3SITXWYCNWVKV4QWZ7QEIN8537PXBE","A24LB89P1BPKKF","3THR0FZ95PF7SK0MYRNAOUHTWA4OLV","","","img/flower5.png","76","361.30000001192093","3","1","3","2","1,0,0,1,1,0,1,0,1","1,0,0,1,1,0,1,0,1","1",""
"null","","html-keyboard-response","201","271984","0.0-201.0","3SITXWYCNWVKV4QWZ7QEIN8537PXBE","A24LB89P1BPKKF","3THR0FZ95PF7SK0MYRNAOUHTWA4OLV","","","<img src=""img/flower5.png"" style=""width:200px; border:14px solid green;"">","null","","","","","","","","",""
"313.5999999642372","","image-keyboard-response","202","272299","0.0-202.0","3SITXWYCNWVKV4QWZ7QEIN8537PXBE","A24LB89P1BPKKF","3THR0FZ95PF7SK0MYRNAOUHTWA4OLV","","","img/flower5.png","76","315.0999999642372","3","1","3","2","1,0,0,1,1,0,1,0,1","1,0,0,1,1,0,1,0,1","1",""
"null","","html-keyboard-response","203","272610","0.0-203.0","3SITXWYCNWVKV4QWZ7QEIN8537PXBE","A24LB89P1BPKKF","3THR0FZ95PF7SK0MYRNAOUHTWA4OLV","","","<img src=""img/flower5.png"" style=""width:200px; border:14px solid green;"">","null","","","","","","","","",""
"254.19999998807907","","image-keyboard-response","204","272867","0.0-204.0","3SITXWYCNWVKV4QWZ7QEIN8537PXBE","A24LB89P1BPKKF","3THR0FZ95PF7SK0MYRNAOUHTWA4OLV","","","img/flower5.png","76","256.80000001192093","3","1","3","2","1,0,0,1,1,0,1,0,1","1,0,0,1,1,0,1,0,1","1",""
"null","","html-keyboard-response","205","273171","0.0-205.0","3SITXWYCNWVKV4QWZ7QEIN8537PXBE","A24LB89P1BPKKF","3THR0FZ95PF7SK0MYRNAOUHTWA4OLV","","","<img src=""img/flower5.png"" style=""width:200px; border:14px solid green;"">","null","","","","","","","","",""
"702.6999999880791","","image-keyboard-response","206","273876","0.0-206.0","3SITXWYCNWVKV4QWZ7QEIN8537PXBE","A24LB89P1BPKKF","3THR0FZ95PF7SK0MYRNAOUHTWA4OLV","","","img/flower3.png","75","704.1999999880791","2","1","2","2","1,0,0,1,1,0,1,0,1","1,0,0,1,1,0,1,0,1","1",""
"null","","html-keyboard-response","207","274182","0.0-207.0","3SITXWYCNWVKV4QWZ7QEIN8537PXBE","A24LB89P1BPKKF","3THR0FZ95PF7SK0MYRNAOUHTWA4OLV","","","<img src=""img/flower3.png"" style=""width:200px; border:14px solid green;"">","null","","","","","","","","",""
"753.4000000357628","","image-keyboard-response","208","274938","0.0-208.0","3SITXWYCNWVKV4QWZ7QEIN8537PXBE","A24LB89P1BPKKF","3THR0FZ95PF7SK0MYRNAOUHTWA4OLV","","","img/flower4.png","74","755.5","1","1","1","2","1,0,0,1,1,0,1,0,1","1,0,0,1,1,0,1,0,1","1",""
"null","","html-keyboard-response","209","275246","0.0-209.0","3SITXWYCNWVKV4QWZ7QEIN8537PXBE","A24LB89P1BPKKF","3THR0FZ95PF7SK0MYRNAOUHTWA4OLV","","","<img src=""img/flower4.png"" style=""width:200px; border:14px solid green;"">","null","","","","","","","","",""
"555.8000000119209","","image-keyboard-response","210","275803","0.0-210.0","3SITXWYCNWVKV4QWZ7QEIN8537PXBE","A24LB89P1BPKKF","3THR0FZ95PF7SK0MYRNAOUHTWA4OLV","","","img/flower3.png","75","557","2","1","2","2","1,0,0,1,1,0,1,0,1","1,0,0,1,1,0,1,0,1","1",""
"null","","html-keyboard-response","211","276113","0.0-211.0","3SITXWYCNWVKV4QWZ7QEIN8537PXBE","A24LB89P1BPKKF","3THR0FZ95PF7SK0MYRNAOUHTWA4OLV","","","<img src=""img/flower3.png"" style=""width:200px; border:14px solid green;"">","null","","","","","","","","",""
"334.5999999642372","","image-keyboard-response","212","276450","0.0-212.0","3SITXWYCNWVKV4QWZ7QEIN8537PXBE","A24LB89P1BPKKF","3THR0FZ95PF7SK0MYRNAOUHTWA4OLV","","","img/flower3.png","75","336.5999999642372","2","1","2","2","1,0,0,1,1,0,1,0,1","1,0,0,1,1,0,1,0,1","1",""
"null","","html-keyboard-response","213","276768","0.0-213.0","3SITXWYCNWVKV4QWZ7QEIN8537PXBE","A24LB89P1BPKKF","3THR0FZ95PF7SK0MYRNAOUHTWA4OLV","","","<img src=""img/flower3.png"" style=""width:200px; border:14px solid green;"">","null","","","","","","","","",""
"1040.5","","image-keyboard-response","214","277811","0.0-214.0","3SITXWYCNWVKV4QWZ7QEIN8537PXBE","A24LB89P1BPKKF","3THR0FZ95PF7SK0MYRNAOUHTWA4OLV","","","img/flower5.png","76","1042.6000000238419","3","1","3","2","1,0,0,1,1,0,1,0,1","1,0,0,1,1,0,1,0,1","1",""
"null","","html-keyboard-response","215","278115","0.0-215.0","3SITXWYCNWVKV4QWZ7QEIN8537PXBE","A24LB89P1BPKKF","3THR0FZ95PF7SK0MYRNAOUHTWA4OLV","","","<img src=""img/flower5.png"" style=""width:200px; border:14px solid green;"">","null","","","","","","","","",""
"250","","image-keyboard-response","216","278368","0.0-216.0","3SITXWYCNWVKV4QWZ7QEIN8537PXBE","A24LB89P1BPKKF","3THR0FZ95PF7SK0MYRNAOUHTWA4OLV","","","img/flower5.png","76","252.19999998807907","3","1","3","2","1,0,0,1,1,0,1,0,1","1,0,0,1,1,0,1,0,1","1",""
"null","","html-keyboard-response","217","278675","0.0-217.0","3SITXWYCNWVKV4QWZ7QEIN8537PXBE","A24LB89P1BPKKF","3THR0FZ95PF7SK0MYRNAOUHTWA4OLV","","","<img src=""img/flower5.png"" style=""width:200px; border:14px solid green;"">","null","","","","","","","","",""
"532","","image-keyboard-response","218","279210","0.0-218.0","3SITXWYCNWVKV4QWZ7QEIN8537PXBE","A24LB89P1BPKKF","3THR0FZ95PF7SK0MYRNAOUHTWA4OLV","","","img/flower4.png","74","534.4000000357628","1","1","1","2","1,0,0,1,1,0,1,0,1","1,0,0,1,1,0,1,0,1","1",""
"null","","html-keyboard-response","219","279518","0.0-219.0","3SITXWYCNWVKV4QWZ7QEIN8537PXBE","A24LB89P1BPKKF","3THR0FZ95PF7SK0MYRNAOUHTWA4OLV","","","<img src=""img/flower4.png"" style=""width:200px; border:14px solid green;"">","null","","","","","","","","",""
"886.5999999642372","","image-keyboard-response","220","280406","0.0-220.0","3SITXWYCNWVKV4QWZ7QEIN8537PXBE","A24LB89P1BPKKF","3THR0FZ95PF7SK0MYRNAOUHTWA4OLV","","","img/flower3.png","75","887.9000000357628","2","1","2","2","1,0,0,1,1,0,1,0,1","1,0,0,1,1,0,1,0,1","1",""
"null","","html-keyboard-response","221","280719","0.0-221.0","3SITXWYCNWVKV4QWZ7QEIN8537PXBE","A24LB89P1BPKKF","3THR0FZ95PF7SK0MYRNAOUHTWA4OLV","","","<img src=""img/flower3.png"" style=""width:200px; border:14px solid green;"">","null","","","","","","","","",""
"765.6999999880791","","image-keyboard-response","222","281487","0.0-222.0","3SITXWYCNWVKV4QWZ7QEIN8537PXBE","A24LB89P1BPKKF","3THR0FZ95PF7SK0MYRNAOUHTWA4OLV","","","img/flower5.png","76","767.3000000119209","3","1","3","2","1,0,0,1,1,0,1,0,1","1,0,0,1,1,0,1,0,1","1",""
"null","","html-keyboard-response","223","281797","0.0-223.0","3SITXWYCNWVKV4QWZ7QEIN8537PXBE","A24LB89P1BPKKF","3THR0FZ95PF7SK0MYRNAOUHTWA4OLV","","","<img src=""img/flower5.png"" style=""width:200px; border:14px solid green;"">","null","","","","","","","","",""
"478.60000002384186","","image-keyboard-response","224","282278","0.0-224.0","3SITXWYCNWVKV4QWZ7QEIN8537PXBE","A24LB89P1BPKKF","3THR0FZ95PF7SK0MYRNAOUHTWA4OLV","","","img/flower3.png","75","480.60000002384186","2","1","2","2","1,0,0,1,1,0,1,0,1","1,0,0,1,1,0,1,0,1","1",""
"null","","html-keyboard-response","225","282584","0.0-225.0","3SITXWYCNWVKV4QWZ7QEIN8537PXBE","A24LB89P1BPKKF","3THR0FZ95PF7SK0MYRNAOUHTWA4OLV","","","<img src=""img/flower3.png"" style=""width:200px; border:14px solid green;"">","null","","","","","","","","",""
"353.0999999642372","","image-keyboard-response","226","282940","0.0-226.0","3SITXWYCNWVKV4QWZ7QEIN8537PXBE","A24LB89P1BPKKF","3THR0FZ95PF7SK0MYRNAOUHTWA4OLV","","","img/flower3.png","75","355.5","2","1","2","2","1,0,0,1,1,0,1,0,1","1,0,0,1,1,0,1,0,1","1",""
"null","","html-keyboard-response","227","283252","0.0-227.0","3SITXWYCNWVKV4QWZ7QEIN8537PXBE","A24LB89P1BPKKF","3THR0FZ95PF7SK0MYRNAOUHTWA4OLV","","","<img src=""img/flower3.png"" style=""width:200px; border:14px solid green;"">","null","","","","","","","","",""
"568.5999999642372","","image-keyboard-response","228","283823","0.0-228.0","3SITXWYCNWVKV4QWZ7QEIN8537PXBE","A24LB89P1BPKKF","3THR0FZ95PF7SK0MYRNAOUHTWA4OLV","","","img/flower4.png","74","570.3999999761581","1","1","1","2","1,0,0,1,1,0,1,0,1","1,0,0,1,1,0,1,0,1","1",""
"null","","html-keyboard-response","229","284140","0.0-229.0","3SITXWYCNWVKV4QWZ7QEIN8537PXBE","A24LB89P1BPKKF","3THR0FZ95PF7SK0MYRNAOUHTWA4OLV","","","<img src=""img/flower4.png"" style=""width:200px; border:14px solid green;"">","null","","","","","","","","",""
"394.69999998807907","","image-keyboard-response","230","284537","0.0-230.0","3SITXWYCNWVKV4QWZ7QEIN8537PXBE","A24LB89P1BPKKF","3THR0FZ95PF7SK0MYRNAOUHTWA4OLV","","","img/flower4.png","74","396.80000001192093","1","1","1","2","1,0,0,1,1,0,1,0,1","1,0,0,1,1,0,1,0,1","1",""
"null","","html-keyboard-response","231","284842","0.0-231.0","3SITXWYCNWVKV4QWZ7QEIN8537PXBE","A24LB89P1BPKKF","3THR0FZ95PF7SK0MYRNAOUHTWA4OLV","","","<img src=""img/flower4.png"" style=""width:200px; border:14px solid green;"">","null","","","","","","","","",""
"907.5999999642372","","image-keyboard-response","232","285751","0.0-232.0","3SITXWYCNWVKV4QWZ7QEIN8537PXBE","A24LB89P1BPKKF","3THR0FZ95PF7SK0MYRNAOUHTWA4OLV","","","img/flower3.png","75","908.6999999880791","2","1","2","2","1,0,0,1,1,0,1,0,1","1,0,0,1,1,0,1,0,1","1",""
"null","","html-keyboard-response","233","286057","0.0-233.0","3SITXWYCNWVKV4QWZ7QEIN8537PXBE","A24LB89P1BPKKF","3THR0FZ95PF7SK0MYRNAOUHTWA4OLV","","","<img src=""img/flower3.png"" style=""width:200px; border:14px solid green;"">","null","","","","","","","","",""
"1412.800000011921","","image-keyboard-response","234","287472","0.0-234.0","3SITXWYCNWVKV4QWZ7QEIN8537PXBE","A24LB89P1BPKKF","3THR0FZ95PF7SK0MYRNAOUHTWA4OLV","","","img/flower4.png","74","1414.800000011921","1","1","1","2","1,0,0,1,1,0,1,0,1","1,0,0,1,1,0,1,0,1","1",""
"null","","html-keyboard-response","235","287789","0.0-235.0","3SITXWYCNWVKV4QWZ7QEIN8537PXBE","A24LB89P1BPKKF","3THR0FZ95PF7SK0MYRNAOUHTWA4OLV","","","<img src=""img/flower4.png"" style=""width:200px; border:14px solid green;"">","null","","","","","","","","",""
"331.39999997615814","","image-keyboard-response","236","288123","0.0-236.0","3SITXWYCNWVKV4QWZ7QEIN8537PXBE","A24LB89P1BPKKF","3THR0FZ95PF7SK0MYRNAOUHTWA4OLV","","","img/flower4.png","74","333.30000001192093","1","1","1","2","1,0,0,1,1,0,1,0,1","1,0,0,1,1,0,1,0,1","1",""
"null","","html-keyboard-response","237","288441","0.0-237.0","3SITXWYCNWVKV4QWZ7QEIN8537PXBE","A24LB89P1BPKKF","3THR0FZ95PF7SK0MYRNAOUHTWA4OLV","","","<img src=""img/flower4.png"" style=""width:200px; border:14px solid green;"">","null","","","","","","","","",""
"691","","image-keyboard-response","238","289135","0.0-238.0","3SITXWYCNWVKV4QWZ7QEIN8537PXBE","A24LB89P1BPKKF","3THR0FZ95PF7SK0MYRNAOUHTWA4OLV","","","img/flower3.png","75","693.1000000238419","2","1","2","2","1,0,0,1,1,0,1,0,1","1,0,0,1,1,0,1,0,1","1",""
"null","","html-keyboard-response","239","289453","0.0-239.0","3SITXWYCNWVKV4QWZ7QEIN8537PXBE","A24LB89P1BPKKF","3THR0FZ95PF7SK0MYRNAOUHTWA4OLV","","","<img src=""img/flower3.png"" style=""width:200px; border:14px solid green;"">","null","","","","","","","","",""
"279.30000001192093","","image-keyboard-response","240","289733","0.0-240.0","3SITXWYCNWVKV4QWZ7QEIN8537PXBE","A24LB89P1BPKKF","3THR0FZ95PF7SK0MYRNAOUHTWA4OLV","","","img/flower3.png","75","281","2","1","2","2","1,0,0,1,1,0,1,0,1","1,0,0,1,1,0,1,0,1","1",""
"null","","html-keyboard-response","241","290045","0.0-241.0","3SITXWYCNWVKV4QWZ7QEIN8537PXBE","A24LB89P1BPKKF","3THR0FZ95PF7SK0MYRNAOUHTWA4OLV","","","<img src=""img/flower3.png"" style=""width:200px; border:14px solid green;"">","null","","","","","","","","",""
"621.6999999880791","","image-keyboard-response","242","290669","0.0-242.0","3SITXWYCNWVKV4QWZ7QEIN8537PXBE","A24LB89P1BPKKF","3THR0FZ95PF7SK0MYRNAOUHTWA4OLV","","","img/flower5.png","76","624","3","1","3","2","1,0,0,1,1,0,1,0,1","1,0,0,1,1,0,1,0,1","1",""
"null","","html-keyboard-response","243","290973","0.0-243.0","3SITXWYCNWVKV4QWZ7QEIN8537PXBE","A24LB89P1BPKKF","3THR0FZ95PF7SK0MYRNAOUHTWA4OLV","","","<img src=""img/flower5.png"" style=""width:200px; border:14px solid green;"">","null","","","","","","","","",""
"360.69999998807907","","image-keyboard-response","244","291335","0.0-244.0","3SITXWYCNWVKV4QWZ7QEIN8537PXBE","A24LB89P1BPKKF","3THR0FZ95PF7SK0MYRNAOUHTWA4OLV","","","img/flower5.png","76","361.89999997615814","3","1","3","2","1,0,0,1,1,0,1,0,1","1,0,0,1,1,0,1,0,1","1",""
"null","","html-keyboard-response","245","291645","0.0-245.0","3SITXWYCNWVKV4QWZ7QEIN8537PXBE","A24LB89P1BPKKF","3THR0FZ95PF7SK0MYRNAOUHTWA4OLV","","","<img src=""img/flower5.png"" style=""width:200px; border:14px solid green;"">","null","","","","","","","","",""
"367.30000001192093","","image-keyboard-response","246","292014","0.0-246.0","3SITXWYCNWVKV4QWZ7QEIN8537PXBE","A24LB89P1BPKKF","3THR0FZ95PF7SK0MYRNAOUHTWA4OLV","","","img/flower5.png","76","369.5","3","1","3","2","1,0,0,1,1,0,1,0,1","1,0,0,1,1,0,1,0,1","1",""
"null","","html-keyboard-response","247","292328","0.0-247.0","3SITXWYCNWVKV4QWZ7QEIN8537PXBE","A24LB89P1BPKKF","3THR0FZ95PF7SK0MYRNAOUHTWA4OLV","","","<img src=""img/flower5.png"" style=""width:200px; border:14px solid green;"">","null","","","","","","","","",""
"668.0999999642372","","image-keyboard-response","248","292998","0.0-248.0","3SITXWYCNWVKV4QWZ7QEIN8537PXBE","A24LB89P1BPKKF","3THR0FZ95PF7SK0MYRNAOUHTWA4OLV","","","img/flower3.png","75","669.5","2","1","2","2","1,0,0,1,1,0,1,0,1","1,0,0,1,1,0,1,0,1","1",""
"null","","html-keyboard-response","249","293306","0.0-249.0","3SITXWYCNWVKV4QWZ7QEIN8537PXBE","A24LB89P1BPKKF","3THR0FZ95PF7SK0MYRNAOUHTWA4OLV","","","<img src=""img/flower3.png"" style=""width:200px; border:14px solid green;"">","null","","","","","","","","",""
"297.5999999642372","","image-keyboard-response","250","293607","0.0-250.0","3SITXWYCNWVKV4QWZ7QEIN8537PXBE","A24LB89P1BPKKF","3THR0FZ95PF7SK0MYRNAOUHTWA4OLV","","","img/flower3.png","75","300.19999998807907","2","1","2","2","1,0,0,1,1,0,1,0,1","1,0,0,1,1,0,1,0,1","1",""
"null","","html-keyboard-response","251","293924","0.0-251.0","3SITXWYCNWVKV4QWZ7QEIN8537PXBE","A24LB89P1BPKKF","3THR0FZ95PF7SK0MYRNAOUHTWA4OLV","","","<img src=""img/flower3.png"" style=""width:200px; border:14px solid green;"">","null","","","","","","","","",""
"317","","image-keyboard-response","252","294244","0.0-252.0","3SITXWYCNWVKV4QWZ7QEIN8537PXBE","A24LB89P1BPKKF","3THR0FZ95PF7SK0MYRNAOUHTWA4OLV","","","img/flower3.png","75","319.5","2","1","2","2","1,0,0,1,1,0,1,0,1","1,0,0,1,1,0,1,0,1","1",""
"null","","html-keyboard-response","253","294550","0.0-253.0","3SITXWYCNWVKV4QWZ7QEIN8537PXBE","A24LB89P1BPKKF","3THR0FZ95PF7SK0MYRNAOUHTWA4OLV","","","<img src=""img/flower3.png"" style=""width:200px; border:14px solid green;"">","null","","","","","","","","",""
"951.5","","image-keyboard-response","254","295505","0.0-254.0","3SITXWYCNWVKV4QWZ7QEIN8537PXBE","A24LB89P1BPKKF","3THR0FZ95PF7SK0MYRNAOUHTWA4OLV","","","img/flower5.png","76","953.8999999761581","3","1","3","2","1,0,0,1,1,0,1,0,1","1,0,0,1,1,0,1,0,1","1",""
"null","","html-keyboard-response","255","295823","0.0-255.0","3SITXWYCNWVKV4QWZ7QEIN8537PXBE","A24LB89P1BPKKF","3THR0FZ95PF7SK0MYRNAOUHTWA4OLV","","","<img src=""img/flower5.png"" style=""width:200px; border:14px solid green;"">","null","","","","","","","","",""
"579","","image-keyboard-response","256","296404","0.0-256.0","3SITXWYCNWVKV4QWZ7QEIN8537PXBE","A24LB89P1BPKKF","3THR0FZ95PF7SK0MYRNAOUHTWA4OLV","","","img/flower4.png","74","580.8000000119209","1","1","1","2","1,0,0,1,1,0,1,0,1","1,0,0,1,1,0,1,0,1","1",""
"null","","html-keyboard-response","257","296710","0.0-257.0","3SITXWYCNWVKV4QWZ7QEIN8537PXBE","A24LB89P1BPKKF","3THR0FZ95PF7SK0MYRNAOUHTWA4OLV","","","<img src=""img/flower4.png"" style=""width:200px; border:14px solid green;"">","null","","","","","","","","",""
"417","","image-keyboard-response","258","297130","0.0-258.0","3SITXWYCNWVKV4QWZ7QEIN8537PXBE","A24LB89P1BPKKF","3THR0FZ95PF7SK0MYRNAOUHTWA4OLV","","","img/flower4.png","74","418.89999997615814","1","1","1","2","1,0,0,1,1,0,1,0,1","1,0,0,1,1,0,1,0,1","1",""
"null","","html-keyboard-response","259","297440","0.0-259.0","3SITXWYCNWVKV4QWZ7QEIN8537PXBE","A24LB89P1BPKKF","3THR0FZ95PF7SK0MYRNAOUHTWA4OLV","","","<img src=""img/flower4.png"" style=""width:200px; border:14px solid green;"">","null","","","","","","","","",""
"1890.1000000238419","","image-keyboard-response","260","299331","0.0-260.0","3SITXWYCNWVKV4QWZ7QEIN8537PXBE","A24LB89P1BPKKF","3THR0FZ95PF7SK0MYRNAOUHTWA4OLV","","","img/flower5.png","76","1891.1000000238419","3","1","3","2","1,0,0,1,1,0,1,0,1","1,0,0,1,1,0,1,0,1","1",""
"null","","html-keyboard-response","261","299647","0.0-261.0","3SITXWYCNWVKV4QWZ7QEIN8537PXBE","A24LB89P1BPKKF","3THR0FZ95PF7SK0MYRNAOUHTWA4OLV","","","<img src=""img/flower5.png"" style=""width:200px; border:14px solid green;"">","null","","","","","","","","",""
"375.9000000357628","","image-keyboard-response","262","300027","0.0-262.0","3SITXWYCNWVKV4QWZ7QEIN8537PXBE","A24LB89P1BPKKF","3THR0FZ95PF7SK0MYRNAOUHTWA4OLV","","","img/flower5.png","76","379.5999999642372","3","1","3","2","1,0,0,1,1,0,1,0,1","1,0,0,1,1,0,1,0,1","1",""
"null","","html-keyboard-response","263","300336","0.0-263.0","3SITXWYCNWVKV4QWZ7QEIN8537PXBE","A24LB89P1BPKKF","3THR0FZ95PF7SK0MYRNAOUHTWA4OLV","","","<img src=""img/flower5.png"" style=""width:200px; border:14px solid green;"">","null","","","","","","","","",""
"924.2999999523163","","image-keyboard-response","264","301261","0.0-264.0","3SITXWYCNWVKV4QWZ7QEIN8537PXBE","A24LB89P1BPKKF","3THR0FZ95PF7SK0MYRNAOUHTWA4OLV","","","img/flower4.png","74","925.0999999642372","1","1","1","2","1,0,0,1,1,0,1,0,1","1,0,0,1,1,0,1,0,1","1",""
"null","","html-keyboard-response","265","301563","0.0-265.0","3SITXWYCNWVKV4QWZ7QEIN8537PXBE","A24LB89P1BPKKF","3THR0FZ95PF7SK0MYRNAOUHTWA4OLV","","","<img src=""img/flower4.png"" style=""width:200px; border:14px solid green;"">","null","","","","","","","","",""
"977.1000000238419","","image-keyboard-response","266","302541","0.0-266.0","3SITXWYCNWVKV4QWZ7QEIN8537PXBE","A24LB89P1BPKKF","3THR0FZ95PF7SK0MYRNAOUHTWA4OLV","","","img/flower3.png","75","978.3999999761581","2","1","2","2","1,0,0,1,1,0,1,0,1","1,0,0,1,1,0,1,0,1","1",""
"null","","html-keyboard-response","267","302847","0.0-267.0","3SITXWYCNWVKV4QWZ7QEIN8537PXBE","A24LB89P1BPKKF","3THR0FZ95PF7SK0MYRNAOUHTWA4OLV","","","<img src=""img/flower3.png"" style=""width:200px; border:14px solid green;"">","null","","","","","","","","",""
"1505.3999999761581","","image-keyboard-response","268","304354","0.0-268.0","3SITXWYCNWVKV4QWZ7QEIN8537PXBE","A24LB89P1BPKKF","3THR0FZ95PF7SK0MYRNAOUHTWA4OLV","","","img/flower4.png","74","1507.2000000476837","1","1","1","2","1,0,0,1,1,0,1,0,1","1,0,0,1,1,0,1,0,1","1",""
"null","","html-keyboard-response","269","304664","0.0-269.0","3SITXWYCNWVKV4QWZ7QEIN8537PXBE","A24LB89P1BPKKF","3THR0FZ95PF7SK0MYRNAOUHTWA4OLV","","","<img src=""img/flower4.png"" style=""width:200px; border:14px solid green;"">","null","","","","","","","","",""
"616.6999999880791","","image-keyboard-response","270","305283","0.0-270.0","3SITXWYCNWVKV4QWZ7QEIN8537PXBE","A24LB89P1BPKKF","3THR0FZ95PF7SK0MYRNAOUHTWA4OLV","","","img/flower3.png","75","618.0999999642372","2","1","2","2","1,0,0,1,1,0,1,0,1","1,0,0,1,1,0,1,0,1","1",""
"null","","html-keyboard-response","271","305589","0.0-271.0","3SITXWYCNWVKV4QWZ7QEIN8537PXBE","A24LB89P1BPKKF","3THR0FZ95PF7SK0MYRNAOUHTWA4OLV","","","<img src=""img/flower3.png"" style=""width:200px; border:14px solid green;"">","null","","","","","","","","",""
"601.1000000238419","","image-keyboard-response","272","306192","0.0-272.0","3SITXWYCNWVKV4QWZ7QEIN8537PXBE","A24LB89P1BPKKF","3THR0FZ95PF7SK0MYRNAOUHTWA4OLV","","","img/flower4.png","74","603.1999999880791","1","1","1","2","1,0,0,1,1,0,1,0,1","1,0,0,1,1,0,1,0,1","1",""
"null","","html-keyboard-response","273","306507","0.0-273.0","3SITXWYCNWVKV4QWZ7QEIN8537PXBE","A24LB89P1BPKKF","3THR0FZ95PF7SK0MYRNAOUHTWA4OLV","","","<img src=""img/flower4.png"" style=""width:200px; border:14px solid green;"">","null","","","","","","","","",""
"491.80000001192093","","image-keyboard-response","274","307001","0.0-274.0","3SITXWYCNWVKV4QWZ7QEIN8537PXBE","A24LB89P1BPKKF","3THR0FZ95PF7SK0MYRNAOUHTWA4OLV","","","img/flower5.png","76","493.19999998807907","3","1","3","2","1,0,0,1,1,0,1,0,1","1,0,0,1,1,0,1,0,1","1",""
"null","","html-keyboard-response","275","307312","0.0-275.0","3SITXWYCNWVKV4QWZ7QEIN8537PXBE","A24LB89P1BPKKF","3THR0FZ95PF7SK0MYRNAOUHTWA4OLV","","","<img src=""img/flower5.png"" style=""width:200px; border:14px solid green;"">","null","","","","","","","","",""
"463","","image-keyboard-response","276","307776","0.0-276.0","3SITXWYCNWVKV4QWZ7QEIN8537PXBE","A24LB89P1BPKKF","3THR0FZ95PF7SK0MYRNAOUHTWA4OLV","","","img/flower3.png","75","464.5","2","1","2","2","1,0,0,1,1,0,1,0,1","1,0,0,1,1,0,1,0,1","1",""
"null","","html-keyboard-response","277","308090","0.0-277.0","3SITXWYCNWVKV4QWZ7QEIN8537PXBE","A24LB89P1BPKKF","3THR0FZ95PF7SK0MYRNAOUHTWA4OLV","","","<img src=""img/flower3.png"" style=""width:200px; border:14px solid green;"">","null","","","","","","","","",""
"385.69999998807907","","image-keyboard-response","278","308478","0.0-278.0","3SITXWYCNWVKV4QWZ7QEIN8537PXBE","A24LB89P1BPKKF","3THR0FZ95PF7SK0MYRNAOUHTWA4OLV","","","img/flower3.png","75","388","2","1","2","2","1,0,0,1,1,0,1,0,1","1,0,0,1,1,0,1,0,1","1",""
"null","","html-keyboard-response","279","308791","0.0-279.0","3SITXWYCNWVKV4QWZ7QEIN8537PXBE","A24LB89P1BPKKF","3THR0FZ95PF7SK0MYRNAOUHTWA4OLV","","","<img src=""img/flower3.png"" style=""width:200px; border:14px solid green;"">","null","","","","","","","","",""
"309.60000002384186","","image-keyboard-response","280","309104","0.0-280.0","3SITXWYCNWVKV4QWZ7QEIN8537PXBE","A24LB89P1BPKKF","3THR0FZ95PF7SK0MYRNAOUHTWA4OLV","","","img/flower3.png","75","311.69999998807907","2","1","2","2","1,0,0,1,1,0,1,0,1","1,0,0,1,1,0,1,0,1","1",""
"null","","html-keyboard-response","281","309416","0.0-281.0","3SITXWYCNWVKV4QWZ7QEIN8537PXBE","A24LB89P1BPKKF","3THR0FZ95PF7SK0MYRNAOUHTWA4OLV","","","<img src=""img/flower3.png"" style=""width:200px; border:14px solid green;"">","null","","","","","","","","",""
"1206.800000011921","","image-keyboard-response","282","310626","0.0-282.0","3SITXWYCNWVKV4QWZ7QEIN8537PXBE","A24LB89P1BPKKF","3THR0FZ95PF7SK0MYRNAOUHTWA4OLV","","","img/flower5.png","76","1209.0999999642372","3","1","3","2","1,0,0,1,1,0,1,0,1","1,0,0,1,1,0,1,0,1","1",""
"null","","html-keyboard-response","283","310933","0.0-283.0","3SITXWYCNWVKV4QWZ7QEIN8537PXBE","A24LB89P1BPKKF","3THR0FZ95PF7SK0MYRNAOUHTWA4OLV","","","<img src=""img/flower5.png"" style=""width:200px; border:14px solid green;"">","null","","","","","","","","",""
"559.2999999523163","","image-keyboard-response","284","311495","0.0-284.0","3SITXWYCNWVKV4QWZ7QEIN8537PXBE","A24LB89P1BPKKF","3THR0FZ95PF7SK0MYRNAOUHTWA4OLV","","","img/flower4.png","74","561.1999999880791","1","1","1","2","1,0,0,1,1,0,1,0,1","1,0,0,1,1,0,1,0,1","1",""
"null","","html-keyboard-response","285","311799","0.0-285.0","3SITXWYCNWVKV4QWZ7QEIN8537PXBE","A24LB89P1BPKKF","3THR0FZ95PF7SK0MYRNAOUHTWA4OLV","","","<img src=""img/flower4.png"" style=""width:200px; border:14px solid green;"">","null","","","","","","","","",""
"698.8000000119209","","image-keyboard-response","286","312500","0.0-286.0","3SITXWYCNWVKV4QWZ7QEIN8537PXBE","A24LB89P1BPKKF","3THR0FZ95PF7SK0MYRNAOUHTWA4OLV","","","img/flower3.png","75","700.7000000476837","2","1","2","2","1,0,0,1,1,0,1,0,1","1,0,0,1,1,0,1,0,1","1",""
"null","","html-keyboard-response","287","312816","0.0-287.0","3SITXWYCNWVKV4QWZ7QEIN8537PXBE","A24LB89P1BPKKF","3THR0FZ95PF7SK0MYRNAOUHTWA4OLV","","","<img src=""img/flower3.png"" style=""width:200px; border:14px solid green;"">","null","","","","","","","","",""
"698.3999999761581","","image-keyboard-response","288","313516","0.0-288.0","3SITXWYCNWVKV4QWZ7QEIN8537PXBE","A24LB89P1BPKKF","3THR0FZ95PF7SK0MYRNAOUHTWA4OLV","","","img/flower4.png","74","700","1","1","1","2","1,0,0,1,1,0,1,0,1","1,0,0,1,1,0,1,0,1","1",""
"null","","html-keyboard-response","289","313831","0.0-289.0","3SITXWYCNWVKV4QWZ7QEIN8537PXBE","A24LB89P1BPKKF","3THR0FZ95PF7SK0MYRNAOUHTWA4OLV","","","<img src=""img/flower4.png"" style=""width:200px; border:14px solid green;"">","null","","","","","","","","",""
"350.4000000357628","","image-keyboard-response","290","314185","0.0-290.0","3SITXWYCNWVKV4QWZ7QEIN8537PXBE","A24LB89P1BPKKF","3THR0FZ95PF7SK0MYRNAOUHTWA4OLV","","","img/flower4.png","74","353.30000001192093","1","1","1","2","1,0,0,1,1,0,1,0,1","1,0,0,1,1,0,1,0,1","1",""
"null","","html-keyboard-response","291","314504","0.0-291.0","3SITXWYCNWVKV4QWZ7QEIN8537PXBE","A24LB89P1BPKKF","3THR0FZ95PF7SK0MYRNAOUHTWA4OLV","","","<img src=""img/flower4.png"" style=""width:200px; border:14px solid green;"">","null","","","","","","","","",""
"777","","image-keyboard-response","292","315283","0.0-292.0","3SITXWYCNWVKV4QWZ7QEIN8537PXBE","A24LB89P1BPKKF","3THR0FZ95PF7SK0MYRNAOUHTWA4OLV","","","img/flower3.png","75","778.6000000238419","2","1","2","2","1,0,0,1,1,0,1,0,1","1,0,0,1,1,0,1,0,1","1",""
"null","","html-keyboard-response","293","315599","0.0-293.0","3SITXWYCNWVKV4QWZ7QEIN8537PXBE","A24LB89P1BPKKF","3THR0FZ95PF7SK0MYRNAOUHTWA4OLV","","","<img src=""img/flower3.png"" style=""width:200px; border:14px solid green;"">","null","","","","","","","","",""
"1652.3999999761581","","image-keyboard-response","294","317253","0.0-294.0","3SITXWYCNWVKV4QWZ7QEIN8537PXBE","A24LB89P1BPKKF","3THR0FZ95PF7SK0MYRNAOUHTWA4OLV","","","img/flower4.png","74","1653.300000011921","1","1","1","2","1,0,0,1,1,0,1,0,1","1,0,0,1,1,0,1,0,1","1",""
"null","","html-keyboard-response","295","317565","0.0-295.0","3SITXWYCNWVKV4QWZ7QEIN8537PXBE","A24LB89P1BPKKF","3THR0FZ95PF7SK0MYRNAOUHTWA4OLV","","","<img src=""img/flower4.png"" style=""width:200px; border:14px solid green;"">","null","","","","","","","","",""
"472.5999999642372","","image-keyboard-response","296","318041","0.0-296.0","3SITXWYCNWVKV4QWZ7QEIN8537PXBE","A24LB89P1BPKKF","3THR0FZ95PF7SK0MYRNAOUHTWA4OLV","","","img/flower5.png","76","474.5999999642372","3","1","3","2","1,0,0,1,1,0,1,0,1","1,0,0,1,1,0,1,0,1","1",""
"null","","html-keyboard-response","297","318346","0.0-297.0","3SITXWYCNWVKV4QWZ7QEIN8537PXBE","A24LB89P1BPKKF","3THR0FZ95PF7SK0MYRNAOUHTWA4OLV","","","<img src=""img/flower5.png"" style=""width:200px; border:14px solid green;"">","null","","","","","","","","",""
"363.5999999642372","","image-keyboard-response","298","318712","0.0-298.0","3SITXWYCNWVKV4QWZ7QEIN8537PXBE","A24LB89P1BPKKF","3THR0FZ95PF7SK0MYRNAOUHTWA4OLV","","","img/flower5.png","76","365.60000002384186","3","1","3","2","1,0,0,1,1,0,1,0,1","1,0,0,1,1,0,1,0,1","1",""
"null","","html-keyboard-response","299","319018","0.0-299.0","3SITXWYCNWVKV4QWZ7QEIN8537PXBE","A24LB89P1BPKKF","3THR0FZ95PF7SK0MYRNAOUHTWA4OLV","","","<img src=""img/flower5.png"" style=""width:200px; border:14px solid green;"">","null","","","","","","","","",""
"774","","image-keyboard-response","300","319794","0.0-300.0","3SITXWYCNWVKV4QWZ7QEIN8537PXBE","A24LB89P1BPKKF","3THR0FZ95PF7SK0MYRNAOUHTWA4OLV","","","img/flower4.png","74","775.8000000119209","1","1","1","2","1,0,0,1,1,0,1,0,1","1,0,0,1,1,0,1,0,1","1",""
"null","","html-keyboard-response","301","320103","0.0-301.0","3SITXWYCNWVKV4QWZ7QEIN8537PXBE","A24LB89P1BPKKF","3THR0FZ95PF7SK0MYRNAOUHTWA4OLV","","","<img src=""img/flower4.png"" style=""width:200px; border:14px solid green;"">","null","","","","","","","","",""
"599.8000000119209","","image-keyboard-response","302","320705","0.0-302.0","3SITXWYCNWVKV4QWZ7QEIN8537PXBE","A24LB89P1BPKKF","3THR0FZ95PF7SK0MYRNAOUHTWA4OLV","","","img/flower3.png","75","601.7999999523163","2","1","2","2","1,0,0,1,1,0,1,0,1","1,0,0,1,1,0,1,0,1","1",""
"null","","html-keyboard-response","303","321020","0.0-303.0","3SITXWYCNWVKV4QWZ7QEIN8537PXBE","A24LB89P1BPKKF","3THR0FZ95PF7SK0MYRNAOUHTWA4OLV","","","<img src=""img/flower3.png"" style=""width:200px; border:14px solid green;"">","null","","","","","","","","",""
"308.80000001192093","","image-keyboard-response","304","321331","0.0-304.0","3SITXWYCNWVKV4QWZ7QEIN8537PXBE","A24LB89P1BPKKF","3THR0FZ95PF7SK0MYRNAOUHTWA4OLV","","","img/flower3.png","75","310.0999999642372","2","1","2","2","1,0,0,1,1,0,1,0,1","1,0,0,1,1,0,1,0,1","1",""
"null","","html-keyboard-response","305","321637","0.0-305.0","3SITXWYCNWVKV4QWZ7QEIN8537PXBE","A24LB89P1BPKKF","3THR0FZ95PF7SK0MYRNAOUHTWA4OLV","","","<img src=""img/flower3.png"" style=""width:200px; border:14px solid green;"">","null","","","","","","","","",""
"2291.699999988079","","image-keyboard-response","306","323931","0.0-306.0","3SITXWYCNWVKV4QWZ7QEIN8537PXBE","A24LB89P1BPKKF","3THR0FZ95PF7SK0MYRNAOUHTWA4OLV","","","img/flower2.png","74","2293.5","1","0","2","1","1,0.333,0.333,0.333,1,0.333,0.333,0.333,1","1,0.333,0.333,0.333,1,0.333,0.333,0.333,1","1",""
"null","","html-keyboard-response","307","324236","0.0-307.0","3SITXWYCNWVKV4QWZ7QEIN8537PXBE","A24LB89P1BPKKF","3THR0FZ95PF7SK0MYRNAOUHTWA4OLV","","","<img src=""img/flower2.png"" style=""width:200px;border:14px solid red;"">","null","","","","","","","","",""
"959.7000000476837","","image-keyboard-response","308","325197","0.0-308.0","3SITXWYCNWVKV4QWZ7QEIN8537PXBE","A24LB89P1BPKKF","3THR0FZ95PF7SK0MYRNAOUHTWA4OLV","","","img/flower6.png","74","960.5999999642372","1","1","3","1","1,0.333,0.333,0.333,1,0.333,0.333,0.333,1","1,0.333,0.333,0.333,1,0.333,0.333,0.333,1","1",""
"null","","html-keyboard-response","309","325500","0.0-309.0","3SITXWYCNWVKV4QWZ7QEIN8537PXBE","A24LB89P1BPKKF","3THR0FZ95PF7SK0MYRNAOUHTWA4OLV","","","<img src=""img/flower6.png"" style=""width:200px; border:14px solid green;"">","null","","","","","","","","",""
"1508.3999999761581","","image-keyboard-response","310","327010","0.0-310.0","3SITXWYCNWVKV4QWZ7QEIN8537PXBE","A24LB89P1BPKKF","3THR0FZ95PF7SK0MYRNAOUHTWA4OLV","","","img/flower1.png","75","1509.9000000357628","2","1","1","1","1,0.333,0.333,0.333,1,0.333,0.333,0.333,1","1,0.333,0.333,0.333,1,0.333,0.333,0.333,1","1",""
"null","","html-keyboard-response","311","327312","0.0-311.0","3SITXWYCNWVKV4QWZ7QEIN8537PXBE","A24LB89P1BPKKF","3THR0FZ95PF7SK0MYRNAOUHTWA4OLV","","","<img src=""img/flower1.png"" style=""width:200px; border:14px solid green;"">","null","","","","","","","","",""
"1048.1000000238419","","image-keyboard-response","312","328361","0.0-312.0","3SITXWYCNWVKV4QWZ7QEIN8537PXBE","A24LB89P1BPKKF","3THR0FZ95PF7SK0MYRNAOUHTWA4OLV","","","img/flower2.png","76","1049.199999988079","3","0","2","1","1,0.333,0.333,0.333,1,0.333,0.333,0.333,1","1,0.333,0.333,0.333,1,0.333,0.333,0.333,1","1",""
"null","","html-keyboard-response","313","328671","0.0-313.0","3SITXWYCNWVKV4QWZ7QEIN8537PXBE","A24LB89P1BPKKF","3THR0FZ95PF7SK0MYRNAOUHTWA4OLV","","","<img src=""img/flower2.png"" style=""width:200px;border:14px solid red;"">","null","","","","","","","","",""
"1935.6000000238419","","image-keyboard-response","314","330609","0.0-314.0","3SITXWYCNWVKV4QWZ7QEIN8537PXBE","A24LB89P1BPKKF","3THR0FZ95PF7SK0MYRNAOUHTWA4OLV","","","img/flower1.png","75","1937.800000011921","2","0","1","1","1,0.333,0.333,0.333,1,0.333,0.333,0.333,1","1,0.333,0.333,0.333,1,0.333,0.333,0.333,1","1",""
"null","","html-keyboard-response","315","330921","0.0-315.0","3SITXWYCNWVKV4QWZ7QEIN8537PXBE","A24LB89P1BPKKF","3THR0FZ95PF7SK0MYRNAOUHTWA4OLV","","","<img src=""img/flower1.png"" style=""width:200px;border:14px solid red;"">","null","","","","","","","","",""
"765.8999999761581","","image-keyboard-response","316","331689","0.0-316.0","3SITXWYCNWVKV4QWZ7QEIN8537PXBE","A24LB89P1BPKKF","3THR0FZ95PF7SK0MYRNAOUHTWA4OLV","","","img/flower2.png","75","767.5","2","1","2","1","1,0.333,0.333,0.333,1,0.333,0.333,0.333,1","1,0.333,0.333,0.333,1,0.333,0.333,0.333,1","1",""
"null","","html-keyboard-response","317","332000","0.0-317.0","3SITXWYCNWVKV4QWZ7QEIN8537PXBE","A24LB89P1BPKKF","3THR0FZ95PF7SK0MYRNAOUHTWA4OLV","","","<img src=""img/flower2.png"" style=""width:200px; border:14px solid green;"">","null","","","","","","","","",""
"420.89999997615814","","image-keyboard-response","318","332422","0.0-318.0","3SITXWYCNWVKV4QWZ7QEIN8537PXBE","A24LB89P1BPKKF","3THR0FZ95PF7SK0MYRNAOUHTWA4OLV","","","img/flower2.png","75","421.80000001192093","2","1","2","1","1,0.333,0.333,0.333,1,0.333,0.333,0.333,1","1,0.333,0.333,0.333,1,0.333,0.333,0.333,1","1",""
"null","","html-keyboard-response","319","332731","0.0-319.0","3SITXWYCNWVKV4QWZ7QEIN8537PXBE","A24LB89P1BPKKF","3THR0FZ95PF7SK0MYRNAOUHTWA4OLV","","","<img src=""img/flower2.png"" style=""width:200px; border:14px solid green;"">","null","","","","","","","","",""
"377.30000001192093","","image-keyboard-response","320","333112","0.0-320.0","3SITXWYCNWVKV4QWZ7QEIN8537PXBE","A24LB89P1BPKKF","3THR0FZ95PF7SK0MYRNAOUHTWA4OLV","","","img/flower2.png","75","379.69999998807907","2","1","2","1","1,0.333,0.333,0.333,1,0.333,0.333,0.333,1","1,0.333,0.333,0.333,1,0.333,0.333,0.333,1","1",""
"null","","html-keyboard-response","321","333421","0.0-321.0","3SITXWYCNWVKV4QWZ7QEIN8537PXBE","A24LB89P1BPKKF","3THR0FZ95PF7SK0MYRNAOUHTWA4OLV","","","<img src=""img/flower2.png"" style=""width:200px; border:14px solid green;"">","null","","","","","","","","",""
"1753.8999999761581","","image-keyboard-response","322","335179","0.0-322.0","3SITXWYCNWVKV4QWZ7QEIN8537PXBE","A24LB89P1BPKKF","3THR0FZ95PF7SK0MYRNAOUHTWA4OLV","","","img/flower6.png","75","1756.5999999642372","2","1","3","1","1,0.333,0.333,0.333,1,0.333,0.333,0.333,1","1,0.333,0.333,0.333,1,0.333,0.333,0.333,1","1",""
"null","","html-keyboard-response","323","335485","0.0-323.0","3SITXWYCNWVKV4QWZ7QEIN8537PXBE","A24LB89P1BPKKF","3THR0FZ95PF7SK0MYRNAOUHTWA4OLV","","","<img src=""img/flower6.png"" style=""width:200px; border:14px solid green;"">","null","","","","","","","","",""
"1113.5","","image-keyboard-response","324","336601","0.0-324.0","3SITXWYCNWVKV4QWZ7QEIN8537PXBE","A24LB89P1BPKKF","3THR0FZ95PF7SK0MYRNAOUHTWA4OLV","","","img/flower1.png","75","1115.300000011921","2","1","1","1","1,0.333,0.333,0.333,1,0.333,0.333,0.333,1","1,0.333,0.333,0.333,1,0.333,0.333,0.333,1","1",""
"null","","html-keyboard-response","325","336905","0.0-325.0","3SITXWYCNWVKV4QWZ7QEIN8537PXBE","A24LB89P1BPKKF","3THR0FZ95PF7SK0MYRNAOUHTWA4OLV","","","<img src=""img/flower1.png"" style=""width:200px; border:14px solid green;"">","null","","","","","","","","",""
"362","","image-keyboard-response","326","337270","0.0-326.0","3SITXWYCNWVKV4QWZ7QEIN8537PXBE","A24LB89P1BPKKF","3THR0FZ95PF7SK0MYRNAOUHTWA4OLV","","","img/flower1.png","75","364.0999999642372","2","0","1","1","1,0.333,0.333,0.333,1,0.333,0.333,0.333,1","1,0.333,0.333,0.333,1,0.333,0.333,0.333,1","1",""
"null","","html-keyboard-response","327","337581","0.0-327.0","3SITXWYCNWVKV4QWZ7QEIN8537PXBE","A24LB89P1BPKKF","3THR0FZ95PF7SK0MYRNAOUHTWA4OLV","","","<img src=""img/flower1.png"" style=""width:200px;border:14px solid red;"">","null","","","","","","","","",""
"648.2999999523163","","image-keyboard-response","328","338233","0.0-328.0","3SITXWYCNWVKV4QWZ7QEIN8537PXBE","A24LB89P1BPKKF","3THR0FZ95PF7SK0MYRNAOUHTWA4OLV","","","img/flower2.png","75","650.8999999761581","2","1","2","1","1,0.333,0.333,0.333,1,0.333,0.333,0.333,1","1,0.333,0.333,0.333,1,0.333,0.333,0.333,1","1",""
"null","","html-keyboard-response","329","338544","0.0-329.0","3SITXWYCNWVKV4QWZ7QEIN8537PXBE","A24LB89P1BPKKF","3THR0FZ95PF7SK0MYRNAOUHTWA4OLV","","","<img src=""img/flower2.png"" style=""width:200px; border:14px solid green;"">","null","","","","","","","","",""
"716.3000000119209","","image-keyboard-response","330","339262","0.0-330.0","3SITXWYCNWVKV4QWZ7QEIN8537PXBE","A24LB89P1BPKKF","3THR0FZ95PF7SK0MYRNAOUHTWA4OLV","","","img/flower1.png","76","717.6999999880791","3","0","1","1","1,0.333,0.333,0.333,1,0.333,0.333,0.333,1","1,0.333,0.333,0.333,1,0.333,0.333,0.333,1","1",""
"null","","html-keyboard-response","331","339569","0.0-331.0","3SITXWYCNWVKV4QWZ7QEIN8537PXBE","A24LB89P1BPKKF","3THR0FZ95PF7SK0MYRNAOUHTWA4OLV","","","<img src=""img/flower1.png"" style=""width:200px;border:14px solid red;"">","null","","","","","","","","",""
"718","","image-keyboard-response","332","340290","0.0-332.0","3SITXWYCNWVKV4QWZ7QEIN8537PXBE","A24LB89P1BPKKF","3THR0FZ95PF7SK0MYRNAOUHTWA4OLV","","","img/flower2.png","75","720.5","2","1","2","1","1,0.333,0.333,0.333,1,0.333,0.333,0.333,1","1,0.333,0.333,0.333,1,0.333,0.333,0.333,1","1",""
"null","","html-keyboard-response","333","340600","0.0-333.0","3SITXWYCNWVKV4QWZ7QEIN8537PXBE","A24LB89P1BPKKF","3THR0FZ95PF7SK0MYRNAOUHTWA4OLV","","","<img src=""img/flower2.png"" style=""width:200px; border:14px solid green;"">","null","","","","","","","","",""
"1214.199999988079","","image-keyboard-response","334","341817","0.0-334.0","3SITXWYCNWVKV4QWZ7QEIN8537PXBE","A24LB89P1BPKKF","3THR0FZ95PF7SK0MYRNAOUHTWA4OLV","","","img/flower1.png","74","1215.800000011921","1","1","1","1","1,0.333,0.333,0.333,1,0.333,0.333,0.333,1","1,0.333,0.333,0.333,1,0.333,0.333,0.333,1","1",""
"null","","html-keyboard-response","335","342131","0.0-335.0","3SITXWYCNWVKV4QWZ7QEIN8537PXBE","A24LB89P1BPKKF","3THR0FZ95PF7SK0MYRNAOUHTWA4OLV","","","<img src=""img/flower1.png"" style=""width:200px; border:14px solid green;"">","null","","","","","","","","",""
"1173.2999999523163","","image-keyboard-response","336","343308","0.0-336.0","3SITXWYCNWVKV4QWZ7QEIN8537PXBE","A24LB89P1BPKKF","3THR0FZ95PF7SK0MYRNAOUHTWA4OLV","","","img/flower2.png","75","1175.6000000238419","2","1","2","1","1,0.333,0.333,0.333,1,0.333,0.333,0.333,1","1,0.333,0.333,0.333,1,0.333,0.333,0.333,1","1",""
"null","","html-keyboard-response","337","343615","0.0-337.0","3SITXWYCNWVKV4QWZ7QEIN8537PXBE","A24LB89P1BPKKF","3THR0FZ95PF7SK0MYRNAOUHTWA4OLV","","","<img src=""img/flower2.png"" style=""width:200px; border:14px solid green;"">","null","","","","","","","","",""
"404.7000000476837","","image-keyboard-response","338","344023","0.0-338.0","3SITXWYCNWVKV4QWZ7QEIN8537PXBE","A24LB89P1BPKKF","3THR0FZ95PF7SK0MYRNAOUHTWA4OLV","","","img/flower1.png","74","407.10000002384186","1","1","1","1","1,0.333,0.333,0.333,1,0.333,0.333,0.333,1","1,0.333,0.333,0.333,1,0.333,0.333,0.333,1","1",""
"null","","html-keyboard-response","339","344328","0.0-339.0","3SITXWYCNWVKV4QWZ7QEIN8537PXBE","A24LB89P1BPKKF","3THR0FZ95PF7SK0MYRNAOUHTWA4OLV","","","<img src=""img/flower1.png"" style=""width:200px; border:14px solid green;"">","null","","","","","","","","",""
"980.1000000238419","","image-keyboard-response","340","345311","0.0-340.0","3SITXWYCNWVKV4QWZ7QEIN8537PXBE","A24LB89P1BPKKF","3THR0FZ95PF7SK0MYRNAOUHTWA4OLV","","","img/flower6.png","76","981.7000000476837","3","1","3","1","1,0.333,0.333,0.333,1,0.333,0.333,0.333,1","1,0.333,0.333,0.333,1,0.333,0.333,0.333,1","1",""
"null","","html-keyboard-response","341","345624","0.0-341.0","3SITXWYCNWVKV4QWZ7QEIN8537PXBE","A24LB89P1BPKKF","3THR0FZ95PF7SK0MYRNAOUHTWA4OLV","","","<img src=""img/flower6.png"" style=""width:200px; border:14px solid green;"">","null","","","","","","","","",""
"763.1999999880791","","image-keyboard-response","342","346390","0.0-342.0","3SITXWYCNWVKV4QWZ7QEIN8537PXBE","A24LB89P1BPKKF","3THR0FZ95PF7SK0MYRNAOUHTWA4OLV","","","img/flower2.png","75","765.1000000238419","2","1","2","1","1,0.333,0.333,0.333,1,0.333,0.333,0.333,1","1,0.333,0.333,0.333,1,0.333,0.333,0.333,1","1",""
"null","","html-keyboard-response","343","346697","0.0-343.0","3SITXWYCNWVKV4QWZ7QEIN8537PXBE","A24LB89P1BPKKF","3THR0FZ95PF7SK0MYRNAOUHTWA4OLV","","","<img src=""img/flower2.png"" style=""width:200px; border:14px solid green;"">","null","","","","","","","","",""
"372.39999997615814","","image-keyboard-response","344","347072","0.0-344.0","3SITXWYCNWVKV4QWZ7QEIN8537PXBE","A24LB89P1BPKKF","3THR0FZ95PF7SK0MYRNAOUHTWA4OLV","","","img/flower2.png","75","374.5","2","1","2","1","1,0.333,0.333,0.333,1,0.333,0.333,0.333,1","1,0.333,0.333,0.333,1,0.333,0.333,0.333,1","1",""
"null","","html-keyboard-response","345","347384","0.0-345.0","3SITXWYCNWVKV4QWZ7QEIN8537PXBE","A24LB89P1BPKKF","3THR0FZ95PF7SK0MYRNAOUHTWA4OLV","","","<img src=""img/flower2.png"" style=""width:200px; border:14px solid green;"">","null","","","","","","","","",""
"991.9000000357628","","image-keyboard-response","346","348379","0.0-346.0","3SITXWYCNWVKV4QWZ7QEIN8537PXBE","A24LB89P1BPKKF","3THR0FZ95PF7SK0MYRNAOUHTWA4OLV","","","img/flower6.png","76","994.2000000476837","3","1","3","1","1,0.333,0.333,0.333,1,0.333,0.333,0.333,1","1,0.333,0.333,0.333,1,0.333,0.333,0.333,1","1",""
"null","","html-keyboard-response","347","348681","0.0-347.0","3SITXWYCNWVKV4QWZ7QEIN8537PXBE","A24LB89P1BPKKF","3THR0FZ95PF7SK0MYRNAOUHTWA4OLV","","","<img src=""img/flower6.png"" style=""width:200px; border:14px solid green;"">","null","","","","","","","","",""
"805.6999999880791","","image-keyboard-response","348","349489","0.0-348.0","3SITXWYCNWVKV4QWZ7QEIN8537PXBE","A24LB89P1BPKKF","3THR0FZ95PF7SK0MYRNAOUHTWA4OLV","","","img/flower2.png","75","807.5","2","1","2","1","1,0.333,0.333,0.333,1,0.333,0.333,0.333,1","1,0.333,0.333,0.333,1,0.333,0.333,0.333,1","1",""
"null","","html-keyboard-response","349","349807","0.0-349.0","3SITXWYCNWVKV4QWZ7QEIN8537PXBE","A24LB89P1BPKKF","3THR0FZ95PF7SK0MYRNAOUHTWA4OLV","","","<img src=""img/flower2.png"" style=""width:200px; border:14px solid green;"">","null","","","","","","","","",""
"489","","image-keyboard-response","350","350299","0.0-350.0","3SITXWYCNWVKV4QWZ7QEIN8537PXBE","A24LB89P1BPKKF","3THR0FZ95PF7SK0MYRNAOUHTWA4OLV","","","img/flower6.png","76","491.39999997615814","3","1","3","1","1,0.333,0.333,0.333,1,0.333,0.333,0.333,1","1,0.333,0.333,0.333,1,0.333,0.333,0.333,1","1",""
"null","","html-keyboard-response","351","350613","0.0-351.0","3SITXWYCNWVKV4QWZ7QEIN8537PXBE","A24LB89P1BPKKF","3THR0FZ95PF7SK0MYRNAOUHTWA4OLV","","","<img src=""img/flower6.png"" style=""width:200px; border:14px solid green;"">","null","","","","","","","","",""
"550.1999999880791","","image-keyboard-response","352","351166","0.0-352.0","3SITXWYCNWVKV4QWZ7QEIN8537PXBE","A24LB89P1BPKKF","3THR0FZ95PF7SK0MYRNAOUHTWA4OLV","","","img/flower6.png","76","552.3000000119209","3","1","3","1","1,0.333,0.333,0.333,1,0.333,0.333,0.333,1","1,0.333,0.333,0.333,1,0.333,0.333,0.333,1","1",""
"null","","html-keyboard-response","353","351481","0.0-353.0","3SITXWYCNWVKV4QWZ7QEIN8537PXBE","A24LB89P1BPKKF","3THR0FZ95PF7SK0MYRNAOUHTWA4OLV","","","<img src=""img/flower6.png"" style=""width:200px; border:14px solid green;"">","null","","","","","","","","",""
"724.8000000119209","","image-keyboard-response","354","352209","0.0-354.0","3SITXWYCNWVKV4QWZ7QEIN8537PXBE","A24LB89P1BPKKF","3THR0FZ95PF7SK0MYRNAOUHTWA4OLV","","","img/flower1.png","74","727.1999999880791","1","1","1","1","1,0.333,0.333,0.333,1,0.333,0.333,0.333,1","1,0.333,0.333,0.333,1,0.333,0.333,0.333,1","1",""
"null","","html-keyboard-response","355","352514","0.0-355.0","3SITXWYCNWVKV4QWZ7QEIN8537PXBE","A24LB89P1BPKKF","3THR0FZ95PF7SK0MYRNAOUHTWA4OLV","","","<img src=""img/flower1.png"" style=""width:200px; border:14px solid green;"">","null","","","","","","","","",""
"379.80000001192093","","image-keyboard-response","356","352896","0.0-356.0","3SITXWYCNWVKV4QWZ7QEIN8537PXBE","A24LB89P1BPKKF","3THR0FZ95PF7SK0MYRNAOUHTWA4OLV","","","img/flower1.png","74","381.30000001192093","1","1","1","1","1,0.333,0.333,0.333,1,0.333,0.333,0.333,1","1,0.333,0.333,0.333,1,0.333,0.333,0.333,1","1",""
"null","","html-keyboard-response","357","353203","0.0-357.0","3SITXWYCNWVKV4QWZ7QEIN8537PXBE","A24LB89P1BPKKF","3THR0FZ95PF7SK0MYRNAOUHTWA4OLV","","","<img src=""img/flower1.png"" style=""width:200px; border:14px solid green;"">","null","","","","","","","","",""
"689.3000000119209","","image-keyboard-response","358","353893","0.0-358.0","3SITXWYCNWVKV4QWZ7QEIN8537PXBE","A24LB89P1BPKKF","3THR0FZ95PF7SK0MYRNAOUHTWA4OLV","","","img/flower2.png","75","690.2000000476837","2","1","2","1","1,0.333,0.333,0.333,1,0.333,0.333,0.333,1","1,0.333,0.333,0.333,1,0.333,0.333,0.333,1","1",""
"null","","html-keyboard-response","359","354196","0.0-359.0","3SITXWYCNWVKV4QWZ7QEIN8537PXBE","A24LB89P1BPKKF","3THR0FZ95PF7SK0MYRNAOUHTWA4OLV","","","<img src=""img/flower2.png"" style=""width:200px; border:14px solid green;"">","null","","","","","","","","",""
"320.39999997615814","","image-keyboard-response","360","354519","0.0-360.0","3SITXWYCNWVKV4QWZ7QEIN8537PXBE","A24LB89P1BPKKF","3THR0FZ95PF7SK0MYRNAOUHTWA4OLV","","","img/flower2.png","75","322.5","2","1","2","1","1,0.333,0.333,0.333,1,0.333,0.333,0.333,1","1,0.333,0.333,0.333,1,0.333,0.333,0.333,1","1",""
"null","","html-keyboard-response","361","354831","0.0-361.0","3SITXWYCNWVKV4QWZ7QEIN8537PXBE","A24LB89P1BPKKF","3THR0FZ95PF7SK0MYRNAOUHTWA4OLV","","","<img src=""img/flower2.png"" style=""width:200px; border:14px solid green;"">","null","","","","","","","","",""
"619.8000000119209","","image-keyboard-response","362","355453","0.0-362.0","3SITXWYCNWVKV4QWZ7QEIN8537PXBE","A24LB89P1BPKKF","3THR0FZ95PF7SK0MYRNAOUHTWA4OLV","","","img/flower6.png","76","620.9000000357628","3","1","3","1","1,0.333,0.333,0.333,1,0.333,0.333,0.333,1","1,0.333,0.333,0.333,1,0.333,0.333,0.333,1","1",""
"null","","html-keyboard-response","363","355765","0.0-363.0","3SITXWYCNWVKV4QWZ7QEIN8537PXBE","A24LB89P1BPKKF","3THR0FZ95PF7SK0MYRNAOUHTWA4OLV","","","<img src=""img/flower6.png"" style=""width:200px; border:14px solid green;"">","null","","","","","","","","",""
"275.39999997615814","","image-keyboard-response","364","356043","0.0-364.0","3SITXWYCNWVKV4QWZ7QEIN8537PXBE","A24LB89P1BPKKF","3THR0FZ95PF7SK0MYRNAOUHTWA4OLV","","","img/flower6.png","76","277.30000001192093","3","1","3","1","1,0.333,0.333,0.333,1,0.333,0.333,0.333,1","1,0.333,0.333,0.333,1,0.333,0.333,0.333,1","1",""
"null","","html-keyboard-response","365","356356","0.0-365.0","3SITXWYCNWVKV4QWZ7QEIN8537PXBE","A24LB89P1BPKKF","3THR0FZ95PF7SK0MYRNAOUHTWA4OLV","","","<img src=""img/flower6.png"" style=""width:200px; border:14px solid green;"">","null","","","","","","","","",""
"307.69999998807907","","image-keyboard-response","366","356666","0.0-366.0","3SITXWYCNWVKV4QWZ7QEIN8537PXBE","A24LB89P1BPKKF","3THR0FZ95PF7SK0MYRNAOUHTWA4OLV","","","img/flower6.png","76","309.7999999523163","3","1","3","1","1,0.333,0.333,0.333,1,0.333,0.333,0.333,1","1,0.333,0.333,0.333,1,0.333,0.333,0.333,1","1",""
"null","","html-keyboard-response","367","356977","0.0-367.0","3SITXWYCNWVKV4QWZ7QEIN8537PXBE","A24LB89P1BPKKF","3THR0FZ95PF7SK0MYRNAOUHTWA4OLV","","","<img src=""img/flower6.png"" style=""width:200px; border:14px solid green;"">","null","","","","","","","","",""
"518.1000000238419","","image-keyboard-response","368","357496","0.0-368.0","3SITXWYCNWVKV4QWZ7QEIN8537PXBE","A24LB89P1BPKKF","3THR0FZ95PF7SK0MYRNAOUHTWA4OLV","","","img/flower2.png","75","519","2","1","2","1","1,0.333,0.333,0.333,1,0.333,0.333,0.333,1","1,0.333,0.333,0.333,1,0.333,0.333,0.333,1","1",""
"null","","html-keyboard-response","369","357812","0.0-369.0","3SITXWYCNWVKV4QWZ7QEIN8537PXBE","A24LB89P1BPKKF","3THR0FZ95PF7SK0MYRNAOUHTWA4OLV","","","<img src=""img/flower2.png"" style=""width:200px; border:14px solid green;"">","null","","","","","","","","",""
"942.1000000238419","","image-keyboard-response","370","358756","0.0-370.0","3SITXWYCNWVKV4QWZ7QEIN8537PXBE","A24LB89P1BPKKF","3THR0FZ95PF7SK0MYRNAOUHTWA4OLV","","","img/flower1.png","74","944.4000000357628","1","1","1","1","1,0.333,0.333,0.333,1,0.333,0.333,0.333,1","1,0.333,0.333,0.333,1,0.333,0.333,0.333,1","1",""
"null","","html-keyboard-response","371","359074","0.0-371.0","3SITXWYCNWVKV4QWZ7QEIN8537PXBE","A24LB89P1BPKKF","3THR0FZ95PF7SK0MYRNAOUHTWA4OLV","","","<img src=""img/flower1.png"" style=""width:200px; border:14px solid green;"">","null","","","","","","","","",""
"500.5","","image-keyboard-response","372","359576","0.0-372.0","3SITXWYCNWVKV4QWZ7QEIN8537PXBE","A24LB89P1BPKKF","3THR0FZ95PF7SK0MYRNAOUHTWA4OLV","","","img/flower2.png","75","502.5","2","1","2","1","1,0.333,0.333,0.333,1,0.333,0.333,0.333,1","1,0.333,0.333,0.333,1,0.333,0.333,0.333,1","1",""
"null","","html-keyboard-response","373","359886","0.0-373.0","3SITXWYCNWVKV4QWZ7QEIN8537PXBE","A24LB89P1BPKKF","3THR0FZ95PF7SK0MYRNAOUHTWA4OLV","","","<img src=""img/flower2.png"" style=""width:200px; border:14px solid green;"">","null","","","","","","","","",""
"764.2999999523163","","image-keyboard-response","374","360653","0.0-374.0","3SITXWYCNWVKV4QWZ7QEIN8537PXBE","A24LB89P1BPKKF","3THR0FZ95PF7SK0MYRNAOUHTWA4OLV","","","img/flower1.png","74","766.7000000476837","1","1","1","1","1,0.333,0.333,0.333,1,0.333,0.333,0.333,1","1,0.333,0.333,0.333,1,0.333,0.333,0.333,1","1",""
"null","","html-keyboard-response","375","360962","0.0-375.0","3SITXWYCNWVKV4QWZ7QEIN8537PXBE","A24LB89P1BPKKF","3THR0FZ95PF7SK0MYRNAOUHTWA4OLV","","","<img src=""img/flower1.png"" style=""width:200px; border:14px solid green;"">","null","","","","","","","","",""
"518.5999999642372","","image-keyboard-response","376","361484","0.0-376.0","3SITXWYCNWVKV4QWZ7QEIN8537PXBE","A24LB89P1BPKKF","3THR0FZ95PF7SK0MYRNAOUHTWA4OLV","","","img/flower6.png","76","520.8999999761581","3","1","3","1","1,0.333,0.333,0.333,1,0.333,0.333,0.333,1","1,0.333,0.333,0.333,1,0.333,0.333,0.333,1","1",""
