"success","trial_type","trial_index","time_elapsed","internal_node_id","assignmentID","mturkID","hitID","view_history","rt","stimulus","key_press","reactionTime","a","r","s","cond","reward_cond","reward_cond_actual","reward_matrix_idx","responses"
"true","fullscreen","0","3712","0.0-0.0","3570Y55XZQ55MQOHKP4U2C6BMIIYGU","A24MNMHSFYW6B","3JUDR1D0D6D4CARU3YX9Y3DK5DJ2QK","","","","","","","","","","","","",""
"","instructions","1","15213","0.0-1.0","3570Y55XZQ55MQOHKP4U2C6BMIIYGU","A24MNMHSFYW6B","3JUDR1D0D6D4CARU3YX9Y3DK5DJ2QK","[{""page_index"":0,""viewing_time"":1619.6000000014901},{""page_index"":1,""viewing_time"":1024},{""page_index"":2,""viewing_time"":1223.6000000014901},{""page_index"":3,""viewing_time"":1233},{""page_index"":4,""viewing_time"":1472},{""page_index"":5,""viewing_time"":1887.2999999970198},{""page_index"":6,""viewing_time"":1520.2000000029802},{""page_index"":7,""viewing_time"":1519.1999999955297}]","11499.39999999851","","","","","","","","","","",""
"","image-keyboard-response","2","16086","0.0-2.0","3570Y55XZQ55MQOHKP4U2C6BMIIYGU","A24MNMHSFYW6B","3JUDR1D0D6D4CARU3YX9Y3DK5DJ2QK","","871","img/flower3.png","74","872.1999999955297","1","1","2","1","1,0.333,0.333,0.333,1,0.333,0.333,0.333,1","1,0.333,0.333,0.333,1,0.333,0.333,0.333,1","1",""
"","html-keyboard-response","3","16388","0.0-3.0","3570Y55XZQ55MQOHKP4U2C6BMIIYGU","A24MNMHSFYW6B","3JUDR1D0D6D4CARU3YX9Y3DK5DJ2QK","","null","<img src=""img/flower3.png"" style=""width:200px; border:14px solid green;"">","null","","","","","","","","",""
"","image-keyboard-response","4","16492","0.0-4.0","3570Y55XZQ55MQOHKP4U2C6BMIIYGU","A24MNMHSFYW6B","3JUDR1D0D6D4CARU3YX9Y3DK5DJ2QK","","103.5","img/flower5.png","75","104.20000000298023","2","0","1","1","1,0.333,0.333,0.333,1,0.333,0.333,0.333,1","1,0.333,0.333,0.333,1,0.333,0.333,0.333,1","1",""
"","html-keyboard-response","5","16795","0.0-5.0","3570Y55XZQ55MQOHKP4U2C6BMIIYGU","A24MNMHSFYW6B","3JUDR1D0D6D4CARU3YX9Y3DK5DJ2QK","","null","<img src=""img/flower5.png"" style=""width:200px;border:14px solid red;"">","null","","","","","","","","",""
"","image-keyboard-response","6","16869","0.0-6.0","3570Y55XZQ55MQOHKP4U2C6BMIIYGU","A24MNMHSFYW6B","3JUDR1D0D6D4CARU3YX9Y3DK5DJ2QK","","72.89999999850988","img/flower3.png","74","73.70000000298023","1","1","2","1","1,0.333,0.333,0.333,1,0.333,0.333,0.333,1","1,0.333,0.333,0.333,1,0.333,0.333,0.333,1","1",""
"","html-keyboard-response","7","17171","0.0-7.0","3570Y55XZQ55MQOHKP4U2C6BMIIYGU","A24MNMHSFYW6B","3JUDR1D0D6D4CARU3YX9Y3DK5DJ2QK","","null","<img src=""img/flower3.png"" style=""width:200px; border:14px solid green;"">","null","","","","","","","","",""
"","image-keyboard-response","8","17228","0.0-8.0","3570Y55XZQ55MQOHKP4U2C6BMIIYGU","A24MNMHSFYW6B","3JUDR1D0D6D4CARU3YX9Y3DK5DJ2QK","","56.5","img/flower3.png","74","57.20000000298023","1","1","2","1","1,0.333,0.333,0.333,1,0.333,0.333,0.333,1","1,0.333,0.333,0.333,1,0.333,0.333,0.333,1","1",""
"","html-keyboard-response","9","17531","0.0-9.0","3570Y55XZQ55MQOHKP4U2C6BMIIYGU","A24MNMHSFYW6B","3JUDR1D0D6D4CARU3YX9Y3DK5DJ2QK","","null","<img src=""img/flower3.png"" style=""width:200px; border:14px solid green;"">","null","","","","","","","","",""
"","image-keyboard-response","10","17597","0.0-10.0","3570Y55XZQ55MQOHKP4U2C6BMIIYGU","A24MNMHSFYW6B","3JUDR1D0D6D4CARU3YX9Y3DK5DJ2QK","","64.5","img/flower4.png","74","65.30000000447035","1","0","3","1","1,0.333,0.333,0.333,1,0.333,0.333,0.333,1","1,0.333,0.333,0.333,1,0.333,0.333,0.333,1","1",""
"","html-keyboard-response","11","17899","0.0-11.0","3570Y55XZQ55MQOHKP4U2C6BMIIYGU","A24MNMHSFYW6B","3JUDR1D0D6D4CARU3YX9Y3DK5DJ2QK","","null","<img src=""img/flower4.png"" style=""width:200px;border:14px solid red;"">","null","","","","","","","","",""
"","image-keyboard-response","12","17973","0.0-12.0","3570Y55XZQ55MQOHKP4U2C6BMIIYGU","A24MNMHSFYW6B","3JUDR1D0D6D4CARU3YX9Y3DK5DJ2QK","","72.69999999552965","img/flower5.png","75","73.5","2","0","1","1","1,0.333,0.333,0.333,1,0.333,0.333,0.333,1","1,0.333,0.333,0.333,1,0.333,0.333,0.333,1","1",""
"","html-keyboard-response","13","18274","0.0-13.0","3570Y55XZQ55MQOHKP4U2C6BMIIYGU","A24MNMHSFYW6B","3JUDR1D0D6D4CARU3YX9Y3DK5DJ2QK","","null","<img src=""img/flower5.png"" style=""width:200px;border:14px solid red;"">","null","","","","","","","","",""
"","image-keyboard-response","14","18373","0.0-14.0","3570Y55XZQ55MQOHKP4U2C6BMIIYGU","A24MNMHSFYW6B","3JUDR1D0D6D4CARU3YX9Y3DK5DJ2QK","","97.89999999850988","img/flower3.png","75","98.70000000298023","2","1","2","1","1,0.333,0.333,0.333,1,0.333,0.333,0.333,1","1,0.333,0.333,0.333,1,0.333,0.333,0.333,1","1",""
"","html-keyboard-response","15","18674","0.0-15.0","3570Y55XZQ55MQOHKP4U2C6BMIIYGU","A24MNMHSFYW6B","3JUDR1D0D6D4CARU3YX9Y3DK5DJ2QK","","null","<img src=""img/flower3.png"" style=""width:200px; border:14px solid green;"">","null","","","","","","","","",""
"","image-keyboard-response","16","18756","0.0-16.0","3570Y55XZQ55MQOHKP4U2C6BMIIYGU","A24MNMHSFYW6B","3JUDR1D0D6D4CARU3YX9Y3DK5DJ2QK","","81.5","img/flower3.png","74","81.89999999850988","1","1","2","1","1,0.333,0.333,0.333,1,0.333,0.333,0.333,1","1,0.333,0.333,0.333,1,0.333,0.333,0.333,1","1",""
"","html-keyboard-response","17","19059","0.0-17.0","3570Y55XZQ55MQOHKP4U2C6BMIIYGU","A24MNMHSFYW6B","3JUDR1D0D6D4CARU3YX9Y3DK5DJ2QK","","null","<img src=""img/flower3.png"" style=""width:200px; border:14px solid green;"">","null","","","","","","","","",""
"","image-keyboard-response","18","19133","0.0-18.0","3570Y55XZQ55MQOHKP4U2C6BMIIYGU","A24MNMHSFYW6B","3JUDR1D0D6D4CARU3YX9Y3DK5DJ2QK","","73.20000000298023","img/flower4.png","74","74.10000000149012","1","1","3","1","1,0.333,0.333,0.333,1,0.333,0.333,0.333,1","1,0.333,0.333,0.333,1,0.333,0.333,0.333,1","1",""
"","html-keyboard-response","19","19434","0.0-19.0","3570Y55XZQ55MQOHKP4U2C6BMIIYGU","A24MNMHSFYW6B","3JUDR1D0D6D4CARU3YX9Y3DK5DJ2QK","","null","<img src=""img/flower4.png"" style=""width:200px; border:14px solid green;"">","null","","","","","","","","",""
"","image-keyboard-response","20","19533","0.0-20.0","3570Y55XZQ55MQOHKP4U2C6BMIIYGU","A24MNMHSFYW6B","3JUDR1D0D6D4CARU3YX9Y3DK5DJ2QK","","98.09999999403954","img/flower3.png","75","98.89999999850988","2","1","2","1","1,0.333,0.333,0.333,1,0.333,0.333,0.333,1","1,0.333,0.333,0.333,1,0.333,0.333,0.333,1","1",""
"","html-keyboard-response","21","19835","0.0-21.0","3570Y55XZQ55MQOHKP4U2C6BMIIYGU","A24MNMHSFYW6B","3JUDR1D0D6D4CARU3YX9Y3DK5DJ2QK","","null","<img src=""img/flower3.png"" style=""width:200px; border:14px solid green;"">","null","","","","","","","","",""
"","image-keyboard-response","22","19909","0.0-22.0","3570Y55XZQ55MQOHKP4U2C6BMIIYGU","A24MNMHSFYW6B","3JUDR1D0D6D4CARU3YX9Y3DK5DJ2QK","","72.5","img/flower3.png","74","73.29999999701977","1","0","2","1","1,0.333,0.333,0.333,1,0.333,0.333,0.333,1","1,0.333,0.333,0.333,1,0.333,0.333,0.333,1","1",""
"","html-keyboard-response","23","20212","0.0-23.0","3570Y55XZQ55MQOHKP4U2C6BMIIYGU","A24MNMHSFYW6B","3JUDR1D0D6D4CARU3YX9Y3DK5DJ2QK","","null","<img src=""img/flower3.png"" style=""width:200px;border:14px solid red;"">","null","","","","","","","","",""
"","image-keyboard-response","24","20302","0.0-24.0","3570Y55XZQ55MQOHKP4U2C6BMIIYGU","A24MNMHSFYW6B","3JUDR1D0D6D4CARU3YX9Y3DK5DJ2QK","","88.70000000298023","img/flower4.png","74","89.40000000596046","1","1","3","1","1,0.333,0.333,0.333,1,0.333,0.333,0.333,1","1,0.333,0.333,0.333,1,0.333,0.333,0.333,1","1",""
"","html-keyboard-response","25","20604","0.0-25.0","3570Y55XZQ55MQOHKP4U2C6BMIIYGU","A24MNMHSFYW6B","3JUDR1D0D6D4CARU3YX9Y3DK5DJ2QK","","null","<img src=""img/flower4.png"" style=""width:200px; border:14px solid green;"">","null","","","","","","","","",""
"","image-keyboard-response","26","20676","0.0-26.0","3570Y55XZQ55MQOHKP4U2C6BMIIYGU","A24MNMHSFYW6B","3JUDR1D0D6D4CARU3YX9Y3DK5DJ2QK","","71.5","img/flower5.png","74","72.19999999552965","1","1","1","1","1,0.333,0.333,0.333,1,0.333,0.333,0.333,1","1,0.333,0.333,0.333,1,0.333,0.333,0.333,1","1",""
"","html-keyboard-response","27","20979","0.0-27.0","3570Y55XZQ55MQOHKP4U2C6BMIIYGU","A24MNMHSFYW6B","3JUDR1D0D6D4CARU3YX9Y3DK5DJ2QK","","null","<img src=""img/flower5.png"" style=""width:200px; border:14px solid green;"">","null","","","","","","","","",""
"","image-keyboard-response","28","21037","0.0-28.0","3570Y55XZQ55MQOHKP4U2C6BMIIYGU","A24MNMHSFYW6B","3JUDR1D0D6D4CARU3YX9Y3DK5DJ2QK","","57","img/flower5.png","74","57.79999999701977","1","1","1","1","1,0.333,0.333,0.333,1,0.333,0.333,0.333,1","1,0.333,0.333,0.333,1,0.333,0.333,0.333,1","1",""
"","html-keyboard-response","29","21339","0.0-29.0","3570Y55XZQ55MQOHKP4U2C6BMIIYGU","A24MNMHSFYW6B","3JUDR1D0D6D4CARU3YX9Y3DK5DJ2QK","","null","<img src=""img/flower5.png"" style=""width:200px; border:14px solid green;"">","null","","","","","","","","",""
"","image-keyboard-response","30","21412","0.0-30.0","3570Y55XZQ55MQOHKP4U2C6BMIIYGU","A24MNMHSFYW6B","3JUDR1D0D6D4CARU3YX9Y3DK5DJ2QK","","72.5","img/flower4.png","74","73.20000000298023","1","0","3","1","1,0.333,0.333,0.333,1,0.333,0.333,0.333,1","1,0.333,0.333,0.333,1,0.333,0.333,0.333,1","1",""
"","html-keyboard-response","31","21715","0.0-31.0","3570Y55XZQ55MQOHKP4U2C6BMIIYGU","A24MNMHSFYW6B","3JUDR1D0D6D4CARU3YX9Y3DK5DJ2QK","","null","<img src=""img/flower4.png"" style=""width:200px;border:14px solid red;"">","null","","","","","","","","",""
"","image-keyboard-response","32","21764","0.0-32.0","3570Y55XZQ55MQOHKP4U2C6BMIIYGU","A24MNMHSFYW6B","3JUDR1D0D6D4CARU3YX9Y3DK5DJ2QK","","48.30000000447035","img/flower4.png","74","48.899999998509884","1","0","3","1","1,0.333,0.333,0.333,1,0.333,0.333,0.333,1","1,0.333,0.333,0.333,1,0.333,0.333,0.333,1","1",""
"","html-keyboard-response","33","22066","0.0-33.0","3570Y55XZQ55MQOHKP4U2C6BMIIYGU","A24MNMHSFYW6B","3JUDR1D0D6D4CARU3YX9Y3DK5DJ2QK","","null","<img src=""img/flower4.png"" style=""width:200px;border:14px solid red;"">","null","","","","","","","","",""
"","image-keyboard-response","34","22124","0.0-34.0","3570Y55XZQ55MQOHKP4U2C6BMIIYGU","A24MNMHSFYW6B","3JUDR1D0D6D4CARU3YX9Y3DK5DJ2QK","","57.600000001490116","img/flower5.png","74","58.20000000298023","1","1","1","1","1,0.333,0.333,0.333,1,0.333,0.333,0.333,1","1,0.333,0.333,0.333,1,0.333,0.333,0.333,1","1",""
"","html-keyboard-response","35","22427","0.0-35.0","3570Y55XZQ55MQOHKP4U2C6BMIIYGU","A24MNMHSFYW6B","3JUDR1D0D6D4CARU3YX9Y3DK5DJ2QK","","null","<img src=""img/flower5.png"" style=""width:200px; border:14px solid green;"">","null","","","","","","","","",""
"","image-keyboard-response","36","22500","0.0-36.0","3570Y55XZQ55MQOHKP4U2C6BMIIYGU","A24MNMHSFYW6B","3JUDR1D0D6D4CARU3YX9Y3DK5DJ2QK","","72.69999999552965","img/flower5.png","75","73.29999999701977","2","0","1","1","1,0.333,0.333,0.333,1,0.333,0.333,0.333,1","1,0.333,0.333,0.333,1,0.333,0.333,0.333,1","1",""
"","html-keyboard-response","37","22802","0.0-37.0","3570Y55XZQ55MQOHKP4U2C6BMIIYGU","A24MNMHSFYW6B","3JUDR1D0D6D4CARU3YX9Y3DK5DJ2QK","","null","<img src=""img/flower5.png"" style=""width:200px;border:14px solid red;"">","null","","","","","","","","",""
"","image-keyboard-response","38","22901","0.0-38.0","3570Y55XZQ55MQOHKP4U2C6BMIIYGU","A24MNMHSFYW6B","3JUDR1D0D6D4CARU3YX9Y3DK5DJ2QK","","98","img/flower4.png","74","98.70000000298023","1","0","3","1","1,0.333,0.333,0.333,1,0.333,0.333,0.333,1","1,0.333,0.333,0.333,1,0.333,0.333,0.333,1","1",""
"","html-keyboard-response","39","23202","0.0-39.0","3570Y55XZQ55MQOHKP4U2C6BMIIYGU","A24MNMHSFYW6B","3JUDR1D0D6D4CARU3YX9Y3DK5DJ2QK","","null","<img src=""img/flower4.png"" style=""width:200px;border:14px solid red;"">","null","","","","","","","","",""
"","image-keyboard-response","40","23293","0.0-40.0","3570Y55XZQ55MQOHKP4U2C6BMIIYGU","A24MNMHSFYW6B","3JUDR1D0D6D4CARU3YX9Y3DK5DJ2QK","","89.89999999850988","img/flower5.png","74","90.60000000149012","1","1","1","1","1,0.333,0.333,0.333,1,0.333,0.333,0.333,1","1,0.333,0.333,0.333,1,0.333,0.333,0.333,1","1",""
"","html-keyboard-response","41","23595","0.0-41.0","3570Y55XZQ55MQOHKP4U2C6BMIIYGU","A24MNMHSFYW6B","3JUDR1D0D6D4CARU3YX9Y3DK5DJ2QK","","null","<img src=""img/flower5.png"" style=""width:200px; border:14px solid green;"">","null","","","","","","","","",""
"","image-keyboard-response","42","23684","0.0-42.0","3570Y55XZQ55MQOHKP4U2C6BMIIYGU","A24MNMHSFYW6B","3JUDR1D0D6D4CARU3YX9Y3DK5DJ2QK","","88.19999999552965","img/flower5.png","74","88.80000000447035","1","1","1","1","1,0.333,0.333,0.333,1,0.333,0.333,0.333,1","1,0.333,0.333,0.333,1,0.333,0.333,0.333,1","1",""
"","html-keyboard-response","43","23985","0.0-43.0","3570Y55XZQ55MQOHKP4U2C6BMIIYGU","A24MNMHSFYW6B","3JUDR1D0D6D4CARU3YX9Y3DK5DJ2QK","","null","<img src=""img/flower5.png"" style=""width:200px; border:14px solid green;"">","null","","","","","","","","",""
"","image-keyboard-response","44","24085","0.0-44.0","3570Y55XZQ55MQOHKP4U2C6BMIIYGU","A24MNMHSFYW6B","3JUDR1D0D6D4CARU3YX9Y3DK5DJ2QK","","99.19999999552965","img/flower5.png","74","99.79999999701977","1","1","1","1","1,0.333,0.333,0.333,1,0.333,0.333,0.333,1","1,0.333,0.333,0.333,1,0.333,0.333,0.333,1","1",""
"","html-keyboard-response","45","24386","0.0-45.0","3570Y55XZQ55MQOHKP4U2C6BMIIYGU","A24MNMHSFYW6B","3JUDR1D0D6D4CARU3YX9Y3DK5DJ2QK","","null","<img src=""img/flower5.png"" style=""width:200px; border:14px solid green;"">","null","","","","","","","","",""
"","image-keyboard-response","46","24485","0.0-46.0","3570Y55XZQ55MQOHKP4U2C6BMIIYGU","A24MNMHSFYW6B","3JUDR1D0D6D4CARU3YX9Y3DK5DJ2QK","","97.5","img/flower5.png","74","98.30000000447035","1","1","1","1","1,0.333,0.333,0.333,1,0.333,0.333,0.333,1","1,0.333,0.333,0.333,1,0.333,0.333,0.333,1","1",""
"","html-keyboard-response","47","24787","0.0-47.0","3570Y55XZQ55MQOHKP4U2C6BMIIYGU","A24MNMHSFYW6B","3JUDR1D0D6D4CARU3YX9Y3DK5DJ2QK","","null","<img src=""img/flower5.png"" style=""width:200px; border:14px solid green;"">","null","","","","","","","","",""
"","image-keyboard-response","48","24892","0.0-48.0","3570Y55XZQ55MQOHKP4U2C6BMIIYGU","A24MNMHSFYW6B","3JUDR1D0D6D4CARU3YX9Y3DK5DJ2QK","","104.10000000149012","img/flower5.png","74","104.80000000447035","1","1","1","1","1,0.333,0.333,0.333,1,0.333,0.333,0.333,1","1,0.333,0.333,0.333,1,0.333,0.333,0.333,1","1",""
"","html-keyboard-response","49","25194","0.0-49.0","3570Y55XZQ55MQOHKP4U2C6BMIIYGU","A24MNMHSFYW6B","3JUDR1D0D6D4CARU3YX9Y3DK5DJ2QK","","null","<img src=""img/flower5.png"" style=""width:200px; border:14px solid green;"">","null","","","","","","","","",""
"","image-keyboard-response","50","25308","0.0-50.0","3570Y55XZQ55MQOHKP4U2C6BMIIYGU","A24MNMHSFYW6B","3JUDR1D0D6D4CARU3YX9Y3DK5DJ2QK","","112.90000000596046","img/flower5.png","74","113.79999999701977","1","1","1","1","1,0.333,0.333,0.333,1,0.333,0.333,0.333,1","1,0.333,0.333,0.333,1,0.333,0.333,0.333,1","1",""
"","html-keyboard-response","51","25610","0.0-51.0","3570Y55XZQ55MQOHKP4U2C6BMIIYGU","A24MNMHSFYW6B","3JUDR1D0D6D4CARU3YX9Y3DK5DJ2QK","","null","<img src=""img/flower5.png"" style=""width:200px; border:14px solid green;"">","null","","","","","","","","",""
"","image-keyboard-response","52","25716","0.0-52.0","3570Y55XZQ55MQOHKP4U2C6BMIIYGU","A24MNMHSFYW6B","3JUDR1D0D6D4CARU3YX9Y3DK5DJ2QK","","105.79999999701977","img/flower3.png","74","106.5","1","0","2","1","1,0.333,0.333,0.333,1,0.333,0.333,0.333,1","1,0.333,0.333,0.333,1,0.333,0.333,0.333,1","1",""
"","html-keyboard-response","53","26018","0.0-53.0","3570Y55XZQ55MQOHKP4U2C6BMIIYGU","A24MNMHSFYW6B","3JUDR1D0D6D4CARU3YX9Y3DK5DJ2QK","","null","<img src=""img/flower3.png"" style=""width:200px;border:14px solid red;"">","null","","","","","","","","",""
"","image-keyboard-response","54","26124","0.0-54.0","3570Y55XZQ55MQOHKP4U2C6BMIIYGU","A24MNMHSFYW6B","3JUDR1D0D6D4CARU3YX9Y3DK5DJ2QK","","104.70000000298023","img/flower4.png","75","105.5","2","1","3","1","1,0.333,0.333,0.333,1,0.333,0.333,0.333,1","1,0.333,0.333,0.333,1,0.333,0.333,0.333,1","1",""
"","html-keyboard-response","55","26425","0.0-55.0","3570Y55XZQ55MQOHKP4U2C6BMIIYGU","A24MNMHSFYW6B","3JUDR1D0D6D4CARU3YX9Y3DK5DJ2QK","","null","<img src=""img/flower4.png"" style=""width:200px; border:14px solid green;"">","null","","","","","","","","",""
"","image-keyboard-response","56","26525","0.0-56.0","3570Y55XZQ55MQOHKP4U2C6BMIIYGU","A24MNMHSFYW6B","3JUDR1D0D6D4CARU3YX9Y3DK5DJ2QK","","98.80000000447035","img/flower3.png","74","99.5","1","0","2","1","1,0.333,0.333,0.333,1,0.333,0.333,0.333,1","1,0.333,0.333,0.333,1,0.333,0.333,0.333,1","1",""
"","html-keyboard-response","57","26827","0.0-57.0","3570Y55XZQ55MQOHKP4U2C6BMIIYGU","A24MNMHSFYW6B","3JUDR1D0D6D4CARU3YX9Y3DK5DJ2QK","","null","<img src=""img/flower3.png"" style=""width:200px;border:14px solid red;"">","null","","","","","","","","",""
"","image-keyboard-response","58","26941","0.0-58.0","3570Y55XZQ55MQOHKP4U2C6BMIIYGU","A24MNMHSFYW6B","3JUDR1D0D6D4CARU3YX9Y3DK5DJ2QK","","113","img/flower3.png","75","113.60000000149012","2","1","2","1","1,0.333,0.333,0.333,1,0.333,0.333,0.333,1","1,0.333,0.333,0.333,1,0.333,0.333,0.333,1","1",""
"","html-keyboard-response","59","27243","0.0-59.0","3570Y55XZQ55MQOHKP4U2C6BMIIYGU","A24MNMHSFYW6B","3JUDR1D0D6D4CARU3YX9Y3DK5DJ2QK","","null","<img src=""img/flower3.png"" style=""width:200px; border:14px solid green;"">","null","","","","","","","","",""
"","image-keyboard-response","60","27413","0.0-60.0","3570Y55XZQ55MQOHKP4U2C6BMIIYGU","A24MNMHSFYW6B","3JUDR1D0D6D4CARU3YX9Y3DK5DJ2QK","","169","img/flower4.png","74","169.5","1","0","3","1","1,0.333,0.333,0.333,1,0.333,0.333,0.333,1","1,0.333,0.333,0.333,1,0.333,0.333,0.333,1","1",""
"","html-keyboard-response","61","27714","0.0-61.0","3570Y55XZQ55MQOHKP4U2C6BMIIYGU","A24MNMHSFYW6B","3JUDR1D0D6D4CARU3YX9Y3DK5DJ2QK","","null","<img src=""img/flower4.png"" style=""width:200px;border:14px solid red;"">","null","","","","","","","","",""
"","image-keyboard-response","62","27860","0.0-62.0","3570Y55XZQ55MQOHKP4U2C6BMIIYGU","A24MNMHSFYW6B","3JUDR1D0D6D4CARU3YX9Y3DK5DJ2QK","","145.10000000149012","img/flower4.png","74","145.89999999850988","1","0","3","1","1,0.333,0.333,0.333,1,0.333,0.333,0.333,1","1,0.333,0.333,0.333,1,0.333,0.333,0.333,1","1",""
"","html-keyboard-response","63","28161","0.0-63.0","3570Y55XZQ55MQOHKP4U2C6BMIIYGU","A24MNMHSFYW6B","3JUDR1D0D6D4CARU3YX9Y3DK5DJ2QK","","null","<img src=""img/flower4.png"" style=""width:200px;border:14px solid red;"">","null","","","","","","","","",""
"","image-keyboard-response","64","28277","0.0-64.0","3570Y55XZQ55MQOHKP4U2C6BMIIYGU","A24MNMHSFYW6B","3JUDR1D0D6D4CARU3YX9Y3DK5DJ2QK","","114.90000000596046","img/flower4.png","74","115.39999999850988","1","1","3","1","1,0.333,0.333,0.333,1,0.333,0.333,0.333,1","1,0.333,0.333,0.333,1,0.333,0.333,0.333,1","1",""
"","html-keyboard-response","65","28579","0.0-65.0","3570Y55XZQ55MQOHKP4U2C6BMIIYGU","A24MNMHSFYW6B","3JUDR1D0D6D4CARU3YX9Y3DK5DJ2QK","","null","<img src=""img/flower4.png"" style=""width:200px; border:14px solid green;"">","null","","","","","","","","",""
"","image-keyboard-response","66","28693","0.0-66.0","3570Y55XZQ55MQOHKP4U2C6BMIIYGU","A24MNMHSFYW6B","3JUDR1D0D6D4CARU3YX9Y3DK5DJ2QK","","112.89999999850988","img/flower4.png","75","113.5","2","1","3","1","1,0.333,0.333,0.333,1,0.333,0.333,0.333,1","1,0.333,0.333,0.333,1,0.333,0.333,0.333,1","1",""
"","html-keyboard-response","67","28994","0.0-67.0","3570Y55XZQ55MQOHKP4U2C6BMIIYGU","A24MNMHSFYW6B","3JUDR1D0D6D4CARU3YX9Y3DK5DJ2QK","","null","<img src=""img/flower4.png"" style=""width:200px; border:14px solid green;"">","null","","","","","","","","",""
"","image-keyboard-response","68","29109","0.0-68.0","3570Y55XZQ55MQOHKP4U2C6BMIIYGU","A24MNMHSFYW6B","3JUDR1D0D6D4CARU3YX9Y3DK5DJ2QK","","114.10000000149012","img/flower5.png","74","114.60000000149012","1","1","1","1","1,0.333,0.333,0.333,1,0.333,0.333,0.333,1","1,0.333,0.333,0.333,1,0.333,0.333,0.333,1","1",""
"","html-keyboard-response","69","29410","0.0-69.0","3570Y55XZQ55MQOHKP4U2C6BMIIYGU","A24MNMHSFYW6B","3JUDR1D0D6D4CARU3YX9Y3DK5DJ2QK","","null","<img src=""img/flower5.png"" style=""width:200px; border:14px solid green;"">","null","","","","","","","","",""
"","image-keyboard-response","70","29548","0.0-70.0","3570Y55XZQ55MQOHKP4U2C6BMIIYGU","A24MNMHSFYW6B","3JUDR1D0D6D4CARU3YX9Y3DK5DJ2QK","","136.89999999850988","img/flower3.png","74","137.60000000149012","1","0","2","1","1,0.333,0.333,0.333,1,0.333,0.333,0.333,1","1,0.333,0.333,0.333,1,0.333,0.333,0.333,1","1",""
"","html-keyboard-response","71","29849","0.0-71.0","3570Y55XZQ55MQOHKP4U2C6BMIIYGU","A24MNMHSFYW6B","3JUDR1D0D6D4CARU3YX9Y3DK5DJ2QK","","null","<img src=""img/flower3.png"" style=""width:200px;border:14px solid red;"">","null","","","","","","","","",""
"","image-keyboard-response","72","29949","0.0-72.0","3570Y55XZQ55MQOHKP4U2C6BMIIYGU","A24MNMHSFYW6B","3JUDR1D0D6D4CARU3YX9Y3DK5DJ2QK","","98.80000000447035","img/flower5.png","74","99.60000000149012","1","1","1","1","1,0.333,0.333,0.333,1,0.333,0.333,0.333,1","1,0.333,0.333,0.333,1,0.333,0.333,0.333,1","1",""
"","html-keyboard-response","73","30251","0.0-73.0","3570Y55XZQ55MQOHKP4U2C6BMIIYGU","A24MNMHSFYW6B","3JUDR1D0D6D4CARU3YX9Y3DK5DJ2QK","","null","<img src=""img/flower5.png"" style=""width:200px; border:14px solid green;"">","null","","","","","","","","",""
"","image-keyboard-response","74","30381","0.0-74.0","3570Y55XZQ55MQOHKP4U2C6BMIIYGU","A24MNMHSFYW6B","3JUDR1D0D6D4CARU3YX9Y3DK5DJ2QK","","129.39999999850988","img/flower5.png","74","130.19999999552965","1","1","1","1","1,0.333,0.333,0.333,1,0.333,0.333,0.333,1","1,0.333,0.333,0.333,1,0.333,0.333,0.333,1","1",""
"","html-keyboard-response","75","30683","0.0-75.0","3570Y55XZQ55MQOHKP4U2C6BMIIYGU","A24MNMHSFYW6B","3JUDR1D0D6D4CARU3YX9Y3DK5DJ2QK","","null","<img src=""img/flower5.png"" style=""width:200px; border:14px solid green;"">","null","","","","","","","","",""
"","image-keyboard-response","76","30836","0.0-76.0","3570Y55XZQ55MQOHKP4U2C6BMIIYGU","A24MNMHSFYW6B","3JUDR1D0D6D4CARU3YX9Y3DK5DJ2QK","","152.39999999850988","img/flower5.png","74","152.89999999850988","1","1","1","1","1,0.333,0.333,0.333,1,0.333,0.333,0.333,1","1,0.333,0.333,0.333,1,0.333,0.333,0.333,1","1",""
"","html-keyboard-response","77","31138","0.0-77.0","3570Y55XZQ55MQOHKP4U2C6BMIIYGU","A24MNMHSFYW6B","3JUDR1D0D6D4CARU3YX9Y3DK5DJ2QK","","null","<img src=""img/flower5.png"" style=""width:200px; border:14px solid green;"">","null","","","","","","","","",""
"","image-keyboard-response","78","31268","0.0-78.0","3570Y55XZQ55MQOHKP4U2C6BMIIYGU","A24MNMHSFYW6B","3JUDR1D0D6D4CARU3YX9Y3DK5DJ2QK","","128.80000000447035","img/flower5.png","74","129.5","1","1","1","1","1,0.333,0.333,0.333,1,0.333,0.333,0.333,1","1,0.333,0.333,0.333,1,0.333,0.333,0.333,1","1",""
"","html-keyboard-response","79","31569","0.0-79.0","3570Y55XZQ55MQOHKP4U2C6BMIIYGU","A24MNMHSFYW6B","3JUDR1D0D6D4CARU3YX9Y3DK5DJ2QK","","null","<img src=""img/flower5.png"" style=""width:200px; border:14px solid green;"">","null","","","","","","","","",""
"","image-keyboard-response","80","31732","0.0-80.0","3570Y55XZQ55MQOHKP4U2C6BMIIYGU","A24MNMHSFYW6B","3JUDR1D0D6D4CARU3YX9Y3DK5DJ2QK","","162.5","img/flower4.png","74","163.09999999403954","1","1","3","1","1,0.333,0.333,0.333,1,0.333,0.333,0.333,1","1,0.333,0.333,0.333,1,0.333,0.333,0.333,1","1",""
"","html-keyboard-response","81","32034","0.0-81.0","3570Y55XZQ55MQOHKP4U2C6BMIIYGU","A24MNMHSFYW6B","3JUDR1D0D6D4CARU3YX9Y3DK5DJ2QK","","null","<img src=""img/flower4.png"" style=""width:200px; border:14px solid green;"">","null","","","","","","","","",""
"","image-keyboard-response","82","32188","0.0-82.0","3570Y55XZQ55MQOHKP4U2C6BMIIYGU","A24MNMHSFYW6B","3JUDR1D0D6D4CARU3YX9Y3DK5DJ2QK","","153.69999999552965","img/flower5.png","74","154.29999999701977","1","1","1","1","1,0.333,0.333,0.333,1,0.333,0.333,0.333,1","1,0.333,0.333,0.333,1,0.333,0.333,0.333,1","1",""
"","html-keyboard-response","83","32490","0.0-83.0","3570Y55XZQ55MQOHKP4U2C6BMIIYGU","A24MNMHSFYW6B","3JUDR1D0D6D4CARU3YX9Y3DK5DJ2QK","","null","<img src=""img/flower5.png"" style=""width:200px; border:14px solid green;"">","null","","","","","","","","",""
"","image-keyboard-response","84","32653","0.0-84.0","3570Y55XZQ55MQOHKP4U2C6BMIIYGU","A24MNMHSFYW6B","3JUDR1D0D6D4CARU3YX9Y3DK5DJ2QK","","162.10000000149012","img/flower3.png","74","162.89999999850988","1","1","2","1","1,0.333,0.333,0.333,1,0.333,0.333,0.333,1","1,0.333,0.333,0.333,1,0.333,0.333,0.333,1","1",""
"","html-keyboard-response","85","32954","0.0-85.0","3570Y55XZQ55MQOHKP4U2C6BMIIYGU","A24MNMHSFYW6B","3JUDR1D0D6D4CARU3YX9Y3DK5DJ2QK","","null","<img src=""img/flower3.png"" style=""width:200px; border:14px solid green;"">","null","","","","","","","","",""
"","image-keyboard-response","86","33116","0.0-86.0","3570Y55XZQ55MQOHKP4U2C6BMIIYGU","A24MNMHSFYW6B","3JUDR1D0D6D4CARU3YX9Y3DK5DJ2QK","","161.5","img/flower4.png","74","162.10000000149012","1","0","3","1","1,0.333,0.333,0.333,1,0.333,0.333,0.333,1","1,0.333,0.333,0.333,1,0.333,0.333,0.333,1","1",""
"","html-keyboard-response","87","33417","0.0-87.0","3570Y55XZQ55MQOHKP4U2C6BMIIYGU","A24MNMHSFYW6B","3JUDR1D0D6D4CARU3YX9Y3DK5DJ2QK","","null","<img src=""img/flower4.png"" style=""width:200px;border:14px solid red;"">","null","","","","","","","","",""
"","image-keyboard-response","88","33558","0.0-88.0","3570Y55XZQ55MQOHKP4U2C6BMIIYGU","A24MNMHSFYW6B","3JUDR1D0D6D4CARU3YX9Y3DK5DJ2QK","","139.79999999701977","img/flower3.png","74","140.5","1","0","2","1","1,0.333,0.333,0.333,1,0.333,0.333,0.333,1","1,0.333,0.333,0.333,1,0.333,0.333,0.333,1","1",""
"","html-keyboard-response","89","33860","0.0-89.0","3570Y55XZQ55MQOHKP4U2C6BMIIYGU","A24MNMHSFYW6B","3JUDR1D0D6D4CARU3YX9Y3DK5DJ2QK","","null","<img src=""img/flower3.png"" style=""width:200px;border:14px solid red;"">","null","","","","","","","","",""
"","image-keyboard-response","90","34004","0.0-90.0","3570Y55XZQ55MQOHKP4U2C6BMIIYGU","A24MNMHSFYW6B","3JUDR1D0D6D4CARU3YX9Y3DK5DJ2QK","","142.80000000447035","img/flower5.png","74","143.39999999850988","1","1","1","1","1,0.333,0.333,0.333,1,0.333,0.333,0.333,1","1,0.333,0.333,0.333,1,0.333,0.333,0.333,1","1",""
"","html-keyboard-response","91","34305","0.0-91.0","3570Y55XZQ55MQOHKP4U2C6BMIIYGU","A24MNMHSFYW6B","3JUDR1D0D6D4CARU3YX9Y3DK5DJ2QK","","null","<img src=""img/flower5.png"" style=""width:200px; border:14px solid green;"">","null","","","","","","","","",""
"","image-keyboard-response","92","34444","0.0-92.0","3570Y55XZQ55MQOHKP4U2C6BMIIYGU","A24MNMHSFYW6B","3JUDR1D0D6D4CARU3YX9Y3DK5DJ2QK","","138","img/flower4.png","74","138.70000000298023","1","0","3","1","1,0.333,0.333,0.333,1,0.333,0.333,0.333,1","1,0.333,0.333,0.333,1,0.333,0.333,0.333,1","1",""
"","html-keyboard-response","93","34746","0.0-93.0","3570Y55XZQ55MQOHKP4U2C6BMIIYGU","A24MNMHSFYW6B","3JUDR1D0D6D4CARU3YX9Y3DK5DJ2QK","","null","<img src=""img/flower4.png"" style=""width:200px;border:14px solid red;"">","null","","","","","","","","",""
"","image-keyboard-response","94","34892","0.0-94.0","3570Y55XZQ55MQOHKP4U2C6BMIIYGU","A24MNMHSFYW6B","3JUDR1D0D6D4CARU3YX9Y3DK5DJ2QK","","145","img/flower3.png","74","145.69999999552965","1","1","2","1","1,0.333,0.333,0.333,1,0.333,0.333,0.333,1","1,0.333,0.333,0.333,1,0.333,0.333,0.333,1","1",""
"","html-keyboard-response","95","35194","0.0-95.0","3570Y55XZQ55MQOHKP4U2C6BMIIYGU","A24MNMHSFYW6B","3JUDR1D0D6D4CARU3YX9Y3DK5DJ2QK","","null","<img src=""img/flower3.png"" style=""width:200px; border:14px solid green;"">","null","","","","","","","","",""
"","image-keyboard-response","96","35333","0.0-96.0","3570Y55XZQ55MQOHKP4U2C6BMIIYGU","A24MNMHSFYW6B","3JUDR1D0D6D4CARU3YX9Y3DK5DJ2QK","","138","img/flower4.png","74","138.70000000298023","1","0","3","1","1,0.333,0.333,0.333,1,0.333,0.333,0.333,1","1,0.333,0.333,0.333,1,0.333,0.333,0.333,1","1",""
"","html-keyboard-response","97","35635","0.0-97.0","3570Y55XZQ55MQOHKP4U2C6BMIIYGU","A24MNMHSFYW6B","3JUDR1D0D6D4CARU3YX9Y3DK5DJ2QK","","null","<img src=""img/flower4.png"" style=""width:200px;border:14px solid red;"">","null","","","","","","","","",""
"","image-keyboard-response","98","35806","0.0-98.0","3570Y55XZQ55MQOHKP4U2C6BMIIYGU","A24MNMHSFYW6B","3JUDR1D0D6D4CARU3YX9Y3DK5DJ2QK","","171","img/flower5.png","74","171.60000000149012","1","1","1","1","1,0.333,0.333,0.333,1,0.333,0.333,0.333,1","1,0.333,0.333,0.333,1,0.333,0.333,0.333,1","1",""
"","html-keyboard-response","99","36108","0.0-99.0","3570Y55XZQ55MQOHKP4U2C6BMIIYGU","A24MNMHSFYW6B","3JUDR1D0D6D4CARU3YX9Y3DK5DJ2QK","","null","<img src=""img/flower5.png"" style=""width:200px; border:14px solid green;"">","null","","","","","","","","",""
"","image-keyboard-response","100","36252","0.0-100.0","3570Y55XZQ55MQOHKP4U2C6BMIIYGU","A24MNMHSFYW6B","3JUDR1D0D6D4CARU3YX9Y3DK5DJ2QK","","144","img/flower4.png","74","144.5","1","0","3","1","1,0.333,0.333,0.333,1,0.333,0.333,0.333,1","1,0.333,0.333,0.333,1,0.333,0.333,0.333,1","1",""
"","html-keyboard-response","101","36554","0.0-101.0","3570Y55XZQ55MQOHKP4U2C6BMIIYGU","A24MNMHSFYW6B","3JUDR1D0D6D4CARU3YX9Y3DK5DJ2QK","","null","<img src=""img/flower4.png"" style=""width:200px;border:14px solid red;"">","null","","","","","","","","",""
"","image-keyboard-response","102","36700","0.0-102.0","3570Y55XZQ55MQOHKP4U2C6BMIIYGU","A24MNMHSFYW6B","3JUDR1D0D6D4CARU3YX9Y3DK5DJ2QK","","144.89999999850988","img/flower5.png","74","145.60000000149012","1","1","1","1","1,0.333,0.333,0.333,1,0.333,0.333,0.333,1","1,0.333,0.333,0.333,1,0.333,0.333,0.333,1","1",""
"","html-keyboard-response","103","37001","0.0-103.0","3570Y55XZQ55MQOHKP4U2C6BMIIYGU","A24MNMHSFYW6B","3JUDR1D0D6D4CARU3YX9Y3DK5DJ2QK","","null","<img src=""img/flower5.png"" style=""width:200px; border:14px solid green;"">","null","","","","","","","","",""
"","image-keyboard-response","104","37181","0.0-104.0","3570Y55XZQ55MQOHKP4U2C6BMIIYGU","A24MNMHSFYW6B","3JUDR1D0D6D4CARU3YX9Y3DK5DJ2QK","","178.29999999701977","img/flower4.png","74","179.10000000149012","1","0","3","1","1,0.333,0.333,0.333,1,0.333,0.333,0.333,1","1,0.333,0.333,0.333,1,0.333,0.333,0.333,1","1",""
"","html-keyboard-response","105","37482","0.0-105.0","3570Y55XZQ55MQOHKP4U2C6BMIIYGU","A24MNMHSFYW6B","3JUDR1D0D6D4CARU3YX9Y3DK5DJ2QK","","null","<img src=""img/flower4.png"" style=""width:200px;border:14px solid red;"">","null","","","","","","","","",""
"","image-keyboard-response","106","37628","0.0-106.0","3570Y55XZQ55MQOHKP4U2C6BMIIYGU","A24MNMHSFYW6B","3JUDR1D0D6D4CARU3YX9Y3DK5DJ2QK","","145.60000000149012","img/flower5.png","74","146.20000000298023","1","1","1","1","1,0.333,0.333,0.333,1,0.333,0.333,0.333,1","1,0.333,0.333,0.333,1,0.333,0.333,0.333,1","1",""
"","html-keyboard-response","107","37930","0.0-107.0","3570Y55XZQ55MQOHKP4U2C6BMIIYGU","A24MNMHSFYW6B","3JUDR1D0D6D4CARU3YX9Y3DK5DJ2QK","","null","<img src=""img/flower5.png"" style=""width:200px; border:14px solid green;"">","null","","","","","","","","",""
"","image-keyboard-response","108","38084","0.0-108.0","3570Y55XZQ55MQOHKP4U2C6BMIIYGU","A24MNMHSFYW6B","3JUDR1D0D6D4CARU3YX9Y3DK5DJ2QK","","153.09999999403954","img/flower3.png","75","153.89999999850988","2","1","2","1","1,0.333,0.333,0.333,1,0.333,0.333,0.333,1","1,0.333,0.333,0.333,1,0.333,0.333,0.333,1","1",""
"","html-keyboard-response","109","38386","0.0-109.0","3570Y55XZQ55MQOHKP4U2C6BMIIYGU","A24MNMHSFYW6B","3JUDR1D0D6D4CARU3YX9Y3DK5DJ2QK","","null","<img src=""img/flower3.png"" style=""width:200px; border:14px solid green;"">","null","","","","","","","","",""
"","image-keyboard-response","110","38565","0.0-110.0","3570Y55XZQ55MQOHKP4U2C6BMIIYGU","A24MNMHSFYW6B","3JUDR1D0D6D4CARU3YX9Y3DK5DJ2QK","","178.89999999850988","img/flower5.png","74","179.60000000149012","1","1","1","1","1,0.333,0.333,0.333,1,0.333,0.333,0.333,1","1,0.333,0.333,0.333,1,0.333,0.333,0.333,1","1",""
"","html-keyboard-response","111","38868","0.0-111.0","3570Y55XZQ55MQOHKP4U2C6BMIIYGU","A24MNMHSFYW6B","3JUDR1D0D6D4CARU3YX9Y3DK5DJ2QK","","null","<img src=""img/flower5.png"" style=""width:200px; border:14px solid green;"">","null","","","","","","","","",""
"","image-keyboard-response","112","39030","0.0-112.0","3570Y55XZQ55MQOHKP4U2C6BMIIYGU","A24MNMHSFYW6B","3JUDR1D0D6D4CARU3YX9Y3DK5DJ2QK","","161.5","img/flower3.png","74","162.10000000149012","1","0","2","1","1,0.333,0.333,0.333,1,0.333,0.333,0.333,1","1,0.333,0.333,0.333,1,0.333,0.333,0.333,1","1",""
"","html-keyboard-response","113","39333","0.0-113.0","3570Y55XZQ55MQOHKP4U2C6BMIIYGU","A24MNMHSFYW6B","3JUDR1D0D6D4CARU3YX9Y3DK5DJ2QK","","null","<img src=""img/flower3.png"" style=""width:200px;border:14px solid red;"">","null","","","","","","","","",""
"","image-keyboard-response","114","39524","0.0-114.0","3570Y55XZQ55MQOHKP4U2C6BMIIYGU","A24MNMHSFYW6B","3JUDR1D0D6D4CARU3YX9Y3DK5DJ2QK","","191","img/flower3.png","75","191.70000000298023","2","1","2","1","1,0.333,0.333,0.333,1,0.333,0.333,0.333,1","1,0.333,0.333,0.333,1,0.333,0.333,0.333,1","1",""
"","html-keyboard-response","115","39826","0.0-115.0","3570Y55XZQ55MQOHKP4U2C6BMIIYGU","A24MNMHSFYW6B","3JUDR1D0D6D4CARU3YX9Y3DK5DJ2QK","","null","<img src=""img/flower3.png"" style=""width:200px; border:14px solid green;"">","null","","","","","","","","",""
"","image-keyboard-response","116","39996","0.0-116.0","3570Y55XZQ55MQOHKP4U2C6BMIIYGU","A24MNMHSFYW6B","3JUDR1D0D6D4CARU3YX9Y3DK5DJ2QK","","169.20000000298023","img/flower4.png","74","169.89999999850988","1","0","3","1","1,0.333,0.333,0.333,1,0.333,0.333,0.333,1","1,0.333,0.333,0.333,1,0.333,0.333,0.333,1","1",""
"","html-keyboard-response","117","40298","0.0-117.0","3570Y55XZQ55MQOHKP4U2C6BMIIYGU","A24MNMHSFYW6B","3JUDR1D0D6D4CARU3YX9Y3DK5DJ2QK","","null","<img src=""img/flower4.png"" style=""width:200px;border:14px solid red;"">","null","","","","","","","","",""
"","image-keyboard-response","118","40461","0.0-118.0","3570Y55XZQ55MQOHKP4U2C6BMIIYGU","A24MNMHSFYW6B","3JUDR1D0D6D4CARU3YX9Y3DK5DJ2QK","","162.5","img/flower5.png","74","163","1","1","1","1","1,0.333,0.333,0.333,1,0.333,0.333,0.333,1","1,0.333,0.333,0.333,1,0.333,0.333,0.333,1","1",""
"","html-keyboard-response","119","40764","0.0-119.0","3570Y55XZQ55MQOHKP4U2C6BMIIYGU","A24MNMHSFYW6B","3JUDR1D0D6D4CARU3YX9Y3DK5DJ2QK","","null","<img src=""img/flower5.png"" style=""width:200px; border:14px solid green;"">","null","","","","","","","","",""
"","image-keyboard-response","120","40940","0.0-120.0","3570Y55XZQ55MQOHKP4U2C6BMIIYGU","A24MNMHSFYW6B","3JUDR1D0D6D4CARU3YX9Y3DK5DJ2QK","","175.29999999701977","img/flower4.png","74","175.89999999850988","1","0","3","1","1,0.333,0.333,0.333,1,0.333,0.333,0.333,1","1,0.333,0.333,0.333,1,0.333,0.333,0.333,1","1",""
"","html-keyboard-response","121","41242","0.0-121.0","3570Y55XZQ55MQOHKP4U2C6BMIIYGU","A24MNMHSFYW6B","3JUDR1D0D6D4CARU3YX9Y3DK5DJ2QK","","null","<img src=""img/flower4.png"" style=""width:200px;border:14px solid red;"">","null","","","","","","","","",""
"","image-keyboard-response","122","41404","0.0-122.0","3570Y55XZQ55MQOHKP4U2C6BMIIYGU","A24MNMHSFYW6B","3JUDR1D0D6D4CARU3YX9Y3DK5DJ2QK","","161.29999999701977","img/flower4.png","74","162","1","0","3","1","1,0.333,0.333,0.333,1,0.333,0.333,0.333,1","1,0.333,0.333,0.333,1,0.333,0.333,0.333,1","1",""
"","html-keyboard-response","123","41707","0.0-123.0","3570Y55XZQ55MQOHKP4U2C6BMIIYGU","A24MNMHSFYW6B","3JUDR1D0D6D4CARU3YX9Y3DK5DJ2QK","","null","<img src=""img/flower4.png"" style=""width:200px;border:14px solid red;"">","null","","","","","","","","",""
"","image-keyboard-response","124","41876","0.0-124.0","3570Y55XZQ55MQOHKP4U2C6BMIIYGU","A24MNMHSFYW6B","3JUDR1D0D6D4CARU3YX9Y3DK5DJ2QK","","168.29999999701977","img/flower3.png","74","169","1","0","2","1","1,0.333,0.333,0.333,1,0.333,0.333,0.333,1","1,0.333,0.333,0.333,1,0.333,0.333,0.333,1","1",""
"","html-keyboard-response","125","42179","0.0-125.0","3570Y55XZQ55MQOHKP4U2C6BMIIYGU","A24MNMHSFYW6B","3JUDR1D0D6D4CARU3YX9Y3DK5DJ2QK","","null","<img src=""img/flower3.png"" style=""width:200px;border:14px solid red;"">","null","","","","","","","","",""
"","image-keyboard-response","126","42340","0.0-126.0","3570Y55XZQ55MQOHKP4U2C6BMIIYGU","A24MNMHSFYW6B","3JUDR1D0D6D4CARU3YX9Y3DK5DJ2QK","","160.60000000149012","img/flower3.png","74","161.20000000298023","1","0","2","1","1,0.333,0.333,0.333,1,0.333,0.333,0.333,1","1,0.333,0.333,0.333,1,0.333,0.333,0.333,1","1",""
"","html-keyboard-response","127","42641","0.0-127.0","3570Y55XZQ55MQOHKP4U2C6BMIIYGU","A24MNMHSFYW6B","3JUDR1D0D6D4CARU3YX9Y3DK5DJ2QK","","null","<img src=""img/flower3.png"" style=""width:200px;border:14px solid red;"">","null","","","","","","","","",""
"","image-keyboard-response","128","42772","0.0-128.0","3570Y55XZQ55MQOHKP4U2C6BMIIYGU","A24MNMHSFYW6B","3JUDR1D0D6D4CARU3YX9Y3DK5DJ2QK","","130.10000000149012","img/flower3.png","74","130.69999999552965","1","0","2","1","1,0.333,0.333,0.333,1,0.333,0.333,0.333,1","1,0.333,0.333,0.333,1,0.333,0.333,0.333,1","1",""
"","html-keyboard-response","129","43074","0.0-129.0","3570Y55XZQ55MQOHKP4U2C6BMIIYGU","A24MNMHSFYW6B","3JUDR1D0D6D4CARU3YX9Y3DK5DJ2QK","","null","<img src=""img/flower3.png"" style=""width:200px;border:14px solid red;"">","null","","","","","","","","",""
"","image-keyboard-response","130","43228","0.0-130.0","3570Y55XZQ55MQOHKP4U2C6BMIIYGU","A24MNMHSFYW6B","3JUDR1D0D6D4CARU3YX9Y3DK5DJ2QK","","152.70000000298023","img/flower3.png","74","153.39999999850988","1","1","2","1","1,0.333,0.333,0.333,1,0.333,0.333,0.333,1","1,0.333,0.333,0.333,1,0.333,0.333,0.333,1","1",""
"","html-keyboard-response","131","43530","0.0-131.0","3570Y55XZQ55MQOHKP4U2C6BMIIYGU","A24MNMHSFYW6B","3JUDR1D0D6D4CARU3YX9Y3DK5DJ2QK","","null","<img src=""img/flower3.png"" style=""width:200px; border:14px solid green;"">","null","","","","","","","","",""
"","image-keyboard-response","132","43716","0.0-132.0","3570Y55XZQ55MQOHKP4U2C6BMIIYGU","A24MNMHSFYW6B","3JUDR1D0D6D4CARU3YX9Y3DK5DJ2QK","","185.10000000149012","img/flower5.png","74","185.70000000298023","1","1","1","1","1,0.333,0.333,0.333,1,0.333,0.333,0.333,1","1,0.333,0.333,0.333,1,0.333,0.333,0.333,1","1",""
"","html-keyboard-response","133","44018","0.0-133.0","3570Y55XZQ55MQOHKP4U2C6BMIIYGU","A24MNMHSFYW6B","3JUDR1D0D6D4CARU3YX9Y3DK5DJ2QK","","null","<img src=""img/flower5.png"" style=""width:200px; border:14px solid green;"">","null","","","","","","","","",""
"","image-keyboard-response","134","44156","0.0-134.0","3570Y55XZQ55MQOHKP4U2C6BMIIYGU","A24MNMHSFYW6B","3JUDR1D0D6D4CARU3YX9Y3DK5DJ2QK","","137.39999999850988","img/flower3.png","75","138","2","1","2","1","1,0.333,0.333,0.333,1,0.333,0.333,0.333,1","1,0.333,0.333,0.333,1,0.333,0.333,0.333,1","1",""
"","html-keyboard-response","135","44458","0.0-135.0","3570Y55XZQ55MQOHKP4U2C6BMIIYGU","A24MNMHSFYW6B","3JUDR1D0D6D4CARU3YX9Y3DK5DJ2QK","","null","<img src=""img/flower3.png"" style=""width:200px; border:14px solid green;"">","null","","","","","","","","",""
"","image-keyboard-response","136","44628","0.0-136.0","3570Y55XZQ55MQOHKP4U2C6BMIIYGU","A24MNMHSFYW6B","3JUDR1D0D6D4CARU3YX9Y3DK5DJ2QK","","169.39999999850988","img/flower4.png","74","170","1","0","3","1","1,0.333,0.333,0.333,1,0.333,0.333,0.333,1","1,0.333,0.333,0.333,1,0.333,0.333,0.333,1","1",""
"","html-keyboard-response","137","44931","0.0-137.0","3570Y55XZQ55MQOHKP4U2C6BMIIYGU","A24MNMHSFYW6B","3JUDR1D0D6D4CARU3YX9Y3DK5DJ2QK","","null","<img src=""img/flower4.png"" style=""width:200px;border:14px solid red;"">","null","","","","","","","","",""
"","image-keyboard-response","138","45087","0.0-138.0","3570Y55XZQ55MQOHKP4U2C6BMIIYGU","A24MNMHSFYW6B","3JUDR1D0D6D4CARU3YX9Y3DK5DJ2QK","","155.10000000149012","img/flower4.png","74","155.60000000149012","1","0","3","1","1,0.333,0.333,0.333,1,0.333,0.333,0.333,1","1,0.333,0.333,0.333,1,0.333,0.333,0.333,1","1",""
"","html-keyboard-response","139","45389","0.0-139.0","3570Y55XZQ55MQOHKP4U2C6BMIIYGU","A24MNMHSFYW6B","3JUDR1D0D6D4CARU3YX9Y3DK5DJ2QK","","null","<img src=""img/flower4.png"" style=""width:200px;border:14px solid red;"">","null","","","","","","","","",""
"","image-keyboard-response","140","45548","0.0-140.0","3570Y55XZQ55MQOHKP4U2C6BMIIYGU","A24MNMHSFYW6B","3JUDR1D0D6D4CARU3YX9Y3DK5DJ2QK","","158.30000000447035","img/flower5.png","75","158.80000000447035","2","1","1","1","1,0.333,0.333,0.333,1,0.333,0.333,0.333,1","1,0.333,0.333,0.333,1,0.333,0.333,0.333,1","1",""
"","html-keyboard-response","141","45849","0.0-141.0","3570Y55XZQ55MQOHKP4U2C6BMIIYGU","A24MNMHSFYW6B","3JUDR1D0D6D4CARU3YX9Y3DK5DJ2QK","","null","<img src=""img/flower5.png"" style=""width:200px; border:14px solid green;"">","null","","","","","","","","",""
"","image-keyboard-response","142","45996","0.0-142.0","3570Y55XZQ55MQOHKP4U2C6BMIIYGU","A24MNMHSFYW6B","3JUDR1D0D6D4CARU3YX9Y3DK5DJ2QK","","145.39999999850988","img/flower5.png","74","146","1","1","1","1","1,0.333,0.333,0.333,1,0.333,0.333,0.333,1","1,0.333,0.333,0.333,1,0.333,0.333,0.333,1","1",""
"","html-keyboard-response","143","46298","0.0-143.0","3570Y55XZQ55MQOHKP4U2C6BMIIYGU","A24MNMHSFYW6B","3JUDR1D0D6D4CARU3YX9Y3DK5DJ2QK","","null","<img src=""img/flower5.png"" style=""width:200px; border:14px solid green;"">","null","","","","","","","","",""
"","image-keyboard-response","144","46476","0.0-144.0","3570Y55XZQ55MQOHKP4U2C6BMIIYGU","A24MNMHSFYW6B","3JUDR1D0D6D4CARU3YX9Y3DK5DJ2QK","","177.20000000298023","img/flower4.png","74","177.89999999850988","1","0","3","1","1,0.333,0.333,0.333,1,0.333,0.333,0.333,1","1,0.333,0.333,0.333,1,0.333,0.333,0.333,1","1",""
"","html-keyboard-response","145","46778","0.0-145.0","3570Y55XZQ55MQOHKP4U2C6BMIIYGU","A24MNMHSFYW6B","3JUDR1D0D6D4CARU3YX9Y3DK5DJ2QK","","null","<img src=""img/flower4.png"" style=""width:200px;border:14px solid red;"">","null","","","","","","","","",""
"","image-keyboard-response","146","46932","0.0-146.0","3570Y55XZQ55MQOHKP4U2C6BMIIYGU","A24MNMHSFYW6B","3JUDR1D0D6D4CARU3YX9Y3DK5DJ2QK","","152.80000000447035","img/flower4.png","74","153.30000000447035","1","0","3","1","1,0.333,0.333,0.333,1,0.333,0.333,0.333,1","1,0.333,0.333,0.333,1,0.333,0.333,0.333,1","1",""
"","html-keyboard-response","147","47233","0.0-147.0","3570Y55XZQ55MQOHKP4U2C6BMIIYGU","A24MNMHSFYW6B","3JUDR1D0D6D4CARU3YX9Y3DK5DJ2QK","","null","<img src=""img/flower4.png"" style=""width:200px;border:14px solid red;"">","null","","","","","","","","",""
"","image-keyboard-response","148","47427","0.0-148.0","3570Y55XZQ55MQOHKP4U2C6BMIIYGU","A24MNMHSFYW6B","3JUDR1D0D6D4CARU3YX9Y3DK5DJ2QK","","193.59999999403954","img/flower5.png","74","194.19999999552965","1","1","1","1","1,0.333,0.333,0.333,1,0.333,0.333,0.333,1","1,0.333,0.333,0.333,1,0.333,0.333,0.333,1","1",""
"","html-keyboard-response","149","47729","0.0-149.0","3570Y55XZQ55MQOHKP4U2C6BMIIYGU","A24MNMHSFYW6B","3JUDR1D0D6D4CARU3YX9Y3DK5DJ2QK","","null","<img src=""img/flower5.png"" style=""width:200px; border:14px solid green;"">","null","","","","","","","","",""
"","image-keyboard-response","150","47908","0.0-150.0","3570Y55XZQ55MQOHKP4U2C6BMIIYGU","A24MNMHSFYW6B","3JUDR1D0D6D4CARU3YX9Y3DK5DJ2QK","","178.39999999850988","img/flower5.png","74","179","1","1","1","1","1,0.333,0.333,0.333,1,0.333,0.333,0.333,1","1,0.333,0.333,0.333,1,0.333,0.333,0.333,1","1",""
"","html-keyboard-response","151","48210","0.0-151.0","3570Y55XZQ55MQOHKP4U2C6BMIIYGU","A24MNMHSFYW6B","3JUDR1D0D6D4CARU3YX9Y3DK5DJ2QK","","null","<img src=""img/flower5.png"" style=""width:200px; border:14px solid green;"">","null","","","","","","","","",""
"","image-keyboard-response","152","48372","0.0-152.0","3570Y55XZQ55MQOHKP4U2C6BMIIYGU","A24MNMHSFYW6B","3JUDR1D0D6D4CARU3YX9Y3DK5DJ2QK","","161.70000000298023","img/flower3.png","74","162.30000000447035","1","0","2","1","1,0.333,0.333,0.333,1,0.333,0.333,0.333,1","1,0.333,0.333,0.333,1,0.333,0.333,0.333,1","1",""
"","html-keyboard-response","153","48674","0.0-153.0","3570Y55XZQ55MQOHKP4U2C6BMIIYGU","A24MNMHSFYW6B","3JUDR1D0D6D4CARU3YX9Y3DK5DJ2QK","","null","<img src=""img/flower3.png"" style=""width:200px;border:14px solid red;"">","null","","","","","","","","",""
"","image-keyboard-response","154","48836","0.0-154.0","3570Y55XZQ55MQOHKP4U2C6BMIIYGU","A24MNMHSFYW6B","3JUDR1D0D6D4CARU3YX9Y3DK5DJ2QK","","161.69999999552965","img/flower3.png","74","162.29999999701977","1","1","2","1","1,0.333,0.333,0.333,1,0.333,0.333,0.333,1","1,0.333,0.333,0.333,1,0.333,0.333,0.333,1","1",""
"","html-keyboard-response","155","49137","0.0-155.0","3570Y55XZQ55MQOHKP4U2C6BMIIYGU","A24MNMHSFYW6B","3JUDR1D0D6D4CARU3YX9Y3DK5DJ2QK","","null","<img src=""img/flower3.png"" style=""width:200px; border:14px solid green;"">","null","","","","","","","","",""
"","image-keyboard-response","156","49308","0.0-156.0","3570Y55XZQ55MQOHKP4U2C6BMIIYGU","A24MNMHSFYW6B","3JUDR1D0D6D4CARU3YX9Y3DK5DJ2QK","","169.30000000447035","img/flower4.png","74","170.09999999403954","1","0","3","1","1,0.333,0.333,0.333,1,0.333,0.333,0.333,1","1,0.333,0.333,0.333,1,0.333,0.333,0.333,1","1",""
"","html-keyboard-response","157","49610","0.0-157.0","3570Y55XZQ55MQOHKP4U2C6BMIIYGU","A24MNMHSFYW6B","3JUDR1D0D6D4CARU3YX9Y3DK5DJ2QK","","null","<img src=""img/flower4.png"" style=""width:200px;border:14px solid red;"">","null","","","","","","","","",""
"","image-keyboard-response","158","50020","0.0-158.0","3570Y55XZQ55MQOHKP4U2C6BMIIYGU","A24MNMHSFYW6B","3JUDR1D0D6D4CARU3YX9Y3DK5DJ2QK","","408.8999999985099","img/flower4.png","74","409.6000000014901","1","1","3","1","1,0.333,0.333,0.333,1,0.333,0.333,0.333,1","1,0.333,0.333,0.333,1,0.333,0.333,0.333,1","1",""
"","html-keyboard-response","159","50322","0.0-159.0","3570Y55XZQ55MQOHKP4U2C6BMIIYGU","A24MNMHSFYW6B","3JUDR1D0D6D4CARU3YX9Y3DK5DJ2QK","","null","<img src=""img/flower4.png"" style=""width:200px; border:14px solid green;"">","null","","","","","","","","",""
"","image-keyboard-response","160","50509","0.0-160.0","3570Y55XZQ55MQOHKP4U2C6BMIIYGU","A24MNMHSFYW6B","3JUDR1D0D6D4CARU3YX9Y3DK5DJ2QK","","186.5","img/flower3.png","74","187.20000000298023","1","0","2","1","1,0.333,0.333,0.333,1,0.333,0.333,0.333,1","1,0.333,0.333,0.333,1,0.333,0.333,0.333,1","1",""
"","html-keyboard-response","161","50811","0.0-161.0","3570Y55XZQ55MQOHKP4U2C6BMIIYGU","A24MNMHSFYW6B","3JUDR1D0D6D4CARU3YX9Y3DK5DJ2QK","","null","<img src=""img/flower3.png"" style=""width:200px;border:14px solid red;"">","null","","","","","","","","",""
"","image-keyboard-response","162","50924","0.0-162.0","3570Y55XZQ55MQOHKP4U2C6BMIIYGU","A24MNMHSFYW6B","3JUDR1D0D6D4CARU3YX9Y3DK5DJ2QK","","112.69999999552965","img/flower3.png","74","113.39999999850988","1","0","2","1","1,0.333,0.333,0.333,1,0.333,0.333,0.333,1","1,0.333,0.333,0.333,1,0.333,0.333,0.333,1","1",""
"","html-keyboard-response","163","51227","0.0-163.0","3570Y55XZQ55MQOHKP4U2C6BMIIYGU","A24MNMHSFYW6B","3JUDR1D0D6D4CARU3YX9Y3DK5DJ2QK","","null","<img src=""img/flower3.png"" style=""width:200px;border:14px solid red;"">","null","","","","","","","","",""
"","image-keyboard-response","164","51348","0.0-164.0","3570Y55XZQ55MQOHKP4U2C6BMIIYGU","A24MNMHSFYW6B","3JUDR1D0D6D4CARU3YX9Y3DK5DJ2QK","","120.20000000298023","img/flower5.png","74","120.89999999850988","1","1","1","1","1,0.333,0.333,0.333,1,0.333,0.333,0.333,1","1,0.333,0.333,0.333,1,0.333,0.333,0.333,1","1",""
"","html-keyboard-response","165","51650","0.0-165.0","3570Y55XZQ55MQOHKP4U2C6BMIIYGU","A24MNMHSFYW6B","3JUDR1D0D6D4CARU3YX9Y3DK5DJ2QK","","null","<img src=""img/flower5.png"" style=""width:200px; border:14px solid green;"">","null","","","","","","","","",""
"","image-keyboard-response","166","51764","0.0-166.0","3570Y55XZQ55MQOHKP4U2C6BMIIYGU","A24MNMHSFYW6B","3JUDR1D0D6D4CARU3YX9Y3DK5DJ2QK","","113.60000000149012","img/flower4.png","74","114.30000000447035","1","0","3","1","1,0.333,0.333,0.333,1,0.333,0.333,0.333,1","1,0.333,0.333,0.333,1,0.333,0.333,0.333,1","1",""
"","html-keyboard-response","167","52065","0.0-167.0","3570Y55XZQ55MQOHKP4U2C6BMIIYGU","A24MNMHSFYW6B","3JUDR1D0D6D4CARU3YX9Y3DK5DJ2QK","","null","<img src=""img/flower4.png"" style=""width:200px;border:14px solid red;"">","null","","","","","","","","",""
"","image-keyboard-response","168","52212","0.0-168.0","3570Y55XZQ55MQOHKP4U2C6BMIIYGU","A24MNMHSFYW6B","3JUDR1D0D6D4CARU3YX9Y3DK5DJ2QK","","145.30000000447035","img/flower4.png","74","146.09999999403954","1","0","3","1","1,0.333,0.333,0.333,1,0.333,0.333,0.333,1","1,0.333,0.333,0.333,1,0.333,0.333,0.333,1","1",""
"","html-keyboard-response","169","52513","0.0-169.0","3570Y55XZQ55MQOHKP4U2C6BMIIYGU","A24MNMHSFYW6B","3JUDR1D0D6D4CARU3YX9Y3DK5DJ2QK","","null","<img src=""img/flower4.png"" style=""width:200px;border:14px solid red;"">","null","","","","","","","","",""
"","image-keyboard-response","170","52684","0.0-170.0","3570Y55XZQ55MQOHKP4U2C6BMIIYGU","A24MNMHSFYW6B","3JUDR1D0D6D4CARU3YX9Y3DK5DJ2QK","","169.5","img/flower3.png","74","170.19999999552965","1","0","2","1","1,0.333,0.333,0.333,1,0.333,0.333,0.333,1","1,0.333,0.333,0.333,1,0.333,0.333,0.333,1","1",""
"","html-keyboard-response","171","52986","0.0-171.0","3570Y55XZQ55MQOHKP4U2C6BMIIYGU","A24MNMHSFYW6B","3JUDR1D0D6D4CARU3YX9Y3DK5DJ2QK","","null","<img src=""img/flower3.png"" style=""width:200px;border:14px solid red;"">","null","","","","","","","","",""
"","image-keyboard-response","172","53163","0.0-172.0","3570Y55XZQ55MQOHKP4U2C6BMIIYGU","A24MNMHSFYW6B","3JUDR1D0D6D4CARU3YX9Y3DK5DJ2QK","","176.30000000447035","img/flower3.png","74","176.79999999701977","1","0","2","1","1,0.333,0.333,0.333,1,0.333,0.333,0.333,1","1,0.333,0.333,0.333,1,0.333,0.333,0.333,1","1",""
"","html-keyboard-response","173","53465","0.0-173.0","3570Y55XZQ55MQOHKP4U2C6BMIIYGU","A24MNMHSFYW6B","3JUDR1D0D6D4CARU3YX9Y3DK5DJ2QK","","null","<img src=""img/flower3.png"" style=""width:200px;border:14px solid red;"">","null","","","","","","","","",""
"","image-keyboard-response","174","53636","0.0-174.0","3570Y55XZQ55MQOHKP4U2C6BMIIYGU","A24MNMHSFYW6B","3JUDR1D0D6D4CARU3YX9Y3DK5DJ2QK","","170.29999999701977","img/flower4.png","74","171","1","0","3","1","1,0.333,0.333,0.333,1,0.333,0.333,0.333,1","1,0.333,0.333,0.333,1,0.333,0.333,0.333,1","1",""
"","html-keyboard-response","175","53938","0.0-175.0","3570Y55XZQ55MQOHKP4U2C6BMIIYGU","A24MNMHSFYW6B","3JUDR1D0D6D4CARU3YX9Y3DK5DJ2QK","","null","<img src=""img/flower4.png"" style=""width:200px;border:14px solid red;"">","null","","","","","","","","",""
"","image-keyboard-response","176","54092","0.0-176.0","3570Y55XZQ55MQOHKP4U2C6BMIIYGU","A24MNMHSFYW6B","3JUDR1D0D6D4CARU3YX9Y3DK5DJ2QK","","152.89999999850988","img/flower3.png","74","153.60000000149012","1","0","2","1","1,0.333,0.333,0.333,1,0.333,0.333,0.333,1","1,0.333,0.333,0.333,1,0.333,0.333,0.333,1","1",""
"","html-keyboard-response","177","54394","0.0-177.0","3570Y55XZQ55MQOHKP4U2C6BMIIYGU","A24MNMHSFYW6B","3JUDR1D0D6D4CARU3YX9Y3DK5DJ2QK","","null","<img src=""img/flower3.png"" style=""width:200px;border:14px solid red;"">","null","","","","","","","","",""
"","image-keyboard-response","178","54524","0.0-178.0","3570Y55XZQ55MQOHKP4U2C6BMIIYGU","A24MNMHSFYW6B","3JUDR1D0D6D4CARU3YX9Y3DK5DJ2QK","","129.60000000149012","img/flower3.png","74","130.29999999701977","1","1","2","1","1,0.333,0.333,0.333,1,0.333,0.333,0.333,1","1,0.333,0.333,0.333,1,0.333,0.333,0.333,1","1",""
"","html-keyboard-response","179","54827","0.0-179.0","3570Y55XZQ55MQOHKP4U2C6BMIIYGU","A24MNMHSFYW6B","3JUDR1D0D6D4CARU3YX9Y3DK5DJ2QK","","null","<img src=""img/flower3.png"" style=""width:200px; border:14px solid green;"">","null","","","","","","","","",""
"","image-keyboard-response","180","54948","0.0-180.0","3570Y55XZQ55MQOHKP4U2C6BMIIYGU","A24MNMHSFYW6B","3JUDR1D0D6D4CARU3YX9Y3DK5DJ2QK","","119.90000000596046","img/flower4.png","74","120.60000000149012","1","0","3","1","1,0.333,0.333,0.333,1,0.333,0.333,0.333,1","1,0.333,0.333,0.333,1,0.333,0.333,0.333,1","1",""
"","html-keyboard-response","181","55249","0.0-181.0","3570Y55XZQ55MQOHKP4U2C6BMIIYGU","A24MNMHSFYW6B","3JUDR1D0D6D4CARU3YX9Y3DK5DJ2QK","","null","<img src=""img/flower4.png"" style=""width:200px;border:14px solid red;"">","null","","","","","","","","",""
"","html-keyboard-response","182","57636","0.0-182.0","3570Y55XZQ55MQOHKP4U2C6BMIIYGU","A24MNMHSFYW6B","3JUDR1D0D6D4CARU3YX9Y3DK5DJ2QK","","","","","","","","","","","","",""
"","image-keyboard-response","183","58427","0.0-183.0","3570Y55XZQ55MQOHKP4U2C6BMIIYGU","A24MNMHSFYW6B","3JUDR1D0D6D4CARU3YX9Y3DK5DJ2QK","","790.7999999970198","img/flower6.png","74","791.7000000029802","1","0","2","2","1,0,0,1,1,0,1,0,1","0,1,0,0,1,1,1,1,0","3",""
"","html-keyboard-response","184","58729","0.0-184.0","3570Y55XZQ55MQOHKP4U2C6BMIIYGU","A24MNMHSFYW6B","3JUDR1D0D6D4CARU3YX9Y3DK5DJ2QK","","null","<img src=""img/flower6.png"" style=""width:200px;border:14px solid red;"">","null","","","","","","","","",""
"","image-keyboard-response","185","59204","0.0-185.0","3570Y55XZQ55MQOHKP4U2C6BMIIYGU","A24MNMHSFYW6B","3JUDR1D0D6D4CARU3YX9Y3DK5DJ2QK","","473.6000000014901","img/flower6.png","74","474.29999999701977","1","0","2","2","1,0,0,1,1,0,1,0,1","0,1,0,0,1,1,1,1,0","3",""
"","html-keyboard-response","186","59505","0.0-186.0","3570Y55XZQ55MQOHKP4U2C6BMIIYGU","A24MNMHSFYW6B","3JUDR1D0D6D4CARU3YX9Y3DK5DJ2QK","","null","<img src=""img/flower6.png"" style=""width:200px;border:14px solid red;"">","null","","","","","","","","",""
"","image-keyboard-response","187","59644","0.0-187.0","3570Y55XZQ55MQOHKP4U2C6BMIIYGU","A24MNMHSFYW6B","3JUDR1D0D6D4CARU3YX9Y3DK5DJ2QK","","137.90000000596046","img/flower6.png","74","138.70000000298023","1","0","2","2","1,0,0,1,1,0,1,0,1","0,1,0,0,1,1,1,1,0","3",""
"","html-keyboard-response","188","59946","0.0-188.0","3570Y55XZQ55MQOHKP4U2C6BMIIYGU","A24MNMHSFYW6B","3JUDR1D0D6D4CARU3YX9Y3DK5DJ2QK","","null","<img src=""img/flower6.png"" style=""width:200px;border:14px solid red;"">","null","","","","","","","","",""
"","image-keyboard-response","189","60035","0.0-189.0","3570Y55XZQ55MQOHKP4U2C6BMIIYGU","A24MNMHSFYW6B","3JUDR1D0D6D4CARU3YX9Y3DK5DJ2QK","","88.39999999850988","img/flower1.png","74","89","1","1","3","2","1,0,0,1,1,0,1,0,1","0,1,0,0,1,1,1,1,0","3",""
"","html-keyboard-response","190","60337","0.0-190.0","3570Y55XZQ55MQOHKP4U2C6BMIIYGU","A24MNMHSFYW6B","3JUDR1D0D6D4CARU3YX9Y3DK5DJ2QK","","null","<img src=""img/flower1.png"" style=""width:200px; border:14px solid green;"">","null","","","","","","","","",""
"","image-keyboard-response","191","60451","0.0-191.0","3570Y55XZQ55MQOHKP4U2C6BMIIYGU","A24MNMHSFYW6B","3JUDR1D0D6D4CARU3YX9Y3DK5DJ2QK","","113.60000000149012","img/flower1.png","74","114.19999999552965","1","1","3","2","1,0,0,1,1,0,1,0,1","0,1,0,0,1,1,1,1,0","3",""
"","html-keyboard-response","192","60754","0.0-192.0","3570Y55XZQ55MQOHKP4U2C6BMIIYGU","A24MNMHSFYW6B","3JUDR1D0D6D4CARU3YX9Y3DK5DJ2QK","","null","<img src=""img/flower1.png"" style=""width:200px; border:14px solid green;"">","null","","","","","","","","",""
"","image-keyboard-response","193","60860","0.0-193.0","3570Y55XZQ55MQOHKP4U2C6BMIIYGU","A24MNMHSFYW6B","3JUDR1D0D6D4CARU3YX9Y3DK5DJ2QK","","105.79999999701977","img/flower2.png","74","106.70000000298023","1","0","1","2","1,0,0,1,1,0,1,0,1","0,1,0,0,1,1,1,1,0","3",""
"","html-keyboard-response","194","61163","0.0-194.0","3570Y55XZQ55MQOHKP4U2C6BMIIYGU","A24MNMHSFYW6B","3JUDR1D0D6D4CARU3YX9Y3DK5DJ2QK","","null","<img src=""img/flower2.png"" style=""width:200px;border:14px solid red;"">","null","","","","","","","","",""
"","image-keyboard-response","195","61459","0.0-195.0","3570Y55XZQ55MQOHKP4U2C6BMIIYGU","A24MNMHSFYW6B","3JUDR1D0D6D4CARU3YX9Y3DK5DJ2QK","","295.70000000298023","img/flower1.png","74","296.40000000596046","1","1","3","2","1,0,0,1,1,0,1,0,1","0,1,0,0,1,1,1,1,0","3",""
"","html-keyboard-response","196","61761","0.0-196.0","3570Y55XZQ55MQOHKP4U2C6BMIIYGU","A24MNMHSFYW6B","3JUDR1D0D6D4CARU3YX9Y3DK5DJ2QK","","null","<img src=""img/flower1.png"" style=""width:200px; border:14px solid green;"">","null","","","","","","","","",""
"","image-keyboard-response","197","61876","0.0-197.0","3570Y55XZQ55MQOHKP4U2C6BMIIYGU","A24MNMHSFYW6B","3JUDR1D0D6D4CARU3YX9Y3DK5DJ2QK","","113.19999999552965","img/flower6.png","74","114","1","0","2","2","1,0,0,1,1,0,1,0,1","0,1,0,0,1,1,1,1,0","3",""
"","html-keyboard-response","198","62177","0.0-198.0","3570Y55XZQ55MQOHKP4U2C6BMIIYGU","A24MNMHSFYW6B","3JUDR1D0D6D4CARU3YX9Y3DK5DJ2QK","","null","<img src=""img/flower6.png"" style=""width:200px;border:14px solid red;"">","null","","","","","","","","",""
"","image-keyboard-response","199","62291","0.0-199.0","3570Y55XZQ55MQOHKP4U2C6BMIIYGU","A24MNMHSFYW6B","3JUDR1D0D6D4CARU3YX9Y3DK5DJ2QK","","113.10000000149012","img/flower6.png","74","113.70000000298023","1","0","2","2","1,0,0,1,1,0,1,0,1","0,1,0,0,1,1,1,1,0","3",""
"","html-keyboard-response","200","62593","0.0-200.0","3570Y55XZQ55MQOHKP4U2C6BMIIYGU","A24MNMHSFYW6B","3JUDR1D0D6D4CARU3YX9Y3DK5DJ2QK","","null","<img src=""img/flower6.png"" style=""width:200px;border:14px solid red;"">","null","","","","","","","","",""
"","image-keyboard-response","201","63307","0.0-201.0","3570Y55XZQ55MQOHKP4U2C6BMIIYGU","A24MNMHSFYW6B","3JUDR1D0D6D4CARU3YX9Y3DK5DJ2QK","","712.5","img/flower6.png","74","713.3000000044703","1","0","2","2","1,0,0,1,1,0,1,0,1","0,1,0,0,1,1,1,1,0","3",""
"","html-keyboard-response","202","63609","0.0-202.0","3570Y55XZQ55MQOHKP4U2C6BMIIYGU","A24MNMHSFYW6B","3JUDR1D0D6D4CARU3YX9Y3DK5DJ2QK","","null","<img src=""img/flower6.png"" style=""width:200px;border:14px solid red;"">","null","","","","","","","","",""
"","image-keyboard-response","203","63908","0.0-203.0","3570Y55XZQ55MQOHKP4U2C6BMIIYGU","A24MNMHSFYW6B","3JUDR1D0D6D4CARU3YX9Y3DK5DJ2QK","","298.30000000447035","img/flower6.png","74","298.79999999701977","1","0","2","2","1,0,0,1,1,0,1,0,1","0,1,0,0,1,1,1,1,0","3",""
"","html-keyboard-response","204","64210","0.0-204.0","3570Y55XZQ55MQOHKP4U2C6BMIIYGU","A24MNMHSFYW6B","3JUDR1D0D6D4CARU3YX9Y3DK5DJ2QK","","null","<img src=""img/flower6.png"" style=""width:200px;border:14px solid red;"">","null","","","","","","","","",""
"","image-keyboard-response","205","64299","0.0-205.0","3570Y55XZQ55MQOHKP4U2C6BMIIYGU","A24MNMHSFYW6B","3JUDR1D0D6D4CARU3YX9Y3DK5DJ2QK","","88.70000000298023","img/flower6.png","74","89.5","1","0","2","2","1,0,0,1,1,0,1,0,1","0,1,0,0,1,1,1,1,0","3",""
"","html-keyboard-response","206","64602","0.0-206.0","3570Y55XZQ55MQOHKP4U2C6BMIIYGU","A24MNMHSFYW6B","3JUDR1D0D6D4CARU3YX9Y3DK5DJ2QK","","null","<img src=""img/flower6.png"" style=""width:200px;border:14px solid red;"">","null","","","","","","","","",""
"","image-keyboard-response","207","64716","0.0-207.0","3570Y55XZQ55MQOHKP4U2C6BMIIYGU","A24MNMHSFYW6B","3JUDR1D0D6D4CARU3YX9Y3DK5DJ2QK","","113.5","img/flower2.png","74","114.09999999403954","1","0","1","2","1,0,0,1,1,0,1,0,1","0,1,0,0,1,1,1,1,0","3",""
"","html-keyboard-response","208","65018","0.0-208.0","3570Y55XZQ55MQOHKP4U2C6BMIIYGU","A24MNMHSFYW6B","3JUDR1D0D6D4CARU3YX9Y3DK5DJ2QK","","null","<img src=""img/flower2.png"" style=""width:200px;border:14px solid red;"">","null","","","","","","","","",""
"","image-keyboard-response","209","65212","0.0-209.0","3570Y55XZQ55MQOHKP4U2C6BMIIYGU","A24MNMHSFYW6B","3JUDR1D0D6D4CARU3YX9Y3DK5DJ2QK","","193.19999999552965","img/flower6.png","74","193.89999999850988","1","0","2","2","1,0,0,1,1,0,1,0,1","0,1,0,0,1,1,1,1,0","3",""
"","html-keyboard-response","210","65515","0.0-210.0","3570Y55XZQ55MQOHKP4U2C6BMIIYGU","A24MNMHSFYW6B","3JUDR1D0D6D4CARU3YX9Y3DK5DJ2QK","","null","<img src=""img/flower6.png"" style=""width:200px;border:14px solid red;"">","null","","","","","","","","",""
"","image-keyboard-response","211","65899","0.0-211.0","3570Y55XZQ55MQOHKP4U2C6BMIIYGU","A24MNMHSFYW6B","3JUDR1D0D6D4CARU3YX9Y3DK5DJ2QK","","382.70000000298023","img/flower1.png","74","383.5","1","1","3","2","1,0,0,1,1,0,1,0,1","0,1,0,0,1,1,1,1,0","3",""
"","html-keyboard-response","212","66201","0.0-212.0","3570Y55XZQ55MQOHKP4U2C6BMIIYGU","A24MNMHSFYW6B","3JUDR1D0D6D4CARU3YX9Y3DK5DJ2QK","","null","<img src=""img/flower1.png"" style=""width:200px; border:14px solid green;"">","null","","","","","","","","",""
"","image-keyboard-response","213","67459","0.0-213.0","3570Y55XZQ55MQOHKP4U2C6BMIIYGU","A24MNMHSFYW6B","3JUDR1D0D6D4CARU3YX9Y3DK5DJ2QK","","1257.5","img/flower2.png","75","1258.2000000029802","2","1","1","2","1,0,0,1,1,0,1,0,1","0,1,0,0,1,1,1,1,0","3",""
"","html-keyboard-response","214","67762","0.0-214.0","3570Y55XZQ55MQOHKP4U2C6BMIIYGU","A24MNMHSFYW6B","3JUDR1D0D6D4CARU3YX9Y3DK5DJ2QK","","null","<img src=""img/flower2.png"" style=""width:200px; border:14px solid green;"">","null","","","","","","","","",""
"","image-keyboard-response","215","68123","0.0-215.0","3570Y55XZQ55MQOHKP4U2C6BMIIYGU","A24MNMHSFYW6B","3JUDR1D0D6D4CARU3YX9Y3DK5DJ2QK","","361","img/flower6.png","74","361.69999999552965","1","0","2","2","1,0,0,1,1,0,1,0,1","0,1,0,0,1,1,1,1,0","3",""
"","html-keyboard-response","216","68425","0.0-216.0","3570Y55XZQ55MQOHKP4U2C6BMIIYGU","A24MNMHSFYW6B","3JUDR1D0D6D4CARU3YX9Y3DK5DJ2QK","","null","<img src=""img/flower6.png"" style=""width:200px;border:14px solid red;"">","null","","","","","","","","",""
"","image-keyboard-response","217","68563","0.0-217.0","3570Y55XZQ55MQOHKP4U2C6BMIIYGU","A24MNMHSFYW6B","3JUDR1D0D6D4CARU3YX9Y3DK5DJ2QK","","137.39999999850988","img/flower6.png","74","137.89999999850988","1","0","2","2","1,0,0,1,1,0,1,0,1","0,1,0,0,1,1,1,1,0","3",""
"","html-keyboard-response","218","68865","0.0-218.0","3570Y55XZQ55MQOHKP4U2C6BMIIYGU","A24MNMHSFYW6B","3JUDR1D0D6D4CARU3YX9Y3DK5DJ2QK","","null","<img src=""img/flower6.png"" style=""width:200px;border:14px solid red;"">","null","","","","","","","","",""
"","image-keyboard-response","219","68891","0.0-219.0","3570Y55XZQ55MQOHKP4U2C6BMIIYGU","A24MNMHSFYW6B","3JUDR1D0D6D4CARU3YX9Y3DK5DJ2QK","","24.799999997019768","img/flower6.png","74","25.5","1","0","2","2","1,0,0,1,1,0,1,0,1","0,1,0,0,1,1,1,1,0","3",""
"","html-keyboard-response","220","69193","0.0-220.0","3570Y55XZQ55MQOHKP4U2C6BMIIYGU","A24MNMHSFYW6B","3JUDR1D0D6D4CARU3YX9Y3DK5DJ2QK","","null","<img src=""img/flower6.png"" style=""width:200px;border:14px solid red;"">","null","","","","","","","","",""
"","image-keyboard-response","221","69339","0.0-221.0","3570Y55XZQ55MQOHKP4U2C6BMIIYGU","A24MNMHSFYW6B","3JUDR1D0D6D4CARU3YX9Y3DK5DJ2QK","","144.80000000447035","img/flower1.png","74","145.5","1","1","3","2","1,0,0,1,1,0,1,0,1","0,1,0,0,1,1,1,1,0","3",""
"","html-keyboard-response","222","69641","0.0-222.0","3570Y55XZQ55MQOHKP4U2C6BMIIYGU","A24MNMHSFYW6B","3JUDR1D0D6D4CARU3YX9Y3DK5DJ2QK","","null","<img src=""img/flower1.png"" style=""width:200px; border:14px solid green;"">","null","","","","","","","","",""
"","image-keyboard-response","223","70611","0.0-223.0","3570Y55XZQ55MQOHKP4U2C6BMIIYGU","A24MNMHSFYW6B","3JUDR1D0D6D4CARU3YX9Y3DK5DJ2QK","","969.5","img/flower2.png","75","970.1000000014901","2","1","1","2","1,0,0,1,1,0,1,0,1","0,1,0,0,1,1,1,1,0","3",""
"","html-keyboard-response","224","70913","0.0-224.0","3570Y55XZQ55MQOHKP4U2C6BMIIYGU","A24MNMHSFYW6B","3JUDR1D0D6D4CARU3YX9Y3DK5DJ2QK","","null","<img src=""img/flower2.png"" style=""width:200px; border:14px solid green;"">","null","","","","","","","","",""
"","image-keyboard-response","225","71541","0.0-225.0","3570Y55XZQ55MQOHKP4U2C6BMIIYGU","A24MNMHSFYW6B","3JUDR1D0D6D4CARU3YX9Y3DK5DJ2QK","","627.2999999970198","img/flower1.png","74","628.0999999940395","1","1","3","2","1,0,0,1,1,0,1,0,1","0,1,0,0,1,1,1,1,0","3",""
"","html-keyboard-response","226","71843","0.0-226.0","3570Y55XZQ55MQOHKP4U2C6BMIIYGU","A24MNMHSFYW6B","3JUDR1D0D6D4CARU3YX9Y3DK5DJ2QK","","null","<img src=""img/flower1.png"" style=""width:200px; border:14px solid green;"">","null","","","","","","","","",""
"","image-keyboard-response","227","72851","0.0-227.0","3570Y55XZQ55MQOHKP4U2C6BMIIYGU","A24MNMHSFYW6B","3JUDR1D0D6D4CARU3YX9Y3DK5DJ2QK","","1007.2000000029802","img/flower2.png","74","1007.8999999985099","1","0","1","2","1,0,0,1,1,0,1,0,1","0,1,0,0,1,1,1,1,0","3",""
"","html-keyboard-response","228","73154","0.0-228.0","3570Y55XZQ55MQOHKP4U2C6BMIIYGU","A24MNMHSFYW6B","3JUDR1D0D6D4CARU3YX9Y3DK5DJ2QK","","null","<img src=""img/flower2.png"" style=""width:200px;border:14px solid red;"">","null","","","","","","","","",""
"","image-keyboard-response","229","73243","0.0-229.0","3570Y55XZQ55MQOHKP4U2C6BMIIYGU","A24MNMHSFYW6B","3JUDR1D0D6D4CARU3YX9Y3DK5DJ2QK","","88.70000000298023","img/flower2.png","74","89.39999999850988","1","0","1","2","1,0,0,1,1,0,1,0,1","0,1,0,0,1,1,1,1,0","3",""
"","html-keyboard-response","230","73546","0.0-230.0","3570Y55XZQ55MQOHKP4U2C6BMIIYGU","A24MNMHSFYW6B","3JUDR1D0D6D4CARU3YX9Y3DK5DJ2QK","","null","<img src=""img/flower2.png"" style=""width:200px;border:14px solid red;"">","null","","","","","","","","",""
"","image-keyboard-response","231","73939","0.0-231.0","3570Y55XZQ55MQOHKP4U2C6BMIIYGU","A24MNMHSFYW6B","3JUDR1D0D6D4CARU3YX9Y3DK5DJ2QK","","392.3999999985099","img/flower2.png","74","393.30000000447035","1","0","1","2","1,0,0,1,1,0,1,0,1","0,1,0,0,1,1,1,1,0","3",""
"","html-keyboard-response","232","74240","0.0-232.0","3570Y55XZQ55MQOHKP4U2C6BMIIYGU","A24MNMHSFYW6B","3JUDR1D0D6D4CARU3YX9Y3DK5DJ2QK","","null","<img src=""img/flower2.png"" style=""width:200px;border:14px solid red;"">","null","","","","","","","","",""
"","image-keyboard-response","233","74723","0.0-233.0","3570Y55XZQ55MQOHKP4U2C6BMIIYGU","A24MNMHSFYW6B","3JUDR1D0D6D4CARU3YX9Y3DK5DJ2QK","","482","img/flower2.png","74","482.59999999403954","1","0","1","2","1,0,0,1,1,0,1,0,1","0,1,0,0,1,1,1,1,0","3",""
"","html-keyboard-response","234","75025","0.0-234.0","3570Y55XZQ55MQOHKP4U2C6BMIIYGU","A24MNMHSFYW6B","3JUDR1D0D6D4CARU3YX9Y3DK5DJ2QK","","null","<img src=""img/flower2.png"" style=""width:200px;border:14px solid red;"">","null","","","","","","","","",""
"","image-keyboard-response","235","75652","0.0-235.0","3570Y55XZQ55MQOHKP4U2C6BMIIYGU","A24MNMHSFYW6B","3JUDR1D0D6D4CARU3YX9Y3DK5DJ2QK","","625.5","img/flower6.png","75","626.1000000014901","2","1","2","2","1,0,0,1,1,0,1,0,1","0,1,0,0,1,1,1,1,0","3",""
"","html-keyboard-response","236","75953","0.0-236.0","3570Y55XZQ55MQOHKP4U2C6BMIIYGU","A24MNMHSFYW6B","3JUDR1D0D6D4CARU3YX9Y3DK5DJ2QK","","null","<img src=""img/flower6.png"" style=""width:200px; border:14px solid green;"">","null","","","","","","","","",""
"","image-keyboard-response","237","76155","0.0-237.0","3570Y55XZQ55MQOHKP4U2C6BMIIYGU","A24MNMHSFYW6B","3JUDR1D0D6D4CARU3YX9Y3DK5DJ2QK","","201.20000000298023","img/flower2.png","74","201.89999999850988","1","0","1","2","1,0,0,1,1,0,1,0,1","0,1,0,0,1,1,1,1,0","3",""
"","html-keyboard-response","238","76457","0.0-238.0","3570Y55XZQ55MQOHKP4U2C6BMIIYGU","A24MNMHSFYW6B","3JUDR1D0D6D4CARU3YX9Y3DK5DJ2QK","","null","<img src=""img/flower2.png"" style=""width:200px;border:14px solid red;"">","null","","","","","","","","",""
"","image-keyboard-response","239","76627","0.0-239.0","3570Y55XZQ55MQOHKP4U2C6BMIIYGU","A24MNMHSFYW6B","3JUDR1D0D6D4CARU3YX9Y3DK5DJ2QK","","169","img/flower1.png","74","169.70000000298023","1","1","3","2","1,0,0,1,1,0,1,0,1","0,1,0,0,1,1,1,1,0","3",""
"","html-keyboard-response","240","76929","0.0-240.0","3570Y55XZQ55MQOHKP4U2C6BMIIYGU","A24MNMHSFYW6B","3JUDR1D0D6D4CARU3YX9Y3DK5DJ2QK","","null","<img src=""img/flower1.png"" style=""width:200px; border:14px solid green;"">","null","","","","","","","","",""
"","image-keyboard-response","241","78227","0.0-241.0","3570Y55XZQ55MQOHKP4U2C6BMIIYGU","A24MNMHSFYW6B","3JUDR1D0D6D4CARU3YX9Y3DK5DJ2QK","","1297.5999999940395","img/flower6.png","75","1298.2000000029802","2","1","2","2","1,0,0,1,1,0,1,0,1","0,1,0,0,1,1,1,1,0","3",""
"","html-keyboard-response","242","78529","0.0-242.0","3570Y55XZQ55MQOHKP4U2C6BMIIYGU","A24MNMHSFYW6B","3JUDR1D0D6D4CARU3YX9Y3DK5DJ2QK","","null","<img src=""img/flower6.png"" style=""width:200px; border:14px solid green;"">","null","","","","","","","","",""
"","image-keyboard-response","243","80155","0.0-243.0","3570Y55XZQ55MQOHKP4U2C6BMIIYGU","A24MNMHSFYW6B","3JUDR1D0D6D4CARU3YX9Y3DK5DJ2QK","","1625.5","img/flower6.png","74","1626.3999999985099","1","0","2","2","1,0,0,1,1,0,1,0,1","0,1,0,0,1,1,1,1,0","3",""
"","html-keyboard-response","244","80457","0.0-244.0","3570Y55XZQ55MQOHKP4U2C6BMIIYGU","A24MNMHSFYW6B","3JUDR1D0D6D4CARU3YX9Y3DK5DJ2QK","","null","<img src=""img/flower6.png"" style=""width:200px;border:14px solid red;"">","null","","","","","","","","",""
"","image-keyboard-response","245","80635","0.0-245.0","3570Y55XZQ55MQOHKP4U2C6BMIIYGU","A24MNMHSFYW6B","3JUDR1D0D6D4CARU3YX9Y3DK5DJ2QK","","176.39999999850988","img/flower1.png","74","177.19999999552965","1","1","3","2","1,0,0,1,1,0,1,0,1","0,1,0,0,1,1,1,1,0","3",""
"","html-keyboard-response","246","80937","0.0-246.0","3570Y55XZQ55MQOHKP4U2C6BMIIYGU","A24MNMHSFYW6B","3JUDR1D0D6D4CARU3YX9Y3DK5DJ2QK","","null","<img src=""img/flower1.png"" style=""width:200px; border:14px solid green;"">","null","","","","","","","","",""
"","image-keyboard-response","247","82940","0.0-247.0","3570Y55XZQ55MQOHKP4U2C6BMIIYGU","A24MNMHSFYW6B","3JUDR1D0D6D4CARU3YX9Y3DK5DJ2QK","","","img/flower1.png","","2002.3999999985099","-1","0","3","2","1,0,0,1,1,0,1,0,1","0,1,0,0,1,1,1,1,0","3",""
"","html-keyboard-response","248","83243","0.0-248.0","3570Y55XZQ55MQOHKP4U2C6BMIIYGU","A24MNMHSFYW6B","3JUDR1D0D6D4CARU3YX9Y3DK5DJ2QK","","null","<img src=""img/flower1.png"" style=""width:200px;border:14px solid red;"">","null","","","","","","","","",""
"","image-keyboard-response","249","84435","0.0-249.0","3570Y55XZQ55MQOHKP4U2C6BMIIYGU","A24MNMHSFYW6B","3JUDR1D0D6D4CARU3YX9Y3DK5DJ2QK","","1191","img/flower2.png","74","1191.9000000059605","1","0","1","2","1,0,0,1,1,0,1,0,1","0,1,0,0,1,1,1,1,0","3",""
"","html-keyboard-response","250","84736","0.0-250.0","3570Y55XZQ55MQOHKP4U2C6BMIIYGU","A24MNMHSFYW6B","3JUDR1D0D6D4CARU3YX9Y3DK5DJ2QK","","null","<img src=""img/flower2.png"" style=""width:200px;border:14px solid red;"">","null","","","","","","","","",""
"","image-keyboard-response","251","84915","0.0-251.0","3570Y55XZQ55MQOHKP4U2C6BMIIYGU","A24MNMHSFYW6B","3JUDR1D0D6D4CARU3YX9Y3DK5DJ2QK","","178.09999999403954","img/flower1.png","74","178.90000000596046","1","1","3","2","1,0,0,1,1,0,1,0,1","0,1,0,0,1,1,1,1,0","3",""
"","html-keyboard-response","252","85218","0.0-252.0","3570Y55XZQ55MQOHKP4U2C6BMIIYGU","A24MNMHSFYW6B","3JUDR1D0D6D4CARU3YX9Y3DK5DJ2QK","","null","<img src=""img/flower1.png"" style=""width:200px; border:14px solid green;"">","null","","","","","","","","",""
"","image-keyboard-response","253","86315","0.0-253.0","3570Y55XZQ55MQOHKP4U2C6BMIIYGU","A24MNMHSFYW6B","3JUDR1D0D6D4CARU3YX9Y3DK5DJ2QK","","1096.0999999940395","img/flower6.png","74","1096.8999999985099","1","0","2","2","1,0,0,1,1,0,1,0,1","0,1,0,0,1,1,1,1,0","3",""
"","html-keyboard-response","254","86618","0.0-254.0","3570Y55XZQ55MQOHKP4U2C6BMIIYGU","A24MNMHSFYW6B","3JUDR1D0D6D4CARU3YX9Y3DK5DJ2QK","","null","<img src=""img/flower6.png"" style=""width:200px;border:14px solid red;"">","null","","","","","","","","",""
"","image-keyboard-response","255","86771","0.0-255.0","3570Y55XZQ55MQOHKP4U2C6BMIIYGU","A24MNMHSFYW6B","3JUDR1D0D6D4CARU3YX9Y3DK5DJ2QK","","151.39999999850988","img/flower2.png","74","152.20000000298023","1","0","1","2","1,0,0,1,1,0,1,0,1","0,1,0,0,1,1,1,1,0","3",""
"","html-keyboard-response","256","87072","0.0-256.0","3570Y55XZQ55MQOHKP4U2C6BMIIYGU","A24MNMHSFYW6B","3JUDR1D0D6D4CARU3YX9Y3DK5DJ2QK","","null","<img src=""img/flower2.png"" style=""width:200px;border:14px solid red;"">","null","","","","","","","","",""
"","image-keyboard-response","257","87242","0.0-257.0","3570Y55XZQ55MQOHKP4U2C6BMIIYGU","A24MNMHSFYW6B","3JUDR1D0D6D4CARU3YX9Y3DK5DJ2QK","","169.10000000149012","img/flower2.png","74","169.89999999850988","1","0","1","2","1,0,0,1,1,0,1,0,1","0,1,0,0,1,1,1,1,0","3",""
"","html-keyboard-response","258","87544","0.0-258.0","3570Y55XZQ55MQOHKP4U2C6BMIIYGU","A24MNMHSFYW6B","3JUDR1D0D6D4CARU3YX9Y3DK5DJ2QK","","null","<img src=""img/flower2.png"" style=""width:200px;border:14px solid red;"">","null","","","","","","","","",""
"","image-keyboard-response","259","87747","0.0-259.0","3570Y55XZQ55MQOHKP4U2C6BMIIYGU","A24MNMHSFYW6B","3JUDR1D0D6D4CARU3YX9Y3DK5DJ2QK","","201.80000000447035","img/flower6.png","74","202.39999999850988","1","0","2","2","1,0,0,1,1,0,1,0,1","0,1,0,0,1,1,1,1,0","3",""
"","html-keyboard-response","260","88049","0.0-260.0","3570Y55XZQ55MQOHKP4U2C6BMIIYGU","A24MNMHSFYW6B","3JUDR1D0D6D4CARU3YX9Y3DK5DJ2QK","","null","<img src=""img/flower6.png"" style=""width:200px;border:14px solid red;"">","null","","","","","","","","",""
"","image-keyboard-response","261","88211","0.0-261.0","3570Y55XZQ55MQOHKP4U2C6BMIIYGU","A24MNMHSFYW6B","3JUDR1D0D6D4CARU3YX9Y3DK5DJ2QK","","161.19999999552965","img/flower2.png","74","161.79999999701977","1","0","1","2","1,0,0,1,1,0,1,0,1","0,1,0,0,1,1,1,1,0","3",""
"","html-keyboard-response","262","88513","0.0-262.0","3570Y55XZQ55MQOHKP4U2C6BMIIYGU","A24MNMHSFYW6B","3JUDR1D0D6D4CARU3YX9Y3DK5DJ2QK","","null","<img src=""img/flower2.png"" style=""width:200px;border:14px solid red;"">","null","","","","","","","","",""
"","image-keyboard-response","263","88618","0.0-263.0","3570Y55XZQ55MQOHKP4U2C6BMIIYGU","A24MNMHSFYW6B","3JUDR1D0D6D4CARU3YX9Y3DK5DJ2QK","","104.39999999850988","img/flower2.png","74","105.10000000149012","1","0","1","2","1,0,0,1,1,0,1,0,1","0,1,0,0,1,1,1,1,0","3",""
"","html-keyboard-response","264","88920","0.0-264.0","3570Y55XZQ55MQOHKP4U2C6BMIIYGU","A24MNMHSFYW6B","3JUDR1D0D6D4CARU3YX9Y3DK5DJ2QK","","null","<img src=""img/flower2.png"" style=""width:200px;border:14px solid red;"">","null","","","","","","","","",""
"","image-keyboard-response","265","89381","0.0-265.0","3570Y55XZQ55MQOHKP4U2C6BMIIYGU","A24MNMHSFYW6B","3JUDR1D0D6D4CARU3YX9Y3DK5DJ2QK","","460.8999999985099","img/flower1.png","74","461.6000000014901","1","1","3","2","1,0,0,1,1,0,1,0,1","0,1,0,0,1,1,1,1,0","3",""
"","html-keyboard-response","266","89684","0.0-266.0","3570Y55XZQ55MQOHKP4U2C6BMIIYGU","A24MNMHSFYW6B","3JUDR1D0D6D4CARU3YX9Y3DK5DJ2QK","","null","<img src=""img/flower1.png"" style=""width:200px; border:14px solid green;"">","null","","","","","","","","",""
"","image-keyboard-response","267","90091","0.0-267.0","3570Y55XZQ55MQOHKP4U2C6BMIIYGU","A24MNMHSFYW6B","3JUDR1D0D6D4CARU3YX9Y3DK5DJ2QK","","406.5","img/flower2.png","75","407.09999999403954","2","1","1","2","1,0,0,1,1,0,1,0,1","0,1,0,0,1,1,1,1,0","3",""
"","html-keyboard-response","268","90393","0.0-268.0","3570Y55XZQ55MQOHKP4U2C6BMIIYGU","A24MNMHSFYW6B","3JUDR1D0D6D4CARU3YX9Y3DK5DJ2QK","","null","<img src=""img/flower2.png"" style=""width:200px; border:14px solid green;"">","null","","","","","","","","",""
"","image-keyboard-response","269","90547","0.0-269.0","3570Y55XZQ55MQOHKP4U2C6BMIIYGU","A24MNMHSFYW6B","3JUDR1D0D6D4CARU3YX9Y3DK5DJ2QK","","153.10000000149012","img/flower2.png","75","153.79999999701977","2","1","1","2","1,0,0,1,1,0,1,0,1","0,1,0,0,1,1,1,1,0","3",""
"","html-keyboard-response","270","90849","0.0-270.0","3570Y55XZQ55MQOHKP4U2C6BMIIYGU","A24MNMHSFYW6B","3JUDR1D0D6D4CARU3YX9Y3DK5DJ2QK","","null","<img src=""img/flower2.png"" style=""width:200px; border:14px solid green;"">","null","","","","","","","","",""
"","image-keyboard-response","271","91034","0.0-271.0","3570Y55XZQ55MQOHKP4U2C6BMIIYGU","A24MNMHSFYW6B","3JUDR1D0D6D4CARU3YX9Y3DK5DJ2QK","","184.5","img/flower2.png","74","185.20000000298023","1","0","1","2","1,0,0,1,1,0,1,0,1","0,1,0,0,1,1,1,1,0","3",""
"","html-keyboard-response","272","91336","0.0-272.0","3570Y55XZQ55MQOHKP4U2C6BMIIYGU","A24MNMHSFYW6B","3JUDR1D0D6D4CARU3YX9Y3DK5DJ2QK","","null","<img src=""img/flower2.png"" style=""width:200px;border:14px solid red;"">","null","","","","","","","","",""
"","image-keyboard-response","273","92267","0.0-273.0","3570Y55XZQ55MQOHKP4U2C6BMIIYGU","A24MNMHSFYW6B","3JUDR1D0D6D4CARU3YX9Y3DK5DJ2QK","","930.2999999970198","img/flower1.png","75","931","2","1","3","2","1,0,0,1,1,0,1,0,1","0,1,0,0,1,1,1,1,0","3",""
"","html-keyboard-response","274","92569","0.0-274.0","3570Y55XZQ55MQOHKP4U2C6BMIIYGU","A24MNMHSFYW6B","3JUDR1D0D6D4CARU3YX9Y3DK5DJ2QK","","null","<img src=""img/flower1.png"" style=""width:200px; border:14px solid green;"">","null","","","","","","","","",""
"","image-keyboard-response","275","94115","0.0-275.0","3570Y55XZQ55MQOHKP4U2C6BMIIYGU","A24MNMHSFYW6B","3JUDR1D0D6D4CARU3YX9Y3DK5DJ2QK","","1545.6999999955297","img/flower2.png","74","1546.2000000029802","1","0","1","2","1,0,0,1,1,0,1,0,1","0,1,0,0,1,1,1,1,0","3",""
"","html-keyboard-response","276","94417","0.0-276.0","3570Y55XZQ55MQOHKP4U2C6BMIIYGU","A24MNMHSFYW6B","3JUDR1D0D6D4CARU3YX9Y3DK5DJ2QK","","null","<img src=""img/flower2.png"" style=""width:200px;border:14px solid red;"">","null","","","","","","","","",""
"","image-keyboard-response","277","94611","0.0-277.0","3570Y55XZQ55MQOHKP4U2C6BMIIYGU","A24MNMHSFYW6B","3JUDR1D0D6D4CARU3YX9Y3DK5DJ2QK","","193","img/flower6.png","74","193.69999999552965","1","0","2","2","1,0,0,1,1,0,1,0,1","0,1,0,0,1,1,1,1,0","3",""
"","html-keyboard-response","278","94913","0.0-278.0","3570Y55XZQ55MQOHKP4U2C6BMIIYGU","A24MNMHSFYW6B","3JUDR1D0D6D4CARU3YX9Y3DK5DJ2QK","","null","<img src=""img/flower6.png"" style=""width:200px;border:14px solid red;"">","null","","","","","","","","",""
"","image-keyboard-response","279","95090","0.0-279.0","3570Y55XZQ55MQOHKP4U2C6BMIIYGU","A24MNMHSFYW6B","3JUDR1D0D6D4CARU3YX9Y3DK5DJ2QK","","176.5","img/flower1.png","74","177.20000000298023","1","1","3","2","1,0,0,1,1,0,1,0,1","0,1,0,0,1,1,1,1,0","3",""
"","html-keyboard-response","280","95393","0.0-280.0","3570Y55XZQ55MQOHKP4U2C6BMIIYGU","A24MNMHSFYW6B","3JUDR1D0D6D4CARU3YX9Y3DK5DJ2QK","","null","<img src=""img/flower1.png"" style=""width:200px; border:14px solid green;"">","null","","","","","","","","",""
"","image-keyboard-response","281","95754","0.0-281.0","3570Y55XZQ55MQOHKP4U2C6BMIIYGU","A24MNMHSFYW6B","3JUDR1D0D6D4CARU3YX9Y3DK5DJ2QK","","360.6000000014901","img/flower6.png","74","361.5","1","0","2","2","1,0,0,1,1,0,1,0,1","0,1,0,0,1,1,1,1,0","3",""
"","html-keyboard-response","282","96056","0.0-282.0","3570Y55XZQ55MQOHKP4U2C6BMIIYGU","A24MNMHSFYW6B","3JUDR1D0D6D4CARU3YX9Y3DK5DJ2QK","","null","<img src=""img/flower6.png"" style=""width:200px;border:14px solid red;"">","null","","","","","","","","",""
"","image-keyboard-response","283","96211","0.0-283.0","3570Y55XZQ55MQOHKP4U2C6BMIIYGU","A24MNMHSFYW6B","3JUDR1D0D6D4CARU3YX9Y3DK5DJ2QK","","153.39999999850988","img/flower1.png","74","154.19999999552965","1","1","3","2","1,0,0,1,1,0,1,0,1","0,1,0,0,1,1,1,1,0","3",""
"","html-keyboard-response","284","96512","0.0-284.0","3570Y55XZQ55MQOHKP4U2C6BMIIYGU","A24MNMHSFYW6B","3JUDR1D0D6D4CARU3YX9Y3DK5DJ2QK","","null","<img src=""img/flower1.png"" style=""width:200px; border:14px solid green;"">","null","","","","","","","","",""
"","image-keyboard-response","285","96762","0.0-285.0","3570Y55XZQ55MQOHKP4U2C6BMIIYGU","A24MNMHSFYW6B","3JUDR1D0D6D4CARU3YX9Y3DK5DJ2QK","","249.20000000298023","img/flower6.png","74","250.10000000149012","1","0","2","2","1,0,0,1,1,0,1,0,1","0,1,0,0,1,1,1,1,0","3",""
"","html-keyboard-response","286","97064","0.0-286.0","3570Y55XZQ55MQOHKP4U2C6BMIIYGU","A24MNMHSFYW6B","3JUDR1D0D6D4CARU3YX9Y3DK5DJ2QK","","null","<img src=""img/flower6.png"" style=""width:200px;border:14px solid red;"">","null","","","","","","","","",""
"","image-keyboard-response","287","97474","0.0-287.0","3570Y55XZQ55MQOHKP4U2C6BMIIYGU","A24MNMHSFYW6B","3JUDR1D0D6D4CARU3YX9Y3DK5DJ2QK","","409.1000000014901","img/flower2.png","74","409.90000000596046","1","0","1","2","1,0,0,1,1,0,1,0,1","0,1,0,0,1,1,1,1,0","3",""
"","html-keyboard-response","288","97777","0.0-288.0","3570Y55XZQ55MQOHKP4U2C6BMIIYGU","A24MNMHSFYW6B","3JUDR1D0D6D4CARU3YX9Y3DK5DJ2QK","","null","<img src=""img/flower2.png"" style=""width:200px;border:14px solid red;"">","null","","","","","","","","",""
"","image-keyboard-response","289","97963","0.0-289.0","3570Y55XZQ55MQOHKP4U2C6BMIIYGU","A24MNMHSFYW6B","3JUDR1D0D6D4CARU3YX9Y3DK5DJ2QK","","184.89999999850988","img/flower6.png","74","185.60000000149012","1","0","2","2","1,0,0,1,1,0,1,0,1","0,1,0,0,1,1,1,1,0","3",""
"","html-keyboard-response","290","98265","0.0-290.0","3570Y55XZQ55MQOHKP4U2C6BMIIYGU","A24MNMHSFYW6B","3JUDR1D0D6D4CARU3YX9Y3DK5DJ2QK","","null","<img src=""img/flower6.png"" style=""width:200px;border:14px solid red;"">","null","","","","","","","","",""
"","image-keyboard-response","291","98643","0.0-291.0","3570Y55XZQ55MQOHKP4U2C6BMIIYGU","A24MNMHSFYW6B","3JUDR1D0D6D4CARU3YX9Y3DK5DJ2QK","","377.20000000298023","img/flower6.png","74","377.8999999985099","1","0","2","2","1,0,0,1,1,0,1,0,1","0,1,0,0,1,1,1,1,0","3",""
"","html-keyboard-response","292","98946","0.0-292.0","3570Y55XZQ55MQOHKP4U2C6BMIIYGU","A24MNMHSFYW6B","3JUDR1D0D6D4CARU3YX9Y3DK5DJ2QK","","null","<img src=""img/flower6.png"" style=""width:200px;border:14px solid red;"">","null","","","","","","","","",""
"","image-keyboard-response","293","99098","0.0-293.0","3570Y55XZQ55MQOHKP4U2C6BMIIYGU","A24MNMHSFYW6B","3JUDR1D0D6D4CARU3YX9Y3DK5DJ2QK","","151.80000000447035","img/flower1.png","74","152.69999999552965","1","1","3","2","1,0,0,1,1,0,1,0,1","0,1,0,0,1,1,1,1,0","3",""
"","html-keyboard-response","294","99400","0.0-294.0","3570Y55XZQ55MQOHKP4U2C6BMIIYGU","A24MNMHSFYW6B","3JUDR1D0D6D4CARU3YX9Y3DK5DJ2QK","","null","<img src=""img/flower1.png"" style=""width:200px; border:14px solid green;"">","null","","","","","","","","",""
"","image-keyboard-response","295","100963","0.0-295.0","3570Y55XZQ55MQOHKP4U2C6BMIIYGU","A24MNMHSFYW6B","3JUDR1D0D6D4CARU3YX9Y3DK5DJ2QK","","1561.3999999985099","img/flower1.png","74","1562.2999999970198","1","1","3","2","1,0,0,1,1,0,1,0,1","0,1,0,0,1,1,1,1,0","3",""
"","html-keyboard-response","296","101265","0.0-296.0","3570Y55XZQ55MQOHKP4U2C6BMIIYGU","A24MNMHSFYW6B","3JUDR1D0D6D4CARU3YX9Y3DK5DJ2QK","","null","<img src=""img/flower1.png"" style=""width:200px; border:14px solid green;"">","null","","","","","","","","",""
"","image-keyboard-response","297","101451","0.0-297.0","3570Y55XZQ55MQOHKP4U2C6BMIIYGU","A24MNMHSFYW6B","3JUDR1D0D6D4CARU3YX9Y3DK5DJ2QK","","185.20000000298023","img/flower6.png","74","185.89999999850988","1","0","2","2","1,0,0,1,1,0,1,0,1","0,1,0,0,1,1,1,1,0","3",""
"","html-keyboard-response","298","101753","0.0-298.0","3570Y55XZQ55MQOHKP4U2C6BMIIYGU","A24MNMHSFYW6B","3JUDR1D0D6D4CARU3YX9Y3DK5DJ2QK","","null","<img src=""img/flower6.png"" style=""width:200px;border:14px solid red;"">","null","","","","","","","","",""
"","image-keyboard-response","299","102123","0.0-299.0","3570Y55XZQ55MQOHKP4U2C6BMIIYGU","A24MNMHSFYW6B","3JUDR1D0D6D4CARU3YX9Y3DK5DJ2QK","","370.09999999403954","img/flower6.png","74","370.70000000298023","1","0","2","2","1,0,0,1,1,0,1,0,1","0,1,0,0,1,1,1,1,0","3",""
"","html-keyboard-response","300","102425","0.0-300.0","3570Y55XZQ55MQOHKP4U2C6BMIIYGU","A24MNMHSFYW6B","3JUDR1D0D6D4CARU3YX9Y3DK5DJ2QK","","null","<img src=""img/flower6.png"" style=""width:200px;border:14px solid red;"">","null","","","","","","","","",""
"","image-keyboard-response","301","102821","0.0-301.0","3570Y55XZQ55MQOHKP4U2C6BMIIYGU","A24MNMHSFYW6B","3JUDR1D0D6D4CARU3YX9Y3DK5DJ2QK","","394.69999999552965","img/flower2.png","74","395.3999999985099","1","0","1","2","1,0,0,1,1,0,1,0,1","0,1,0,0,1,1,1,1,0","3",""
"","html-keyboard-response","302","103122","0.0-302.0","3570Y55XZQ55MQOHKP4U2C6BMIIYGU","A24MNMHSFYW6B","3JUDR1D0D6D4CARU3YX9Y3DK5DJ2QK","","null","<img src=""img/flower2.png"" style=""width:200px;border:14px solid red;"">","null","","","","","","","","",""
"","image-keyboard-response","303","103298","0.0-303.0","3570Y55XZQ55MQOHKP4U2C6BMIIYGU","A24MNMHSFYW6B","3JUDR1D0D6D4CARU3YX9Y3DK5DJ2QK","","175.39999999850988","img/flower1.png","74","176.10000000149012","1","1","3","2","1,0,0,1,1,0,1,0,1","0,1,0,0,1,1,1,1,0","3",""
"","html-keyboard-response","304","103601","0.0-304.0","3570Y55XZQ55MQOHKP4U2C6BMIIYGU","A24MNMHSFYW6B","3JUDR1D0D6D4CARU3YX9Y3DK5DJ2QK","","null","<img src=""img/flower1.png"" style=""width:200px; border:14px solid green;"">","null","","","","","","","","",""
"","image-keyboard-response","305","103987","0.0-305.0","3570Y55XZQ55MQOHKP4U2C6BMIIYGU","A24MNMHSFYW6B","3JUDR1D0D6D4CARU3YX9Y3DK5DJ2QK","","384.8999999985099","img/flower1.png","75","385.40000000596046","2","1","3","2","1,0,0,1,1,0,1,0,1","0,1,0,0,1,1,1,1,0","3",""
"","html-keyboard-response","306","104289","0.0-306.0","3570Y55XZQ55MQOHKP4U2C6BMIIYGU","A24MNMHSFYW6B","3JUDR1D0D6D4CARU3YX9Y3DK5DJ2QK","","null","<img src=""img/flower1.png"" style=""width:200px; border:14px solid green;"">","null","","","","","","","","",""
"","image-keyboard-response","307","104450","0.0-307.0","3570Y55XZQ55MQOHKP4U2C6BMIIYGU","A24MNMHSFYW6B","3JUDR1D0D6D4CARU3YX9Y3DK5DJ2QK","","160.10000000149012","img/flower1.png","74","160.79999999701977","1","1","3","2","1,0,0,1,1,0,1,0,1","0,1,0,0,1,1,1,1,0","3",""
"","html-keyboard-response","308","104753","0.0-308.0","3570Y55XZQ55MQOHKP4U2C6BMIIYGU","A24MNMHSFYW6B","3JUDR1D0D6D4CARU3YX9Y3DK5DJ2QK","","null","<img src=""img/flower1.png"" style=""width:200px; border:14px solid green;"">","null","","","","","","","","",""
"","image-keyboard-response","309","105219","0.0-309.0","3570Y55XZQ55MQOHKP4U2C6BMIIYGU","A24MNMHSFYW6B","3JUDR1D0D6D4CARU3YX9Y3DK5DJ2QK","","465.1000000014901","img/flower1.png","75","465.80000000447035","2","1","3","2","1,0,0,1,1,0,1,0,1","0,1,0,0,1,1,1,1,0","3",""
"","html-keyboard-response","310","105521","0.0-310.0","3570Y55XZQ55MQOHKP4U2C6BMIIYGU","A24MNMHSFYW6B","3JUDR1D0D6D4CARU3YX9Y3DK5DJ2QK","","null","<img src=""img/flower1.png"" style=""width:200px; border:14px solid green;"">","null","","","","","","","","",""
"","image-keyboard-response","311","106194","0.0-311.0","3570Y55XZQ55MQOHKP4U2C6BMIIYGU","A24MNMHSFYW6B","3JUDR1D0D6D4CARU3YX9Y3DK5DJ2QK","","671.6999999955297","img/flower2.png","74","672.2999999970198","1","0","1","2","1,0,0,1,1,0,1,0,1","0,1,0,0,1,1,1,1,0","3",""
"","html-keyboard-response","312","106496","0.0-312.0","3570Y55XZQ55MQOHKP4U2C6BMIIYGU","A24MNMHSFYW6B","3JUDR1D0D6D4CARU3YX9Y3DK5DJ2QK","","null","<img src=""img/flower2.png"" style=""width:200px;border:14px solid red;"">","null","","","","","","","","",""
"","image-keyboard-response","313","106706","0.0-313.0","3570Y55XZQ55MQOHKP4U2C6BMIIYGU","A24MNMHSFYW6B","3JUDR1D0D6D4CARU3YX9Y3DK5DJ2QK","","209.10000000149012","img/flower2.png","74","209.90000000596046","1","0","1","2","1,0,0,1,1,0,1,0,1","0,1,0,0,1,1,1,1,0","3",""
"","html-keyboard-response","314","107008","0.0-314.0","3570Y55XZQ55MQOHKP4U2C6BMIIYGU","A24MNMHSFYW6B","3JUDR1D0D6D4CARU3YX9Y3DK5DJ2QK","","null","<img src=""img/flower2.png"" style=""width:200px;border:14px solid red;"">","null","","","","","","","","",""
"","image-keyboard-response","315","107194","0.0-315.0","3570Y55XZQ55MQOHKP4U2C6BMIIYGU","A24MNMHSFYW6B","3JUDR1D0D6D4CARU3YX9Y3DK5DJ2QK","","185.29999999701977","img/flower2.png","74","186","1","0","1","2","1,0,0,1,1,0,1,0,1","0,1,0,0,1,1,1,1,0","3",""
"","html-keyboard-response","316","107497","0.0-316.0","3570Y55XZQ55MQOHKP4U2C6BMIIYGU","A24MNMHSFYW6B","3JUDR1D0D6D4CARU3YX9Y3DK5DJ2QK","","null","<img src=""img/flower2.png"" style=""width:200px;border:14px solid red;"">","null","","","","","","","","",""
"","image-keyboard-response","317","107682","0.0-317.0","3570Y55XZQ55MQOHKP4U2C6BMIIYGU","A24MNMHSFYW6B","3JUDR1D0D6D4CARU3YX9Y3DK5DJ2QK","","184.60000000149012","img/flower2.png","74","185.39999999850988","1","0","1","2","1,0,0,1,1,0,1,0,1","0,1,0,0,1,1,1,1,0","3",""
"","html-keyboard-response","318","107985","0.0-318.0","3570Y55XZQ55MQOHKP4U2C6BMIIYGU","A24MNMHSFYW6B","3JUDR1D0D6D4CARU3YX9Y3DK5DJ2QK","","null","<img src=""img/flower2.png"" style=""width:200px;border:14px solid red;"">","null","","","","","","","","",""
"","image-keyboard-response","319","108162","0.0-319.0","3570Y55XZQ55MQOHKP4U2C6BMIIYGU","A24MNMHSFYW6B","3JUDR1D0D6D4CARU3YX9Y3DK5DJ2QK","","176.30000000447035","img/flower1.png","74","177.5","1","1","3","2","1,0,0,1,1,0,1,0,1","0,1,0,0,1,1,1,1,0","3",""
"","html-keyboard-response","320","108465","0.0-320.0","3570Y55XZQ55MQOHKP4U2C6BMIIYGU","A24MNMHSFYW6B","3JUDR1D0D6D4CARU3YX9Y3DK5DJ2QK","","null","<img src=""img/flower1.png"" style=""width:200px; border:14px solid green;"">","null","","","","","","","","",""
"","image-keyboard-response","321","108626","0.0-321.0","3570Y55XZQ55MQOHKP4U2C6BMIIYGU","A24MNMHSFYW6B","3JUDR1D0D6D4CARU3YX9Y3DK5DJ2QK","","160.59999999403954","img/flower6.png","74","161.29999999701977","1","0","2","2","1,0,0,1,1,0,1,0,1","0,1,0,0,1,1,1,1,0","3",""
"","html-keyboard-response","322","108928","0.0-322.0","3570Y55XZQ55MQOHKP4U2C6BMIIYGU","A24MNMHSFYW6B","3JUDR1D0D6D4CARU3YX9Y3DK5DJ2QK","","null","<img src=""img/flower6.png"" style=""width:200px;border:14px solid red;"">","null","","","","","","","","",""
"","image-keyboard-response","323","109107","0.0-323.0","3570Y55XZQ55MQOHKP4U2C6BMIIYGU","A24MNMHSFYW6B","3JUDR1D0D6D4CARU3YX9Y3DK5DJ2QK","","177.29999999701977","img/flower6.png","74","178.20000000298023","1","0","2","2","1,0,0,1,1,0,1,0,1","0,1,0,0,1,1,1,1,0","3",""
"","html-keyboard-response","324","109409","0.0-324.0","3570Y55XZQ55MQOHKP4U2C6BMIIYGU","A24MNMHSFYW6B","3JUDR1D0D6D4CARU3YX9Y3DK5DJ2QK","","null","<img src=""img/flower6.png"" style=""width:200px;border:14px solid red;"">","null","","","","","","","","",""
"","image-keyboard-response","325","109826","0.0-325.0","3570Y55XZQ55MQOHKP4U2C6BMIIYGU","A24MNMHSFYW6B","3JUDR1D0D6D4CARU3YX9Y3DK5DJ2QK","","416.20000000298023","img/flower2.png","74","416.8999999985099","1","0","1","2","1,0,0,1,1,0,1,0,1","0,1,0,0,1,1,1,1,0","3",""
"","html-keyboard-response","326","110129","0.0-326.0","3570Y55XZQ55MQOHKP4U2C6BMIIYGU","A24MNMHSFYW6B","3JUDR1D0D6D4CARU3YX9Y3DK5DJ2QK","","null","<img src=""img/flower2.png"" style=""width:200px;border:14px solid red;"">","null","","","","","","","","",""
"","image-keyboard-response","327","110298","0.0-327.0","3570Y55XZQ55MQOHKP4U2C6BMIIYGU","A24MNMHSFYW6B","3JUDR1D0D6D4CARU3YX9Y3DK5DJ2QK","","168.19999999552965","img/flower1.png","74","168.79999999701977","1","1","3","2","1,0,0,1,1,0,1,0,1","0,1,0,0,1,1,1,1,0","3",""
"","html-keyboard-response","328","110600","0.0-328.0","3570Y55XZQ55MQOHKP4U2C6BMIIYGU","A24MNMHSFYW6B","3JUDR1D0D6D4CARU3YX9Y3DK5DJ2QK","","null","<img src=""img/flower1.png"" style=""width:200px; border:14px solid green;"">","null","","","","","","","","",""
"","image-keyboard-response","329","110779","0.0-329.0","3570Y55XZQ55MQOHKP4U2C6BMIIYGU","A24MNMHSFYW6B","3JUDR1D0D6D4CARU3YX9Y3DK5DJ2QK","","177.79999999701977","img/flower1.png","74","178.60000000149012","1","1","3","2","1,0,0,1,1,0,1,0,1","0,1,0,0,1,1,1,1,0","3",""
"","html-keyboard-response","330","111081","0.0-330.0","3570Y55XZQ55MQOHKP4U2C6BMIIYGU","A24MNMHSFYW6B","3JUDR1D0D6D4CARU3YX9Y3DK5DJ2QK","","null","<img src=""img/flower1.png"" style=""width:200px; border:14px solid green;"">","null","","","","","","","","",""
"","image-keyboard-response","331","111266","0.0-331.0","3570Y55XZQ55MQOHKP4U2C6BMIIYGU","A24MNMHSFYW6B","3JUDR1D0D6D4CARU3YX9Y3DK5DJ2QK","","184.20000000298023","img/flower6.png","74","184.80000000447035","1","0","2","2","1,0,0,1,1,0,1,0,1","0,1,0,0,1,1,1,1,0","3",""
"","html-keyboard-response","332","111568","0.0-332.0","3570Y55XZQ55MQOHKP4U2C6BMIIYGU","A24MNMHSFYW6B","3JUDR1D0D6D4CARU3YX9Y3DK5DJ2QK","","null","<img src=""img/flower6.png"" style=""width:200px;border:14px solid red;"">","null","","","","","","","","",""
"","image-keyboard-response","333","111786","0.0-333.0","3570Y55XZQ55MQOHKP4U2C6BMIIYGU","A24MNMHSFYW6B","3JUDR1D0D6D4CARU3YX9Y3DK5DJ2QK","","217.19999999552965","img/flower2.png","75","218","2","1","1","2","1,0,0,1,1,0,1,0,1","0,1,0,0,1,1,1,1,0","3",""
"","html-keyboard-response","334","112088","0.0-334.0","3570Y55XZQ55MQOHKP4U2C6BMIIYGU","A24MNMHSFYW6B","3JUDR1D0D6D4CARU3YX9Y3DK5DJ2QK","","null","<img src=""img/flower2.png"" style=""width:200px; border:14px solid green;"">","null","","","","","","","","",""
"","image-keyboard-response","335","113026","0.0-335.0","3570Y55XZQ55MQOHKP4U2C6BMIIYGU","A24MNMHSFYW6B","3JUDR1D0D6D4CARU3YX9Y3DK5DJ2QK","","937.2000000029802","img/flower1.png","74","937.8999999985099","1","1","3","2","1,0,0,1,1,0,1,0,1","0,1,0,0,1,1,1,1,0","3",""
"","html-keyboard-response","336","113329","0.0-336.0","3570Y55XZQ55MQOHKP4U2C6BMIIYGU","A24MNMHSFYW6B","3JUDR1D0D6D4CARU3YX9Y3DK5DJ2QK","","null","<img src=""img/flower1.png"" style=""width:200px; border:14px solid green;"">","null","","","","","","","","",""
"","image-keyboard-response","337","113538","0.0-337.0","3570Y55XZQ55MQOHKP4U2C6BMIIYGU","A24MNMHSFYW6B","3JUDR1D0D6D4CARU3YX9Y3DK5DJ2QK","","208.39999999850988","img/flower1.png","75","209.09999999403954","2","1","3","2","1,0,0,1,1,0,1,0,1","0,1,0,0,1,1,1,1,0","3",""
"","html-keyboard-response","338","113841","0.0-338.0","3570Y55XZQ55MQOHKP4U2C6BMIIYGU","A24MNMHSFYW6B","3JUDR1D0D6D4CARU3YX9Y3DK5DJ2QK","","null","<img src=""img/flower1.png"" style=""width:200px; border:14px solid green;"">","null","","","","","","","","",""
"","image-keyboard-response","339","114020","0.0-339.0","3570Y55XZQ55MQOHKP4U2C6BMIIYGU","A24MNMHSFYW6B","3JUDR1D0D6D4CARU3YX9Y3DK5DJ2QK","","178.29999999701977","img/flower2.png","74","179","1","0","1","2","1,0,0,1,1,0,1,0,1","0,1,0,0,1,1,1,1,0","3",""
"","html-keyboard-response","340","114322","0.0-340.0","3570Y55XZQ55MQOHKP4U2C6BMIIYGU","A24MNMHSFYW6B","3JUDR1D0D6D4CARU3YX9Y3DK5DJ2QK","","null","<img src=""img/flower2.png"" style=""width:200px;border:14px solid red;"">","null","","","","","","","","",""
"","image-keyboard-response","341","114506","0.0-341.0","3570Y55XZQ55MQOHKP4U2C6BMIIYGU","A24MNMHSFYW6B","3JUDR1D0D6D4CARU3YX9Y3DK5DJ2QK","","183.89999999850988","img/flower2.png","74","184.5","1","0","1","2","1,0,0,1,1,0,1,0,1","0,1,0,0,1,1,1,1,0","3",""
"","html-keyboard-response","342","114809","0.0-342.0","3570Y55XZQ55MQOHKP4U2C6BMIIYGU","A24MNMHSFYW6B","3JUDR1D0D6D4CARU3YX9Y3DK5DJ2QK","","null","<img src=""img/flower2.png"" style=""width:200px;border:14px solid red;"">","null","","","","","","","","",""
"","image-keyboard-response","343","114978","0.0-343.0","3570Y55XZQ55MQOHKP4U2C6BMIIYGU","A24MNMHSFYW6B","3JUDR1D0D6D4CARU3YX9Y3DK5DJ2QK","","168.59999999403954","img/flower1.png","74","169.39999999850988","1","1","3","2","1,0,0,1,1,0,1,0,1","0,1,0,0,1,1,1,1,0","3",""
"","html-keyboard-response","344","115280","0.0-344.0","3570Y55XZQ55MQOHKP4U2C6BMIIYGU","A24MNMHSFYW6B","3JUDR1D0D6D4CARU3YX9Y3DK5DJ2QK","","null","<img src=""img/flower1.png"" style=""width:200px; border:14px solid green;"">","null","","","","","","","","",""
"","image-keyboard-response","345","115474","0.0-345.0","3570Y55XZQ55MQOHKP4U2C6BMIIYGU","A24MNMHSFYW6B","3JUDR1D0D6D4CARU3YX9Y3DK5DJ2QK","","192.79999999701977","img/flower6.png","75","193.5","2","1","2","2","1,0,0,1,1,0,1,0,1","0,1,0,0,1,1,1,1,0","3",""
"","html-keyboard-response","346","115775","0.0-346.0","3570Y55XZQ55MQOHKP4U2C6BMIIYGU","A24MNMHSFYW6B","3JUDR1D0D6D4CARU3YX9Y3DK5DJ2QK","","null","<img src=""img/flower6.png"" style=""width:200px; border:14px solid green;"">","null","","","","","","","","",""
"","image-keyboard-response","347","116234","0.0-347.0","3570Y55XZQ55MQOHKP4U2C6BMIIYGU","A24MNMHSFYW6B","3JUDR1D0D6D4CARU3YX9Y3DK5DJ2QK","","458.5","img/flower6.png","75","459.20000000298023","2","1","2","2","1,0,0,1,1,0,1,0,1","0,1,0,0,1,1,1,1,0","3",""
"","html-keyboard-response","348","116537","0.0-348.0","3570Y55XZQ55MQOHKP4U2C6BMIIYGU","A24MNMHSFYW6B","3JUDR1D0D6D4CARU3YX9Y3DK5DJ2QK","","null","<img src=""img/flower6.png"" style=""width:200px; border:14px solid green;"">","null","","","","","","","","",""
"","image-keyboard-response","349","117394","0.0-349.0","3570Y55XZQ55MQOHKP4U2C6BMIIYGU","A24MNMHSFYW6B","3JUDR1D0D6D4CARU3YX9Y3DK5DJ2QK","","856.1999999955297","img/flower2.png","74","856.8999999985099","1","0","1","2","1,0,0,1,1,0,1,0,1","0,1,0,0,1,1,1,1,0","3",""
"","html-keyboard-response","350","117696","0.0-350.0","3570Y55XZQ55MQOHKP4U2C6BMIIYGU","A24MNMHSFYW6B","3JUDR1D0D6D4CARU3YX9Y3DK5DJ2QK","","null","<img src=""img/flower2.png"" style=""width:200px;border:14px solid red;"">","null","","","","","","","","",""
"","image-keyboard-response","351","117898","0.0-351.0","3570Y55XZQ55MQOHKP4U2C6BMIIYGU","A24MNMHSFYW6B","3JUDR1D0D6D4CARU3YX9Y3DK5DJ2QK","","202","img/flower2.png","74","202.69999999552965","1","0","1","2","1,0,0,1,1,0,1,0,1","0,1,0,0,1,1,1,1,0","3",""
"","html-keyboard-response","352","118200","0.0-352.0","3570Y55XZQ55MQOHKP4U2C6BMIIYGU","A24MNMHSFYW6B","3JUDR1D0D6D4CARU3YX9Y3DK5DJ2QK","","null","<img src=""img/flower2.png"" style=""width:200px;border:14px solid red;"">","null","","","","","","","","",""
"","image-keyboard-response","353","118842","0.0-353.0","3570Y55XZQ55MQOHKP4U2C6BMIIYGU","A24MNMHSFYW6B","3JUDR1D0D6D4CARU3YX9Y3DK5DJ2QK","","640.6000000014901","img/flower1.png","74","641.1999999955297","1","1","3","2","1,0,0,1,1,0,1,0,1","0,1,0,0,1,1,1,1,0","3",""
"","html-keyboard-response","354","119144","0.0-354.0","3570Y55XZQ55MQOHKP4U2C6BMIIYGU","A24MNMHSFYW6B","3JUDR1D0D6D4CARU3YX9Y3DK5DJ2QK","","null","<img src=""img/flower1.png"" style=""width:200px; border:14px solid green;"">","null","","","","","","","","",""
"","image-keyboard-response","355","120498","0.0-355.0","3570Y55XZQ55MQOHKP4U2C6BMIIYGU","A24MNMHSFYW6B","3JUDR1D0D6D4CARU3YX9Y3DK5DJ2QK","","1352.6000000014901","img/flower1.png","74","1353.3000000044703","1","1","3","2","1,0,0,1,1,0,1,0,1","0,1,0,0,1,1,1,1,0","3",""
"","html-keyboard-response","356","120800","0.0-356.0","3570Y55XZQ55MQOHKP4U2C6BMIIYGU","A24MNMHSFYW6B","3JUDR1D0D6D4CARU3YX9Y3DK5DJ2QK","","null","<img src=""img/flower1.png"" style=""width:200px; border:14px solid green;"">","null","","","","","","","","",""
"","image-keyboard-response","357","120914","0.0-357.0","3570Y55XZQ55MQOHKP4U2C6BMIIYGU","A24MNMHSFYW6B","3JUDR1D0D6D4CARU3YX9Y3DK5DJ2QK","","113.19999999552965","img/flower1.png","74","113.70000000298023","1","1","3","2","1,0,0,1,1,0,1,0,1","0,1,0,0,1,1,1,1,0","3",""
"","html-keyboard-response","358","121216","0.0-358.0","3570Y55XZQ55MQOHKP4U2C6BMIIYGU","A24MNMHSFYW6B","3JUDR1D0D6D4CARU3YX9Y3DK5DJ2QK","","null","<img src=""img/flower1.png"" style=""width:200px; border:14px solid green;"">","null","","","","","","","","",""
"","image-keyboard-response","359","121378","0.0-359.0","3570Y55XZQ55MQOHKP4U2C6BMIIYGU","A24MNMHSFYW6B","3JUDR1D0D6D4CARU3YX9Y3DK5DJ2QK","","161.30000000447035","img/flower6.png","75","162.19999999552965","2","1","2","2","1,0,0,1,1,0,1,0,1","0,1,0,0,1,1,1,1,0","3",""
"","html-keyboard-response","360","121680","0.0-360.0","3570Y55XZQ55MQOHKP4U2C6BMIIYGU","A24MNMHSFYW6B","3JUDR1D0D6D4CARU3YX9Y3DK5DJ2QK","","null","<img src=""img/flower6.png"" style=""width:200px; border:14px solid green;"">","null","","","","","","","","",""
"","image-keyboard-response","361","121802","0.0-361.0","3570Y55XZQ55MQOHKP4U2C6BMIIYGU","A24MNMHSFYW6B","3JUDR1D0D6D4CARU3YX9Y3DK5DJ2QK","","120.39999999850988","img/flower1.png","75","120.89999999850988","2","1","3","2","1,0,0,1,1,0,1,0,1","0,1,0,0,1,1,1,1,0","3",""
"","html-keyboard-response","362","122104","0.0-362.0","3570Y55XZQ55MQOHKP4U2C6BMIIYGU","A24MNMHSFYW6B","3JUDR1D0D6D4CARU3YX9Y3DK5DJ2QK","","null","<img src=""img/flower1.png"" style=""width:200px; border:14px solid green;"">","null","","","","","","","","",""
"","instructions","363","124258","0.0-363.0","3570Y55XZQ55MQOHKP4U2C6BMIIYGU","A24MNMHSFYW6B","3JUDR1D0D6D4CARU3YX9Y3DK5DJ2QK","[{""page_index"":0,""viewing_time"":2152.89999999851}]","2153.1999999955297","","","","","","","","","","",""
"","survey-text","364","127923","0.0-364.0","3570Y55XZQ55MQOHKP4U2C6BMIIYGU","A24MNMHSFYW6B","3JUDR1D0D6D4CARU3YX9Y3DK5DJ2QK","","3661","","","","","","","","","","","{""Q0"":""A24MNMHSFYW6B""}"
