"success","trial_type","trial_index","time_elapsed","internal_node_id","assignmentID","mturkID","hitID","view_history","rt","stimulus","key_press","reactionTime","a","r","s","cond","reward_cond","reward_cond_actual","reward_matrix_idx","responses"
"true","fullscreen","0","2805","0.0-0.0","3OONKJ5DKD5X1VC4YG3IZAHCS17OBK","A25HI5HXUJ0FHF","3WRBLBQ2GRU63BU2LFOJL1G32T90GO","","","","","","","","","","","","",""
"","instructions","1","81514","0.0-1.0","3OONKJ5DKD5X1VC4YG3IZAHCS17OBK","A25HI5HXUJ0FHF","3WRBLBQ2GRU63BU2LFOJL1G32T90GO","[{""page_index"":0,""viewing_time"":2614.3000000715256},{""page_index"":1,""viewing_time"":6973.5},{""page_index"":2,""viewing_time"":3896},{""page_index"":1,""viewing_time"":998.3999999761581},{""page_index"":2,""viewing_time"":7221.799999952316},{""page_index"":3,""viewing_time"":9763.600000023842},{""page_index"":4,""viewing_time"":7840.100000023842},{""page_index"":5,""viewing_time"":5437.899999976158},{""page_index"":6,""viewing_time"":20714.399999976158},{""page_index"":7,""viewing_time"":13239.600000023842}]","78700.39999997616","","","","","","","","","","",""
"","image-keyboard-response","2","82374","0.0-2.0","3OONKJ5DKD5X1VC4YG3IZAHCS17OBK","A25HI5HXUJ0FHF","3WRBLBQ2GRU63BU2LFOJL1G32T90GO","","857.4000000953674","img/flower2.png","74","860.6000000238419","1","0","1","2","1,0,0,1,1,0,1,0,1","0,1,0,0,1,1,1,1,0","3",""
"","html-keyboard-response","3","82681","0.0-3.0","3OONKJ5DKD5X1VC4YG3IZAHCS17OBK","A25HI5HXUJ0FHF","3WRBLBQ2GRU63BU2LFOJL1G32T90GO","","null","<img src=""img/flower2.png"" style=""width:200px;border:14px solid red;"">","null","","","","","","","","",""
"","image-keyboard-response","4","83507","0.0-4.0","3OONKJ5DKD5X1VC4YG3IZAHCS17OBK","A25HI5HXUJ0FHF","3WRBLBQ2GRU63BU2LFOJL1G32T90GO","","823.3999999761581","img/flower2.png","75","826.3000000715256","2","1","1","2","1,0,0,1,1,0,1,0,1","0,1,0,0,1,1,1,1,0","3",""
"","html-keyboard-response","5","83813","0.0-5.0","3OONKJ5DKD5X1VC4YG3IZAHCS17OBK","A25HI5HXUJ0FHF","3WRBLBQ2GRU63BU2LFOJL1G32T90GO","","null","<img src=""img/flower2.png"" style=""width:200px; border:14px solid green;"">","null","","","","","","","","",""
"","image-keyboard-response","6","84796","0.0-6.0","3OONKJ5DKD5X1VC4YG3IZAHCS17OBK","A25HI5HXUJ0FHF","3WRBLBQ2GRU63BU2LFOJL1G32T90GO","","979.5","img/flower3.png","76","982.6000000238419","3","1","2","2","1,0,0,1,1,0,1,0,1","0,1,0,0,1,1,1,1,0","3",""
"","html-keyboard-response","7","85100","0.0-7.0","3OONKJ5DKD5X1VC4YG3IZAHCS17OBK","A25HI5HXUJ0FHF","3WRBLBQ2GRU63BU2LFOJL1G32T90GO","","null","<img src=""img/flower3.png"" style=""width:200px; border:14px solid green;"">","null","","","","","","","","",""
"","image-keyboard-response","8","85811","0.0-8.0","3OONKJ5DKD5X1VC4YG3IZAHCS17OBK","A25HI5HXUJ0FHF","3WRBLBQ2GRU63BU2LFOJL1G32T90GO","","708.5999999046326","img/flower2.png","75","711.1999999284744","2","1","1","2","1,0,0,1,1,0,1,0,1","0,1,0,0,1,1,1,1,0","3",""
"","html-keyboard-response","9","86116","0.0-9.0","3OONKJ5DKD5X1VC4YG3IZAHCS17OBK","A25HI5HXUJ0FHF","3WRBLBQ2GRU63BU2LFOJL1G32T90GO","","null","<img src=""img/flower2.png"" style=""width:200px; border:14px solid green;"">","null","","","","","","","","",""
"","image-keyboard-response","10","86796","0.0-10.0","3OONKJ5DKD5X1VC4YG3IZAHCS17OBK","A25HI5HXUJ0FHF","3WRBLBQ2GRU63BU2LFOJL1G32T90GO","","675.8999999761581","img/flower2.png","75","678.6000000238419","2","1","1","2","1,0,0,1,1,0,1,0,1","0,1,0,0,1,1,1,1,0","3",""
"","html-keyboard-response","11","87101","0.0-11.0","3OONKJ5DKD5X1VC4YG3IZAHCS17OBK","A25HI5HXUJ0FHF","3WRBLBQ2GRU63BU2LFOJL1G32T90GO","","null","<img src=""img/flower2.png"" style=""width:200px; border:14px solid green;"">","null","","","","","","","","",""
"","image-keyboard-response","12","87924","0.0-12.0","3OONKJ5DKD5X1VC4YG3IZAHCS17OBK","A25HI5HXUJ0FHF","3WRBLBQ2GRU63BU2LFOJL1G32T90GO","","819.2000000476837","img/flower6.png","74","821.8999999761581","1","1","3","2","1,0,0,1,1,0,1,0,1","0,1,0,0,1,1,1,1,0","3",""
"","html-keyboard-response","13","88228","0.0-13.0","3OONKJ5DKD5X1VC4YG3IZAHCS17OBK","A25HI5HXUJ0FHF","3WRBLBQ2GRU63BU2LFOJL1G32T90GO","","null","<img src=""img/flower6.png"" style=""width:200px; border:14px solid green;"">","null","","","","","","","","",""
"","image-keyboard-response","14","89065","0.0-14.0","3OONKJ5DKD5X1VC4YG3IZAHCS17OBK","A25HI5HXUJ0FHF","3WRBLBQ2GRU63BU2LFOJL1G32T90GO","","834.5","img/flower3.png","76","836.8000000715256","3","1","2","2","1,0,0,1,1,0,1,0,1","0,1,0,0,1,1,1,1,0","3",""
"","html-keyboard-response","15","89368","0.0-15.0","3OONKJ5DKD5X1VC4YG3IZAHCS17OBK","A25HI5HXUJ0FHF","3WRBLBQ2GRU63BU2LFOJL1G32T90GO","","null","<img src=""img/flower3.png"" style=""width:200px; border:14px solid green;"">","null","","","","","","","","",""
"","image-keyboard-response","16","90139","0.0-16.0","3OONKJ5DKD5X1VC4YG3IZAHCS17OBK","A25HI5HXUJ0FHF","3WRBLBQ2GRU63BU2LFOJL1G32T90GO","","767.5","img/flower2.png","75","770.1000000238419","2","1","1","2","1,0,0,1,1,0,1,0,1","0,1,0,0,1,1,1,1,0","3",""
"","html-keyboard-response","17","90444","0.0-17.0","3OONKJ5DKD5X1VC4YG3IZAHCS17OBK","A25HI5HXUJ0FHF","3WRBLBQ2GRU63BU2LFOJL1G32T90GO","","null","<img src=""img/flower2.png"" style=""width:200px; border:14px solid green;"">","null","","","","","","","","",""
"","image-keyboard-response","18","91228","0.0-18.0","3OONKJ5DKD5X1VC4YG3IZAHCS17OBK","A25HI5HXUJ0FHF","3WRBLBQ2GRU63BU2LFOJL1G32T90GO","","780.2999999523163","img/flower3.png","76","782.8999999761581","3","1","2","2","1,0,0,1,1,0,1,0,1","0,1,0,0,1,1,1,1,0","3",""
"","html-keyboard-response","19","91531","0.0-19.0","3OONKJ5DKD5X1VC4YG3IZAHCS17OBK","A25HI5HXUJ0FHF","3WRBLBQ2GRU63BU2LFOJL1G32T90GO","","null","<img src=""img/flower3.png"" style=""width:200px; border:14px solid green;"">","null","","","","","","","","",""
"","image-keyboard-response","20","92163","0.0-20.0","3OONKJ5DKD5X1VC4YG3IZAHCS17OBK","A25HI5HXUJ0FHF","3WRBLBQ2GRU63BU2LFOJL1G32T90GO","","629.3000000715256","img/flower2.png","75","632","2","1","1","2","1,0,0,1,1,0,1,0,1","0,1,0,0,1,1,1,1,0","3",""
"","html-keyboard-response","21","92468","0.0-21.0","3OONKJ5DKD5X1VC4YG3IZAHCS17OBK","A25HI5HXUJ0FHF","3WRBLBQ2GRU63BU2LFOJL1G32T90GO","","null","<img src=""img/flower2.png"" style=""width:200px; border:14px solid green;"">","null","","","","","","","","",""
"","image-keyboard-response","22","92971","0.0-22.0","3OONKJ5DKD5X1VC4YG3IZAHCS17OBK","A25HI5HXUJ0FHF","3WRBLBQ2GRU63BU2LFOJL1G32T90GO","","500.10000002384186","img/flower6.png","74","502.60000002384186","1","1","3","2","1,0,0,1,1,0,1,0,1","0,1,0,0,1,1,1,1,0","3",""
"","html-keyboard-response","23","93276","0.0-23.0","3OONKJ5DKD5X1VC4YG3IZAHCS17OBK","A25HI5HXUJ0FHF","3WRBLBQ2GRU63BU2LFOJL1G32T90GO","","null","<img src=""img/flower6.png"" style=""width:200px; border:14px solid green;"">","null","","","","","","","","",""
"","image-keyboard-response","24","94003","0.0-24.0","3OONKJ5DKD5X1VC4YG3IZAHCS17OBK","A25HI5HXUJ0FHF","3WRBLBQ2GRU63BU2LFOJL1G32T90GO","","724.7000000476837","img/flower6.png","74","727.2000000476837","1","1","3","2","1,0,0,1,1,0,1,0,1","0,1,0,0,1,1,1,1,0","3",""
"","html-keyboard-response","25","94307","0.0-25.0","3OONKJ5DKD5X1VC4YG3IZAHCS17OBK","A25HI5HXUJ0FHF","3WRBLBQ2GRU63BU2LFOJL1G32T90GO","","null","<img src=""img/flower6.png"" style=""width:200px; border:14px solid green;"">","null","","","","","","","","",""
"","image-keyboard-response","26","95044","0.0-26.0","3OONKJ5DKD5X1VC4YG3IZAHCS17OBK","A25HI5HXUJ0FHF","3WRBLBQ2GRU63BU2LFOJL1G32T90GO","","733.7000000476837","img/flower3.png","76","736.2000000476837","3","1","2","2","1,0,0,1,1,0,1,0,1","0,1,0,0,1,1,1,1,0","3",""
"","html-keyboard-response","27","95346","0.0-27.0","3OONKJ5DKD5X1VC4YG3IZAHCS17OBK","A25HI5HXUJ0FHF","3WRBLBQ2GRU63BU2LFOJL1G32T90GO","","null","<img src=""img/flower3.png"" style=""width:200px; border:14px solid green;"">","null","","","","","","","","",""
"","image-keyboard-response","28","96076","0.0-28.0","3OONKJ5DKD5X1VC4YG3IZAHCS17OBK","A25HI5HXUJ0FHF","3WRBLBQ2GRU63BU2LFOJL1G32T90GO","","726.2999999523163","img/flower6.png","74","728.5999999046326","1","1","3","2","1,0,0,1,1,0,1,0,1","0,1,0,0,1,1,1,1,0","3",""
"","html-keyboard-response","29","96380","0.0-29.0","3OONKJ5DKD5X1VC4YG3IZAHCS17OBK","A25HI5HXUJ0FHF","3WRBLBQ2GRU63BU2LFOJL1G32T90GO","","null","<img src=""img/flower6.png"" style=""width:200px; border:14px solid green;"">","null","","","","","","","","",""
"","image-keyboard-response","30","96979","0.0-30.0","3OONKJ5DKD5X1VC4YG3IZAHCS17OBK","A25HI5HXUJ0FHF","3WRBLBQ2GRU63BU2LFOJL1G32T90GO","","596.1999999284744","img/flower3.png","76","598.7999999523163","3","1","2","2","1,0,0,1,1,0,1,0,1","0,1,0,0,1,1,1,1,0","3",""
"","html-keyboard-response","31","97284","0.0-31.0","3OONKJ5DKD5X1VC4YG3IZAHCS17OBK","A25HI5HXUJ0FHF","3WRBLBQ2GRU63BU2LFOJL1G32T90GO","","null","<img src=""img/flower3.png"" style=""width:200px; border:14px solid green;"">","null","","","","","","","","",""
"","image-keyboard-response","32","97883","0.0-32.0","3OONKJ5DKD5X1VC4YG3IZAHCS17OBK","A25HI5HXUJ0FHF","3WRBLBQ2GRU63BU2LFOJL1G32T90GO","","596.7000000476837","img/flower6.png","74","598.8999999761581","1","1","3","2","1,0,0,1,1,0,1,0,1","0,1,0,0,1,1,1,1,0","3",""
"","html-keyboard-response","33","98202","0.0-33.0","3OONKJ5DKD5X1VC4YG3IZAHCS17OBK","A25HI5HXUJ0FHF","3WRBLBQ2GRU63BU2LFOJL1G32T90GO","","null","<img src=""img/flower6.png"" style=""width:200px; border:14px solid green;"">","null","","","","","","","","",""
"","image-keyboard-response","34","98764","0.0-34.0","3OONKJ5DKD5X1VC4YG3IZAHCS17OBK","A25HI5HXUJ0FHF","3WRBLBQ2GRU63BU2LFOJL1G32T90GO","","559.3000000715256","img/flower3.png","76","561.3999999761581","3","1","2","2","1,0,0,1,1,0,1,0,1","0,1,0,0,1,1,1,1,0","3",""
"","html-keyboard-response","35","99067","0.0-35.0","3OONKJ5DKD5X1VC4YG3IZAHCS17OBK","A25HI5HXUJ0FHF","3WRBLBQ2GRU63BU2LFOJL1G32T90GO","","null","<img src=""img/flower3.png"" style=""width:200px; border:14px solid green;"">","null","","","","","","","","",""
"","image-keyboard-response","36","99651","0.0-36.0","3OONKJ5DKD5X1VC4YG3IZAHCS17OBK","A25HI5HXUJ0FHF","3WRBLBQ2GRU63BU2LFOJL1G32T90GO","","580.8999999761581","img/flower6.png","74","583.2000000476837","1","1","3","2","1,0,0,1,1,0,1,0,1","0,1,0,0,1,1,1,1,0","3",""
"","html-keyboard-response","37","99955","0.0-37.0","3OONKJ5DKD5X1VC4YG3IZAHCS17OBK","A25HI5HXUJ0FHF","3WRBLBQ2GRU63BU2LFOJL1G32T90GO","","null","<img src=""img/flower6.png"" style=""width:200px; border:14px solid green;"">","null","","","","","","","","",""
"","image-keyboard-response","38","100556","0.0-38.0","3OONKJ5DKD5X1VC4YG3IZAHCS17OBK","A25HI5HXUJ0FHF","3WRBLBQ2GRU63BU2LFOJL1G32T90GO","","596.8999999761581","img/flower6.png","74","599.6000000238419","1","1","3","2","1,0,0,1,1,0,1,0,1","0,1,0,0,1,1,1,1,0","3",""
"","html-keyboard-response","39","100860","0.0-39.0","3OONKJ5DKD5X1VC4YG3IZAHCS17OBK","A25HI5HXUJ0FHF","3WRBLBQ2GRU63BU2LFOJL1G32T90GO","","null","<img src=""img/flower6.png"" style=""width:200px; border:14px solid green;"">","null","","","","","","","","",""
"","image-keyboard-response","40","101491","0.0-40.0","3OONKJ5DKD5X1VC4YG3IZAHCS17OBK","A25HI5HXUJ0FHF","3WRBLBQ2GRU63BU2LFOJL1G32T90GO","","628","img/flower3.png","76","630.2999999523163","3","1","2","2","1,0,0,1,1,0,1,0,1","0,1,0,0,1,1,1,1,0","3",""
"","html-keyboard-response","41","101796","0.0-41.0","3OONKJ5DKD5X1VC4YG3IZAHCS17OBK","A25HI5HXUJ0FHF","3WRBLBQ2GRU63BU2LFOJL1G32T90GO","","null","<img src=""img/flower3.png"" style=""width:200px; border:14px solid green;"">","null","","","","","","","","",""
"","image-keyboard-response","42","102412","0.0-42.0","3OONKJ5DKD5X1VC4YG3IZAHCS17OBK","A25HI5HXUJ0FHF","3WRBLBQ2GRU63BU2LFOJL1G32T90GO","","612.6000000238419","img/flower6.png","74","615.2000000476837","1","1","3","2","1,0,0,1,1,0,1,0,1","0,1,0,0,1,1,1,1,0","3",""
"","html-keyboard-response","43","102716","0.0-43.0","3OONKJ5DKD5X1VC4YG3IZAHCS17OBK","A25HI5HXUJ0FHF","3WRBLBQ2GRU63BU2LFOJL1G32T90GO","","null","<img src=""img/flower6.png"" style=""width:200px; border:14px solid green;"">","null","","","","","","","","",""
"","image-keyboard-response","44","103308","0.0-44.0","3OONKJ5DKD5X1VC4YG3IZAHCS17OBK","A25HI5HXUJ0FHF","3WRBLBQ2GRU63BU2LFOJL1G32T90GO","","588.3000000715256","img/flower3.png","76","590.8000000715256","3","1","2","2","1,0,0,1,1,0,1,0,1","0,1,0,0,1,1,1,1,0","3",""
"","html-keyboard-response","45","103612","0.0-45.0","3OONKJ5DKD5X1VC4YG3IZAHCS17OBK","A25HI5HXUJ0FHF","3WRBLBQ2GRU63BU2LFOJL1G32T90GO","","null","<img src=""img/flower3.png"" style=""width:200px; border:14px solid green;"">","null","","","","","","","","",""
"","image-keyboard-response","46","104244","0.0-46.0","3OONKJ5DKD5X1VC4YG3IZAHCS17OBK","A25HI5HXUJ0FHF","3WRBLBQ2GRU63BU2LFOJL1G32T90GO","","628.1000000238419","img/flower3.png","76","630.7000000476837","3","1","2","2","1,0,0,1,1,0,1,0,1","0,1,0,0,1,1,1,1,0","3",""
"","html-keyboard-response","47","104547","0.0-47.0","3OONKJ5DKD5X1VC4YG3IZAHCS17OBK","A25HI5HXUJ0FHF","3WRBLBQ2GRU63BU2LFOJL1G32T90GO","","null","<img src=""img/flower3.png"" style=""width:200px; border:14px solid green;"">","null","","","","","","","","",""
"","image-keyboard-response","48","105076","0.0-48.0","3OONKJ5DKD5X1VC4YG3IZAHCS17OBK","A25HI5HXUJ0FHF","3WRBLBQ2GRU63BU2LFOJL1G32T90GO","","526.1000000238419","img/flower2.png","75","528.2000000476837","2","1","1","2","1,0,0,1,1,0,1,0,1","0,1,0,0,1,1,1,1,0","3",""
"","html-keyboard-response","49","105383","0.0-49.0","3OONKJ5DKD5X1VC4YG3IZAHCS17OBK","A25HI5HXUJ0FHF","3WRBLBQ2GRU63BU2LFOJL1G32T90GO","","null","<img src=""img/flower2.png"" style=""width:200px; border:14px solid green;"">","null","","","","","","","","",""
"","image-keyboard-response","50","105915","0.0-50.0","3OONKJ5DKD5X1VC4YG3IZAHCS17OBK","A25HI5HXUJ0FHF","3WRBLBQ2GRU63BU2LFOJL1G32T90GO","","528.8999999761581","img/flower2.png","75","531.5999999046326","2","1","1","2","1,0,0,1,1,0,1,0,1","0,1,0,0,1,1,1,1,0","3",""
"","html-keyboard-response","51","106219","0.0-51.0","3OONKJ5DKD5X1VC4YG3IZAHCS17OBK","A25HI5HXUJ0FHF","3WRBLBQ2GRU63BU2LFOJL1G32T90GO","","null","<img src=""img/flower2.png"" style=""width:200px; border:14px solid green;"">","null","","","","","","","","",""
"","image-keyboard-response","52","106852","0.0-52.0","3OONKJ5DKD5X1VC4YG3IZAHCS17OBK","A25HI5HXUJ0FHF","3WRBLBQ2GRU63BU2LFOJL1G32T90GO","","629.6999999284744","img/flower3.png","76","632.3999999761581","3","1","2","2","1,0,0,1,1,0,1,0,1","0,1,0,0,1,1,1,1,0","3",""
"","html-keyboard-response","53","107156","0.0-53.0","3OONKJ5DKD5X1VC4YG3IZAHCS17OBK","A25HI5HXUJ0FHF","3WRBLBQ2GRU63BU2LFOJL1G32T90GO","","null","<img src=""img/flower3.png"" style=""width:200px; border:14px solid green;"">","null","","","","","","","","",""
"","image-keyboard-response","54","107819","0.0-54.0","3OONKJ5DKD5X1VC4YG3IZAHCS17OBK","A25HI5HXUJ0FHF","3WRBLBQ2GRU63BU2LFOJL1G32T90GO","","659.8999999761581","img/flower2.png","75","663","2","1","1","2","1,0,0,1,1,0,1,0,1","0,1,0,0,1,1,1,1,0","3",""
"","html-keyboard-response","55","108123","0.0-55.0","3OONKJ5DKD5X1VC4YG3IZAHCS17OBK","A25HI5HXUJ0FHF","3WRBLBQ2GRU63BU2LFOJL1G32T90GO","","null","<img src=""img/flower2.png"" style=""width:200px; border:14px solid green;"">","null","","","","","","","","",""
"","image-keyboard-response","56","108564","0.0-56.0","3OONKJ5DKD5X1VC4YG3IZAHCS17OBK","A25HI5HXUJ0FHF","3WRBLBQ2GRU63BU2LFOJL1G32T90GO","","437.60000002384186","img/flower2.png","75","440.10000002384186","2","1","1","2","1,0,0,1,1,0,1,0,1","0,1,0,0,1,1,1,1,0","3",""
"","html-keyboard-response","57","108867","0.0-57.0","3OONKJ5DKD5X1VC4YG3IZAHCS17OBK","A25HI5HXUJ0FHF","3WRBLBQ2GRU63BU2LFOJL1G32T90GO","","null","<img src=""img/flower2.png"" style=""width:200px; border:14px solid green;"">","null","","","","","","","","",""
"","image-keyboard-response","58","109299","0.0-58.0","3OONKJ5DKD5X1VC4YG3IZAHCS17OBK","A25HI5HXUJ0FHF","3WRBLBQ2GRU63BU2LFOJL1G32T90GO","","428.7999999523163","img/flower6.png","74","431.10000002384186","1","1","3","2","1,0,0,1,1,0,1,0,1","0,1,0,0,1,1,1,1,0","3",""
"","html-keyboard-response","59","109603","0.0-59.0","3OONKJ5DKD5X1VC4YG3IZAHCS17OBK","A25HI5HXUJ0FHF","3WRBLBQ2GRU63BU2LFOJL1G32T90GO","","null","<img src=""img/flower6.png"" style=""width:200px; border:14px solid green;"">","null","","","","","","","","",""
"","image-keyboard-response","60","110147","0.0-60.0","3OONKJ5DKD5X1VC4YG3IZAHCS17OBK","A25HI5HXUJ0FHF","3WRBLBQ2GRU63BU2LFOJL1G32T90GO","","541.1000000238419","img/flower2.png","75","543.5","2","1","1","2","1,0,0,1,1,0,1,0,1","0,1,0,0,1,1,1,1,0","3",""
"","html-keyboard-response","61","110451","0.0-61.0","3OONKJ5DKD5X1VC4YG3IZAHCS17OBK","A25HI5HXUJ0FHF","3WRBLBQ2GRU63BU2LFOJL1G32T90GO","","null","<img src=""img/flower2.png"" style=""width:200px; border:14px solid green;"">","null","","","","","","","","",""
"","image-keyboard-response","62","110827","0.0-62.0","3OONKJ5DKD5X1VC4YG3IZAHCS17OBK","A25HI5HXUJ0FHF","3WRBLBQ2GRU63BU2LFOJL1G32T90GO","","373.40000009536743","img/flower2.png","75","376.09999990463257","2","1","1","2","1,0,0,1,1,0,1,0,1","0,1,0,0,1,1,1,1,0","3",""
"","html-keyboard-response","63","111130","0.0-63.0","3OONKJ5DKD5X1VC4YG3IZAHCS17OBK","A25HI5HXUJ0FHF","3WRBLBQ2GRU63BU2LFOJL1G32T90GO","","null","<img src=""img/flower2.png"" style=""width:200px; border:14px solid green;"">","null","","","","","","","","",""
"","image-keyboard-response","64","111643","0.0-64.0","3OONKJ5DKD5X1VC4YG3IZAHCS17OBK","A25HI5HXUJ0FHF","3WRBLBQ2GRU63BU2LFOJL1G32T90GO","","509.7999999523163","img/flower3.png","76","512.1999999284744","3","1","2","2","1,0,0,1,1,0,1,0,1","0,1,0,0,1,1,1,1,0","3",""
"","html-keyboard-response","65","111947","0.0-65.0","3OONKJ5DKD5X1VC4YG3IZAHCS17OBK","A25HI5HXUJ0FHF","3WRBLBQ2GRU63BU2LFOJL1G32T90GO","","null","<img src=""img/flower3.png"" style=""width:200px; border:14px solid green;"">","null","","","","","","","","",""
"","image-keyboard-response","66","112477","0.0-66.0","3OONKJ5DKD5X1VC4YG3IZAHCS17OBK","A25HI5HXUJ0FHF","3WRBLBQ2GRU63BU2LFOJL1G32T90GO","","526.7000000476837","img/flower3.png","76","528.8999999761581","3","1","2","2","1,0,0,1,1,0,1,0,1","0,1,0,0,1,1,1,1,0","3",""
"","html-keyboard-response","67","112780","0.0-67.0","3OONKJ5DKD5X1VC4YG3IZAHCS17OBK","A25HI5HXUJ0FHF","3WRBLBQ2GRU63BU2LFOJL1G32T90GO","","null","<img src=""img/flower3.png"" style=""width:200px; border:14px solid green;"">","null","","","","","","","","",""
"","image-keyboard-response","68","113260","0.0-68.0","3OONKJ5DKD5X1VC4YG3IZAHCS17OBK","A25HI5HXUJ0FHF","3WRBLBQ2GRU63BU2LFOJL1G32T90GO","","476.90000009536743","img/flower3.png","76","479.3000000715256","3","1","2","2","1,0,0,1,1,0,1,0,1","0,1,0,0,1,1,1,1,0","3",""
"","html-keyboard-response","69","113564","0.0-69.0","3OONKJ5DKD5X1VC4YG3IZAHCS17OBK","A25HI5HXUJ0FHF","3WRBLBQ2GRU63BU2LFOJL1G32T90GO","","null","<img src=""img/flower3.png"" style=""width:200px; border:14px solid green;"">","null","","","","","","","","",""
"","image-keyboard-response","70","114099","0.0-70.0","3OONKJ5DKD5X1VC4YG3IZAHCS17OBK","A25HI5HXUJ0FHF","3WRBLBQ2GRU63BU2LFOJL1G32T90GO","","532.5","img/flower2.png","75","534.7000000476837","2","1","1","2","1,0,0,1,1,0,1,0,1","0,1,0,0,1,1,1,1,0","3",""
"","html-keyboard-response","71","114402","0.0-71.0","3OONKJ5DKD5X1VC4YG3IZAHCS17OBK","A25HI5HXUJ0FHF","3WRBLBQ2GRU63BU2LFOJL1G32T90GO","","null","<img src=""img/flower2.png"" style=""width:200px; border:14px solid green;"">","null","","","","","","","","",""
"","image-keyboard-response","72","114947","0.0-72.0","3OONKJ5DKD5X1VC4YG3IZAHCS17OBK","A25HI5HXUJ0FHF","3WRBLBQ2GRU63BU2LFOJL1G32T90GO","","542","img/flower2.png","75","544.5","2","1","1","2","1,0,0,1,1,0,1,0,1","0,1,0,0,1,1,1,1,0","3",""
"","html-keyboard-response","73","115251","0.0-73.0","3OONKJ5DKD5X1VC4YG3IZAHCS17OBK","A25HI5HXUJ0FHF","3WRBLBQ2GRU63BU2LFOJL1G32T90GO","","null","<img src=""img/flower2.png"" style=""width:200px; border:14px solid green;"">","null","","","","","","","","",""
"","image-keyboard-response","74","115715","0.0-74.0","3OONKJ5DKD5X1VC4YG3IZAHCS17OBK","A25HI5HXUJ0FHF","3WRBLBQ2GRU63BU2LFOJL1G32T90GO","","461.1999999284744","img/flower2.png","75","463.7999999523163","2","1","1","2","1,0,0,1,1,0,1,0,1","0,1,0,0,1,1,1,1,0","3",""
"","html-keyboard-response","75","116019","0.0-75.0","3OONKJ5DKD5X1VC4YG3IZAHCS17OBK","A25HI5HXUJ0FHF","3WRBLBQ2GRU63BU2LFOJL1G32T90GO","","null","<img src=""img/flower2.png"" style=""width:200px; border:14px solid green;"">","null","","","","","","","","",""
"","image-keyboard-response","76","116499","0.0-76.0","3OONKJ5DKD5X1VC4YG3IZAHCS17OBK","A25HI5HXUJ0FHF","3WRBLBQ2GRU63BU2LFOJL1G32T90GO","","477.10000002384186","img/flower2.png","75","479.7999999523163","2","1","1","2","1,0,0,1,1,0,1,0,1","0,1,0,0,1,1,1,1,0","3",""
"","html-keyboard-response","77","116802","0.0-77.0","3OONKJ5DKD5X1VC4YG3IZAHCS17OBK","A25HI5HXUJ0FHF","3WRBLBQ2GRU63BU2LFOJL1G32T90GO","","null","<img src=""img/flower2.png"" style=""width:200px; border:14px solid green;"">","null","","","","","","","","",""
"","image-keyboard-response","78","117307","0.0-78.0","3OONKJ5DKD5X1VC4YG3IZAHCS17OBK","A25HI5HXUJ0FHF","3WRBLBQ2GRU63BU2LFOJL1G32T90GO","","501.7999999523163","img/flower2.png","75","504.1999999284744","2","1","1","2","1,0,0,1,1,0,1,0,1","0,1,0,0,1,1,1,1,0","3",""
"","html-keyboard-response","79","117612","0.0-79.0","3OONKJ5DKD5X1VC4YG3IZAHCS17OBK","A25HI5HXUJ0FHF","3WRBLBQ2GRU63BU2LFOJL1G32T90GO","","null","<img src=""img/flower2.png"" style=""width:200px; border:14px solid green;"">","null","","","","","","","","",""
"","image-keyboard-response","80","118044","0.0-80.0","3OONKJ5DKD5X1VC4YG3IZAHCS17OBK","A25HI5HXUJ0FHF","3WRBLBQ2GRU63BU2LFOJL1G32T90GO","","429","img/flower2.png","75","431.39999997615814","2","1","1","2","1,0,0,1,1,0,1,0,1","0,1,0,0,1,1,1,1,0","3",""
"","html-keyboard-response","81","118347","0.0-81.0","3OONKJ5DKD5X1VC4YG3IZAHCS17OBK","A25HI5HXUJ0FHF","3WRBLBQ2GRU63BU2LFOJL1G32T90GO","","null","<img src=""img/flower2.png"" style=""width:200px; border:14px solid green;"">","null","","","","","","","","",""
"","image-keyboard-response","82","118884","0.0-82.0","3OONKJ5DKD5X1VC4YG3IZAHCS17OBK","A25HI5HXUJ0FHF","3WRBLBQ2GRU63BU2LFOJL1G32T90GO","","532.5","img/flower3.png","76","535.3000000715256","3","1","2","2","1,0,0,1,1,0,1,0,1","0,1,0,0,1,1,1,1,0","3",""
"","html-keyboard-response","83","119186","0.0-83.0","3OONKJ5DKD5X1VC4YG3IZAHCS17OBK","A25HI5HXUJ0FHF","3WRBLBQ2GRU63BU2LFOJL1G32T90GO","","null","<img src=""img/flower3.png"" style=""width:200px; border:14px solid green;"">","null","","","","","","","","",""
"","image-keyboard-response","84","119676","0.0-84.0","3OONKJ5DKD5X1VC4YG3IZAHCS17OBK","A25HI5HXUJ0FHF","3WRBLBQ2GRU63BU2LFOJL1G32T90GO","","486.2999999523163","img/flower6.png","74","488.7999999523163","1","1","3","2","1,0,0,1,1,0,1,0,1","0,1,0,0,1,1,1,1,0","3",""
"","html-keyboard-response","85","119979","0.0-85.0","3OONKJ5DKD5X1VC4YG3IZAHCS17OBK","A25HI5HXUJ0FHF","3WRBLBQ2GRU63BU2LFOJL1G32T90GO","","null","<img src=""img/flower6.png"" style=""width:200px; border:14px solid green;"">","null","","","","","","","","",""
"","image-keyboard-response","86","120659","0.0-86.0","3OONKJ5DKD5X1VC4YG3IZAHCS17OBK","A25HI5HXUJ0FHF","3WRBLBQ2GRU63BU2LFOJL1G32T90GO","","677.5999999046326","img/flower3.png","76","679.8999999761581","3","1","2","2","1,0,0,1,1,0,1,0,1","0,1,0,0,1,1,1,1,0","3",""
"","html-keyboard-response","87","120964","0.0-87.0","3OONKJ5DKD5X1VC4YG3IZAHCS17OBK","A25HI5HXUJ0FHF","3WRBLBQ2GRU63BU2LFOJL1G32T90GO","","null","<img src=""img/flower3.png"" style=""width:200px; border:14px solid green;"">","null","","","","","","","","",""
"","image-keyboard-response","88","121388","0.0-88.0","3OONKJ5DKD5X1VC4YG3IZAHCS17OBK","A25HI5HXUJ0FHF","3WRBLBQ2GRU63BU2LFOJL1G32T90GO","","421","img/flower3.png","76","423.8000000715256","3","1","2","2","1,0,0,1,1,0,1,0,1","0,1,0,0,1,1,1,1,0","3",""
"","html-keyboard-response","89","121691","0.0-89.0","3OONKJ5DKD5X1VC4YG3IZAHCS17OBK","A25HI5HXUJ0FHF","3WRBLBQ2GRU63BU2LFOJL1G32T90GO","","null","<img src=""img/flower3.png"" style=""width:200px; border:14px solid green;"">","null","","","","","","","","",""
"","image-keyboard-response","90","122204","0.0-90.0","3OONKJ5DKD5X1VC4YG3IZAHCS17OBK","A25HI5HXUJ0FHF","3WRBLBQ2GRU63BU2LFOJL1G32T90GO","","509.3000000715256","img/flower6.png","74","511.6999999284744","1","1","3","2","1,0,0,1,1,0,1,0,1","0,1,0,0,1,1,1,1,0","3",""
"","html-keyboard-response","91","122507","0.0-91.0","3OONKJ5DKD5X1VC4YG3IZAHCS17OBK","A25HI5HXUJ0FHF","3WRBLBQ2GRU63BU2LFOJL1G32T90GO","","null","<img src=""img/flower6.png"" style=""width:200px; border:14px solid green;"">","null","","","","","","","","",""
"","image-keyboard-response","92","122980","0.0-92.0","3OONKJ5DKD5X1VC4YG3IZAHCS17OBK","A25HI5HXUJ0FHF","3WRBLBQ2GRU63BU2LFOJL1G32T90GO","","469.2000000476837","img/flower3.png","76","471.39999997615814","3","1","2","2","1,0,0,1,1,0,1,0,1","0,1,0,0,1,1,1,1,0","3",""
"","html-keyboard-response","93","123283","0.0-93.0","3OONKJ5DKD5X1VC4YG3IZAHCS17OBK","A25HI5HXUJ0FHF","3WRBLBQ2GRU63BU2LFOJL1G32T90GO","","null","<img src=""img/flower3.png"" style=""width:200px; border:14px solid green;"">","null","","","","","","","","",""
"","image-keyboard-response","94","123684","0.0-94.0","3OONKJ5DKD5X1VC4YG3IZAHCS17OBK","A25HI5HXUJ0FHF","3WRBLBQ2GRU63BU2LFOJL1G32T90GO","","397.10000002384186","img/flower3.png","76","399.60000002384186","3","1","2","2","1,0,0,1,1,0,1,0,1","0,1,0,0,1,1,1,1,0","3",""
"","html-keyboard-response","95","123988","0.0-95.0","3OONKJ5DKD5X1VC4YG3IZAHCS17OBK","A25HI5HXUJ0FHF","3WRBLBQ2GRU63BU2LFOJL1G32T90GO","","null","<img src=""img/flower3.png"" style=""width:200px; border:14px solid green;"">","null","","","","","","","","",""
"","image-keyboard-response","96","124523","0.0-96.0","3OONKJ5DKD5X1VC4YG3IZAHCS17OBK","A25HI5HXUJ0FHF","3WRBLBQ2GRU63BU2LFOJL1G32T90GO","","532.6000000238419","img/flower6.png","74","535.1000000238419","1","1","3","2","1,0,0,1,1,0,1,0,1","0,1,0,0,1,1,1,1,0","3",""
"","html-keyboard-response","97","124827","0.0-97.0","3OONKJ5DKD5X1VC4YG3IZAHCS17OBK","A25HI5HXUJ0FHF","3WRBLBQ2GRU63BU2LFOJL1G32T90GO","","null","<img src=""img/flower6.png"" style=""width:200px; border:14px solid green;"">","null","","","","","","","","",""
"","image-keyboard-response","98","125220","0.0-98.0","3OONKJ5DKD5X1VC4YG3IZAHCS17OBK","A25HI5HXUJ0FHF","3WRBLBQ2GRU63BU2LFOJL1G32T90GO","","389.5","img/flower6.png","74","391.90000009536743","1","1","3","2","1,0,0,1,1,0,1,0,1","0,1,0,0,1,1,1,1,0","3",""
"","html-keyboard-response","99","125523","0.0-99.0","3OONKJ5DKD5X1VC4YG3IZAHCS17OBK","A25HI5HXUJ0FHF","3WRBLBQ2GRU63BU2LFOJL1G32T90GO","","null","<img src=""img/flower6.png"" style=""width:200px; border:14px solid green;"">","null","","","","","","","","",""
"","image-keyboard-response","100","125964","0.0-100.0","3OONKJ5DKD5X1VC4YG3IZAHCS17OBK","A25HI5HXUJ0FHF","3WRBLBQ2GRU63BU2LFOJL1G32T90GO","","436.89999997615814","img/flower6.png","74","439.60000002384186","1","1","3","2","1,0,0,1,1,0,1,0,1","0,1,0,0,1,1,1,1,0","3",""
"","html-keyboard-response","101","126267","0.0-101.0","3OONKJ5DKD5X1VC4YG3IZAHCS17OBK","A25HI5HXUJ0FHF","3WRBLBQ2GRU63BU2LFOJL1G32T90GO","","null","<img src=""img/flower6.png"" style=""width:200px; border:14px solid green;"">","null","","","","","","","","",""
"","image-keyboard-response","102","126772","0.0-102.0","3OONKJ5DKD5X1VC4YG3IZAHCS17OBK","A25HI5HXUJ0FHF","3WRBLBQ2GRU63BU2LFOJL1G32T90GO","","501.39999997615814","img/flower3.png","76","503.7999999523163","3","1","2","2","1,0,0,1,1,0,1,0,1","0,1,0,0,1,1,1,1,0","3",""
"","html-keyboard-response","103","127075","0.0-103.0","3OONKJ5DKD5X1VC4YG3IZAHCS17OBK","A25HI5HXUJ0FHF","3WRBLBQ2GRU63BU2LFOJL1G32T90GO","","null","<img src=""img/flower3.png"" style=""width:200px; border:14px solid green;"">","null","","","","","","","","",""
"","image-keyboard-response","104","127500","0.0-104.0","3OONKJ5DKD5X1VC4YG3IZAHCS17OBK","A25HI5HXUJ0FHF","3WRBLBQ2GRU63BU2LFOJL1G32T90GO","","421.60000002384186","img/flower3.png","76","424.2999999523163","3","1","2","2","1,0,0,1,1,0,1,0,1","0,1,0,0,1,1,1,1,0","3",""
"","html-keyboard-response","105","127813","0.0-105.0","3OONKJ5DKD5X1VC4YG3IZAHCS17OBK","A25HI5HXUJ0FHF","3WRBLBQ2GRU63BU2LFOJL1G32T90GO","","null","<img src=""img/flower3.png"" style=""width:200px; border:14px solid green;"">","null","","","","","","","","",""
"","image-keyboard-response","106","128364","0.0-106.0","3OONKJ5DKD5X1VC4YG3IZAHCS17OBK","A25HI5HXUJ0FHF","3WRBLBQ2GRU63BU2LFOJL1G32T90GO","","547.8999999761581","img/flower2.png","75","550.5","2","1","1","2","1,0,0,1,1,0,1,0,1","0,1,0,0,1,1,1,1,0","3",""
"","html-keyboard-response","107","128668","0.0-107.0","3OONKJ5DKD5X1VC4YG3IZAHCS17OBK","A25HI5HXUJ0FHF","3WRBLBQ2GRU63BU2LFOJL1G32T90GO","","null","<img src=""img/flower2.png"" style=""width:200px; border:14px solid green;"">","null","","","","","","","","",""
"","image-keyboard-response","108","128995","0.0-108.0","3OONKJ5DKD5X1VC4YG3IZAHCS17OBK","A25HI5HXUJ0FHF","3WRBLBQ2GRU63BU2LFOJL1G32T90GO","","324.2000000476837","img/flower2.png","75","326.7000000476837","2","1","1","2","1,0,0,1,1,0,1,0,1","0,1,0,0,1,1,1,1,0","3",""
"","html-keyboard-response","109","129303","0.0-109.0","3OONKJ5DKD5X1VC4YG3IZAHCS17OBK","A25HI5HXUJ0FHF","3WRBLBQ2GRU63BU2LFOJL1G32T90GO","","null","<img src=""img/flower2.png"" style=""width:200px; border:14px solid green;"">","null","","","","","","","","",""
"","image-keyboard-response","110","129819","0.0-110.0","3OONKJ5DKD5X1VC4YG3IZAHCS17OBK","A25HI5HXUJ0FHF","3WRBLBQ2GRU63BU2LFOJL1G32T90GO","","512.7999999523163","img/flower6.png","74","515.1000000238419","1","1","3","2","1,0,0,1,1,0,1,0,1","0,1,0,0,1,1,1,1,0","3",""
"","html-keyboard-response","111","130122","0.0-111.0","3OONKJ5DKD5X1VC4YG3IZAHCS17OBK","A25HI5HXUJ0FHF","3WRBLBQ2GRU63BU2LFOJL1G32T90GO","","null","<img src=""img/flower6.png"" style=""width:200px; border:14px solid green;"">","null","","","","","","","","",""
"","image-keyboard-response","112","130644","0.0-112.0","3OONKJ5DKD5X1VC4YG3IZAHCS17OBK","A25HI5HXUJ0FHF","3WRBLBQ2GRU63BU2LFOJL1G32T90GO","","518.2999999523163","img/flower3.png","76","521.6000000238419","3","1","2","2","1,0,0,1,1,0,1,0,1","0,1,0,0,1,1,1,1,0","3",""
"","html-keyboard-response","113","130948","0.0-113.0","3OONKJ5DKD5X1VC4YG3IZAHCS17OBK","A25HI5HXUJ0FHF","3WRBLBQ2GRU63BU2LFOJL1G32T90GO","","null","<img src=""img/flower3.png"" style=""width:200px; border:14px solid green;"">","null","","","","","","","","",""
"","image-keyboard-response","114","131444","0.0-114.0","3OONKJ5DKD5X1VC4YG3IZAHCS17OBK","A25HI5HXUJ0FHF","3WRBLBQ2GRU63BU2LFOJL1G32T90GO","","492.5","img/flower3.png","76","494.89999997615814","3","1","2","2","1,0,0,1,1,0,1,0,1","0,1,0,0,1,1,1,1,0","3",""
"","html-keyboard-response","115","131748","0.0-115.0","3OONKJ5DKD5X1VC4YG3IZAHCS17OBK","A25HI5HXUJ0FHF","3WRBLBQ2GRU63BU2LFOJL1G32T90GO","","null","<img src=""img/flower3.png"" style=""width:200px; border:14px solid green;"">","null","","","","","","","","",""
"","image-keyboard-response","116","132228","0.0-116.0","3OONKJ5DKD5X1VC4YG3IZAHCS17OBK","A25HI5HXUJ0FHF","3WRBLBQ2GRU63BU2LFOJL1G32T90GO","","476.6999999284744","img/flower2.png","75","479.09999990463257","2","1","1","2","1,0,0,1,1,0,1,0,1","0,1,0,0,1,1,1,1,0","3",""
"","html-keyboard-response","117","132531","0.0-117.0","3OONKJ5DKD5X1VC4YG3IZAHCS17OBK","A25HI5HXUJ0FHF","3WRBLBQ2GRU63BU2LFOJL1G32T90GO","","null","<img src=""img/flower2.png"" style=""width:200px; border:14px solid green;"">","null","","","","","","","","",""
"","image-keyboard-response","118","133004","0.0-118.0","3OONKJ5DKD5X1VC4YG3IZAHCS17OBK","A25HI5HXUJ0FHF","3WRBLBQ2GRU63BU2LFOJL1G32T90GO","","469.6999999284744","img/flower3.png","76","472.3000000715256","3","1","2","2","1,0,0,1,1,0,1,0,1","0,1,0,0,1,1,1,1,0","3",""
"","html-keyboard-response","119","133314","0.0-119.0","3OONKJ5DKD5X1VC4YG3IZAHCS17OBK","A25HI5HXUJ0FHF","3WRBLBQ2GRU63BU2LFOJL1G32T90GO","","null","<img src=""img/flower3.png"" style=""width:200px; border:14px solid green;"">","null","","","","","","","","",""
"","image-keyboard-response","120","133748","0.0-120.0","3OONKJ5DKD5X1VC4YG3IZAHCS17OBK","A25HI5HXUJ0FHF","3WRBLBQ2GRU63BU2LFOJL1G32T90GO","","430.5","img/flower6.png","74","432.89999997615814","1","1","3","2","1,0,0,1,1,0,1,0,1","0,1,0,0,1,1,1,1,0","3",""
"","html-keyboard-response","121","134058","0.0-121.0","3OONKJ5DKD5X1VC4YG3IZAHCS17OBK","A25HI5HXUJ0FHF","3WRBLBQ2GRU63BU2LFOJL1G32T90GO","","null","<img src=""img/flower6.png"" style=""width:200px; border:14px solid green;"">","null","","","","","","","","",""
"","image-keyboard-response","122","134444","0.0-122.0","3OONKJ5DKD5X1VC4YG3IZAHCS17OBK","A25HI5HXUJ0FHF","3WRBLBQ2GRU63BU2LFOJL1G32T90GO","","382.39999997615814","img/flower6.png","74","385","1","1","3","2","1,0,0,1,1,0,1,0,1","0,1,0,0,1,1,1,1,0","3",""
"","html-keyboard-response","123","134759","0.0-123.0","3OONKJ5DKD5X1VC4YG3IZAHCS17OBK","A25HI5HXUJ0FHF","3WRBLBQ2GRU63BU2LFOJL1G32T90GO","","null","<img src=""img/flower6.png"" style=""width:200px; border:14px solid green;"">","null","","","","","","","","",""
"","image-keyboard-response","124","135244","0.0-124.0","3OONKJ5DKD5X1VC4YG3IZAHCS17OBK","A25HI5HXUJ0FHF","3WRBLBQ2GRU63BU2LFOJL1G32T90GO","","481.8000000715256","img/flower2.png","76","484.60000002384186","3","0","1","2","1,0,0,1,1,0,1,0,1","0,1,0,0,1,1,1,1,0","3",""
"","html-keyboard-response","125","135547","0.0-125.0","3OONKJ5DKD5X1VC4YG3IZAHCS17OBK","A25HI5HXUJ0FHF","3WRBLBQ2GRU63BU2LFOJL1G32T90GO","","null","<img src=""img/flower2.png"" style=""width:200px;border:14px solid red;"">","null","","","","","","","","",""
"","image-keyboard-response","126","136179","0.0-126.0","3OONKJ5DKD5X1VC4YG3IZAHCS17OBK","A25HI5HXUJ0FHF","3WRBLBQ2GRU63BU2LFOJL1G32T90GO","","629","img/flower6.png","74","631.5","1","1","3","2","1,0,0,1,1,0,1,0,1","0,1,0,0,1,1,1,1,0","3",""
"","html-keyboard-response","127","136483","0.0-127.0","3OONKJ5DKD5X1VC4YG3IZAHCS17OBK","A25HI5HXUJ0FHF","3WRBLBQ2GRU63BU2LFOJL1G32T90GO","","null","<img src=""img/flower6.png"" style=""width:200px; border:14px solid green;"">","null","","","","","","","","",""
"","image-keyboard-response","128","136884","0.0-128.0","3OONKJ5DKD5X1VC4YG3IZAHCS17OBK","A25HI5HXUJ0FHF","3WRBLBQ2GRU63BU2LFOJL1G32T90GO","","396.5","img/flower6.png","74","399.2999999523163","1","1","3","2","1,0,0,1,1,0,1,0,1","0,1,0,0,1,1,1,1,0","3",""
"","html-keyboard-response","129","137187","0.0-129.0","3OONKJ5DKD5X1VC4YG3IZAHCS17OBK","A25HI5HXUJ0FHF","3WRBLBQ2GRU63BU2LFOJL1G32T90GO","","null","<img src=""img/flower6.png"" style=""width:200px; border:14px solid green;"">","null","","","","","","","","",""
"","image-keyboard-response","130","137716","0.0-130.0","3OONKJ5DKD5X1VC4YG3IZAHCS17OBK","A25HI5HXUJ0FHF","3WRBLBQ2GRU63BU2LFOJL1G32T90GO","","521.8999999761581","img/flower3.png","76","524.5999999046326","3","1","2","2","1,0,0,1,1,0,1,0,1","0,1,0,0,1,1,1,1,0","3",""
"","html-keyboard-response","131","138018","0.0-131.0","3OONKJ5DKD5X1VC4YG3IZAHCS17OBK","A25HI5HXUJ0FHF","3WRBLBQ2GRU63BU2LFOJL1G32T90GO","","null","<img src=""img/flower3.png"" style=""width:200px; border:14px solid green;"">","null","","","","","","","","",""
"","image-keyboard-response","132","138683","0.0-132.0","3OONKJ5DKD5X1VC4YG3IZAHCS17OBK","A25HI5HXUJ0FHF","3WRBLBQ2GRU63BU2LFOJL1G32T90GO","","662","img/flower6.png","74","664.2999999523163","1","1","3","2","1,0,0,1,1,0,1,0,1","0,1,0,0,1,1,1,1,0","3",""
"","html-keyboard-response","133","138986","0.0-133.0","3OONKJ5DKD5X1VC4YG3IZAHCS17OBK","A25HI5HXUJ0FHF","3WRBLBQ2GRU63BU2LFOJL1G32T90GO","","null","<img src=""img/flower6.png"" style=""width:200px; border:14px solid green;"">","null","","","","","","","","",""
"","image-keyboard-response","134","139500","0.0-134.0","3OONKJ5DKD5X1VC4YG3IZAHCS17OBK","A25HI5HXUJ0FHF","3WRBLBQ2GRU63BU2LFOJL1G32T90GO","","509.89999997615814","img/flower2.png","75","512.3999999761581","2","1","1","2","1,0,0,1,1,0,1,0,1","0,1,0,0,1,1,1,1,0","3",""
"","html-keyboard-response","135","139803","0.0-135.0","3OONKJ5DKD5X1VC4YG3IZAHCS17OBK","A25HI5HXUJ0FHF","3WRBLBQ2GRU63BU2LFOJL1G32T90GO","","null","<img src=""img/flower2.png"" style=""width:200px; border:14px solid green;"">","null","","","","","","","","",""
"","image-keyboard-response","136","140316","0.0-136.0","3OONKJ5DKD5X1VC4YG3IZAHCS17OBK","A25HI5HXUJ0FHF","3WRBLBQ2GRU63BU2LFOJL1G32T90GO","","509.2999999523163","img/flower6.png","74","511.89999997615814","1","1","3","2","1,0,0,1,1,0,1,0,1","0,1,0,0,1,1,1,1,0","3",""
"","html-keyboard-response","137","140619","0.0-137.0","3OONKJ5DKD5X1VC4YG3IZAHCS17OBK","A25HI5HXUJ0FHF","3WRBLBQ2GRU63BU2LFOJL1G32T90GO","","null","<img src=""img/flower6.png"" style=""width:200px; border:14px solid green;"">","null","","","","","","","","",""
"","image-keyboard-response","138","141036","0.0-138.0","3OONKJ5DKD5X1VC4YG3IZAHCS17OBK","A25HI5HXUJ0FHF","3WRBLBQ2GRU63BU2LFOJL1G32T90GO","","414.2000000476837","img/flower6.png","74","416.7000000476837","1","1","3","2","1,0,0,1,1,0,1,0,1","0,1,0,0,1,1,1,1,0","3",""
"","html-keyboard-response","139","141338","0.0-139.0","3OONKJ5DKD5X1VC4YG3IZAHCS17OBK","A25HI5HXUJ0FHF","3WRBLBQ2GRU63BU2LFOJL1G32T90GO","","null","<img src=""img/flower6.png"" style=""width:200px; border:14px solid green;"">","null","","","","","","","","",""
"","image-keyboard-response","140","141771","0.0-140.0","3OONKJ5DKD5X1VC4YG3IZAHCS17OBK","A25HI5HXUJ0FHF","3WRBLBQ2GRU63BU2LFOJL1G32T90GO","","430","img/flower6.png","74","432.10000002384186","1","1","3","2","1,0,0,1,1,0,1,0,1","0,1,0,0,1,1,1,1,0","3",""
"","html-keyboard-response","141","142075","0.0-141.0","3OONKJ5DKD5X1VC4YG3IZAHCS17OBK","A25HI5HXUJ0FHF","3WRBLBQ2GRU63BU2LFOJL1G32T90GO","","null","<img src=""img/flower6.png"" style=""width:200px; border:14px solid green;"">","null","","","","","","","","",""
"","image-keyboard-response","142","142428","0.0-142.0","3OONKJ5DKD5X1VC4YG3IZAHCS17OBK","A25HI5HXUJ0FHF","3WRBLBQ2GRU63BU2LFOJL1G32T90GO","","349.7000000476837","img/flower6.png","74","352.2000000476837","1","1","3","2","1,0,0,1,1,0,1,0,1","0,1,0,0,1,1,1,1,0","3",""
"","html-keyboard-response","143","142732","0.0-143.0","3OONKJ5DKD5X1VC4YG3IZAHCS17OBK","A25HI5HXUJ0FHF","3WRBLBQ2GRU63BU2LFOJL1G32T90GO","","null","<img src=""img/flower6.png"" style=""width:200px; border:14px solid green;"">","null","","","","","","","","",""
"","image-keyboard-response","144","143229","0.0-144.0","3OONKJ5DKD5X1VC4YG3IZAHCS17OBK","A25HI5HXUJ0FHF","3WRBLBQ2GRU63BU2LFOJL1G32T90GO","","493.6999999284744","img/flower6.png","74","496.10000002384186","1","1","3","2","1,0,0,1,1,0,1,0,1","0,1,0,0,1,1,1,1,0","3",""
"","html-keyboard-response","145","143532","0.0-145.0","3OONKJ5DKD5X1VC4YG3IZAHCS17OBK","A25HI5HXUJ0FHF","3WRBLBQ2GRU63BU2LFOJL1G32T90GO","","null","<img src=""img/flower6.png"" style=""width:200px; border:14px solid green;"">","null","","","","","","","","",""
"","image-keyboard-response","146","144100","0.0-146.0","3OONKJ5DKD5X1VC4YG3IZAHCS17OBK","A25HI5HXUJ0FHF","3WRBLBQ2GRU63BU2LFOJL1G32T90GO","","564.5","img/flower3.png","76","566.8999999761581","3","1","2","2","1,0,0,1,1,0,1,0,1","0,1,0,0,1,1,1,1,0","3",""
"","html-keyboard-response","147","144403","0.0-147.0","3OONKJ5DKD5X1VC4YG3IZAHCS17OBK","A25HI5HXUJ0FHF","3WRBLBQ2GRU63BU2LFOJL1G32T90GO","","null","<img src=""img/flower3.png"" style=""width:200px; border:14px solid green;"">","null","","","","","","","","",""
"","image-keyboard-response","148","144844","0.0-148.0","3OONKJ5DKD5X1VC4YG3IZAHCS17OBK","A25HI5HXUJ0FHF","3WRBLBQ2GRU63BU2LFOJL1G32T90GO","","437.39999997615814","img/flower2.png","74","439.89999997615814","1","0","1","2","1,0,0,1,1,0,1,0,1","0,1,0,0,1,1,1,1,0","3",""
"","html-keyboard-response","149","145147","0.0-149.0","3OONKJ5DKD5X1VC4YG3IZAHCS17OBK","A25HI5HXUJ0FHF","3WRBLBQ2GRU63BU2LFOJL1G32T90GO","","null","<img src=""img/flower2.png"" style=""width:200px;border:14px solid red;"">","null","","","","","","","","",""
"","image-keyboard-response","150","145635","0.0-150.0","3OONKJ5DKD5X1VC4YG3IZAHCS17OBK","A25HI5HXUJ0FHF","3WRBLBQ2GRU63BU2LFOJL1G32T90GO","","483.89999997615814","img/flower6.png","74","486.5","1","1","3","2","1,0,0,1,1,0,1,0,1","0,1,0,0,1,1,1,1,0","3",""
"","html-keyboard-response","151","145938","0.0-151.0","3OONKJ5DKD5X1VC4YG3IZAHCS17OBK","A25HI5HXUJ0FHF","3WRBLBQ2GRU63BU2LFOJL1G32T90GO","","null","<img src=""img/flower6.png"" style=""width:200px; border:14px solid green;"">","null","","","","","","","","",""
"","image-keyboard-response","152","146493","0.0-152.0","3OONKJ5DKD5X1VC4YG3IZAHCS17OBK","A25HI5HXUJ0FHF","3WRBLBQ2GRU63BU2LFOJL1G32T90GO","","552.2999999523163","img/flower2.png","75","554.7000000476837","2","1","1","2","1,0,0,1,1,0,1,0,1","0,1,0,0,1,1,1,1,0","3",""
"","html-keyboard-response","153","146800","0.0-153.0","3OONKJ5DKD5X1VC4YG3IZAHCS17OBK","A25HI5HXUJ0FHF","3WRBLBQ2GRU63BU2LFOJL1G32T90GO","","null","<img src=""img/flower2.png"" style=""width:200px; border:14px solid green;"">","null","","","","","","","","",""
"","image-keyboard-response","154","147212","0.0-154.0","3OONKJ5DKD5X1VC4YG3IZAHCS17OBK","A25HI5HXUJ0FHF","3WRBLBQ2GRU63BU2LFOJL1G32T90GO","","408.2000000476837","img/flower2.png","75","410.90000009536743","2","1","1","2","1,0,0,1,1,0,1,0,1","0,1,0,0,1,1,1,1,0","3",""
"","html-keyboard-response","155","147515","0.0-155.0","3OONKJ5DKD5X1VC4YG3IZAHCS17OBK","A25HI5HXUJ0FHF","3WRBLBQ2GRU63BU2LFOJL1G32T90GO","","null","<img src=""img/flower2.png"" style=""width:200px; border:14px solid green;"">","null","","","","","","","","",""
"","image-keyboard-response","156","147988","0.0-156.0","3OONKJ5DKD5X1VC4YG3IZAHCS17OBK","A25HI5HXUJ0FHF","3WRBLBQ2GRU63BU2LFOJL1G32T90GO","","469.89999997615814","img/flower2.png","75","472.2000000476837","2","1","1","2","1,0,0,1,1,0,1,0,1","0,1,0,0,1,1,1,1,0","3",""
"","html-keyboard-response","157","148291","0.0-157.0","3OONKJ5DKD5X1VC4YG3IZAHCS17OBK","A25HI5HXUJ0FHF","3WRBLBQ2GRU63BU2LFOJL1G32T90GO","","null","<img src=""img/flower2.png"" style=""width:200px; border:14px solid green;"">","null","","","","","","","","",""
"","image-keyboard-response","158","148932","0.0-158.0","3OONKJ5DKD5X1VC4YG3IZAHCS17OBK","A25HI5HXUJ0FHF","3WRBLBQ2GRU63BU2LFOJL1G32T90GO","","636.7999999523163","img/flower3.png","76","639.5","3","1","2","2","1,0,0,1,1,0,1,0,1","0,1,0,0,1,1,1,1,0","3",""
"","html-keyboard-response","159","149236","0.0-159.0","3OONKJ5DKD5X1VC4YG3IZAHCS17OBK","A25HI5HXUJ0FHF","3WRBLBQ2GRU63BU2LFOJL1G32T90GO","","null","<img src=""img/flower3.png"" style=""width:200px; border:14px solid green;"">","null","","","","","","","","",""
"","image-keyboard-response","160","149652","0.0-160.0","3OONKJ5DKD5X1VC4YG3IZAHCS17OBK","A25HI5HXUJ0FHF","3WRBLBQ2GRU63BU2LFOJL1G32T90GO","","412.7000000476837","img/flower3.png","76","415.2999999523163","3","1","2","2","1,0,0,1,1,0,1,0,1","0,1,0,0,1,1,1,1,0","3",""
"","html-keyboard-response","161","149955","0.0-161.0","3OONKJ5DKD5X1VC4YG3IZAHCS17OBK","A25HI5HXUJ0FHF","3WRBLBQ2GRU63BU2LFOJL1G32T90GO","","null","<img src=""img/flower3.png"" style=""width:200px; border:14px solid green;"">","null","","","","","","","","",""
"","image-keyboard-response","162","150444","0.0-162.0","3OONKJ5DKD5X1VC4YG3IZAHCS17OBK","A25HI5HXUJ0FHF","3WRBLBQ2GRU63BU2LFOJL1G32T90GO","","485.5","img/flower2.png","75","488.40000009536743","2","1","1","2","1,0,0,1,1,0,1,0,1","0,1,0,0,1,1,1,1,0","3",""
"","html-keyboard-response","163","150747","0.0-163.0","3OONKJ5DKD5X1VC4YG3IZAHCS17OBK","A25HI5HXUJ0FHF","3WRBLBQ2GRU63BU2LFOJL1G32T90GO","","null","<img src=""img/flower2.png"" style=""width:200px; border:14px solid green;"">","null","","","","","","","","",""
"","image-keyboard-response","164","151211","0.0-164.0","3OONKJ5DKD5X1VC4YG3IZAHCS17OBK","A25HI5HXUJ0FHF","3WRBLBQ2GRU63BU2LFOJL1G32T90GO","","460.59999990463257","img/flower6.png","74","463","1","1","3","2","1,0,0,1,1,0,1,0,1","0,1,0,0,1,1,1,1,0","3",""
"","html-keyboard-response","165","151514","0.0-165.0","3OONKJ5DKD5X1VC4YG3IZAHCS17OBK","A25HI5HXUJ0FHF","3WRBLBQ2GRU63BU2LFOJL1G32T90GO","","null","<img src=""img/flower6.png"" style=""width:200px; border:14px solid green;"">","null","","","","","","","","",""
"","image-keyboard-response","166","152020","0.0-166.0","3OONKJ5DKD5X1VC4YG3IZAHCS17OBK","A25HI5HXUJ0FHF","3WRBLBQ2GRU63BU2LFOJL1G32T90GO","","502.2999999523163","img/flower6.png","74","504.5","1","1","3","2","1,0,0,1,1,0,1,0,1","0,1,0,0,1,1,1,1,0","3",""
"","html-keyboard-response","167","152323","0.0-167.0","3OONKJ5DKD5X1VC4YG3IZAHCS17OBK","A25HI5HXUJ0FHF","3WRBLBQ2GRU63BU2LFOJL1G32T90GO","","null","<img src=""img/flower6.png"" style=""width:200px; border:14px solid green;"">","null","","","","","","","","",""
"","image-keyboard-response","168","152844","0.0-168.0","3OONKJ5DKD5X1VC4YG3IZAHCS17OBK","A25HI5HXUJ0FHF","3WRBLBQ2GRU63BU2LFOJL1G32T90GO","","517","img/flower6.png","74","519.7000000476837","1","1","3","2","1,0,0,1,1,0,1,0,1","0,1,0,0,1,1,1,1,0","3",""
"","html-keyboard-response","169","153147","0.0-169.0","3OONKJ5DKD5X1VC4YG3IZAHCS17OBK","A25HI5HXUJ0FHF","3WRBLBQ2GRU63BU2LFOJL1G32T90GO","","null","<img src=""img/flower6.png"" style=""width:200px; border:14px solid green;"">","null","","","","","","","","",""
"","image-keyboard-response","170","153836","0.0-170.0","3OONKJ5DKD5X1VC4YG3IZAHCS17OBK","A25HI5HXUJ0FHF","3WRBLBQ2GRU63BU2LFOJL1G32T90GO","","685.7999999523163","img/flower3.png","76","688.2999999523163","3","1","2","2","1,0,0,1,1,0,1,0,1","0,1,0,0,1,1,1,1,0","3",""
"","html-keyboard-response","171","154139","0.0-171.0","3OONKJ5DKD5X1VC4YG3IZAHCS17OBK","A25HI5HXUJ0FHF","3WRBLBQ2GRU63BU2LFOJL1G32T90GO","","null","<img src=""img/flower3.png"" style=""width:200px; border:14px solid green;"">","null","","","","","","","","",""
"","image-keyboard-response","172","154564","0.0-172.0","3OONKJ5DKD5X1VC4YG3IZAHCS17OBK","A25HI5HXUJ0FHF","3WRBLBQ2GRU63BU2LFOJL1G32T90GO","","420.89999997615814","img/flower3.png","76","423.5","3","1","2","2","1,0,0,1,1,0,1,0,1","0,1,0,0,1,1,1,1,0","3",""
"","html-keyboard-response","173","154867","0.0-173.0","3OONKJ5DKD5X1VC4YG3IZAHCS17OBK","A25HI5HXUJ0FHF","3WRBLBQ2GRU63BU2LFOJL1G32T90GO","","null","<img src=""img/flower3.png"" style=""width:200px; border:14px solid green;"">","null","","","","","","","","",""
"","image-keyboard-response","174","155276","0.0-174.0","3OONKJ5DKD5X1VC4YG3IZAHCS17OBK","A25HI5HXUJ0FHF","3WRBLBQ2GRU63BU2LFOJL1G32T90GO","","405.6999999284744","img/flower2.png","75","408.10000002384186","2","1","1","2","1,0,0,1,1,0,1,0,1","0,1,0,0,1,1,1,1,0","3",""
"","html-keyboard-response","175","155580","0.0-175.0","3OONKJ5DKD5X1VC4YG3IZAHCS17OBK","A25HI5HXUJ0FHF","3WRBLBQ2GRU63BU2LFOJL1G32T90GO","","null","<img src=""img/flower2.png"" style=""width:200px; border:14px solid green;"">","null","","","","","","","","",""
"","image-keyboard-response","176","155916","0.0-176.0","3OONKJ5DKD5X1VC4YG3IZAHCS17OBK","A25HI5HXUJ0FHF","3WRBLBQ2GRU63BU2LFOJL1G32T90GO","","332.39999997615814","img/flower2.png","75","334.7999999523163","2","1","1","2","1,0,0,1,1,0,1,0,1","0,1,0,0,1,1,1,1,0","3",""
"","html-keyboard-response","177","156219","0.0-177.0","3OONKJ5DKD5X1VC4YG3IZAHCS17OBK","A25HI5HXUJ0FHF","3WRBLBQ2GRU63BU2LFOJL1G32T90GO","","null","<img src=""img/flower2.png"" style=""width:200px; border:14px solid green;"">","null","","","","","","","","",""
"","image-keyboard-response","178","156748","0.0-178.0","3OONKJ5DKD5X1VC4YG3IZAHCS17OBK","A25HI5HXUJ0FHF","3WRBLBQ2GRU63BU2LFOJL1G32T90GO","","525.8999999761581","img/flower3.png","76","528.2000000476837","3","1","2","2","1,0,0,1,1,0,1,0,1","0,1,0,0,1,1,1,1,0","3",""
"","html-keyboard-response","179","157051","0.0-179.0","3OONKJ5DKD5X1VC4YG3IZAHCS17OBK","A25HI5HXUJ0FHF","3WRBLBQ2GRU63BU2LFOJL1G32T90GO","","null","<img src=""img/flower3.png"" style=""width:200px; border:14px solid green;"">","null","","","","","","","","",""
"","image-keyboard-response","180","157604","0.0-180.0","3OONKJ5DKD5X1VC4YG3IZAHCS17OBK","A25HI5HXUJ0FHF","3WRBLBQ2GRU63BU2LFOJL1G32T90GO","","549.1999999284744","img/flower6.png","74","551.8999999761581","1","1","3","2","1,0,0,1,1,0,1,0,1","0,1,0,0,1,1,1,1,0","3",""
"","html-keyboard-response","181","157907","0.0-181.0","3OONKJ5DKD5X1VC4YG3IZAHCS17OBK","A25HI5HXUJ0FHF","3WRBLBQ2GRU63BU2LFOJL1G32T90GO","","null","<img src=""img/flower6.png"" style=""width:200px; border:14px solid green;"">","null","","","","","","","","",""
"","image-keyboard-response","182","159012","0.0-182.0","3OONKJ5DKD5X1VC4YG3IZAHCS17OBK","A25HI5HXUJ0FHF","3WRBLBQ2GRU63BU2LFOJL1G32T90GO","","1101.5","img/flower5.png","74","1104","1","0","3","1","1,0.333,0.333,0.333,1,0.333,0.333,0.333,1","1,0.333,0.333,0.333,1,0.333,0.333,0.333,1","1",""
"","html-keyboard-response","183","159315","0.0-183.0","3OONKJ5DKD5X1VC4YG3IZAHCS17OBK","A25HI5HXUJ0FHF","3WRBLBQ2GRU63BU2LFOJL1G32T90GO","","null","<img src=""img/flower5.png"" style=""width:200px;border:14px solid red;"">","null","","","","","","","","",""
"","image-keyboard-response","184","160068","0.0-184.0","3OONKJ5DKD5X1VC4YG3IZAHCS17OBK","A25HI5HXUJ0FHF","3WRBLBQ2GRU63BU2LFOJL1G32T90GO","","749.8999999761581","img/flower4.png","75","752.2999999523163","2","1","2","1","1,0.333,0.333,0.333,1,0.333,0.333,0.333,1","1,0.333,0.333,0.333,1,0.333,0.333,0.333,1","1",""
"","html-keyboard-response","185","160370","0.0-185.0","3OONKJ5DKD5X1VC4YG3IZAHCS17OBK","A25HI5HXUJ0FHF","3WRBLBQ2GRU63BU2LFOJL1G32T90GO","","null","<img src=""img/flower4.png"" style=""width:200px; border:14px solid green;"">","null","","","","","","","","",""
"","image-keyboard-response","186","161267","0.0-186.0","3OONKJ5DKD5X1VC4YG3IZAHCS17OBK","A25HI5HXUJ0FHF","3WRBLBQ2GRU63BU2LFOJL1G32T90GO","","893.5","img/flower5.png","74","895.8999999761581","1","1","3","1","1,0.333,0.333,0.333,1,0.333,0.333,0.333,1","1,0.333,0.333,0.333,1,0.333,0.333,0.333,1","1",""
"","html-keyboard-response","187","161570","0.0-187.0","3OONKJ5DKD5X1VC4YG3IZAHCS17OBK","A25HI5HXUJ0FHF","3WRBLBQ2GRU63BU2LFOJL1G32T90GO","","null","<img src=""img/flower5.png"" style=""width:200px; border:14px solid green;"">","null","","","","","","","","",""
"","image-keyboard-response","188","162324","0.0-188.0","3OONKJ5DKD5X1VC4YG3IZAHCS17OBK","A25HI5HXUJ0FHF","3WRBLBQ2GRU63BU2LFOJL1G32T90GO","","750","img/flower4.png","75","752.8000000715256","2","1","2","1","1,0.333,0.333,0.333,1,0.333,0.333,0.333,1","1,0.333,0.333,0.333,1,0.333,0.333,0.333,1","1",""
"","html-keyboard-response","189","162628","0.0-189.0","3OONKJ5DKD5X1VC4YG3IZAHCS17OBK","A25HI5HXUJ0FHF","3WRBLBQ2GRU63BU2LFOJL1G32T90GO","","null","<img src=""img/flower4.png"" style=""width:200px; border:14px solid green;"">","null","","","","","","","","",""
"","image-keyboard-response","190","163452","0.0-190.0","3OONKJ5DKD5X1VC4YG3IZAHCS17OBK","A25HI5HXUJ0FHF","3WRBLBQ2GRU63BU2LFOJL1G32T90GO","","820.7000000476837","img/flower1.png","76","823.2999999523163","3","1","1","1","1,0.333,0.333,0.333,1,0.333,0.333,0.333,1","1,0.333,0.333,0.333,1,0.333,0.333,0.333,1","1",""
"","html-keyboard-response","191","163755","0.0-191.0","3OONKJ5DKD5X1VC4YG3IZAHCS17OBK","A25HI5HXUJ0FHF","3WRBLBQ2GRU63BU2LFOJL1G32T90GO","","null","<img src=""img/flower1.png"" style=""width:200px; border:14px solid green;"">","null","","","","","","","","",""
"","image-keyboard-response","192","164395","0.0-192.0","3OONKJ5DKD5X1VC4YG3IZAHCS17OBK","A25HI5HXUJ0FHF","3WRBLBQ2GRU63BU2LFOJL1G32T90GO","","637.3000000715256","img/flower1.png","76","639.8999999761581","3","0","1","1","1,0.333,0.333,0.333,1,0.333,0.333,0.333,1","1,0.333,0.333,0.333,1,0.333,0.333,0.333,1","1",""
"","html-keyboard-response","193","164698","0.0-193.0","3OONKJ5DKD5X1VC4YG3IZAHCS17OBK","A25HI5HXUJ0FHF","3WRBLBQ2GRU63BU2LFOJL1G32T90GO","","null","<img src=""img/flower1.png"" style=""width:200px;border:14px solid red;"">","null","","","","","","","","",""
"","image-keyboard-response","194","165396","0.0-194.0","3OONKJ5DKD5X1VC4YG3IZAHCS17OBK","A25HI5HXUJ0FHF","3WRBLBQ2GRU63BU2LFOJL1G32T90GO","","694.6000000238419","img/flower4.png","75","696.9000000953674","2","1","2","1","1,0.333,0.333,0.333,1,0.333,0.333,0.333,1","1,0.333,0.333,0.333,1,0.333,0.333,0.333,1","1",""
"","html-keyboard-response","195","165698","0.0-195.0","3OONKJ5DKD5X1VC4YG3IZAHCS17OBK","A25HI5HXUJ0FHF","3WRBLBQ2GRU63BU2LFOJL1G32T90GO","","null","<img src=""img/flower4.png"" style=""width:200px; border:14px solid green;"">","null","","","","","","","","",""
"","image-keyboard-response","196","166380","0.0-196.0","3OONKJ5DKD5X1VC4YG3IZAHCS17OBK","A25HI5HXUJ0FHF","3WRBLBQ2GRU63BU2LFOJL1G32T90GO","","678.3000000715256","img/flower5.png","74","681","1","1","3","1","1,0.333,0.333,0.333,1,0.333,0.333,0.333,1","1,0.333,0.333,0.333,1,0.333,0.333,0.333,1","1",""
"","html-keyboard-response","197","166683","0.0-197.0","3OONKJ5DKD5X1VC4YG3IZAHCS17OBK","A25HI5HXUJ0FHF","3WRBLBQ2GRU63BU2LFOJL1G32T90GO","","null","<img src=""img/flower5.png"" style=""width:200px; border:14px solid green;"">","null","","","","","","","","",""
"","image-keyboard-response","198","167564","0.0-198.0","3OONKJ5DKD5X1VC4YG3IZAHCS17OBK","A25HI5HXUJ0FHF","3WRBLBQ2GRU63BU2LFOJL1G32T90GO","","877.2999999523163","img/flower1.png","75","879.8000000715256","2","1","1","1","1,0.333,0.333,0.333,1,0.333,0.333,0.333,1","1,0.333,0.333,0.333,1,0.333,0.333,0.333,1","1",""
"","html-keyboard-response","199","167867","0.0-199.0","3OONKJ5DKD5X1VC4YG3IZAHCS17OBK","A25HI5HXUJ0FHF","3WRBLBQ2GRU63BU2LFOJL1G32T90GO","","null","<img src=""img/flower1.png"" style=""width:200px; border:14px solid green;"">","null","","","","","","","","",""
"","image-keyboard-response","200","168876","0.0-200.0","3OONKJ5DKD5X1VC4YG3IZAHCS17OBK","A25HI5HXUJ0FHF","3WRBLBQ2GRU63BU2LFOJL1G32T90GO","","1006","img/flower4.png","76","1008.3999999761581","3","0","2","1","1,0.333,0.333,0.333,1,0.333,0.333,0.333,1","1,0.333,0.333,0.333,1,0.333,0.333,0.333,1","1",""
"","html-keyboard-response","201","169180","0.0-201.0","3OONKJ5DKD5X1VC4YG3IZAHCS17OBK","A25HI5HXUJ0FHF","3WRBLBQ2GRU63BU2LFOJL1G32T90GO","","null","<img src=""img/flower4.png"" style=""width:200px;border:14px solid red;"">","null","","","","","","","","",""
"","image-keyboard-response","202","169988","0.0-202.0","3OONKJ5DKD5X1VC4YG3IZAHCS17OBK","A25HI5HXUJ0FHF","3WRBLBQ2GRU63BU2LFOJL1G32T90GO","","805","img/flower5.png","75","807.1000000238419","2","0","3","1","1,0.333,0.333,0.333,1,0.333,0.333,0.333,1","1,0.333,0.333,0.333,1,0.333,0.333,0.333,1","1",""
"","html-keyboard-response","203","170292","0.0-203.0","3OONKJ5DKD5X1VC4YG3IZAHCS17OBK","A25HI5HXUJ0FHF","3WRBLBQ2GRU63BU2LFOJL1G32T90GO","","null","<img src=""img/flower5.png"" style=""width:200px;border:14px solid red;"">","null","","","","","","","","",""
"","image-keyboard-response","204","170812","0.0-204.0","3OONKJ5DKD5X1VC4YG3IZAHCS17OBK","A25HI5HXUJ0FHF","3WRBLBQ2GRU63BU2LFOJL1G32T90GO","","516.8000000715256","img/flower5.png","74","522.4000000953674","1","0","3","1","1,0.333,0.333,0.333,1,0.333,0.333,0.333,1","1,0.333,0.333,0.333,1,0.333,0.333,0.333,1","1",""
"","html-keyboard-response","205","171125","0.0-205.0","3OONKJ5DKD5X1VC4YG3IZAHCS17OBK","A25HI5HXUJ0FHF","3WRBLBQ2GRU63BU2LFOJL1G32T90GO","","null","<img src=""img/flower5.png"" style=""width:200px;border:14px solid red;"">","null","","","","","","","","",""
"","image-keyboard-response","206","171940","0.0-206.0","3OONKJ5DKD5X1VC4YG3IZAHCS17OBK","A25HI5HXUJ0FHF","3WRBLBQ2GRU63BU2LFOJL1G32T90GO","","811.2000000476837","img/flower4.png","74","813.6999999284744","1","1","2","1","1,0.333,0.333,0.333,1,0.333,0.333,0.333,1","1,0.333,0.333,0.333,1,0.333,0.333,0.333,1","1",""
"","html-keyboard-response","207","172244","0.0-207.0","3OONKJ5DKD5X1VC4YG3IZAHCS17OBK","A25HI5HXUJ0FHF","3WRBLBQ2GRU63BU2LFOJL1G32T90GO","","null","<img src=""img/flower4.png"" style=""width:200px; border:14px solid green;"">","null","","","","","","","","",""
"","image-keyboard-response","208","173115","0.0-208.0","3OONKJ5DKD5X1VC4YG3IZAHCS17OBK","A25HI5HXUJ0FHF","3WRBLBQ2GRU63BU2LFOJL1G32T90GO","","868.3000000715256","img/flower4.png","74","871","1","0","2","1","1,0.333,0.333,0.333,1,0.333,0.333,0.333,1","1,0.333,0.333,0.333,1,0.333,0.333,0.333,1","1",""
"","html-keyboard-response","209","173428","0.0-209.0","3OONKJ5DKD5X1VC4YG3IZAHCS17OBK","A25HI5HXUJ0FHF","3WRBLBQ2GRU63BU2LFOJL1G32T90GO","","null","<img src=""img/flower4.png"" style=""width:200px;border:14px solid red;"">","null","","","","","","","","",""
"","image-keyboard-response","210","174228","0.0-210.0","3OONKJ5DKD5X1VC4YG3IZAHCS17OBK","A25HI5HXUJ0FHF","3WRBLBQ2GRU63BU2LFOJL1G32T90GO","","796.8999999761581","img/flower5.png","76","799.2999999523163","3","1","3","1","1,0.333,0.333,0.333,1,0.333,0.333,0.333,1","1,0.333,0.333,0.333,1,0.333,0.333,0.333,1","1",""
"","html-keyboard-response","211","174531","0.0-211.0","3OONKJ5DKD5X1VC4YG3IZAHCS17OBK","A25HI5HXUJ0FHF","3WRBLBQ2GRU63BU2LFOJL1G32T90GO","","null","<img src=""img/flower5.png"" style=""width:200px; border:14px solid green;"">","null","","","","","","","","",""
"","image-keyboard-response","212","175028","0.0-212.0","3OONKJ5DKD5X1VC4YG3IZAHCS17OBK","A25HI5HXUJ0FHF","3WRBLBQ2GRU63BU2LFOJL1G32T90GO","","494.1999999284744","img/flower1.png","76","496.60000002384186","3","0","1","1","1,0.333,0.333,0.333,1,0.333,0.333,0.333,1","1,0.333,0.333,0.333,1,0.333,0.333,0.333,1","1",""
"","html-keyboard-response","213","175332","0.0-213.0","3OONKJ5DKD5X1VC4YG3IZAHCS17OBK","A25HI5HXUJ0FHF","3WRBLBQ2GRU63BU2LFOJL1G32T90GO","","null","<img src=""img/flower1.png"" style=""width:200px;border:14px solid red;"">","null","","","","","","","","",""
"","image-keyboard-response","214","176020","0.0-214.0","3OONKJ5DKD5X1VC4YG3IZAHCS17OBK","A25HI5HXUJ0FHF","3WRBLBQ2GRU63BU2LFOJL1G32T90GO","","684.3999999761581","img/flower4.png","76","686.8999999761581","3","1","2","1","1,0.333,0.333,0.333,1,0.333,0.333,0.333,1","1,0.333,0.333,0.333,1,0.333,0.333,0.333,1","1",""
"","html-keyboard-response","215","176323","0.0-215.0","3OONKJ5DKD5X1VC4YG3IZAHCS17OBK","A25HI5HXUJ0FHF","3WRBLBQ2GRU63BU2LFOJL1G32T90GO","","null","<img src=""img/flower4.png"" style=""width:200px; border:14px solid green;"">","null","","","","","","","","",""
"","image-keyboard-response","216","176876","0.0-216.0","3OONKJ5DKD5X1VC4YG3IZAHCS17OBK","A25HI5HXUJ0FHF","3WRBLBQ2GRU63BU2LFOJL1G32T90GO","","549","img/flower4.png","76","551.7999999523163","3","0","2","1","1,0.333,0.333,0.333,1,0.333,0.333,0.333,1","1,0.333,0.333,0.333,1,0.333,0.333,0.333,1","1",""
"","html-keyboard-response","217","177179","0.0-217.0","3OONKJ5DKD5X1VC4YG3IZAHCS17OBK","A25HI5HXUJ0FHF","3WRBLBQ2GRU63BU2LFOJL1G32T90GO","","null","<img src=""img/flower4.png"" style=""width:200px;border:14px solid red;"">","null","","","","","","","","",""
"","image-keyboard-response","218","177908","0.0-218.0","3OONKJ5DKD5X1VC4YG3IZAHCS17OBK","A25HI5HXUJ0FHF","3WRBLBQ2GRU63BU2LFOJL1G32T90GO","","725.1999999284744","img/flower4.png","75","728","2","1","2","1","1,0.333,0.333,0.333,1,0.333,0.333,0.333,1","1,0.333,0.333,0.333,1,0.333,0.333,0.333,1","1",""
"","html-keyboard-response","219","178212","0.0-219.0","3OONKJ5DKD5X1VC4YG3IZAHCS17OBK","A25HI5HXUJ0FHF","3WRBLBQ2GRU63BU2LFOJL1G32T90GO","","null","<img src=""img/flower4.png"" style=""width:200px; border:14px solid green;"">","null","","","","","","","","",""
"","image-keyboard-response","220","179228","0.0-220.0","3OONKJ5DKD5X1VC4YG3IZAHCS17OBK","A25HI5HXUJ0FHF","3WRBLBQ2GRU63BU2LFOJL1G32T90GO","","1012.8999999761581","img/flower5.png","76","1015.2999999523163","3","1","3","1","1,0.333,0.333,0.333,1,0.333,0.333,0.333,1","1,0.333,0.333,0.333,1,0.333,0.333,0.333,1","1",""
"","html-keyboard-response","221","179531","0.0-221.0","3OONKJ5DKD5X1VC4YG3IZAHCS17OBK","A25HI5HXUJ0FHF","3WRBLBQ2GRU63BU2LFOJL1G32T90GO","","null","<img src=""img/flower5.png"" style=""width:200px; border:14px solid green;"">","null","","","","","","","","",""
"","image-keyboard-response","222","180268","0.0-222.0","3OONKJ5DKD5X1VC4YG3IZAHCS17OBK","A25HI5HXUJ0FHF","3WRBLBQ2GRU63BU2LFOJL1G32T90GO","","733.2999999523163","img/flower4.png","76","735.8999999761581","3","0","2","1","1,0.333,0.333,0.333,1,0.333,0.333,0.333,1","1,0.333,0.333,0.333,1,0.333,0.333,0.333,1","1",""
"","html-keyboard-response","223","180570","0.0-223.0","3OONKJ5DKD5X1VC4YG3IZAHCS17OBK","A25HI5HXUJ0FHF","3WRBLBQ2GRU63BU2LFOJL1G32T90GO","","null","<img src=""img/flower4.png"" style=""width:200px;border:14px solid red;"">","null","","","","","","","","",""
"","image-keyboard-response","224","181219","0.0-224.0","3OONKJ5DKD5X1VC4YG3IZAHCS17OBK","A25HI5HXUJ0FHF","3WRBLBQ2GRU63BU2LFOJL1G32T90GO","","645.4000000953674","img/flower4.png","74","648","1","0","2","1","1,0.333,0.333,0.333,1,0.333,0.333,0.333,1","1,0.333,0.333,0.333,1,0.333,0.333,0.333,1","1",""
"","html-keyboard-response","225","181522","0.0-225.0","3OONKJ5DKD5X1VC4YG3IZAHCS17OBK","A25HI5HXUJ0FHF","3WRBLBQ2GRU63BU2LFOJL1G32T90GO","","null","<img src=""img/flower4.png"" style=""width:200px;border:14px solid red;"">","null","","","","","","","","",""
"","image-keyboard-response","226","182356","0.0-226.0","3OONKJ5DKD5X1VC4YG3IZAHCS17OBK","A25HI5HXUJ0FHF","3WRBLBQ2GRU63BU2LFOJL1G32T90GO","","829.7000000476837","img/flower1.png","74","832.7000000476837","1","1","1","1","1,0.333,0.333,0.333,1,0.333,0.333,0.333,1","1,0.333,0.333,0.333,1,0.333,0.333,0.333,1","1",""
"","html-keyboard-response","227","182660","0.0-227.0","3OONKJ5DKD5X1VC4YG3IZAHCS17OBK","A25HI5HXUJ0FHF","3WRBLBQ2GRU63BU2LFOJL1G32T90GO","","null","<img src=""img/flower1.png"" style=""width:200px; border:14px solid green;"">","null","","","","","","","","",""
"","image-keyboard-response","228","183427","0.0-228.0","3OONKJ5DKD5X1VC4YG3IZAHCS17OBK","A25HI5HXUJ0FHF","3WRBLBQ2GRU63BU2LFOJL1G32T90GO","","764.6000000238419","img/flower1.png","74","767","1","1","1","1","1,0.333,0.333,0.333,1,0.333,0.333,0.333,1","1,0.333,0.333,0.333,1,0.333,0.333,0.333,1","1",""
"","html-keyboard-response","229","183731","0.0-229.0","3OONKJ5DKD5X1VC4YG3IZAHCS17OBK","A25HI5HXUJ0FHF","3WRBLBQ2GRU63BU2LFOJL1G32T90GO","","null","<img src=""img/flower1.png"" style=""width:200px; border:14px solid green;"">","null","","","","","","","","",""
"","image-keyboard-response","230","184451","0.0-230.0","3OONKJ5DKD5X1VC4YG3IZAHCS17OBK","A25HI5HXUJ0FHF","3WRBLBQ2GRU63BU2LFOJL1G32T90GO","","716.6000000238419","img/flower1.png","74","719.2000000476837","1","1","1","1","1,0.333,0.333,0.333,1,0.333,0.333,0.333,1","1,0.333,0.333,0.333,1,0.333,0.333,0.333,1","1",""
"","html-keyboard-response","231","184755","0.0-231.0","3OONKJ5DKD5X1VC4YG3IZAHCS17OBK","A25HI5HXUJ0FHF","3WRBLBQ2GRU63BU2LFOJL1G32T90GO","","null","<img src=""img/flower1.png"" style=""width:200px; border:14px solid green;"">","null","","","","","","","","",""
"","image-keyboard-response","232","185572","0.0-232.0","3OONKJ5DKD5X1VC4YG3IZAHCS17OBK","A25HI5HXUJ0FHF","3WRBLBQ2GRU63BU2LFOJL1G32T90GO","","813","img/flower5.png","75","816","2","1","3","1","1,0.333,0.333,0.333,1,0.333,0.333,0.333,1","1,0.333,0.333,0.333,1,0.333,0.333,0.333,1","1",""
"","html-keyboard-response","233","185876","0.0-233.0","3OONKJ5DKD5X1VC4YG3IZAHCS17OBK","A25HI5HXUJ0FHF","3WRBLBQ2GRU63BU2LFOJL1G32T90GO","","null","<img src=""img/flower5.png"" style=""width:200px; border:14px solid green;"">","null","","","","","","","","",""
"","image-keyboard-response","234","186531","0.0-234.0","3OONKJ5DKD5X1VC4YG3IZAHCS17OBK","A25HI5HXUJ0FHF","3WRBLBQ2GRU63BU2LFOJL1G32T90GO","","652.3000000715256","img/flower1.png","74","654.8000000715256","1","1","1","1","1,0.333,0.333,0.333,1,0.333,0.333,0.333,1","1,0.333,0.333,0.333,1,0.333,0.333,0.333,1","1",""
"","html-keyboard-response","235","186834","0.0-235.0","3OONKJ5DKD5X1VC4YG3IZAHCS17OBK","A25HI5HXUJ0FHF","3WRBLBQ2GRU63BU2LFOJL1G32T90GO","","null","<img src=""img/flower1.png"" style=""width:200px; border:14px solid green;"">","null","","","","","","","","",""
"","image-keyboard-response","236","187579","0.0-236.0","3OONKJ5DKD5X1VC4YG3IZAHCS17OBK","A25HI5HXUJ0FHF","3WRBLBQ2GRU63BU2LFOJL1G32T90GO","","741.6000000238419","img/flower5.png","75","744.3000000715256","2","0","3","1","1,0.333,0.333,0.333,1,0.333,0.333,0.333,1","1,0.333,0.333,0.333,1,0.333,0.333,0.333,1","1",""
"","html-keyboard-response","237","187883","0.0-237.0","3OONKJ5DKD5X1VC4YG3IZAHCS17OBK","A25HI5HXUJ0FHF","3WRBLBQ2GRU63BU2LFOJL1G32T90GO","","null","<img src=""img/flower5.png"" style=""width:200px;border:14px solid red;"">","null","","","","","","","","",""
"","image-keyboard-response","238","188531","0.0-238.0","3OONKJ5DKD5X1VC4YG3IZAHCS17OBK","A25HI5HXUJ0FHF","3WRBLBQ2GRU63BU2LFOJL1G32T90GO","","644.8000000715256","img/flower1.png","74","647.6000000238419","1","1","1","1","1,0.333,0.333,0.333,1,0.333,0.333,0.333,1","1,0.333,0.333,0.333,1,0.333,0.333,0.333,1","1",""
"","html-keyboard-response","239","188836","0.0-239.0","3OONKJ5DKD5X1VC4YG3IZAHCS17OBK","A25HI5HXUJ0FHF","3WRBLBQ2GRU63BU2LFOJL1G32T90GO","","null","<img src=""img/flower1.png"" style=""width:200px; border:14px solid green;"">","null","","","","","","","","",""
"","image-keyboard-response","240","189604","0.0-240.0","3OONKJ5DKD5X1VC4YG3IZAHCS17OBK","A25HI5HXUJ0FHF","3WRBLBQ2GRU63BU2LFOJL1G32T90GO","","764.5","img/flower5.png","76","767","3","1","3","1","1,0.333,0.333,0.333,1,0.333,0.333,0.333,1","1,0.333,0.333,0.333,1,0.333,0.333,0.333,1","1",""
"","html-keyboard-response","241","189907","0.0-241.0","3OONKJ5DKD5X1VC4YG3IZAHCS17OBK","A25HI5HXUJ0FHF","3WRBLBQ2GRU63BU2LFOJL1G32T90GO","","null","<img src=""img/flower5.png"" style=""width:200px; border:14px solid green;"">","null","","","","","","","","",""
"","image-keyboard-response","242","190712","0.0-242.0","3OONKJ5DKD5X1VC4YG3IZAHCS17OBK","A25HI5HXUJ0FHF","3WRBLBQ2GRU63BU2LFOJL1G32T90GO","","802.6999999284744","img/flower5.png","76","804.5","3","1","3","1","1,0.333,0.333,0.333,1,0.333,0.333,0.333,1","1,0.333,0.333,0.333,1,0.333,0.333,0.333,1","1",""
"","html-keyboard-response","243","191014","0.0-243.0","3OONKJ5DKD5X1VC4YG3IZAHCS17OBK","A25HI5HXUJ0FHF","3WRBLBQ2GRU63BU2LFOJL1G32T90GO","","null","<img src=""img/flower5.png"" style=""width:200px; border:14px solid green;"">","null","","","","","","","","",""
"","image-keyboard-response","244","191536","0.0-244.0","3OONKJ5DKD5X1VC4YG3IZAHCS17OBK","A25HI5HXUJ0FHF","3WRBLBQ2GRU63BU2LFOJL1G32T90GO","","521.2999999523163","img/flower4.png","74","522.1000000238419","1","0","2","1","1,0.333,0.333,0.333,1,0.333,0.333,0.333,1","1,0.333,0.333,0.333,1,0.333,0.333,0.333,1","1",""
"","html-keyboard-response","245","191839","0.0-245.0","3OONKJ5DKD5X1VC4YG3IZAHCS17OBK","A25HI5HXUJ0FHF","3WRBLBQ2GRU63BU2LFOJL1G32T90GO","","null","<img src=""img/flower4.png"" style=""width:200px;border:14px solid red;"">","null","","","","","","","","",""
"","image-keyboard-response","246","192649","0.0-246.0","3OONKJ5DKD5X1VC4YG3IZAHCS17OBK","A25HI5HXUJ0FHF","3WRBLBQ2GRU63BU2LFOJL1G32T90GO","","808.3999999761581","img/flower1.png","75","809.1000000238419","2","0","1","1","1,0.333,0.333,0.333,1,0.333,0.333,0.333,1","1,0.333,0.333,0.333,1,0.333,0.333,0.333,1","1",""
"","html-keyboard-response","247","192951","0.0-247.0","3OONKJ5DKD5X1VC4YG3IZAHCS17OBK","A25HI5HXUJ0FHF","3WRBLBQ2GRU63BU2LFOJL1G32T90GO","","null","<img src=""img/flower1.png"" style=""width:200px;border:14px solid red;"">","null","","","","","","","","",""
"","image-keyboard-response","248","193403","0.0-248.0","3OONKJ5DKD5X1VC4YG3IZAHCS17OBK","A25HI5HXUJ0FHF","3WRBLBQ2GRU63BU2LFOJL1G32T90GO","","450.5","img/flower5.png","76","451.6999999284744","3","1","3","1","1,0.333,0.333,0.333,1,0.333,0.333,0.333,1","1,0.333,0.333,0.333,1,0.333,0.333,0.333,1","1",""
"","html-keyboard-response","249","193705","0.0-249.0","3OONKJ5DKD5X1VC4YG3IZAHCS17OBK","A25HI5HXUJ0FHF","3WRBLBQ2GRU63BU2LFOJL1G32T90GO","","null","<img src=""img/flower5.png"" style=""width:200px; border:14px solid green;"">","null","","","","","","","","",""
"","image-keyboard-response","250","194203","0.0-250.0","3OONKJ5DKD5X1VC4YG3IZAHCS17OBK","A25HI5HXUJ0FHF","3WRBLBQ2GRU63BU2LFOJL1G32T90GO","","494.40000009536743","img/flower5.png","76","496.5","3","1","3","1","1,0.333,0.333,0.333,1,0.333,0.333,0.333,1","1,0.333,0.333,0.333,1,0.333,0.333,0.333,1","1",""
"","html-keyboard-response","251","194506","0.0-251.0","3OONKJ5DKD5X1VC4YG3IZAHCS17OBK","A25HI5HXUJ0FHF","3WRBLBQ2GRU63BU2LFOJL1G32T90GO","","null","<img src=""img/flower5.png"" style=""width:200px; border:14px solid green;"">","null","","","","","","","","",""
"","image-keyboard-response","252","195083","0.0-252.0","3OONKJ5DKD5X1VC4YG3IZAHCS17OBK","A25HI5HXUJ0FHF","3WRBLBQ2GRU63BU2LFOJL1G32T90GO","","574.1999999284744","img/flower1.png","76","576.7999999523163","3","0","1","1","1,0.333,0.333,0.333,1,0.333,0.333,0.333,1","1,0.333,0.333,0.333,1,0.333,0.333,0.333,1","1",""
"","html-keyboard-response","253","195386","0.0-253.0","3OONKJ5DKD5X1VC4YG3IZAHCS17OBK","A25HI5HXUJ0FHF","3WRBLBQ2GRU63BU2LFOJL1G32T90GO","","null","<img src=""img/flower1.png"" style=""width:200px;border:14px solid red;"">","null","","","","","","","","",""
"","image-keyboard-response","254","195777","0.0-254.0","3OONKJ5DKD5X1VC4YG3IZAHCS17OBK","A25HI5HXUJ0FHF","3WRBLBQ2GRU63BU2LFOJL1G32T90GO","","387.7000000476837","img/flower4.png","76","390","3","0","2","1","1,0.333,0.333,0.333,1,0.333,0.333,0.333,1","1,0.333,0.333,0.333,1,0.333,0.333,0.333,1","1",""
"","html-keyboard-response","255","196078","0.0-255.0","3OONKJ5DKD5X1VC4YG3IZAHCS17OBK","A25HI5HXUJ0FHF","3WRBLBQ2GRU63BU2LFOJL1G32T90GO","","null","<img src=""img/flower4.png"" style=""width:200px;border:14px solid red;"">","null","","","","","","","","",""
"","image-keyboard-response","256","196603","0.0-256.0","3OONKJ5DKD5X1VC4YG3IZAHCS17OBK","A25HI5HXUJ0FHF","3WRBLBQ2GRU63BU2LFOJL1G32T90GO","","521.8999999761581","img/flower1.png","75","524.4000000953674","2","0","1","1","1,0.333,0.333,0.333,1,0.333,0.333,0.333,1","1,0.333,0.333,0.333,1,0.333,0.333,0.333,1","1",""
"","html-keyboard-response","257","196907","0.0-257.0","3OONKJ5DKD5X1VC4YG3IZAHCS17OBK","A25HI5HXUJ0FHF","3WRBLBQ2GRU63BU2LFOJL1G32T90GO","","null","<img src=""img/flower1.png"" style=""width:200px;border:14px solid red;"">","null","","","","","","","","",""
"","image-keyboard-response","258","197316","0.0-258.0","3OONKJ5DKD5X1VC4YG3IZAHCS17OBK","A25HI5HXUJ0FHF","3WRBLBQ2GRU63BU2LFOJL1G32T90GO","","406.89999997615814","img/flower4.png","74","408.5","1","1","2","1","1,0.333,0.333,0.333,1,0.333,0.333,0.333,1","1,0.333,0.333,0.333,1,0.333,0.333,0.333,1","1",""
"","html-keyboard-response","259","197618","0.0-259.0","3OONKJ5DKD5X1VC4YG3IZAHCS17OBK","A25HI5HXUJ0FHF","3WRBLBQ2GRU63BU2LFOJL1G32T90GO","","null","<img src=""img/flower4.png"" style=""width:200px; border:14px solid green;"">","null","","","","","","","","",""
"","image-keyboard-response","260","198052","0.0-260.0","3OONKJ5DKD5X1VC4YG3IZAHCS17OBK","A25HI5HXUJ0FHF","3WRBLBQ2GRU63BU2LFOJL1G32T90GO","","429.6999999284744","img/flower5.png","74","432.5","1","0","3","1","1,0.333,0.333,0.333,1,0.333,0.333,0.333,1","1,0.333,0.333,0.333,1,0.333,0.333,0.333,1","1",""
"","html-keyboard-response","261","198355","0.0-261.0","3OONKJ5DKD5X1VC4YG3IZAHCS17OBK","A25HI5HXUJ0FHF","3WRBLBQ2GRU63BU2LFOJL1G32T90GO","","null","<img src=""img/flower5.png"" style=""width:200px;border:14px solid red;"">","null","","","","","","","","",""
"","image-keyboard-response","262","198963","0.0-262.0","3OONKJ5DKD5X1VC4YG3IZAHCS17OBK","A25HI5HXUJ0FHF","3WRBLBQ2GRU63BU2LFOJL1G32T90GO","","604.1999999284744","img/flower4.png","74","606.9000000953674","1","1","2","1","1,0.333,0.333,0.333,1,0.333,0.333,0.333,1","1,0.333,0.333,0.333,1,0.333,0.333,0.333,1","1",""
"","html-keyboard-response","263","199266","0.0-263.0","3OONKJ5DKD5X1VC4YG3IZAHCS17OBK","A25HI5HXUJ0FHF","3WRBLBQ2GRU63BU2LFOJL1G32T90GO","","null","<img src=""img/flower4.png"" style=""width:200px; border:14px solid green;"">","null","","","","","","","","",""
"","image-keyboard-response","264","199731","0.0-264.0","3OONKJ5DKD5X1VC4YG3IZAHCS17OBK","A25HI5HXUJ0FHF","3WRBLBQ2GRU63BU2LFOJL1G32T90GO","","461.90000009536743","img/flower5.png","74","464.3000000715256","1","0","3","1","1,0.333,0.333,0.333,1,0.333,0.333,0.333,1","1,0.333,0.333,0.333,1,0.333,0.333,0.333,1","1",""
"","html-keyboard-response","265","200035","0.0-265.0","3OONKJ5DKD5X1VC4YG3IZAHCS17OBK","A25HI5HXUJ0FHF","3WRBLBQ2GRU63BU2LFOJL1G32T90GO","","null","<img src=""img/flower5.png"" style=""width:200px;border:14px solid red;"">","null","","","","","","","","",""
"","image-keyboard-response","266","200531","0.0-266.0","3OONKJ5DKD5X1VC4YG3IZAHCS17OBK","A25HI5HXUJ0FHF","3WRBLBQ2GRU63BU2LFOJL1G32T90GO","","495","img/flower5.png","75","496.60000002384186","2","0","3","1","1,0.333,0.333,0.333,1,0.333,0.333,0.333,1","1,0.333,0.333,0.333,1,0.333,0.333,0.333,1","1",""
"","html-keyboard-response","267","200835","0.0-267.0","3OONKJ5DKD5X1VC4YG3IZAHCS17OBK","A25HI5HXUJ0FHF","3WRBLBQ2GRU63BU2LFOJL1G32T90GO","","null","<img src=""img/flower5.png"" style=""width:200px;border:14px solid red;"">","null","","","","","","","","",""
"","image-keyboard-response","268","201211","0.0-268.0","3OONKJ5DKD5X1VC4YG3IZAHCS17OBK","A25HI5HXUJ0FHF","3WRBLBQ2GRU63BU2LFOJL1G32T90GO","","373.09999990463257","img/flower5.png","76","375.5","3","1","3","1","1,0.333,0.333,0.333,1,0.333,0.333,0.333,1","1,0.333,0.333,0.333,1,0.333,0.333,0.333,1","1",""
"","html-keyboard-response","269","201516","0.0-269.0","3OONKJ5DKD5X1VC4YG3IZAHCS17OBK","A25HI5HXUJ0FHF","3WRBLBQ2GRU63BU2LFOJL1G32T90GO","","null","<img src=""img/flower5.png"" style=""width:200px; border:14px solid green;"">","null","","","","","","","","",""
"","image-keyboard-response","270","202019","0.0-270.0","3OONKJ5DKD5X1VC4YG3IZAHCS17OBK","A25HI5HXUJ0FHF","3WRBLBQ2GRU63BU2LFOJL1G32T90GO","","500.3000000715256","img/flower1.png","76","502.7000000476837","3","0","1","1","1,0.333,0.333,0.333,1,0.333,0.333,0.333,1","1,0.333,0.333,0.333,1,0.333,0.333,0.333,1","1",""
"","html-keyboard-response","271","202324","0.0-271.0","3OONKJ5DKD5X1VC4YG3IZAHCS17OBK","A25HI5HXUJ0FHF","3WRBLBQ2GRU63BU2LFOJL1G32T90GO","","null","<img src=""img/flower1.png"" style=""width:200px;border:14px solid red;"">","null","","","","","","","","",""
"","image-keyboard-response","272","202811","0.0-272.0","3OONKJ5DKD5X1VC4YG3IZAHCS17OBK","A25HI5HXUJ0FHF","3WRBLBQ2GRU63BU2LFOJL1G32T90GO","","484.10000002384186","img/flower1.png","76","486.7000000476837","3","1","1","1","1,0.333,0.333,0.333,1,0.333,0.333,0.333,1","1,0.333,0.333,0.333,1,0.333,0.333,0.333,1","1",""
"","html-keyboard-response","273","203117","0.0-273.0","3OONKJ5DKD5X1VC4YG3IZAHCS17OBK","A25HI5HXUJ0FHF","3WRBLBQ2GRU63BU2LFOJL1G32T90GO","","null","<img src=""img/flower1.png"" style=""width:200px; border:14px solid green;"">","null","","","","","","","","",""
"","image-keyboard-response","274","203564","0.0-274.0","3OONKJ5DKD5X1VC4YG3IZAHCS17OBK","A25HI5HXUJ0FHF","3WRBLBQ2GRU63BU2LFOJL1G32T90GO","","442.7999999523163","img/flower4.png","76","445.5","3","1","2","1","1,0.333,0.333,0.333,1,0.333,0.333,0.333,1","1,0.333,0.333,0.333,1,0.333,0.333,0.333,1","1",""
"","html-keyboard-response","275","203872","0.0-275.0","3OONKJ5DKD5X1VC4YG3IZAHCS17OBK","A25HI5HXUJ0FHF","3WRBLBQ2GRU63BU2LFOJL1G32T90GO","","null","<img src=""img/flower4.png"" style=""width:200px; border:14px solid green;"">","null","","","","","","","","",""
"","image-keyboard-response","276","204307","0.0-276.0","3OONKJ5DKD5X1VC4YG3IZAHCS17OBK","A25HI5HXUJ0FHF","3WRBLBQ2GRU63BU2LFOJL1G32T90GO","","431.89999997615814","img/flower5.png","76","435.10000002384186","3","1","3","1","1,0.333,0.333,0.333,1,0.333,0.333,0.333,1","1,0.333,0.333,0.333,1,0.333,0.333,0.333,1","1",""
"","html-keyboard-response","277","204612","0.0-277.0","3OONKJ5DKD5X1VC4YG3IZAHCS17OBK","A25HI5HXUJ0FHF","3WRBLBQ2GRU63BU2LFOJL1G32T90GO","","null","<img src=""img/flower5.png"" style=""width:200px; border:14px solid green;"">","null","","","","","","","","",""
"","image-keyboard-response","278","204979","0.0-278.0","3OONKJ5DKD5X1VC4YG3IZAHCS17OBK","A25HI5HXUJ0FHF","3WRBLBQ2GRU63BU2LFOJL1G32T90GO","","364.40000009536743","img/flower1.png","76","366.90000009536743","3","0","1","1","1,0.333,0.333,0.333,1,0.333,0.333,0.333,1","1,0.333,0.333,0.333,1,0.333,0.333,0.333,1","1",""
"","html-keyboard-response","279","205283","0.0-279.0","3OONKJ5DKD5X1VC4YG3IZAHCS17OBK","A25HI5HXUJ0FHF","3WRBLBQ2GRU63BU2LFOJL1G32T90GO","","null","<img src=""img/flower1.png"" style=""width:200px;border:14px solid red;"">","null","","","","","","","","",""
"","image-keyboard-response","280","206036","0.0-280.0","3OONKJ5DKD5X1VC4YG3IZAHCS17OBK","A25HI5HXUJ0FHF","3WRBLBQ2GRU63BU2LFOJL1G32T90GO","","749.5","img/flower5.png","74","752.3000000715256","1","1","3","1","1,0.333,0.333,0.333,1,0.333,0.333,0.333,1","1,0.333,0.333,0.333,1,0.333,0.333,0.333,1","1",""
"","html-keyboard-response","281","206339","0.0-281.0","3OONKJ5DKD5X1VC4YG3IZAHCS17OBK","A25HI5HXUJ0FHF","3WRBLBQ2GRU63BU2LFOJL1G32T90GO","","null","<img src=""img/flower5.png"" style=""width:200px; border:14px solid green;"">","null","","","","","","","","",""
"","image-keyboard-response","282","207011","0.0-282.0","3OONKJ5DKD5X1VC4YG3IZAHCS17OBK","A25HI5HXUJ0FHF","3WRBLBQ2GRU63BU2LFOJL1G32T90GO","","669.4000000953674","img/flower1.png","75","671.6000000238419","2","0","1","1","1,0.333,0.333,0.333,1,0.333,0.333,0.333,1","1,0.333,0.333,0.333,1,0.333,0.333,0.333,1","1",""
"","html-keyboard-response","283","207315","0.0-283.0","3OONKJ5DKD5X1VC4YG3IZAHCS17OBK","A25HI5HXUJ0FHF","3WRBLBQ2GRU63BU2LFOJL1G32T90GO","","null","<img src=""img/flower1.png"" style=""width:200px;border:14px solid red;"">","null","","","","","","","","",""
"","image-keyboard-response","284","207731","0.0-284.0","3OONKJ5DKD5X1VC4YG3IZAHCS17OBK","A25HI5HXUJ0FHF","3WRBLBQ2GRU63BU2LFOJL1G32T90GO","","413.2000000476837","img/flower1.png","76","415.7000000476837","3","1","1","1","1,0.333,0.333,0.333,1,0.333,0.333,0.333,1","1,0.333,0.333,0.333,1,0.333,0.333,0.333,1","1",""
"","html-keyboard-response","285","208035","0.0-285.0","3OONKJ5DKD5X1VC4YG3IZAHCS17OBK","A25HI5HXUJ0FHF","3WRBLBQ2GRU63BU2LFOJL1G32T90GO","","null","<img src=""img/flower1.png"" style=""width:200px; border:14px solid green;"">","null","","","","","","","","",""
"","image-keyboard-response","286","208595","0.0-286.0","3OONKJ5DKD5X1VC4YG3IZAHCS17OBK","A25HI5HXUJ0FHF","3WRBLBQ2GRU63BU2LFOJL1G32T90GO","","556.8000000715256","img/flower4.png","74","559.1000000238419","1","1","2","1","1,0.333,0.333,0.333,1,0.333,0.333,0.333,1","1,0.333,0.333,0.333,1,0.333,0.333,0.333,1","1",""
"","html-keyboard-response","287","208899","0.0-287.0","3OONKJ5DKD5X1VC4YG3IZAHCS17OBK","A25HI5HXUJ0FHF","3WRBLBQ2GRU63BU2LFOJL1G32T90GO","","null","<img src=""img/flower4.png"" style=""width:200px; border:14px solid green;"">","null","","","","","","","","",""
"","image-keyboard-response","288","209516","0.0-288.0","3OONKJ5DKD5X1VC4YG3IZAHCS17OBK","A25HI5HXUJ0FHF","3WRBLBQ2GRU63BU2LFOJL1G32T90GO","","613.8999999761581","img/flower5.png","74","616.2999999523163","1","0","3","1","1,0.333,0.333,0.333,1,0.333,0.333,0.333,1","1,0.333,0.333,0.333,1,0.333,0.333,0.333,1","1",""
"","html-keyboard-response","289","209818","0.0-289.0","3OONKJ5DKD5X1VC4YG3IZAHCS17OBK","A25HI5HXUJ0FHF","3WRBLBQ2GRU63BU2LFOJL1G32T90GO","","null","<img src=""img/flower5.png"" style=""width:200px;border:14px solid red;"">","null","","","","","","","","",""
"","image-keyboard-response","290","210236","0.0-290.0","3OONKJ5DKD5X1VC4YG3IZAHCS17OBK","A25HI5HXUJ0FHF","3WRBLBQ2GRU63BU2LFOJL1G32T90GO","","413.89999997615814","img/flower5.png","76","416.7000000476837","3","1","3","1","1,0.333,0.333,0.333,1,0.333,0.333,0.333,1","1,0.333,0.333,0.333,1,0.333,0.333,0.333,1","1",""
"","html-keyboard-response","291","210538","0.0-291.0","3OONKJ5DKD5X1VC4YG3IZAHCS17OBK","A25HI5HXUJ0FHF","3WRBLBQ2GRU63BU2LFOJL1G32T90GO","","null","<img src=""img/flower5.png"" style=""width:200px; border:14px solid green;"">","null","","","","","","","","",""
"","image-keyboard-response","292","211124","0.0-292.0","3OONKJ5DKD5X1VC4YG3IZAHCS17OBK","A25HI5HXUJ0FHF","3WRBLBQ2GRU63BU2LFOJL1G32T90GO","","581.3999999761581","img/flower4.png","74","584.9000000953674","1","0","2","1","1,0.333,0.333,0.333,1,0.333,0.333,0.333,1","1,0.333,0.333,0.333,1,0.333,0.333,0.333,1","1",""
"","html-keyboard-response","293","211427","0.0-293.0","3OONKJ5DKD5X1VC4YG3IZAHCS17OBK","A25HI5HXUJ0FHF","3WRBLBQ2GRU63BU2LFOJL1G32T90GO","","null","<img src=""img/flower4.png"" style=""width:200px;border:14px solid red;"">","null","","","","","","","","",""
"","image-keyboard-response","294","211676","0.0-294.0","3OONKJ5DKD5X1VC4YG3IZAHCS17OBK","A25HI5HXUJ0FHF","3WRBLBQ2GRU63BU2LFOJL1G32T90GO","","245.60000002384186","img/flower1.png","76","248.10000002384186","3","0","1","1","1,0.333,0.333,0.333,1,0.333,0.333,0.333,1","1,0.333,0.333,0.333,1,0.333,0.333,0.333,1","1",""
"","html-keyboard-response","295","211984","0.0-295.0","3OONKJ5DKD5X1VC4YG3IZAHCS17OBK","A25HI5HXUJ0FHF","3WRBLBQ2GRU63BU2LFOJL1G32T90GO","","null","<img src=""img/flower1.png"" style=""width:200px;border:14px solid red;"">","null","","","","","","","","",""
"","image-keyboard-response","296","212452","0.0-296.0","3OONKJ5DKD5X1VC4YG3IZAHCS17OBK","A25HI5HXUJ0FHF","3WRBLBQ2GRU63BU2LFOJL1G32T90GO","","463.7000000476837","img/flower4.png","76","466.2999999523163","3","0","2","1","1,0.333,0.333,0.333,1,0.333,0.333,0.333,1","1,0.333,0.333,0.333,1,0.333,0.333,0.333,1","1",""
"","html-keyboard-response","297","212756","0.0-297.0","3OONKJ5DKD5X1VC4YG3IZAHCS17OBK","A25HI5HXUJ0FHF","3WRBLBQ2GRU63BU2LFOJL1G32T90GO","","null","<img src=""img/flower4.png"" style=""width:200px;border:14px solid red;"">","null","","","","","","","","",""
"","image-keyboard-response","298","213211","0.0-298.0","3OONKJ5DKD5X1VC4YG3IZAHCS17OBK","A25HI5HXUJ0FHF","3WRBLBQ2GRU63BU2LFOJL1G32T90GO","","451.2999999523163","img/flower4.png","75","454.60000002384186","2","1","2","1","1,0.333,0.333,0.333,1,0.333,0.333,0.333,1","1,0.333,0.333,0.333,1,0.333,0.333,0.333,1","1",""
"","html-keyboard-response","299","213516","0.0-299.0","3OONKJ5DKD5X1VC4YG3IZAHCS17OBK","A25HI5HXUJ0FHF","3WRBLBQ2GRU63BU2LFOJL1G32T90GO","","null","<img src=""img/flower4.png"" style=""width:200px; border:14px solid green;"">","null","","","","","","","","",""
"","image-keyboard-response","300","213931","0.0-300.0","3OONKJ5DKD5X1VC4YG3IZAHCS17OBK","A25HI5HXUJ0FHF","3WRBLBQ2GRU63BU2LFOJL1G32T90GO","","412.2999999523163","img/flower4.png","75","414.7000000476837","2","1","2","1","1,0.333,0.333,0.333,1,0.333,0.333,0.333,1","1,0.333,0.333,0.333,1,0.333,0.333,0.333,1","1",""
"","html-keyboard-response","301","214236","0.0-301.0","3OONKJ5DKD5X1VC4YG3IZAHCS17OBK","A25HI5HXUJ0FHF","3WRBLBQ2GRU63BU2LFOJL1G32T90GO","","null","<img src=""img/flower4.png"" style=""width:200px; border:14px solid green;"">","null","","","","","","","","",""
"","image-keyboard-response","302","214819","0.0-302.0","3OONKJ5DKD5X1VC4YG3IZAHCS17OBK","A25HI5HXUJ0FHF","3WRBLBQ2GRU63BU2LFOJL1G32T90GO","","580.1000000238419","img/flower1.png","76","582.5","3","1","1","1","1,0.333,0.333,0.333,1,0.333,0.333,0.333,1","1,0.333,0.333,0.333,1,0.333,0.333,0.333,1","1",""
"","html-keyboard-response","303","215123","0.0-303.0","3OONKJ5DKD5X1VC4YG3IZAHCS17OBK","A25HI5HXUJ0FHF","3WRBLBQ2GRU63BU2LFOJL1G32T90GO","","null","<img src=""img/flower1.png"" style=""width:200px; border:14px solid green;"">","null","","","","","","","","",""
"","image-keyboard-response","304","215557","0.0-304.0","3OONKJ5DKD5X1VC4YG3IZAHCS17OBK","A25HI5HXUJ0FHF","3WRBLBQ2GRU63BU2LFOJL1G32T90GO","","430.40000009536743","img/flower1.png","76","433.2999999523163","3","1","1","1","1,0.333,0.333,0.333,1,0.333,0.333,0.333,1","1,0.333,0.333,0.333,1,0.333,0.333,0.333,1","1",""
"","html-keyboard-response","305","215862","0.0-305.0","3OONKJ5DKD5X1VC4YG3IZAHCS17OBK","A25HI5HXUJ0FHF","3WRBLBQ2GRU63BU2LFOJL1G32T90GO","","null","<img src=""img/flower1.png"" style=""width:200px; border:14px solid green;"">","null","","","","","","","","",""
"","image-keyboard-response","306","216212","0.0-306.0","3OONKJ5DKD5X1VC4YG3IZAHCS17OBK","A25HI5HXUJ0FHF","3WRBLBQ2GRU63BU2LFOJL1G32T90GO","","346.7999999523163","img/flower1.png","76","349.39999997615814","3","0","1","1","1,0.333,0.333,0.333,1,0.333,0.333,0.333,1","1,0.333,0.333,0.333,1,0.333,0.333,0.333,1","1",""
"","html-keyboard-response","307","216516","0.0-307.0","3OONKJ5DKD5X1VC4YG3IZAHCS17OBK","A25HI5HXUJ0FHF","3WRBLBQ2GRU63BU2LFOJL1G32T90GO","","null","<img src=""img/flower1.png"" style=""width:200px;border:14px solid red;"">","null","","","","","","","","",""
"","image-keyboard-response","308","217139","0.0-308.0","3OONKJ5DKD5X1VC4YG3IZAHCS17OBK","A25HI5HXUJ0FHF","3WRBLBQ2GRU63BU2LFOJL1G32T90GO","","620.1000000238419","img/flower1.png","76","622.5","3","0","1","1","1,0.333,0.333,0.333,1,0.333,0.333,0.333,1","1,0.333,0.333,0.333,1,0.333,0.333,0.333,1","1",""
"","html-keyboard-response","309","217443","0.0-309.0","3OONKJ5DKD5X1VC4YG3IZAHCS17OBK","A25HI5HXUJ0FHF","3WRBLBQ2GRU63BU2LFOJL1G32T90GO","","null","<img src=""img/flower1.png"" style=""width:200px;border:14px solid red;"">","null","","","","","","","","",""
"","image-keyboard-response","310","218019","0.0-310.0","3OONKJ5DKD5X1VC4YG3IZAHCS17OBK","A25HI5HXUJ0FHF","3WRBLBQ2GRU63BU2LFOJL1G32T90GO","","572.8999999761581","img/flower4.png","74","575.6000000238419","1","1","2","1","1,0.333,0.333,0.333,1,0.333,0.333,0.333,1","1,0.333,0.333,0.333,1,0.333,0.333,0.333,1","1",""
"","html-keyboard-response","311","218323","0.0-311.0","3OONKJ5DKD5X1VC4YG3IZAHCS17OBK","A25HI5HXUJ0FHF","3WRBLBQ2GRU63BU2LFOJL1G32T90GO","","null","<img src=""img/flower4.png"" style=""width:200px; border:14px solid green;"">","null","","","","","","","","",""
"","image-keyboard-response","312","218771","0.0-312.0","3OONKJ5DKD5X1VC4YG3IZAHCS17OBK","A25HI5HXUJ0FHF","3WRBLBQ2GRU63BU2LFOJL1G32T90GO","","444.90000009536743","img/flower1.png","74","447.59999990463257","1","1","1","1","1,0.333,0.333,0.333,1,0.333,0.333,0.333,1","1,0.333,0.333,0.333,1,0.333,0.333,0.333,1","1",""
"","html-keyboard-response","313","219076","0.0-313.0","3OONKJ5DKD5X1VC4YG3IZAHCS17OBK","A25HI5HXUJ0FHF","3WRBLBQ2GRU63BU2LFOJL1G32T90GO","","null","<img src=""img/flower1.png"" style=""width:200px; border:14px solid green;"">","null","","","","","","","","",""
"","image-keyboard-response","314","219571","0.0-314.0","3OONKJ5DKD5X1VC4YG3IZAHCS17OBK","A25HI5HXUJ0FHF","3WRBLBQ2GRU63BU2LFOJL1G32T90GO","","492.60000002384186","img/flower5.png","75","495","2","0","3","1","1,0.333,0.333,0.333,1,0.333,0.333,0.333,1","1,0.333,0.333,0.333,1,0.333,0.333,0.333,1","1",""
"","html-keyboard-response","315","219876","0.0-315.0","3OONKJ5DKD5X1VC4YG3IZAHCS17OBK","A25HI5HXUJ0FHF","3WRBLBQ2GRU63BU2LFOJL1G32T90GO","","null","<img src=""img/flower5.png"" style=""width:200px;border:14px solid red;"">","null","","","","","","","","",""
"","image-keyboard-response","316","220292","0.0-316.0","3OONKJ5DKD5X1VC4YG3IZAHCS17OBK","A25HI5HXUJ0FHF","3WRBLBQ2GRU63BU2LFOJL1G32T90GO","","413.09999990463257","img/flower5.png","74","415.59999990463257","1","1","3","1","1,0.333,0.333,0.333,1,0.333,0.333,0.333,1","1,0.333,0.333,0.333,1,0.333,0.333,0.333,1","1",""
"","html-keyboard-response","317","220595","0.0-317.0","3OONKJ5DKD5X1VC4YG3IZAHCS17OBK","A25HI5HXUJ0FHF","3WRBLBQ2GRU63BU2LFOJL1G32T90GO","","null","<img src=""img/flower5.png"" style=""width:200px; border:14px solid green;"">","null","","","","","","","","",""
"","image-keyboard-response","318","221068","0.0-318.0","3OONKJ5DKD5X1VC4YG3IZAHCS17OBK","A25HI5HXUJ0FHF","3WRBLBQ2GRU63BU2LFOJL1G32T90GO","","470.10000002384186","img/flower5.png","74","472.5","1","1","3","1","1,0.333,0.333,0.333,1,0.333,0.333,0.333,1","1,0.333,0.333,0.333,1,0.333,0.333,0.333,1","1",""
"","html-keyboard-response","319","221371","0.0-319.0","3OONKJ5DKD5X1VC4YG3IZAHCS17OBK","A25HI5HXUJ0FHF","3WRBLBQ2GRU63BU2LFOJL1G32T90GO","","null","<img src=""img/flower5.png"" style=""width:200px; border:14px solid green;"">","null","","","","","","","","",""
"","image-keyboard-response","320","221779","0.0-320.0","3OONKJ5DKD5X1VC4YG3IZAHCS17OBK","A25HI5HXUJ0FHF","3WRBLBQ2GRU63BU2LFOJL1G32T90GO","","404.89999997615814","img/flower5.png","74","408","1","0","3","1","1,0.333,0.333,0.333,1,0.333,0.333,0.333,1","1,0.333,0.333,0.333,1,0.333,0.333,0.333,1","1",""
"","html-keyboard-response","321","222083","0.0-321.0","3OONKJ5DKD5X1VC4YG3IZAHCS17OBK","A25HI5HXUJ0FHF","3WRBLBQ2GRU63BU2LFOJL1G32T90GO","","null","<img src=""img/flower5.png"" style=""width:200px;border:14px solid red;"">","null","","","","","","","","",""
"","image-keyboard-response","322","222556","0.0-322.0","3OONKJ5DKD5X1VC4YG3IZAHCS17OBK","A25HI5HXUJ0FHF","3WRBLBQ2GRU63BU2LFOJL1G32T90GO","","469.7000000476837","img/flower5.png","76","472.39999997615814","3","1","3","1","1,0.333,0.333,0.333,1,0.333,0.333,0.333,1","1,0.333,0.333,0.333,1,0.333,0.333,0.333,1","1",""
"","html-keyboard-response","323","222859","0.0-323.0","3OONKJ5DKD5X1VC4YG3IZAHCS17OBK","A25HI5HXUJ0FHF","3WRBLBQ2GRU63BU2LFOJL1G32T90GO","","null","<img src=""img/flower5.png"" style=""width:200px; border:14px solid green;"">","null","","","","","","","","",""
"","image-keyboard-response","324","223508","0.0-324.0","3OONKJ5DKD5X1VC4YG3IZAHCS17OBK","A25HI5HXUJ0FHF","3WRBLBQ2GRU63BU2LFOJL1G32T90GO","","645.7000000476837","img/flower4.png","76","648.2000000476837","3","0","2","1","1,0.333,0.333,0.333,1,0.333,0.333,0.333,1","1,0.333,0.333,0.333,1,0.333,0.333,0.333,1","1",""
"","html-keyboard-response","325","223812","0.0-325.0","3OONKJ5DKD5X1VC4YG3IZAHCS17OBK","A25HI5HXUJ0FHF","3WRBLBQ2GRU63BU2LFOJL1G32T90GO","","null","<img src=""img/flower4.png"" style=""width:200px;border:14px solid red;"">","null","","","","","","","","",""
"","image-keyboard-response","326","224196","0.0-326.0","3OONKJ5DKD5X1VC4YG3IZAHCS17OBK","A25HI5HXUJ0FHF","3WRBLBQ2GRU63BU2LFOJL1G32T90GO","","380.1999999284744","img/flower4.png","75","382.7999999523163","2","1","2","1","1,0.333,0.333,0.333,1,0.333,0.333,0.333,1","1,0.333,0.333,0.333,1,0.333,0.333,0.333,1","1",""
"","html-keyboard-response","327","224498","0.0-327.0","3OONKJ5DKD5X1VC4YG3IZAHCS17OBK","A25HI5HXUJ0FHF","3WRBLBQ2GRU63BU2LFOJL1G32T90GO","","null","<img src=""img/flower4.png"" style=""width:200px; border:14px solid green;"">","null","","","","","","","","",""
"","image-keyboard-response","328","224931","0.0-328.0","3OONKJ5DKD5X1VC4YG3IZAHCS17OBK","A25HI5HXUJ0FHF","3WRBLBQ2GRU63BU2LFOJL1G32T90GO","","429.7000000476837","img/flower5.png","74","432.40000009536743","1","0","3","1","1,0.333,0.333,0.333,1,0.333,0.333,0.333,1","1,0.333,0.333,0.333,1,0.333,0.333,0.333,1","1",""
"","html-keyboard-response","329","225235","0.0-329.0","3OONKJ5DKD5X1VC4YG3IZAHCS17OBK","A25HI5HXUJ0FHF","3WRBLBQ2GRU63BU2LFOJL1G32T90GO","","null","<img src=""img/flower5.png"" style=""width:200px;border:14px solid red;"">","null","","","","","","","","",""
"","image-keyboard-response","330","225651","0.0-330.0","3OONKJ5DKD5X1VC4YG3IZAHCS17OBK","A25HI5HXUJ0FHF","3WRBLBQ2GRU63BU2LFOJL1G32T90GO","","413.2000000476837","img/flower1.png","75","415.89999997615814","2","0","1","1","1,0.333,0.333,0.333,1,0.333,0.333,0.333,1","1,0.333,0.333,0.333,1,0.333,0.333,0.333,1","1",""
"","html-keyboard-response","331","225955","0.0-331.0","3OONKJ5DKD5X1VC4YG3IZAHCS17OBK","A25HI5HXUJ0FHF","3WRBLBQ2GRU63BU2LFOJL1G32T90GO","","null","<img src=""img/flower1.png"" style=""width:200px;border:14px solid red;"">","null","","","","","","","","",""
"","image-keyboard-response","332","226493","0.0-332.0","3OONKJ5DKD5X1VC4YG3IZAHCS17OBK","A25HI5HXUJ0FHF","3WRBLBQ2GRU63BU2LFOJL1G32T90GO","","533.8999999761581","img/flower1.png","75","536.6999999284744","2","0","1","1","1,0.333,0.333,0.333,1,0.333,0.333,0.333,1","1,0.333,0.333,0.333,1,0.333,0.333,0.333,1","1",""
"","html-keyboard-response","333","226797","0.0-333.0","3OONKJ5DKD5X1VC4YG3IZAHCS17OBK","A25HI5HXUJ0FHF","3WRBLBQ2GRU63BU2LFOJL1G32T90GO","","null","<img src=""img/flower1.png"" style=""width:200px;border:14px solid red;"">","null","","","","","","","","",""
"","image-keyboard-response","334","227011","0.0-334.0","3OONKJ5DKD5X1VC4YG3IZAHCS17OBK","A25HI5HXUJ0FHF","3WRBLBQ2GRU63BU2LFOJL1G32T90GO","","211.60000002384186","img/flower4.png","76","214","3","1","2","1","1,0.333,0.333,0.333,1,0.333,0.333,0.333,1","1,0.333,0.333,0.333,1,0.333,0.333,0.333,1","1",""
"","html-keyboard-response","335","227314","0.0-335.0","3OONKJ5DKD5X1VC4YG3IZAHCS17OBK","A25HI5HXUJ0FHF","3WRBLBQ2GRU63BU2LFOJL1G32T90GO","","null","<img src=""img/flower4.png"" style=""width:200px; border:14px solid green;"">","null","","","","","","","","",""
"","image-keyboard-response","336","227739","0.0-336.0","3OONKJ5DKD5X1VC4YG3IZAHCS17OBK","A25HI5HXUJ0FHF","3WRBLBQ2GRU63BU2LFOJL1G32T90GO","","421.2999999523163","img/flower1.png","76","423.89999997615814","3","0","1","1","1,0.333,0.333,0.333,1,0.333,0.333,0.333,1","1,0.333,0.333,0.333,1,0.333,0.333,0.333,1","1",""
"","html-keyboard-response","337","228043","0.0-337.0","3OONKJ5DKD5X1VC4YG3IZAHCS17OBK","A25HI5HXUJ0FHF","3WRBLBQ2GRU63BU2LFOJL1G32T90GO","","null","<img src=""img/flower1.png"" style=""width:200px;border:14px solid red;"">","null","","","","","","","","",""
"","image-keyboard-response","338","228396","0.0-338.0","3OONKJ5DKD5X1VC4YG3IZAHCS17OBK","A25HI5HXUJ0FHF","3WRBLBQ2GRU63BU2LFOJL1G32T90GO","","348.7999999523163","img/flower5.png","74","351.39999997615814","1","1","3","1","1,0.333,0.333,0.333,1,0.333,0.333,0.333,1","1,0.333,0.333,0.333,1,0.333,0.333,0.333,1","1",""
"","html-keyboard-response","339","228699","0.0-339.0","3OONKJ5DKD5X1VC4YG3IZAHCS17OBK","A25HI5HXUJ0FHF","3WRBLBQ2GRU63BU2LFOJL1G32T90GO","","null","<img src=""img/flower5.png"" style=""width:200px; border:14px solid green;"">","null","","","","","","","","",""
"","image-keyboard-response","340","229052","0.0-340.0","3OONKJ5DKD5X1VC4YG3IZAHCS17OBK","A25HI5HXUJ0FHF","3WRBLBQ2GRU63BU2LFOJL1G32T90GO","","349.1999999284744","img/flower4.png","74","352.10000002384186","1","0","2","1","1,0.333,0.333,0.333,1,0.333,0.333,0.333,1","1,0.333,0.333,0.333,1,0.333,0.333,0.333,1","1",""
"","html-keyboard-response","341","229355","0.0-341.0","3OONKJ5DKD5X1VC4YG3IZAHCS17OBK","A25HI5HXUJ0FHF","3WRBLBQ2GRU63BU2LFOJL1G32T90GO","","null","<img src=""img/flower4.png"" style=""width:200px;border:14px solid red;"">","null","","","","","","","","",""
"","image-keyboard-response","342","229676","0.0-342.0","3OONKJ5DKD5X1VC4YG3IZAHCS17OBK","A25HI5HXUJ0FHF","3WRBLBQ2GRU63BU2LFOJL1G32T90GO","","316.7000000476837","img/flower4.png","76","319.5","3","0","2","1","1,0.333,0.333,0.333,1,0.333,0.333,0.333,1","1,0.333,0.333,0.333,1,0.333,0.333,0.333,1","1",""
"","html-keyboard-response","343","229979","0.0-343.0","3OONKJ5DKD5X1VC4YG3IZAHCS17OBK","A25HI5HXUJ0FHF","3WRBLBQ2GRU63BU2LFOJL1G32T90GO","","null","<img src=""img/flower4.png"" style=""width:200px;border:14px solid red;"">","null","","","","","","","","",""
"","image-keyboard-response","344","230324","0.0-344.0","3OONKJ5DKD5X1VC4YG3IZAHCS17OBK","A25HI5HXUJ0FHF","3WRBLBQ2GRU63BU2LFOJL1G32T90GO","","341.60000002384186","img/flower1.png","76","344.40000009536743","3","1","1","1","1,0.333,0.333,0.333,1,0.333,0.333,0.333,1","1,0.333,0.333,0.333,1,0.333,0.333,0.333,1","1",""
"","html-keyboard-response","345","230639","0.0-345.0","3OONKJ5DKD5X1VC4YG3IZAHCS17OBK","A25HI5HXUJ0FHF","3WRBLBQ2GRU63BU2LFOJL1G32T90GO","","null","<img src=""img/flower1.png"" style=""width:200px; border:14px solid green;"">","null","","","","","","","","",""
"","image-keyboard-response","346","231068","0.0-346.0","3OONKJ5DKD5X1VC4YG3IZAHCS17OBK","A25HI5HXUJ0FHF","3WRBLBQ2GRU63BU2LFOJL1G32T90GO","","425","img/flower5.png","76","427.5","3","1","3","1","1,0.333,0.333,0.333,1,0.333,0.333,0.333,1","1,0.333,0.333,0.333,1,0.333,0.333,0.333,1","1",""
"","html-keyboard-response","347","231373","0.0-347.0","3OONKJ5DKD5X1VC4YG3IZAHCS17OBK","A25HI5HXUJ0FHF","3WRBLBQ2GRU63BU2LFOJL1G32T90GO","","null","<img src=""img/flower5.png"" style=""width:200px; border:14px solid green;"">","null","","","","","","","","",""
"","image-keyboard-response","348","231692","0.0-348.0","3OONKJ5DKD5X1VC4YG3IZAHCS17OBK","A25HI5HXUJ0FHF","3WRBLBQ2GRU63BU2LFOJL1G32T90GO","","315.59999990463257","img/flower1.png","76","318.1999999284744","3","0","1","1","1,0.333,0.333,0.333,1,0.333,0.333,0.333,1","1,0.333,0.333,0.333,1,0.333,0.333,0.333,1","1",""
"","html-keyboard-response","349","231995","0.0-349.0","3OONKJ5DKD5X1VC4YG3IZAHCS17OBK","A25HI5HXUJ0FHF","3WRBLBQ2GRU63BU2LFOJL1G32T90GO","","null","<img src=""img/flower1.png"" style=""width:200px;border:14px solid red;"">","null","","","","","","","","",""
"","image-keyboard-response","350","232468","0.0-350.0","3OONKJ5DKD5X1VC4YG3IZAHCS17OBK","A25HI5HXUJ0FHF","3WRBLBQ2GRU63BU2LFOJL1G32T90GO","","468.7999999523163","img/flower5.png","74","471.39999997615814","1","0","3","1","1,0.333,0.333,0.333,1,0.333,0.333,0.333,1","1,0.333,0.333,0.333,1,0.333,0.333,0.333,1","1",""
"","html-keyboard-response","351","232772","0.0-351.0","3OONKJ5DKD5X1VC4YG3IZAHCS17OBK","A25HI5HXUJ0FHF","3WRBLBQ2GRU63BU2LFOJL1G32T90GO","","null","<img src=""img/flower5.png"" style=""width:200px;border:14px solid red;"">","null","","","","","","","","",""
"","image-keyboard-response","352","233139","0.0-352.0","3OONKJ5DKD5X1VC4YG3IZAHCS17OBK","A25HI5HXUJ0FHF","3WRBLBQ2GRU63BU2LFOJL1G32T90GO","","363.60000002384186","img/flower4.png","75","366.6999999284744","2","1","2","1","1,0.333,0.333,0.333,1,0.333,0.333,0.333,1","1,0.333,0.333,0.333,1,0.333,0.333,0.333,1","1",""
"","html-keyboard-response","353","233444","0.0-353.0","3OONKJ5DKD5X1VC4YG3IZAHCS17OBK","A25HI5HXUJ0FHF","3WRBLBQ2GRU63BU2LFOJL1G32T90GO","","null","<img src=""img/flower4.png"" style=""width:200px; border:14px solid green;"">","null","","","","","","","","",""
"","image-keyboard-response","354","233747","0.0-354.0","3OONKJ5DKD5X1VC4YG3IZAHCS17OBK","A25HI5HXUJ0FHF","3WRBLBQ2GRU63BU2LFOJL1G32T90GO","","299.89999997615814","img/flower4.png","75","302.39999997615814","2","1","2","1","1,0.333,0.333,0.333,1,0.333,0.333,0.333,1","1,0.333,0.333,0.333,1,0.333,0.333,0.333,1","1",""
"","html-keyboard-response","355","234052","0.0-355.0","3OONKJ5DKD5X1VC4YG3IZAHCS17OBK","A25HI5HXUJ0FHF","3WRBLBQ2GRU63BU2LFOJL1G32T90GO","","null","<img src=""img/flower4.png"" style=""width:200px; border:14px solid green;"">","null","","","","","","","","",""
"","image-keyboard-response","356","234524","0.0-356.0","3OONKJ5DKD5X1VC4YG3IZAHCS17OBK","A25HI5HXUJ0FHF","3WRBLBQ2GRU63BU2LFOJL1G32T90GO","","468.59999990463257","img/flower1.png","76","471.5","3","0","1","1","1,0.333,0.333,0.333,1,0.333,0.333,0.333,1","1,0.333,0.333,0.333,1,0.333,0.333,0.333,1","1",""
"","html-keyboard-response","357","234828","0.0-357.0","3OONKJ5DKD5X1VC4YG3IZAHCS17OBK","A25HI5HXUJ0FHF","3WRBLBQ2GRU63BU2LFOJL1G32T90GO","","null","<img src=""img/flower1.png"" style=""width:200px;border:14px solid red;"">","null","","","","","","","","",""
"","image-keyboard-response","358","235147","0.0-358.0","3OONKJ5DKD5X1VC4YG3IZAHCS17OBK","A25HI5HXUJ0FHF","3WRBLBQ2GRU63BU2LFOJL1G32T90GO","","316.5","img/flower4.png","74","319.10000002384186","1","0","2","1","1,0.333,0.333,0.333,1,0.333,0.333,0.333,1","1,0.333,0.333,0.333,1,0.333,0.333,0.333,1","1",""
"","html-keyboard-response","359","235452","0.0-359.0","3OONKJ5DKD5X1VC4YG3IZAHCS17OBK","A25HI5HXUJ0FHF","3WRBLBQ2GRU63BU2LFOJL1G32T90GO","","null","<img src=""img/flower4.png"" style=""width:200px;border:14px solid red;"">","null","","","","","","","","",""
"","image-keyboard-response","360","235851","0.0-360.0","3OONKJ5DKD5X1VC4YG3IZAHCS17OBK","A25HI5HXUJ0FHF","3WRBLBQ2GRU63BU2LFOJL1G32T90GO","","396.39999997615814","img/flower1.png","74","399.09999990463257","1","1","1","1","1,0.333,0.333,0.333,1,0.333,0.333,0.333,1","1,0.333,0.333,0.333,1,0.333,0.333,0.333,1","1",""
"","html-keyboard-response","361","236155","0.0-361.0","3OONKJ5DKD5X1VC4YG3IZAHCS17OBK","A25HI5HXUJ0FHF","3WRBLBQ2GRU63BU2LFOJL1G32T90GO","","null","<img src=""img/flower1.png"" style=""width:200px; border:14px solid green;"">","null","","","","","","","","",""
"","html-keyboard-response","362","256779","0.0-362.0","3OONKJ5DKD5X1VC4YG3IZAHCS17OBK","A25HI5HXUJ0FHF","3WRBLBQ2GRU63BU2LFOJL1G32T90GO","","","","","","","","","","","","",""
