"success","trial_type","trial_index","time_elapsed","internal_node_id","assignmentID","mturkID","hitID","view_history","rt","stimulus","key_press","reactionTime","a","r","s","cond","reward_cond","reward_cond_actual","reward_matrix_idx","responses"
"true","fullscreen","0","2438","0.0-0.0","354P56DE9LPPXB17SG8BED5H61G7SD","A276XK6HT76JZA","3RBI0I35XEP26UEZY8S8UZLEA1IY3E","","","","","","","","","","","","",""
"","instructions","1","13297","0.0-1.0","354P56DE9LPPXB17SG8BED5H61G7SD","A276XK6HT76JZA","3RBI0I35XEP26UEZY8S8UZLEA1IY3E","[{""page_index"":0,""viewing_time"":2873},{""page_index"":1,""viewing_time"":1269},{""page_index"":2,""viewing_time"":935},{""page_index"":3,""viewing_time"":870},{""page_index"":4,""viewing_time"":1326},{""page_index"":5,""viewing_time"":1407},{""page_index"":6,""viewing_time"":1200},{""page_index"":7,""viewing_time"":979}]","10859","","","","","","","","","","",""
"","image-keyboard-response","2","14809","0.0-2.0","354P56DE9LPPXB17SG8BED5H61G7SD","A276XK6HT76JZA","3RBI0I35XEP26UEZY8S8UZLEA1IY3E","","1507","img/flower4.png","74","1527","1","0","3","1","1,0.333,0.333,0.333,1,0.333,0.333,0.333,1","1,0.333,0.333,0.333,1,0.333,0.333,0.333,1","1",""
"","html-keyboard-response","3","15131","0.0-3.0","354P56DE9LPPXB17SG8BED5H61G7SD","A276XK6HT76JZA","3RBI0I35XEP26UEZY8S8UZLEA1IY3E","","null","<img src=""img/flower4.png"" style=""width:200px;border:14px solid red;"">","null","","","","","","","","",""
"","image-keyboard-response","4","15178","0.0-4.0","354P56DE9LPPXB17SG8BED5H61G7SD","A276XK6HT76JZA","3RBI0I35XEP26UEZY8S8UZLEA1IY3E","","40","img/flower3.png","74","47","1","0","2","1","1,0.333,0.333,0.333,1,0.333,0.333,0.333,1","1,0.333,0.333,0.333,1,0.333,0.333,0.333,1","1",""
"","html-keyboard-response","5","15485","0.0-5.0","354P56DE9LPPXB17SG8BED5H61G7SD","A276XK6HT76JZA","3RBI0I35XEP26UEZY8S8UZLEA1IY3E","","null","<img src=""img/flower3.png"" style=""width:200px;border:14px solid red;"">","null","","","","","","","","",""
"","image-keyboard-response","6","15535","0.0-6.0","354P56DE9LPPXB17SG8BED5H61G7SD","A276XK6HT76JZA","3RBI0I35XEP26UEZY8S8UZLEA1IY3E","","46","img/flower1.png","75","49","2","0","1","1","1,0.333,0.333,0.333,1,0.333,0.333,0.333,1","1,0.333,0.333,0.333,1,0.333,0.333,0.333,1","1",""
"","html-keyboard-response","7","15837","0.0-7.0","354P56DE9LPPXB17SG8BED5H61G7SD","A276XK6HT76JZA","3RBI0I35XEP26UEZY8S8UZLEA1IY3E","","null","<img src=""img/flower1.png"" style=""width:200px;border:14px solid red;"">","null","","","","","","","","",""
"","image-keyboard-response","8","15872","0.0-8.0","354P56DE9LPPXB17SG8BED5H61G7SD","A276XK6HT76JZA","3RBI0I35XEP26UEZY8S8UZLEA1IY3E","","34","img/flower4.png","76","35","3","1","3","1","1,0.333,0.333,0.333,1,0.333,0.333,0.333,1","1,0.333,0.333,0.333,1,0.333,0.333,0.333,1","1",""
"","html-keyboard-response","9","16174","0.0-9.0","354P56DE9LPPXB17SG8BED5H61G7SD","A276XK6HT76JZA","3RBI0I35XEP26UEZY8S8UZLEA1IY3E","","null","<img src=""img/flower4.png"" style=""width:200px; border:14px solid green;"">","null","","","","","","","","",""
"","image-keyboard-response","10","16260","0.0-10.0","354P56DE9LPPXB17SG8BED5H61G7SD","A276XK6HT76JZA","3RBI0I35XEP26UEZY8S8UZLEA1IY3E","","85","img/flower4.png","76","86","3","1","3","1","1,0.333,0.333,0.333,1,0.333,0.333,0.333,1","1,0.333,0.333,0.333,1,0.333,0.333,0.333,1","1",""
"","html-keyboard-response","11","16562","0.0-11.0","354P56DE9LPPXB17SG8BED5H61G7SD","A276XK6HT76JZA","3RBI0I35XEP26UEZY8S8UZLEA1IY3E","","null","<img src=""img/flower4.png"" style=""width:200px; border:14px solid green;"">","null","","","","","","","","",""
"","image-keyboard-response","12","16601","0.0-12.0","354P56DE9LPPXB17SG8BED5H61G7SD","A276XK6HT76JZA","3RBI0I35XEP26UEZY8S8UZLEA1IY3E","","38","img/flower1.png","76","38","3","1","1","1","1,0.333,0.333,0.333,1,0.333,0.333,0.333,1","1,0.333,0.333,0.333,1,0.333,0.333,0.333,1","1",""
"","html-keyboard-response","13","16903","0.0-13.0","354P56DE9LPPXB17SG8BED5H61G7SD","A276XK6HT76JZA","3RBI0I35XEP26UEZY8S8UZLEA1IY3E","","null","<img src=""img/flower1.png"" style=""width:200px; border:14px solid green;"">","null","","","","","","","","",""
"","image-keyboard-response","14","17008","0.0-14.0","354P56DE9LPPXB17SG8BED5H61G7SD","A276XK6HT76JZA","3RBI0I35XEP26UEZY8S8UZLEA1IY3E","","99","img/flower1.png","74","105","1","1","1","1","1,0.333,0.333,0.333,1,0.333,0.333,0.333,1","1,0.333,0.333,0.333,1,0.333,0.333,0.333,1","1",""
"","html-keyboard-response","15","17309","0.0-15.0","354P56DE9LPPXB17SG8BED5H61G7SD","A276XK6HT76JZA","3RBI0I35XEP26UEZY8S8UZLEA1IY3E","","null","<img src=""img/flower1.png"" style=""width:200px; border:14px solid green;"">","null","","","","","","","","",""
"","image-keyboard-response","16","17373","0.0-16.0","354P56DE9LPPXB17SG8BED5H61G7SD","A276XK6HT76JZA","3RBI0I35XEP26UEZY8S8UZLEA1IY3E","","64","img/flower3.png","76","64","3","0","2","1","1,0.333,0.333,0.333,1,0.333,0.333,0.333,1","1,0.333,0.333,0.333,1,0.333,0.333,0.333,1","1",""
"","html-keyboard-response","17","17676","0.0-17.0","354P56DE9LPPXB17SG8BED5H61G7SD","A276XK6HT76JZA","3RBI0I35XEP26UEZY8S8UZLEA1IY3E","","null","<img src=""img/flower3.png"" style=""width:200px;border:14px solid red;"">","null","","","","","","","","",""
"","image-keyboard-response","18","17799","0.0-18.0","354P56DE9LPPXB17SG8BED5H61G7SD","A276XK6HT76JZA","3RBI0I35XEP26UEZY8S8UZLEA1IY3E","","121","img/flower1.png","76","123","3","0","1","1","1,0.333,0.333,0.333,1,0.333,0.333,0.333,1","1,0.333,0.333,0.333,1,0.333,0.333,0.333,1","1",""
"","html-keyboard-response","19","18101","0.0-19.0","354P56DE9LPPXB17SG8BED5H61G7SD","A276XK6HT76JZA","3RBI0I35XEP26UEZY8S8UZLEA1IY3E","","null","<img src=""img/flower1.png"" style=""width:200px;border:14px solid red;"">","null","","","","","","","","",""
"","image-keyboard-response","20","18131","0.0-20.0","354P56DE9LPPXB17SG8BED5H61G7SD","A276XK6HT76JZA","3RBI0I35XEP26UEZY8S8UZLEA1IY3E","","28","img/flower1.png","76","30","3","0","1","1","1,0.333,0.333,0.333,1,0.333,0.333,0.333,1","1,0.333,0.333,0.333,1,0.333,0.333,0.333,1","1",""
"","html-keyboard-response","21","18432","0.0-21.0","354P56DE9LPPXB17SG8BED5H61G7SD","A276XK6HT76JZA","3RBI0I35XEP26UEZY8S8UZLEA1IY3E","","null","<img src=""img/flower1.png"" style=""width:200px;border:14px solid red;"">","null","","","","","","","","",""
"","image-keyboard-response","22","18541","0.0-22.0","354P56DE9LPPXB17SG8BED5H61G7SD","A276XK6HT76JZA","3RBI0I35XEP26UEZY8S8UZLEA1IY3E","","108","img/flower4.png","76","108","3","1","3","1","1,0.333,0.333,0.333,1,0.333,0.333,0.333,1","1,0.333,0.333,0.333,1,0.333,0.333,0.333,1","1",""
"","html-keyboard-response","23","18843","0.0-23.0","354P56DE9LPPXB17SG8BED5H61G7SD","A276XK6HT76JZA","3RBI0I35XEP26UEZY8S8UZLEA1IY3E","","null","<img src=""img/flower4.png"" style=""width:200px; border:14px solid green;"">","null","","","","","","","","",""
"","image-keyboard-response","24","18981","0.0-24.0","354P56DE9LPPXB17SG8BED5H61G7SD","A276XK6HT76JZA","3RBI0I35XEP26UEZY8S8UZLEA1IY3E","","137","img/flower3.png","76","137","3","1","2","1","1,0.333,0.333,0.333,1,0.333,0.333,0.333,1","1,0.333,0.333,0.333,1,0.333,0.333,0.333,1","1",""
"","html-keyboard-response","25","19283","0.0-25.0","354P56DE9LPPXB17SG8BED5H61G7SD","A276XK6HT76JZA","3RBI0I35XEP26UEZY8S8UZLEA1IY3E","","null","<img src=""img/flower3.png"" style=""width:200px; border:14px solid green;"">","null","","","","","","","","",""
"","image-keyboard-response","26","19408","0.0-26.0","354P56DE9LPPXB17SG8BED5H61G7SD","A276XK6HT76JZA","3RBI0I35XEP26UEZY8S8UZLEA1IY3E","","124","img/flower3.png","76","125","3","0","2","1","1,0.333,0.333,0.333,1,0.333,0.333,0.333,1","1,0.333,0.333,0.333,1,0.333,0.333,0.333,1","1",""
"","html-keyboard-response","27","19708","0.0-27.0","354P56DE9LPPXB17SG8BED5H61G7SD","A276XK6HT76JZA","3RBI0I35XEP26UEZY8S8UZLEA1IY3E","","null","<img src=""img/flower3.png"" style=""width:200px;border:14px solid red;"">","null","","","","","","","","",""
"","image-keyboard-response","28","19779","0.0-28.0","354P56DE9LPPXB17SG8BED5H61G7SD","A276XK6HT76JZA","3RBI0I35XEP26UEZY8S8UZLEA1IY3E","","68","img/flower4.png","76","70","3","1","3","1","1,0.333,0.333,0.333,1,0.333,0.333,0.333,1","1,0.333,0.333,0.333,1,0.333,0.333,0.333,1","1",""
"","html-keyboard-response","29","20081","0.0-29.0","354P56DE9LPPXB17SG8BED5H61G7SD","A276XK6HT76JZA","3RBI0I35XEP26UEZY8S8UZLEA1IY3E","","null","<img src=""img/flower4.png"" style=""width:200px; border:14px solid green;"">","null","","","","","","","","",""
"","image-keyboard-response","30","20198","0.0-30.0","354P56DE9LPPXB17SG8BED5H61G7SD","A276XK6HT76JZA","3RBI0I35XEP26UEZY8S8UZLEA1IY3E","","116","img/flower1.png","76","116","3","1","1","1","1,0.333,0.333,0.333,1,0.333,0.333,0.333,1","1,0.333,0.333,0.333,1,0.333,0.333,0.333,1","1",""
"","html-keyboard-response","31","20499","0.0-31.0","354P56DE9LPPXB17SG8BED5H61G7SD","A276XK6HT76JZA","3RBI0I35XEP26UEZY8S8UZLEA1IY3E","","null","<img src=""img/flower1.png"" style=""width:200px; border:14px solid green;"">","null","","","","","","","","",""
"","image-keyboard-response","32","20585","0.0-32.0","354P56DE9LPPXB17SG8BED5H61G7SD","A276XK6HT76JZA","3RBI0I35XEP26UEZY8S8UZLEA1IY3E","","85","img/flower1.png","76","86","3","1","1","1","1,0.333,0.333,0.333,1,0.333,0.333,0.333,1","1,0.333,0.333,0.333,1,0.333,0.333,0.333,1","1",""
"","html-keyboard-response","33","20894","0.0-33.0","354P56DE9LPPXB17SG8BED5H61G7SD","A276XK6HT76JZA","3RBI0I35XEP26UEZY8S8UZLEA1IY3E","","null","<img src=""img/flower1.png"" style=""width:200px; border:14px solid green;"">","null","","","","","","","","",""
"","image-keyboard-response","34","21065","0.0-34.0","354P56DE9LPPXB17SG8BED5H61G7SD","A276XK6HT76JZA","3RBI0I35XEP26UEZY8S8UZLEA1IY3E","","170","img/flower3.png","75","171","2","1","2","1","1,0.333,0.333,0.333,1,0.333,0.333,0.333,1","1,0.333,0.333,0.333,1,0.333,0.333,0.333,1","1",""
"","html-keyboard-response","35","21367","0.0-35.0","354P56DE9LPPXB17SG8BED5H61G7SD","A276XK6HT76JZA","3RBI0I35XEP26UEZY8S8UZLEA1IY3E","","null","<img src=""img/flower3.png"" style=""width:200px; border:14px solid green;"">","null","","","","","","","","",""
"","image-keyboard-response","36","21457","0.0-36.0","354P56DE9LPPXB17SG8BED5H61G7SD","A276XK6HT76JZA","3RBI0I35XEP26UEZY8S8UZLEA1IY3E","","88","img/flower4.png","74","90","1","0","3","1","1,0.333,0.333,0.333,1,0.333,0.333,0.333,1","1,0.333,0.333,0.333,1,0.333,0.333,0.333,1","1",""
"","html-keyboard-response","37","21759","0.0-37.0","354P56DE9LPPXB17SG8BED5H61G7SD","A276XK6HT76JZA","3RBI0I35XEP26UEZY8S8UZLEA1IY3E","","null","<img src=""img/flower4.png"" style=""width:200px;border:14px solid red;"">","null","","","","","","","","",""
"","image-keyboard-response","38","21823","0.0-38.0","354P56DE9LPPXB17SG8BED5H61G7SD","A276XK6HT76JZA","3RBI0I35XEP26UEZY8S8UZLEA1IY3E","","62","img/flower1.png","75","64","2","1","1","1","1,0.333,0.333,0.333,1,0.333,0.333,0.333,1","1,0.333,0.333,0.333,1,0.333,0.333,0.333,1","1",""
"","html-keyboard-response","39","22124","0.0-39.0","354P56DE9LPPXB17SG8BED5H61G7SD","A276XK6HT76JZA","3RBI0I35XEP26UEZY8S8UZLEA1IY3E","","null","<img src=""img/flower1.png"" style=""width:200px; border:14px solid green;"">","null","","","","","","","","",""
"","image-keyboard-response","40","22253","0.0-40.0","354P56DE9LPPXB17SG8BED5H61G7SD","A276XK6HT76JZA","3RBI0I35XEP26UEZY8S8UZLEA1IY3E","","128","img/flower4.png","74","129","1","0","3","1","1,0.333,0.333,0.333,1,0.333,0.333,0.333,1","1,0.333,0.333,0.333,1,0.333,0.333,0.333,1","1",""
"","html-keyboard-response","41","22556","0.0-41.0","354P56DE9LPPXB17SG8BED5H61G7SD","A276XK6HT76JZA","3RBI0I35XEP26UEZY8S8UZLEA1IY3E","","null","<img src=""img/flower4.png"" style=""width:200px;border:14px solid red;"">","null","","","","","","","","",""
"","image-keyboard-response","42","22662","0.0-42.0","354P56DE9LPPXB17SG8BED5H61G7SD","A276XK6HT76JZA","3RBI0I35XEP26UEZY8S8UZLEA1IY3E","","105","img/flower3.png","76","106","3","0","2","1","1,0.333,0.333,0.333,1,0.333,0.333,0.333,1","1,0.333,0.333,0.333,1,0.333,0.333,0.333,1","1",""
"","html-keyboard-response","43","22963","0.0-43.0","354P56DE9LPPXB17SG8BED5H61G7SD","A276XK6HT76JZA","3RBI0I35XEP26UEZY8S8UZLEA1IY3E","","null","<img src=""img/flower3.png"" style=""width:200px;border:14px solid red;"">","null","","","","","","","","",""
"","image-keyboard-response","44","23059","0.0-44.0","354P56DE9LPPXB17SG8BED5H61G7SD","A276XK6HT76JZA","3RBI0I35XEP26UEZY8S8UZLEA1IY3E","","94","img/flower1.png","74","95","1","1","1","1","1,0.333,0.333,0.333,1,0.333,0.333,0.333,1","1,0.333,0.333,0.333,1,0.333,0.333,0.333,1","1",""
"","html-keyboard-response","45","23361","0.0-45.0","354P56DE9LPPXB17SG8BED5H61G7SD","A276XK6HT76JZA","3RBI0I35XEP26UEZY8S8UZLEA1IY3E","","null","<img src=""img/flower1.png"" style=""width:200px; border:14px solid green;"">","null","","","","","","","","",""
"","image-keyboard-response","46","23502","0.0-46.0","354P56DE9LPPXB17SG8BED5H61G7SD","A276XK6HT76JZA","3RBI0I35XEP26UEZY8S8UZLEA1IY3E","","140","img/flower4.png","74","141","1","0","3","1","1,0.333,0.333,0.333,1,0.333,0.333,0.333,1","1,0.333,0.333,0.333,1,0.333,0.333,0.333,1","1",""
"","html-keyboard-response","47","23803","0.0-47.0","354P56DE9LPPXB17SG8BED5H61G7SD","A276XK6HT76JZA","3RBI0I35XEP26UEZY8S8UZLEA1IY3E","","null","<img src=""img/flower4.png"" style=""width:200px;border:14px solid red;"">","null","","","","","","","","",""
"","image-keyboard-response","48","23917","0.0-48.0","354P56DE9LPPXB17SG8BED5H61G7SD","A276XK6HT76JZA","3RBI0I35XEP26UEZY8S8UZLEA1IY3E","","112","img/flower4.png","76","113","3","1","3","1","1,0.333,0.333,0.333,1,0.333,0.333,0.333,1","1,0.333,0.333,0.333,1,0.333,0.333,0.333,1","1",""
"","html-keyboard-response","49","24219","0.0-49.0","354P56DE9LPPXB17SG8BED5H61G7SD","A276XK6HT76JZA","3RBI0I35XEP26UEZY8S8UZLEA1IY3E","","null","<img src=""img/flower4.png"" style=""width:200px; border:14px solid green;"">","null","","","","","","","","",""
"","image-keyboard-response","50","24404","0.0-50.0","354P56DE9LPPXB17SG8BED5H61G7SD","A276XK6HT76JZA","3RBI0I35XEP26UEZY8S8UZLEA1IY3E","","184","img/flower3.png","76","185","3","0","2","1","1,0.333,0.333,0.333,1,0.333,0.333,0.333,1","1,0.333,0.333,0.333,1,0.333,0.333,0.333,1","1",""
"","html-keyboard-response","51","24707","0.0-51.0","354P56DE9LPPXB17SG8BED5H61G7SD","A276XK6HT76JZA","3RBI0I35XEP26UEZY8S8UZLEA1IY3E","","null","<img src=""img/flower3.png"" style=""width:200px;border:14px solid red;"">","null","","","","","","","","",""
"","image-keyboard-response","52","24818","0.0-52.0","354P56DE9LPPXB17SG8BED5H61G7SD","A276XK6HT76JZA","3RBI0I35XEP26UEZY8S8UZLEA1IY3E","","110","img/flower3.png","76","111","3","1","2","1","1,0.333,0.333,0.333,1,0.333,0.333,0.333,1","1,0.333,0.333,0.333,1,0.333,0.333,0.333,1","1",""
"","html-keyboard-response","53","25120","0.0-53.0","354P56DE9LPPXB17SG8BED5H61G7SD","A276XK6HT76JZA","3RBI0I35XEP26UEZY8S8UZLEA1IY3E","","null","<img src=""img/flower3.png"" style=""width:200px; border:14px solid green;"">","null","","","","","","","","",""
"","image-keyboard-response","54","25176","0.0-54.0","354P56DE9LPPXB17SG8BED5H61G7SD","A276XK6HT76JZA","3RBI0I35XEP26UEZY8S8UZLEA1IY3E","","55","img/flower4.png","76","56","3","1","3","1","1,0.333,0.333,0.333,1,0.333,0.333,0.333,1","1,0.333,0.333,0.333,1,0.333,0.333,0.333,1","1",""
"","html-keyboard-response","55","25477","0.0-55.0","354P56DE9LPPXB17SG8BED5H61G7SD","A276XK6HT76JZA","3RBI0I35XEP26UEZY8S8UZLEA1IY3E","","null","<img src=""img/flower4.png"" style=""width:200px; border:14px solid green;"">","null","","","","","","","","",""
"","image-keyboard-response","56","25569","0.0-56.0","354P56DE9LPPXB17SG8BED5H61G7SD","A276XK6HT76JZA","3RBI0I35XEP26UEZY8S8UZLEA1IY3E","","89","img/flower4.png","76","91","3","1","3","1","1,0.333,0.333,0.333,1,0.333,0.333,0.333,1","1,0.333,0.333,0.333,1,0.333,0.333,0.333,1","1",""
"","html-keyboard-response","57","25871","0.0-57.0","354P56DE9LPPXB17SG8BED5H61G7SD","A276XK6HT76JZA","3RBI0I35XEP26UEZY8S8UZLEA1IY3E","","null","<img src=""img/flower4.png"" style=""width:200px; border:14px solid green;"">","null","","","","","","","","",""
"","image-keyboard-response","58","25948","0.0-58.0","354P56DE9LPPXB17SG8BED5H61G7SD","A276XK6HT76JZA","3RBI0I35XEP26UEZY8S8UZLEA1IY3E","","75","img/flower4.png","76","77","3","1","3","1","1,0.333,0.333,0.333,1,0.333,0.333,0.333,1","1,0.333,0.333,0.333,1,0.333,0.333,0.333,1","1",""
"","html-keyboard-response","59","26251","0.0-59.0","354P56DE9LPPXB17SG8BED5H61G7SD","A276XK6HT76JZA","3RBI0I35XEP26UEZY8S8UZLEA1IY3E","","null","<img src=""img/flower4.png"" style=""width:200px; border:14px solid green;"">","null","","","","","","","","",""
"","image-keyboard-response","60","26251","0.0-60.0","354P56DE9LPPXB17SG8BED5H61G7SD","A276XK6HT76JZA","3RBI0I35XEP26UEZY8S8UZLEA1IY3E","","0","img/flower4.png","75","0","2","1","3","1","1,0.333,0.333,0.333,1,0.333,0.333,0.333,1","1,0.333,0.333,0.333,1,0.333,0.333,0.333,1","1",""
"","html-keyboard-response","61","26552","0.0-61.0","354P56DE9LPPXB17SG8BED5H61G7SD","A276XK6HT76JZA","3RBI0I35XEP26UEZY8S8UZLEA1IY3E","","null","<img src=""img/flower4.png"" style=""width:200px; border:14px solid green;"">","null","","","","","","","","",""
"","image-keyboard-response","62","26605","0.0-62.0","354P56DE9LPPXB17SG8BED5H61G7SD","A276XK6HT76JZA","3RBI0I35XEP26UEZY8S8UZLEA1IY3E","","52","img/flower3.png","75","53","2","1","2","1","1,0.333,0.333,0.333,1,0.333,0.333,0.333,1","1,0.333,0.333,0.333,1,0.333,0.333,0.333,1","1",""
"","html-keyboard-response","63","26907","0.0-63.0","354P56DE9LPPXB17SG8BED5H61G7SD","A276XK6HT76JZA","3RBI0I35XEP26UEZY8S8UZLEA1IY3E","","null","<img src=""img/flower3.png"" style=""width:200px; border:14px solid green;"">","null","","","","","","","","",""
"","image-keyboard-response","64","27063","0.0-64.0","354P56DE9LPPXB17SG8BED5H61G7SD","A276XK6HT76JZA","3RBI0I35XEP26UEZY8S8UZLEA1IY3E","","154","img/flower1.png","74","156","1","1","1","1","1,0.333,0.333,0.333,1,0.333,0.333,0.333,1","1,0.333,0.333,0.333,1,0.333,0.333,0.333,1","1",""
"","html-keyboard-response","65","27364","0.0-65.0","354P56DE9LPPXB17SG8BED5H61G7SD","A276XK6HT76JZA","3RBI0I35XEP26UEZY8S8UZLEA1IY3E","","null","<img src=""img/flower1.png"" style=""width:200px; border:14px solid green;"">","null","","","","","","","","",""
"","image-keyboard-response","66","27443","0.0-66.0","354P56DE9LPPXB17SG8BED5H61G7SD","A276XK6HT76JZA","3RBI0I35XEP26UEZY8S8UZLEA1IY3E","","77","img/flower4.png","76","79","3","1","3","1","1,0.333,0.333,0.333,1,0.333,0.333,0.333,1","1,0.333,0.333,0.333,1,0.333,0.333,0.333,1","1",""
"","html-keyboard-response","67","27749","0.0-67.0","354P56DE9LPPXB17SG8BED5H61G7SD","A276XK6HT76JZA","3RBI0I35XEP26UEZY8S8UZLEA1IY3E","","null","<img src=""img/flower4.png"" style=""width:200px; border:14px solid green;"">","null","","","","","","","","",""
"","image-keyboard-response","68","27867","0.0-68.0","354P56DE9LPPXB17SG8BED5H61G7SD","A276XK6HT76JZA","3RBI0I35XEP26UEZY8S8UZLEA1IY3E","","118","img/flower1.png","74","119","1","1","1","1","1,0.333,0.333,0.333,1,0.333,0.333,0.333,1","1,0.333,0.333,0.333,1,0.333,0.333,0.333,1","1",""
"","html-keyboard-response","69","28169","0.0-69.0","354P56DE9LPPXB17SG8BED5H61G7SD","A276XK6HT76JZA","3RBI0I35XEP26UEZY8S8UZLEA1IY3E","","null","<img src=""img/flower1.png"" style=""width:200px; border:14px solid green;"">","null","","","","","","","","",""
"","image-keyboard-response","70","28252","0.0-70.0","354P56DE9LPPXB17SG8BED5H61G7SD","A276XK6HT76JZA","3RBI0I35XEP26UEZY8S8UZLEA1IY3E","","83","img/flower3.png","76","84","3","1","2","1","1,0.333,0.333,0.333,1,0.333,0.333,0.333,1","1,0.333,0.333,0.333,1,0.333,0.333,0.333,1","1",""
"","html-keyboard-response","71","28555","0.0-71.0","354P56DE9LPPXB17SG8BED5H61G7SD","A276XK6HT76JZA","3RBI0I35XEP26UEZY8S8UZLEA1IY3E","","null","<img src=""img/flower3.png"" style=""width:200px; border:14px solid green;"">","null","","","","","","","","",""
"","image-keyboard-response","72","28632","0.0-72.0","354P56DE9LPPXB17SG8BED5H61G7SD","A276XK6HT76JZA","3RBI0I35XEP26UEZY8S8UZLEA1IY3E","","76","img/flower3.png","75","77","2","1","2","1","1,0.333,0.333,0.333,1,0.333,0.333,0.333,1","1,0.333,0.333,0.333,1,0.333,0.333,0.333,1","1",""
"","html-keyboard-response","73","28934","0.0-73.0","354P56DE9LPPXB17SG8BED5H61G7SD","A276XK6HT76JZA","3RBI0I35XEP26UEZY8S8UZLEA1IY3E","","null","<img src=""img/flower3.png"" style=""width:200px; border:14px solid green;"">","null","","","","","","","","",""
"","image-keyboard-response","74","29016","0.0-74.0","354P56DE9LPPXB17SG8BED5H61G7SD","A276XK6HT76JZA","3RBI0I35XEP26UEZY8S8UZLEA1IY3E","","80","img/flower3.png","75","81","2","1","2","1","1,0.333,0.333,0.333,1,0.333,0.333,0.333,1","1,0.333,0.333,0.333,1,0.333,0.333,0.333,1","1",""
"","html-keyboard-response","75","29317","0.0-75.0","354P56DE9LPPXB17SG8BED5H61G7SD","A276XK6HT76JZA","3RBI0I35XEP26UEZY8S8UZLEA1IY3E","","null","<img src=""img/flower3.png"" style=""width:200px; border:14px solid green;"">","null","","","","","","","","",""
"","image-keyboard-response","76","29401","0.0-76.0","354P56DE9LPPXB17SG8BED5H61G7SD","A276XK6HT76JZA","3RBI0I35XEP26UEZY8S8UZLEA1IY3E","","84","img/flower4.png","74","84","1","1","3","1","1,0.333,0.333,0.333,1,0.333,0.333,0.333,1","1,0.333,0.333,0.333,1,0.333,0.333,0.333,1","1",""
"","html-keyboard-response","77","29704","0.0-77.0","354P56DE9LPPXB17SG8BED5H61G7SD","A276XK6HT76JZA","3RBI0I35XEP26UEZY8S8UZLEA1IY3E","","null","<img src=""img/flower4.png"" style=""width:200px; border:14px solid green;"">","null","","","","","","","","",""
"","image-keyboard-response","78","29749","0.0-78.0","354P56DE9LPPXB17SG8BED5H61G7SD","A276XK6HT76JZA","3RBI0I35XEP26UEZY8S8UZLEA1IY3E","","44","img/flower3.png","74","45","1","0","2","1","1,0.333,0.333,0.333,1,0.333,0.333,0.333,1","1,0.333,0.333,0.333,1,0.333,0.333,0.333,1","1",""
"","html-keyboard-response","79","30051","0.0-79.0","354P56DE9LPPXB17SG8BED5H61G7SD","A276XK6HT76JZA","3RBI0I35XEP26UEZY8S8UZLEA1IY3E","","null","<img src=""img/flower3.png"" style=""width:200px;border:14px solid red;"">","null","","","","","","","","",""
"","image-keyboard-response","80","30133","0.0-80.0","354P56DE9LPPXB17SG8BED5H61G7SD","A276XK6HT76JZA","3RBI0I35XEP26UEZY8S8UZLEA1IY3E","","81","img/flower1.png","74","82","1","1","1","1","1,0.333,0.333,0.333,1,0.333,0.333,0.333,1","1,0.333,0.333,0.333,1,0.333,0.333,0.333,1","1",""
"","html-keyboard-response","81","30437","0.0-81.0","354P56DE9LPPXB17SG8BED5H61G7SD","A276XK6HT76JZA","3RBI0I35XEP26UEZY8S8UZLEA1IY3E","","null","<img src=""img/flower1.png"" style=""width:200px; border:14px solid green;"">","null","","","","","","","","",""
"","image-keyboard-response","82","30930","0.0-82.0","354P56DE9LPPXB17SG8BED5H61G7SD","A276XK6HT76JZA","3RBI0I35XEP26UEZY8S8UZLEA1IY3E","","491","img/flower1.png","74","493","1","1","1","1","1,0.333,0.333,0.333,1,0.333,0.333,0.333,1","1,0.333,0.333,0.333,1,0.333,0.333,0.333,1","1",""
"","html-keyboard-response","83","31230","0.0-83.0","354P56DE9LPPXB17SG8BED5H61G7SD","A276XK6HT76JZA","3RBI0I35XEP26UEZY8S8UZLEA1IY3E","","null","<img src=""img/flower1.png"" style=""width:200px; border:14px solid green;"">","null","","","","","","","","",""
"","image-keyboard-response","84","31330","0.0-84.0","354P56DE9LPPXB17SG8BED5H61G7SD","A276XK6HT76JZA","3RBI0I35XEP26UEZY8S8UZLEA1IY3E","","99","img/flower1.png","76","99","3","0","1","1","1,0.333,0.333,0.333,1,0.333,0.333,0.333,1","1,0.333,0.333,0.333,1,0.333,0.333,0.333,1","1",""
"","html-keyboard-response","85","31631","0.0-85.0","354P56DE9LPPXB17SG8BED5H61G7SD","A276XK6HT76JZA","3RBI0I35XEP26UEZY8S8UZLEA1IY3E","","null","<img src=""img/flower1.png"" style=""width:200px;border:14px solid red;"">","null","","","","","","","","",""
"","image-keyboard-response","86","31676","0.0-86.0","354P56DE9LPPXB17SG8BED5H61G7SD","A276XK6HT76JZA","3RBI0I35XEP26UEZY8S8UZLEA1IY3E","","44","img/flower1.png","75","45","2","1","1","1","1,0.333,0.333,0.333,1,0.333,0.333,0.333,1","1,0.333,0.333,0.333,1,0.333,0.333,0.333,1","1",""
"","html-keyboard-response","87","31977","0.0-87.0","354P56DE9LPPXB17SG8BED5H61G7SD","A276XK6HT76JZA","3RBI0I35XEP26UEZY8S8UZLEA1IY3E","","null","<img src=""img/flower1.png"" style=""width:200px; border:14px solid green;"">","null","","","","","","","","",""
"","image-keyboard-response","88","32106","0.0-88.0","354P56DE9LPPXB17SG8BED5H61G7SD","A276XK6HT76JZA","3RBI0I35XEP26UEZY8S8UZLEA1IY3E","","128","img/flower1.png","74","132","1","1","1","1","1,0.333,0.333,0.333,1,0.333,0.333,0.333,1","1,0.333,0.333,0.333,1,0.333,0.333,0.333,1","1",""
"","html-keyboard-response","89","32411","0.0-89.0","354P56DE9LPPXB17SG8BED5H61G7SD","A276XK6HT76JZA","3RBI0I35XEP26UEZY8S8UZLEA1IY3E","","null","<img src=""img/flower1.png"" style=""width:200px; border:14px solid green;"">","null","","","","","","","","",""
"","image-keyboard-response","90","32505","0.0-90.0","354P56DE9LPPXB17SG8BED5H61G7SD","A276XK6HT76JZA","3RBI0I35XEP26UEZY8S8UZLEA1IY3E","","93","img/flower4.png","75","94","2","0","3","1","1,0.333,0.333,0.333,1,0.333,0.333,0.333,1","1,0.333,0.333,0.333,1,0.333,0.333,0.333,1","1",""
"","html-keyboard-response","91","32805","0.0-91.0","354P56DE9LPPXB17SG8BED5H61G7SD","A276XK6HT76JZA","3RBI0I35XEP26UEZY8S8UZLEA1IY3E","","null","<img src=""img/flower4.png"" style=""width:200px;border:14px solid red;"">","null","","","","","","","","",""
"","image-keyboard-response","92","32881","0.0-92.0","354P56DE9LPPXB17SG8BED5H61G7SD","A276XK6HT76JZA","3RBI0I35XEP26UEZY8S8UZLEA1IY3E","","75","img/flower4.png","76","76","3","1","3","1","1,0.333,0.333,0.333,1,0.333,0.333,0.333,1","1,0.333,0.333,0.333,1,0.333,0.333,0.333,1","1",""
"","html-keyboard-response","93","33182","0.0-93.0","354P56DE9LPPXB17SG8BED5H61G7SD","A276XK6HT76JZA","3RBI0I35XEP26UEZY8S8UZLEA1IY3E","","null","<img src=""img/flower4.png"" style=""width:200px; border:14px solid green;"">","null","","","","","","","","",""
"","image-keyboard-response","94","33313","0.0-94.0","354P56DE9LPPXB17SG8BED5H61G7SD","A276XK6HT76JZA","3RBI0I35XEP26UEZY8S8UZLEA1IY3E","","128","img/flower3.png","76","130","3","0","2","1","1,0.333,0.333,0.333,1,0.333,0.333,0.333,1","1,0.333,0.333,0.333,1,0.333,0.333,0.333,1","1",""
"","html-keyboard-response","95","33615","0.0-95.0","354P56DE9LPPXB17SG8BED5H61G7SD","A276XK6HT76JZA","3RBI0I35XEP26UEZY8S8UZLEA1IY3E","","null","<img src=""img/flower3.png"" style=""width:200px;border:14px solid red;"">","null","","","","","","","","",""
"","image-keyboard-response","96","33726","0.0-96.0","354P56DE9LPPXB17SG8BED5H61G7SD","A276XK6HT76JZA","3RBI0I35XEP26UEZY8S8UZLEA1IY3E","","110","img/flower4.png","74","111","1","1","3","1","1,0.333,0.333,0.333,1,0.333,0.333,0.333,1","1,0.333,0.333,0.333,1,0.333,0.333,0.333,1","1",""
"","html-keyboard-response","97","34027","0.0-97.0","354P56DE9LPPXB17SG8BED5H61G7SD","A276XK6HT76JZA","3RBI0I35XEP26UEZY8S8UZLEA1IY3E","","null","<img src=""img/flower4.png"" style=""width:200px; border:14px solid green;"">","null","","","","","","","","",""
"","image-keyboard-response","98","34148","0.0-98.0","354P56DE9LPPXB17SG8BED5H61G7SD","A276XK6HT76JZA","3RBI0I35XEP26UEZY8S8UZLEA1IY3E","","119","img/flower3.png","74","120","1","0","2","1","1,0.333,0.333,0.333,1,0.333,0.333,0.333,1","1,0.333,0.333,0.333,1,0.333,0.333,0.333,1","1",""
"","html-keyboard-response","99","34451","0.0-99.0","354P56DE9LPPXB17SG8BED5H61G7SD","A276XK6HT76JZA","3RBI0I35XEP26UEZY8S8UZLEA1IY3E","","null","<img src=""img/flower3.png"" style=""width:200px;border:14px solid red;"">","null","","","","","","","","",""
"","image-keyboard-response","100","34537","0.0-100.0","354P56DE9LPPXB17SG8BED5H61G7SD","A276XK6HT76JZA","3RBI0I35XEP26UEZY8S8UZLEA1IY3E","","86","img/flower1.png","74","86","1","1","1","1","1,0.333,0.333,0.333,1,0.333,0.333,0.333,1","1,0.333,0.333,0.333,1,0.333,0.333,0.333,1","1",""
"","html-keyboard-response","101","34839","0.0-101.0","354P56DE9LPPXB17SG8BED5H61G7SD","A276XK6HT76JZA","3RBI0I35XEP26UEZY8S8UZLEA1IY3E","","null","<img src=""img/flower1.png"" style=""width:200px; border:14px solid green;"">","null","","","","","","","","",""
"","image-keyboard-response","102","34916","0.0-102.0","354P56DE9LPPXB17SG8BED5H61G7SD","A276XK6HT76JZA","3RBI0I35XEP26UEZY8S8UZLEA1IY3E","","73","img/flower3.png","74","77","1","1","2","1","1,0.333,0.333,0.333,1,0.333,0.333,0.333,1","1,0.333,0.333,0.333,1,0.333,0.333,0.333,1","1",""
"","html-keyboard-response","103","35219","0.0-103.0","354P56DE9LPPXB17SG8BED5H61G7SD","A276XK6HT76JZA","3RBI0I35XEP26UEZY8S8UZLEA1IY3E","","null","<img src=""img/flower3.png"" style=""width:200px; border:14px solid green;"">","null","","","","","","","","",""
"","image-keyboard-response","104","35369","0.0-104.0","354P56DE9LPPXB17SG8BED5H61G7SD","A276XK6HT76JZA","3RBI0I35XEP26UEZY8S8UZLEA1IY3E","","149","img/flower3.png","76","151","3","0","2","1","1,0.333,0.333,0.333,1,0.333,0.333,0.333,1","1,0.333,0.333,0.333,1,0.333,0.333,0.333,1","1",""
"","html-keyboard-response","105","35671","0.0-105.0","354P56DE9LPPXB17SG8BED5H61G7SD","A276XK6HT76JZA","3RBI0I35XEP26UEZY8S8UZLEA1IY3E","","null","<img src=""img/flower3.png"" style=""width:200px;border:14px solid red;"">","null","","","","","","","","",""
"","image-keyboard-response","106","35738","0.0-106.0","354P56DE9LPPXB17SG8BED5H61G7SD","A276XK6HT76JZA","3RBI0I35XEP26UEZY8S8UZLEA1IY3E","","66","img/flower4.png","76","66","3","1","3","1","1,0.333,0.333,0.333,1,0.333,0.333,0.333,1","1,0.333,0.333,0.333,1,0.333,0.333,0.333,1","1",""
"","html-keyboard-response","107","36040","0.0-107.0","354P56DE9LPPXB17SG8BED5H61G7SD","A276XK6HT76JZA","3RBI0I35XEP26UEZY8S8UZLEA1IY3E","","null","<img src=""img/flower4.png"" style=""width:200px; border:14px solid green;"">","null","","","","","","","","",""
"","image-keyboard-response","108","36132","0.0-108.0","354P56DE9LPPXB17SG8BED5H61G7SD","A276XK6HT76JZA","3RBI0I35XEP26UEZY8S8UZLEA1IY3E","","91","img/flower1.png","76","92","3","0","1","1","1,0.333,0.333,0.333,1,0.333,0.333,0.333,1","1,0.333,0.333,0.333,1,0.333,0.333,0.333,1","1",""
"","html-keyboard-response","109","36435","0.0-109.0","354P56DE9LPPXB17SG8BED5H61G7SD","A276XK6HT76JZA","3RBI0I35XEP26UEZY8S8UZLEA1IY3E","","null","<img src=""img/flower1.png"" style=""width:200px;border:14px solid red;"">","null","","","","","","","","",""
"","image-keyboard-response","110","36527","0.0-110.0","354P56DE9LPPXB17SG8BED5H61G7SD","A276XK6HT76JZA","3RBI0I35XEP26UEZY8S8UZLEA1IY3E","","91","img/flower1.png","74","92","1","1","1","1","1,0.333,0.333,0.333,1,0.333,0.333,0.333,1","1,0.333,0.333,0.333,1,0.333,0.333,0.333,1","1",""
"","html-keyboard-response","111","36827","0.0-111.0","354P56DE9LPPXB17SG8BED5H61G7SD","A276XK6HT76JZA","3RBI0I35XEP26UEZY8S8UZLEA1IY3E","","null","<img src=""img/flower1.png"" style=""width:200px; border:14px solid green;"">","null","","","","","","","","",""
"","image-keyboard-response","112","36934","0.0-112.0","354P56DE9LPPXB17SG8BED5H61G7SD","A276XK6HT76JZA","3RBI0I35XEP26UEZY8S8UZLEA1IY3E","","105","img/flower1.png","74","107","1","1","1","1","1,0.333,0.333,0.333,1,0.333,0.333,0.333,1","1,0.333,0.333,0.333,1,0.333,0.333,0.333,1","1",""
"","html-keyboard-response","113","37235","0.0-113.0","354P56DE9LPPXB17SG8BED5H61G7SD","A276XK6HT76JZA","3RBI0I35XEP26UEZY8S8UZLEA1IY3E","","null","<img src=""img/flower1.png"" style=""width:200px; border:14px solid green;"">","null","","","","","","","","",""
"","image-keyboard-response","114","37359","0.0-114.0","354P56DE9LPPXB17SG8BED5H61G7SD","A276XK6HT76JZA","3RBI0I35XEP26UEZY8S8UZLEA1IY3E","","123","img/flower3.png","74","123","1","0","2","1","1,0.333,0.333,0.333,1,0.333,0.333,0.333,1","1,0.333,0.333,0.333,1,0.333,0.333,0.333,1","1",""
"","html-keyboard-response","115","37661","0.0-115.0","354P56DE9LPPXB17SG8BED5H61G7SD","A276XK6HT76JZA","3RBI0I35XEP26UEZY8S8UZLEA1IY3E","","null","<img src=""img/flower3.png"" style=""width:200px;border:14px solid red;"">","null","","","","","","","","",""
"","image-keyboard-response","116","37758","0.0-116.0","354P56DE9LPPXB17SG8BED5H61G7SD","A276XK6HT76JZA","3RBI0I35XEP26UEZY8S8UZLEA1IY3E","","97","img/flower4.png","75","97","2","1","3","1","1,0.333,0.333,0.333,1,0.333,0.333,0.333,1","1,0.333,0.333,0.333,1,0.333,0.333,0.333,1","1",""
"","html-keyboard-response","117","38061","0.0-117.0","354P56DE9LPPXB17SG8BED5H61G7SD","A276XK6HT76JZA","3RBI0I35XEP26UEZY8S8UZLEA1IY3E","","null","<img src=""img/flower4.png"" style=""width:200px; border:14px solid green;"">","null","","","","","","","","",""
"","image-keyboard-response","118","38172","0.0-118.0","354P56DE9LPPXB17SG8BED5H61G7SD","A276XK6HT76JZA","3RBI0I35XEP26UEZY8S8UZLEA1IY3E","","110","img/flower4.png","75","111","2","1","3","1","1,0.333,0.333,0.333,1,0.333,0.333,0.333,1","1,0.333,0.333,0.333,1,0.333,0.333,0.333,1","1",""
"","html-keyboard-response","119","38474","0.0-119.0","354P56DE9LPPXB17SG8BED5H61G7SD","A276XK6HT76JZA","3RBI0I35XEP26UEZY8S8UZLEA1IY3E","","null","<img src=""img/flower4.png"" style=""width:200px; border:14px solid green;"">","null","","","","","","","","",""
"","image-keyboard-response","120","38614","0.0-120.0","354P56DE9LPPXB17SG8BED5H61G7SD","A276XK6HT76JZA","3RBI0I35XEP26UEZY8S8UZLEA1IY3E","","138","img/flower1.png","76","139","3","0","1","1","1,0.333,0.333,0.333,1,0.333,0.333,0.333,1","1,0.333,0.333,0.333,1,0.333,0.333,0.333,1","1",""
"","html-keyboard-response","121","38915","0.0-121.0","354P56DE9LPPXB17SG8BED5H61G7SD","A276XK6HT76JZA","3RBI0I35XEP26UEZY8S8UZLEA1IY3E","","null","<img src=""img/flower1.png"" style=""width:200px;border:14px solid red;"">","null","","","","","","","","",""
"","image-keyboard-response","122","39008","0.0-122.0","354P56DE9LPPXB17SG8BED5H61G7SD","A276XK6HT76JZA","3RBI0I35XEP26UEZY8S8UZLEA1IY3E","","92","img/flower3.png","75","93","2","1","2","1","1,0.333,0.333,0.333,1,0.333,0.333,0.333,1","1,0.333,0.333,0.333,1,0.333,0.333,0.333,1","1",""
"","html-keyboard-response","123","39308","0.0-123.0","354P56DE9LPPXB17SG8BED5H61G7SD","A276XK6HT76JZA","3RBI0I35XEP26UEZY8S8UZLEA1IY3E","","null","<img src=""img/flower3.png"" style=""width:200px; border:14px solid green;"">","null","","","","","","","","",""
"","image-keyboard-response","124","39424","0.0-124.0","354P56DE9LPPXB17SG8BED5H61G7SD","A276XK6HT76JZA","3RBI0I35XEP26UEZY8S8UZLEA1IY3E","","114","img/flower3.png","74","116","1","1","2","1","1,0.333,0.333,0.333,1,0.333,0.333,0.333,1","1,0.333,0.333,0.333,1,0.333,0.333,0.333,1","1",""
"","html-keyboard-response","125","39725","0.0-125.0","354P56DE9LPPXB17SG8BED5H61G7SD","A276XK6HT76JZA","3RBI0I35XEP26UEZY8S8UZLEA1IY3E","","null","<img src=""img/flower3.png"" style=""width:200px; border:14px solid green;"">","null","","","","","","","","",""
"","image-keyboard-response","126","39806","0.0-126.0","354P56DE9LPPXB17SG8BED5H61G7SD","A276XK6HT76JZA","3RBI0I35XEP26UEZY8S8UZLEA1IY3E","","78","img/flower1.png","74","81","1","1","1","1","1,0.333,0.333,0.333,1,0.333,0.333,0.333,1","1,0.333,0.333,0.333,1,0.333,0.333,0.333,1","1",""
"","html-keyboard-response","127","40107","0.0-127.0","354P56DE9LPPXB17SG8BED5H61G7SD","A276XK6HT76JZA","3RBI0I35XEP26UEZY8S8UZLEA1IY3E","","null","<img src=""img/flower1.png"" style=""width:200px; border:14px solid green;"">","null","","","","","","","","",""
"","image-keyboard-response","128","40207","0.0-128.0","354P56DE9LPPXB17SG8BED5H61G7SD","A276XK6HT76JZA","3RBI0I35XEP26UEZY8S8UZLEA1IY3E","","97","img/flower3.png","74","99","1","1","2","1","1,0.333,0.333,0.333,1,0.333,0.333,0.333,1","1,0.333,0.333,0.333,1,0.333,0.333,0.333,1","1",""
"","html-keyboard-response","129","40509","0.0-129.0","354P56DE9LPPXB17SG8BED5H61G7SD","A276XK6HT76JZA","3RBI0I35XEP26UEZY8S8UZLEA1IY3E","","null","<img src=""img/flower3.png"" style=""width:200px; border:14px solid green;"">","null","","","","","","","","",""
"","image-keyboard-response","130","40612","0.0-130.0","354P56DE9LPPXB17SG8BED5H61G7SD","A276XK6HT76JZA","3RBI0I35XEP26UEZY8S8UZLEA1IY3E","","101","img/flower1.png","75","103","2","1","1","1","1,0.333,0.333,0.333,1,0.333,0.333,0.333,1","1,0.333,0.333,0.333,1,0.333,0.333,0.333,1","1",""
"","html-keyboard-response","131","40916","0.0-131.0","354P56DE9LPPXB17SG8BED5H61G7SD","A276XK6HT76JZA","3RBI0I35XEP26UEZY8S8UZLEA1IY3E","","null","<img src=""img/flower1.png"" style=""width:200px; border:14px solid green;"">","null","","","","","","","","",""
"","image-keyboard-response","132","41021","0.0-132.0","354P56DE9LPPXB17SG8BED5H61G7SD","A276XK6HT76JZA","3RBI0I35XEP26UEZY8S8UZLEA1IY3E","","102","img/flower3.png","74","104","1","0","2","1","1,0.333,0.333,0.333,1,0.333,0.333,0.333,1","1,0.333,0.333,0.333,1,0.333,0.333,0.333,1","1",""
"","html-keyboard-response","133","41323","0.0-133.0","354P56DE9LPPXB17SG8BED5H61G7SD","A276XK6HT76JZA","3RBI0I35XEP26UEZY8S8UZLEA1IY3E","","null","<img src=""img/flower3.png"" style=""width:200px;border:14px solid red;"">","null","","","","","","","","",""
"","image-keyboard-response","134","41448","0.0-134.0","354P56DE9LPPXB17SG8BED5H61G7SD","A276XK6HT76JZA","3RBI0I35XEP26UEZY8S8UZLEA1IY3E","","124","img/flower4.png","76","125","3","1","3","1","1,0.333,0.333,0.333,1,0.333,0.333,0.333,1","1,0.333,0.333,0.333,1,0.333,0.333,0.333,1","1",""
"","html-keyboard-response","135","41749","0.0-135.0","354P56DE9LPPXB17SG8BED5H61G7SD","A276XK6HT76JZA","3RBI0I35XEP26UEZY8S8UZLEA1IY3E","","null","<img src=""img/flower4.png"" style=""width:200px; border:14px solid green;"">","null","","","","","","","","",""
"","image-keyboard-response","136","41854","0.0-136.0","354P56DE9LPPXB17SG8BED5H61G7SD","A276XK6HT76JZA","3RBI0I35XEP26UEZY8S8UZLEA1IY3E","","104","img/flower4.png","74","104","1","0","3","1","1,0.333,0.333,0.333,1,0.333,0.333,0.333,1","1,0.333,0.333,0.333,1,0.333,0.333,0.333,1","1",""
"","html-keyboard-response","137","42156","0.0-137.0","354P56DE9LPPXB17SG8BED5H61G7SD","A276XK6HT76JZA","3RBI0I35XEP26UEZY8S8UZLEA1IY3E","","null","<img src=""img/flower4.png"" style=""width:200px;border:14px solid red;"">","null","","","","","","","","",""
"","image-keyboard-response","138","42304","0.0-138.0","354P56DE9LPPXB17SG8BED5H61G7SD","A276XK6HT76JZA","3RBI0I35XEP26UEZY8S8UZLEA1IY3E","","146","img/flower4.png","75","148","2","1","3","1","1,0.333,0.333,0.333,1,0.333,0.333,0.333,1","1,0.333,0.333,0.333,1,0.333,0.333,0.333,1","1",""
"","html-keyboard-response","139","42606","0.0-139.0","354P56DE9LPPXB17SG8BED5H61G7SD","A276XK6HT76JZA","3RBI0I35XEP26UEZY8S8UZLEA1IY3E","","null","<img src=""img/flower4.png"" style=""width:200px; border:14px solid green;"">","null","","","","","","","","",""
"","image-keyboard-response","140","42727","0.0-140.0","354P56DE9LPPXB17SG8BED5H61G7SD","A276XK6HT76JZA","3RBI0I35XEP26UEZY8S8UZLEA1IY3E","","120","img/flower4.png","74","121","1","0","3","1","1,0.333,0.333,0.333,1,0.333,0.333,0.333,1","1,0.333,0.333,0.333,1,0.333,0.333,0.333,1","1",""
"","html-keyboard-response","141","43030","0.0-141.0","354P56DE9LPPXB17SG8BED5H61G7SD","A276XK6HT76JZA","3RBI0I35XEP26UEZY8S8UZLEA1IY3E","","null","<img src=""img/flower4.png"" style=""width:200px;border:14px solid red;"">","null","","","","","","","","",""
"","image-keyboard-response","142","43229","0.0-142.0","354P56DE9LPPXB17SG8BED5H61G7SD","A276XK6HT76JZA","3RBI0I35XEP26UEZY8S8UZLEA1IY3E","","191","img/flower3.png","74","198","1","1","2","1","1,0.333,0.333,0.333,1,0.333,0.333,0.333,1","1,0.333,0.333,0.333,1,0.333,0.333,0.333,1","1",""
"","html-keyboard-response","143","43530","0.0-143.0","354P56DE9LPPXB17SG8BED5H61G7SD","A276XK6HT76JZA","3RBI0I35XEP26UEZY8S8UZLEA1IY3E","","null","<img src=""img/flower3.png"" style=""width:200px; border:14px solid green;"">","null","","","","","","","","",""
"","image-keyboard-response","144","43574","0.0-144.0","354P56DE9LPPXB17SG8BED5H61G7SD","A276XK6HT76JZA","3RBI0I35XEP26UEZY8S8UZLEA1IY3E","","43","img/flower3.png","74","44","1","1","2","1","1,0.333,0.333,0.333,1,0.333,0.333,0.333,1","1,0.333,0.333,0.333,1,0.333,0.333,0.333,1","1",""
"","html-keyboard-response","145","43875","0.0-145.0","354P56DE9LPPXB17SG8BED5H61G7SD","A276XK6HT76JZA","3RBI0I35XEP26UEZY8S8UZLEA1IY3E","","null","<img src=""img/flower3.png"" style=""width:200px; border:14px solid green;"">","null","","","","","","","","",""
"","image-keyboard-response","146","43988","0.0-146.0","354P56DE9LPPXB17SG8BED5H61G7SD","A276XK6HT76JZA","3RBI0I35XEP26UEZY8S8UZLEA1IY3E","","112","img/flower4.png","76","112","3","1","3","1","1,0.333,0.333,0.333,1,0.333,0.333,0.333,1","1,0.333,0.333,0.333,1,0.333,0.333,0.333,1","1",""
"","html-keyboard-response","147","44290","0.0-147.0","354P56DE9LPPXB17SG8BED5H61G7SD","A276XK6HT76JZA","3RBI0I35XEP26UEZY8S8UZLEA1IY3E","","null","<img src=""img/flower4.png"" style=""width:200px; border:14px solid green;"">","null","","","","","","","","",""
"","image-keyboard-response","148","44404","0.0-148.0","354P56DE9LPPXB17SG8BED5H61G7SD","A276XK6HT76JZA","3RBI0I35XEP26UEZY8S8UZLEA1IY3E","","112","img/flower1.png","76","113","3","0","1","1","1,0.333,0.333,0.333,1,0.333,0.333,0.333,1","1,0.333,0.333,0.333,1,0.333,0.333,0.333,1","1",""
"","html-keyboard-response","149","44706","0.0-149.0","354P56DE9LPPXB17SG8BED5H61G7SD","A276XK6HT76JZA","3RBI0I35XEP26UEZY8S8UZLEA1IY3E","","null","<img src=""img/flower1.png"" style=""width:200px;border:14px solid red;"">","null","","","","","","","","",""
"","image-keyboard-response","150","44811","0.0-150.0","354P56DE9LPPXB17SG8BED5H61G7SD","A276XK6HT76JZA","3RBI0I35XEP26UEZY8S8UZLEA1IY3E","","102","img/flower4.png","74","105","1","0","3","1","1,0.333,0.333,0.333,1,0.333,0.333,0.333,1","1,0.333,0.333,0.333,1,0.333,0.333,0.333,1","1",""
"","html-keyboard-response","151","45111","0.0-151.0","354P56DE9LPPXB17SG8BED5H61G7SD","A276XK6HT76JZA","3RBI0I35XEP26UEZY8S8UZLEA1IY3E","","null","<img src=""img/flower4.png"" style=""width:200px;border:14px solid red;"">","null","","","","","","","","",""
"","image-keyboard-response","152","45243","0.0-152.0","354P56DE9LPPXB17SG8BED5H61G7SD","A276XK6HT76JZA","3RBI0I35XEP26UEZY8S8UZLEA1IY3E","","130","img/flower1.png","76","132","3","0","1","1","1,0.333,0.333,0.333,1,0.333,0.333,0.333,1","1,0.333,0.333,0.333,1,0.333,0.333,0.333,1","1",""
"","html-keyboard-response","153","45546","0.0-153.0","354P56DE9LPPXB17SG8BED5H61G7SD","A276XK6HT76JZA","3RBI0I35XEP26UEZY8S8UZLEA1IY3E","","null","<img src=""img/flower1.png"" style=""width:200px;border:14px solid red;"">","null","","","","","","","","",""
"","image-keyboard-response","154","45678","0.0-154.0","354P56DE9LPPXB17SG8BED5H61G7SD","A276XK6HT76JZA","3RBI0I35XEP26UEZY8S8UZLEA1IY3E","","131","img/flower3.png","76","132","3","1","2","1","1,0.333,0.333,0.333,1,0.333,0.333,0.333,1","1,0.333,0.333,0.333,1,0.333,0.333,0.333,1","1",""
"","html-keyboard-response","155","45979","0.0-155.0","354P56DE9LPPXB17SG8BED5H61G7SD","A276XK6HT76JZA","3RBI0I35XEP26UEZY8S8UZLEA1IY3E","","null","<img src=""img/flower3.png"" style=""width:200px; border:14px solid green;"">","null","","","","","","","","",""
"","image-keyboard-response","156","46028","0.0-156.0","354P56DE9LPPXB17SG8BED5H61G7SD","A276XK6HT76JZA","3RBI0I35XEP26UEZY8S8UZLEA1IY3E","","47","img/flower3.png","74","49","1","1","2","1","1,0.333,0.333,0.333,1,0.333,0.333,0.333,1","1,0.333,0.333,0.333,1,0.333,0.333,0.333,1","1",""
"","html-keyboard-response","157","46330","0.0-157.0","354P56DE9LPPXB17SG8BED5H61G7SD","A276XK6HT76JZA","3RBI0I35XEP26UEZY8S8UZLEA1IY3E","","null","<img src=""img/flower3.png"" style=""width:200px; border:14px solid green;"">","null","","","","","","","","",""
"","image-keyboard-response","158","46431","0.0-158.0","354P56DE9LPPXB17SG8BED5H61G7SD","A276XK6HT76JZA","3RBI0I35XEP26UEZY8S8UZLEA1IY3E","","100","img/flower4.png","74","101","1","0","3","1","1,0.333,0.333,0.333,1,0.333,0.333,0.333,1","1,0.333,0.333,0.333,1,0.333,0.333,0.333,1","1",""
"","html-keyboard-response","159","46732","0.0-159.0","354P56DE9LPPXB17SG8BED5H61G7SD","A276XK6HT76JZA","3RBI0I35XEP26UEZY8S8UZLEA1IY3E","","null","<img src=""img/flower4.png"" style=""width:200px;border:14px solid red;"">","null","","","","","","","","",""
"","image-keyboard-response","160","46832","0.0-160.0","354P56DE9LPPXB17SG8BED5H61G7SD","A276XK6HT76JZA","3RBI0I35XEP26UEZY8S8UZLEA1IY3E","","99","img/flower3.png","74","99","1","1","2","1","1,0.333,0.333,0.333,1,0.333,0.333,0.333,1","1,0.333,0.333,0.333,1,0.333,0.333,0.333,1","1",""
"","html-keyboard-response","161","47135","0.0-161.0","354P56DE9LPPXB17SG8BED5H61G7SD","A276XK6HT76JZA","3RBI0I35XEP26UEZY8S8UZLEA1IY3E","","null","<img src=""img/flower3.png"" style=""width:200px; border:14px solid green;"">","null","","","","","","","","",""
"","image-keyboard-response","162","47274","0.0-162.0","354P56DE9LPPXB17SG8BED5H61G7SD","A276XK6HT76JZA","3RBI0I35XEP26UEZY8S8UZLEA1IY3E","","137","img/flower4.png","75","139","2","0","3","1","1,0.333,0.333,0.333,1,0.333,0.333,0.333,1","1,0.333,0.333,0.333,1,0.333,0.333,0.333,1","1",""
"","html-keyboard-response","163","47575","0.0-163.0","354P56DE9LPPXB17SG8BED5H61G7SD","A276XK6HT76JZA","3RBI0I35XEP26UEZY8S8UZLEA1IY3E","","null","<img src=""img/flower4.png"" style=""width:200px;border:14px solid red;"">","null","","","","","","","","",""
"","image-keyboard-response","164","47723","0.0-164.0","354P56DE9LPPXB17SG8BED5H61G7SD","A276XK6HT76JZA","3RBI0I35XEP26UEZY8S8UZLEA1IY3E","","147","img/flower1.png","74","148","1","1","1","1","1,0.333,0.333,0.333,1,0.333,0.333,0.333,1","1,0.333,0.333,0.333,1,0.333,0.333,0.333,1","1",""
"","html-keyboard-response","165","48025","0.0-165.0","354P56DE9LPPXB17SG8BED5H61G7SD","A276XK6HT76JZA","3RBI0I35XEP26UEZY8S8UZLEA1IY3E","","null","<img src=""img/flower1.png"" style=""width:200px; border:14px solid green;"">","null","","","","","","","","",""
"","image-keyboard-response","166","48069","0.0-166.0","354P56DE9LPPXB17SG8BED5H61G7SD","A276XK6HT76JZA","3RBI0I35XEP26UEZY8S8UZLEA1IY3E","","43","img/flower1.png","74","44","1","1","1","1","1,0.333,0.333,0.333,1,0.333,0.333,0.333,1","1,0.333,0.333,0.333,1,0.333,0.333,0.333,1","1",""
"","html-keyboard-response","167","48371","0.0-167.0","354P56DE9LPPXB17SG8BED5H61G7SD","A276XK6HT76JZA","3RBI0I35XEP26UEZY8S8UZLEA1IY3E","","null","<img src=""img/flower1.png"" style=""width:200px; border:14px solid green;"">","null","","","","","","","","",""
"","image-keyboard-response","168","48471","0.0-168.0","354P56DE9LPPXB17SG8BED5H61G7SD","A276XK6HT76JZA","3RBI0I35XEP26UEZY8S8UZLEA1IY3E","","98","img/flower1.png","76","100","3","0","1","1","1,0.333,0.333,0.333,1,0.333,0.333,0.333,1","1,0.333,0.333,0.333,1,0.333,0.333,0.333,1","1",""
"","html-keyboard-response","169","48772","0.0-169.0","354P56DE9LPPXB17SG8BED5H61G7SD","A276XK6HT76JZA","3RBI0I35XEP26UEZY8S8UZLEA1IY3E","","null","<img src=""img/flower1.png"" style=""width:200px;border:14px solid red;"">","null","","","","","","","","",""
"","image-keyboard-response","170","48903","0.0-170.0","354P56DE9LPPXB17SG8BED5H61G7SD","A276XK6HT76JZA","3RBI0I35XEP26UEZY8S8UZLEA1IY3E","","130","img/flower3.png","75","131","2","1","2","1","1,0.333,0.333,0.333,1,0.333,0.333,0.333,1","1,0.333,0.333,0.333,1,0.333,0.333,0.333,1","1",""
"","html-keyboard-response","171","49206","0.0-171.0","354P56DE9LPPXB17SG8BED5H61G7SD","A276XK6HT76JZA","3RBI0I35XEP26UEZY8S8UZLEA1IY3E","","null","<img src=""img/flower3.png"" style=""width:200px; border:14px solid green;"">","null","","","","","","","","",""
"","image-keyboard-response","172","49336","0.0-172.0","354P56DE9LPPXB17SG8BED5H61G7SD","A276XK6HT76JZA","3RBI0I35XEP26UEZY8S8UZLEA1IY3E","","129","img/flower1.png","74","130","1","1","1","1","1,0.333,0.333,0.333,1,0.333,0.333,0.333,1","1,0.333,0.333,0.333,1,0.333,0.333,0.333,1","1",""
"","html-keyboard-response","173","49637","0.0-173.0","354P56DE9LPPXB17SG8BED5H61G7SD","A276XK6HT76JZA","3RBI0I35XEP26UEZY8S8UZLEA1IY3E","","null","<img src=""img/flower1.png"" style=""width:200px; border:14px solid green;"">","null","","","","","","","","",""
"","image-keyboard-response","174","49718","0.0-174.0","354P56DE9LPPXB17SG8BED5H61G7SD","A276XK6HT76JZA","3RBI0I35XEP26UEZY8S8UZLEA1IY3E","","79","img/flower3.png","75","81","2","1","2","1","1,0.333,0.333,0.333,1,0.333,0.333,0.333,1","1,0.333,0.333,0.333,1,0.333,0.333,0.333,1","1",""
"","html-keyboard-response","175","50020","0.0-175.0","354P56DE9LPPXB17SG8BED5H61G7SD","A276XK6HT76JZA","3RBI0I35XEP26UEZY8S8UZLEA1IY3E","","null","<img src=""img/flower3.png"" style=""width:200px; border:14px solid green;"">","null","","","","","","","","",""
"","image-keyboard-response","176","50130","0.0-176.0","354P56DE9LPPXB17SG8BED5H61G7SD","A276XK6HT76JZA","3RBI0I35XEP26UEZY8S8UZLEA1IY3E","","108","img/flower3.png","76","110","3","1","2","1","1,0.333,0.333,0.333,1,0.333,0.333,0.333,1","1,0.333,0.333,0.333,1,0.333,0.333,0.333,1","1",""
"","html-keyboard-response","177","50431","0.0-177.0","354P56DE9LPPXB17SG8BED5H61G7SD","A276XK6HT76JZA","3RBI0I35XEP26UEZY8S8UZLEA1IY3E","","null","<img src=""img/flower3.png"" style=""width:200px; border:14px solid green;"">","null","","","","","","","","",""
"","image-keyboard-response","178","50460","0.0-178.0","354P56DE9LPPXB17SG8BED5H61G7SD","A276XK6HT76JZA","3RBI0I35XEP26UEZY8S8UZLEA1IY3E","","27","img/flower4.png","74","29","1","0","3","1","1,0.333,0.333,0.333,1,0.333,0.333,0.333,1","1,0.333,0.333,0.333,1,0.333,0.333,0.333,1","1",""
"","html-keyboard-response","179","50761","0.0-179.0","354P56DE9LPPXB17SG8BED5H61G7SD","A276XK6HT76JZA","3RBI0I35XEP26UEZY8S8UZLEA1IY3E","","null","<img src=""img/flower4.png"" style=""width:200px;border:14px solid red;"">","null","","","","","","","","",""
"","image-keyboard-response","180","50935","0.0-180.0","354P56DE9LPPXB17SG8BED5H61G7SD","A276XK6HT76JZA","3RBI0I35XEP26UEZY8S8UZLEA1IY3E","","173","img/flower1.png","74","175","1","1","1","1","1,0.333,0.333,0.333,1,0.333,0.333,0.333,1","1,0.333,0.333,0.333,1,0.333,0.333,0.333,1","1",""
"","html-keyboard-response","181","51238","0.0-181.0","354P56DE9LPPXB17SG8BED5H61G7SD","A276XK6HT76JZA","3RBI0I35XEP26UEZY8S8UZLEA1IY3E","","null","<img src=""img/flower1.png"" style=""width:200px; border:14px solid green;"">","null","","","","","","","","",""
"","html-keyboard-response","182","56965","0.0-182.0","354P56DE9LPPXB17SG8BED5H61G7SD","A276XK6HT76JZA","3RBI0I35XEP26UEZY8S8UZLEA1IY3E","","","","","","","","","","","","",""
"","image-keyboard-response","183","57707","0.0-183.0","354P56DE9LPPXB17SG8BED5H61G7SD","A276XK6HT76JZA","3RBI0I35XEP26UEZY8S8UZLEA1IY3E","","742","img/flower5.png","74","742","1","0","3","2","1,0,0,1,1,0,1,0,1","0,0,1,1,0,1,0,1,1","2",""
"","html-keyboard-response","184","58011","0.0-184.0","354P56DE9LPPXB17SG8BED5H61G7SD","A276XK6HT76JZA","3RBI0I35XEP26UEZY8S8UZLEA1IY3E","","null","<img src=""img/flower5.png"" style=""width:200px;border:14px solid red;"">","null","","","","","","","","",""
"","image-keyboard-response","185","58113","0.0-185.0","354P56DE9LPPXB17SG8BED5H61G7SD","A276XK6HT76JZA","3RBI0I35XEP26UEZY8S8UZLEA1IY3E","","99","img/flower2.png","76","101","3","1","1","2","1,0,0,1,1,0,1,0,1","0,0,1,1,0,1,0,1,1","2",""
"","html-keyboard-response","186","58414","0.0-186.0","354P56DE9LPPXB17SG8BED5H61G7SD","A276XK6HT76JZA","3RBI0I35XEP26UEZY8S8UZLEA1IY3E","","null","<img src=""img/flower2.png"" style=""width:200px; border:14px solid green;"">","null","","","","","","","","",""
"","image-keyboard-response","187","58485","0.0-187.0","354P56DE9LPPXB17SG8BED5H61G7SD","A276XK6HT76JZA","3RBI0I35XEP26UEZY8S8UZLEA1IY3E","","70","img/flower5.png","75","71","2","1","3","2","1,0,0,1,1,0,1,0,1","0,0,1,1,0,1,0,1,1","2",""
"","html-keyboard-response","188","58786","0.0-188.0","354P56DE9LPPXB17SG8BED5H61G7SD","A276XK6HT76JZA","3RBI0I35XEP26UEZY8S8UZLEA1IY3E","","null","<img src=""img/flower5.png"" style=""width:200px; border:14px solid green;"">","null","","","","","","","","",""
"","image-keyboard-response","189","58846","0.0-189.0","354P56DE9LPPXB17SG8BED5H61G7SD","A276XK6HT76JZA","3RBI0I35XEP26UEZY8S8UZLEA1IY3E","","58","img/flower6.png","76","59","3","1","2","2","1,0,0,1,1,0,1,0,1","0,0,1,1,0,1,0,1,1","2",""
"","html-keyboard-response","190","59147","0.0-190.0","354P56DE9LPPXB17SG8BED5H61G7SD","A276XK6HT76JZA","3RBI0I35XEP26UEZY8S8UZLEA1IY3E","","null","<img src=""img/flower6.png"" style=""width:200px; border:14px solid green;"">","null","","","","","","","","",""
"","image-keyboard-response","191","59208","0.0-191.0","354P56DE9LPPXB17SG8BED5H61G7SD","A276XK6HT76JZA","3RBI0I35XEP26UEZY8S8UZLEA1IY3E","","60","img/flower5.png","76","60","3","1","3","2","1,0,0,1,1,0,1,0,1","0,0,1,1,0,1,0,1,1","2",""
"","html-keyboard-response","192","59509","0.0-192.0","354P56DE9LPPXB17SG8BED5H61G7SD","A276XK6HT76JZA","3RBI0I35XEP26UEZY8S8UZLEA1IY3E","","null","<img src=""img/flower5.png"" style=""width:200px; border:14px solid green;"">","null","","","","","","","","",""
"","image-keyboard-response","193","59566","0.0-193.0","354P56DE9LPPXB17SG8BED5H61G7SD","A276XK6HT76JZA","3RBI0I35XEP26UEZY8S8UZLEA1IY3E","","55","img/flower5.png","76","56","3","1","3","2","1,0,0,1,1,0,1,0,1","0,0,1,1,0,1,0,1,1","2",""
"","html-keyboard-response","194","59868","0.0-194.0","354P56DE9LPPXB17SG8BED5H61G7SD","A276XK6HT76JZA","3RBI0I35XEP26UEZY8S8UZLEA1IY3E","","null","<img src=""img/flower5.png"" style=""width:200px; border:14px solid green;"">","null","","","","","","","","",""
"","image-keyboard-response","195","59944","0.0-195.0","354P56DE9LPPXB17SG8BED5H61G7SD","A276XK6HT76JZA","3RBI0I35XEP26UEZY8S8UZLEA1IY3E","","74","img/flower2.png","74","75","1","0","1","2","1,0,0,1,1,0,1,0,1","0,0,1,1,0,1,0,1,1","2",""
"","html-keyboard-response","196","60245","0.0-196.0","354P56DE9LPPXB17SG8BED5H61G7SD","A276XK6HT76JZA","3RBI0I35XEP26UEZY8S8UZLEA1IY3E","","null","<img src=""img/flower2.png"" style=""width:200px;border:14px solid red;"">","null","","","","","","","","",""
"","image-keyboard-response","197","60302","0.0-197.0","354P56DE9LPPXB17SG8BED5H61G7SD","A276XK6HT76JZA","3RBI0I35XEP26UEZY8S8UZLEA1IY3E","","54","img/flower2.png","74","57","1","0","1","2","1,0,0,1,1,0,1,0,1","0,0,1,1,0,1,0,1,1","2",""
"","html-keyboard-response","198","60602","0.0-198.0","354P56DE9LPPXB17SG8BED5H61G7SD","A276XK6HT76JZA","3RBI0I35XEP26UEZY8S8UZLEA1IY3E","","null","<img src=""img/flower2.png"" style=""width:200px;border:14px solid red;"">","null","","","","","","","","",""
"","image-keyboard-response","199","60665","0.0-199.0","354P56DE9LPPXB17SG8BED5H61G7SD","A276XK6HT76JZA","3RBI0I35XEP26UEZY8S8UZLEA1IY3E","","59","img/flower5.png","76","62","3","1","3","2","1,0,0,1,1,0,1,0,1","0,0,1,1,0,1,0,1,1","2",""
"","html-keyboard-response","200","60966","0.0-200.0","354P56DE9LPPXB17SG8BED5H61G7SD","A276XK6HT76JZA","3RBI0I35XEP26UEZY8S8UZLEA1IY3E","","null","<img src=""img/flower5.png"" style=""width:200px; border:14px solid green;"">","null","","","","","","","","",""
"","image-keyboard-response","201","61032","0.0-201.0","354P56DE9LPPXB17SG8BED5H61G7SD","A276XK6HT76JZA","3RBI0I35XEP26UEZY8S8UZLEA1IY3E","","66","img/flower2.png","74","66","1","0","1","2","1,0,0,1,1,0,1,0,1","0,0,1,1,0,1,0,1,1","2",""
"","html-keyboard-response","202","61334","0.0-202.0","354P56DE9LPPXB17SG8BED5H61G7SD","A276XK6HT76JZA","3RBI0I35XEP26UEZY8S8UZLEA1IY3E","","null","<img src=""img/flower2.png"" style=""width:200px;border:14px solid red;"">","null","","","","","","","","",""
"","image-keyboard-response","203","61393","0.0-203.0","354P56DE9LPPXB17SG8BED5H61G7SD","A276XK6HT76JZA","3RBI0I35XEP26UEZY8S8UZLEA1IY3E","","58","img/flower2.png","74","59","1","0","1","2","1,0,0,1,1,0,1,0,1","0,0,1,1,0,1,0,1,1","2",""
"","html-keyboard-response","204","61696","0.0-204.0","354P56DE9LPPXB17SG8BED5H61G7SD","A276XK6HT76JZA","3RBI0I35XEP26UEZY8S8UZLEA1IY3E","","null","<img src=""img/flower2.png"" style=""width:200px;border:14px solid red;"">","null","","","","","","","","",""
"","image-keyboard-response","205","61808","0.0-205.0","354P56DE9LPPXB17SG8BED5H61G7SD","A276XK6HT76JZA","3RBI0I35XEP26UEZY8S8UZLEA1IY3E","","111","img/flower5.png","75","112","2","1","3","2","1,0,0,1,1,0,1,0,1","0,0,1,1,0,1,0,1,1","2",""
"","html-keyboard-response","206","62114","0.0-206.0","354P56DE9LPPXB17SG8BED5H61G7SD","A276XK6HT76JZA","3RBI0I35XEP26UEZY8S8UZLEA1IY3E","","null","<img src=""img/flower5.png"" style=""width:200px; border:14px solid green;"">","null","","","","","","","","",""
"","image-keyboard-response","207","62152","0.0-207.0","354P56DE9LPPXB17SG8BED5H61G7SD","A276XK6HT76JZA","3RBI0I35XEP26UEZY8S8UZLEA1IY3E","","37","img/flower2.png","76","37","3","1","1","2","1,0,0,1,1,0,1,0,1","0,0,1,1,0,1,0,1,1","2",""
"","html-keyboard-response","208","62454","0.0-208.0","354P56DE9LPPXB17SG8BED5H61G7SD","A276XK6HT76JZA","3RBI0I35XEP26UEZY8S8UZLEA1IY3E","","null","<img src=""img/flower2.png"" style=""width:200px; border:14px solid green;"">","null","","","","","","","","",""
"","image-keyboard-response","209","62531","0.0-209.0","354P56DE9LPPXB17SG8BED5H61G7SD","A276XK6HT76JZA","3RBI0I35XEP26UEZY8S8UZLEA1IY3E","","76","img/flower5.png","74","76","1","0","3","2","1,0,0,1,1,0,1,0,1","0,0,1,1,0,1,0,1,1","2",""
"","html-keyboard-response","210","62832","0.0-210.0","354P56DE9LPPXB17SG8BED5H61G7SD","A276XK6HT76JZA","3RBI0I35XEP26UEZY8S8UZLEA1IY3E","","null","<img src=""img/flower5.png"" style=""width:200px;border:14px solid red;"">","null","","","","","","","","",""
"","image-keyboard-response","211","62927","0.0-211.0","354P56DE9LPPXB17SG8BED5H61G7SD","A276XK6HT76JZA","3RBI0I35XEP26UEZY8S8UZLEA1IY3E","","94","img/flower5.png","75","95","2","1","3","2","1,0,0,1,1,0,1,0,1","0,0,1,1,0,1,0,1,1","2",""
"","html-keyboard-response","212","63228","0.0-212.0","354P56DE9LPPXB17SG8BED5H61G7SD","A276XK6HT76JZA","3RBI0I35XEP26UEZY8S8UZLEA1IY3E","","null","<img src=""img/flower5.png"" style=""width:200px; border:14px solid green;"">","null","","","","","","","","",""
"","image-keyboard-response","213","63381","0.0-213.0","354P56DE9LPPXB17SG8BED5H61G7SD","A276XK6HT76JZA","3RBI0I35XEP26UEZY8S8UZLEA1IY3E","","152","img/flower2.png","74","153","1","0","1","2","1,0,0,1,1,0,1,0,1","0,0,1,1,0,1,0,1,1","2",""
"","html-keyboard-response","214","63684","0.0-214.0","354P56DE9LPPXB17SG8BED5H61G7SD","A276XK6HT76JZA","3RBI0I35XEP26UEZY8S8UZLEA1IY3E","","null","<img src=""img/flower2.png"" style=""width:200px;border:14px solid red;"">","null","","","","","","","","",""
"","image-keyboard-response","215","63811","0.0-215.0","354P56DE9LPPXB17SG8BED5H61G7SD","A276XK6HT76JZA","3RBI0I35XEP26UEZY8S8UZLEA1IY3E","","126","img/flower6.png","74","128","1","1","2","2","1,0,0,1,1,0,1,0,1","0,0,1,1,0,1,0,1,1","2",""
"","html-keyboard-response","216","64113","0.0-216.0","354P56DE9LPPXB17SG8BED5H61G7SD","A276XK6HT76JZA","3RBI0I35XEP26UEZY8S8UZLEA1IY3E","","null","<img src=""img/flower6.png"" style=""width:200px; border:14px solid green;"">","null","","","","","","","","",""
"","image-keyboard-response","217","64214","0.0-217.0","354P56DE9LPPXB17SG8BED5H61G7SD","A276XK6HT76JZA","3RBI0I35XEP26UEZY8S8UZLEA1IY3E","","99","img/flower5.png","74","101","1","0","3","2","1,0,0,1,1,0,1,0,1","0,0,1,1,0,1,0,1,1","2",""
"","html-keyboard-response","218","64521","0.0-218.0","354P56DE9LPPXB17SG8BED5H61G7SD","A276XK6HT76JZA","3RBI0I35XEP26UEZY8S8UZLEA1IY3E","","null","<img src=""img/flower5.png"" style=""width:200px;border:14px solid red;"">","null","","","","","","","","",""
"","image-keyboard-response","219","64652","0.0-219.0","354P56DE9LPPXB17SG8BED5H61G7SD","A276XK6HT76JZA","3RBI0I35XEP26UEZY8S8UZLEA1IY3E","","129","img/flower2.png","75","130","2","0","1","2","1,0,0,1,1,0,1,0,1","0,0,1,1,0,1,0,1,1","2",""
"","html-keyboard-response","220","64954","0.0-220.0","354P56DE9LPPXB17SG8BED5H61G7SD","A276XK6HT76JZA","3RBI0I35XEP26UEZY8S8UZLEA1IY3E","","null","<img src=""img/flower2.png"" style=""width:200px;border:14px solid red;"">","null","","","","","","","","",""
"","image-keyboard-response","221","65081","0.0-221.0","354P56DE9LPPXB17SG8BED5H61G7SD","A276XK6HT76JZA","3RBI0I35XEP26UEZY8S8UZLEA1IY3E","","126","img/flower5.png","74","126","1","0","3","2","1,0,0,1,1,0,1,0,1","0,0,1,1,0,1,0,1,1","2",""
"","html-keyboard-response","222","65383","0.0-222.0","354P56DE9LPPXB17SG8BED5H61G7SD","A276XK6HT76JZA","3RBI0I35XEP26UEZY8S8UZLEA1IY3E","","null","<img src=""img/flower5.png"" style=""width:200px;border:14px solid red;"">","null","","","","","","","","",""
"","image-keyboard-response","223","65463","0.0-223.0","354P56DE9LPPXB17SG8BED5H61G7SD","A276XK6HT76JZA","3RBI0I35XEP26UEZY8S8UZLEA1IY3E","","80","img/flower6.png","74","80","1","1","2","2","1,0,0,1,1,0,1,0,1","0,0,1,1,0,1,0,1,1","2",""
"","html-keyboard-response","224","65764","0.0-224.0","354P56DE9LPPXB17SG8BED5H61G7SD","A276XK6HT76JZA","3RBI0I35XEP26UEZY8S8UZLEA1IY3E","","null","<img src=""img/flower6.png"" style=""width:200px; border:14px solid green;"">","null","","","","","","","","",""
"","image-keyboard-response","225","65843","0.0-225.0","354P56DE9LPPXB17SG8BED5H61G7SD","A276XK6HT76JZA","3RBI0I35XEP26UEZY8S8UZLEA1IY3E","","76","img/flower6.png","76","79","3","1","2","2","1,0,0,1,1,0,1,0,1","0,0,1,1,0,1,0,1,1","2",""
"","html-keyboard-response","226","66145","0.0-226.0","354P56DE9LPPXB17SG8BED5H61G7SD","A276XK6HT76JZA","3RBI0I35XEP26UEZY8S8UZLEA1IY3E","","null","<img src=""img/flower6.png"" style=""width:200px; border:14px solid green;"">","null","","","","","","","","",""
"","image-keyboard-response","227","66234","0.0-227.0","354P56DE9LPPXB17SG8BED5H61G7SD","A276XK6HT76JZA","3RBI0I35XEP26UEZY8S8UZLEA1IY3E","","88","img/flower2.png","76","89","3","1","1","2","1,0,0,1,1,0,1,0,1","0,0,1,1,0,1,0,1,1","2",""
"","html-keyboard-response","228","66536","0.0-228.0","354P56DE9LPPXB17SG8BED5H61G7SD","A276XK6HT76JZA","3RBI0I35XEP26UEZY8S8UZLEA1IY3E","","null","<img src=""img/flower2.png"" style=""width:200px; border:14px solid green;"">","null","","","","","","","","",""
"","image-keyboard-response","229","66632","0.0-229.0","354P56DE9LPPXB17SG8BED5H61G7SD","A276XK6HT76JZA","3RBI0I35XEP26UEZY8S8UZLEA1IY3E","","95","img/flower2.png","74","96","1","0","1","2","1,0,0,1,1,0,1,0,1","0,0,1,1,0,1,0,1,1","2",""
"","html-keyboard-response","230","66936","0.0-230.0","354P56DE9LPPXB17SG8BED5H61G7SD","A276XK6HT76JZA","3RBI0I35XEP26UEZY8S8UZLEA1IY3E","","null","<img src=""img/flower2.png"" style=""width:200px;border:14px solid red;"">","null","","","","","","","","",""
"","image-keyboard-response","231","67114","0.0-231.0","354P56DE9LPPXB17SG8BED5H61G7SD","A276XK6HT76JZA","3RBI0I35XEP26UEZY8S8UZLEA1IY3E","","177","img/flower5.png","75","178","2","1","3","2","1,0,0,1,1,0,1,0,1","0,0,1,1,0,1,0,1,1","2",""
"","html-keyboard-response","232","67417","0.0-232.0","354P56DE9LPPXB17SG8BED5H61G7SD","A276XK6HT76JZA","3RBI0I35XEP26UEZY8S8UZLEA1IY3E","","null","<img src=""img/flower5.png"" style=""width:200px; border:14px solid green;"">","null","","","","","","","","",""
"","image-keyboard-response","233","67546","0.0-233.0","354P56DE9LPPXB17SG8BED5H61G7SD","A276XK6HT76JZA","3RBI0I35XEP26UEZY8S8UZLEA1IY3E","","128","img/flower2.png","75","129","2","0","1","2","1,0,0,1,1,0,1,0,1","0,0,1,1,0,1,0,1,1","2",""
"","html-keyboard-response","234","67847","0.0-234.0","354P56DE9LPPXB17SG8BED5H61G7SD","A276XK6HT76JZA","3RBI0I35XEP26UEZY8S8UZLEA1IY3E","","null","<img src=""img/flower2.png"" style=""width:200px;border:14px solid red;"">","null","","","","","","","","",""
"","image-keyboard-response","235","68013","0.0-235.0","354P56DE9LPPXB17SG8BED5H61G7SD","A276XK6HT76JZA","3RBI0I35XEP26UEZY8S8UZLEA1IY3E","","163","img/flower2.png","76","166","3","1","1","2","1,0,0,1,1,0,1,0,1","0,0,1,1,0,1,0,1,1","2",""
"","html-keyboard-response","236","68314","0.0-236.0","354P56DE9LPPXB17SG8BED5H61G7SD","A276XK6HT76JZA","3RBI0I35XEP26UEZY8S8UZLEA1IY3E","","null","<img src=""img/flower2.png"" style=""width:200px; border:14px solid green;"">","null","","","","","","","","",""
"","image-keyboard-response","237","68488","0.0-237.0","354P56DE9LPPXB17SG8BED5H61G7SD","A276XK6HT76JZA","3RBI0I35XEP26UEZY8S8UZLEA1IY3E","","172","img/flower5.png","75","173","2","1","3","2","1,0,0,1,1,0,1,0,1","0,0,1,1,0,1,0,1,1","2",""
"","html-keyboard-response","238","68790","0.0-238.0","354P56DE9LPPXB17SG8BED5H61G7SD","A276XK6HT76JZA","3RBI0I35XEP26UEZY8S8UZLEA1IY3E","","null","<img src=""img/flower5.png"" style=""width:200px; border:14px solid green;"">","null","","","","","","","","",""
"","image-keyboard-response","239","68853","0.0-239.0","354P56DE9LPPXB17SG8BED5H61G7SD","A276XK6HT76JZA","3RBI0I35XEP26UEZY8S8UZLEA1IY3E","","62","img/flower2.png","76","63","3","1","1","2","1,0,0,1,1,0,1,0,1","0,0,1,1,0,1,0,1,1","2",""
"","html-keyboard-response","240","69154","0.0-240.0","354P56DE9LPPXB17SG8BED5H61G7SD","A276XK6HT76JZA","3RBI0I35XEP26UEZY8S8UZLEA1IY3E","","null","<img src=""img/flower2.png"" style=""width:200px; border:14px solid green;"">","null","","","","","","","","",""
"","image-keyboard-response","241","69337","0.0-241.0","354P56DE9LPPXB17SG8BED5H61G7SD","A276XK6HT76JZA","3RBI0I35XEP26UEZY8S8UZLEA1IY3E","","182","img/flower5.png","75","182","2","1","3","2","1,0,0,1,1,0,1,0,1","0,0,1,1,0,1,0,1,1","2",""
"","html-keyboard-response","242","69640","0.0-242.0","354P56DE9LPPXB17SG8BED5H61G7SD","A276XK6HT76JZA","3RBI0I35XEP26UEZY8S8UZLEA1IY3E","","null","<img src=""img/flower5.png"" style=""width:200px; border:14px solid green;"">","null","","","","","","","","",""
"","image-keyboard-response","243","69739","0.0-243.0","354P56DE9LPPXB17SG8BED5H61G7SD","A276XK6HT76JZA","3RBI0I35XEP26UEZY8S8UZLEA1IY3E","","98","img/flower5.png","75","99","2","1","3","2","1,0,0,1,1,0,1,0,1","0,0,1,1,0,1,0,1,1","2",""
"","html-keyboard-response","244","70040","0.0-244.0","354P56DE9LPPXB17SG8BED5H61G7SD","A276XK6HT76JZA","3RBI0I35XEP26UEZY8S8UZLEA1IY3E","","null","<img src=""img/flower5.png"" style=""width:200px; border:14px solid green;"">","null","","","","","","","","",""
"","image-keyboard-response","245","70258","0.0-245.0","354P56DE9LPPXB17SG8BED5H61G7SD","A276XK6HT76JZA","3RBI0I35XEP26UEZY8S8UZLEA1IY3E","","217","img/flower2.png","74","218","1","0","1","2","1,0,0,1,1,0,1,0,1","0,0,1,1,0,1,0,1,1","2",""
"","html-keyboard-response","246","70560","0.0-246.0","354P56DE9LPPXB17SG8BED5H61G7SD","A276XK6HT76JZA","3RBI0I35XEP26UEZY8S8UZLEA1IY3E","","null","<img src=""img/flower2.png"" style=""width:200px;border:14px solid red;"">","null","","","","","","","","",""
"","image-keyboard-response","247","70656","0.0-247.0","354P56DE9LPPXB17SG8BED5H61G7SD","A276XK6HT76JZA","3RBI0I35XEP26UEZY8S8UZLEA1IY3E","","95","img/flower2.png","74","97","1","0","1","2","1,0,0,1,1,0,1,0,1","0,0,1,1,0,1,0,1,1","2",""
"","html-keyboard-response","248","70958","0.0-248.0","354P56DE9LPPXB17SG8BED5H61G7SD","A276XK6HT76JZA","3RBI0I35XEP26UEZY8S8UZLEA1IY3E","","null","<img src=""img/flower2.png"" style=""width:200px;border:14px solid red;"">","null","","","","","","","","",""
"","image-keyboard-response","249","71103","0.0-249.0","354P56DE9LPPXB17SG8BED5H61G7SD","A276XK6HT76JZA","3RBI0I35XEP26UEZY8S8UZLEA1IY3E","","141","img/flower5.png","76","144","3","1","3","2","1,0,0,1,1,0,1,0,1","0,0,1,1,0,1,0,1,1","2",""
"","html-keyboard-response","250","71407","0.0-250.0","354P56DE9LPPXB17SG8BED5H61G7SD","A276XK6HT76JZA","3RBI0I35XEP26UEZY8S8UZLEA1IY3E","","null","<img src=""img/flower5.png"" style=""width:200px; border:14px solid green;"">","null","","","","","","","","",""
"","image-keyboard-response","251","71460","0.0-251.0","354P56DE9LPPXB17SG8BED5H61G7SD","A276XK6HT76JZA","3RBI0I35XEP26UEZY8S8UZLEA1IY3E","","51","img/flower6.png","76","53","3","1","2","2","1,0,0,1,1,0,1,0,1","0,0,1,1,0,1,0,1,1","2",""
"","html-keyboard-response","252","71765","0.0-252.0","354P56DE9LPPXB17SG8BED5H61G7SD","A276XK6HT76JZA","3RBI0I35XEP26UEZY8S8UZLEA1IY3E","","null","<img src=""img/flower6.png"" style=""width:200px; border:14px solid green;"">","null","","","","","","","","",""
"","image-keyboard-response","253","71795","0.0-253.0","354P56DE9LPPXB17SG8BED5H61G7SD","A276XK6HT76JZA","3RBI0I35XEP26UEZY8S8UZLEA1IY3E","","30","img/flower6.png","75","30","2","0","2","2","1,0,0,1,1,0,1,0,1","0,0,1,1,0,1,0,1,1","2",""
"","html-keyboard-response","254","72096","0.0-254.0","354P56DE9LPPXB17SG8BED5H61G7SD","A276XK6HT76JZA","3RBI0I35XEP26UEZY8S8UZLEA1IY3E","","null","<img src=""img/flower6.png"" style=""width:200px;border:14px solid red;"">","null","","","","","","","","",""
"","image-keyboard-response","255","72109","0.0-255.0","354P56DE9LPPXB17SG8BED5H61G7SD","A276XK6HT76JZA","3RBI0I35XEP26UEZY8S8UZLEA1IY3E","","12","img/flower5.png","74","13","1","0","3","2","1,0,0,1,1,0,1,0,1","0,0,1,1,0,1,0,1,1","2",""
"","html-keyboard-response","256","72411","0.0-256.0","354P56DE9LPPXB17SG8BED5H61G7SD","A276XK6HT76JZA","3RBI0I35XEP26UEZY8S8UZLEA1IY3E","","null","<img src=""img/flower5.png"" style=""width:200px;border:14px solid red;"">","null","","","","","","","","",""
"","image-keyboard-response","257","72529","0.0-257.0","354P56DE9LPPXB17SG8BED5H61G7SD","A276XK6HT76JZA","3RBI0I35XEP26UEZY8S8UZLEA1IY3E","","116","img/flower6.png","76","117","3","1","2","2","1,0,0,1,1,0,1,0,1","0,0,1,1,0,1,0,1,1","2",""
"","html-keyboard-response","258","72831","0.0-258.0","354P56DE9LPPXB17SG8BED5H61G7SD","A276XK6HT76JZA","3RBI0I35XEP26UEZY8S8UZLEA1IY3E","","null","<img src=""img/flower6.png"" style=""width:200px; border:14px solid green;"">","null","","","","","","","","",""
"","image-keyboard-response","259","72927","0.0-259.0","354P56DE9LPPXB17SG8BED5H61G7SD","A276XK6HT76JZA","3RBI0I35XEP26UEZY8S8UZLEA1IY3E","","95","img/flower6.png","74","96","1","1","2","2","1,0,0,1,1,0,1,0,1","0,0,1,1,0,1,0,1,1","2",""
"","html-keyboard-response","260","73230","0.0-260.0","354P56DE9LPPXB17SG8BED5H61G7SD","A276XK6HT76JZA","3RBI0I35XEP26UEZY8S8UZLEA1IY3E","","null","<img src=""img/flower6.png"" style=""width:200px; border:14px solid green;"">","null","","","","","","","","",""
"","image-keyboard-response","261","73366","0.0-261.0","354P56DE9LPPXB17SG8BED5H61G7SD","A276XK6HT76JZA","3RBI0I35XEP26UEZY8S8UZLEA1IY3E","","134","img/flower5.png","76","135","3","1","3","2","1,0,0,1,1,0,1,0,1","0,0,1,1,0,1,0,1,1","2",""
"","html-keyboard-response","262","73670","0.0-262.0","354P56DE9LPPXB17SG8BED5H61G7SD","A276XK6HT76JZA","3RBI0I35XEP26UEZY8S8UZLEA1IY3E","","null","<img src=""img/flower5.png"" style=""width:200px; border:14px solid green;"">","null","","","","","","","","",""
"","image-keyboard-response","263","73769","0.0-263.0","354P56DE9LPPXB17SG8BED5H61G7SD","A276XK6HT76JZA","3RBI0I35XEP26UEZY8S8UZLEA1IY3E","","98","img/flower5.png","74","99","1","0","3","2","1,0,0,1,1,0,1,0,1","0,0,1,1,0,1,0,1,1","2",""
"","html-keyboard-response","264","74070","0.0-264.0","354P56DE9LPPXB17SG8BED5H61G7SD","A276XK6HT76JZA","3RBI0I35XEP26UEZY8S8UZLEA1IY3E","","null","<img src=""img/flower5.png"" style=""width:200px;border:14px solid red;"">","null","","","","","","","","",""
"","image-keyboard-response","265","74116","0.0-265.0","354P56DE9LPPXB17SG8BED5H61G7SD","A276XK6HT76JZA","3RBI0I35XEP26UEZY8S8UZLEA1IY3E","","44","img/flower2.png","74","46","1","0","1","2","1,0,0,1,1,0,1,0,1","0,0,1,1,0,1,0,1,1","2",""
"","html-keyboard-response","266","74418","0.0-266.0","354P56DE9LPPXB17SG8BED5H61G7SD","A276XK6HT76JZA","3RBI0I35XEP26UEZY8S8UZLEA1IY3E","","null","<img src=""img/flower2.png"" style=""width:200px;border:14px solid red;"">","null","","","","","","","","",""
"","image-keyboard-response","267","74539","0.0-267.0","354P56DE9LPPXB17SG8BED5H61G7SD","A276XK6HT76JZA","3RBI0I35XEP26UEZY8S8UZLEA1IY3E","","119","img/flower5.png","75","121","2","1","3","2","1,0,0,1,1,0,1,0,1","0,0,1,1,0,1,0,1,1","2",""
"","html-keyboard-response","268","74839","0.0-268.0","354P56DE9LPPXB17SG8BED5H61G7SD","A276XK6HT76JZA","3RBI0I35XEP26UEZY8S8UZLEA1IY3E","","null","<img src=""img/flower5.png"" style=""width:200px; border:14px solid green;"">","null","","","","","","","","",""
"","image-keyboard-response","269","74861","0.0-269.0","354P56DE9LPPXB17SG8BED5H61G7SD","A276XK6HT76JZA","3RBI0I35XEP26UEZY8S8UZLEA1IY3E","","21","img/flower2.png","76","22","3","1","1","2","1,0,0,1,1,0,1,0,1","0,0,1,1,0,1,0,1,1","2",""
"","html-keyboard-response","270","75164","0.0-270.0","354P56DE9LPPXB17SG8BED5H61G7SD","A276XK6HT76JZA","3RBI0I35XEP26UEZY8S8UZLEA1IY3E","","null","<img src=""img/flower2.png"" style=""width:200px; border:14px solid green;"">","null","","","","","","","","",""
"","image-keyboard-response","271","75289","0.0-271.0","354P56DE9LPPXB17SG8BED5H61G7SD","A276XK6HT76JZA","3RBI0I35XEP26UEZY8S8UZLEA1IY3E","","122","img/flower2.png","76","124","3","1","1","2","1,0,0,1,1,0,1,0,1","0,0,1,1,0,1,0,1,1","2",""
"","html-keyboard-response","272","75591","0.0-272.0","354P56DE9LPPXB17SG8BED5H61G7SD","A276XK6HT76JZA","3RBI0I35XEP26UEZY8S8UZLEA1IY3E","","null","<img src=""img/flower2.png"" style=""width:200px; border:14px solid green;"">","null","","","","","","","","",""
"","image-keyboard-response","273","75752","0.0-273.0","354P56DE9LPPXB17SG8BED5H61G7SD","A276XK6HT76JZA","3RBI0I35XEP26UEZY8S8UZLEA1IY3E","","161","img/flower6.png","76","161","3","1","2","2","1,0,0,1,1,0,1,0,1","0,0,1,1,0,1,0,1,1","2",""
"","html-keyboard-response","274","76053","0.0-274.0","354P56DE9LPPXB17SG8BED5H61G7SD","A276XK6HT76JZA","3RBI0I35XEP26UEZY8S8UZLEA1IY3E","","null","<img src=""img/flower6.png"" style=""width:200px; border:14px solid green;"">","null","","","","","","","","",""
"","image-keyboard-response","275","76166","0.0-275.0","354P56DE9LPPXB17SG8BED5H61G7SD","A276XK6HT76JZA","3RBI0I35XEP26UEZY8S8UZLEA1IY3E","","110","img/flower6.png","74","113","1","1","2","2","1,0,0,1,1,0,1,0,1","0,0,1,1,0,1,0,1,1","2",""
"","html-keyboard-response","276","76469","0.0-276.0","354P56DE9LPPXB17SG8BED5H61G7SD","A276XK6HT76JZA","3RBI0I35XEP26UEZY8S8UZLEA1IY3E","","null","<img src=""img/flower6.png"" style=""width:200px; border:14px solid green;"">","null","","","","","","","","",""
"","image-keyboard-response","277","76547","0.0-277.0","354P56DE9LPPXB17SG8BED5H61G7SD","A276XK6HT76JZA","3RBI0I35XEP26UEZY8S8UZLEA1IY3E","","76","img/flower6.png","74","77","1","1","2","2","1,0,0,1,1,0,1,0,1","0,0,1,1,0,1,0,1,1","2",""
"","html-keyboard-response","278","76849","0.0-278.0","354P56DE9LPPXB17SG8BED5H61G7SD","A276XK6HT76JZA","3RBI0I35XEP26UEZY8S8UZLEA1IY3E","","null","<img src=""img/flower6.png"" style=""width:200px; border:14px solid green;"">","null","","","","","","","","",""
"","image-keyboard-response","279","76940","0.0-279.0","354P56DE9LPPXB17SG8BED5H61G7SD","A276XK6HT76JZA","3RBI0I35XEP26UEZY8S8UZLEA1IY3E","","90","img/flower5.png","75","91","2","1","3","2","1,0,0,1,1,0,1,0,1","0,0,1,1,0,1,0,1,1","2",""
"","html-keyboard-response","280","77241","0.0-280.0","354P56DE9LPPXB17SG8BED5H61G7SD","A276XK6HT76JZA","3RBI0I35XEP26UEZY8S8UZLEA1IY3E","","null","<img src=""img/flower5.png"" style=""width:200px; border:14px solid green;"">","null","","","","","","","","",""
"","image-keyboard-response","281","77372","0.0-281.0","354P56DE9LPPXB17SG8BED5H61G7SD","A276XK6HT76JZA","3RBI0I35XEP26UEZY8S8UZLEA1IY3E","","129","img/flower2.png","76","131","3","1","1","2","1,0,0,1,1,0,1,0,1","0,0,1,1,0,1,0,1,1","2",""
"","html-keyboard-response","282","77676","0.0-282.0","354P56DE9LPPXB17SG8BED5H61G7SD","A276XK6HT76JZA","3RBI0I35XEP26UEZY8S8UZLEA1IY3E","","null","<img src=""img/flower2.png"" style=""width:200px; border:14px solid green;"">","null","","","","","","","","",""
"","image-keyboard-response","283","77768","0.0-283.0","354P56DE9LPPXB17SG8BED5H61G7SD","A276XK6HT76JZA","3RBI0I35XEP26UEZY8S8UZLEA1IY3E","","90","img/flower2.png","75","92","2","0","1","2","1,0,0,1,1,0,1,0,1","0,0,1,1,0,1,0,1,1","2",""
"","html-keyboard-response","284","78070","0.0-284.0","354P56DE9LPPXB17SG8BED5H61G7SD","A276XK6HT76JZA","3RBI0I35XEP26UEZY8S8UZLEA1IY3E","","null","<img src=""img/flower2.png"" style=""width:200px;border:14px solid red;"">","null","","","","","","","","",""
"","image-keyboard-response","285","78152","0.0-285.0","354P56DE9LPPXB17SG8BED5H61G7SD","A276XK6HT76JZA","3RBI0I35XEP26UEZY8S8UZLEA1IY3E","","80","img/flower2.png","75","82","2","0","1","2","1,0,0,1,1,0,1,0,1","0,0,1,1,0,1,0,1,1","2",""
"","html-keyboard-response","286","78457","0.0-286.0","354P56DE9LPPXB17SG8BED5H61G7SD","A276XK6HT76JZA","3RBI0I35XEP26UEZY8S8UZLEA1IY3E","","null","<img src=""img/flower2.png"" style=""width:200px;border:14px solid red;"">","null","","","","","","","","",""
"","image-keyboard-response","287","78571","0.0-287.0","354P56DE9LPPXB17SG8BED5H61G7SD","A276XK6HT76JZA","3RBI0I35XEP26UEZY8S8UZLEA1IY3E","","112","img/flower2.png","74","114","1","0","1","2","1,0,0,1,1,0,1,0,1","0,0,1,1,0,1,0,1,1","2",""
"","html-keyboard-response","288","78873","0.0-288.0","354P56DE9LPPXB17SG8BED5H61G7SD","A276XK6HT76JZA","3RBI0I35XEP26UEZY8S8UZLEA1IY3E","","null","<img src=""img/flower2.png"" style=""width:200px;border:14px solid red;"">","null","","","","","","","","",""
"","image-keyboard-response","289","78950","0.0-289.0","354P56DE9LPPXB17SG8BED5H61G7SD","A276XK6HT76JZA","3RBI0I35XEP26UEZY8S8UZLEA1IY3E","","75","img/flower2.png","76","77","3","1","1","2","1,0,0,1,1,0,1,0,1","0,0,1,1,0,1,0,1,1","2",""
"","html-keyboard-response","290","79252","0.0-290.0","354P56DE9LPPXB17SG8BED5H61G7SD","A276XK6HT76JZA","3RBI0I35XEP26UEZY8S8UZLEA1IY3E","","null","<img src=""img/flower2.png"" style=""width:200px; border:14px solid green;"">","null","","","","","","","","",""
"","image-keyboard-response","291","79364","0.0-291.0","354P56DE9LPPXB17SG8BED5H61G7SD","A276XK6HT76JZA","3RBI0I35XEP26UEZY8S8UZLEA1IY3E","","111","img/flower2.png","74","111","1","0","1","2","1,0,0,1,1,0,1,0,1","0,0,1,1,0,1,0,1,1","2",""
"","html-keyboard-response","292","79665","0.0-292.0","354P56DE9LPPXB17SG8BED5H61G7SD","A276XK6HT76JZA","3RBI0I35XEP26UEZY8S8UZLEA1IY3E","","null","<img src=""img/flower2.png"" style=""width:200px;border:14px solid red;"">","null","","","","","","","","",""
"","image-keyboard-response","293","79818","0.0-293.0","354P56DE9LPPXB17SG8BED5H61G7SD","A276XK6HT76JZA","3RBI0I35XEP26UEZY8S8UZLEA1IY3E","","151","img/flower6.png","74","153","1","1","2","2","1,0,0,1,1,0,1,0,1","0,0,1,1,0,1,0,1,1","2",""
"","html-keyboard-response","294","80120","0.0-294.0","354P56DE9LPPXB17SG8BED5H61G7SD","A276XK6HT76JZA","3RBI0I35XEP26UEZY8S8UZLEA1IY3E","","null","<img src=""img/flower6.png"" style=""width:200px; border:14px solid green;"">","null","","","","","","","","",""
"","image-keyboard-response","295","80249","0.0-295.0","354P56DE9LPPXB17SG8BED5H61G7SD","A276XK6HT76JZA","3RBI0I35XEP26UEZY8S8UZLEA1IY3E","","128","img/flower6.png","74","129","1","1","2","2","1,0,0,1,1,0,1,0,1","0,0,1,1,0,1,0,1,1","2",""
"","html-keyboard-response","296","80551","0.0-296.0","354P56DE9LPPXB17SG8BED5H61G7SD","A276XK6HT76JZA","3RBI0I35XEP26UEZY8S8UZLEA1IY3E","","null","<img src=""img/flower6.png"" style=""width:200px; border:14px solid green;"">","null","","","","","","","","",""
"","image-keyboard-response","297","80744","0.0-297.0","354P56DE9LPPXB17SG8BED5H61G7SD","A276XK6HT76JZA","3RBI0I35XEP26UEZY8S8UZLEA1IY3E","","192","img/flower6.png","74","193","1","1","2","2","1,0,0,1,1,0,1,0,1","0,0,1,1,0,1,0,1,1","2",""
"","html-keyboard-response","298","81046","0.0-298.0","354P56DE9LPPXB17SG8BED5H61G7SD","A276XK6HT76JZA","3RBI0I35XEP26UEZY8S8UZLEA1IY3E","","null","<img src=""img/flower6.png"" style=""width:200px; border:14px solid green;"">","null","","","","","","","","",""
"","image-keyboard-response","299","81198","0.0-299.0","354P56DE9LPPXB17SG8BED5H61G7SD","A276XK6HT76JZA","3RBI0I35XEP26UEZY8S8UZLEA1IY3E","","151","img/flower6.png","75","152","2","0","2","2","1,0,0,1,1,0,1,0,1","0,0,1,1,0,1,0,1,1","2",""
"","html-keyboard-response","300","81500","0.0-300.0","354P56DE9LPPXB17SG8BED5H61G7SD","A276XK6HT76JZA","3RBI0I35XEP26UEZY8S8UZLEA1IY3E","","null","<img src=""img/flower6.png"" style=""width:200px;border:14px solid red;"">","null","","","","","","","","",""
"","image-keyboard-response","301","81579","0.0-301.0","354P56DE9LPPXB17SG8BED5H61G7SD","A276XK6HT76JZA","3RBI0I35XEP26UEZY8S8UZLEA1IY3E","","77","img/flower2.png","74","78","1","0","1","2","1,0,0,1,1,0,1,0,1","0,0,1,1,0,1,0,1,1","2",""
"","html-keyboard-response","302","81879","0.0-302.0","354P56DE9LPPXB17SG8BED5H61G7SD","A276XK6HT76JZA","3RBI0I35XEP26UEZY8S8UZLEA1IY3E","","null","<img src=""img/flower2.png"" style=""width:200px;border:14px solid red;"">","null","","","","","","","","",""
"","image-keyboard-response","303","81953","0.0-303.0","354P56DE9LPPXB17SG8BED5H61G7SD","A276XK6HT76JZA","3RBI0I35XEP26UEZY8S8UZLEA1IY3E","","73","img/flower6.png","74","74","1","1","2","2","1,0,0,1,1,0,1,0,1","0,0,1,1,0,1,0,1,1","2",""
"","html-keyboard-response","304","82254","0.0-304.0","354P56DE9LPPXB17SG8BED5H61G7SD","A276XK6HT76JZA","3RBI0I35XEP26UEZY8S8UZLEA1IY3E","","null","<img src=""img/flower6.png"" style=""width:200px; border:14px solid green;"">","null","","","","","","","","",""
"","image-keyboard-response","305","82353","0.0-305.0","354P56DE9LPPXB17SG8BED5H61G7SD","A276XK6HT76JZA","3RBI0I35XEP26UEZY8S8UZLEA1IY3E","","98","img/flower2.png","76","99","3","1","1","2","1,0,0,1,1,0,1,0,1","0,0,1,1,0,1,0,1,1","2",""
"","html-keyboard-response","306","82655","0.0-306.0","354P56DE9LPPXB17SG8BED5H61G7SD","A276XK6HT76JZA","3RBI0I35XEP26UEZY8S8UZLEA1IY3E","","null","<img src=""img/flower2.png"" style=""width:200px; border:14px solid green;"">","null","","","","","","","","",""
"","image-keyboard-response","307","82733","0.0-307.0","354P56DE9LPPXB17SG8BED5H61G7SD","A276XK6HT76JZA","3RBI0I35XEP26UEZY8S8UZLEA1IY3E","","77","img/flower6.png","74","78","1","1","2","2","1,0,0,1,1,0,1,0,1","0,0,1,1,0,1,0,1,1","2",""
"","html-keyboard-response","308","83037","0.0-308.0","354P56DE9LPPXB17SG8BED5H61G7SD","A276XK6HT76JZA","3RBI0I35XEP26UEZY8S8UZLEA1IY3E","","null","<img src=""img/flower6.png"" style=""width:200px; border:14px solid green;"">","null","","","","","","","","",""
"","image-keyboard-response","309","83093","0.0-309.0","354P56DE9LPPXB17SG8BED5H61G7SD","A276XK6HT76JZA","3RBI0I35XEP26UEZY8S8UZLEA1IY3E","","55","img/flower6.png","74","56","1","1","2","2","1,0,0,1,1,0,1,0,1","0,0,1,1,0,1,0,1,1","2",""
"","html-keyboard-response","310","83394","0.0-310.0","354P56DE9LPPXB17SG8BED5H61G7SD","A276XK6HT76JZA","3RBI0I35XEP26UEZY8S8UZLEA1IY3E","","null","<img src=""img/flower6.png"" style=""width:200px; border:14px solid green;"">","null","","","","","","","","",""
"","image-keyboard-response","311","83572","0.0-311.0","354P56DE9LPPXB17SG8BED5H61G7SD","A276XK6HT76JZA","3RBI0I35XEP26UEZY8S8UZLEA1IY3E","","176","img/flower5.png","76","178","3","1","3","2","1,0,0,1,1,0,1,0,1","0,0,1,1,0,1,0,1,1","2",""
"","html-keyboard-response","312","83874","0.0-312.0","354P56DE9LPPXB17SG8BED5H61G7SD","A276XK6HT76JZA","3RBI0I35XEP26UEZY8S8UZLEA1IY3E","","null","<img src=""img/flower5.png"" style=""width:200px; border:14px solid green;"">","null","","","","","","","","",""
"","image-keyboard-response","313","83893","0.0-313.0","354P56DE9LPPXB17SG8BED5H61G7SD","A276XK6HT76JZA","3RBI0I35XEP26UEZY8S8UZLEA1IY3E","","17","img/flower6.png","76","18","3","1","2","2","1,0,0,1,1,0,1,0,1","0,0,1,1,0,1,0,1,1","2",""
"","html-keyboard-response","314","84195","0.0-314.0","354P56DE9LPPXB17SG8BED5H61G7SD","A276XK6HT76JZA","3RBI0I35XEP26UEZY8S8UZLEA1IY3E","","null","<img src=""img/flower6.png"" style=""width:200px; border:14px solid green;"">","null","","","","","","","","",""
"","image-keyboard-response","315","84384","0.0-315.0","354P56DE9LPPXB17SG8BED5H61G7SD","A276XK6HT76JZA","3RBI0I35XEP26UEZY8S8UZLEA1IY3E","","188","img/flower5.png","76","190","3","1","3","2","1,0,0,1,1,0,1,0,1","0,0,1,1,0,1,0,1,1","2",""
"","html-keyboard-response","316","84685","0.0-316.0","354P56DE9LPPXB17SG8BED5H61G7SD","A276XK6HT76JZA","3RBI0I35XEP26UEZY8S8UZLEA1IY3E","","null","<img src=""img/flower5.png"" style=""width:200px; border:14px solid green;"">","null","","","","","","","","",""
"","image-keyboard-response","317","84776","0.0-317.0","354P56DE9LPPXB17SG8BED5H61G7SD","A276XK6HT76JZA","3RBI0I35XEP26UEZY8S8UZLEA1IY3E","","90","img/flower5.png","76","91","3","1","3","2","1,0,0,1,1,0,1,0,1","0,0,1,1,0,1,0,1,1","2",""
"","html-keyboard-response","318","85097","0.0-318.0","354P56DE9LPPXB17SG8BED5H61G7SD","A276XK6HT76JZA","3RBI0I35XEP26UEZY8S8UZLEA1IY3E","","null","<img src=""img/flower5.png"" style=""width:200px; border:14px solid green;"">","null","","","","","","","","",""
"","image-keyboard-response","319","85257","0.0-319.0","354P56DE9LPPXB17SG8BED5H61G7SD","A276XK6HT76JZA","3RBI0I35XEP26UEZY8S8UZLEA1IY3E","","157","img/flower6.png","76","158","3","1","2","2","1,0,0,1,1,0,1,0,1","0,0,1,1,0,1,0,1,1","2",""
"","html-keyboard-response","320","85560","0.0-320.0","354P56DE9LPPXB17SG8BED5H61G7SD","A276XK6HT76JZA","3RBI0I35XEP26UEZY8S8UZLEA1IY3E","","null","<img src=""img/flower6.png"" style=""width:200px; border:14px solid green;"">","null","","","","","","","","",""
"","image-keyboard-response","321","85689","0.0-321.0","354P56DE9LPPXB17SG8BED5H61G7SD","A276XK6HT76JZA","3RBI0I35XEP26UEZY8S8UZLEA1IY3E","","128","img/flower5.png","75","129","2","1","3","2","1,0,0,1,1,0,1,0,1","0,0,1,1,0,1,0,1,1","2",""
"","html-keyboard-response","322","85991","0.0-322.0","354P56DE9LPPXB17SG8BED5H61G7SD","A276XK6HT76JZA","3RBI0I35XEP26UEZY8S8UZLEA1IY3E","","null","<img src=""img/flower5.png"" style=""width:200px; border:14px solid green;"">","null","","","","","","","","",""
"","image-keyboard-response","323","86121","0.0-323.0","354P56DE9LPPXB17SG8BED5H61G7SD","A276XK6HT76JZA","3RBI0I35XEP26UEZY8S8UZLEA1IY3E","","128","img/flower2.png","76","130","3","1","1","2","1,0,0,1,1,0,1,0,1","0,0,1,1,0,1,0,1,1","2",""
"","html-keyboard-response","324","86424","0.0-324.0","354P56DE9LPPXB17SG8BED5H61G7SD","A276XK6HT76JZA","3RBI0I35XEP26UEZY8S8UZLEA1IY3E","","null","<img src=""img/flower2.png"" style=""width:200px; border:14px solid green;"">","null","","","","","","","","",""
"","image-keyboard-response","325","86609","0.0-325.0","354P56DE9LPPXB17SG8BED5H61G7SD","A276XK6HT76JZA","3RBI0I35XEP26UEZY8S8UZLEA1IY3E","","185","img/flower2.png","74","185","1","0","1","2","1,0,0,1,1,0,1,0,1","0,0,1,1,0,1,0,1,1","2",""
"","html-keyboard-response","326","86910","0.0-326.0","354P56DE9LPPXB17SG8BED5H61G7SD","A276XK6HT76JZA","3RBI0I35XEP26UEZY8S8UZLEA1IY3E","","null","<img src=""img/flower2.png"" style=""width:200px;border:14px solid red;"">","null","","","","","","","","",""
"","image-keyboard-response","327","86980","0.0-327.0","354P56DE9LPPXB17SG8BED5H61G7SD","A276XK6HT76JZA","3RBI0I35XEP26UEZY8S8UZLEA1IY3E","","69","img/flower6.png","74","70","1","1","2","2","1,0,0,1,1,0,1,0,1","0,0,1,1,0,1,0,1,1","2",""
"","html-keyboard-response","328","87282","0.0-328.0","354P56DE9LPPXB17SG8BED5H61G7SD","A276XK6HT76JZA","3RBI0I35XEP26UEZY8S8UZLEA1IY3E","","null","<img src=""img/flower6.png"" style=""width:200px; border:14px solid green;"">","null","","","","","","","","",""
"","image-keyboard-response","329","87400","0.0-329.0","354P56DE9LPPXB17SG8BED5H61G7SD","A276XK6HT76JZA","3RBI0I35XEP26UEZY8S8UZLEA1IY3E","","118","img/flower2.png","74","119","1","0","1","2","1,0,0,1,1,0,1,0,1","0,0,1,1,0,1,0,1,1","2",""
"","html-keyboard-response","330","87713","0.0-330.0","354P56DE9LPPXB17SG8BED5H61G7SD","A276XK6HT76JZA","3RBI0I35XEP26UEZY8S8UZLEA1IY3E","","null","<img src=""img/flower2.png"" style=""width:200px;border:14px solid red;"">","null","","","","","","","","",""
"","image-keyboard-response","331","87856","0.0-331.0","354P56DE9LPPXB17SG8BED5H61G7SD","A276XK6HT76JZA","3RBI0I35XEP26UEZY8S8UZLEA1IY3E","","141","img/flower2.png","74","143","1","0","1","2","1,0,0,1,1,0,1,0,1","0,0,1,1,0,1,0,1,1","2",""
"","html-keyboard-response","332","88160","0.0-332.0","354P56DE9LPPXB17SG8BED5H61G7SD","A276XK6HT76JZA","3RBI0I35XEP26UEZY8S8UZLEA1IY3E","","null","<img src=""img/flower2.png"" style=""width:200px;border:14px solid red;"">","null","","","","","","","","",""
"","image-keyboard-response","333","88256","0.0-333.0","354P56DE9LPPXB17SG8BED5H61G7SD","A276XK6HT76JZA","3RBI0I35XEP26UEZY8S8UZLEA1IY3E","","94","img/flower6.png","76","96","3","1","2","2","1,0,0,1,1,0,1,0,1","0,0,1,1,0,1,0,1,1","2",""
"","html-keyboard-response","334","88557","0.0-334.0","354P56DE9LPPXB17SG8BED5H61G7SD","A276XK6HT76JZA","3RBI0I35XEP26UEZY8S8UZLEA1IY3E","","null","<img src=""img/flower6.png"" style=""width:200px; border:14px solid green;"">","null","","","","","","","","",""
"","image-keyboard-response","335","88572","0.0-335.0","354P56DE9LPPXB17SG8BED5H61G7SD","A276XK6HT76JZA","3RBI0I35XEP26UEZY8S8UZLEA1IY3E","","12","img/flower6.png","74","14","1","1","2","2","1,0,0,1,1,0,1,0,1","0,0,1,1,0,1,0,1,1","2",""
"","html-keyboard-response","336","88897","0.0-336.0","354P56DE9LPPXB17SG8BED5H61G7SD","A276XK6HT76JZA","3RBI0I35XEP26UEZY8S8UZLEA1IY3E","","null","<img src=""img/flower6.png"" style=""width:200px; border:14px solid green;"">","null","","","","","","","","",""
"","image-keyboard-response","337","88964","0.0-337.0","354P56DE9LPPXB17SG8BED5H61G7SD","A276XK6HT76JZA","3RBI0I35XEP26UEZY8S8UZLEA1IY3E","","65","img/flower5.png","74","66","1","0","3","2","1,0,0,1,1,0,1,0,1","0,0,1,1,0,1,0,1,1","2",""
"","html-keyboard-response","338","89265","0.0-338.0","354P56DE9LPPXB17SG8BED5H61G7SD","A276XK6HT76JZA","3RBI0I35XEP26UEZY8S8UZLEA1IY3E","","null","<img src=""img/flower5.png"" style=""width:200px;border:14px solid red;"">","null","","","","","","","","",""
"","image-keyboard-response","339","89368","0.0-339.0","354P56DE9LPPXB17SG8BED5H61G7SD","A276XK6HT76JZA","3RBI0I35XEP26UEZY8S8UZLEA1IY3E","","102","img/flower6.png","76","103","3","1","2","2","1,0,0,1,1,0,1,0,1","0,0,1,1,0,1,0,1,1","2",""
"","html-keyboard-response","340","89670","0.0-340.0","354P56DE9LPPXB17SG8BED5H61G7SD","A276XK6HT76JZA","3RBI0I35XEP26UEZY8S8UZLEA1IY3E","","null","<img src=""img/flower6.png"" style=""width:200px; border:14px solid green;"">","null","","","","","","","","",""
"","image-keyboard-response","341","89898","0.0-341.0","354P56DE9LPPXB17SG8BED5H61G7SD","A276XK6HT76JZA","3RBI0I35XEP26UEZY8S8UZLEA1IY3E","","227","img/flower5.png","76","229","3","1","3","2","1,0,0,1,1,0,1,0,1","0,0,1,1,0,1,0,1,1","2",""
"","html-keyboard-response","342","90201","0.0-342.0","354P56DE9LPPXB17SG8BED5H61G7SD","A276XK6HT76JZA","3RBI0I35XEP26UEZY8S8UZLEA1IY3E","","null","<img src=""img/flower5.png"" style=""width:200px; border:14px solid green;"">","null","","","","","","","","",""
"","image-keyboard-response","343","90240","0.0-343.0","354P56DE9LPPXB17SG8BED5H61G7SD","A276XK6HT76JZA","3RBI0I35XEP26UEZY8S8UZLEA1IY3E","","38","img/flower5.png","76","39","3","1","3","2","1,0,0,1,1,0,1,0,1","0,0,1,1,0,1,0,1,1","2",""
"","html-keyboard-response","344","90548","0.0-344.0","354P56DE9LPPXB17SG8BED5H61G7SD","A276XK6HT76JZA","3RBI0I35XEP26UEZY8S8UZLEA1IY3E","","null","<img src=""img/flower5.png"" style=""width:200px; border:14px solid green;"">","null","","","","","","","","",""
"","image-keyboard-response","345","90563","0.0-345.0","354P56DE9LPPXB17SG8BED5H61G7SD","A276XK6HT76JZA","3RBI0I35XEP26UEZY8S8UZLEA1IY3E","","13","img/flower6.png","74","15","1","1","2","2","1,0,0,1,1,0,1,0,1","0,0,1,1,0,1,0,1,1","2",""
"","html-keyboard-response","346","90864","0.0-346.0","354P56DE9LPPXB17SG8BED5H61G7SD","A276XK6HT76JZA","3RBI0I35XEP26UEZY8S8UZLEA1IY3E","","null","<img src=""img/flower6.png"" style=""width:200px; border:14px solid green;"">","null","","","","","","","","",""
"","image-keyboard-response","347","91006","0.0-347.0","354P56DE9LPPXB17SG8BED5H61G7SD","A276XK6HT76JZA","3RBI0I35XEP26UEZY8S8UZLEA1IY3E","","140","img/flower6.png","75","143","2","0","2","2","1,0,0,1,1,0,1,0,1","0,0,1,1,0,1,0,1,1","2",""
"","html-keyboard-response","348","91307","0.0-348.0","354P56DE9LPPXB17SG8BED5H61G7SD","A276XK6HT76JZA","3RBI0I35XEP26UEZY8S8UZLEA1IY3E","","null","<img src=""img/flower6.png"" style=""width:200px;border:14px solid red;"">","null","","","","","","","","",""
"","image-keyboard-response","349","91414","0.0-349.0","354P56DE9LPPXB17SG8BED5H61G7SD","A276XK6HT76JZA","3RBI0I35XEP26UEZY8S8UZLEA1IY3E","","106","img/flower5.png","74","107","1","0","3","2","1,0,0,1,1,0,1,0,1","0,0,1,1,0,1,0,1,1","2",""
"","html-keyboard-response","350","91717","0.0-350.0","354P56DE9LPPXB17SG8BED5H61G7SD","A276XK6HT76JZA","3RBI0I35XEP26UEZY8S8UZLEA1IY3E","","null","<img src=""img/flower5.png"" style=""width:200px;border:14px solid red;"">","null","","","","","","","","",""
"","image-keyboard-response","351","91820","0.0-351.0","354P56DE9LPPXB17SG8BED5H61G7SD","A276XK6HT76JZA","3RBI0I35XEP26UEZY8S8UZLEA1IY3E","","102","img/flower6.png","75","103","2","0","2","2","1,0,0,1,1,0,1,0,1","0,0,1,1,0,1,0,1,1","2",""
"","html-keyboard-response","352","92123","0.0-352.0","354P56DE9LPPXB17SG8BED5H61G7SD","A276XK6HT76JZA","3RBI0I35XEP26UEZY8S8UZLEA1IY3E","","null","<img src=""img/flower6.png"" style=""width:200px;border:14px solid red;"">","null","","","","","","","","",""
"","image-keyboard-response","353","92241","0.0-353.0","354P56DE9LPPXB17SG8BED5H61G7SD","A276XK6HT76JZA","3RBI0I35XEP26UEZY8S8UZLEA1IY3E","","118","img/flower6.png","75","118","2","0","2","2","1,0,0,1,1,0,1,0,1","0,0,1,1,0,1,0,1,1","2",""
"","html-keyboard-response","354","92542","0.0-354.0","354P56DE9LPPXB17SG8BED5H61G7SD","A276XK6HT76JZA","3RBI0I35XEP26UEZY8S8UZLEA1IY3E","","null","<img src=""img/flower6.png"" style=""width:200px;border:14px solid red;"">","null","","","","","","","","",""
"","image-keyboard-response","355","92658","0.0-355.0","354P56DE9LPPXB17SG8BED5H61G7SD","A276XK6HT76JZA","3RBI0I35XEP26UEZY8S8UZLEA1IY3E","","114","img/flower6.png","76","115","3","1","2","2","1,0,0,1,1,0,1,0,1","0,0,1,1,0,1,0,1,1","2",""
"","html-keyboard-response","356","92960","0.0-356.0","354P56DE9LPPXB17SG8BED5H61G7SD","A276XK6HT76JZA","3RBI0I35XEP26UEZY8S8UZLEA1IY3E","","null","<img src=""img/flower6.png"" style=""width:200px; border:14px solid green;"">","null","","","","","","","","",""
"","image-keyboard-response","357","93046","0.0-357.0","354P56DE9LPPXB17SG8BED5H61G7SD","A276XK6HT76JZA","3RBI0I35XEP26UEZY8S8UZLEA1IY3E","","85","img/flower5.png","74","86","1","0","3","2","1,0,0,1,1,0,1,0,1","0,0,1,1,0,1,0,1,1","2",""
"","html-keyboard-response","358","93347","0.0-358.0","354P56DE9LPPXB17SG8BED5H61G7SD","A276XK6HT76JZA","3RBI0I35XEP26UEZY8S8UZLEA1IY3E","","null","<img src=""img/flower5.png"" style=""width:200px;border:14px solid red;"">","null","","","","","","","","",""
"","image-keyboard-response","359","93416","0.0-359.0","354P56DE9LPPXB17SG8BED5H61G7SD","A276XK6HT76JZA","3RBI0I35XEP26UEZY8S8UZLEA1IY3E","","68","img/flower5.png","74","68","1","0","3","2","1,0,0,1,1,0,1,0,1","0,0,1,1,0,1,0,1,1","2",""
"","html-keyboard-response","360","93745","0.0-360.0","354P56DE9LPPXB17SG8BED5H61G7SD","A276XK6HT76JZA","3RBI0I35XEP26UEZY8S8UZLEA1IY3E","","null","<img src=""img/flower5.png"" style=""width:200px;border:14px solid red;"">","null","","","","","","","","",""
"","image-keyboard-response","361","93811","0.0-361.0","354P56DE9LPPXB17SG8BED5H61G7SD","A276XK6HT76JZA","3RBI0I35XEP26UEZY8S8UZLEA1IY3E","","63","img/flower6.png","74","66","1","1","2","2","1,0,0,1,1,0,1,0,1","0,0,1,1,0,1,0,1,1","2",""
"","html-keyboard-response","362","94112","0.0-362.0","354P56DE9LPPXB17SG8BED5H61G7SD","A276XK6HT76JZA","3RBI0I35XEP26UEZY8S8UZLEA1IY3E","","null","<img src=""img/flower6.png"" style=""width:200px; border:14px solid green;"">","null","","","","","","","","",""
"","instructions","363","98626","0.0-363.0","354P56DE9LPPXB17SG8BED5H61G7SD","A276XK6HT76JZA","3RBI0I35XEP26UEZY8S8UZLEA1IY3E","[{""page_index"":0,""viewing_time"":4512}]","4513","","","","","","","","","","",""
"","survey-text","364","101834","0.0-364.0","354P56DE9LPPXB17SG8BED5H61G7SD","A276XK6HT76JZA","3RBI0I35XEP26UEZY8S8UZLEA1IY3E","","3200","","","","","","","","","","","{""Q0"":""A276XK6HT76JZA""}"
