"success","trial_type","trial_index","time_elapsed","internal_node_id","assignmentID","mturkID","hitID","view_history","rt","stimulus","key_press","reactionTime","a","r","s","cond","reward_cond","reward_cond_actual","reward_matrix_idx","responses"
"true","fullscreen","0","167167","0.0-0.0","3WRFBPLXRBAAGF8FI8OZ22JVEWJ3NH","A27LCUA35LPVM8","3TKXBROM5TWR181JXBYSOI8FGFVJIU","","","","","","","","","","","","",""
"","instructions","1","198645","0.0-1.0","3WRFBPLXRBAAGF8FI8OZ22JVEWJ3NH","A27LCUA35LPVM8","3TKXBROM5TWR181JXBYSOI8FGFVJIU","[{""page_index"":0,""viewing_time"":2290.5999999046326},{""page_index"":1,""viewing_time"":2991.7999999523163},{""page_index"":2,""viewing_time"":3247.7999999523163},{""page_index"":3,""viewing_time"":2080.100000143051},{""page_index"":4,""viewing_time"":5984},{""page_index"":5,""viewing_time"":4392},{""page_index"":6,""viewing_time"":7896.099999904633},{""page_index"":7,""viewing_time"":2591.9000000953674}]","31475","","","","","","","","","","",""
"","image-keyboard-response","2","199302","0.0-2.0","3WRFBPLXRBAAGF8FI8OZ22JVEWJ3NH","A27LCUA35LPVM8","3TKXBROM5TWR181JXBYSOI8FGFVJIU","","654.7999999523163","img/flower3.png","75","656.3000001907349","2","0","1","2","1,0,0,1,1,0,1,0,1","0,0,1,1,0,1,0,1,1","2",""
"","html-keyboard-response","3","199605","0.0-3.0","3WRFBPLXRBAAGF8FI8OZ22JVEWJ3NH","A27LCUA35LPVM8","3TKXBROM5TWR181JXBYSOI8FGFVJIU","","null","<img src=""img/flower3.png"" style=""width:200px;border:14px solid red;"">","null","","","","","","","","",""
"","image-keyboard-response","4","199804","0.0-4.0","3WRFBPLXRBAAGF8FI8OZ22JVEWJ3NH","A27LCUA35LPVM8","3TKXBROM5TWR181JXBYSOI8FGFVJIU","","198.39999985694885","img/flower4.png","76","199.20000004768372","3","1","2","2","1,0,0,1,1,0,1,0,1","0,0,1,1,0,1,0,1,1","2",""
"","html-keyboard-response","5","200106","0.0-5.0","3WRFBPLXRBAAGF8FI8OZ22JVEWJ3NH","A27LCUA35LPVM8","3TKXBROM5TWR181JXBYSOI8FGFVJIU","","null","<img src=""img/flower4.png"" style=""width:200px; border:14px solid green;"">","null","","","","","","","","",""
"","image-keyboard-response","6","201213","0.0-6.0","3WRFBPLXRBAAGF8FI8OZ22JVEWJ3NH","A27LCUA35LPVM8","3TKXBROM5TWR181JXBYSOI8FGFVJIU","","1105.5","img/flower5.png","75","1106.9000000953674","2","1","3","2","1,0,0,1,1,0,1,0,1","0,0,1,1,0,1,0,1,1","2",""
"","html-keyboard-response","7","201515","0.0-7.0","3WRFBPLXRBAAGF8FI8OZ22JVEWJ3NH","A27LCUA35LPVM8","3TKXBROM5TWR181JXBYSOI8FGFVJIU","","null","<img src=""img/flower5.png"" style=""width:200px; border:14px solid green;"">","null","","","","","","","","",""
"","image-keyboard-response","8","202148","0.0-8.0","3WRFBPLXRBAAGF8FI8OZ22JVEWJ3NH","A27LCUA35LPVM8","3TKXBROM5TWR181JXBYSOI8FGFVJIU","","632","img/flower4.png","76","633.2000000476837","3","1","2","2","1,0,0,1,1,0,1,0,1","0,0,1,1,0,1,0,1,1","2",""
"","html-keyboard-response","9","202450","0.0-9.0","3WRFBPLXRBAAGF8FI8OZ22JVEWJ3NH","A27LCUA35LPVM8","3TKXBROM5TWR181JXBYSOI8FGFVJIU","","null","<img src=""img/flower4.png"" style=""width:200px; border:14px solid green;"">","null","","","","","","","","",""
"","image-keyboard-response","10","203437","0.0-10.0","3WRFBPLXRBAAGF8FI8OZ22JVEWJ3NH","A27LCUA35LPVM8","3TKXBROM5TWR181JXBYSOI8FGFVJIU","","984.8000001907349","img/flower4.png","76","986.2999999523163","3","1","2","2","1,0,0,1,1,0,1,0,1","0,0,1,1,0,1,0,1,1","2",""
"","html-keyboard-response","11","203740","0.0-11.0","3WRFBPLXRBAAGF8FI8OZ22JVEWJ3NH","A27LCUA35LPVM8","3TKXBROM5TWR181JXBYSOI8FGFVJIU","","null","<img src=""img/flower4.png"" style=""width:200px; border:14px solid green;"">","null","","","","","","","","",""
"","image-keyboard-response","12","205021","0.0-12.0","3WRFBPLXRBAAGF8FI8OZ22JVEWJ3NH","A27LCUA35LPVM8","3TKXBROM5TWR181JXBYSOI8FGFVJIU","","1279.5","img/flower4.png","76","1280.8000001907349","3","1","2","2","1,0,0,1,1,0,1,0,1","0,0,1,1,0,1,0,1,1","2",""
"","html-keyboard-response","13","205323","0.0-13.0","3WRFBPLXRBAAGF8FI8OZ22JVEWJ3NH","A27LCUA35LPVM8","3TKXBROM5TWR181JXBYSOI8FGFVJIU","","null","<img src=""img/flower4.png"" style=""width:200px; border:14px solid green;"">","null","","","","","","","","",""
"","image-keyboard-response","14","205917","0.0-14.0","3WRFBPLXRBAAGF8FI8OZ22JVEWJ3NH","A27LCUA35LPVM8","3TKXBROM5TWR181JXBYSOI8FGFVJIU","","592.8999998569489","img/flower3.png","75","594.5","2","0","1","2","1,0,0,1,1,0,1,0,1","0,0,1,1,0,1,0,1,1","2",""
"","html-keyboard-response","15","206220","0.0-15.0","3WRFBPLXRBAAGF8FI8OZ22JVEWJ3NH","A27LCUA35LPVM8","3TKXBROM5TWR181JXBYSOI8FGFVJIU","","null","<img src=""img/flower3.png"" style=""width:200px;border:14px solid red;"">","null","","","","","","","","",""
"","image-keyboard-response","16","208222","0.0-16.0","3WRFBPLXRBAAGF8FI8OZ22JVEWJ3NH","A27LCUA35LPVM8","3TKXBROM5TWR181JXBYSOI8FGFVJIU","","","img/flower3.png","","2002.1000001430511","-1","0","1","2","1,0,0,1,1,0,1,0,1","0,0,1,1,0,1,0,1,1","2",""
"","html-keyboard-response","17","208524","0.0-17.0","3WRFBPLXRBAAGF8FI8OZ22JVEWJ3NH","A27LCUA35LPVM8","3TKXBROM5TWR181JXBYSOI8FGFVJIU","","null","<img src=""img/flower3.png"" style=""width:200px;border:14px solid red;"">","null","","","","","","","","",""
"","image-keyboard-response","18","210526","0.0-18.0","3WRFBPLXRBAAGF8FI8OZ22JVEWJ3NH","A27LCUA35LPVM8","3TKXBROM5TWR181JXBYSOI8FGFVJIU","","","img/flower3.png","","2001.2999999523163","-1","0","1","2","1,0,0,1,1,0,1,0,1","0,0,1,1,0,1,0,1,1","2",""
"","html-keyboard-response","19","210828","0.0-19.0","3WRFBPLXRBAAGF8FI8OZ22JVEWJ3NH","A27LCUA35LPVM8","3TKXBROM5TWR181JXBYSOI8FGFVJIU","","null","<img src=""img/flower3.png"" style=""width:200px;border:14px solid red;"">","null","","","","","","","","",""
"","image-keyboard-response","20","211269","0.0-20.0","3WRFBPLXRBAAGF8FI8OZ22JVEWJ3NH","A27LCUA35LPVM8","3TKXBROM5TWR181JXBYSOI8FGFVJIU","","440","img/flower5.png","76","441","3","1","3","2","1,0,0,1,1,0,1,0,1","0,0,1,1,0,1,0,1,1","2",""
"","html-keyboard-response","21","211571","0.0-21.0","3WRFBPLXRBAAGF8FI8OZ22JVEWJ3NH","A27LCUA35LPVM8","3TKXBROM5TWR181JXBYSOI8FGFVJIU","","null","<img src=""img/flower5.png"" style=""width:200px; border:14px solid green;"">","null","","","","","","","","",""
"","image-keyboard-response","22","212085","0.0-22.0","3WRFBPLXRBAAGF8FI8OZ22JVEWJ3NH","A27LCUA35LPVM8","3TKXBROM5TWR181JXBYSOI8FGFVJIU","","512.5999999046326","img/flower4.png","75","514","2","0","2","2","1,0,0,1,1,0,1,0,1","0,0,1,1,0,1,0,1,1","2",""
"","html-keyboard-response","23","212388","0.0-23.0","3WRFBPLXRBAAGF8FI8OZ22JVEWJ3NH","A27LCUA35LPVM8","3TKXBROM5TWR181JXBYSOI8FGFVJIU","","null","<img src=""img/flower4.png"" style=""width:200px;border:14px solid red;"">","null","","","","","","","","",""
"","image-keyboard-response","24","212500","0.0-24.0","3WRFBPLXRBAAGF8FI8OZ22JVEWJ3NH","A27LCUA35LPVM8","3TKXBROM5TWR181JXBYSOI8FGFVJIU","","111.40000009536743","img/flower3.png","74","112.39999985694885","1","0","1","2","1,0,0,1,1,0,1,0,1","0,0,1,1,0,1,0,1,1","2",""
"","html-keyboard-response","25","212802","0.0-25.0","3WRFBPLXRBAAGF8FI8OZ22JVEWJ3NH","A27LCUA35LPVM8","3TKXBROM5TWR181JXBYSOI8FGFVJIU","","null","<img src=""img/flower3.png"" style=""width:200px;border:14px solid red;"">","null","","","","","","","","",""
"","image-keyboard-response","26","213253","0.0-26.0","3WRFBPLXRBAAGF8FI8OZ22JVEWJ3NH","A27LCUA35LPVM8","3TKXBROM5TWR181JXBYSOI8FGFVJIU","","450.2000000476837","img/flower4.png","76","451.10000014305115","3","1","2","2","1,0,0,1,1,0,1,0,1","0,0,1,1,0,1,0,1,1","2",""
"","html-keyboard-response","27","213555","0.0-27.0","3WRFBPLXRBAAGF8FI8OZ22JVEWJ3NH","A27LCUA35LPVM8","3TKXBROM5TWR181JXBYSOI8FGFVJIU","","null","<img src=""img/flower4.png"" style=""width:200px; border:14px solid green;"">","null","","","","","","","","",""
"","image-keyboard-response","28","214117","0.0-28.0","3WRFBPLXRBAAGF8FI8OZ22JVEWJ3NH","A27LCUA35LPVM8","3TKXBROM5TWR181JXBYSOI8FGFVJIU","","560","img/flower5.png","76","561.2999999523163","3","1","3","2","1,0,0,1,1,0,1,0,1","0,0,1,1,0,1,0,1,1","2",""
"","html-keyboard-response","29","214418","0.0-29.0","3WRFBPLXRBAAGF8FI8OZ22JVEWJ3NH","A27LCUA35LPVM8","3TKXBROM5TWR181JXBYSOI8FGFVJIU","","null","<img src=""img/flower5.png"" style=""width:200px; border:14px solid green;"">","null","","","","","","","","",""
"","image-keyboard-response","30","216420","0.0-30.0","3WRFBPLXRBAAGF8FI8OZ22JVEWJ3NH","A27LCUA35LPVM8","3TKXBROM5TWR181JXBYSOI8FGFVJIU","","","img/flower5.png","","2001.7999999523163","-1","0","3","2","1,0,0,1,1,0,1,0,1","0,0,1,1,0,1,0,1,1","2",""
"","html-keyboard-response","31","216735","0.0-31.0","3WRFBPLXRBAAGF8FI8OZ22JVEWJ3NH","A27LCUA35LPVM8","3TKXBROM5TWR181JXBYSOI8FGFVJIU","","null","<img src=""img/flower5.png"" style=""width:200px;border:14px solid red;"">","null","","","","","","","","",""
"","image-keyboard-response","32","216853","0.0-32.0","3WRFBPLXRBAAGF8FI8OZ22JVEWJ3NH","A27LCUA35LPVM8","3TKXBROM5TWR181JXBYSOI8FGFVJIU","","116.59999990463257","img/flower4.png","76","117.70000004768372","3","1","2","2","1,0,0,1,1,0,1,0,1","0,0,1,1,0,1,0,1,1","2",""
"","html-keyboard-response","33","217155","0.0-33.0","3WRFBPLXRBAAGF8FI8OZ22JVEWJ3NH","A27LCUA35LPVM8","3TKXBROM5TWR181JXBYSOI8FGFVJIU","","null","<img src=""img/flower4.png"" style=""width:200px; border:14px solid green;"">","null","","","","","","","","",""
"","image-keyboard-response","34","217693","0.0-34.0","3WRFBPLXRBAAGF8FI8OZ22JVEWJ3NH","A27LCUA35LPVM8","3TKXBROM5TWR181JXBYSOI8FGFVJIU","","536.5","img/flower3.png","76","537.6000001430511","3","1","1","2","1,0,0,1,1,0,1,0,1","0,0,1,1,0,1,0,1,1","2",""
"","html-keyboard-response","35","217995","0.0-35.0","3WRFBPLXRBAAGF8FI8OZ22JVEWJ3NH","A27LCUA35LPVM8","3TKXBROM5TWR181JXBYSOI8FGFVJIU","","null","<img src=""img/flower3.png"" style=""width:200px; border:14px solid green;"">","null","","","","","","","","",""
"","image-keyboard-response","36","218590","0.0-36.0","3WRFBPLXRBAAGF8FI8OZ22JVEWJ3NH","A27LCUA35LPVM8","3TKXBROM5TWR181JXBYSOI8FGFVJIU","","593.5999999046326","img/flower4.png","76","594.8000001907349","3","1","2","2","1,0,0,1,1,0,1,0,1","0,0,1,1,0,1,0,1,1","2",""
"","html-keyboard-response","37","218892","0.0-37.0","3WRFBPLXRBAAGF8FI8OZ22JVEWJ3NH","A27LCUA35LPVM8","3TKXBROM5TWR181JXBYSOI8FGFVJIU","","null","<img src=""img/flower4.png"" style=""width:200px; border:14px solid green;"">","null","","","","","","","","",""
"","image-keyboard-response","38","220429","0.0-38.0","3WRFBPLXRBAAGF8FI8OZ22JVEWJ3NH","A27LCUA35LPVM8","3TKXBROM5TWR181JXBYSOI8FGFVJIU","","1535.8000001907349","img/flower4.png","76","1536.8999998569489","3","1","2","2","1,0,0,1,1,0,1,0,1","0,0,1,1,0,1,0,1,1","2",""
"","html-keyboard-response","39","220731","0.0-39.0","3WRFBPLXRBAAGF8FI8OZ22JVEWJ3NH","A27LCUA35LPVM8","3TKXBROM5TWR181JXBYSOI8FGFVJIU","","null","<img src=""img/flower4.png"" style=""width:200px; border:14px solid green;"">","null","","","","","","","","",""
"","image-keyboard-response","40","221333","0.0-40.0","3WRFBPLXRBAAGF8FI8OZ22JVEWJ3NH","A27LCUA35LPVM8","3TKXBROM5TWR181JXBYSOI8FGFVJIU","","600.7000000476837","img/flower3.png","76","601.8999998569489","3","1","1","2","1,0,0,1,1,0,1,0,1","0,0,1,1,0,1,0,1,1","2",""
"","html-keyboard-response","41","221635","0.0-41.0","3WRFBPLXRBAAGF8FI8OZ22JVEWJ3NH","A27LCUA35LPVM8","3TKXBROM5TWR181JXBYSOI8FGFVJIU","","null","<img src=""img/flower3.png"" style=""width:200px; border:14px solid green;"">","null","","","","","","","","",""
"","image-keyboard-response","42","222141","0.0-42.0","3WRFBPLXRBAAGF8FI8OZ22JVEWJ3NH","A27LCUA35LPVM8","3TKXBROM5TWR181JXBYSOI8FGFVJIU","","504.5","img/flower4.png","76","505.7000000476837","3","1","2","2","1,0,0,1,1,0,1,0,1","0,0,1,1,0,1,0,1,1","2",""
"","html-keyboard-response","43","222444","0.0-43.0","3WRFBPLXRBAAGF8FI8OZ22JVEWJ3NH","A27LCUA35LPVM8","3TKXBROM5TWR181JXBYSOI8FGFVJIU","","null","<img src=""img/flower4.png"" style=""width:200px; border:14px solid green;"">","null","","","","","","","","",""
"","image-keyboard-response","44","223189","0.0-44.0","3WRFBPLXRBAAGF8FI8OZ22JVEWJ3NH","A27LCUA35LPVM8","3TKXBROM5TWR181JXBYSOI8FGFVJIU","","743.6000001430511","img/flower3.png","76","745.0999999046326","3","1","1","2","1,0,0,1,1,0,1,0,1","0,0,1,1,0,1,0,1,1","2",""
"","html-keyboard-response","45","223491","0.0-45.0","3WRFBPLXRBAAGF8FI8OZ22JVEWJ3NH","A27LCUA35LPVM8","3TKXBROM5TWR181JXBYSOI8FGFVJIU","","null","<img src=""img/flower3.png"" style=""width:200px; border:14px solid green;"">","null","","","","","","","","",""
"","image-keyboard-response","46","225492","0.0-46.0","3WRFBPLXRBAAGF8FI8OZ22JVEWJ3NH","A27LCUA35LPVM8","3TKXBROM5TWR181JXBYSOI8FGFVJIU","","","img/flower4.png","","2001.2999999523163","-1","0","2","2","1,0,0,1,1,0,1,0,1","0,0,1,1,0,1,0,1,1","2",""
"","html-keyboard-response","47","225794","0.0-47.0","3WRFBPLXRBAAGF8FI8OZ22JVEWJ3NH","A27LCUA35LPVM8","3TKXBROM5TWR181JXBYSOI8FGFVJIU","","null","<img src=""img/flower4.png"" style=""width:200px;border:14px solid red;"">","null","","","","","","","","",""
"","image-keyboard-response","48","226053","0.0-48.0","3WRFBPLXRBAAGF8FI8OZ22JVEWJ3NH","A27LCUA35LPVM8","3TKXBROM5TWR181JXBYSOI8FGFVJIU","","257.7999999523163","img/flower5.png","76","258.7999999523163","3","1","3","2","1,0,0,1,1,0,1,0,1","0,0,1,1,0,1,0,1,1","2",""
"","html-keyboard-response","49","226356","0.0-49.0","3WRFBPLXRBAAGF8FI8OZ22JVEWJ3NH","A27LCUA35LPVM8","3TKXBROM5TWR181JXBYSOI8FGFVJIU","","null","<img src=""img/flower5.png"" style=""width:200px; border:14px solid green;"">","null","","","","","","","","",""
"","image-keyboard-response","50","226965","0.0-50.0","3WRFBPLXRBAAGF8FI8OZ22JVEWJ3NH","A27LCUA35LPVM8","3TKXBROM5TWR181JXBYSOI8FGFVJIU","","607.8999998569489","img/flower4.png","76","609.3000001907349","3","1","2","2","1,0,0,1,1,0,1,0,1","0,0,1,1,0,1,0,1,1","2",""
"","html-keyboard-response","51","227279","0.0-51.0","3WRFBPLXRBAAGF8FI8OZ22JVEWJ3NH","A27LCUA35LPVM8","3TKXBROM5TWR181JXBYSOI8FGFVJIU","","null","<img src=""img/flower4.png"" style=""width:200px; border:14px solid green;"">","null","","","","","","","","",""
"","image-keyboard-response","52","227804","0.0-52.0","3WRFBPLXRBAAGF8FI8OZ22JVEWJ3NH","A27LCUA35LPVM8","3TKXBROM5TWR181JXBYSOI8FGFVJIU","","523.6999998092651","img/flower5.png","76","524.7000000476837","3","1","3","2","1,0,0,1,1,0,1,0,1","0,0,1,1,0,1,0,1,1","2",""
"","html-keyboard-response","53","228113","0.0-53.0","3WRFBPLXRBAAGF8FI8OZ22JVEWJ3NH","A27LCUA35LPVM8","3TKXBROM5TWR181JXBYSOI8FGFVJIU","","null","<img src=""img/flower5.png"" style=""width:200px; border:14px solid green;"">","null","","","","","","","","",""
"","image-keyboard-response","54","228820","0.0-54.0","3WRFBPLXRBAAGF8FI8OZ22JVEWJ3NH","A27LCUA35LPVM8","3TKXBROM5TWR181JXBYSOI8FGFVJIU","","706","img/flower3.png","76","707","3","1","1","2","1,0,0,1,1,0,1,0,1","0,0,1,1,0,1,0,1,1","2",""
"","html-keyboard-response","55","229122","0.0-55.0","3WRFBPLXRBAAGF8FI8OZ22JVEWJ3NH","A27LCUA35LPVM8","3TKXBROM5TWR181JXBYSOI8FGFVJIU","","null","<img src=""img/flower3.png"" style=""width:200px; border:14px solid green;"">","null","","","","","","","","",""
"","image-keyboard-response","56","231126","0.0-56.0","3WRFBPLXRBAAGF8FI8OZ22JVEWJ3NH","A27LCUA35LPVM8","3TKXBROM5TWR181JXBYSOI8FGFVJIU","","","img/flower3.png","","2003.7999999523163","-1","0","1","2","1,0,0,1,1,0,1,0,1","0,0,1,1,0,1,0,1,1","2",""
"","html-keyboard-response","57","231428","0.0-57.0","3WRFBPLXRBAAGF8FI8OZ22JVEWJ3NH","A27LCUA35LPVM8","3TKXBROM5TWR181JXBYSOI8FGFVJIU","","null","<img src=""img/flower3.png"" style=""width:200px;border:14px solid red;"">","null","","","","","","","","",""
"","image-keyboard-response","58","231797","0.0-58.0","3WRFBPLXRBAAGF8FI8OZ22JVEWJ3NH","A27LCUA35LPVM8","3TKXBROM5TWR181JXBYSOI8FGFVJIU","","367.59999990463257","img/flower4.png","76","368.90000009536743","3","1","2","2","1,0,0,1,1,0,1,0,1","0,0,1,1,0,1,0,1,1","2",""
"","html-keyboard-response","59","232099","0.0-59.0","3WRFBPLXRBAAGF8FI8OZ22JVEWJ3NH","A27LCUA35LPVM8","3TKXBROM5TWR181JXBYSOI8FGFVJIU","","null","<img src=""img/flower4.png"" style=""width:200px; border:14px solid green;"">","null","","","","","","","","",""
"","image-keyboard-response","60","232549","0.0-60.0","3WRFBPLXRBAAGF8FI8OZ22JVEWJ3NH","A27LCUA35LPVM8","3TKXBROM5TWR181JXBYSOI8FGFVJIU","","448.69999980926514","img/flower3.png","76","450","3","1","1","2","1,0,0,1,1,0,1,0,1","0,0,1,1,0,1,0,1,1","2",""
"","html-keyboard-response","61","232851","0.0-61.0","3WRFBPLXRBAAGF8FI8OZ22JVEWJ3NH","A27LCUA35LPVM8","3TKXBROM5TWR181JXBYSOI8FGFVJIU","","null","<img src=""img/flower3.png"" style=""width:200px; border:14px solid green;"">","null","","","","","","","","",""
"","image-keyboard-response","62","233461","0.0-62.0","3WRFBPLXRBAAGF8FI8OZ22JVEWJ3NH","A27LCUA35LPVM8","3TKXBROM5TWR181JXBYSOI8FGFVJIU","","608.7999999523163","img/flower4.png","76","610.2999999523163","3","1","2","2","1,0,0,1,1,0,1,0,1","0,0,1,1,0,1,0,1,1","2",""
"","html-keyboard-response","63","233764","0.0-63.0","3WRFBPLXRBAAGF8FI8OZ22JVEWJ3NH","A27LCUA35LPVM8","3TKXBROM5TWR181JXBYSOI8FGFVJIU","","null","<img src=""img/flower4.png"" style=""width:200px; border:14px solid green;"">","null","","","","","","","","",""
"","image-keyboard-response","64","234813","0.0-64.0","3WRFBPLXRBAAGF8FI8OZ22JVEWJ3NH","A27LCUA35LPVM8","3TKXBROM5TWR181JXBYSOI8FGFVJIU","","1048","img/flower4.png","76","1048.7000000476837","3","1","2","2","1,0,0,1,1,0,1,0,1","0,0,1,1,0,1,0,1,1","2",""
"","html-keyboard-response","65","235115","0.0-65.0","3WRFBPLXRBAAGF8FI8OZ22JVEWJ3NH","A27LCUA35LPVM8","3TKXBROM5TWR181JXBYSOI8FGFVJIU","","null","<img src=""img/flower4.png"" style=""width:200px; border:14px solid green;"">","null","","","","","","","","",""
"","image-keyboard-response","66","235725","0.0-66.0","3WRFBPLXRBAAGF8FI8OZ22JVEWJ3NH","A27LCUA35LPVM8","3TKXBROM5TWR181JXBYSOI8FGFVJIU","","608","img/flower3.png","76","609.3999998569489","3","1","1","2","1,0,0,1,1,0,1,0,1","0,0,1,1,0,1,0,1,1","2",""
"","html-keyboard-response","67","236027","0.0-67.0","3WRFBPLXRBAAGF8FI8OZ22JVEWJ3NH","A27LCUA35LPVM8","3TKXBROM5TWR181JXBYSOI8FGFVJIU","","null","<img src=""img/flower3.png"" style=""width:200px; border:14px solid green;"">","null","","","","","","","","",""
"","image-keyboard-response","68","236637","0.0-68.0","3WRFBPLXRBAAGF8FI8OZ22JVEWJ3NH","A27LCUA35LPVM8","3TKXBROM5TWR181JXBYSOI8FGFVJIU","","608.5","img/flower4.png","76","609.8999998569489","3","1","2","2","1,0,0,1,1,0,1,0,1","0,0,1,1,0,1,0,1,1","2",""
"","html-keyboard-response","69","236939","0.0-69.0","3WRFBPLXRBAAGF8FI8OZ22JVEWJ3NH","A27LCUA35LPVM8","3TKXBROM5TWR181JXBYSOI8FGFVJIU","","null","<img src=""img/flower4.png"" style=""width:200px; border:14px solid green;"">","null","","","","","","","","",""
"","image-keyboard-response","70","238205","0.0-70.0","3WRFBPLXRBAAGF8FI8OZ22JVEWJ3NH","A27LCUA35LPVM8","3TKXBROM5TWR181JXBYSOI8FGFVJIU","","1264.4000000953674","img/flower4.png","76","1265.7000000476837","3","1","2","2","1,0,0,1,1,0,1,0,1","0,0,1,1,0,1,0,1,1","2",""
"","html-keyboard-response","71","238508","0.0-71.0","3WRFBPLXRBAAGF8FI8OZ22JVEWJ3NH","A27LCUA35LPVM8","3TKXBROM5TWR181JXBYSOI8FGFVJIU","","null","<img src=""img/flower4.png"" style=""width:200px; border:14px solid green;"">","null","","","","","","","","",""
"","image-keyboard-response","72","238989","0.0-72.0","3WRFBPLXRBAAGF8FI8OZ22JVEWJ3NH","A27LCUA35LPVM8","3TKXBROM5TWR181JXBYSOI8FGFVJIU","","479.59999990463257","img/flower5.png","76","480.80000019073486","3","1","3","2","1,0,0,1,1,0,1,0,1","0,0,1,1,0,1,0,1,1","2",""
"","html-keyboard-response","73","239291","0.0-73.0","3WRFBPLXRBAAGF8FI8OZ22JVEWJ3NH","A27LCUA35LPVM8","3TKXBROM5TWR181JXBYSOI8FGFVJIU","","null","<img src=""img/flower5.png"" style=""width:200px; border:14px solid green;"">","null","","","","","","","","",""
"","image-keyboard-response","74","239893","0.0-74.0","3WRFBPLXRBAAGF8FI8OZ22JVEWJ3NH","A27LCUA35LPVM8","3TKXBROM5TWR181JXBYSOI8FGFVJIU","","600.5","img/flower5.png","76","601.7999999523163","3","1","3","2","1,0,0,1,1,0,1,0,1","0,0,1,1,0,1,0,1,1","2",""
"","html-keyboard-response","75","240195","0.0-75.0","3WRFBPLXRBAAGF8FI8OZ22JVEWJ3NH","A27LCUA35LPVM8","3TKXBROM5TWR181JXBYSOI8FGFVJIU","","null","<img src=""img/flower5.png"" style=""width:200px; border:14px solid green;"">","null","","","","","","","","",""
"","image-keyboard-response","76","240549","0.0-76.0","3WRFBPLXRBAAGF8FI8OZ22JVEWJ3NH","A27LCUA35LPVM8","3TKXBROM5TWR181JXBYSOI8FGFVJIU","","353.40000009536743","img/flower5.png","76","354.2999999523163","3","1","3","2","1,0,0,1,1,0,1,0,1","0,0,1,1,0,1,0,1,1","2",""
"","html-keyboard-response","77","240851","0.0-77.0","3WRFBPLXRBAAGF8FI8OZ22JVEWJ3NH","A27LCUA35LPVM8","3TKXBROM5TWR181JXBYSOI8FGFVJIU","","null","<img src=""img/flower5.png"" style=""width:200px; border:14px solid green;"">","null","","","","","","","","",""
"","image-keyboard-response","78","241197","0.0-78.0","3WRFBPLXRBAAGF8FI8OZ22JVEWJ3NH","A27LCUA35LPVM8","3TKXBROM5TWR181JXBYSOI8FGFVJIU","","344.5","img/flower5.png","76","345.80000019073486","3","1","3","2","1,0,0,1,1,0,1,0,1","0,0,1,1,0,1,0,1,1","2",""
"","html-keyboard-response","79","241513","0.0-79.0","3WRFBPLXRBAAGF8FI8OZ22JVEWJ3NH","A27LCUA35LPVM8","3TKXBROM5TWR181JXBYSOI8FGFVJIU","","null","<img src=""img/flower5.png"" style=""width:200px; border:14px solid green;"">","null","","","","","","","","",""
"","image-keyboard-response","80","242109","0.0-80.0","3WRFBPLXRBAAGF8FI8OZ22JVEWJ3NH","A27LCUA35LPVM8","3TKXBROM5TWR181JXBYSOI8FGFVJIU","","593.9000000953674","img/flower5.png","76","595.2999999523163","3","1","3","2","1,0,0,1,1,0,1,0,1","0,0,1,1,0,1,0,1,1","2",""
"","html-keyboard-response","81","242411","0.0-81.0","3WRFBPLXRBAAGF8FI8OZ22JVEWJ3NH","A27LCUA35LPVM8","3TKXBROM5TWR181JXBYSOI8FGFVJIU","","null","<img src=""img/flower5.png"" style=""width:200px; border:14px solid green;"">","null","","","","","","","","",""
"","image-keyboard-response","82","242909","0.0-82.0","3WRFBPLXRBAAGF8FI8OZ22JVEWJ3NH","A27LCUA35LPVM8","3TKXBROM5TWR181JXBYSOI8FGFVJIU","","496.90000009536743","img/flower4.png","76","498.09999990463257","3","1","2","2","1,0,0,1,1,0,1,0,1","0,0,1,1,0,1,0,1,1","2",""
"","html-keyboard-response","83","243211","0.0-83.0","3WRFBPLXRBAAGF8FI8OZ22JVEWJ3NH","A27LCUA35LPVM8","3TKXBROM5TWR181JXBYSOI8FGFVJIU","","null","<img src=""img/flower4.png"" style=""width:200px; border:14px solid green;"">","null","","","","","","","","",""
"","image-keyboard-response","84","243685","0.0-84.0","3WRFBPLXRBAAGF8FI8OZ22JVEWJ3NH","A27LCUA35LPVM8","3TKXBROM5TWR181JXBYSOI8FGFVJIU","","473.30000019073486","img/flower3.png","76","474.2000000476837","3","1","1","2","1,0,0,1,1,0,1,0,1","0,0,1,1,0,1,0,1,1","2",""
"","html-keyboard-response","85","243987","0.0-85.0","3WRFBPLXRBAAGF8FI8OZ22JVEWJ3NH","A27LCUA35LPVM8","3TKXBROM5TWR181JXBYSOI8FGFVJIU","","null","<img src=""img/flower3.png"" style=""width:200px; border:14px solid green;"">","null","","","","","","","","",""
"","image-keyboard-response","86","244477","0.0-86.0","3WRFBPLXRBAAGF8FI8OZ22JVEWJ3NH","A27LCUA35LPVM8","3TKXBROM5TWR181JXBYSOI8FGFVJIU","","488.2999999523163","img/flower5.png","76","489.5","3","1","3","2","1,0,0,1,1,0,1,0,1","0,0,1,1,0,1,0,1,1","2",""
"","html-keyboard-response","87","244783","0.0-87.0","3WRFBPLXRBAAGF8FI8OZ22JVEWJ3NH","A27LCUA35LPVM8","3TKXBROM5TWR181JXBYSOI8FGFVJIU","","null","<img src=""img/flower5.png"" style=""width:200px; border:14px solid green;"">","null","","","","","","","","",""
"","image-keyboard-response","88","245237","0.0-88.0","3WRFBPLXRBAAGF8FI8OZ22JVEWJ3NH","A27LCUA35LPVM8","3TKXBROM5TWR181JXBYSOI8FGFVJIU","","453.2000000476837","img/flower3.png","76","454.5","3","1","1","2","1,0,0,1,1,0,1,0,1","0,0,1,1,0,1,0,1,1","2",""
"","html-keyboard-response","89","245540","0.0-89.0","3WRFBPLXRBAAGF8FI8OZ22JVEWJ3NH","A27LCUA35LPVM8","3TKXBROM5TWR181JXBYSOI8FGFVJIU","","null","<img src=""img/flower3.png"" style=""width:200px; border:14px solid green;"">","null","","","","","","","","",""
"","image-keyboard-response","90","245885","0.0-90.0","3WRFBPLXRBAAGF8FI8OZ22JVEWJ3NH","A27LCUA35LPVM8","3TKXBROM5TWR181JXBYSOI8FGFVJIU","","343.40000009536743","img/flower5.png","76","344.7000000476837","3","1","3","2","1,0,0,1,1,0,1,0,1","0,0,1,1,0,1,0,1,1","2",""
"","html-keyboard-response","91","246188","0.0-91.0","3WRFBPLXRBAAGF8FI8OZ22JVEWJ3NH","A27LCUA35LPVM8","3TKXBROM5TWR181JXBYSOI8FGFVJIU","","null","<img src=""img/flower5.png"" style=""width:200px; border:14px solid green;"">","null","","","","","","","","",""
"","image-keyboard-response","92","246557","0.0-92.0","3WRFBPLXRBAAGF8FI8OZ22JVEWJ3NH","A27LCUA35LPVM8","3TKXBROM5TWR181JXBYSOI8FGFVJIU","","367.90000009536743","img/flower5.png","76","369.30000019073486","3","1","3","2","1,0,0,1,1,0,1,0,1","0,0,1,1,0,1,0,1,1","2",""
"","html-keyboard-response","93","246859","0.0-93.0","3WRFBPLXRBAAGF8FI8OZ22JVEWJ3NH","A27LCUA35LPVM8","3TKXBROM5TWR181JXBYSOI8FGFVJIU","","null","<img src=""img/flower5.png"" style=""width:200px; border:14px solid green;"">","null","","","","","","","","",""
"","image-keyboard-response","94","247181","0.0-94.0","3WRFBPLXRBAAGF8FI8OZ22JVEWJ3NH","A27LCUA35LPVM8","3TKXBROM5TWR181JXBYSOI8FGFVJIU","","320.7000000476837","img/flower3.png","76","322","3","1","1","2","1,0,0,1,1,0,1,0,1","0,0,1,1,0,1,0,1,1","2",""
"","html-keyboard-response","95","247483","0.0-95.0","3WRFBPLXRBAAGF8FI8OZ22JVEWJ3NH","A27LCUA35LPVM8","3TKXBROM5TWR181JXBYSOI8FGFVJIU","","null","<img src=""img/flower3.png"" style=""width:200px; border:14px solid green;"">","null","","","","","","","","",""
"","image-keyboard-response","96","247812","0.0-96.0","3WRFBPLXRBAAGF8FI8OZ22JVEWJ3NH","A27LCUA35LPVM8","3TKXBROM5TWR181JXBYSOI8FGFVJIU","","328.10000014305115","img/flower4.png","76","329.2000000476837","3","1","2","2","1,0,0,1,1,0,1,0,1","0,0,1,1,0,1,0,1,1","2",""
"","html-keyboard-response","97","248114","0.0-97.0","3WRFBPLXRBAAGF8FI8OZ22JVEWJ3NH","A27LCUA35LPVM8","3TKXBROM5TWR181JXBYSOI8FGFVJIU","","null","<img src=""img/flower4.png"" style=""width:200px; border:14px solid green;"">","null","","","","","","","","",""
"","image-keyboard-response","98","248461","0.0-98.0","3WRFBPLXRBAAGF8FI8OZ22JVEWJ3NH","A27LCUA35LPVM8","3TKXBROM5TWR181JXBYSOI8FGFVJIU","","344.89999985694885","img/flower4.png","76","346","3","1","2","2","1,0,0,1,1,0,1,0,1","0,0,1,1,0,1,0,1,1","2",""
"","html-keyboard-response","99","248762","0.0-99.0","3WRFBPLXRBAAGF8FI8OZ22JVEWJ3NH","A27LCUA35LPVM8","3TKXBROM5TWR181JXBYSOI8FGFVJIU","","null","<img src=""img/flower4.png"" style=""width:200px; border:14px solid green;"">","null","","","","","","","","",""
"","image-keyboard-response","100","249085","0.0-100.0","3WRFBPLXRBAAGF8FI8OZ22JVEWJ3NH","A27LCUA35LPVM8","3TKXBROM5TWR181JXBYSOI8FGFVJIU","","321.7000000476837","img/flower5.png","76","323","3","1","3","2","1,0,0,1,1,0,1,0,1","0,0,1,1,0,1,0,1,1","2",""
"","html-keyboard-response","101","249388","0.0-101.0","3WRFBPLXRBAAGF8FI8OZ22JVEWJ3NH","A27LCUA35LPVM8","3TKXBROM5TWR181JXBYSOI8FGFVJIU","","null","<img src=""img/flower5.png"" style=""width:200px; border:14px solid green;"">","null","","","","","","","","",""
"","image-keyboard-response","102","249621","0.0-102.0","3WRFBPLXRBAAGF8FI8OZ22JVEWJ3NH","A27LCUA35LPVM8","3TKXBROM5TWR181JXBYSOI8FGFVJIU","","231.70000004768372","img/flower3.png","76","233","3","1","1","2","1,0,0,1,1,0,1,0,1","0,0,1,1,0,1,0,1,1","2",""
"","html-keyboard-response","103","249923","0.0-103.0","3WRFBPLXRBAAGF8FI8OZ22JVEWJ3NH","A27LCUA35LPVM8","3TKXBROM5TWR181JXBYSOI8FGFVJIU","","null","<img src=""img/flower3.png"" style=""width:200px; border:14px solid green;"">","null","","","","","","","","",""
"","image-keyboard-response","104","250157","0.0-104.0","3WRFBPLXRBAAGF8FI8OZ22JVEWJ3NH","A27LCUA35LPVM8","3TKXBROM5TWR181JXBYSOI8FGFVJIU","","232.90000009536743","img/flower3.png","76","234.20000004768372","3","1","1","2","1,0,0,1,1,0,1,0,1","0,0,1,1,0,1,0,1,1","2",""
"","html-keyboard-response","105","250459","0.0-105.0","3WRFBPLXRBAAGF8FI8OZ22JVEWJ3NH","A27LCUA35LPVM8","3TKXBROM5TWR181JXBYSOI8FGFVJIU","","null","<img src=""img/flower3.png"" style=""width:200px; border:14px solid green;"">","null","","","","","","","","",""
"","image-keyboard-response","106","250725","0.0-106.0","3WRFBPLXRBAAGF8FI8OZ22JVEWJ3NH","A27LCUA35LPVM8","3TKXBROM5TWR181JXBYSOI8FGFVJIU","","264.2999999523163","img/flower5.png","76","265.40000009536743","3","1","3","2","1,0,0,1,1,0,1,0,1","0,0,1,1,0,1,0,1,1","2",""
"","html-keyboard-response","107","251027","0.0-107.0","3WRFBPLXRBAAGF8FI8OZ22JVEWJ3NH","A27LCUA35LPVM8","3TKXBROM5TWR181JXBYSOI8FGFVJIU","","null","<img src=""img/flower5.png"" style=""width:200px; border:14px solid green;"">","null","","","","","","","","",""
"","image-keyboard-response","108","251341","0.0-108.0","3WRFBPLXRBAAGF8FI8OZ22JVEWJ3NH","A27LCUA35LPVM8","3TKXBROM5TWR181JXBYSOI8FGFVJIU","","312.2999999523163","img/flower5.png","76","313.60000014305115","3","1","3","2","1,0,0,1,1,0,1,0,1","0,0,1,1,0,1,0,1,1","2",""
"","html-keyboard-response","109","251643","0.0-109.0","3WRFBPLXRBAAGF8FI8OZ22JVEWJ3NH","A27LCUA35LPVM8","3TKXBROM5TWR181JXBYSOI8FGFVJIU","","null","<img src=""img/flower5.png"" style=""width:200px; border:14px solid green;"">","null","","","","","","","","",""
"","image-keyboard-response","110","252605","0.0-110.0","3WRFBPLXRBAAGF8FI8OZ22JVEWJ3NH","A27LCUA35LPVM8","3TKXBROM5TWR181JXBYSOI8FGFVJIU","","960.5","img/flower3.png","76","961.7000000476837","3","1","1","2","1,0,0,1,1,0,1,0,1","0,0,1,1,0,1,0,1,1","2",""
"","html-keyboard-response","111","252907","0.0-111.0","3WRFBPLXRBAAGF8FI8OZ22JVEWJ3NH","A27LCUA35LPVM8","3TKXBROM5TWR181JXBYSOI8FGFVJIU","","null","<img src=""img/flower3.png"" style=""width:200px; border:14px solid green;"">","null","","","","","","","","",""
"","image-keyboard-response","112","253197","0.0-112.0","3WRFBPLXRBAAGF8FI8OZ22JVEWJ3NH","A27LCUA35LPVM8","3TKXBROM5TWR181JXBYSOI8FGFVJIU","","288.39999985694885","img/flower3.png","76","289.59999990463257","3","1","1","2","1,0,0,1,1,0,1,0,1","0,0,1,1,0,1,0,1,1","2",""
"","html-keyboard-response","113","253499","0.0-113.0","3WRFBPLXRBAAGF8FI8OZ22JVEWJ3NH","A27LCUA35LPVM8","3TKXBROM5TWR181JXBYSOI8FGFVJIU","","null","<img src=""img/flower3.png"" style=""width:200px; border:14px solid green;"">","null","","","","","","","","",""
"","image-keyboard-response","114","253877","0.0-114.0","3WRFBPLXRBAAGF8FI8OZ22JVEWJ3NH","A27LCUA35LPVM8","3TKXBROM5TWR181JXBYSOI8FGFVJIU","","376.59999990463257","img/flower5.png","76","377.80000019073486","3","1","3","2","1,0,0,1,1,0,1,0,1","0,0,1,1,0,1,0,1,1","2",""
"","html-keyboard-response","115","254178","0.0-115.0","3WRFBPLXRBAAGF8FI8OZ22JVEWJ3NH","A27LCUA35LPVM8","3TKXBROM5TWR181JXBYSOI8FGFVJIU","","null","<img src=""img/flower5.png"" style=""width:200px; border:14px solid green;"">","null","","","","","","","","",""
"","image-keyboard-response","116","254421","0.0-116.0","3WRFBPLXRBAAGF8FI8OZ22JVEWJ3NH","A27LCUA35LPVM8","3TKXBROM5TWR181JXBYSOI8FGFVJIU","","241","img/flower4.png","76","242.5","3","1","2","2","1,0,0,1,1,0,1,0,1","0,0,1,1,0,1,0,1,1","2",""
"","html-keyboard-response","117","254728","0.0-117.0","3WRFBPLXRBAAGF8FI8OZ22JVEWJ3NH","A27LCUA35LPVM8","3TKXBROM5TWR181JXBYSOI8FGFVJIU","","null","<img src=""img/flower4.png"" style=""width:200px; border:14px solid green;"">","null","","","","","","","","",""
"","image-keyboard-response","118","254941","0.0-118.0","3WRFBPLXRBAAGF8FI8OZ22JVEWJ3NH","A27LCUA35LPVM8","3TKXBROM5TWR181JXBYSOI8FGFVJIU","","211.70000004768372","img/flower5.png","76","213.10000014305115","3","1","3","2","1,0,0,1,1,0,1,0,1","0,0,1,1,0,1,0,1,1","2",""
"","html-keyboard-response","119","255243","0.0-119.0","3WRFBPLXRBAAGF8FI8OZ22JVEWJ3NH","A27LCUA35LPVM8","3TKXBROM5TWR181JXBYSOI8FGFVJIU","","null","<img src=""img/flower5.png"" style=""width:200px; border:14px solid green;"">","null","","","","","","","","",""
"","image-keyboard-response","120","255469","0.0-120.0","3WRFBPLXRBAAGF8FI8OZ22JVEWJ3NH","A27LCUA35LPVM8","3TKXBROM5TWR181JXBYSOI8FGFVJIU","","225","img/flower5.png","76","226.09999990463257","3","1","3","2","1,0,0,1,1,0,1,0,1","0,0,1,1,0,1,0,1,1","2",""
"","html-keyboard-response","121","255771","0.0-121.0","3WRFBPLXRBAAGF8FI8OZ22JVEWJ3NH","A27LCUA35LPVM8","3TKXBROM5TWR181JXBYSOI8FGFVJIU","","null","<img src=""img/flower5.png"" style=""width:200px; border:14px solid green;"">","null","","","","","","","","",""
"","image-keyboard-response","122","256045","0.0-122.0","3WRFBPLXRBAAGF8FI8OZ22JVEWJ3NH","A27LCUA35LPVM8","3TKXBROM5TWR181JXBYSOI8FGFVJIU","","272.80000019073486","img/flower3.png","76","273.90000009536743","3","1","1","2","1,0,0,1,1,0,1,0,1","0,0,1,1,0,1,0,1,1","2",""
"","html-keyboard-response","123","256347","0.0-123.0","3WRFBPLXRBAAGF8FI8OZ22JVEWJ3NH","A27LCUA35LPVM8","3TKXBROM5TWR181JXBYSOI8FGFVJIU","","null","<img src=""img/flower3.png"" style=""width:200px; border:14px solid green;"">","null","","","","","","","","",""
"","image-keyboard-response","124","256549","0.0-124.0","3WRFBPLXRBAAGF8FI8OZ22JVEWJ3NH","A27LCUA35LPVM8","3TKXBROM5TWR181JXBYSOI8FGFVJIU","","200.79999995231628","img/flower4.png","76","201.89999985694885","3","1","2","2","1,0,0,1,1,0,1,0,1","0,0,1,1,0,1,0,1,1","2",""
"","html-keyboard-response","125","256851","0.0-125.0","3WRFBPLXRBAAGF8FI8OZ22JVEWJ3NH","A27LCUA35LPVM8","3TKXBROM5TWR181JXBYSOI8FGFVJIU","","null","<img src=""img/flower4.png"" style=""width:200px; border:14px solid green;"">","null","","","","","","","","",""
"","image-keyboard-response","126","257069","0.0-126.0","3WRFBPLXRBAAGF8FI8OZ22JVEWJ3NH","A27LCUA35LPVM8","3TKXBROM5TWR181JXBYSOI8FGFVJIU","","217","img/flower4.png","76","217.90000009536743","3","1","2","2","1,0,0,1,1,0,1,0,1","0,0,1,1,0,1,0,1,1","2",""
"","html-keyboard-response","127","257371","0.0-127.0","3WRFBPLXRBAAGF8FI8OZ22JVEWJ3NH","A27LCUA35LPVM8","3TKXBROM5TWR181JXBYSOI8FGFVJIU","","null","<img src=""img/flower4.png"" style=""width:200px; border:14px solid green;"">","null","","","","","","","","",""
"","image-keyboard-response","128","257549","0.0-128.0","3WRFBPLXRBAAGF8FI8OZ22JVEWJ3NH","A27LCUA35LPVM8","3TKXBROM5TWR181JXBYSOI8FGFVJIU","","174.70000004768372","img/flower5.png","76","176","3","1","3","2","1,0,0,1,1,0,1,0,1","0,0,1,1,0,1,0,1,1","2",""
"","html-keyboard-response","129","257850","0.0-129.0","3WRFBPLXRBAAGF8FI8OZ22JVEWJ3NH","A27LCUA35LPVM8","3TKXBROM5TWR181JXBYSOI8FGFVJIU","","null","<img src=""img/flower5.png"" style=""width:200px; border:14px solid green;"">","null","","","","","","","","",""
"","image-keyboard-response","130","258013","0.0-130.0","3WRFBPLXRBAAGF8FI8OZ22JVEWJ3NH","A27LCUA35LPVM8","3TKXBROM5TWR181JXBYSOI8FGFVJIU","","161.30000019073486","img/flower4.png","76","162.59999990463257","3","1","2","2","1,0,0,1,1,0,1,0,1","0,0,1,1,0,1,0,1,1","2",""
"","html-keyboard-response","131","258314","0.0-131.0","3WRFBPLXRBAAGF8FI8OZ22JVEWJ3NH","A27LCUA35LPVM8","3TKXBROM5TWR181JXBYSOI8FGFVJIU","","null","<img src=""img/flower4.png"" style=""width:200px; border:14px solid green;"">","null","","","","","","","","",""
"","image-keyboard-response","132","258453","0.0-132.0","3WRFBPLXRBAAGF8FI8OZ22JVEWJ3NH","A27LCUA35LPVM8","3TKXBROM5TWR181JXBYSOI8FGFVJIU","","137.10000014305115","img/flower3.png","76","138.5","3","1","1","2","1,0,0,1,1,0,1,0,1","0,0,1,1,0,1,0,1,1","2",""
"","html-keyboard-response","133","258755","0.0-133.0","3WRFBPLXRBAAGF8FI8OZ22JVEWJ3NH","A27LCUA35LPVM8","3TKXBROM5TWR181JXBYSOI8FGFVJIU","","null","<img src=""img/flower3.png"" style=""width:200px; border:14px solid green;"">","null","","","","","","","","",""
"","image-keyboard-response","134","258957","0.0-134.0","3WRFBPLXRBAAGF8FI8OZ22JVEWJ3NH","A27LCUA35LPVM8","3TKXBROM5TWR181JXBYSOI8FGFVJIU","","199.79999995231628","img/flower3.png","76","201.20000004768372","3","1","1","2","1,0,0,1,1,0,1,0,1","0,0,1,1,0,1,0,1,1","2",""
"","html-keyboard-response","135","259259","0.0-135.0","3WRFBPLXRBAAGF8FI8OZ22JVEWJ3NH","A27LCUA35LPVM8","3TKXBROM5TWR181JXBYSOI8FGFVJIU","","null","<img src=""img/flower3.png"" style=""width:200px; border:14px solid green;"">","null","","","","","","","","",""
"","image-keyboard-response","136","259629","0.0-136.0","3WRFBPLXRBAAGF8FI8OZ22JVEWJ3NH","A27LCUA35LPVM8","3TKXBROM5TWR181JXBYSOI8FGFVJIU","","368.2999999523163","img/flower3.png","76","369.5","3","1","1","2","1,0,0,1,1,0,1,0,1","0,0,1,1,0,1,0,1,1","2",""
"","html-keyboard-response","137","259931","0.0-137.0","3WRFBPLXRBAAGF8FI8OZ22JVEWJ3NH","A27LCUA35LPVM8","3TKXBROM5TWR181JXBYSOI8FGFVJIU","","null","<img src=""img/flower3.png"" style=""width:200px; border:14px solid green;"">","null","","","","","","","","",""
"","image-keyboard-response","138","260613","0.0-138.0","3WRFBPLXRBAAGF8FI8OZ22JVEWJ3NH","A27LCUA35LPVM8","3TKXBROM5TWR181JXBYSOI8FGFVJIU","","680.8000001907349","img/flower3.png","76","682.2000000476837","3","1","1","2","1,0,0,1,1,0,1,0,1","0,0,1,1,0,1,0,1,1","2",""
"","html-keyboard-response","139","260915","0.0-139.0","3WRFBPLXRBAAGF8FI8OZ22JVEWJ3NH","A27LCUA35LPVM8","3TKXBROM5TWR181JXBYSOI8FGFVJIU","","null","<img src=""img/flower3.png"" style=""width:200px; border:14px solid green;"">","null","","","","","","","","",""
"","image-keyboard-response","140","261173","0.0-140.0","3WRFBPLXRBAAGF8FI8OZ22JVEWJ3NH","A27LCUA35LPVM8","3TKXBROM5TWR181JXBYSOI8FGFVJIU","","256.5","img/flower4.png","76","257.7000000476837","3","1","2","2","1,0,0,1,1,0,1,0,1","0,0,1,1,0,1,0,1,1","2",""
"","html-keyboard-response","141","261475","0.0-141.0","3WRFBPLXRBAAGF8FI8OZ22JVEWJ3NH","A27LCUA35LPVM8","3TKXBROM5TWR181JXBYSOI8FGFVJIU","","null","<img src=""img/flower4.png"" style=""width:200px; border:14px solid green;"">","null","","","","","","","","",""
"","image-keyboard-response","142","261701","0.0-142.0","3WRFBPLXRBAAGF8FI8OZ22JVEWJ3NH","A27LCUA35LPVM8","3TKXBROM5TWR181JXBYSOI8FGFVJIU","","224.59999990463257","img/flower4.png","76","226","3","1","2","2","1,0,0,1,1,0,1,0,1","0,0,1,1,0,1,0,1,1","2",""
"","html-keyboard-response","143","262003","0.0-143.0","3WRFBPLXRBAAGF8FI8OZ22JVEWJ3NH","A27LCUA35LPVM8","3TKXBROM5TWR181JXBYSOI8FGFVJIU","","null","<img src=""img/flower4.png"" style=""width:200px; border:14px solid green;"">","null","","","","","","","","",""
"","image-keyboard-response","144","262333","0.0-144.0","3WRFBPLXRBAAGF8FI8OZ22JVEWJ3NH","A27LCUA35LPVM8","3TKXBROM5TWR181JXBYSOI8FGFVJIU","","328.5","img/flower5.png","76","329.89999985694885","3","1","3","2","1,0,0,1,1,0,1,0,1","0,0,1,1,0,1,0,1,1","2",""
"","html-keyboard-response","145","262635","0.0-145.0","3WRFBPLXRBAAGF8FI8OZ22JVEWJ3NH","A27LCUA35LPVM8","3TKXBROM5TWR181JXBYSOI8FGFVJIU","","null","<img src=""img/flower5.png"" style=""width:200px; border:14px solid green;"">","null","","","","","","","","",""
"","image-keyboard-response","146","262885","0.0-146.0","3WRFBPLXRBAAGF8FI8OZ22JVEWJ3NH","A27LCUA35LPVM8","3TKXBROM5TWR181JXBYSOI8FGFVJIU","","248.5","img/flower5.png","76","249.70000004768372","3","1","3","2","1,0,0,1,1,0,1,0,1","0,0,1,1,0,1,0,1,1","2",""
"","html-keyboard-response","147","263187","0.0-147.0","3WRFBPLXRBAAGF8FI8OZ22JVEWJ3NH","A27LCUA35LPVM8","3TKXBROM5TWR181JXBYSOI8FGFVJIU","","null","<img src=""img/flower5.png"" style=""width:200px; border:14px solid green;"">","null","","","","","","","","",""
"","image-keyboard-response","148","263453","0.0-148.0","3WRFBPLXRBAAGF8FI8OZ22JVEWJ3NH","A27LCUA35LPVM8","3TKXBROM5TWR181JXBYSOI8FGFVJIU","","264","img/flower5.png","76","265.2999999523163","3","1","3","2","1,0,0,1,1,0,1,0,1","0,0,1,1,0,1,0,1,1","2",""
"","html-keyboard-response","149","263755","0.0-149.0","3WRFBPLXRBAAGF8FI8OZ22JVEWJ3NH","A27LCUA35LPVM8","3TKXBROM5TWR181JXBYSOI8FGFVJIU","","null","<img src=""img/flower5.png"" style=""width:200px; border:14px solid green;"">","null","","","","","","","","",""
"","image-keyboard-response","150","264140","0.0-150.0","3WRFBPLXRBAAGF8FI8OZ22JVEWJ3NH","A27LCUA35LPVM8","3TKXBROM5TWR181JXBYSOI8FGFVJIU","","383.59999990463257","img/flower5.png","76","384.59999990463257","3","1","3","2","1,0,0,1,1,0,1,0,1","0,0,1,1,0,1,0,1,1","2",""
"","html-keyboard-response","151","264442","0.0-151.0","3WRFBPLXRBAAGF8FI8OZ22JVEWJ3NH","A27LCUA35LPVM8","3TKXBROM5TWR181JXBYSOI8FGFVJIU","","null","<img src=""img/flower5.png"" style=""width:200px; border:14px solid green;"">","null","","","","","","","","",""
"","image-keyboard-response","152","264741","0.0-152.0","3WRFBPLXRBAAGF8FI8OZ22JVEWJ3NH","A27LCUA35LPVM8","3TKXBROM5TWR181JXBYSOI8FGFVJIU","","297.10000014305115","img/flower4.png","76","298.5","3","1","2","2","1,0,0,1,1,0,1,0,1","0,0,1,1,0,1,0,1,1","2",""
"","html-keyboard-response","153","265043","0.0-153.0","3WRFBPLXRBAAGF8FI8OZ22JVEWJ3NH","A27LCUA35LPVM8","3TKXBROM5TWR181JXBYSOI8FGFVJIU","","null","<img src=""img/flower4.png"" style=""width:200px; border:14px solid green;"">","null","","","","","","","","",""
"","image-keyboard-response","154","265573","0.0-154.0","3WRFBPLXRBAAGF8FI8OZ22JVEWJ3NH","A27LCUA35LPVM8","3TKXBROM5TWR181JXBYSOI8FGFVJIU","","528.7999999523163","img/flower5.png","76","530.0999999046326","3","1","3","2","1,0,0,1,1,0,1,0,1","0,0,1,1,0,1,0,1,1","2",""
"","html-keyboard-response","155","265875","0.0-155.0","3WRFBPLXRBAAGF8FI8OZ22JVEWJ3NH","A27LCUA35LPVM8","3TKXBROM5TWR181JXBYSOI8FGFVJIU","","null","<img src=""img/flower5.png"" style=""width:200px; border:14px solid green;"">","null","","","","","","","","",""
"","image-keyboard-response","156","266221","0.0-156.0","3WRFBPLXRBAAGF8FI8OZ22JVEWJ3NH","A27LCUA35LPVM8","3TKXBROM5TWR181JXBYSOI8FGFVJIU","","344.7999999523163","img/flower3.png","76","345.7000000476837","3","1","1","2","1,0,0,1,1,0,1,0,1","0,0,1,1,0,1,0,1,1","2",""
"","html-keyboard-response","157","266522","0.0-157.0","3WRFBPLXRBAAGF8FI8OZ22JVEWJ3NH","A27LCUA35LPVM8","3TKXBROM5TWR181JXBYSOI8FGFVJIU","","null","<img src=""img/flower3.png"" style=""width:200px; border:14px solid green;"">","null","","","","","","","","",""
"","image-keyboard-response","158","267069","0.0-158.0","3WRFBPLXRBAAGF8FI8OZ22JVEWJ3NH","A27LCUA35LPVM8","3TKXBROM5TWR181JXBYSOI8FGFVJIU","","544.9000000953674","img/flower3.png","76","546.1999998092651","3","1","1","2","1,0,0,1,1,0,1,0,1","0,0,1,1,0,1,0,1,1","2",""
"","html-keyboard-response","159","267371","0.0-159.0","3WRFBPLXRBAAGF8FI8OZ22JVEWJ3NH","A27LCUA35LPVM8","3TKXBROM5TWR181JXBYSOI8FGFVJIU","","null","<img src=""img/flower3.png"" style=""width:200px; border:14px solid green;"">","null","","","","","","","","",""
"","image-keyboard-response","160","267621","0.0-160.0","3WRFBPLXRBAAGF8FI8OZ22JVEWJ3NH","A27LCUA35LPVM8","3TKXBROM5TWR181JXBYSOI8FGFVJIU","","248.60000014305115","img/flower3.png","76","249.59999990463257","3","1","1","2","1,0,0,1,1,0,1,0,1","0,0,1,1,0,1,0,1,1","2",""
"","html-keyboard-response","161","267922","0.0-161.0","3WRFBPLXRBAAGF8FI8OZ22JVEWJ3NH","A27LCUA35LPVM8","3TKXBROM5TWR181JXBYSOI8FGFVJIU","","null","<img src=""img/flower3.png"" style=""width:200px; border:14px solid green;"">","null","","","","","","","","",""
"","image-keyboard-response","162","268277","0.0-162.0","3WRFBPLXRBAAGF8FI8OZ22JVEWJ3NH","A27LCUA35LPVM8","3TKXBROM5TWR181JXBYSOI8FGFVJIU","","353.09999990463257","img/flower3.png","76","354.60000014305115","3","1","1","2","1,0,0,1,1,0,1,0,1","0,0,1,1,0,1,0,1,1","2",""
"","html-keyboard-response","163","268579","0.0-163.0","3WRFBPLXRBAAGF8FI8OZ22JVEWJ3NH","A27LCUA35LPVM8","3TKXBROM5TWR181JXBYSOI8FGFVJIU","","null","<img src=""img/flower3.png"" style=""width:200px; border:14px solid green;"">","null","","","","","","","","",""
"","image-keyboard-response","164","268925","0.0-164.0","3WRFBPLXRBAAGF8FI8OZ22JVEWJ3NH","A27LCUA35LPVM8","3TKXBROM5TWR181JXBYSOI8FGFVJIU","","344.60000014305115","img/flower5.png","76","345.89999985694885","3","1","3","2","1,0,0,1,1,0,1,0,1","0,0,1,1,0,1,0,1,1","2",""
"","html-keyboard-response","165","269227","0.0-165.0","3WRFBPLXRBAAGF8FI8OZ22JVEWJ3NH","A27LCUA35LPVM8","3TKXBROM5TWR181JXBYSOI8FGFVJIU","","null","<img src=""img/flower5.png"" style=""width:200px; border:14px solid green;"">","null","","","","","","","","",""
"","image-keyboard-response","166","269589","0.0-166.0","3WRFBPLXRBAAGF8FI8OZ22JVEWJ3NH","A27LCUA35LPVM8","3TKXBROM5TWR181JXBYSOI8FGFVJIU","","360.5","img/flower4.png","76","361.90000009536743","3","1","2","2","1,0,0,1,1,0,1,0,1","0,0,1,1,0,1,0,1,1","2",""
"","html-keyboard-response","167","269891","0.0-167.0","3WRFBPLXRBAAGF8FI8OZ22JVEWJ3NH","A27LCUA35LPVM8","3TKXBROM5TWR181JXBYSOI8FGFVJIU","","null","<img src=""img/flower4.png"" style=""width:200px; border:14px solid green;"">","null","","","","","","","","",""
"","image-keyboard-response","168","270421","0.0-168.0","3WRFBPLXRBAAGF8FI8OZ22JVEWJ3NH","A27LCUA35LPVM8","3TKXBROM5TWR181JXBYSOI8FGFVJIU","","527.6999998092651","img/flower5.png","76","529.2000000476837","3","1","3","2","1,0,0,1,1,0,1,0,1","0,0,1,1,0,1,0,1,1","2",""
"","html-keyboard-response","169","270724","0.0-169.0","3WRFBPLXRBAAGF8FI8OZ22JVEWJ3NH","A27LCUA35LPVM8","3TKXBROM5TWR181JXBYSOI8FGFVJIU","","null","<img src=""img/flower5.png"" style=""width:200px; border:14px solid green;"">","null","","","","","","","","",""
"","image-keyboard-response","170","271037","0.0-170.0","3WRFBPLXRBAAGF8FI8OZ22JVEWJ3NH","A27LCUA35LPVM8","3TKXBROM5TWR181JXBYSOI8FGFVJIU","","311.7000000476837","img/flower4.png","76","313","3","1","2","2","1,0,0,1,1,0,1,0,1","0,0,1,1,0,1,0,1,1","2",""
"","html-keyboard-response","171","271338","0.0-171.0","3WRFBPLXRBAAGF8FI8OZ22JVEWJ3NH","A27LCUA35LPVM8","3TKXBROM5TWR181JXBYSOI8FGFVJIU","","null","<img src=""img/flower4.png"" style=""width:200px; border:14px solid green;"">","null","","","","","","","","",""
"","image-keyboard-response","172","271653","0.0-172.0","3WRFBPLXRBAAGF8FI8OZ22JVEWJ3NH","A27LCUA35LPVM8","3TKXBROM5TWR181JXBYSOI8FGFVJIU","","313","img/flower3.png","76","314.39999985694885","3","1","1","2","1,0,0,1,1,0,1,0,1","0,0,1,1,0,1,0,1,1","2",""
"","html-keyboard-response","173","271956","0.0-173.0","3WRFBPLXRBAAGF8FI8OZ22JVEWJ3NH","A27LCUA35LPVM8","3TKXBROM5TWR181JXBYSOI8FGFVJIU","","null","<img src=""img/flower3.png"" style=""width:200px; border:14px solid green;"">","null","","","","","","","","",""
"","image-keyboard-response","174","272285","0.0-174.0","3WRFBPLXRBAAGF8FI8OZ22JVEWJ3NH","A27LCUA35LPVM8","3TKXBROM5TWR181JXBYSOI8FGFVJIU","","327.09999990463257","img/flower4.png","76","328.5","3","1","2","2","1,0,0,1,1,0,1,0,1","0,0,1,1,0,1,0,1,1","2",""
"","html-keyboard-response","175","272587","0.0-175.0","3WRFBPLXRBAAGF8FI8OZ22JVEWJ3NH","A27LCUA35LPVM8","3TKXBROM5TWR181JXBYSOI8FGFVJIU","","null","<img src=""img/flower4.png"" style=""width:200px; border:14px solid green;"">","null","","","","","","","","",""
"","image-keyboard-response","176","272853","0.0-176.0","3WRFBPLXRBAAGF8FI8OZ22JVEWJ3NH","A27LCUA35LPVM8","3TKXBROM5TWR181JXBYSOI8FGFVJIU","","264.2999999523163","img/flower3.png","76","265.7000000476837","3","1","1","2","1,0,0,1,1,0,1,0,1","0,0,1,1,0,1,0,1,1","2",""
"","html-keyboard-response","177","273155","0.0-177.0","3WRFBPLXRBAAGF8FI8OZ22JVEWJ3NH","A27LCUA35LPVM8","3TKXBROM5TWR181JXBYSOI8FGFVJIU","","null","<img src=""img/flower3.png"" style=""width:200px; border:14px solid green;"">","null","","","","","","","","",""
"","image-keyboard-response","178","273461","0.0-178.0","3WRFBPLXRBAAGF8FI8OZ22JVEWJ3NH","A27LCUA35LPVM8","3TKXBROM5TWR181JXBYSOI8FGFVJIU","","304.2999999523163","img/flower5.png","76","305.60000014305115","3","1","3","2","1,0,0,1,1,0,1,0,1","0,0,1,1,0,1,0,1,1","2",""
"","html-keyboard-response","179","273763","0.0-179.0","3WRFBPLXRBAAGF8FI8OZ22JVEWJ3NH","A27LCUA35LPVM8","3TKXBROM5TWR181JXBYSOI8FGFVJIU","","null","<img src=""img/flower5.png"" style=""width:200px; border:14px solid green;"">","null","","","","","","","","",""
"","image-keyboard-response","180","274029","0.0-180.0","3WRFBPLXRBAAGF8FI8OZ22JVEWJ3NH","A27LCUA35LPVM8","3TKXBROM5TWR181JXBYSOI8FGFVJIU","","264.40000009536743","img/flower5.png","76","265.5","3","1","3","2","1,0,0,1,1,0,1,0,1","0,0,1,1,0,1,0,1,1","2",""
"","html-keyboard-response","181","274330","0.0-181.0","3WRFBPLXRBAAGF8FI8OZ22JVEWJ3NH","A27LCUA35LPVM8","3TKXBROM5TWR181JXBYSOI8FGFVJIU","","null","<img src=""img/flower5.png"" style=""width:200px; border:14px solid green;"">","null","","","","","","","","",""
"","image-keyboard-response","182","274637","0.0-182.0","3WRFBPLXRBAAGF8FI8OZ22JVEWJ3NH","A27LCUA35LPVM8","3TKXBROM5TWR181JXBYSOI8FGFVJIU","","305.2999999523163","img/flower6.png","76","306.2999999523163","3","1","3","1","1,0.333,0.333,0.333,1,0.333,0.333,0.333,1","1,0.333,0.333,0.333,1,0.333,0.333,0.333,1","1",""
"","html-keyboard-response","183","274939","0.0-183.0","3WRFBPLXRBAAGF8FI8OZ22JVEWJ3NH","A27LCUA35LPVM8","3TKXBROM5TWR181JXBYSOI8FGFVJIU","","null","<img src=""img/flower6.png"" style=""width:200px; border:14px solid green;"">","null","","","","","","","","",""
"","image-keyboard-response","184","275245","0.0-184.0","3WRFBPLXRBAAGF8FI8OZ22JVEWJ3NH","A27LCUA35LPVM8","3TKXBROM5TWR181JXBYSOI8FGFVJIU","","304.60000014305115","img/flower1.png","76","306","3","0","1","1","1,0.333,0.333,0.333,1,0.333,0.333,0.333,1","1,0.333,0.333,0.333,1,0.333,0.333,0.333,1","1",""
"","html-keyboard-response","185","275547","0.0-185.0","3WRFBPLXRBAAGF8FI8OZ22JVEWJ3NH","A27LCUA35LPVM8","3TKXBROM5TWR181JXBYSOI8FGFVJIU","","null","<img src=""img/flower1.png"" style=""width:200px;border:14px solid red;"">","null","","","","","","","","",""
"","image-keyboard-response","186","275877","0.0-186.0","3WRFBPLXRBAAGF8FI8OZ22JVEWJ3NH","A27LCUA35LPVM8","3TKXBROM5TWR181JXBYSOI8FGFVJIU","","328.7000000476837","img/flower2.png","76","330.10000014305115","3","0","2","1","1,0.333,0.333,0.333,1,0.333,0.333,0.333,1","1,0.333,0.333,0.333,1,0.333,0.333,0.333,1","1",""
"","html-keyboard-response","187","276179","0.0-187.0","3WRFBPLXRBAAGF8FI8OZ22JVEWJ3NH","A27LCUA35LPVM8","3TKXBROM5TWR181JXBYSOI8FGFVJIU","","null","<img src=""img/flower2.png"" style=""width:200px;border:14px solid red;"">","null","","","","","","","","",""
"","image-keyboard-response","188","277053","0.0-188.0","3WRFBPLXRBAAGF8FI8OZ22JVEWJ3NH","A27LCUA35LPVM8","3TKXBROM5TWR181JXBYSOI8FGFVJIU","","872.5","img/flower2.png","75","873.7999999523163","2","1","2","1","1,0.333,0.333,0.333,1,0.333,0.333,0.333,1","1,0.333,0.333,0.333,1,0.333,0.333,0.333,1","1",""
"","html-keyboard-response","189","277355","0.0-189.0","3WRFBPLXRBAAGF8FI8OZ22JVEWJ3NH","A27LCUA35LPVM8","3TKXBROM5TWR181JXBYSOI8FGFVJIU","","null","<img src=""img/flower2.png"" style=""width:200px; border:14px solid green;"">","null","","","","","","","","",""
"","image-keyboard-response","190","277949","0.0-190.0","3WRFBPLXRBAAGF8FI8OZ22JVEWJ3NH","A27LCUA35LPVM8","3TKXBROM5TWR181JXBYSOI8FGFVJIU","","591.9000000953674","img/flower2.png","75","593.0999999046326","2","1","2","1","1,0.333,0.333,0.333,1,0.333,0.333,0.333,1","1,0.333,0.333,0.333,1,0.333,0.333,0.333,1","1",""
"","html-keyboard-response","191","278250","0.0-191.0","3WRFBPLXRBAAGF8FI8OZ22JVEWJ3NH","A27LCUA35LPVM8","3TKXBROM5TWR181JXBYSOI8FGFVJIU","","null","<img src=""img/flower2.png"" style=""width:200px; border:14px solid green;"">","null","","","","","","","","",""
"","image-keyboard-response","192","278973","0.0-192.0","3WRFBPLXRBAAGF8FI8OZ22JVEWJ3NH","A27LCUA35LPVM8","3TKXBROM5TWR181JXBYSOI8FGFVJIU","","721.5999999046326","img/flower1.png","75","722.5999999046326","2","0","1","1","1,0.333,0.333,0.333,1,0.333,0.333,0.333,1","1,0.333,0.333,0.333,1,0.333,0.333,0.333,1","1",""
"","html-keyboard-response","193","279274","0.0-193.0","3WRFBPLXRBAAGF8FI8OZ22JVEWJ3NH","A27LCUA35LPVM8","3TKXBROM5TWR181JXBYSOI8FGFVJIU","","null","<img src=""img/flower1.png"" style=""width:200px;border:14px solid red;"">","null","","","","","","","","",""
"","image-keyboard-response","194","279429","0.0-194.0","3WRFBPLXRBAAGF8FI8OZ22JVEWJ3NH","A27LCUA35LPVM8","3TKXBROM5TWR181JXBYSOI8FGFVJIU","","153.09999990463257","img/flower2.png","76","154.29999995231628","3","1","2","1","1,0.333,0.333,0.333,1,0.333,0.333,0.333,1","1,0.333,0.333,0.333,1,0.333,0.333,0.333,1","1",""
"","html-keyboard-response","195","279732","0.0-195.0","3WRFBPLXRBAAGF8FI8OZ22JVEWJ3NH","A27LCUA35LPVM8","3TKXBROM5TWR181JXBYSOI8FGFVJIU","","null","<img src=""img/flower2.png"" style=""width:200px; border:14px solid green;"">","null","","","","","","","","",""
"","image-keyboard-response","196","280397","0.0-196.0","3WRFBPLXRBAAGF8FI8OZ22JVEWJ3NH","A27LCUA35LPVM8","3TKXBROM5TWR181JXBYSOI8FGFVJIU","","663.8000001907349","img/flower1.png","76","664.9000000953674","3","0","1","1","1,0.333,0.333,0.333,1,0.333,0.333,0.333,1","1,0.333,0.333,0.333,1,0.333,0.333,0.333,1","1",""
"","html-keyboard-response","197","280699","0.0-197.0","3WRFBPLXRBAAGF8FI8OZ22JVEWJ3NH","A27LCUA35LPVM8","3TKXBROM5TWR181JXBYSOI8FGFVJIU","","null","<img src=""img/flower1.png"" style=""width:200px;border:14px solid red;"">","null","","","","","","","","",""
"","image-keyboard-response","198","281461","0.0-198.0","3WRFBPLXRBAAGF8FI8OZ22JVEWJ3NH","A27LCUA35LPVM8","3TKXBROM5TWR181JXBYSOI8FGFVJIU","","760.7999999523163","img/flower2.png","76","762","3","0","2","1","1,0.333,0.333,0.333,1,0.333,0.333,0.333,1","1,0.333,0.333,0.333,1,0.333,0.333,0.333,1","1",""
"","html-keyboard-response","199","281763","0.0-199.0","3WRFBPLXRBAAGF8FI8OZ22JVEWJ3NH","A27LCUA35LPVM8","3TKXBROM5TWR181JXBYSOI8FGFVJIU","","null","<img src=""img/flower2.png"" style=""width:200px;border:14px solid red;"">","null","","","","","","","","",""
"","image-keyboard-response","200","282557","0.0-200.0","3WRFBPLXRBAAGF8FI8OZ22JVEWJ3NH","A27LCUA35LPVM8","3TKXBROM5TWR181JXBYSOI8FGFVJIU","","792.7999999523163","img/flower1.png","76","793.7999999523163","3","0","1","1","1,0.333,0.333,0.333,1,0.333,0.333,0.333,1","1,0.333,0.333,0.333,1,0.333,0.333,0.333,1","1",""
"","html-keyboard-response","201","282859","0.0-201.0","3WRFBPLXRBAAGF8FI8OZ22JVEWJ3NH","A27LCUA35LPVM8","3TKXBROM5TWR181JXBYSOI8FGFVJIU","","null","<img src=""img/flower1.png"" style=""width:200px;border:14px solid red;"">","null","","","","","","","","",""
"","image-keyboard-response","202","283405","0.0-202.0","3WRFBPLXRBAAGF8FI8OZ22JVEWJ3NH","A27LCUA35LPVM8","3TKXBROM5TWR181JXBYSOI8FGFVJIU","","544.8999998569489","img/flower2.png","75","545.8999998569489","2","1","2","1","1,0.333,0.333,0.333,1,0.333,0.333,0.333,1","1,0.333,0.333,0.333,1,0.333,0.333,0.333,1","1",""
"","html-keyboard-response","203","283708","0.0-203.0","3WRFBPLXRBAAGF8FI8OZ22JVEWJ3NH","A27LCUA35LPVM8","3TKXBROM5TWR181JXBYSOI8FGFVJIU","","null","<img src=""img/flower2.png"" style=""width:200px; border:14px solid green;"">","null","","","","","","","","",""
"","image-keyboard-response","204","284205","0.0-204.0","3WRFBPLXRBAAGF8FI8OZ22JVEWJ3NH","A27LCUA35LPVM8","3TKXBROM5TWR181JXBYSOI8FGFVJIU","","495.60000014305115","img/flower2.png","75","496.7999999523163","2","1","2","1","1,0.333,0.333,0.333,1,0.333,0.333,0.333,1","1,0.333,0.333,0.333,1,0.333,0.333,0.333,1","1",""
"","html-keyboard-response","205","284508","0.0-205.0","3WRFBPLXRBAAGF8FI8OZ22JVEWJ3NH","A27LCUA35LPVM8","3TKXBROM5TWR181JXBYSOI8FGFVJIU","","null","<img src=""img/flower2.png"" style=""width:200px; border:14px solid green;"">","null","","","","","","","","",""
"","image-keyboard-response","206","285461","0.0-206.0","3WRFBPLXRBAAGF8FI8OZ22JVEWJ3NH","A27LCUA35LPVM8","3TKXBROM5TWR181JXBYSOI8FGFVJIU","","952","img/flower6.png","74","953.1999998092651","1","0","3","1","1,0.333,0.333,0.333,1,0.333,0.333,0.333,1","1,0.333,0.333,0.333,1,0.333,0.333,0.333,1","1",""
"","html-keyboard-response","207","285763","0.0-207.0","3WRFBPLXRBAAGF8FI8OZ22JVEWJ3NH","A27LCUA35LPVM8","3TKXBROM5TWR181JXBYSOI8FGFVJIU","","null","<img src=""img/flower6.png"" style=""width:200px;border:14px solid red;"">","null","","","","","","","","",""
"","image-keyboard-response","208","286013","0.0-208.0","3WRFBPLXRBAAGF8FI8OZ22JVEWJ3NH","A27LCUA35LPVM8","3TKXBROM5TWR181JXBYSOI8FGFVJIU","","247.89999985694885","img/flower6.png","75","249.20000004768372","2","0","3","1","1,0.333,0.333,0.333,1,0.333,0.333,0.333,1","1,0.333,0.333,0.333,1,0.333,0.333,0.333,1","1",""
"","html-keyboard-response","209","286315","0.0-209.0","3WRFBPLXRBAAGF8FI8OZ22JVEWJ3NH","A27LCUA35LPVM8","3TKXBROM5TWR181JXBYSOI8FGFVJIU","","null","<img src=""img/flower6.png"" style=""width:200px;border:14px solid red;"">","null","","","","","","","","",""
"","image-keyboard-response","210","287076","0.0-210.0","3WRFBPLXRBAAGF8FI8OZ22JVEWJ3NH","A27LCUA35LPVM8","3TKXBROM5TWR181JXBYSOI8FGFVJIU","","759.7000000476837","img/flower1.png","75","761","2","1","1","1","1,0.333,0.333,0.333,1,0.333,0.333,0.333,1","1,0.333,0.333,0.333,1,0.333,0.333,0.333,1","1",""
"","html-keyboard-response","211","287379","0.0-211.0","3WRFBPLXRBAAGF8FI8OZ22JVEWJ3NH","A27LCUA35LPVM8","3TKXBROM5TWR181JXBYSOI8FGFVJIU","","null","<img src=""img/flower1.png"" style=""width:200px; border:14px solid green;"">","null","","","","","","","","",""
"","image-keyboard-response","212","288133","0.0-212.0","3WRFBPLXRBAAGF8FI8OZ22JVEWJ3NH","A27LCUA35LPVM8","3TKXBROM5TWR181JXBYSOI8FGFVJIU","","752","img/flower6.png","76","753.2999999523163","3","1","3","1","1,0.333,0.333,0.333,1,0.333,0.333,0.333,1","1,0.333,0.333,0.333,1,0.333,0.333,0.333,1","1",""
"","html-keyboard-response","213","288435","0.0-213.0","3WRFBPLXRBAAGF8FI8OZ22JVEWJ3NH","A27LCUA35LPVM8","3TKXBROM5TWR181JXBYSOI8FGFVJIU","","null","<img src=""img/flower6.png"" style=""width:200px; border:14px solid green;"">","null","","","","","","","","",""
"","image-keyboard-response","214","288949","0.0-214.0","3WRFBPLXRBAAGF8FI8OZ22JVEWJ3NH","A27LCUA35LPVM8","3TKXBROM5TWR181JXBYSOI8FGFVJIU","","511.90000009536743","img/flower2.png","75","513.1000001430511","2","1","2","1","1,0.333,0.333,0.333,1,0.333,0.333,0.333,1","1,0.333,0.333,0.333,1,0.333,0.333,0.333,1","1",""
"","html-keyboard-response","215","289250","0.0-215.0","3WRFBPLXRBAAGF8FI8OZ22JVEWJ3NH","A27LCUA35LPVM8","3TKXBROM5TWR181JXBYSOI8FGFVJIU","","null","<img src=""img/flower2.png"" style=""width:200px; border:14px solid green;"">","null","","","","","","","","",""
"","image-keyboard-response","216","289749","0.0-216.0","3WRFBPLXRBAAGF8FI8OZ22JVEWJ3NH","A27LCUA35LPVM8","3TKXBROM5TWR181JXBYSOI8FGFVJIU","","497","img/flower6.png","76","498.40000009536743","3","1","3","1","1,0.333,0.333,0.333,1,0.333,0.333,0.333,1","1,0.333,0.333,0.333,1,0.333,0.333,0.333,1","1",""
"","html-keyboard-response","217","290050","0.0-217.0","3WRFBPLXRBAAGF8FI8OZ22JVEWJ3NH","A27LCUA35LPVM8","3TKXBROM5TWR181JXBYSOI8FGFVJIU","","null","<img src=""img/flower6.png"" style=""width:200px; border:14px solid green;"">","null","","","","","","","","",""
"","image-keyboard-response","218","290509","0.0-218.0","3WRFBPLXRBAAGF8FI8OZ22JVEWJ3NH","A27LCUA35LPVM8","3TKXBROM5TWR181JXBYSOI8FGFVJIU","","457.09999990463257","img/flower2.png","75","458.19999980926514","2","1","2","1","1,0.333,0.333,0.333,1,0.333,0.333,0.333,1","1,0.333,0.333,0.333,1,0.333,0.333,0.333,1","1",""
"","html-keyboard-response","219","290812","0.0-219.0","3WRFBPLXRBAAGF8FI8OZ22JVEWJ3NH","A27LCUA35LPVM8","3TKXBROM5TWR181JXBYSOI8FGFVJIU","","null","<img src=""img/flower2.png"" style=""width:200px; border:14px solid green;"">","null","","","","","","","","",""
"","image-keyboard-response","220","291221","0.0-220.0","3WRFBPLXRBAAGF8FI8OZ22JVEWJ3NH","A27LCUA35LPVM8","3TKXBROM5TWR181JXBYSOI8FGFVJIU","","408","img/flower1.png","76","409.19999980926514","3","0","1","1","1,0.333,0.333,0.333,1,0.333,0.333,0.333,1","1,0.333,0.333,0.333,1,0.333,0.333,0.333,1","1",""
"","html-keyboard-response","221","291522","0.0-221.0","3WRFBPLXRBAAGF8FI8OZ22JVEWJ3NH","A27LCUA35LPVM8","3TKXBROM5TWR181JXBYSOI8FGFVJIU","","null","<img src=""img/flower1.png"" style=""width:200px;border:14px solid red;"">","null","","","","","","","","",""
"","image-keyboard-response","222","292037","0.0-222.0","3WRFBPLXRBAAGF8FI8OZ22JVEWJ3NH","A27LCUA35LPVM8","3TKXBROM5TWR181JXBYSOI8FGFVJIU","","513.5999999046326","img/flower1.png","75","514.5","2","1","1","1","1,0.333,0.333,0.333,1,0.333,0.333,0.333,1","1,0.333,0.333,0.333,1,0.333,0.333,0.333,1","1",""
"","html-keyboard-response","223","292338","0.0-223.0","3WRFBPLXRBAAGF8FI8OZ22JVEWJ3NH","A27LCUA35LPVM8","3TKXBROM5TWR181JXBYSOI8FGFVJIU","","null","<img src=""img/flower1.png"" style=""width:200px; border:14px solid green;"">","null","","","","","","","","",""
"","image-keyboard-response","224","292932","0.0-224.0","3WRFBPLXRBAAGF8FI8OZ22JVEWJ3NH","A27LCUA35LPVM8","3TKXBROM5TWR181JXBYSOI8FGFVJIU","","592.8999998569489","img/flower2.png","76","594.1000001430511","3","1","2","1","1,0.333,0.333,0.333,1,0.333,0.333,0.333,1","1,0.333,0.333,0.333,1,0.333,0.333,0.333,1","1",""
"","html-keyboard-response","225","293234","0.0-225.0","3WRFBPLXRBAAGF8FI8OZ22JVEWJ3NH","A27LCUA35LPVM8","3TKXBROM5TWR181JXBYSOI8FGFVJIU","","null","<img src=""img/flower2.png"" style=""width:200px; border:14px solid green;"">","null","","","","","","","","",""
"","image-keyboard-response","226","293845","0.0-226.0","3WRFBPLXRBAAGF8FI8OZ22JVEWJ3NH","A27LCUA35LPVM8","3TKXBROM5TWR181JXBYSOI8FGFVJIU","","609","img/flower2.png","76","610.2999999523163","3","0","2","1","1,0.333,0.333,0.333,1,0.333,0.333,0.333,1","1,0.333,0.333,0.333,1,0.333,0.333,0.333,1","1",""
"","html-keyboard-response","227","294148","0.0-227.0","3WRFBPLXRBAAGF8FI8OZ22JVEWJ3NH","A27LCUA35LPVM8","3TKXBROM5TWR181JXBYSOI8FGFVJIU","","null","<img src=""img/flower2.png"" style=""width:200px;border:14px solid red;"">","null","","","","","","","","",""
"","image-keyboard-response","228","294749","0.0-228.0","3WRFBPLXRBAAGF8FI8OZ22JVEWJ3NH","A27LCUA35LPVM8","3TKXBROM5TWR181JXBYSOI8FGFVJIU","","599.5999999046326","img/flower2.png","75","600.7999999523163","2","1","2","1","1,0.333,0.333,0.333,1,0.333,0.333,0.333,1","1,0.333,0.333,0.333,1,0.333,0.333,0.333,1","1",""
"","html-keyboard-response","229","295050","0.0-229.0","3WRFBPLXRBAAGF8FI8OZ22JVEWJ3NH","A27LCUA35LPVM8","3TKXBROM5TWR181JXBYSOI8FGFVJIU","","null","<img src=""img/flower2.png"" style=""width:200px; border:14px solid green;"">","null","","","","","","","","",""
"","image-keyboard-response","230","296085","0.0-230.0","3WRFBPLXRBAAGF8FI8OZ22JVEWJ3NH","A27LCUA35LPVM8","3TKXBROM5TWR181JXBYSOI8FGFVJIU","","1032.9000000953674","img/flower6.png","76","1034.2000000476837","3","1","3","1","1,0.333,0.333,0.333,1,0.333,0.333,0.333,1","1,0.333,0.333,0.333,1,0.333,0.333,0.333,1","1",""
"","html-keyboard-response","231","296386","0.0-231.0","3WRFBPLXRBAAGF8FI8OZ22JVEWJ3NH","A27LCUA35LPVM8","3TKXBROM5TWR181JXBYSOI8FGFVJIU","","null","<img src=""img/flower6.png"" style=""width:200px; border:14px solid green;"">","null","","","","","","","","",""
"","image-keyboard-response","232","297557","0.0-232.0","3WRFBPLXRBAAGF8FI8OZ22JVEWJ3NH","A27LCUA35LPVM8","3TKXBROM5TWR181JXBYSOI8FGFVJIU","","1168.9000000953674","img/flower1.png","75","1170.2999999523163","2","0","1","1","1,0.333,0.333,0.333,1,0.333,0.333,0.333,1","1,0.333,0.333,0.333,1,0.333,0.333,0.333,1","1",""
"","html-keyboard-response","233","297859","0.0-233.0","3WRFBPLXRBAAGF8FI8OZ22JVEWJ3NH","A27LCUA35LPVM8","3TKXBROM5TWR181JXBYSOI8FGFVJIU","","null","<img src=""img/flower1.png"" style=""width:200px;border:14px solid red;"">","null","","","","","","","","",""
"","image-keyboard-response","234","298085","0.0-234.0","3WRFBPLXRBAAGF8FI8OZ22JVEWJ3NH","A27LCUA35LPVM8","3TKXBROM5TWR181JXBYSOI8FGFVJIU","","224.90000009536743","img/flower6.png","76","226","3","1","3","1","1,0.333,0.333,0.333,1,0.333,0.333,0.333,1","1,0.333,0.333,0.333,1,0.333,0.333,0.333,1","1",""
"","html-keyboard-response","235","298387","0.0-235.0","3WRFBPLXRBAAGF8FI8OZ22JVEWJ3NH","A27LCUA35LPVM8","3TKXBROM5TWR181JXBYSOI8FGFVJIU","","null","<img src=""img/flower6.png"" style=""width:200px; border:14px solid green;"">","null","","","","","","","","",""
"","image-keyboard-response","236","299565","0.0-236.0","3WRFBPLXRBAAGF8FI8OZ22JVEWJ3NH","A27LCUA35LPVM8","3TKXBROM5TWR181JXBYSOI8FGFVJIU","","1176.5","img/flower1.png","76","1177.9000000953674","3","1","1","1","1,0.333,0.333,0.333,1,0.333,0.333,0.333,1","1,0.333,0.333,0.333,1,0.333,0.333,0.333,1","1",""
"","html-keyboard-response","237","299868","0.0-237.0","3WRFBPLXRBAAGF8FI8OZ22JVEWJ3NH","A27LCUA35LPVM8","3TKXBROM5TWR181JXBYSOI8FGFVJIU","","null","<img src=""img/flower1.png"" style=""width:200px; border:14px solid green;"">","null","","","","","","","","",""
"","image-keyboard-response","238","300525","0.0-238.0","3WRFBPLXRBAAGF8FI8OZ22JVEWJ3NH","A27LCUA35LPVM8","3TKXBROM5TWR181JXBYSOI8FGFVJIU","","655.7000000476837","img/flower2.png","75","657","2","1","2","1","1,0.333,0.333,0.333,1,0.333,0.333,0.333,1","1,0.333,0.333,0.333,1,0.333,0.333,0.333,1","1",""
"","html-keyboard-response","239","300827","0.0-239.0","3WRFBPLXRBAAGF8FI8OZ22JVEWJ3NH","A27LCUA35LPVM8","3TKXBROM5TWR181JXBYSOI8FGFVJIU","","null","<img src=""img/flower2.png"" style=""width:200px; border:14px solid green;"">","null","","","","","","","","",""
"","image-keyboard-response","240","301685","0.0-240.0","3WRFBPLXRBAAGF8FI8OZ22JVEWJ3NH","A27LCUA35LPVM8","3TKXBROM5TWR181JXBYSOI8FGFVJIU","","857","img/flower6.png","76","857.8000001907349","3","1","3","1","1,0.333,0.333,0.333,1,0.333,0.333,0.333,1","1,0.333,0.333,0.333,1,0.333,0.333,0.333,1","1",""
"","html-keyboard-response","241","301987","0.0-241.0","3WRFBPLXRBAAGF8FI8OZ22JVEWJ3NH","A27LCUA35LPVM8","3TKXBROM5TWR181JXBYSOI8FGFVJIU","","null","<img src=""img/flower6.png"" style=""width:200px; border:14px solid green;"">","null","","","","","","","","",""
"","image-keyboard-response","242","302637","0.0-242.0","3WRFBPLXRBAAGF8FI8OZ22JVEWJ3NH","A27LCUA35LPVM8","3TKXBROM5TWR181JXBYSOI8FGFVJIU","","648.5","img/flower2.png","75","649.7000000476837","2","1","2","1","1,0.333,0.333,0.333,1,0.333,0.333,0.333,1","1,0.333,0.333,0.333,1,0.333,0.333,0.333,1","1",""
"","html-keyboard-response","243","302939","0.0-243.0","3WRFBPLXRBAAGF8FI8OZ22JVEWJ3NH","A27LCUA35LPVM8","3TKXBROM5TWR181JXBYSOI8FGFVJIU","","null","<img src=""img/flower2.png"" style=""width:200px; border:14px solid green;"">","null","","","","","","","","",""
"","image-keyboard-response","244","303389","0.0-244.0","3WRFBPLXRBAAGF8FI8OZ22JVEWJ3NH","A27LCUA35LPVM8","3TKXBROM5TWR181JXBYSOI8FGFVJIU","","448.90000009536743","img/flower2.png","75","449.80000019073486","2","1","2","1","1,0.333,0.333,0.333,1,0.333,0.333,0.333,1","1,0.333,0.333,0.333,1,0.333,0.333,0.333,1","1",""
"","html-keyboard-response","245","303691","0.0-245.0","3WRFBPLXRBAAGF8FI8OZ22JVEWJ3NH","A27LCUA35LPVM8","3TKXBROM5TWR181JXBYSOI8FGFVJIU","","null","<img src=""img/flower2.png"" style=""width:200px; border:14px solid green;"">","null","","","","","","","","",""
"","image-keyboard-response","246","304284","0.0-246.0","3WRFBPLXRBAAGF8FI8OZ22JVEWJ3NH","A27LCUA35LPVM8","3TKXBROM5TWR181JXBYSOI8FGFVJIU","","592","img/flower6.png","76","593.2999999523163","3","1","3","1","1,0.333,0.333,0.333,1,0.333,0.333,0.333,1","1,0.333,0.333,0.333,1,0.333,0.333,0.333,1","1",""
"","html-keyboard-response","247","304586","0.0-247.0","3WRFBPLXRBAAGF8FI8OZ22JVEWJ3NH","A27LCUA35LPVM8","3TKXBROM5TWR181JXBYSOI8FGFVJIU","","null","<img src=""img/flower6.png"" style=""width:200px; border:14px solid green;"">","null","","","","","","","","",""
"","image-keyboard-response","248","304980","0.0-248.0","3WRFBPLXRBAAGF8FI8OZ22JVEWJ3NH","A27LCUA35LPVM8","3TKXBROM5TWR181JXBYSOI8FGFVJIU","","393.2999999523163","img/flower6.png","76","394","3","1","3","1","1,0.333,0.333,0.333,1,0.333,0.333,0.333,1","1,0.333,0.333,0.333,1,0.333,0.333,0.333,1","1",""
"","html-keyboard-response","249","305281","0.0-249.0","3WRFBPLXRBAAGF8FI8OZ22JVEWJ3NH","A27LCUA35LPVM8","3TKXBROM5TWR181JXBYSOI8FGFVJIU","","null","<img src=""img/flower6.png"" style=""width:200px; border:14px solid green;"">","null","","","","","","","","",""
"","image-keyboard-response","250","305804","0.0-250.0","3WRFBPLXRBAAGF8FI8OZ22JVEWJ3NH","A27LCUA35LPVM8","3TKXBROM5TWR181JXBYSOI8FGFVJIU","","521.5","img/flower1.png","75","522.5999999046326","2","0","1","1","1,0.333,0.333,0.333,1,0.333,0.333,0.333,1","1,0.333,0.333,0.333,1,0.333,0.333,0.333,1","1",""
"","html-keyboard-response","251","306106","0.0-251.0","3WRFBPLXRBAAGF8FI8OZ22JVEWJ3NH","A27LCUA35LPVM8","3TKXBROM5TWR181JXBYSOI8FGFVJIU","","null","<img src=""img/flower1.png"" style=""width:200px;border:14px solid red;"">","null","","","","","","","","",""
"","image-keyboard-response","252","306749","0.0-252.0","3WRFBPLXRBAAGF8FI8OZ22JVEWJ3NH","A27LCUA35LPVM8","3TKXBROM5TWR181JXBYSOI8FGFVJIU","","641.3000001907349","img/flower6.png","76","642.6000001430511","3","1","3","1","1,0.333,0.333,0.333,1,0.333,0.333,0.333,1","1,0.333,0.333,0.333,1,0.333,0.333,0.333,1","1",""
"","html-keyboard-response","253","307051","0.0-253.0","3WRFBPLXRBAAGF8FI8OZ22JVEWJ3NH","A27LCUA35LPVM8","3TKXBROM5TWR181JXBYSOI8FGFVJIU","","null","<img src=""img/flower6.png"" style=""width:200px; border:14px solid green;"">","null","","","","","","","","",""
"","image-keyboard-response","254","307461","0.0-254.0","3WRFBPLXRBAAGF8FI8OZ22JVEWJ3NH","A27LCUA35LPVM8","3TKXBROM5TWR181JXBYSOI8FGFVJIU","","407.89999985694885","img/flower6.png","76","409.2000000476837","3","1","3","1","1,0.333,0.333,0.333,1,0.333,0.333,0.333,1","1,0.333,0.333,0.333,1,0.333,0.333,0.333,1","1",""
"","html-keyboard-response","255","307762","0.0-255.0","3WRFBPLXRBAAGF8FI8OZ22JVEWJ3NH","A27LCUA35LPVM8","3TKXBROM5TWR181JXBYSOI8FGFVJIU","","null","<img src=""img/flower6.png"" style=""width:200px; border:14px solid green;"">","null","","","","","","","","",""
"","image-keyboard-response","256","308253","0.0-256.0","3WRFBPLXRBAAGF8FI8OZ22JVEWJ3NH","A27LCUA35LPVM8","3TKXBROM5TWR181JXBYSOI8FGFVJIU","","489.40000009536743","img/flower1.png","76","490.40000009536743","3","0","1","1","1,0.333,0.333,0.333,1,0.333,0.333,0.333,1","1,0.333,0.333,0.333,1,0.333,0.333,0.333,1","1",""
"","html-keyboard-response","257","308554","0.0-257.0","3WRFBPLXRBAAGF8FI8OZ22JVEWJ3NH","A27LCUA35LPVM8","3TKXBROM5TWR181JXBYSOI8FGFVJIU","","null","<img src=""img/flower1.png"" style=""width:200px;border:14px solid red;"">","null","","","","","","","","",""
"","image-keyboard-response","258","309188","0.0-258.0","3WRFBPLXRBAAGF8FI8OZ22JVEWJ3NH","A27LCUA35LPVM8","3TKXBROM5TWR181JXBYSOI8FGFVJIU","","632.2999999523163","img/flower1.png","74","633.3999998569489","1","1","1","1","1,0.333,0.333,0.333,1,0.333,0.333,0.333,1","1,0.333,0.333,0.333,1,0.333,0.333,0.333,1","1",""
"","html-keyboard-response","259","309489","0.0-259.0","3WRFBPLXRBAAGF8FI8OZ22JVEWJ3NH","A27LCUA35LPVM8","3TKXBROM5TWR181JXBYSOI8FGFVJIU","","null","<img src=""img/flower1.png"" style=""width:200px; border:14px solid green;"">","null","","","","","","","","",""
"","image-keyboard-response","260","310244","0.0-260.0","3WRFBPLXRBAAGF8FI8OZ22JVEWJ3NH","A27LCUA35LPVM8","3TKXBROM5TWR181JXBYSOI8FGFVJIU","","753.5999999046326","img/flower6.png","76","754.9000000953674","3","1","3","1","1,0.333,0.333,0.333,1,0.333,0.333,0.333,1","1,0.333,0.333,0.333,1,0.333,0.333,0.333,1","1",""
"","html-keyboard-response","261","310546","0.0-261.0","3WRFBPLXRBAAGF8FI8OZ22JVEWJ3NH","A27LCUA35LPVM8","3TKXBROM5TWR181JXBYSOI8FGFVJIU","","null","<img src=""img/flower6.png"" style=""width:200px; border:14px solid green;"">","null","","","","","","","","",""
"","image-keyboard-response","262","310965","0.0-262.0","3WRFBPLXRBAAGF8FI8OZ22JVEWJ3NH","A27LCUA35LPVM8","3TKXBROM5TWR181JXBYSOI8FGFVJIU","","417.09999990463257","img/flower6.png","76","418.09999990463257","3","1","3","1","1,0.333,0.333,0.333,1,0.333,0.333,0.333,1","1,0.333,0.333,0.333,1,0.333,0.333,0.333,1","1",""
"","html-keyboard-response","263","311266","0.0-263.0","3WRFBPLXRBAAGF8FI8OZ22JVEWJ3NH","A27LCUA35LPVM8","3TKXBROM5TWR181JXBYSOI8FGFVJIU","","null","<img src=""img/flower6.png"" style=""width:200px; border:14px solid green;"">","null","","","","","","","","",""
"","image-keyboard-response","264","311780","0.0-264.0","3WRFBPLXRBAAGF8FI8OZ22JVEWJ3NH","A27LCUA35LPVM8","3TKXBROM5TWR181JXBYSOI8FGFVJIU","","512.4000000953674","img/flower6.png","76","513.5999999046326","3","1","3","1","1,0.333,0.333,0.333,1,0.333,0.333,0.333,1","1,0.333,0.333,0.333,1,0.333,0.333,0.333,1","1",""
"","html-keyboard-response","265","312082","0.0-265.0","3WRFBPLXRBAAGF8FI8OZ22JVEWJ3NH","A27LCUA35LPVM8","3TKXBROM5TWR181JXBYSOI8FGFVJIU","","null","<img src=""img/flower6.png"" style=""width:200px; border:14px solid green;"">","null","","","","","","","","",""
"","image-keyboard-response","266","312693","0.0-266.0","3WRFBPLXRBAAGF8FI8OZ22JVEWJ3NH","A27LCUA35LPVM8","3TKXBROM5TWR181JXBYSOI8FGFVJIU","","609.5","img/flower2.png","75","610.9000000953674","2","1","2","1","1,0.333,0.333,0.333,1,0.333,0.333,0.333,1","1,0.333,0.333,0.333,1,0.333,0.333,0.333,1","1",""
"","html-keyboard-response","267","313007","0.0-267.0","3WRFBPLXRBAAGF8FI8OZ22JVEWJ3NH","A27LCUA35LPVM8","3TKXBROM5TWR181JXBYSOI8FGFVJIU","","null","<img src=""img/flower2.png"" style=""width:200px; border:14px solid green;"">","null","","","","","","","","",""
"","image-keyboard-response","268","313581","0.0-268.0","3WRFBPLXRBAAGF8FI8OZ22JVEWJ3NH","A27LCUA35LPVM8","3TKXBROM5TWR181JXBYSOI8FGFVJIU","","571.7000000476837","img/flower1.png","74","572.8999998569489","1","1","1","1","1,0.333,0.333,0.333,1,0.333,0.333,0.333,1","1,0.333,0.333,0.333,1,0.333,0.333,0.333,1","1",""
"","html-keyboard-response","269","313883","0.0-269.0","3WRFBPLXRBAAGF8FI8OZ22JVEWJ3NH","A27LCUA35LPVM8","3TKXBROM5TWR181JXBYSOI8FGFVJIU","","null","<img src=""img/flower1.png"" style=""width:200px; border:14px solid green;"">","null","","","","","","","","",""
"","image-keyboard-response","270","314308","0.0-270.0","3WRFBPLXRBAAGF8FI8OZ22JVEWJ3NH","A27LCUA35LPVM8","3TKXBROM5TWR181JXBYSOI8FGFVJIU","","424.5","img/flower1.png","74","425.7000000476837","1","1","1","1","1,0.333,0.333,0.333,1,0.333,0.333,0.333,1","1,0.333,0.333,0.333,1,0.333,0.333,0.333,1","1",""
"","html-keyboard-response","271","314610","0.0-271.0","3WRFBPLXRBAAGF8FI8OZ22JVEWJ3NH","A27LCUA35LPVM8","3TKXBROM5TWR181JXBYSOI8FGFVJIU","","null","<img src=""img/flower1.png"" style=""width:200px; border:14px solid green;"">","null","","","","","","","","",""
"","image-keyboard-response","272","315325","0.0-272.0","3WRFBPLXRBAAGF8FI8OZ22JVEWJ3NH","A27LCUA35LPVM8","3TKXBROM5TWR181JXBYSOI8FGFVJIU","","713","img/flower6.png","76","714.5","3","1","3","1","1,0.333,0.333,0.333,1,0.333,0.333,0.333,1","1,0.333,0.333,0.333,1,0.333,0.333,0.333,1","1",""
"","html-keyboard-response","273","315627","0.0-273.0","3WRFBPLXRBAAGF8FI8OZ22JVEWJ3NH","A27LCUA35LPVM8","3TKXBROM5TWR181JXBYSOI8FGFVJIU","","null","<img src=""img/flower6.png"" style=""width:200px; border:14px solid green;"">","null","","","","","","","","",""
"","image-keyboard-response","274","316493","0.0-274.0","3WRFBPLXRBAAGF8FI8OZ22JVEWJ3NH","A27LCUA35LPVM8","3TKXBROM5TWR181JXBYSOI8FGFVJIU","","864.1000001430511","img/flower1.png","74","865.4000000953674","1","1","1","1","1,0.333,0.333,0.333,1,0.333,0.333,0.333,1","1,0.333,0.333,0.333,1,0.333,0.333,0.333,1","1",""
"","html-keyboard-response","275","316795","0.0-275.0","3WRFBPLXRBAAGF8FI8OZ22JVEWJ3NH","A27LCUA35LPVM8","3TKXBROM5TWR181JXBYSOI8FGFVJIU","","null","<img src=""img/flower1.png"" style=""width:200px; border:14px solid green;"">","null","","","","","","","","",""
"","image-keyboard-response","276","317237","0.0-276.0","3WRFBPLXRBAAGF8FI8OZ22JVEWJ3NH","A27LCUA35LPVM8","3TKXBROM5TWR181JXBYSOI8FGFVJIU","","439.90000009536743","img/flower1.png","74","441","1","1","1","1","1,0.333,0.333,0.333,1,0.333,0.333,0.333,1","1,0.333,0.333,0.333,1,0.333,0.333,0.333,1","1",""
"","html-keyboard-response","277","317539","0.0-277.0","3WRFBPLXRBAAGF8FI8OZ22JVEWJ3NH","A27LCUA35LPVM8","3TKXBROM5TWR181JXBYSOI8FGFVJIU","","null","<img src=""img/flower1.png"" style=""width:200px; border:14px solid green;"">","null","","","","","","","","",""
"","image-keyboard-response","278","318229","0.0-278.0","3WRFBPLXRBAAGF8FI8OZ22JVEWJ3NH","A27LCUA35LPVM8","3TKXBROM5TWR181JXBYSOI8FGFVJIU","","688.4000000953674","img/flower6.png","76","690.4000000953674","3","1","3","1","1,0.333,0.333,0.333,1,0.333,0.333,0.333,1","1,0.333,0.333,0.333,1,0.333,0.333,0.333,1","1",""
"","html-keyboard-response","279","318532","0.0-279.0","3WRFBPLXRBAAGF8FI8OZ22JVEWJ3NH","A27LCUA35LPVM8","3TKXBROM5TWR181JXBYSOI8FGFVJIU","","null","<img src=""img/flower6.png"" style=""width:200px; border:14px solid green;"">","null","","","","","","","","",""
"","image-keyboard-response","280","319357","0.0-280.0","3WRFBPLXRBAAGF8FI8OZ22JVEWJ3NH","A27LCUA35LPVM8","3TKXBROM5TWR181JXBYSOI8FGFVJIU","","822.8999998569489","img/flower1.png","74","824.3000001907349","1","1","1","1","1,0.333,0.333,0.333,1,0.333,0.333,0.333,1","1,0.333,0.333,0.333,1,0.333,0.333,0.333,1","1",""
"","html-keyboard-response","281","319659","0.0-281.0","3WRFBPLXRBAAGF8FI8OZ22JVEWJ3NH","A27LCUA35LPVM8","3TKXBROM5TWR181JXBYSOI8FGFVJIU","","null","<img src=""img/flower1.png"" style=""width:200px; border:14px solid green;"">","null","","","","","","","","",""
"","image-keyboard-response","282","320292","0.0-282.0","3WRFBPLXRBAAGF8FI8OZ22JVEWJ3NH","A27LCUA35LPVM8","3TKXBROM5TWR181JXBYSOI8FGFVJIU","","632","img/flower6.png","76","633.2999999523163","3","1","3","1","1,0.333,0.333,0.333,1,0.333,0.333,0.333,1","1,0.333,0.333,0.333,1,0.333,0.333,0.333,1","1",""
"","html-keyboard-response","283","320594","0.0-283.0","3WRFBPLXRBAAGF8FI8OZ22JVEWJ3NH","A27LCUA35LPVM8","3TKXBROM5TWR181JXBYSOI8FGFVJIU","","null","<img src=""img/flower6.png"" style=""width:200px; border:14px solid green;"">","null","","","","","","","","",""
"","image-keyboard-response","284","321517","0.0-284.0","3WRFBPLXRBAAGF8FI8OZ22JVEWJ3NH","A27LCUA35LPVM8","3TKXBROM5TWR181JXBYSOI8FGFVJIU","","920.5","img/flower1.png","74","922","1","1","1","1","1,0.333,0.333,0.333,1,0.333,0.333,0.333,1","1,0.333,0.333,0.333,1,0.333,0.333,0.333,1","1",""
"","html-keyboard-response","285","321819","0.0-285.0","3WRFBPLXRBAAGF8FI8OZ22JVEWJ3NH","A27LCUA35LPVM8","3TKXBROM5TWR181JXBYSOI8FGFVJIU","","null","<img src=""img/flower1.png"" style=""width:200px; border:14px solid green;"">","null","","","","","","","","",""
"","image-keyboard-response","286","322316","0.0-286.0","3WRFBPLXRBAAGF8FI8OZ22JVEWJ3NH","A27LCUA35LPVM8","3TKXBROM5TWR181JXBYSOI8FGFVJIU","","496.5","img/flower1.png","74","497.5","1","1","1","1","1,0.333,0.333,0.333,1,0.333,0.333,0.333,1","1,0.333,0.333,0.333,1,0.333,0.333,0.333,1","1",""
"","html-keyboard-response","287","322619","0.0-287.0","3WRFBPLXRBAAGF8FI8OZ22JVEWJ3NH","A27LCUA35LPVM8","3TKXBROM5TWR181JXBYSOI8FGFVJIU","","null","<img src=""img/flower1.png"" style=""width:200px; border:14px solid green;"">","null","","","","","","","","",""
"","image-keyboard-response","288","323005","0.0-288.0","3WRFBPLXRBAAGF8FI8OZ22JVEWJ3NH","A27LCUA35LPVM8","3TKXBROM5TWR181JXBYSOI8FGFVJIU","","384.5","img/flower1.png","74","385.7000000476837","1","1","1","1","1,0.333,0.333,0.333,1,0.333,0.333,0.333,1","1,0.333,0.333,0.333,1,0.333,0.333,0.333,1","1",""
"","html-keyboard-response","289","323307","0.0-289.0","3WRFBPLXRBAAGF8FI8OZ22JVEWJ3NH","A27LCUA35LPVM8","3TKXBROM5TWR181JXBYSOI8FGFVJIU","","null","<img src=""img/flower1.png"" style=""width:200px; border:14px solid green;"">","null","","","","","","","","",""
"","image-keyboard-response","290","323932","0.0-290.0","3WRFBPLXRBAAGF8FI8OZ22JVEWJ3NH","A27LCUA35LPVM8","3TKXBROM5TWR181JXBYSOI8FGFVJIU","","623.7999999523163","img/flower2.png","75","624.8999998569489","2","1","2","1","1,0.333,0.333,0.333,1,0.333,0.333,0.333,1","1,0.333,0.333,0.333,1,0.333,0.333,0.333,1","1",""
"","html-keyboard-response","291","324234","0.0-291.0","3WRFBPLXRBAAGF8FI8OZ22JVEWJ3NH","A27LCUA35LPVM8","3TKXBROM5TWR181JXBYSOI8FGFVJIU","","null","<img src=""img/flower2.png"" style=""width:200px; border:14px solid green;"">","null","","","","","","","","",""
"","image-keyboard-response","292","324932","0.0-292.0","3WRFBPLXRBAAGF8FI8OZ22JVEWJ3NH","A27LCUA35LPVM8","3TKXBROM5TWR181JXBYSOI8FGFVJIU","","696.4000000953674","img/flower6.png","76","697.6999998092651","3","1","3","1","1,0.333,0.333,0.333,1,0.333,0.333,0.333,1","1,0.333,0.333,0.333,1,0.333,0.333,0.333,1","1",""
"","html-keyboard-response","293","325234","0.0-293.0","3WRFBPLXRBAAGF8FI8OZ22JVEWJ3NH","A27LCUA35LPVM8","3TKXBROM5TWR181JXBYSOI8FGFVJIU","","null","<img src=""img/flower6.png"" style=""width:200px; border:14px solid green;"">","null","","","","","","","","",""
"","image-keyboard-response","294","326532","0.0-294.0","3WRFBPLXRBAAGF8FI8OZ22JVEWJ3NH","A27LCUA35LPVM8","3TKXBROM5TWR181JXBYSOI8FGFVJIU","","1296.5","img/flower2.png","75","1297.9000000953674","2","1","2","1","1,0.333,0.333,0.333,1,0.333,0.333,0.333,1","1,0.333,0.333,0.333,1,0.333,0.333,0.333,1","1",""
"","html-keyboard-response","295","326834","0.0-295.0","3WRFBPLXRBAAGF8FI8OZ22JVEWJ3NH","A27LCUA35LPVM8","3TKXBROM5TWR181JXBYSOI8FGFVJIU","","null","<img src=""img/flower2.png"" style=""width:200px; border:14px solid green;"">","null","","","","","","","","",""
"","image-keyboard-response","296","327268","0.0-296.0","3WRFBPLXRBAAGF8FI8OZ22JVEWJ3NH","A27LCUA35LPVM8","3TKXBROM5TWR181JXBYSOI8FGFVJIU","","433.5","img/flower2.png","75","434.39999985694885","2","1","2","1","1,0.333,0.333,0.333,1,0.333,0.333,0.333,1","1,0.333,0.333,0.333,1,0.333,0.333,0.333,1","1",""
"","html-keyboard-response","297","327570","0.0-297.0","3WRFBPLXRBAAGF8FI8OZ22JVEWJ3NH","A27LCUA35LPVM8","3TKXBROM5TWR181JXBYSOI8FGFVJIU","","null","<img src=""img/flower2.png"" style=""width:200px; border:14px solid green;"">","null","","","","","","","","",""
"","image-keyboard-response","298","327971","0.0-298.0","3WRFBPLXRBAAGF8FI8OZ22JVEWJ3NH","A27LCUA35LPVM8","3TKXBROM5TWR181JXBYSOI8FGFVJIU","","399.60000014305115","img/flower2.png","75","400.7999999523163","2","1","2","1","1,0.333,0.333,0.333,1,0.333,0.333,0.333,1","1,0.333,0.333,0.333,1,0.333,0.333,0.333,1","1",""
"","html-keyboard-response","299","328273","0.0-299.0","3WRFBPLXRBAAGF8FI8OZ22JVEWJ3NH","A27LCUA35LPVM8","3TKXBROM5TWR181JXBYSOI8FGFVJIU","","null","<img src=""img/flower2.png"" style=""width:200px; border:14px solid green;"">","null","","","","","","","","",""
"","image-keyboard-response","300","328956","0.0-300.0","3WRFBPLXRBAAGF8FI8OZ22JVEWJ3NH","A27LCUA35LPVM8","3TKXBROM5TWR181JXBYSOI8FGFVJIU","","682","img/flower6.png","76","683.3999998569489","3","1","3","1","1,0.333,0.333,0.333,1,0.333,0.333,0.333,1","1,0.333,0.333,0.333,1,0.333,0.333,0.333,1","1",""
"","html-keyboard-response","301","329258","0.0-301.0","3WRFBPLXRBAAGF8FI8OZ22JVEWJ3NH","A27LCUA35LPVM8","3TKXBROM5TWR181JXBYSOI8FGFVJIU","","null","<img src=""img/flower6.png"" style=""width:200px; border:14px solid green;"">","null","","","","","","","","",""
"","image-keyboard-response","302","329836","0.0-302.0","3WRFBPLXRBAAGF8FI8OZ22JVEWJ3NH","A27LCUA35LPVM8","3TKXBROM5TWR181JXBYSOI8FGFVJIU","","576.3999998569489","img/flower2.png","75","577.5","2","1","2","1","1,0.333,0.333,0.333,1,0.333,0.333,0.333,1","1,0.333,0.333,0.333,1,0.333,0.333,0.333,1","1",""
"","html-keyboard-response","303","330139","0.0-303.0","3WRFBPLXRBAAGF8FI8OZ22JVEWJ3NH","A27LCUA35LPVM8","3TKXBROM5TWR181JXBYSOI8FGFVJIU","","null","<img src=""img/flower2.png"" style=""width:200px; border:14px solid green;"">","null","","","","","","","","",""
"","image-keyboard-response","304","330508","0.0-304.0","3WRFBPLXRBAAGF8FI8OZ22JVEWJ3NH","A27LCUA35LPVM8","3TKXBROM5TWR181JXBYSOI8FGFVJIU","","368.7999999523163","img/flower2.png","75","369.7999999523163","2","1","2","1","1,0.333,0.333,0.333,1,0.333,0.333,0.333,1","1,0.333,0.333,0.333,1,0.333,0.333,0.333,1","1",""
"","html-keyboard-response","305","330810","0.0-305.0","3WRFBPLXRBAAGF8FI8OZ22JVEWJ3NH","A27LCUA35LPVM8","3TKXBROM5TWR181JXBYSOI8FGFVJIU","","null","<img src=""img/flower2.png"" style=""width:200px; border:14px solid green;"">","null","","","","","","","","",""
"","image-keyboard-response","306","331476","0.0-306.0","3WRFBPLXRBAAGF8FI8OZ22JVEWJ3NH","A27LCUA35LPVM8","3TKXBROM5TWR181JXBYSOI8FGFVJIU","","665.2999999523163","img/flower1.png","76","666.2000000476837","3","0","1","1","1,0.333,0.333,0.333,1,0.333,0.333,0.333,1","1,0.333,0.333,0.333,1,0.333,0.333,0.333,1","1",""
"","html-keyboard-response","307","331778","0.0-307.0","3WRFBPLXRBAAGF8FI8OZ22JVEWJ3NH","A27LCUA35LPVM8","3TKXBROM5TWR181JXBYSOI8FGFVJIU","","null","<img src=""img/flower1.png"" style=""width:200px;border:14px solid red;"">","null","","","","","","","","",""
"","image-keyboard-response","308","331989","0.0-308.0","3WRFBPLXRBAAGF8FI8OZ22JVEWJ3NH","A27LCUA35LPVM8","3TKXBROM5TWR181JXBYSOI8FGFVJIU","","209.5","img/flower6.png","74","210.60000014305115","1","0","3","1","1,0.333,0.333,0.333,1,0.333,0.333,0.333,1","1,0.333,0.333,0.333,1,0.333,0.333,0.333,1","1",""
"","html-keyboard-response","309","332292","0.0-309.0","3WRFBPLXRBAAGF8FI8OZ22JVEWJ3NH","A27LCUA35LPVM8","3TKXBROM5TWR181JXBYSOI8FGFVJIU","","null","<img src=""img/flower6.png"" style=""width:200px;border:14px solid red;"">","null","","","","","","","","",""
"","image-keyboard-response","310","332588","0.0-310.0","3WRFBPLXRBAAGF8FI8OZ22JVEWJ3NH","A27LCUA35LPVM8","3TKXBROM5TWR181JXBYSOI8FGFVJIU","","294.5","img/flower6.png","75","295.60000014305115","2","0","3","1","1,0.333,0.333,0.333,1,0.333,0.333,0.333,1","1,0.333,0.333,0.333,1,0.333,0.333,0.333,1","1",""
"","html-keyboard-response","311","332889","0.0-311.0","3WRFBPLXRBAAGF8FI8OZ22JVEWJ3NH","A27LCUA35LPVM8","3TKXBROM5TWR181JXBYSOI8FGFVJIU","","null","<img src=""img/flower6.png"" style=""width:200px;border:14px solid red;"">","null","","","","","","","","",""
"","image-keyboard-response","312","333093","0.0-312.0","3WRFBPLXRBAAGF8FI8OZ22JVEWJ3NH","A27LCUA35LPVM8","3TKXBROM5TWR181JXBYSOI8FGFVJIU","","202","img/flower1.png","76","203","3","0","1","1","1,0.333,0.333,0.333,1,0.333,0.333,0.333,1","1,0.333,0.333,0.333,1,0.333,0.333,0.333,1","1",""
"","html-keyboard-response","313","333401","0.0-313.0","3WRFBPLXRBAAGF8FI8OZ22JVEWJ3NH","A27LCUA35LPVM8","3TKXBROM5TWR181JXBYSOI8FGFVJIU","","null","<img src=""img/flower1.png"" style=""width:200px;border:14px solid red;"">","null","","","","","","","","",""
"","image-keyboard-response","314","334228","0.0-314.0","3WRFBPLXRBAAGF8FI8OZ22JVEWJ3NH","A27LCUA35LPVM8","3TKXBROM5TWR181JXBYSOI8FGFVJIU","","825.5","img/flower6.png","76","826.7999999523163","3","1","3","1","1,0.333,0.333,0.333,1,0.333,0.333,0.333,1","1,0.333,0.333,0.333,1,0.333,0.333,0.333,1","1",""
"","html-keyboard-response","315","334530","0.0-315.0","3WRFBPLXRBAAGF8FI8OZ22JVEWJ3NH","A27LCUA35LPVM8","3TKXBROM5TWR181JXBYSOI8FGFVJIU","","null","<img src=""img/flower6.png"" style=""width:200px; border:14px solid green;"">","null","","","","","","","","",""
"","image-keyboard-response","316","335052","0.0-316.0","3WRFBPLXRBAAGF8FI8OZ22JVEWJ3NH","A27LCUA35LPVM8","3TKXBROM5TWR181JXBYSOI8FGFVJIU","","520.5","img/flower2.png","75","521.7999999523163","2","1","2","1","1,0.333,0.333,0.333,1,0.333,0.333,0.333,1","1,0.333,0.333,0.333,1,0.333,0.333,0.333,1","1",""
"","html-keyboard-response","317","335354","0.0-317.0","3WRFBPLXRBAAGF8FI8OZ22JVEWJ3NH","A27LCUA35LPVM8","3TKXBROM5TWR181JXBYSOI8FGFVJIU","","null","<img src=""img/flower2.png"" style=""width:200px; border:14px solid green;"">","null","","","","","","","","",""
"","image-keyboard-response","318","335787","0.0-318.0","3WRFBPLXRBAAGF8FI8OZ22JVEWJ3NH","A27LCUA35LPVM8","3TKXBROM5TWR181JXBYSOI8FGFVJIU","","431.80000019073486","img/flower2.png","75","433","2","1","2","1","1,0.333,0.333,0.333,1,0.333,0.333,0.333,1","1,0.333,0.333,0.333,1,0.333,0.333,0.333,1","1",""
"","html-keyboard-response","319","336089","0.0-319.0","3WRFBPLXRBAAGF8FI8OZ22JVEWJ3NH","A27LCUA35LPVM8","3TKXBROM5TWR181JXBYSOI8FGFVJIU","","null","<img src=""img/flower2.png"" style=""width:200px; border:14px solid green;"">","null","","","","","","","","",""
"","image-keyboard-response","320","336564","0.0-320.0","3WRFBPLXRBAAGF8FI8OZ22JVEWJ3NH","A27LCUA35LPVM8","3TKXBROM5TWR181JXBYSOI8FGFVJIU","","474.39999985694885","img/flower6.png","74","475.5","1","1","3","1","1,0.333,0.333,0.333,1,0.333,0.333,0.333,1","1,0.333,0.333,0.333,1,0.333,0.333,0.333,1","1",""
"","html-keyboard-response","321","336866","0.0-321.0","3WRFBPLXRBAAGF8FI8OZ22JVEWJ3NH","A27LCUA35LPVM8","3TKXBROM5TWR181JXBYSOI8FGFVJIU","","null","<img src=""img/flower6.png"" style=""width:200px; border:14px solid green;"">","null","","","","","","","","",""
"","image-keyboard-response","322","338108","0.0-322.0","3WRFBPLXRBAAGF8FI8OZ22JVEWJ3NH","A27LCUA35LPVM8","3TKXBROM5TWR181JXBYSOI8FGFVJIU","","1240.7000000476837","img/flower1.png","74","1242","1","1","1","1","1,0.333,0.333,0.333,1,0.333,0.333,0.333,1","1,0.333,0.333,0.333,1,0.333,0.333,0.333,1","1",""
"","html-keyboard-response","323","338410","0.0-323.0","3WRFBPLXRBAAGF8FI8OZ22JVEWJ3NH","A27LCUA35LPVM8","3TKXBROM5TWR181JXBYSOI8FGFVJIU","","null","<img src=""img/flower1.png"" style=""width:200px; border:14px solid green;"">","null","","","","","","","","",""
"","image-keyboard-response","324","339124","0.0-324.0","3WRFBPLXRBAAGF8FI8OZ22JVEWJ3NH","A27LCUA35LPVM8","3TKXBROM5TWR181JXBYSOI8FGFVJIU","","712.3999998569489","img/flower2.png","75","713.3999998569489","2","1","2","1","1,0.333,0.333,0.333,1,0.333,0.333,0.333,1","1,0.333,0.333,0.333,1,0.333,0.333,0.333,1","1",""
"","html-keyboard-response","325","339425","0.0-325.0","3WRFBPLXRBAAGF8FI8OZ22JVEWJ3NH","A27LCUA35LPVM8","3TKXBROM5TWR181JXBYSOI8FGFVJIU","","null","<img src=""img/flower2.png"" style=""width:200px; border:14px solid green;"">","null","","","","","","","","",""
"","image-keyboard-response","326","340268","0.0-326.0","3WRFBPLXRBAAGF8FI8OZ22JVEWJ3NH","A27LCUA35LPVM8","3TKXBROM5TWR181JXBYSOI8FGFVJIU","","841.7000000476837","img/flower1.png","74","843.1000001430511","1","1","1","1","1,0.333,0.333,0.333,1,0.333,0.333,0.333,1","1,0.333,0.333,0.333,1,0.333,0.333,0.333,1","1",""
"","html-keyboard-response","327","340570","0.0-327.0","3WRFBPLXRBAAGF8FI8OZ22JVEWJ3NH","A27LCUA35LPVM8","3TKXBROM5TWR181JXBYSOI8FGFVJIU","","null","<img src=""img/flower1.png"" style=""width:200px; border:14px solid green;"">","null","","","","","","","","",""
"","image-keyboard-response","328","341148","0.0-328.0","3WRFBPLXRBAAGF8FI8OZ22JVEWJ3NH","A27LCUA35LPVM8","3TKXBROM5TWR181JXBYSOI8FGFVJIU","","576.4000000953674","img/flower2.png","74","577.7000000476837","1","0","2","1","1,0.333,0.333,0.333,1,0.333,0.333,0.333,1","1,0.333,0.333,0.333,1,0.333,0.333,0.333,1","1",""
"","html-keyboard-response","329","341450","0.0-329.0","3WRFBPLXRBAAGF8FI8OZ22JVEWJ3NH","A27LCUA35LPVM8","3TKXBROM5TWR181JXBYSOI8FGFVJIU","","null","<img src=""img/flower2.png"" style=""width:200px;border:14px solid red;"">","null","","","","","","","","",""
"","image-keyboard-response","330","341852","0.0-330.0","3WRFBPLXRBAAGF8FI8OZ22JVEWJ3NH","A27LCUA35LPVM8","3TKXBROM5TWR181JXBYSOI8FGFVJIU","","400.39999985694885","img/flower2.png","75","401.7999999523163","2","1","2","1","1,0.333,0.333,0.333,1,0.333,0.333,0.333,1","1,0.333,0.333,0.333,1,0.333,0.333,0.333,1","1",""
"","html-keyboard-response","331","342154","0.0-331.0","3WRFBPLXRBAAGF8FI8OZ22JVEWJ3NH","A27LCUA35LPVM8","3TKXBROM5TWR181JXBYSOI8FGFVJIU","","null","<img src=""img/flower2.png"" style=""width:200px; border:14px solid green;"">","null","","","","","","","","",""
"","image-keyboard-response","332","342892","0.0-332.0","3WRFBPLXRBAAGF8FI8OZ22JVEWJ3NH","A27LCUA35LPVM8","3TKXBROM5TWR181JXBYSOI8FGFVJIU","","736.7999999523163","img/flower1.png","74","737.8999998569489","1","1","1","1","1,0.333,0.333,0.333,1,0.333,0.333,0.333,1","1,0.333,0.333,0.333,1,0.333,0.333,0.333,1","1",""
"","html-keyboard-response","333","343195","0.0-333.0","3WRFBPLXRBAAGF8FI8OZ22JVEWJ3NH","A27LCUA35LPVM8","3TKXBROM5TWR181JXBYSOI8FGFVJIU","","null","<img src=""img/flower1.png"" style=""width:200px; border:14px solid green;"">","null","","","","","","","","",""
"","image-keyboard-response","334","343892","0.0-334.0","3WRFBPLXRBAAGF8FI8OZ22JVEWJ3NH","A27LCUA35LPVM8","3TKXBROM5TWR181JXBYSOI8FGFVJIU","","695.4000000953674","img/flower2.png","75","696.5999999046326","2","1","2","1","1,0.333,0.333,0.333,1,0.333,0.333,0.333,1","1,0.333,0.333,0.333,1,0.333,0.333,0.333,1","1",""
"","html-keyboard-response","335","344194","0.0-335.0","3WRFBPLXRBAAGF8FI8OZ22JVEWJ3NH","A27LCUA35LPVM8","3TKXBROM5TWR181JXBYSOI8FGFVJIU","","null","<img src=""img/flower2.png"" style=""width:200px; border:14px solid green;"">","null","","","","","","","","",""
"","image-keyboard-response","336","345036","0.0-336.0","3WRFBPLXRBAAGF8FI8OZ22JVEWJ3NH","A27LCUA35LPVM8","3TKXBROM5TWR181JXBYSOI8FGFVJIU","","841.2999999523163","img/flower6.png","74","842.0999999046326","1","0","3","1","1,0.333,0.333,0.333,1,0.333,0.333,0.333,1","1,0.333,0.333,0.333,1,0.333,0.333,0.333,1","1",""
"","html-keyboard-response","337","345337","0.0-337.0","3WRFBPLXRBAAGF8FI8OZ22JVEWJ3NH","A27LCUA35LPVM8","3TKXBROM5TWR181JXBYSOI8FGFVJIU","","null","<img src=""img/flower6.png"" style=""width:200px;border:14px solid red;"">","null","","","","","","","","",""
"","image-keyboard-response","338","345948","0.0-338.0","3WRFBPLXRBAAGF8FI8OZ22JVEWJ3NH","A27LCUA35LPVM8","3TKXBROM5TWR181JXBYSOI8FGFVJIU","","609.7999999523163","img/flower2.png","75","611.0999999046326","2","1","2","1","1,0.333,0.333,0.333,1,0.333,0.333,0.333,1","1,0.333,0.333,0.333,1,0.333,0.333,0.333,1","1",""
"","html-keyboard-response","339","346251","0.0-339.0","3WRFBPLXRBAAGF8FI8OZ22JVEWJ3NH","A27LCUA35LPVM8","3TKXBROM5TWR181JXBYSOI8FGFVJIU","","null","<img src=""img/flower2.png"" style=""width:200px; border:14px solid green;"">","null","","","","","","","","",""
"","image-keyboard-response","340","346723","0.0-340.0","3WRFBPLXRBAAGF8FI8OZ22JVEWJ3NH","A27LCUA35LPVM8","3TKXBROM5TWR181JXBYSOI8FGFVJIU","","470.7999999523163","img/flower6.png","76","472.10000014305115","3","1","3","1","1,0.333,0.333,0.333,1,0.333,0.333,0.333,1","1,0.333,0.333,0.333,1,0.333,0.333,0.333,1","1",""
"","html-keyboard-response","341","347026","0.0-341.0","3WRFBPLXRBAAGF8FI8OZ22JVEWJ3NH","A27LCUA35LPVM8","3TKXBROM5TWR181JXBYSOI8FGFVJIU","","null","<img src=""img/flower6.png"" style=""width:200px; border:14px solid green;"">","null","","","","","","","","",""
"","image-keyboard-response","342","347612","0.0-342.0","3WRFBPLXRBAAGF8FI8OZ22JVEWJ3NH","A27LCUA35LPVM8","3TKXBROM5TWR181JXBYSOI8FGFVJIU","","585.6000001430511","img/flower2.png","75","586.3999998569489","2","1","2","1","1,0.333,0.333,0.333,1,0.333,0.333,0.333,1","1,0.333,0.333,0.333,1,0.333,0.333,0.333,1","1",""
"","html-keyboard-response","343","347914","0.0-343.0","3WRFBPLXRBAAGF8FI8OZ22JVEWJ3NH","A27LCUA35LPVM8","3TKXBROM5TWR181JXBYSOI8FGFVJIU","","null","<img src=""img/flower2.png"" style=""width:200px; border:14px solid green;"">","null","","","","","","","","",""
"","image-keyboard-response","344","348460","0.0-344.0","3WRFBPLXRBAAGF8FI8OZ22JVEWJ3NH","A27LCUA35LPVM8","3TKXBROM5TWR181JXBYSOI8FGFVJIU","","544.8999998569489","img/flower6.png","76","545.9000000953674","3","1","3","1","1,0.333,0.333,0.333,1,0.333,0.333,0.333,1","1,0.333,0.333,0.333,1,0.333,0.333,0.333,1","1",""
"","html-keyboard-response","345","348762","0.0-345.0","3WRFBPLXRBAAGF8FI8OZ22JVEWJ3NH","A27LCUA35LPVM8","3TKXBROM5TWR181JXBYSOI8FGFVJIU","","null","<img src=""img/flower6.png"" style=""width:200px; border:14px solid green;"">","null","","","","","","","","",""
"","image-keyboard-response","346","349468","0.0-346.0","3WRFBPLXRBAAGF8FI8OZ22JVEWJ3NH","A27LCUA35LPVM8","3TKXBROM5TWR181JXBYSOI8FGFVJIU","","705.4000000953674","img/flower1.png","74","706.4000000953674","1","1","1","1","1,0.333,0.333,0.333,1,0.333,0.333,0.333,1","1,0.333,0.333,0.333,1,0.333,0.333,0.333,1","1",""
"","html-keyboard-response","347","349770","0.0-347.0","3WRFBPLXRBAAGF8FI8OZ22JVEWJ3NH","A27LCUA35LPVM8","3TKXBROM5TWR181JXBYSOI8FGFVJIU","","null","<img src=""img/flower1.png"" style=""width:200px; border:14px solid green;"">","null","","","","","","","","",""
"","image-keyboard-response","348","350460","0.0-348.0","3WRFBPLXRBAAGF8FI8OZ22JVEWJ3NH","A27LCUA35LPVM8","3TKXBROM5TWR181JXBYSOI8FGFVJIU","","689","img/flower6.png","75","690","2","0","3","1","1,0.333,0.333,0.333,1,0.333,0.333,0.333,1","1,0.333,0.333,0.333,1,0.333,0.333,0.333,1","1",""
"","html-keyboard-response","349","350763","0.0-349.0","3WRFBPLXRBAAGF8FI8OZ22JVEWJ3NH","A27LCUA35LPVM8","3TKXBROM5TWR181JXBYSOI8FGFVJIU","","null","<img src=""img/flower6.png"" style=""width:200px;border:14px solid red;"">","null","","","","","","","","",""
"","image-keyboard-response","350","350988","0.0-350.0","3WRFBPLXRBAAGF8FI8OZ22JVEWJ3NH","A27LCUA35LPVM8","3TKXBROM5TWR181JXBYSOI8FGFVJIU","","224.20000004768372","img/flower1.png","76","225.20000004768372","3","1","1","1","1,0.333,0.333,0.333,1,0.333,0.333,0.333,1","1,0.333,0.333,0.333,1,0.333,0.333,0.333,1","1",""
"","html-keyboard-response","351","351290","0.0-351.0","3WRFBPLXRBAAGF8FI8OZ22JVEWJ3NH","A27LCUA35LPVM8","3TKXBROM5TWR181JXBYSOI8FGFVJIU","","null","<img src=""img/flower1.png"" style=""width:200px; border:14px solid green;"">","null","","","","","","","","",""
"","image-keyboard-response","352","352284","0.0-352.0","3WRFBPLXRBAAGF8FI8OZ22JVEWJ3NH","A27LCUA35LPVM8","3TKXBROM5TWR181JXBYSOI8FGFVJIU","","993.0999999046326","img/flower6.png","76","994.2000000476837","3","1","3","1","1,0.333,0.333,0.333,1,0.333,0.333,0.333,1","1,0.333,0.333,0.333,1,0.333,0.333,0.333,1","1",""
"","html-keyboard-response","353","352586","0.0-353.0","3WRFBPLXRBAAGF8FI8OZ22JVEWJ3NH","A27LCUA35LPVM8","3TKXBROM5TWR181JXBYSOI8FGFVJIU","","null","<img src=""img/flower6.png"" style=""width:200px; border:14px solid green;"">","null","","","","","","","","",""
"","image-keyboard-response","354","353684","0.0-354.0","3WRFBPLXRBAAGF8FI8OZ22JVEWJ3NH","A27LCUA35LPVM8","3TKXBROM5TWR181JXBYSOI8FGFVJIU","","1097.2999999523163","img/flower6.png","76","1098.6000001430511","3","1","3","1","1,0.333,0.333,0.333,1,0.333,0.333,0.333,1","1,0.333,0.333,0.333,1,0.333,0.333,0.333,1","1",""
"","html-keyboard-response","355","353987","0.0-355.0","3WRFBPLXRBAAGF8FI8OZ22JVEWJ3NH","A27LCUA35LPVM8","3TKXBROM5TWR181JXBYSOI8FGFVJIU","","null","<img src=""img/flower6.png"" style=""width:200px; border:14px solid green;"">","null","","","","","","","","",""
"","image-keyboard-response","356","354851","0.0-356.0","3WRFBPLXRBAAGF8FI8OZ22JVEWJ3NH","A27LCUA35LPVM8","3TKXBROM5TWR181JXBYSOI8FGFVJIU","","862.6000001430511","img/flower1.png","74","863.7000000476837","1","1","1","1","1,0.333,0.333,0.333,1,0.333,0.333,0.333,1","1,0.333,0.333,0.333,1,0.333,0.333,0.333,1","1",""
"","html-keyboard-response","357","355152","0.0-357.0","3WRFBPLXRBAAGF8FI8OZ22JVEWJ3NH","A27LCUA35LPVM8","3TKXBROM5TWR181JXBYSOI8FGFVJIU","","null","<img src=""img/flower1.png"" style=""width:200px; border:14px solid green;"">","null","","","","","","","","",""
"","image-keyboard-response","358","355716","0.0-358.0","3WRFBPLXRBAAGF8FI8OZ22JVEWJ3NH","A27LCUA35LPVM8","3TKXBROM5TWR181JXBYSOI8FGFVJIU","","562.2000000476837","img/flower1.png","74","563.5","1","1","1","1","1,0.333,0.333,0.333,1,0.333,0.333,0.333,1","1,0.333,0.333,0.333,1,0.333,0.333,0.333,1","1",""
"","html-keyboard-response","359","356018","0.0-359.0","3WRFBPLXRBAAGF8FI8OZ22JVEWJ3NH","A27LCUA35LPVM8","3TKXBROM5TWR181JXBYSOI8FGFVJIU","","null","<img src=""img/flower1.png"" style=""width:200px; border:14px solid green;"">","null","","","","","","","","",""
"","image-keyboard-response","360","356444","0.0-360.0","3WRFBPLXRBAAGF8FI8OZ22JVEWJ3NH","A27LCUA35LPVM8","3TKXBROM5TWR181JXBYSOI8FGFVJIU","","424.2000000476837","img/flower1.png","74","425.7000000476837","1","1","1","1","1,0.333,0.333,0.333,1,0.333,0.333,0.333,1","1,0.333,0.333,0.333,1,0.333,0.333,0.333,1","1",""
"","html-keyboard-response","361","356746","0.0-361.0","3WRFBPLXRBAAGF8FI8OZ22JVEWJ3NH","A27LCUA35LPVM8","3TKXBROM5TWR181JXBYSOI8FGFVJIU","","null","<img src=""img/flower1.png"" style=""width:200px; border:14px solid green;"">","null","","","","","","","","",""
"","html-keyboard-response","362","363843","0.0-362.0","3WRFBPLXRBAAGF8FI8OZ22JVEWJ3NH","A27LCUA35LPVM8","3TKXBROM5TWR181JXBYSOI8FGFVJIU","","","","","","","","","","","","",""
"","instructions","363","366412","0.0-363.0","3WRFBPLXRBAAGF8FI8OZ22JVEWJ3NH","A27LCUA35LPVM8","3TKXBROM5TWR181JXBYSOI8FGFVJIU","[{""page_index"":0,""viewing_time"":2567.199999809265}]","2567.399999856949","","","","","","","","","","",""
"","survey-text","364","378708","0.0-364.0","3WRFBPLXRBAAGF8FI8OZ22JVEWJ3NH","A27LCUA35LPVM8","3TKXBROM5TWR181JXBYSOI8FGFVJIU","","12292.600000143051","","","","","","","","","","","{""Q0"":""A27LCUA35LPVM8""}"
