"rt","url","trial_type","trial_index","time_elapsed","internal_node_id","assignmentID","mturkID","hitID","success","view_history","stimulus","key_press","reactionTime","a","r","s","reward_cond","responses"
"14109.699999999255","consent.html","external-html","0","14172","0.0-0.0","3DH6GAKTYZB5D7JMAHSJNJMHTYGYZZ","A27W025UEXS1G0","3S829FDFT2NBOHQMM1CIOU0HZYXDXL","","","","","","","","","",""
"","","fullscreen","1","16719","0.0-1.0","3DH6GAKTYZB5D7JMAHSJNJMHTYGYZZ","A27W025UEXS1G0","3S829FDFT2NBOHQMM1CIOU0HZYXDXL","true","","","","","","","","",""
"58646.5","","instructions","2","75367","0.0-2.0","3DH6GAKTYZB5D7JMAHSJNJMHTYGYZZ","A27W025UEXS1G0","3S829FDFT2NBOHQMM1CIOU0HZYXDXL","","[{""page_index"":0,""viewing_time"":9260.599999997765},{""page_index"":1,""viewing_time"":8069.10000000149},{""page_index"":2,""viewing_time"":7844.599999997765},{""page_index"":3,""viewing_time"":6561.20000000298},{""page_index"":4,""viewing_time"":5639.79999999702},{""page_index"":5,""viewing_time"":14570.800000000745},{""page_index"":6,""viewing_time"":6699.900000002235}]","","","","","","","",""
"15023.300000000745","","instructions","3","90391","0.0-3.0","3DH6GAKTYZB5D7JMAHSJNJMHTYGYZZ","A27W025UEXS1G0","3S829FDFT2NBOHQMM1CIOU0HZYXDXL","","[{""page_index"":0,""viewing_time"":15023.199999999255}]","","","","","","","",""
"1015.6000000014901","","image-keyboard-response","4","91407","0.0-4.0","3DH6GAKTYZB5D7JMAHSJNJMHTYGYZZ","A27W025UEXS1G0","3S829FDFT2NBOHQMM1CIOU0HZYXDXL","","","img/flower4.png","74","1016.1999999992549","1","1","1","",""
"null","","html-keyboard-response","5","91715","0.0-5.0","3DH6GAKTYZB5D7JMAHSJNJMHTYGYZZ","A27W025UEXS1G0","3S829FDFT2NBOHQMM1CIOU0HZYXDXL","","","<img src=""img/flower4.png"" style=""width:200px; border:14px solid green;"">","null","","","","","",""
"923.3000000007451","","image-keyboard-response","6","92639","0.0-6.0","3DH6GAKTYZB5D7JMAHSJNJMHTYGYZZ","A27W025UEXS1G0","3S829FDFT2NBOHQMM1CIOU0HZYXDXL","","","img/flower6.png","76","923.6999999992549","3","1","3","",""
"null","","html-keyboard-response","7","92948","0.0-7.0","3DH6GAKTYZB5D7JMAHSJNJMHTYGYZZ","A27W025UEXS1G0","3S829FDFT2NBOHQMM1CIOU0HZYXDXL","","","<img src=""img/flower6.png"" style=""width:200px; border:14px solid green;"">","null","","","","","",""
"826.4000000022352","","image-keyboard-response","8","93775","0.0-8.0","3DH6GAKTYZB5D7JMAHSJNJMHTYGYZZ","A27W025UEXS1G0","3S829FDFT2NBOHQMM1CIOU0HZYXDXL","","","img/flower5.png","75","826.8999999985099","2","1","2","",""
"null","","html-keyboard-response","9","94086","0.0-9.0","3DH6GAKTYZB5D7JMAHSJNJMHTYGYZZ","A27W025UEXS1G0","3S829FDFT2NBOHQMM1CIOU0HZYXDXL","","","<img src=""img/flower5.png"" style=""width:200px; border:14px solid green;"">","null","","","","","",""
"617.1000000014901","","image-keyboard-response","10","94703","0.0-10.0","3DH6GAKTYZB5D7JMAHSJNJMHTYGYZZ","A27W025UEXS1G0","3S829FDFT2NBOHQMM1CIOU0HZYXDXL","","","img/flower6.png","76","617.5999999977648","3","1","3","",""
"null","","html-keyboard-response","11","95007","0.0-11.0","3DH6GAKTYZB5D7JMAHSJNJMHTYGYZZ","A27W025UEXS1G0","3S829FDFT2NBOHQMM1CIOU0HZYXDXL","","","<img src=""img/flower6.png"" style=""width:200px; border:14px solid green;"">","null","","","","","",""
"448","","image-keyboard-response","12","95456","0.0-12.0","3DH6GAKTYZB5D7JMAHSJNJMHTYGYZZ","A27W025UEXS1G0","3S829FDFT2NBOHQMM1CIOU0HZYXDXL","","","img/flower5.png","75","448.30000000074506","2","1","2","",""
"null","","html-keyboard-response","13","95761","0.0-13.0","3DH6GAKTYZB5D7JMAHSJNJMHTYGYZZ","A27W025UEXS1G0","3S829FDFT2NBOHQMM1CIOU0HZYXDXL","","","<img src=""img/flower5.png"" style=""width:200px; border:14px solid green;"">","null","","","","","",""
"549.5999999977648","","image-keyboard-response","14","96311","0.0-14.0","3DH6GAKTYZB5D7JMAHSJNJMHTYGYZZ","A27W025UEXS1G0","3S829FDFT2NBOHQMM1CIOU0HZYXDXL","","","img/flower5.png","75","550","2","0","2","",""
"null","","html-keyboard-response","15","96623","0.0-15.0","3DH6GAKTYZB5D7JMAHSJNJMHTYGYZZ","A27W025UEXS1G0","3S829FDFT2NBOHQMM1CIOU0HZYXDXL","","","<img src=""img/flower5.png"" style=""width:200px;border:14px solid red;"">","null","","","","","",""
"592.3000000007451","","image-keyboard-response","16","97215","0.0-16.0","3DH6GAKTYZB5D7JMAHSJNJMHTYGYZZ","A27W025UEXS1G0","3S829FDFT2NBOHQMM1CIOU0HZYXDXL","","","img/flower5.png","75","592.6999999992549","2","1","2","",""
"null","","html-keyboard-response","17","97516","0.0-17.0","3DH6GAKTYZB5D7JMAHSJNJMHTYGYZZ","A27W025UEXS1G0","3S829FDFT2NBOHQMM1CIOU0HZYXDXL","","","<img src=""img/flower5.png"" style=""width:200px; border:14px solid green;"">","null","","","","","",""
"754.6999999992549","","image-keyboard-response","18","98271","0.0-18.0","3DH6GAKTYZB5D7JMAHSJNJMHTYGYZZ","A27W025UEXS1G0","3S829FDFT2NBOHQMM1CIOU0HZYXDXL","","","img/flower4.png","74","755.1000000014901","1","1","1","",""
"null","","html-keyboard-response","19","98579","0.0-19.0","3DH6GAKTYZB5D7JMAHSJNJMHTYGYZZ","A27W025UEXS1G0","3S829FDFT2NBOHQMM1CIOU0HZYXDXL","","","<img src=""img/flower4.png"" style=""width:200px; border:14px solid green;"">","null","","","","","",""
"532.8999999985099","","image-keyboard-response","20","99112","0.0-20.0","3DH6GAKTYZB5D7JMAHSJNJMHTYGYZZ","A27W025UEXS1G0","3S829FDFT2NBOHQMM1CIOU0HZYXDXL","","","img/flower6.png","76","533.3999999985099","3","1","3","",""
"null","","html-keyboard-response","21","99425","0.0-21.0","3DH6GAKTYZB5D7JMAHSJNJMHTYGYZZ","A27W025UEXS1G0","3S829FDFT2NBOHQMM1CIOU0HZYXDXL","","","<img src=""img/flower6.png"" style=""width:200px; border:14px solid green;"">","null","","","","","",""
"453.80000000074506","","image-keyboard-response","22","99880","0.0-22.0","3DH6GAKTYZB5D7JMAHSJNJMHTYGYZZ","A27W025UEXS1G0","3S829FDFT2NBOHQMM1CIOU0HZYXDXL","","","img/flower6.png","76","454.0999999977648","3","1","3","",""
"null","","html-keyboard-response","23","100193","0.0-23.0","3DH6GAKTYZB5D7JMAHSJNJMHTYGYZZ","A27W025UEXS1G0","3S829FDFT2NBOHQMM1CIOU0HZYXDXL","","","<img src=""img/flower6.png"" style=""width:200px; border:14px solid green;"">","null","","","","","",""
"470.30000000074506","","image-keyboard-response","24","100664","0.0-24.0","3DH6GAKTYZB5D7JMAHSJNJMHTYGYZZ","A27W025UEXS1G0","3S829FDFT2NBOHQMM1CIOU0HZYXDXL","","","img/flower5.png","75","470.8999999985099","2","1","2","",""
"null","","html-keyboard-response","25","100976","0.0-25.0","3DH6GAKTYZB5D7JMAHSJNJMHTYGYZZ","A27W025UEXS1G0","3S829FDFT2NBOHQMM1CIOU0HZYXDXL","","","<img src=""img/flower5.png"" style=""width:200px; border:14px solid green;"">","null","","","","","",""
"358.30000000074506","","image-keyboard-response","26","101335","0.0-26.0","3DH6GAKTYZB5D7JMAHSJNJMHTYGYZZ","A27W025UEXS1G0","3S829FDFT2NBOHQMM1CIOU0HZYXDXL","","","img/flower5.png","75","358.8999999985099","2","0","2","",""
"null","","html-keyboard-response","27","101638","0.0-27.0","3DH6GAKTYZB5D7JMAHSJNJMHTYGYZZ","A27W025UEXS1G0","3S829FDFT2NBOHQMM1CIOU0HZYXDXL","","","<img src=""img/flower5.png"" style=""width:200px;border:14px solid red;"">","null","","","","","",""
"537.1999999992549","","image-keyboard-response","28","102175","0.0-28.0","3DH6GAKTYZB5D7JMAHSJNJMHTYGYZZ","A27W025UEXS1G0","3S829FDFT2NBOHQMM1CIOU0HZYXDXL","","","img/flower4.png","74","537.6999999992549","1","1","1","",""
"null","","html-keyboard-response","29","102485","0.0-29.0","3DH6GAKTYZB5D7JMAHSJNJMHTYGYZZ","A27W025UEXS1G0","3S829FDFT2NBOHQMM1CIOU0HZYXDXL","","","<img src=""img/flower4.png"" style=""width:200px; border:14px solid green;"">","null","","","","","",""
"370.30000000074506","","image-keyboard-response","30","102856","0.0-30.0","3DH6GAKTYZB5D7JMAHSJNJMHTYGYZZ","A27W025UEXS1G0","3S829FDFT2NBOHQMM1CIOU0HZYXDXL","","","img/flower4.png","74","370.80000000074506","1","0","1","",""
"null","","html-keyboard-response","31","103162","0.0-31.0","3DH6GAKTYZB5D7JMAHSJNJMHTYGYZZ","A27W025UEXS1G0","3S829FDFT2NBOHQMM1CIOU0HZYXDXL","","","<img src=""img/flower4.png"" style=""width:200px;border:14px solid red;"">","null","","","","","",""
"436.69999999925494","","image-keyboard-response","32","103599","0.0-32.0","3DH6GAKTYZB5D7JMAHSJNJMHTYGYZZ","A27W025UEXS1G0","3S829FDFT2NBOHQMM1CIOU0HZYXDXL","","","img/flower4.png","74","437","1","0","1","",""
"null","","html-keyboard-response","33","103901","0.0-33.0","3DH6GAKTYZB5D7JMAHSJNJMHTYGYZZ","A27W025UEXS1G0","3S829FDFT2NBOHQMM1CIOU0HZYXDXL","","","<img src=""img/flower4.png"" style=""width:200px;border:14px solid red;"">","null","","","","","",""
"362","","image-keyboard-response","34","104263","0.0-34.0","3DH6GAKTYZB5D7JMAHSJNJMHTYGYZZ","A27W025UEXS1G0","3S829FDFT2NBOHQMM1CIOU0HZYXDXL","","","img/flower4.png","74","362.4000000022352","1","1","1","",""
"null","","html-keyboard-response","35","104577","0.0-35.0","3DH6GAKTYZB5D7JMAHSJNJMHTYGYZZ","A27W025UEXS1G0","3S829FDFT2NBOHQMM1CIOU0HZYXDXL","","","<img src=""img/flower4.png"" style=""width:200px; border:14px solid green;"">","null","","","","","",""
"429.79999999701977","","image-keyboard-response","36","105007","0.0-36.0","3DH6GAKTYZB5D7JMAHSJNJMHTYGYZZ","A27W025UEXS1G0","3S829FDFT2NBOHQMM1CIOU0HZYXDXL","","","img/flower5.png","75","430.4000000022352","2","1","2","",""
"null","","html-keyboard-response","37","105313","0.0-37.0","3DH6GAKTYZB5D7JMAHSJNJMHTYGYZZ","A27W025UEXS1G0","3S829FDFT2NBOHQMM1CIOU0HZYXDXL","","","<img src=""img/flower5.png"" style=""width:200px; border:14px solid green;"">","null","","","","","",""
"493.80000000074506","","image-keyboard-response","38","105807","0.0-38.0","3DH6GAKTYZB5D7JMAHSJNJMHTYGYZZ","A27W025UEXS1G0","3S829FDFT2NBOHQMM1CIOU0HZYXDXL","","","img/flower6.png","76","494.0999999977648","3","1","3","",""
"null","","html-keyboard-response","39","106110","0.0-39.0","3DH6GAKTYZB5D7JMAHSJNJMHTYGYZZ","A27W025UEXS1G0","3S829FDFT2NBOHQMM1CIOU0HZYXDXL","","","<img src=""img/flower6.png"" style=""width:200px; border:14px solid green;"">","null","","","","","",""
"368.5","","image-keyboard-response","40","106479","0.0-40.0","3DH6GAKTYZB5D7JMAHSJNJMHTYGYZZ","A27W025UEXS1G0","3S829FDFT2NBOHQMM1CIOU0HZYXDXL","","","img/flower6.png","76","368.8999999985099","3","1","3","",""
"null","","html-keyboard-response","41","106786","0.0-41.0","3DH6GAKTYZB5D7JMAHSJNJMHTYGYZZ","A27W025UEXS1G0","3S829FDFT2NBOHQMM1CIOU0HZYXDXL","","","<img src=""img/flower6.png"" style=""width:200px; border:14px solid green;"">","null","","","","","",""
"388.6000000014901","","image-keyboard-response","42","107176","0.0-42.0","3DH6GAKTYZB5D7JMAHSJNJMHTYGYZZ","A27W025UEXS1G0","3S829FDFT2NBOHQMM1CIOU0HZYXDXL","","","img/flower4.png","75","389","2","0","1","",""
"null","","html-keyboard-response","43","107477","0.0-43.0","3DH6GAKTYZB5D7JMAHSJNJMHTYGYZZ","A27W025UEXS1G0","3S829FDFT2NBOHQMM1CIOU0HZYXDXL","","","<img src=""img/flower4.png"" style=""width:200px;border:14px solid red;"">","null","","","","","",""
"745.4000000022352","","image-keyboard-response","44","108223","0.0-44.0","3DH6GAKTYZB5D7JMAHSJNJMHTYGYZZ","A27W025UEXS1G0","3S829FDFT2NBOHQMM1CIOU0HZYXDXL","","","img/flower5.png","75","745.8000000007451","2","1","2","",""
"null","","html-keyboard-response","45","108538","0.0-45.0","3DH6GAKTYZB5D7JMAHSJNJMHTYGYZZ","A27W025UEXS1G0","3S829FDFT2NBOHQMM1CIOU0HZYXDXL","","","<img src=""img/flower5.png"" style=""width:200px; border:14px solid green;"">","null","","","","","",""
"413.19999999925494","","image-keyboard-response","46","108952","0.0-46.0","3DH6GAKTYZB5D7JMAHSJNJMHTYGYZZ","A27W025UEXS1G0","3S829FDFT2NBOHQMM1CIOU0HZYXDXL","","","img/flower5.png","75","413.5","2","1","2","",""
"null","","html-keyboard-response","47","109261","0.0-47.0","3DH6GAKTYZB5D7JMAHSJNJMHTYGYZZ","A27W025UEXS1G0","3S829FDFT2NBOHQMM1CIOU0HZYXDXL","","","<img src=""img/flower5.png"" style=""width:200px; border:14px solid green;"">","null","","","","","",""
"417.8999999985099","","image-keyboard-response","48","109679","0.0-48.0","3DH6GAKTYZB5D7JMAHSJNJMHTYGYZZ","A27W025UEXS1G0","3S829FDFT2NBOHQMM1CIOU0HZYXDXL","","","img/flower6.png","76","418.30000000074506","3","1","3","",""
"null","","html-keyboard-response","49","109985","0.0-49.0","3DH6GAKTYZB5D7JMAHSJNJMHTYGYZZ","A27W025UEXS1G0","3S829FDFT2NBOHQMM1CIOU0HZYXDXL","","","<img src=""img/flower6.png"" style=""width:200px; border:14px solid green;"">","null","","","","","",""
"374.30000000074506","","image-keyboard-response","50","110359","0.0-50.0","3DH6GAKTYZB5D7JMAHSJNJMHTYGYZZ","A27W025UEXS1G0","3S829FDFT2NBOHQMM1CIOU0HZYXDXL","","","img/flower6.png","76","374.5999999977648","3","1","3","",""
"null","","html-keyboard-response","51","110663","0.0-51.0","3DH6GAKTYZB5D7JMAHSJNJMHTYGYZZ","A27W025UEXS1G0","3S829FDFT2NBOHQMM1CIOU0HZYXDXL","","","<img src=""img/flower6.png"" style=""width:200px; border:14px solid green;"">","null","","","","","",""
"376.19999999925494","","image-keyboard-response","52","111040","0.0-52.0","3DH6GAKTYZB5D7JMAHSJNJMHTYGYZZ","A27W025UEXS1G0","3S829FDFT2NBOHQMM1CIOU0HZYXDXL","","","img/flower4.png","74","376.5","1","1","1","",""
"null","","html-keyboard-response","53","111356","0.0-53.0","3DH6GAKTYZB5D7JMAHSJNJMHTYGYZZ","A27W025UEXS1G0","3S829FDFT2NBOHQMM1CIOU0HZYXDXL","","","<img src=""img/flower4.png"" style=""width:200px; border:14px solid green;"">","null","","","","","",""
"371.9000000022352","","image-keyboard-response","54","111728","0.0-54.0","3DH6GAKTYZB5D7JMAHSJNJMHTYGYZZ","A27W025UEXS1G0","3S829FDFT2NBOHQMM1CIOU0HZYXDXL","","","img/flower4.png","74","372.5","1","1","1","",""
"null","","html-keyboard-response","55","112030","0.0-55.0","3DH6GAKTYZB5D7JMAHSJNJMHTYGYZZ","A27W025UEXS1G0","3S829FDFT2NBOHQMM1CIOU0HZYXDXL","","","<img src=""img/flower4.png"" style=""width:200px; border:14px solid green;"">","null","","","","","",""
"824.6999999992549","","image-keyboard-response","56","112855","0.0-56.0","3DH6GAKTYZB5D7JMAHSJNJMHTYGYZZ","A27W025UEXS1G0","3S829FDFT2NBOHQMM1CIOU0HZYXDXL","","","img/flower5.png","75","825.1999999992549","2","1","2","",""
"null","","html-keyboard-response","57","113170","0.0-57.0","3DH6GAKTYZB5D7JMAHSJNJMHTYGYZZ","A27W025UEXS1G0","3S829FDFT2NBOHQMM1CIOU0HZYXDXL","","","<img src=""img/flower5.png"" style=""width:200px; border:14px solid green;"">","null","","","","","",""
"613.4000000022352","","image-keyboard-response","58","113783","0.0-58.0","3DH6GAKTYZB5D7JMAHSJNJMHTYGYZZ","A27W025UEXS1G0","3S829FDFT2NBOHQMM1CIOU0HZYXDXL","","","img/flower4.png","74","613.8000000007451","1","1","1","",""
"null","","html-keyboard-response","59","114091","0.0-59.0","3DH6GAKTYZB5D7JMAHSJNJMHTYGYZZ","A27W025UEXS1G0","3S829FDFT2NBOHQMM1CIOU0HZYXDXL","","","<img src=""img/flower4.png"" style=""width:200px; border:14px solid green;"">","null","","","","","",""
"412.5","","image-keyboard-response","60","114504","0.0-60.0","3DH6GAKTYZB5D7JMAHSJNJMHTYGYZZ","A27W025UEXS1G0","3S829FDFT2NBOHQMM1CIOU0HZYXDXL","","","img/flower6.png","76","413","3","1","3","",""
"null","","html-keyboard-response","61","114815","0.0-61.0","3DH6GAKTYZB5D7JMAHSJNJMHTYGYZZ","A27W025UEXS1G0","3S829FDFT2NBOHQMM1CIOU0HZYXDXL","","","<img src=""img/flower6.png"" style=""width:200px; border:14px solid green;"">","null","","","","","",""
"359.5","","image-keyboard-response","62","115175","0.0-62.0","3DH6GAKTYZB5D7JMAHSJNJMHTYGYZZ","A27W025UEXS1G0","3S829FDFT2NBOHQMM1CIOU0HZYXDXL","","","img/flower6.png","76","360","3","1","3","",""
"null","","html-keyboard-response","63","115491","0.0-63.0","3DH6GAKTYZB5D7JMAHSJNJMHTYGYZZ","A27W025UEXS1G0","3S829FDFT2NBOHQMM1CIOU0HZYXDXL","","","<img src=""img/flower6.png"" style=""width:200px; border:14px solid green;"">","null","","","","","",""
"9631.300000000745","","instructions","64","125123","0.0-64.0","3DH6GAKTYZB5D7JMAHSJNJMHTYGYZZ","A27W025UEXS1G0","3S829FDFT2NBOHQMM1CIOU0HZYXDXL","","[{""page_index"":0,""viewing_time"":4147.10000000149},{""page_index"":1,""viewing_time"":5484}]","","","","","","","",""
"452.30000000074506","","image-keyboard-response","65","125576","0.0-65.0","3DH6GAKTYZB5D7JMAHSJNJMHTYGYZZ","A27W025UEXS1G0","3S829FDFT2NBOHQMM1CIOU0HZYXDXL","","","img/flower4.png","74","453","1","1","1","",""
"null","","html-keyboard-response","66","125890","0.0-66.0","3DH6GAKTYZB5D7JMAHSJNJMHTYGYZZ","A27W025UEXS1G0","3S829FDFT2NBOHQMM1CIOU0HZYXDXL","","","<img src=""img/flower4.png"" style=""width:200px; border:14px solid green;"">","null","","","","","",""
"701.0999999977648","","image-keyboard-response","67","126591","0.0-67.0","3DH6GAKTYZB5D7JMAHSJNJMHTYGYZZ","A27W025UEXS1G0","3S829FDFT2NBOHQMM1CIOU0HZYXDXL","","","img/flower6.png","76","701.3999999985099","3","1","3","",""
"null","","html-keyboard-response","68","126904","0.0-68.0","3DH6GAKTYZB5D7JMAHSJNJMHTYGYZZ","A27W025UEXS1G0","3S829FDFT2NBOHQMM1CIOU0HZYXDXL","","","<img src=""img/flower6.png"" style=""width:200px; border:14px solid green;"">","null","","","","","",""
"463.29999999701977","","image-keyboard-response","69","127368","0.0-69.0","3DH6GAKTYZB5D7JMAHSJNJMHTYGYZZ","A27W025UEXS1G0","3S829FDFT2NBOHQMM1CIOU0HZYXDXL","","","img/flower6.png","76","463.9000000022352","3","1","3","",""
"null","","html-keyboard-response","70","127673","0.0-70.0","3DH6GAKTYZB5D7JMAHSJNJMHTYGYZZ","A27W025UEXS1G0","3S829FDFT2NBOHQMM1CIOU0HZYXDXL","","","<img src=""img/flower6.png"" style=""width:200px; border:14px solid green;"">","null","","","","","",""
"557.7000000029802","","image-keyboard-response","71","128231","0.0-71.0","3DH6GAKTYZB5D7JMAHSJNJMHTYGYZZ","A27W025UEXS1G0","3S829FDFT2NBOHQMM1CIOU0HZYXDXL","","","img/flower5.png","75","558.1999999992549","2","1","2","",""
"null","","html-keyboard-response","72","128536","0.0-72.0","3DH6GAKTYZB5D7JMAHSJNJMHTYGYZZ","A27W025UEXS1G0","3S829FDFT2NBOHQMM1CIOU0HZYXDXL","","","<img src=""img/flower5.png"" style=""width:200px; border:14px solid green;"">","null","","","","","",""
"438.5","","image-keyboard-response","73","128975","0.0-73.0","3DH6GAKTYZB5D7JMAHSJNJMHTYGYZZ","A27W025UEXS1G0","3S829FDFT2NBOHQMM1CIOU0HZYXDXL","","","img/flower4.png","74","438.80000000074506","1","1","1","",""
"null","","html-keyboard-response","74","129292","0.0-74.0","3DH6GAKTYZB5D7JMAHSJNJMHTYGYZZ","A27W025UEXS1G0","3S829FDFT2NBOHQMM1CIOU0HZYXDXL","","","<img src=""img/flower4.png"" style=""width:200px; border:14px solid green;"">","null","","","","","",""
"331.3999999985099","","image-keyboard-response","75","129624","0.0-75.0","3DH6GAKTYZB5D7JMAHSJNJMHTYGYZZ","A27W025UEXS1G0","3S829FDFT2NBOHQMM1CIOU0HZYXDXL","","","img/flower4.png","74","331.69999999925494","1","1","1","",""
"null","","html-keyboard-response","76","129939","0.0-76.0","3DH6GAKTYZB5D7JMAHSJNJMHTYGYZZ","A27W025UEXS1G0","3S829FDFT2NBOHQMM1CIOU0HZYXDXL","","","<img src=""img/flower4.png"" style=""width:200px; border:14px solid green;"">","null","","","","","",""
"467.8999999985099","","image-keyboard-response","77","130407","0.0-77.0","3DH6GAKTYZB5D7JMAHSJNJMHTYGYZZ","A27W025UEXS1G0","3S829FDFT2NBOHQMM1CIOU0HZYXDXL","","","img/flower6.png","76","468.30000000074506","3","0","3","",""
"null","","html-keyboard-response","78","130708","0.0-78.0","3DH6GAKTYZB5D7JMAHSJNJMHTYGYZZ","A27W025UEXS1G0","3S829FDFT2NBOHQMM1CIOU0HZYXDXL","","","<img src=""img/flower6.png"" style=""width:200px;border:14px solid red;"">","null","","","","","",""
"307.19999999925494","","image-keyboard-response","79","131016","0.0-79.0","3DH6GAKTYZB5D7JMAHSJNJMHTYGYZZ","A27W025UEXS1G0","3S829FDFT2NBOHQMM1CIOU0HZYXDXL","","","img/flower6.png","76","307.8999999985099","3","0","3","",""
"null","","html-keyboard-response","80","131324","0.0-80.0","3DH6GAKTYZB5D7JMAHSJNJMHTYGYZZ","A27W025UEXS1G0","3S829FDFT2NBOHQMM1CIOU0HZYXDXL","","","<img src=""img/flower6.png"" style=""width:200px;border:14px solid red;"">","null","","","","","",""
"458.5","","image-keyboard-response","81","131783","0.0-81.0","3DH6GAKTYZB5D7JMAHSJNJMHTYGYZZ","A27W025UEXS1G0","3S829FDFT2NBOHQMM1CIOU0HZYXDXL","","","img/flower5.png","75","459","2","1","2","",""
"null","","html-keyboard-response","82","132095","0.0-82.0","3DH6GAKTYZB5D7JMAHSJNJMHTYGYZZ","A27W025UEXS1G0","3S829FDFT2NBOHQMM1CIOU0HZYXDXL","","","<img src=""img/flower5.png"" style=""width:200px; border:14px solid green;"">","null","","","","","",""
"312.4000000022352","","image-keyboard-response","83","132408","0.0-83.0","3DH6GAKTYZB5D7JMAHSJNJMHTYGYZZ","A27W025UEXS1G0","3S829FDFT2NBOHQMM1CIOU0HZYXDXL","","","img/flower5.png","75","312.79999999701977","2","1","2","",""
"null","","html-keyboard-response","84","132712","0.0-84.0","3DH6GAKTYZB5D7JMAHSJNJMHTYGYZZ","A27W025UEXS1G0","3S829FDFT2NBOHQMM1CIOU0HZYXDXL","","","<img src=""img/flower5.png"" style=""width:200px; border:14px solid green;"">","null","","","","","",""
"375","","image-keyboard-response","85","133088","0.0-85.0","3DH6GAKTYZB5D7JMAHSJNJMHTYGYZZ","A27W025UEXS1G0","3S829FDFT2NBOHQMM1CIOU0HZYXDXL","","","img/flower5.png","75","375.6000000014901","2","1","2","",""
"null","","html-keyboard-response","86","133404","0.0-86.0","3DH6GAKTYZB5D7JMAHSJNJMHTYGYZZ","A27W025UEXS1G0","3S829FDFT2NBOHQMM1CIOU0HZYXDXL","","","<img src=""img/flower5.png"" style=""width:200px; border:14px solid green;"">","null","","","","","",""
"410.3999999985099","","image-keyboard-response","87","133815","0.0-87.0","3DH6GAKTYZB5D7JMAHSJNJMHTYGYZZ","A27W025UEXS1G0","3S829FDFT2NBOHQMM1CIOU0HZYXDXL","","","img/flower6.png","76","410.80000000074506","3","1","3","",""
"null","","html-keyboard-response","88","134127","0.0-88.0","3DH6GAKTYZB5D7JMAHSJNJMHTYGYZZ","A27W025UEXS1G0","3S829FDFT2NBOHQMM1CIOU0HZYXDXL","","","<img src=""img/flower6.png"" style=""width:200px; border:14px solid green;"">","null","","","","","",""
"304.5999999977648","","image-keyboard-response","89","134432","0.0-89.0","3DH6GAKTYZB5D7JMAHSJNJMHTYGYZZ","A27W025UEXS1G0","3S829FDFT2NBOHQMM1CIOU0HZYXDXL","","","img/flower6.png","76","305","3","1","3","",""
"null","","html-keyboard-response","90","134741","0.0-90.0","3DH6GAKTYZB5D7JMAHSJNJMHTYGYZZ","A27W025UEXS1G0","3S829FDFT2NBOHQMM1CIOU0HZYXDXL","","","<img src=""img/flower6.png"" style=""width:200px; border:14px solid green;"">","null","","","","","",""
"489.79999999701977","","image-keyboard-response","91","135232","0.0-91.0","3DH6GAKTYZB5D7JMAHSJNJMHTYGYZZ","A27W025UEXS1G0","3S829FDFT2NBOHQMM1CIOU0HZYXDXL","","","img/flower4.png","74","490.19999999925494","1","1","1","",""
"null","","html-keyboard-response","92","135541","0.0-92.0","3DH6GAKTYZB5D7JMAHSJNJMHTYGYZZ","A27W025UEXS1G0","3S829FDFT2NBOHQMM1CIOU0HZYXDXL","","","<img src=""img/flower4.png"" style=""width:200px; border:14px solid green;"">","null","","","","","",""
"473.5","","image-keyboard-response","93","136015","0.0-93.0","3DH6GAKTYZB5D7JMAHSJNJMHTYGYZZ","A27W025UEXS1G0","3S829FDFT2NBOHQMM1CIOU0HZYXDXL","","","img/flower5.png","75","474.19999999925494","2","1","2","",""
"null","","html-keyboard-response","94","136325","0.0-94.0","3DH6GAKTYZB5D7JMAHSJNJMHTYGYZZ","A27W025UEXS1G0","3S829FDFT2NBOHQMM1CIOU0HZYXDXL","","","<img src=""img/flower5.png"" style=""width:200px; border:14px solid green;"">","null","","","","","",""
"345.6000000014901","","image-keyboard-response","95","136671","0.0-95.0","3DH6GAKTYZB5D7JMAHSJNJMHTYGYZZ","A27W025UEXS1G0","3S829FDFT2NBOHQMM1CIOU0HZYXDXL","","","img/flower5.png","75","346.0999999977648","2","1","2","",""
"null","","html-keyboard-response","96","136986","0.0-96.0","3DH6GAKTYZB5D7JMAHSJNJMHTYGYZZ","A27W025UEXS1G0","3S829FDFT2NBOHQMM1CIOU0HZYXDXL","","","<img src=""img/flower5.png"" style=""width:200px; border:14px solid green;"">","null","","","","","",""
"356.80000000074506","","image-keyboard-response","97","137344","0.0-97.0","3DH6GAKTYZB5D7JMAHSJNJMHTYGYZZ","A27W025UEXS1G0","3S829FDFT2NBOHQMM1CIOU0HZYXDXL","","","img/flower6.png","76","357.19999999925494","3","1","3","",""
"null","","html-keyboard-response","98","137646","0.0-98.0","3DH6GAKTYZB5D7JMAHSJNJMHTYGYZZ","A27W025UEXS1G0","3S829FDFT2NBOHQMM1CIOU0HZYXDXL","","","<img src=""img/flower6.png"" style=""width:200px; border:14px solid green;"">","null","","","","","",""
"448.69999999925494","","image-keyboard-response","99","138095","0.0-99.0","3DH6GAKTYZB5D7JMAHSJNJMHTYGYZZ","A27W025UEXS1G0","3S829FDFT2NBOHQMM1CIOU0HZYXDXL","","","img/flower4.png","75","449","2","1","1","",""
"null","","html-keyboard-response","100","138399","0.0-100.0","3DH6GAKTYZB5D7JMAHSJNJMHTYGYZZ","A27W025UEXS1G0","3S829FDFT2NBOHQMM1CIOU0HZYXDXL","","","<img src=""img/flower4.png"" style=""width:200px; border:14px solid green;"">","null","","","","","",""
"768.1999999992549","","image-keyboard-response","101","139168","0.0-101.0","3DH6GAKTYZB5D7JMAHSJNJMHTYGYZZ","A27W025UEXS1G0","3S829FDFT2NBOHQMM1CIOU0HZYXDXL","","","img/flower4.png","74","768.8000000007451","1","1","1","",""
"null","","html-keyboard-response","102","139477","0.0-102.0","3DH6GAKTYZB5D7JMAHSJNJMHTYGYZZ","A27W025UEXS1G0","3S829FDFT2NBOHQMM1CIOU0HZYXDXL","","","<img src=""img/flower4.png"" style=""width:200px; border:14px solid green;"">","null","","","","","",""
"553.9000000022352","","image-keyboard-response","103","140031","0.0-103.0","3DH6GAKTYZB5D7JMAHSJNJMHTYGYZZ","A27W025UEXS1G0","3S829FDFT2NBOHQMM1CIOU0HZYXDXL","","","img/flower6.png","76","554.4000000022352","3","0","3","",""
"null","","html-keyboard-response","104","140339","0.0-104.0","3DH6GAKTYZB5D7JMAHSJNJMHTYGYZZ","A27W025UEXS1G0","3S829FDFT2NBOHQMM1CIOU0HZYXDXL","","","<img src=""img/flower6.png"" style=""width:200px;border:14px solid red;"">","null","","","","","",""
"323.9000000022352","","image-keyboard-response","105","140663","0.0-105.0","3DH6GAKTYZB5D7JMAHSJNJMHTYGYZZ","A27W025UEXS1G0","3S829FDFT2NBOHQMM1CIOU0HZYXDXL","","","img/flower6.png","76","324.4000000022352","3","0","3","",""
"null","","html-keyboard-response","106","140969","0.0-106.0","3DH6GAKTYZB5D7JMAHSJNJMHTYGYZZ","A27W025UEXS1G0","3S829FDFT2NBOHQMM1CIOU0HZYXDXL","","","<img src=""img/flower6.png"" style=""width:200px;border:14px solid red;"">","null","","","","","",""
"414.3999999985099","","image-keyboard-response","107","141383","0.0-107.0","3DH6GAKTYZB5D7JMAHSJNJMHTYGYZZ","A27W025UEXS1G0","3S829FDFT2NBOHQMM1CIOU0HZYXDXL","","","img/flower4.png","75","414.8999999985099","2","1","1","",""
"null","","html-keyboard-response","108","141691","0.0-108.0","3DH6GAKTYZB5D7JMAHSJNJMHTYGYZZ","A27W025UEXS1G0","3S829FDFT2NBOHQMM1CIOU0HZYXDXL","","","<img src=""img/flower4.png"" style=""width:200px; border:14px solid green;"">","null","","","","","",""
"525","","image-keyboard-response","109","142217","0.0-109.0","3DH6GAKTYZB5D7JMAHSJNJMHTYGYZZ","A27W025UEXS1G0","3S829FDFT2NBOHQMM1CIOU0HZYXDXL","","","img/flower6.png","75","525.3999999985099","2","0","3","",""
"null","","html-keyboard-response","110","142519","0.0-110.0","3DH6GAKTYZB5D7JMAHSJNJMHTYGYZZ","A27W025UEXS1G0","3S829FDFT2NBOHQMM1CIOU0HZYXDXL","","","<img src=""img/flower6.png"" style=""width:200px;border:14px solid red;"">","null","","","","","",""
"575.7000000029802","","image-keyboard-response","111","143095","0.0-111.0","3DH6GAKTYZB5D7JMAHSJNJMHTYGYZZ","A27W025UEXS1G0","3S829FDFT2NBOHQMM1CIOU0HZYXDXL","","","img/flower4.png","75","576","2","1","1","",""
"null","","html-keyboard-response","112","143400","0.0-112.0","3DH6GAKTYZB5D7JMAHSJNJMHTYGYZZ","A27W025UEXS1G0","3S829FDFT2NBOHQMM1CIOU0HZYXDXL","","","<img src=""img/flower4.png"" style=""width:200px; border:14px solid green;"">","null","","","","","",""
"582.5999999977648","","image-keyboard-response","113","143983","0.0-113.0","3DH6GAKTYZB5D7JMAHSJNJMHTYGYZZ","A27W025UEXS1G0","3S829FDFT2NBOHQMM1CIOU0HZYXDXL","","","img/flower5.png","75","583","2","1","2","",""
"null","","html-keyboard-response","114","144293","0.0-114.0","3DH6GAKTYZB5D7JMAHSJNJMHTYGYZZ","A27W025UEXS1G0","3S829FDFT2NBOHQMM1CIOU0HZYXDXL","","","<img src=""img/flower5.png"" style=""width:200px; border:14px solid green;"">","null","","","","","",""
"314.20000000298023","","image-keyboard-response","115","144607","0.0-115.0","3DH6GAKTYZB5D7JMAHSJNJMHTYGYZZ","A27W025UEXS1G0","3S829FDFT2NBOHQMM1CIOU0HZYXDXL","","","img/flower5.png","75","314.69999999925494","2","1","2","",""
"null","","html-keyboard-response","116","144923","0.0-116.0","3DH6GAKTYZB5D7JMAHSJNJMHTYGYZZ","A27W025UEXS1G0","3S829FDFT2NBOHQMM1CIOU0HZYXDXL","","","<img src=""img/flower5.png"" style=""width:200px; border:14px solid green;"">","null","","","","","",""
"499.5","","image-keyboard-response","117","145424","0.0-117.0","3DH6GAKTYZB5D7JMAHSJNJMHTYGYZZ","A27W025UEXS1G0","3S829FDFT2NBOHQMM1CIOU0HZYXDXL","","","img/flower4.png","75","500","2","1","1","",""
"null","","html-keyboard-response","118","145725","0.0-118.0","3DH6GAKTYZB5D7JMAHSJNJMHTYGYZZ","A27W025UEXS1G0","3S829FDFT2NBOHQMM1CIOU0HZYXDXL","","","<img src=""img/flower4.png"" style=""width:200px; border:14px solid green;"">","null","","","","","",""
"386.80000000074506","","image-keyboard-response","119","146112","0.0-119.0","3DH6GAKTYZB5D7JMAHSJNJMHTYGYZZ","A27W025UEXS1G0","3S829FDFT2NBOHQMM1CIOU0HZYXDXL","","","img/flower5.png","75","387.0999999977648","2","0","2","",""
"null","","html-keyboard-response","120","146418","0.0-120.0","3DH6GAKTYZB5D7JMAHSJNJMHTYGYZZ","A27W025UEXS1G0","3S829FDFT2NBOHQMM1CIOU0HZYXDXL","","","<img src=""img/flower5.png"" style=""width:200px;border:14px solid red;"">","null","","","","","",""
"477.0999999977648","","image-keyboard-response","121","146896","0.0-121.0","3DH6GAKTYZB5D7JMAHSJNJMHTYGYZZ","A27W025UEXS1G0","3S829FDFT2NBOHQMM1CIOU0HZYXDXL","","","img/flower5.png","75","477.5999999977648","2","0","2","",""
"null","","html-keyboard-response","122","147202","0.0-122.0","3DH6GAKTYZB5D7JMAHSJNJMHTYGYZZ","A27W025UEXS1G0","3S829FDFT2NBOHQMM1CIOU0HZYXDXL","","","<img src=""img/flower5.png"" style=""width:200px;border:14px solid red;"">","null","","","","","",""
"781.1000000014901","","image-keyboard-response","123","147983","0.0-123.0","3DH6GAKTYZB5D7JMAHSJNJMHTYGYZZ","A27W025UEXS1G0","3S829FDFT2NBOHQMM1CIOU0HZYXDXL","","","img/flower4.png","75","781.5","2","1","1","",""
"null","","html-keyboard-response","124","148295","0.0-124.0","3DH6GAKTYZB5D7JMAHSJNJMHTYGYZZ","A27W025UEXS1G0","3S829FDFT2NBOHQMM1CIOU0HZYXDXL","","","<img src=""img/flower4.png"" style=""width:200px; border:14px solid green;"">","null","","","","","",""
"2944.199999999255","","instructions","125","151240","0.0-125.0","3DH6GAKTYZB5D7JMAHSJNJMHTYGYZZ","A27W025UEXS1G0","3S829FDFT2NBOHQMM1CIOU0HZYXDXL","","[{""page_index"":0,""viewing_time"":2944.10000000149}]","","","","","","","",""
"1455.5999999977648","","image-keyboard-response","126","152696","0.0-126.0","3DH6GAKTYZB5D7JMAHSJNJMHTYGYZZ","A27W025UEXS1G0","3S829FDFT2NBOHQMM1CIOU0HZYXDXL","","","img/flower1.png","74","1456","1","0","2","0.6,0.6,0,0,0.6,0.6,0.6,0,0.6",""
"null","","html-keyboard-response","127","153009","0.0-127.0","3DH6GAKTYZB5D7JMAHSJNJMHTYGYZZ","A27W025UEXS1G0","3S829FDFT2NBOHQMM1CIOU0HZYXDXL","","","<img src=""img/flower1.png"" style=""width:200px;border:14px solid red;"">","null","","","","","",""
"726","","image-keyboard-response","128","153735","0.0-128.0","3DH6GAKTYZB5D7JMAHSJNJMHTYGYZZ","A27W025UEXS1G0","3S829FDFT2NBOHQMM1CIOU0HZYXDXL","","","img/flower8.png","76","727.0999999977648","3","1","3","0.6,0.6,0,0,0.6,0.6,0.6,0,0.6",""
"null","","html-keyboard-response","129","154038","0.0-129.0","3DH6GAKTYZB5D7JMAHSJNJMHTYGYZZ","A27W025UEXS1G0","3S829FDFT2NBOHQMM1CIOU0HZYXDXL","","","<img src=""img/flower8.png"" style=""width:200px; border:14px solid green;"">","null","","","","","",""
"1049.0999999977648","","image-keyboard-response","130","155087","0.0-130.0","3DH6GAKTYZB5D7JMAHSJNJMHTYGYZZ","A27W025UEXS1G0","3S829FDFT2NBOHQMM1CIOU0HZYXDXL","","","img/flower1.png","75","1049.3999999985099","2","1","2","0.6,0.6,0,0,0.6,0.6,0.6,0,0.6",""
"null","","html-keyboard-response","131","155391","0.0-131.0","3DH6GAKTYZB5D7JMAHSJNJMHTYGYZZ","A27W025UEXS1G0","3S829FDFT2NBOHQMM1CIOU0HZYXDXL","","","<img src=""img/flower1.png"" style=""width:200px; border:14px solid green;"">","null","","","","","",""
"807.9000000022352","","image-keyboard-response","132","156200","0.0-132.0","3DH6GAKTYZB5D7JMAHSJNJMHTYGYZZ","A27W025UEXS1G0","3S829FDFT2NBOHQMM1CIOU0HZYXDXL","","","img/flower6.png","74","808.5","1","1","1","0.6,0.6,0,0,0.6,0.6,0.6,0,0.6",""
"null","","html-keyboard-response","133","156513","0.0-133.0","3DH6GAKTYZB5D7JMAHSJNJMHTYGYZZ","A27W025UEXS1G0","3S829FDFT2NBOHQMM1CIOU0HZYXDXL","","","<img src=""img/flower6.png"" style=""width:200px; border:14px solid green;"">","null","","","","","",""
"782","","image-keyboard-response","134","157295","0.0-134.0","3DH6GAKTYZB5D7JMAHSJNJMHTYGYZZ","A27W025UEXS1G0","3S829FDFT2NBOHQMM1CIOU0HZYXDXL","","","img/flower8.png","76","782.5","3","1","3","0.6,0.6,0,0,0.6,0.6,0.6,0,0.6",""
"null","","html-keyboard-response","135","157605","0.0-135.0","3DH6GAKTYZB5D7JMAHSJNJMHTYGYZZ","A27W025UEXS1G0","3S829FDFT2NBOHQMM1CIOU0HZYXDXL","","","<img src=""img/flower8.png"" style=""width:200px; border:14px solid green;"">","null","","","","","",""
"609.4000000022352","","image-keyboard-response","136","158215","0.0-136.0","3DH6GAKTYZB5D7JMAHSJNJMHTYGYZZ","A27W025UEXS1G0","3S829FDFT2NBOHQMM1CIOU0HZYXDXL","","","img/flower6.png","74","609.6999999992549","1","0","1","0.6,0.6,0,0,0.6,0.6,0.6,0,0.6",""
"null","","html-keyboard-response","137","158528","0.0-137.0","3DH6GAKTYZB5D7JMAHSJNJMHTYGYZZ","A27W025UEXS1G0","3S829FDFT2NBOHQMM1CIOU0HZYXDXL","","","<img src=""img/flower6.png"" style=""width:200px;border:14px solid red;"">","null","","","","","",""
"599.5","","image-keyboard-response","138","159128","0.0-138.0","3DH6GAKTYZB5D7JMAHSJNJMHTYGYZZ","A27W025UEXS1G0","3S829FDFT2NBOHQMM1CIOU0HZYXDXL","","","img/flower1.png","75","600","2","1","2","0.6,0.6,0,0,0.6,0.6,0.6,0,0.6",""
"null","","html-keyboard-response","139","159434","0.0-139.0","3DH6GAKTYZB5D7JMAHSJNJMHTYGYZZ","A27W025UEXS1G0","3S829FDFT2NBOHQMM1CIOU0HZYXDXL","","","<img src=""img/flower1.png"" style=""width:200px; border:14px solid green;"">","null","","","","","",""
"645.1000000014901","","image-keyboard-response","140","160079","0.0-140.0","3DH6GAKTYZB5D7JMAHSJNJMHTYGYZZ","A27W025UEXS1G0","3S829FDFT2NBOHQMM1CIOU0HZYXDXL","","","img/flower6.png","76","645.4000000022352","3","0","1","0.6,0.6,0,0,0.6,0.6,0.6,0,0.6",""
"null","","html-keyboard-response","141","160388","0.0-141.0","3DH6GAKTYZB5D7JMAHSJNJMHTYGYZZ","A27W025UEXS1G0","3S829FDFT2NBOHQMM1CIOU0HZYXDXL","","","<img src=""img/flower6.png"" style=""width:200px;border:14px solid red;"">","null","","","","","",""
"778.6999999992549","","image-keyboard-response","142","161168","0.0-142.0","3DH6GAKTYZB5D7JMAHSJNJMHTYGYZZ","A27W025UEXS1G0","3S829FDFT2NBOHQMM1CIOU0HZYXDXL","","","img/flower8.png","76","779.1999999992549","3","0","3","0.6,0.6,0,0,0.6,0.6,0.6,0,0.6",""
"null","","html-keyboard-response","143","161482","0.0-143.0","3DH6GAKTYZB5D7JMAHSJNJMHTYGYZZ","A27W025UEXS1G0","3S829FDFT2NBOHQMM1CIOU0HZYXDXL","","","<img src=""img/flower8.png"" style=""width:200px;border:14px solid red;"">","null","","","","","",""
"1493.300000000745","","image-keyboard-response","144","162976","0.0-144.0","3DH6GAKTYZB5D7JMAHSJNJMHTYGYZZ","A27W025UEXS1G0","3S829FDFT2NBOHQMM1CIOU0HZYXDXL","","","img/flower1.png","75","1493.699999999255","2","1","2","0.6,0.6,0,0,0.6,0.6,0.6,0,0.6",""
"null","","html-keyboard-response","145","163283","0.0-145.0","3DH6GAKTYZB5D7JMAHSJNJMHTYGYZZ","A27W025UEXS1G0","3S829FDFT2NBOHQMM1CIOU0HZYXDXL","","","<img src=""img/flower1.png"" style=""width:200px; border:14px solid green;"">","null","","","","","",""
"948.1000000014901","","image-keyboard-response","146","164231","0.0-146.0","3DH6GAKTYZB5D7JMAHSJNJMHTYGYZZ","A27W025UEXS1G0","3S829FDFT2NBOHQMM1CIOU0HZYXDXL","","","img/flower8.png","76","948.4000000022352","3","0","3","0.6,0.6,0,0,0.6,0.6,0.6,0,0.6",""
"null","","html-keyboard-response","147","164546","0.0-147.0","3DH6GAKTYZB5D7JMAHSJNJMHTYGYZZ","A27W025UEXS1G0","3S829FDFT2NBOHQMM1CIOU0HZYXDXL","","","<img src=""img/flower8.png"" style=""width:200px;border:14px solid red;"">","null","","","","","",""
"900.8000000007451","","image-keyboard-response","148","165447","0.0-148.0","3DH6GAKTYZB5D7JMAHSJNJMHTYGYZZ","A27W025UEXS1G0","3S829FDFT2NBOHQMM1CIOU0HZYXDXL","","","img/flower6.png","74","901.2000000029802","1","1","1","0.6,0.6,0,0,0.6,0.6,0.6,0,0.6",""
"null","","html-keyboard-response","149","165764","0.0-149.0","3DH6GAKTYZB5D7JMAHSJNJMHTYGYZZ","A27W025UEXS1G0","3S829FDFT2NBOHQMM1CIOU0HZYXDXL","","","<img src=""img/flower6.png"" style=""width:200px; border:14px solid green;"">","null","","","","","",""
"1546.8999999985099","","image-keyboard-response","150","167311","0.0-150.0","3DH6GAKTYZB5D7JMAHSJNJMHTYGYZZ","A27W025UEXS1G0","3S829FDFT2NBOHQMM1CIOU0HZYXDXL","","","img/flower1.png","75","1547.5","2","1","2","0.6,0.6,0,0,0.6,0.6,0.6,0,0.6",""
"null","","html-keyboard-response","151","167623","0.0-151.0","3DH6GAKTYZB5D7JMAHSJNJMHTYGYZZ","A27W025UEXS1G0","3S829FDFT2NBOHQMM1CIOU0HZYXDXL","","","<img src=""img/flower1.png"" style=""width:200px; border:14px solid green;"">","null","","","","","",""
"407.4000000022352","","image-keyboard-response","152","168031","0.0-152.0","3DH6GAKTYZB5D7JMAHSJNJMHTYGYZZ","A27W025UEXS1G0","3S829FDFT2NBOHQMM1CIOU0HZYXDXL","","","img/flower1.png","75","407.80000000074506","2","1","2","0.6,0.6,0,0,0.6,0.6,0.6,0,0.6",""
"null","","html-keyboard-response","153","168335","0.0-153.0","3DH6GAKTYZB5D7JMAHSJNJMHTYGYZZ","A27W025UEXS1G0","3S829FDFT2NBOHQMM1CIOU0HZYXDXL","","","<img src=""img/flower1.png"" style=""width:200px; border:14px solid green;"">","null","","","","","",""
"695.1999999992549","","image-keyboard-response","154","169031","0.0-154.0","3DH6GAKTYZB5D7JMAHSJNJMHTYGYZZ","A27W025UEXS1G0","3S829FDFT2NBOHQMM1CIOU0HZYXDXL","","","img/flower8.png","76","695.6000000014901","3","0","3","0.6,0.6,0,0,0.6,0.6,0.6,0,0.6",""
"null","","html-keyboard-response","155","169339","0.0-155.0","3DH6GAKTYZB5D7JMAHSJNJMHTYGYZZ","A27W025UEXS1G0","3S829FDFT2NBOHQMM1CIOU0HZYXDXL","","","<img src=""img/flower8.png"" style=""width:200px;border:14px solid red;"">","null","","","","","",""
"755.1000000014901","","image-keyboard-response","156","170095","0.0-156.0","3DH6GAKTYZB5D7JMAHSJNJMHTYGYZZ","A27W025UEXS1G0","3S829FDFT2NBOHQMM1CIOU0HZYXDXL","","","img/flower6.png","74","755.6000000014901","1","0","1","0.6,0.6,0,0,0.6,0.6,0.6,0,0.6",""
"null","","html-keyboard-response","157","170399","0.0-157.0","3DH6GAKTYZB5D7JMAHSJNJMHTYGYZZ","A27W025UEXS1G0","3S829FDFT2NBOHQMM1CIOU0HZYXDXL","","","<img src=""img/flower6.png"" style=""width:200px;border:14px solid red;"">","null","","","","","",""
"783.1999999992549","","image-keyboard-response","158","171183","0.0-158.0","3DH6GAKTYZB5D7JMAHSJNJMHTYGYZZ","A27W025UEXS1G0","3S829FDFT2NBOHQMM1CIOU0HZYXDXL","","","img/flower1.png","75","784.1000000014901","2","1","2","0.6,0.6,0,0,0.6,0.6,0.6,0,0.6",""
"null","","html-keyboard-response","159","171492","0.0-159.0","3DH6GAKTYZB5D7JMAHSJNJMHTYGYZZ","A27W025UEXS1G0","3S829FDFT2NBOHQMM1CIOU0HZYXDXL","","","<img src=""img/flower1.png"" style=""width:200px; border:14px solid green;"">","null","","","","","",""
"594.8999999985099","","image-keyboard-response","160","172087","0.0-160.0","3DH6GAKTYZB5D7JMAHSJNJMHTYGYZZ","A27W025UEXS1G0","3S829FDFT2NBOHQMM1CIOU0HZYXDXL","","","img/flower8.png","76","595.3000000007451","3","0","3","0.6,0.6,0,0,0.6,0.6,0.6,0,0.6",""
"null","","html-keyboard-response","161","172399","0.0-161.0","3DH6GAKTYZB5D7JMAHSJNJMHTYGYZZ","A27W025UEXS1G0","3S829FDFT2NBOHQMM1CIOU0HZYXDXL","","","<img src=""img/flower8.png"" style=""width:200px;border:14px solid red;"">","null","","","","","",""
"655.3999999985099","","image-keyboard-response","162","173055","0.0-162.0","3DH6GAKTYZB5D7JMAHSJNJMHTYGYZZ","A27W025UEXS1G0","3S829FDFT2NBOHQMM1CIOU0HZYXDXL","","","img/flower1.png","75","655.8999999985099","2","1","2","0.6,0.6,0,0,0.6,0.6,0.6,0,0.6",""
"null","","html-keyboard-response","163","173369","0.0-163.0","3DH6GAKTYZB5D7JMAHSJNJMHTYGYZZ","A27W025UEXS1G0","3S829FDFT2NBOHQMM1CIOU0HZYXDXL","","","<img src=""img/flower1.png"" style=""width:200px; border:14px solid green;"">","null","","","","","",""
"781.5","","image-keyboard-response","164","174151","0.0-164.0","3DH6GAKTYZB5D7JMAHSJNJMHTYGYZZ","A27W025UEXS1G0","3S829FDFT2NBOHQMM1CIOU0HZYXDXL","","","img/flower6.png","76","782","3","0","1","0.6,0.6,0,0,0.6,0.6,0.6,0,0.6",""
"null","","html-keyboard-response","165","174461","0.0-165.0","3DH6GAKTYZB5D7JMAHSJNJMHTYGYZZ","A27W025UEXS1G0","3S829FDFT2NBOHQMM1CIOU0HZYXDXL","","","<img src=""img/flower6.png"" style=""width:200px;border:14px solid red;"">","null","","","","","",""
"617.8999999985099","","image-keyboard-response","166","175079","0.0-166.0","3DH6GAKTYZB5D7JMAHSJNJMHTYGYZZ","A27W025UEXS1G0","3S829FDFT2NBOHQMM1CIOU0HZYXDXL","","","img/flower8.png","75","618.2000000029802","2","0","3","0.6,0.6,0,0,0.6,0.6,0.6,0,0.6",""
"null","","html-keyboard-response","167","175385","0.0-167.0","3DH6GAKTYZB5D7JMAHSJNJMHTYGYZZ","A27W025UEXS1G0","3S829FDFT2NBOHQMM1CIOU0HZYXDXL","","","<img src=""img/flower8.png"" style=""width:200px;border:14px solid red;"">","null","","","","","",""
"653.8000000007451","","image-keyboard-response","168","176039","0.0-168.0","3DH6GAKTYZB5D7JMAHSJNJMHTYGYZZ","A27W025UEXS1G0","3S829FDFT2NBOHQMM1CIOU0HZYXDXL","","","img/flower1.png","75","654.3000000007451","2","0","2","0.6,0.6,0,0,0.6,0.6,0.6,0,0.6",""
"null","","html-keyboard-response","169","176351","0.0-169.0","3DH6GAKTYZB5D7JMAHSJNJMHTYGYZZ","A27W025UEXS1G0","3S829FDFT2NBOHQMM1CIOU0HZYXDXL","","","<img src=""img/flower1.png"" style=""width:200px;border:14px solid red;"">","null","","","","","",""
"495.5999999977648","","image-keyboard-response","170","176847","0.0-170.0","3DH6GAKTYZB5D7JMAHSJNJMHTYGYZZ","A27W025UEXS1G0","3S829FDFT2NBOHQMM1CIOU0HZYXDXL","","","img/flower8.png","76","495.8999999985099","3","1","3","0.6,0.6,0,0,0.6,0.6,0.6,0,0.6",""
"null","","html-keyboard-response","171","177153","0.0-171.0","3DH6GAKTYZB5D7JMAHSJNJMHTYGYZZ","A27W025UEXS1G0","3S829FDFT2NBOHQMM1CIOU0HZYXDXL","","","<img src=""img/flower8.png"" style=""width:200px; border:14px solid green;"">","null","","","","","",""
"1725.0999999977648","","image-keyboard-response","172","178879","0.0-172.0","3DH6GAKTYZB5D7JMAHSJNJMHTYGYZZ","A27W025UEXS1G0","3S829FDFT2NBOHQMM1CIOU0HZYXDXL","","","img/flower6.png","74","1725.5999999977648","1","0","1","0.6,0.6,0,0,0.6,0.6,0.6,0,0.6",""
"null","","html-keyboard-response","173","179188","0.0-173.0","3DH6GAKTYZB5D7JMAHSJNJMHTYGYZZ","A27W025UEXS1G0","3S829FDFT2NBOHQMM1CIOU0HZYXDXL","","","<img src=""img/flower6.png"" style=""width:200px;border:14px solid red;"">","null","","","","","",""
"706.7999999970198","","image-keyboard-response","174","179895","0.0-174.0","3DH6GAKTYZB5D7JMAHSJNJMHTYGYZZ","A27W025UEXS1G0","3S829FDFT2NBOHQMM1CIOU0HZYXDXL","","","img/flower8.png","75","707.2000000029802","2","0","3","0.6,0.6,0,0,0.6,0.6,0.6,0,0.6",""
"null","","html-keyboard-response","175","180205","0.0-175.0","3DH6GAKTYZB5D7JMAHSJNJMHTYGYZZ","A27W025UEXS1G0","3S829FDFT2NBOHQMM1CIOU0HZYXDXL","","","<img src=""img/flower8.png"" style=""width:200px;border:14px solid red;"">","null","","","","","",""
"1610","","image-keyboard-response","176","181815","0.0-176.0","3DH6GAKTYZB5D7JMAHSJNJMHTYGYZZ","A27W025UEXS1G0","3S829FDFT2NBOHQMM1CIOU0HZYXDXL","","","img/flower6.png","76","1610.5","3","0","1","0.6,0.6,0,0,0.6,0.6,0.6,0,0.6",""
"null","","html-keyboard-response","177","182129","0.0-177.0","3DH6GAKTYZB5D7JMAHSJNJMHTYGYZZ","A27W025UEXS1G0","3S829FDFT2NBOHQMM1CIOU0HZYXDXL","","","<img src=""img/flower6.png"" style=""width:200px;border:14px solid red;"">","null","","","","","",""
"533.7000000029802","","image-keyboard-response","178","182663","0.0-178.0","3DH6GAKTYZB5D7JMAHSJNJMHTYGYZZ","A27W025UEXS1G0","3S829FDFT2NBOHQMM1CIOU0HZYXDXL","","","img/flower6.png","75","534.1999999992549","2","0","1","0.6,0.6,0,0,0.6,0.6,0.6,0,0.6",""
"null","","html-keyboard-response","179","182974","0.0-179.0","3DH6GAKTYZB5D7JMAHSJNJMHTYGYZZ","A27W025UEXS1G0","3S829FDFT2NBOHQMM1CIOU0HZYXDXL","","","<img src=""img/flower6.png"" style=""width:200px;border:14px solid red;"">","null","","","","","",""
"576.6000000014901","","image-keyboard-response","180","183551","0.0-180.0","3DH6GAKTYZB5D7JMAHSJNJMHTYGYZZ","A27W025UEXS1G0","3S829FDFT2NBOHQMM1CIOU0HZYXDXL","","","img/flower8.png","76","577","3","0","3","0.6,0.6,0,0,0.6,0.6,0.6,0,0.6",""
"null","","html-keyboard-response","181","183852","0.0-181.0","3DH6GAKTYZB5D7JMAHSJNJMHTYGYZZ","A27W025UEXS1G0","3S829FDFT2NBOHQMM1CIOU0HZYXDXL","","","<img src=""img/flower8.png"" style=""width:200px;border:14px solid red;"">","null","","","","","",""
"627","","image-keyboard-response","182","184479","0.0-182.0","3DH6GAKTYZB5D7JMAHSJNJMHTYGYZZ","A27W025UEXS1G0","3S829FDFT2NBOHQMM1CIOU0HZYXDXL","","","img/flower1.png","75","627.4000000022352","2","1","2","0.6,0.6,0,0,0.6,0.6,0.6,0,0.6",""
"null","","html-keyboard-response","183","184790","0.0-183.0","3DH6GAKTYZB5D7JMAHSJNJMHTYGYZZ","A27W025UEXS1G0","3S829FDFT2NBOHQMM1CIOU0HZYXDXL","","","<img src=""img/flower1.png"" style=""width:200px; border:14px solid green;"">","null","","","","","",""
"625","","image-keyboard-response","184","185415","0.0-184.0","3DH6GAKTYZB5D7JMAHSJNJMHTYGYZZ","A27W025UEXS1G0","3S829FDFT2NBOHQMM1CIOU0HZYXDXL","","","img/flower8.png","74","625.3999999985099","1","1","3","0.6,0.6,0,0,0.6,0.6,0.6,0,0.6",""
"null","","html-keyboard-response","185","185729","0.0-185.0","3DH6GAKTYZB5D7JMAHSJNJMHTYGYZZ","A27W025UEXS1G0","3S829FDFT2NBOHQMM1CIOU0HZYXDXL","","","<img src=""img/flower8.png"" style=""width:200px; border:14px solid green;"">","null","","","","","",""
"605.7000000029802","","image-keyboard-response","186","186335","0.0-186.0","3DH6GAKTYZB5D7JMAHSJNJMHTYGYZZ","A27W025UEXS1G0","3S829FDFT2NBOHQMM1CIOU0HZYXDXL","","","img/flower8.png","74","606.0999999977648","1","0","3","0.6,0.6,0,0,0.6,0.6,0.6,0,0.6",""
"null","","html-keyboard-response","187","186637","0.0-187.0","3DH6GAKTYZB5D7JMAHSJNJMHTYGYZZ","A27W025UEXS1G0","3S829FDFT2NBOHQMM1CIOU0HZYXDXL","","","<img src=""img/flower8.png"" style=""width:200px;border:14px solid red;"">","null","","","","","",""
"1474.699999999255","","image-keyboard-response","188","188112","0.0-188.0","3DH6GAKTYZB5D7JMAHSJNJMHTYGYZZ","A27W025UEXS1G0","3S829FDFT2NBOHQMM1CIOU0HZYXDXL","","","img/flower6.png","76","1475.300000000745","3","0","1","0.6,0.6,0,0,0.6,0.6,0.6,0,0.6",""
"null","","html-keyboard-response","189","188423","0.0-189.0","3DH6GAKTYZB5D7JMAHSJNJMHTYGYZZ","A27W025UEXS1G0","3S829FDFT2NBOHQMM1CIOU0HZYXDXL","","","<img src=""img/flower6.png"" style=""width:200px;border:14px solid red;"">","null","","","","","",""
"401","","image-keyboard-response","190","188825","0.0-190.0","3DH6GAKTYZB5D7JMAHSJNJMHTYGYZZ","A27W025UEXS1G0","3S829FDFT2NBOHQMM1CIOU0HZYXDXL","","","img/flower6.png","76","401.5999999977648","3","0","1","0.6,0.6,0,0,0.6,0.6,0.6,0,0.6",""
"null","","html-keyboard-response","191","189130","0.0-191.0","3DH6GAKTYZB5D7JMAHSJNJMHTYGYZZ","A27W025UEXS1G0","3S829FDFT2NBOHQMM1CIOU0HZYXDXL","","","<img src=""img/flower6.png"" style=""width:200px;border:14px solid red;"">","null","","","","","",""
"677.4000000022352","","image-keyboard-response","192","189808","0.0-192.0","3DH6GAKTYZB5D7JMAHSJNJMHTYGYZZ","A27W025UEXS1G0","3S829FDFT2NBOHQMM1CIOU0HZYXDXL","","","img/flower6.png","75","677.7999999970198","2","0","1","0.6,0.6,0,0,0.6,0.6,0.6,0,0.6",""
"null","","html-keyboard-response","193","190112","0.0-193.0","3DH6GAKTYZB5D7JMAHSJNJMHTYGYZZ","A27W025UEXS1G0","3S829FDFT2NBOHQMM1CIOU0HZYXDXL","","","<img src=""img/flower6.png"" style=""width:200px;border:14px solid red;"">","null","","","","","",""
"750.1999999992549","","image-keyboard-response","194","190863","0.0-194.0","3DH6GAKTYZB5D7JMAHSJNJMHTYGYZZ","A27W025UEXS1G0","3S829FDFT2NBOHQMM1CIOU0HZYXDXL","","","img/flower1.png","75","750.6000000014901","2","1","2","0.6,0.6,0,0,0.6,0.6,0.6,0,0.6",""
"null","","html-keyboard-response","195","191171","0.0-195.0","3DH6GAKTYZB5D7JMAHSJNJMHTYGYZZ","A27W025UEXS1G0","3S829FDFT2NBOHQMM1CIOU0HZYXDXL","","","<img src=""img/flower1.png"" style=""width:200px; border:14px solid green;"">","null","","","","","",""
"996.8999999985099","","image-keyboard-response","196","192168","0.0-196.0","3DH6GAKTYZB5D7JMAHSJNJMHTYGYZZ","A27W025UEXS1G0","3S829FDFT2NBOHQMM1CIOU0HZYXDXL","","","img/flower6.png","74","997.3000000007451","1","1","1","0.6,0.6,0,0,0.6,0.6,0.6,0,0.6",""
"null","","html-keyboard-response","197","192478","0.0-197.0","3DH6GAKTYZB5D7JMAHSJNJMHTYGYZZ","A27W025UEXS1G0","3S829FDFT2NBOHQMM1CIOU0HZYXDXL","","","<img src=""img/flower6.png"" style=""width:200px; border:14px solid green;"">","null","","","","","",""
"680","","image-keyboard-response","198","193159","0.0-198.0","3DH6GAKTYZB5D7JMAHSJNJMHTYGYZZ","A27W025UEXS1G0","3S829FDFT2NBOHQMM1CIOU0HZYXDXL","","","img/flower1.png","75","680.5","2","1","2","0.6,0.6,0,0,0.6,0.6,0.6,0,0.6",""
"null","","html-keyboard-response","199","193464","0.0-199.0","3DH6GAKTYZB5D7JMAHSJNJMHTYGYZZ","A27W025UEXS1G0","3S829FDFT2NBOHQMM1CIOU0HZYXDXL","","","<img src=""img/flower1.png"" style=""width:200px; border:14px solid green;"">","null","","","","","",""
"646.7000000029802","","image-keyboard-response","200","194111","0.0-200.0","3DH6GAKTYZB5D7JMAHSJNJMHTYGYZZ","A27W025UEXS1G0","3S829FDFT2NBOHQMM1CIOU0HZYXDXL","","","img/flower8.png","74","647.1000000014901","1","1","3","0.6,0.6,0,0,0.6,0.6,0.6,0,0.6",""
"null","","html-keyboard-response","201","194418","0.0-201.0","3DH6GAKTYZB5D7JMAHSJNJMHTYGYZZ","A27W025UEXS1G0","3S829FDFT2NBOHQMM1CIOU0HZYXDXL","","","<img src=""img/flower8.png"" style=""width:200px; border:14px solid green;"">","null","","","","","",""
"772.5","","image-keyboard-response","202","195191","0.0-202.0","3DH6GAKTYZB5D7JMAHSJNJMHTYGYZZ","A27W025UEXS1G0","3S829FDFT2NBOHQMM1CIOU0HZYXDXL","","","img/flower6.png","74","772.8000000007451","1","1","1","0.6,0.6,0,0,0.6,0.6,0.6,0,0.6",""
"null","","html-keyboard-response","203","195494","0.0-203.0","3DH6GAKTYZB5D7JMAHSJNJMHTYGYZZ","A27W025UEXS1G0","3S829FDFT2NBOHQMM1CIOU0HZYXDXL","","","<img src=""img/flower6.png"" style=""width:200px; border:14px solid green;"">","null","","","","","",""
"1520.3999999985099","","image-keyboard-response","204","197015","0.0-204.0","3DH6GAKTYZB5D7JMAHSJNJMHTYGYZZ","A27W025UEXS1G0","3S829FDFT2NBOHQMM1CIOU0HZYXDXL","","","img/flower1.png","75","1520.7999999970198","2","0","2","0.6,0.6,0,0,0.6,0.6,0.6,0,0.6",""
"null","","html-keyboard-response","205","197324","0.0-205.0","3DH6GAKTYZB5D7JMAHSJNJMHTYGYZZ","A27W025UEXS1G0","3S829FDFT2NBOHQMM1CIOU0HZYXDXL","","","<img src=""img/flower1.png"" style=""width:200px;border:14px solid red;"">","null","","","","","",""
"954.5","","image-keyboard-response","206","198279","0.0-206.0","3DH6GAKTYZB5D7JMAHSJNJMHTYGYZZ","A27W025UEXS1G0","3S829FDFT2NBOHQMM1CIOU0HZYXDXL","","","img/flower8.png","74","954.8000000007451","1","1","3","0.6,0.6,0,0,0.6,0.6,0.6,0,0.6",""
"null","","html-keyboard-response","207","198584","0.0-207.0","3DH6GAKTYZB5D7JMAHSJNJMHTYGYZZ","A27W025UEXS1G0","3S829FDFT2NBOHQMM1CIOU0HZYXDXL","","","<img src=""img/flower8.png"" style=""width:200px; border:14px solid green;"">","null","","","","","",""
"358.20000000298023","","image-keyboard-response","208","198943","0.0-208.0","3DH6GAKTYZB5D7JMAHSJNJMHTYGYZZ","A27W025UEXS1G0","3S829FDFT2NBOHQMM1CIOU0HZYXDXL","","","img/flower8.png","74","358.69999999925494","1","0","3","0.6,0.6,0,0,0.6,0.6,0.6,0,0.6",""
"null","","html-keyboard-response","209","199245","0.0-209.0","3DH6GAKTYZB5D7JMAHSJNJMHTYGYZZ","A27W025UEXS1G0","3S829FDFT2NBOHQMM1CIOU0HZYXDXL","","","<img src=""img/flower8.png"" style=""width:200px;border:14px solid red;"">","null","","","","","",""
"442.69999999925494","","image-keyboard-response","210","199688","0.0-210.0","3DH6GAKTYZB5D7JMAHSJNJMHTYGYZZ","A27W025UEXS1G0","3S829FDFT2NBOHQMM1CIOU0HZYXDXL","","","img/flower8.png","74","443","1","1","3","0.6,0.6,0,0,0.6,0.6,0.6,0,0.6",""
"null","","html-keyboard-response","211","199996","0.0-211.0","3DH6GAKTYZB5D7JMAHSJNJMHTYGYZZ","A27W025UEXS1G0","3S829FDFT2NBOHQMM1CIOU0HZYXDXL","","","<img src=""img/flower8.png"" style=""width:200px; border:14px solid green;"">","null","","","","","",""
"746.1000000014901","","image-keyboard-response","212","200743","0.0-212.0","3DH6GAKTYZB5D7JMAHSJNJMHTYGYZZ","A27W025UEXS1G0","3S829FDFT2NBOHQMM1CIOU0HZYXDXL","","","img/flower1.png","75","746.6000000014901","2","1","2","0.6,0.6,0,0,0.6,0.6,0.6,0,0.6",""
"null","","html-keyboard-response","213","201057","0.0-213.0","3DH6GAKTYZB5D7JMAHSJNJMHTYGYZZ","A27W025UEXS1G0","3S829FDFT2NBOHQMM1CIOU0HZYXDXL","","","<img src=""img/flower1.png"" style=""width:200px; border:14px solid green;"">","null","","","","","",""
"453.5","","image-keyboard-response","214","201511","0.0-214.0","3DH6GAKTYZB5D7JMAHSJNJMHTYGYZZ","A27W025UEXS1G0","3S829FDFT2NBOHQMM1CIOU0HZYXDXL","","","img/flower6.png","74","453.8999999985099","1","1","1","0.6,0.6,0,0,0.6,0.6,0.6,0,0.6",""
"null","","html-keyboard-response","215","201828","0.0-215.0","3DH6GAKTYZB5D7JMAHSJNJMHTYGYZZ","A27W025UEXS1G0","3S829FDFT2NBOHQMM1CIOU0HZYXDXL","","","<img src=""img/flower6.png"" style=""width:200px; border:14px solid green;"">","null","","","","","",""
"243.19999999925494","","image-keyboard-response","216","202071","0.0-216.0","3DH6GAKTYZB5D7JMAHSJNJMHTYGYZZ","A27W025UEXS1G0","3S829FDFT2NBOHQMM1CIOU0HZYXDXL","","","img/flower1.png","74","243.59999999776483","1","0","2","0.6,0.6,0,0,0.6,0.6,0.6,0,0.6",""
"null","","html-keyboard-response","217","202381","0.0-217.0","3DH6GAKTYZB5D7JMAHSJNJMHTYGYZZ","A27W025UEXS1G0","3S829FDFT2NBOHQMM1CIOU0HZYXDXL","","","<img src=""img/flower1.png"" style=""width:200px;border:14px solid red;"">","null","","","","","",""
"1122.0999999977648","","image-keyboard-response","218","203503","0.0-218.0","3DH6GAKTYZB5D7JMAHSJNJMHTYGYZZ","A27W025UEXS1G0","3S829FDFT2NBOHQMM1CIOU0HZYXDXL","","","img/flower8.png","74","1122.5","1","0","3","0.6,0.6,0,0,0.6,0.6,0.6,0,0.6",""
"null","","html-keyboard-response","219","203808","0.0-219.0","3DH6GAKTYZB5D7JMAHSJNJMHTYGYZZ","A27W025UEXS1G0","3S829FDFT2NBOHQMM1CIOU0HZYXDXL","","","<img src=""img/flower8.png"" style=""width:200px;border:14px solid red;"">","null","","","","","",""
"462.20000000298023","","image-keyboard-response","220","204271","0.0-220.0","3DH6GAKTYZB5D7JMAHSJNJMHTYGYZZ","A27W025UEXS1G0","3S829FDFT2NBOHQMM1CIOU0HZYXDXL","","","img/flower1.png","75","462.80000000074506","2","1","2","0.6,0.6,0,0,0.6,0.6,0.6,0,0.6",""
"null","","html-keyboard-response","221","204577","0.0-221.0","3DH6GAKTYZB5D7JMAHSJNJMHTYGYZZ","A27W025UEXS1G0","3S829FDFT2NBOHQMM1CIOU0HZYXDXL","","","<img src=""img/flower1.png"" style=""width:200px; border:14px solid green;"">","null","","","","","",""
"510.69999999925494","","image-keyboard-response","222","205088","0.0-222.0","3DH6GAKTYZB5D7JMAHSJNJMHTYGYZZ","A27W025UEXS1G0","3S829FDFT2NBOHQMM1CIOU0HZYXDXL","","","img/flower6.png","74","511.19999999925494","1","0","1","0.6,0.6,0,0,0.6,0.6,0.6,0,0.6",""
"null","","html-keyboard-response","223","205393","0.0-223.0","3DH6GAKTYZB5D7JMAHSJNJMHTYGYZZ","A27W025UEXS1G0","3S829FDFT2NBOHQMM1CIOU0HZYXDXL","","","<img src=""img/flower6.png"" style=""width:200px;border:14px solid red;"">","null","","","","","",""
"285.5999999977648","","image-keyboard-response","224","205679","0.0-224.0","3DH6GAKTYZB5D7JMAHSJNJMHTYGYZZ","A27W025UEXS1G0","3S829FDFT2NBOHQMM1CIOU0HZYXDXL","","","img/flower6.png","74","286","1","0","1","0.6,0.6,0,0,0.6,0.6,0.6,0,0.6",""
"null","","html-keyboard-response","225","205993","0.0-225.0","3DH6GAKTYZB5D7JMAHSJNJMHTYGYZZ","A27W025UEXS1G0","3S829FDFT2NBOHQMM1CIOU0HZYXDXL","","","<img src=""img/flower6.png"" style=""width:200px;border:14px solid red;"">","null","","","","","",""
"669.3000000007451","","image-keyboard-response","226","206663","0.0-226.0","3DH6GAKTYZB5D7JMAHSJNJMHTYGYZZ","A27W025UEXS1G0","3S829FDFT2NBOHQMM1CIOU0HZYXDXL","","","img/flower8.png","74","669.6999999992549","1","1","3","0.6,0.6,0,0,0.6,0.6,0.6,0,0.6",""
"null","","html-keyboard-response","227","206977","0.0-227.0","3DH6GAKTYZB5D7JMAHSJNJMHTYGYZZ","A27W025UEXS1G0","3S829FDFT2NBOHQMM1CIOU0HZYXDXL","","","<img src=""img/flower8.png"" style=""width:200px; border:14px solid green;"">","null","","","","","",""
"397.1000000014901","","image-keyboard-response","228","207375","0.0-228.0","3DH6GAKTYZB5D7JMAHSJNJMHTYGYZZ","A27W025UEXS1G0","3S829FDFT2NBOHQMM1CIOU0HZYXDXL","","","img/flower8.png","74","397.4000000022352","1","0","3","0.6,0.6,0,0,0.6,0.6,0.6,0,0.6",""
"null","","html-keyboard-response","229","207683","0.0-229.0","3DH6GAKTYZB5D7JMAHSJNJMHTYGYZZ","A27W025UEXS1G0","3S829FDFT2NBOHQMM1CIOU0HZYXDXL","","","<img src=""img/flower8.png"" style=""width:200px;border:14px solid red;"">","null","","","","","",""
"451.6000000014901","","image-keyboard-response","230","208136","0.0-230.0","3DH6GAKTYZB5D7JMAHSJNJMHTYGYZZ","A27W025UEXS1G0","3S829FDFT2NBOHQMM1CIOU0HZYXDXL","","","img/flower1.png","75","452.0999999977648","2","0","2","0.6,0.6,0,0,0.6,0.6,0.6,0,0.6",""
"null","","html-keyboard-response","231","208437","0.0-231.0","3DH6GAKTYZB5D7JMAHSJNJMHTYGYZZ","A27W025UEXS1G0","3S829FDFT2NBOHQMM1CIOU0HZYXDXL","","","<img src=""img/flower1.png"" style=""width:200px;border:14px solid red;"">","null","","","","","",""
"409.20000000298023","","image-keyboard-response","232","208847","0.0-232.0","3DH6GAKTYZB5D7JMAHSJNJMHTYGYZZ","A27W025UEXS1G0","3S829FDFT2NBOHQMM1CIOU0HZYXDXL","","","img/flower8.png","74","409.5999999977648","1","0","3","0.6,0.6,0,0,0.6,0.6,0.6,0,0.6",""
"null","","html-keyboard-response","233","209162","0.0-233.0","3DH6GAKTYZB5D7JMAHSJNJMHTYGYZZ","A27W025UEXS1G0","3S829FDFT2NBOHQMM1CIOU0HZYXDXL","","","<img src=""img/flower8.png"" style=""width:200px;border:14px solid red;"">","null","","","","","",""
"260.9000000022352","","image-keyboard-response","234","209423","0.0-234.0","3DH6GAKTYZB5D7JMAHSJNJMHTYGYZZ","A27W025UEXS1G0","3S829FDFT2NBOHQMM1CIOU0HZYXDXL","","","img/flower8.png","74","261.4000000022352","1","0","3","0.6,0.6,0,0,0.6,0.6,0.6,0,0.6",""
"null","","html-keyboard-response","235","209733","0.0-235.0","3DH6GAKTYZB5D7JMAHSJNJMHTYGYZZ","A27W025UEXS1G0","3S829FDFT2NBOHQMM1CIOU0HZYXDXL","","","<img src=""img/flower8.png"" style=""width:200px;border:14px solid red;"">","null","","","","","",""
"529.0999999977648","","image-keyboard-response","236","210263","0.0-236.0","3DH6GAKTYZB5D7JMAHSJNJMHTYGYZZ","A27W025UEXS1G0","3S829FDFT2NBOHQMM1CIOU0HZYXDXL","","","img/flower1.png","75","529.5","2","0","2","0.6,0.6,0,0,0.6,0.6,0.6,0,0.6",""
"null","","html-keyboard-response","237","210568","0.0-237.0","3DH6GAKTYZB5D7JMAHSJNJMHTYGYZZ","A27W025UEXS1G0","3S829FDFT2NBOHQMM1CIOU0HZYXDXL","","","<img src=""img/flower1.png"" style=""width:200px;border:14px solid red;"">","null","","","","","",""
"406.29999999701977","","image-keyboard-response","238","210975","0.0-238.0","3DH6GAKTYZB5D7JMAHSJNJMHTYGYZZ","A27W025UEXS1G0","3S829FDFT2NBOHQMM1CIOU0HZYXDXL","","","img/flower6.png","74","406.6000000014901","1","1","1","0.6,0.6,0,0,0.6,0.6,0.6,0,0.6",""
"null","","html-keyboard-response","239","211277","0.0-239.0","3DH6GAKTYZB5D7JMAHSJNJMHTYGYZZ","A27W025UEXS1G0","3S829FDFT2NBOHQMM1CIOU0HZYXDXL","","","<img src=""img/flower6.png"" style=""width:200px; border:14px solid green;"">","null","","","","","",""
"290","","image-keyboard-response","240","211567","0.0-240.0","3DH6GAKTYZB5D7JMAHSJNJMHTYGYZZ","A27W025UEXS1G0","3S829FDFT2NBOHQMM1CIOU0HZYXDXL","","","img/flower1.png","74","290.6000000014901","1","0","2","0.6,0.6,0,0,0.6,0.6,0.6,0,0.6",""
"null","","html-keyboard-response","241","211875","0.0-241.0","3DH6GAKTYZB5D7JMAHSJNJMHTYGYZZ","A27W025UEXS1G0","3S829FDFT2NBOHQMM1CIOU0HZYXDXL","","","<img src=""img/flower1.png"" style=""width:200px;border:14px solid red;"">","null","","","","","",""
"428.4000000022352","","image-keyboard-response","242","212303","0.0-242.0","3DH6GAKTYZB5D7JMAHSJNJMHTYGYZZ","A27W025UEXS1G0","3S829FDFT2NBOHQMM1CIOU0HZYXDXL","","","img/flower1.png","75","428.80000000074506","2","1","2","0.6,0.6,0,0,0.6,0.6,0.6,0,0.6",""
"null","","html-keyboard-response","243","212613","0.0-243.0","3DH6GAKTYZB5D7JMAHSJNJMHTYGYZZ","A27W025UEXS1G0","3S829FDFT2NBOHQMM1CIOU0HZYXDXL","","","<img src=""img/flower1.png"" style=""width:200px; border:14px solid green;"">","null","","","","","",""
"609.6999999992549","","image-keyboard-response","244","213223","0.0-244.0","3DH6GAKTYZB5D7JMAHSJNJMHTYGYZZ","A27W025UEXS1G0","3S829FDFT2NBOHQMM1CIOU0HZYXDXL","","","img/flower6.png","74","610.1999999992549","1","0","1","0.6,0.6,0,0,0.6,0.6,0.6,0,0.6",""
"null","","html-keyboard-response","245","213538","0.0-245.0","3DH6GAKTYZB5D7JMAHSJNJMHTYGYZZ","A27W025UEXS1G0","3S829FDFT2NBOHQMM1CIOU0HZYXDXL","","","<img src=""img/flower6.png"" style=""width:200px;border:14px solid red;"">","null","","","","","",""
"404.3999999985099","","image-keyboard-response","246","213943","0.0-246.0","3DH6GAKTYZB5D7JMAHSJNJMHTYGYZZ","A27W025UEXS1G0","3S829FDFT2NBOHQMM1CIOU0HZYXDXL","","","img/flower1.png","75","404.80000000074506","2","1","2","0.6,0.6,0,0,0.6,0.6,0.6,0,0.6",""
"null","","html-keyboard-response","247","214245","0.0-247.0","3DH6GAKTYZB5D7JMAHSJNJMHTYGYZZ","A27W025UEXS1G0","3S829FDFT2NBOHQMM1CIOU0HZYXDXL","","","<img src=""img/flower1.png"" style=""width:200px; border:14px solid green;"">","null","","","","","",""
"785.3000000007451","","image-keyboard-response","248","215031","0.0-248.0","3DH6GAKTYZB5D7JMAHSJNJMHTYGYZZ","A27W025UEXS1G0","3S829FDFT2NBOHQMM1CIOU0HZYXDXL","","","img/flower6.png","76","785.6000000014901","3","0","1","0.6,0.6,0,0,0.6,0.6,0.6,0,0.6",""
"null","","html-keyboard-response","249","215336","0.0-249.0","3DH6GAKTYZB5D7JMAHSJNJMHTYGYZZ","A27W025UEXS1G0","3S829FDFT2NBOHQMM1CIOU0HZYXDXL","","","<img src=""img/flower6.png"" style=""width:200px;border:14px solid red;"">","null","","","","","",""
"518.3999999985099","","image-keyboard-response","250","215855","0.0-250.0","3DH6GAKTYZB5D7JMAHSJNJMHTYGYZZ","A27W025UEXS1G0","3S829FDFT2NBOHQMM1CIOU0HZYXDXL","","","img/flower1.png","75","518.8000000007451","2","0","2","0.6,0.6,0,0,0.6,0.6,0.6,0,0.6",""
"null","","html-keyboard-response","251","216169","0.0-251.0","3DH6GAKTYZB5D7JMAHSJNJMHTYGYZZ","A27W025UEXS1G0","3S829FDFT2NBOHQMM1CIOU0HZYXDXL","","","<img src=""img/flower1.png"" style=""width:200px;border:14px solid red;"">","null","","","","","",""
"333.9000000022352","","image-keyboard-response","252","216503","0.0-252.0","3DH6GAKTYZB5D7JMAHSJNJMHTYGYZZ","A27W025UEXS1G0","3S829FDFT2NBOHQMM1CIOU0HZYXDXL","","","img/flower6.png","75","334.4000000022352","2","1","1","0.6,0.6,0,0,0.6,0.6,0.6,0,0.6",""
"null","","html-keyboard-response","253","216814","0.0-253.0","3DH6GAKTYZB5D7JMAHSJNJMHTYGYZZ","A27W025UEXS1G0","3S829FDFT2NBOHQMM1CIOU0HZYXDXL","","","<img src=""img/flower6.png"" style=""width:200px; border:14px solid green;"">","null","","","","","",""
"279.8999999985099","","image-keyboard-response","254","217095","0.0-254.0","3DH6GAKTYZB5D7JMAHSJNJMHTYGYZZ","A27W025UEXS1G0","3S829FDFT2NBOHQMM1CIOU0HZYXDXL","","","img/flower8.png","75","280.30000000074506","2","0","3","0.6,0.6,0,0,0.6,0.6,0.6,0,0.6",""
"null","","html-keyboard-response","255","217398","0.0-255.0","3DH6GAKTYZB5D7JMAHSJNJMHTYGYZZ","A27W025UEXS1G0","3S829FDFT2NBOHQMM1CIOU0HZYXDXL","","","<img src=""img/flower8.png"" style=""width:200px;border:14px solid red;"">","null","","","","","",""
"592","","image-keyboard-response","256","217991","0.0-256.0","3DH6GAKTYZB5D7JMAHSJNJMHTYGYZZ","A27W025UEXS1G0","3S829FDFT2NBOHQMM1CIOU0HZYXDXL","","","img/flower1.png","75","592.4000000022352","2","0","2","0.6,0.6,0,0,0.6,0.6,0.6,0,0.6",""
"null","","html-keyboard-response","257","218306","0.0-257.0","3DH6GAKTYZB5D7JMAHSJNJMHTYGYZZ","A27W025UEXS1G0","3S829FDFT2NBOHQMM1CIOU0HZYXDXL","","","<img src=""img/flower1.png"" style=""width:200px;border:14px solid red;"">","null","","","","","",""
"396.30000000074506","","image-keyboard-response","258","218703","0.0-258.0","3DH6GAKTYZB5D7JMAHSJNJMHTYGYZZ","A27W025UEXS1G0","3S829FDFT2NBOHQMM1CIOU0HZYXDXL","","","img/flower6.png","75","396.70000000298023","2","1","1","0.6,0.6,0,0,0.6,0.6,0.6,0,0.6",""
"null","","html-keyboard-response","259","219014","0.0-259.0","3DH6GAKTYZB5D7JMAHSJNJMHTYGYZZ","A27W025UEXS1G0","3S829FDFT2NBOHQMM1CIOU0HZYXDXL","","","<img src=""img/flower6.png"" style=""width:200px; border:14px solid green;"">","null","","","","","",""
"904.5","","image-keyboard-response","260","219919","0.0-260.0","3DH6GAKTYZB5D7JMAHSJNJMHTYGYZZ","A27W025UEXS1G0","3S829FDFT2NBOHQMM1CIOU0HZYXDXL","","","img/flower8.png","74","905.0999999977648","1","1","3","0.6,0.6,0,0,0.6,0.6,0.6,0,0.6",""
"null","","html-keyboard-response","261","220229","0.0-261.0","3DH6GAKTYZB5D7JMAHSJNJMHTYGYZZ","A27W025UEXS1G0","3S829FDFT2NBOHQMM1CIOU0HZYXDXL","","","<img src=""img/flower8.png"" style=""width:200px; border:14px solid green;"">","null","","","","","",""
"554","","image-keyboard-response","262","220783","0.0-262.0","3DH6GAKTYZB5D7JMAHSJNJMHTYGYZZ","A27W025UEXS1G0","3S829FDFT2NBOHQMM1CIOU0HZYXDXL","","","img/flower6.png","75","554.3000000007451","2","1","1","0.6,0.6,0,0,0.6,0.6,0.6,0,0.6",""
"null","","html-keyboard-response","263","221089","0.0-263.0","3DH6GAKTYZB5D7JMAHSJNJMHTYGYZZ","A27W025UEXS1G0","3S829FDFT2NBOHQMM1CIOU0HZYXDXL","","","<img src=""img/flower6.png"" style=""width:200px; border:14px solid green;"">","null","","","","","",""
"446.0999999977648","","image-keyboard-response","264","221535","0.0-264.0","3DH6GAKTYZB5D7JMAHSJNJMHTYGYZZ","A27W025UEXS1G0","3S829FDFT2NBOHQMM1CIOU0HZYXDXL","","","img/flower6.png","75","446.5","2","1","1","0.6,0.6,0,0,0.6,0.6,0.6,0,0.6",""
"null","","html-keyboard-response","265","221841","0.0-265.0","3DH6GAKTYZB5D7JMAHSJNJMHTYGYZZ","A27W025UEXS1G0","3S829FDFT2NBOHQMM1CIOU0HZYXDXL","","","<img src=""img/flower6.png"" style=""width:200px; border:14px solid green;"">","null","","","","","",""
"462.19999999925494","","image-keyboard-response","266","222303","0.0-266.0","3DH6GAKTYZB5D7JMAHSJNJMHTYGYZZ","A27W025UEXS1G0","3S829FDFT2NBOHQMM1CIOU0HZYXDXL","","","img/flower6.png","75","462.5","2","1","1","0.6,0.6,0,0,0.6,0.6,0.6,0,0.6",""
"null","","html-keyboard-response","267","222611","0.0-267.0","3DH6GAKTYZB5D7JMAHSJNJMHTYGYZZ","A27W025UEXS1G0","3S829FDFT2NBOHQMM1CIOU0HZYXDXL","","","<img src=""img/flower6.png"" style=""width:200px; border:14px solid green;"">","null","","","","","",""
"2395.800000000745","","image-keyboard-response","268","225007","0.0-268.0","3DH6GAKTYZB5D7JMAHSJNJMHTYGYZZ","A27W025UEXS1G0","3S829FDFT2NBOHQMM1CIOU0HZYXDXL","","","img/flower8.png","74","2396.39999999851","1","1","3","0.6,0.6,0,0,0.6,0.6,0.6,0,0.6",""
"null","","html-keyboard-response","269","225319","0.0-269.0","3DH6GAKTYZB5D7JMAHSJNJMHTYGYZZ","A27W025UEXS1G0","3S829FDFT2NBOHQMM1CIOU0HZYXDXL","","","<img src=""img/flower8.png"" style=""width:200px; border:14px solid green;"">","null","","","","","",""
"574.8999999985099","","image-keyboard-response","270","225895","0.0-270.0","3DH6GAKTYZB5D7JMAHSJNJMHTYGYZZ","A27W025UEXS1G0","3S829FDFT2NBOHQMM1CIOU0HZYXDXL","","","img/flower1.png","75","575.5","2","1","2","0.6,0.6,0,0,0.6,0.6,0.6,0,0.6",""
"null","","html-keyboard-response","271","226196","0.0-271.0","3DH6GAKTYZB5D7JMAHSJNJMHTYGYZZ","A27W025UEXS1G0","3S829FDFT2NBOHQMM1CIOU0HZYXDXL","","","<img src=""img/flower1.png"" style=""width:200px; border:14px solid green;"">","null","","","","","",""
"770.3999999985099","","image-keyboard-response","272","226967","0.0-272.0","3DH6GAKTYZB5D7JMAHSJNJMHTYGYZZ","A27W025UEXS1G0","3S829FDFT2NBOHQMM1CIOU0HZYXDXL","","","img/flower6.png","75","770.6000000014901","2","0","1","0.6,0.6,0,0,0.6,0.6,0.6,0,0.6",""
"null","","html-keyboard-response","273","227275","0.0-273.0","3DH6GAKTYZB5D7JMAHSJNJMHTYGYZZ","A27W025UEXS1G0","3S829FDFT2NBOHQMM1CIOU0HZYXDXL","","","<img src=""img/flower6.png"" style=""width:200px;border:14px solid red;"">","null","","","","","",""
"682.9000000022352","","image-keyboard-response","274","227959","0.0-274.0","3DH6GAKTYZB5D7JMAHSJNJMHTYGYZZ","A27W025UEXS1G0","3S829FDFT2NBOHQMM1CIOU0HZYXDXL","","","img/flower8.png","74","683.3999999985099","1","0","3","0.6,0.6,0,0,0.6,0.6,0.6,0,0.6",""
"null","","html-keyboard-response","275","228274","0.0-275.0","3DH6GAKTYZB5D7JMAHSJNJMHTYGYZZ","A27W025UEXS1G0","3S829FDFT2NBOHQMM1CIOU0HZYXDXL","","","<img src=""img/flower8.png"" style=""width:200px;border:14px solid red;"">","null","","","","","",""
"676.1999999992549","","image-keyboard-response","276","228951","0.0-276.0","3DH6GAKTYZB5D7JMAHSJNJMHTYGYZZ","A27W025UEXS1G0","3S829FDFT2NBOHQMM1CIOU0HZYXDXL","","","img/flower6.png","75","676.6999999992549","2","0","1","0.6,0.6,0,0,0.6,0.6,0.6,0,0.6",""
"null","","html-keyboard-response","277","229259","0.0-277.0","3DH6GAKTYZB5D7JMAHSJNJMHTYGYZZ","A27W025UEXS1G0","3S829FDFT2NBOHQMM1CIOU0HZYXDXL","","","<img src=""img/flower6.png"" style=""width:200px;border:14px solid red;"">","null","","","","","",""
"1355.300000000745","","image-keyboard-response","278","230615","0.0-278.0","3DH6GAKTYZB5D7JMAHSJNJMHTYGYZZ","A27W025UEXS1G0","3S829FDFT2NBOHQMM1CIOU0HZYXDXL","","","img/flower8.png","74","1355.7000000029802","1","1","3","0.6,0.6,0,0,0.6,0.6,0.6,0,0.6",""
"null","","html-keyboard-response","279","230928","0.0-279.0","3DH6GAKTYZB5D7JMAHSJNJMHTYGYZZ","A27W025UEXS1G0","3S829FDFT2NBOHQMM1CIOU0HZYXDXL","","","<img src=""img/flower8.png"" style=""width:200px; border:14px solid green;"">","null","","","","","",""
"671","","image-keyboard-response","280","231599","0.0-280.0","3DH6GAKTYZB5D7JMAHSJNJMHTYGYZZ","A27W025UEXS1G0","3S829FDFT2NBOHQMM1CIOU0HZYXDXL","","","img/flower1.png","75","671.5","2","0","2","0.6,0.6,0,0,0.6,0.6,0.6,0,0.6",""
"null","","html-keyboard-response","281","231902","0.0-281.0","3DH6GAKTYZB5D7JMAHSJNJMHTYGYZZ","A27W025UEXS1G0","3S829FDFT2NBOHQMM1CIOU0HZYXDXL","","","<img src=""img/flower1.png"" style=""width:200px;border:14px solid red;"">","null","","","","","",""
"712.6999999992549","","image-keyboard-response","282","232615","0.0-282.0","3DH6GAKTYZB5D7JMAHSJNJMHTYGYZZ","A27W025UEXS1G0","3S829FDFT2NBOHQMM1CIOU0HZYXDXL","","","img/flower8.png","74","713.1000000014901","1","1","3","0.6,0.6,0,0,0.6,0.6,0.6,0,0.6",""
"null","","html-keyboard-response","283","232920","0.0-283.0","3DH6GAKTYZB5D7JMAHSJNJMHTYGYZZ","A27W025UEXS1G0","3S829FDFT2NBOHQMM1CIOU0HZYXDXL","","","<img src=""img/flower8.png"" style=""width:200px; border:14px solid green;"">","null","","","","","",""
"574.5999999977648","","image-keyboard-response","284","233495","0.0-284.0","3DH6GAKTYZB5D7JMAHSJNJMHTYGYZZ","A27W025UEXS1G0","3S829FDFT2NBOHQMM1CIOU0HZYXDXL","","","img/flower6.png","75","575.1000000014901","2","1","1","0.6,0.6,0,0,0.6,0.6,0.6,0,0.6",""
"null","","html-keyboard-response","285","233796","0.0-285.0","3DH6GAKTYZB5D7JMAHSJNJMHTYGYZZ","A27W025UEXS1G0","3S829FDFT2NBOHQMM1CIOU0HZYXDXL","","","<img src=""img/flower6.png"" style=""width:200px; border:14px solid green;"">","null","","","","","",""
"706.3000000007451","","image-keyboard-response","286","234503","0.0-286.0","3DH6GAKTYZB5D7JMAHSJNJMHTYGYZZ","A27W025UEXS1G0","3S829FDFT2NBOHQMM1CIOU0HZYXDXL","","","img/flower1.png","75","706.8999999985099","2","1","2","0.6,0.6,0,0,0.6,0.6,0.6,0,0.6",""
"null","","html-keyboard-response","287","234811","0.0-287.0","3DH6GAKTYZB5D7JMAHSJNJMHTYGYZZ","A27W025UEXS1G0","3S829FDFT2NBOHQMM1CIOU0HZYXDXL","","","<img src=""img/flower1.png"" style=""width:200px; border:14px solid green;"">","null","","","","","",""
"730.7999999970198","","image-keyboard-response","288","235543","0.0-288.0","3DH6GAKTYZB5D7JMAHSJNJMHTYGYZZ","A27W025UEXS1G0","3S829FDFT2NBOHQMM1CIOU0HZYXDXL","","","img/flower8.png","74","731.4000000022352","1","1","3","0.6,0.6,0,0,0.6,0.6,0.6,0,0.6",""
"null","","html-keyboard-response","289","235857","0.0-289.0","3DH6GAKTYZB5D7JMAHSJNJMHTYGYZZ","A27W025UEXS1G0","3S829FDFT2NBOHQMM1CIOU0HZYXDXL","","","<img src=""img/flower8.png"" style=""width:200px; border:14px solid green;"">","null","","","","","",""
"613.8000000007451","","image-keyboard-response","290","236471","0.0-290.0","3DH6GAKTYZB5D7JMAHSJNJMHTYGYZZ","A27W025UEXS1G0","3S829FDFT2NBOHQMM1CIOU0HZYXDXL","","","img/flower1.png","75","614.3000000007451","2","0","2","0.6,0.6,0,0,0.6,0.6,0.6,0,0.6",""
"null","","html-keyboard-response","291","236783","0.0-291.0","3DH6GAKTYZB5D7JMAHSJNJMHTYGYZZ","A27W025UEXS1G0","3S829FDFT2NBOHQMM1CIOU0HZYXDXL","","","<img src=""img/flower1.png"" style=""width:200px;border:14px solid red;"">","null","","","","","",""
"1335.300000000745","","image-keyboard-response","292","238119","0.0-292.0","3DH6GAKTYZB5D7JMAHSJNJMHTYGYZZ","A27W025UEXS1G0","3S829FDFT2NBOHQMM1CIOU0HZYXDXL","","","img/flower8.png","74","1335.8999999985099","1","0","3","0.6,0.6,0,0,0.6,0.6,0.6,0,0.6",""
"null","","html-keyboard-response","293","238428","0.0-293.0","3DH6GAKTYZB5D7JMAHSJNJMHTYGYZZ","A27W025UEXS1G0","3S829FDFT2NBOHQMM1CIOU0HZYXDXL","","","<img src=""img/flower8.png"" style=""width:200px;border:14px solid red;"">","null","","","","","",""
"554.1999999992549","","image-keyboard-response","294","238983","0.0-294.0","3DH6GAKTYZB5D7JMAHSJNJMHTYGYZZ","A27W025UEXS1G0","3S829FDFT2NBOHQMM1CIOU0HZYXDXL","","","img/flower1.png","75","554.5","2","1","2","0.6,0.6,0,0,0.6,0.6,0.6,0,0.6",""
"null","","html-keyboard-response","295","239290","0.0-295.0","3DH6GAKTYZB5D7JMAHSJNJMHTYGYZZ","A27W025UEXS1G0","3S829FDFT2NBOHQMM1CIOU0HZYXDXL","","","<img src=""img/flower1.png"" style=""width:200px; border:14px solid green;"">","null","","","","","",""
"468.69999999925494","","image-keyboard-response","296","239759","0.0-296.0","3DH6GAKTYZB5D7JMAHSJNJMHTYGYZZ","A27W025UEXS1G0","3S829FDFT2NBOHQMM1CIOU0HZYXDXL","","","img/flower1.png","75","469.1000000014901","2","1","2","0.6,0.6,0,0,0.6,0.6,0.6,0,0.6",""
"null","","html-keyboard-response","297","240074","0.0-297.0","3DH6GAKTYZB5D7JMAHSJNJMHTYGYZZ","A27W025UEXS1G0","3S829FDFT2NBOHQMM1CIOU0HZYXDXL","","","<img src=""img/flower1.png"" style=""width:200px; border:14px solid green;"">","null","","","","","",""
"516.3999999985099","","image-keyboard-response","298","240591","0.0-298.0","3DH6GAKTYZB5D7JMAHSJNJMHTYGYZZ","A27W025UEXS1G0","3S829FDFT2NBOHQMM1CIOU0HZYXDXL","","","img/flower6.png","75","516.9000000022352","2","1","1","0.6,0.6,0,0,0.6,0.6,0.6,0,0.6",""
"null","","html-keyboard-response","299","240904","0.0-299.0","3DH6GAKTYZB5D7JMAHSJNJMHTYGYZZ","A27W025UEXS1G0","3S829FDFT2NBOHQMM1CIOU0HZYXDXL","","","<img src=""img/flower6.png"" style=""width:200px; border:14px solid green;"">","null","","","","","",""
"494.3999999985099","","image-keyboard-response","300","241399","0.0-300.0","3DH6GAKTYZB5D7JMAHSJNJMHTYGYZZ","A27W025UEXS1G0","3S829FDFT2NBOHQMM1CIOU0HZYXDXL","","","img/flower1.png","74","494.9000000022352","1","0","2","0.6,0.6,0,0,0.6,0.6,0.6,0,0.6",""
"null","","html-keyboard-response","301","241704","0.0-301.0","3DH6GAKTYZB5D7JMAHSJNJMHTYGYZZ","A27W025UEXS1G0","3S829FDFT2NBOHQMM1CIOU0HZYXDXL","","","<img src=""img/flower1.png"" style=""width:200px;border:14px solid red;"">","null","","","","","",""
"583","","image-keyboard-response","302","242288","0.0-302.0","3DH6GAKTYZB5D7JMAHSJNJMHTYGYZZ","A27W025UEXS1G0","3S829FDFT2NBOHQMM1CIOU0HZYXDXL","","","img/flower6.png","75","583.3999999985099","2","0","1","0.6,0.6,0,0,0.6,0.6,0.6,0,0.6",""
"null","","html-keyboard-response","303","242594","0.0-303.0","3DH6GAKTYZB5D7JMAHSJNJMHTYGYZZ","A27W025UEXS1G0","3S829FDFT2NBOHQMM1CIOU0HZYXDXL","","","<img src=""img/flower6.png"" style=""width:200px;border:14px solid red;"">","null","","","","","",""
"436.3999999985099","","image-keyboard-response","304","243031","0.0-304.0","3DH6GAKTYZB5D7JMAHSJNJMHTYGYZZ","A27W025UEXS1G0","3S829FDFT2NBOHQMM1CIOU0HZYXDXL","","","img/flower8.png","75","436.8999999985099","2","0","3","0.6,0.6,0,0,0.6,0.6,0.6,0,0.6",""
"null","","html-keyboard-response","305","243347","0.0-305.0","3DH6GAKTYZB5D7JMAHSJNJMHTYGYZZ","A27W025UEXS1G0","3S829FDFT2NBOHQMM1CIOU0HZYXDXL","","","<img src=""img/flower8.png"" style=""width:200px;border:14px solid red;"">","null","","","","","",""
"","","html-keyboard-response","306","245844","0.0-306.0","3DH6GAKTYZB5D7JMAHSJNJMHTYGYZZ","A27W025UEXS1G0","3S829FDFT2NBOHQMM1CIOU0HZYXDXL","","","","","","","","","",""
"2066.5","","image-keyboard-response","307","247911","0.0-307.0","3DH6GAKTYZB5D7JMAHSJNJMHTYGYZZ","A27W025UEXS1G0","3S829FDFT2NBOHQMM1CIOU0HZYXDXL","","","img/flower5.png","74","2066.89999999851","1","0","2","0.8,0.8,0.2,0.2,0.8,0.8,0.8,0.2,0.8",""
"null","","html-keyboard-response","308","248214","0.0-308.0","3DH6GAKTYZB5D7JMAHSJNJMHTYGYZZ","A27W025UEXS1G0","3S829FDFT2NBOHQMM1CIOU0HZYXDXL","","","<img src=""img/flower5.png"" style=""width:200px;border:14px solid red;"">","null","","","","","",""
"944.8000000007451","","image-keyboard-response","309","249159","0.0-309.0","3DH6GAKTYZB5D7JMAHSJNJMHTYGYZZ","A27W025UEXS1G0","3S829FDFT2NBOHQMM1CIOU0HZYXDXL","","","img/flower9.png","75","945.1000000014901","2","0","3","0.8,0.8,0.2,0.2,0.8,0.8,0.8,0.2,0.8",""
"null","","html-keyboard-response","310","249475","0.0-310.0","3DH6GAKTYZB5D7JMAHSJNJMHTYGYZZ","A27W025UEXS1G0","3S829FDFT2NBOHQMM1CIOU0HZYXDXL","","","<img src=""img/flower9.png"" style=""width:200px;border:14px solid red;"">","null","","","","","",""
"692.9000000022352","","image-keyboard-response","311","250168","0.0-311.0","3DH6GAKTYZB5D7JMAHSJNJMHTYGYZZ","A27W025UEXS1G0","3S829FDFT2NBOHQMM1CIOU0HZYXDXL","","","img/flower4.png","74","693.3999999985099","1","1","1","0.8,0.8,0.2,0.2,0.8,0.8,0.8,0.2,0.8",""
"null","","html-keyboard-response","312","250475","0.0-312.0","3DH6GAKTYZB5D7JMAHSJNJMHTYGYZZ","A27W025UEXS1G0","3S829FDFT2NBOHQMM1CIOU0HZYXDXL","","","<img src=""img/flower4.png"" style=""width:200px; border:14px solid green;"">","null","","","","","",""
"795.9000000022352","","image-keyboard-response","313","251271","0.0-313.0","3DH6GAKTYZB5D7JMAHSJNJMHTYGYZZ","A27W025UEXS1G0","3S829FDFT2NBOHQMM1CIOU0HZYXDXL","","","img/flower5.png","75","796.3000000007451","2","1","2","0.8,0.8,0.2,0.2,0.8,0.8,0.8,0.2,0.8",""
"null","","html-keyboard-response","314","251582","0.0-314.0","3DH6GAKTYZB5D7JMAHSJNJMHTYGYZZ","A27W025UEXS1G0","3S829FDFT2NBOHQMM1CIOU0HZYXDXL","","","<img src=""img/flower5.png"" style=""width:200px; border:14px solid green;"">","null","","","","","",""
"1008.2000000029802","","image-keyboard-response","315","252591","0.0-315.0","3DH6GAKTYZB5D7JMAHSJNJMHTYGYZZ","A27W025UEXS1G0","3S829FDFT2NBOHQMM1CIOU0HZYXDXL","","","img/flower9.png","76","1008.5999999977648","3","1","3","0.8,0.8,0.2,0.2,0.8,0.8,0.8,0.2,0.8",""
"null","","html-keyboard-response","316","252904","0.0-316.0","3DH6GAKTYZB5D7JMAHSJNJMHTYGYZZ","A27W025UEXS1G0","3S829FDFT2NBOHQMM1CIOU0HZYXDXL","","","<img src=""img/flower9.png"" style=""width:200px; border:14px solid green;"">","null","","","","","",""
"1063.1000000014901","","image-keyboard-response","317","253967","0.0-317.0","3DH6GAKTYZB5D7JMAHSJNJMHTYGYZZ","A27W025UEXS1G0","3S829FDFT2NBOHQMM1CIOU0HZYXDXL","","","img/flower5.png","75","1063.5","2","1","2","0.8,0.8,0.2,0.2,0.8,0.8,0.8,0.2,0.8",""
"null","","html-keyboard-response","318","254272","0.0-318.0","3DH6GAKTYZB5D7JMAHSJNJMHTYGYZZ","A27W025UEXS1G0","3S829FDFT2NBOHQMM1CIOU0HZYXDXL","","","<img src=""img/flower5.png"" style=""width:200px; border:14px solid green;"">","null","","","","","",""
"422.80000000074506","","image-keyboard-response","319","254695","0.0-319.0","3DH6GAKTYZB5D7JMAHSJNJMHTYGYZZ","A27W025UEXS1G0","3S829FDFT2NBOHQMM1CIOU0HZYXDXL","","","img/flower4.png","74","423.19999999925494","1","1","1","0.8,0.8,0.2,0.2,0.8,0.8,0.8,0.2,0.8",""
"null","","html-keyboard-response","320","255009","0.0-320.0","3DH6GAKTYZB5D7JMAHSJNJMHTYGYZZ","A27W025UEXS1G0","3S829FDFT2NBOHQMM1CIOU0HZYXDXL","","","<img src=""img/flower4.png"" style=""width:200px; border:14px solid green;"">","null","","","","","",""
"565.9000000022352","","image-keyboard-response","321","255575","0.0-321.0","3DH6GAKTYZB5D7JMAHSJNJMHTYGYZZ","A27W025UEXS1G0","3S829FDFT2NBOHQMM1CIOU0HZYXDXL","","","img/flower5.png","75","566.2999999970198","2","1","2","0.8,0.8,0.2,0.2,0.8,0.8,0.8,0.2,0.8",""
"null","","html-keyboard-response","322","255884","0.0-322.0","3DH6GAKTYZB5D7JMAHSJNJMHTYGYZZ","A27W025UEXS1G0","3S829FDFT2NBOHQMM1CIOU0HZYXDXL","","","<img src=""img/flower5.png"" style=""width:200px; border:14px solid green;"">","null","","","","","",""
"698.2000000029802","","image-keyboard-response","323","256583","0.0-323.0","3DH6GAKTYZB5D7JMAHSJNJMHTYGYZZ","A27W025UEXS1G0","3S829FDFT2NBOHQMM1CIOU0HZYXDXL","","","img/flower4.png","74","698.5999999977648","1","1","1","0.8,0.8,0.2,0.2,0.8,0.8,0.8,0.2,0.8",""
"null","","html-keyboard-response","324","256884","0.0-324.0","3DH6GAKTYZB5D7JMAHSJNJMHTYGYZZ","A27W025UEXS1G0","3S829FDFT2NBOHQMM1CIOU0HZYXDXL","","","<img src=""img/flower4.png"" style=""width:200px; border:14px solid green;"">","null","","","","","",""
"626.1999999992549","","image-keyboard-response","325","257511","0.0-325.0","3DH6GAKTYZB5D7JMAHSJNJMHTYGYZZ","A27W025UEXS1G0","3S829FDFT2NBOHQMM1CIOU0HZYXDXL","","","img/flower9.png","76","626.5999999977648","3","1","3","0.8,0.8,0.2,0.2,0.8,0.8,0.8,0.2,0.8",""
"null","","html-keyboard-response","326","257824","0.0-326.0","3DH6GAKTYZB5D7JMAHSJNJMHTYGYZZ","A27W025UEXS1G0","3S829FDFT2NBOHQMM1CIOU0HZYXDXL","","","<img src=""img/flower9.png"" style=""width:200px; border:14px solid green;"">","null","","","","","",""
"670.6000000014901","","image-keyboard-response","327","258495","0.0-327.0","3DH6GAKTYZB5D7JMAHSJNJMHTYGYZZ","A27W025UEXS1G0","3S829FDFT2NBOHQMM1CIOU0HZYXDXL","","","img/flower4.png","74","671","1","0","1","0.8,0.8,0.2,0.2,0.8,0.8,0.8,0.2,0.8",""
"null","","html-keyboard-response","328","258810","0.0-328.0","3DH6GAKTYZB5D7JMAHSJNJMHTYGYZZ","A27W025UEXS1G0","3S829FDFT2NBOHQMM1CIOU0HZYXDXL","","","<img src=""img/flower4.png"" style=""width:200px;border:14px solid red;"">","null","","","","","",""
"517.0999999977648","","image-keyboard-response","329","259327","0.0-329.0","3DH6GAKTYZB5D7JMAHSJNJMHTYGYZZ","A27W025UEXS1G0","3S829FDFT2NBOHQMM1CIOU0HZYXDXL","","","img/flower4.png","74","517.6000000014901","1","1","1","0.8,0.8,0.2,0.2,0.8,0.8,0.8,0.2,0.8",""
"null","","html-keyboard-response","330","259640","0.0-330.0","3DH6GAKTYZB5D7JMAHSJNJMHTYGYZZ","A27W025UEXS1G0","3S829FDFT2NBOHQMM1CIOU0HZYXDXL","","","<img src=""img/flower4.png"" style=""width:200px; border:14px solid green;"">","null","","","","","",""
"758.7000000029802","","image-keyboard-response","331","260399","0.0-331.0","3DH6GAKTYZB5D7JMAHSJNJMHTYGYZZ","A27W025UEXS1G0","3S829FDFT2NBOHQMM1CIOU0HZYXDXL","","","img/flower9.png","76","759.1999999992549","3","0","3","0.8,0.8,0.2,0.2,0.8,0.8,0.8,0.2,0.8",""
"null","","html-keyboard-response","332","260702","0.0-332.0","3DH6GAKTYZB5D7JMAHSJNJMHTYGYZZ","A27W025UEXS1G0","3S829FDFT2NBOHQMM1CIOU0HZYXDXL","","","<img src=""img/flower9.png"" style=""width:200px;border:14px solid red;"">","null","","","","","",""
"569.3000000007451","","image-keyboard-response","333","261271","0.0-333.0","3DH6GAKTYZB5D7JMAHSJNJMHTYGYZZ","A27W025UEXS1G0","3S829FDFT2NBOHQMM1CIOU0HZYXDXL","","","img/flower5.png","75","569.6000000014901","2","1","2","0.8,0.8,0.2,0.2,0.8,0.8,0.8,0.2,0.8",""
"null","","html-keyboard-response","334","261578","0.0-334.0","3DH6GAKTYZB5D7JMAHSJNJMHTYGYZZ","A27W025UEXS1G0","3S829FDFT2NBOHQMM1CIOU0HZYXDXL","","","<img src=""img/flower5.png"" style=""width:200px; border:14px solid green;"">","null","","","","","",""
"660.5999999977648","","image-keyboard-response","335","262239","0.0-335.0","3DH6GAKTYZB5D7JMAHSJNJMHTYGYZZ","A27W025UEXS1G0","3S829FDFT2NBOHQMM1CIOU0HZYXDXL","","","img/flower9.png","76","661.1999999992549","3","1","3","0.8,0.8,0.2,0.2,0.8,0.8,0.8,0.2,0.8",""
"null","","html-keyboard-response","336","262547","0.0-336.0","3DH6GAKTYZB5D7JMAHSJNJMHTYGYZZ","A27W025UEXS1G0","3S829FDFT2NBOHQMM1CIOU0HZYXDXL","","","<img src=""img/flower9.png"" style=""width:200px; border:14px solid green;"">","null","","","","","",""
"556.5","","image-keyboard-response","337","263104","0.0-337.0","3DH6GAKTYZB5D7JMAHSJNJMHTYGYZZ","A27W025UEXS1G0","3S829FDFT2NBOHQMM1CIOU0HZYXDXL","","","img/flower5.png","75","556.8999999985099","2","1","2","0.8,0.8,0.2,0.2,0.8,0.8,0.8,0.2,0.8",""
"null","","html-keyboard-response","338","263408","0.0-338.0","3DH6GAKTYZB5D7JMAHSJNJMHTYGYZZ","A27W025UEXS1G0","3S829FDFT2NBOHQMM1CIOU0HZYXDXL","","","<img src=""img/flower5.png"" style=""width:200px; border:14px solid green;"">","null","","","","","",""
"630.5","","image-keyboard-response","339","264039","0.0-339.0","3DH6GAKTYZB5D7JMAHSJNJMHTYGYZZ","A27W025UEXS1G0","3S829FDFT2NBOHQMM1CIOU0HZYXDXL","","","img/flower4.png","74","631.1000000014901","1","1","1","0.8,0.8,0.2,0.2,0.8,0.8,0.8,0.2,0.8",""
"null","","html-keyboard-response","340","264346","0.0-340.0","3DH6GAKTYZB5D7JMAHSJNJMHTYGYZZ","A27W025UEXS1G0","3S829FDFT2NBOHQMM1CIOU0HZYXDXL","","","<img src=""img/flower4.png"" style=""width:200px; border:14px solid green;"">","null","","","","","",""
"572","","image-keyboard-response","341","264919","0.0-341.0","3DH6GAKTYZB5D7JMAHSJNJMHTYGYZZ","A27W025UEXS1G0","3S829FDFT2NBOHQMM1CIOU0HZYXDXL","","","img/flower5.png","75","572.6000000014901","2","1","2","0.8,0.8,0.2,0.2,0.8,0.8,0.8,0.2,0.8",""
"null","","html-keyboard-response","342","265223","0.0-342.0","3DH6GAKTYZB5D7JMAHSJNJMHTYGYZZ","A27W025UEXS1G0","3S829FDFT2NBOHQMM1CIOU0HZYXDXL","","","<img src=""img/flower5.png"" style=""width:200px; border:14px solid green;"">","null","","","","","",""
"679.5999999977648","","image-keyboard-response","343","265903","0.0-343.0","3DH6GAKTYZB5D7JMAHSJNJMHTYGYZZ","A27W025UEXS1G0","3S829FDFT2NBOHQMM1CIOU0HZYXDXL","","","img/flower9.png","76","679.9000000022352","3","1","3","0.8,0.8,0.2,0.2,0.8,0.8,0.8,0.2,0.8",""
"null","","html-keyboard-response","344","266205","0.0-344.0","3DH6GAKTYZB5D7JMAHSJNJMHTYGYZZ","A27W025UEXS1G0","3S829FDFT2NBOHQMM1CIOU0HZYXDXL","","","<img src=""img/flower9.png"" style=""width:200px; border:14px solid green;"">","null","","","","","",""
"521.1000000014901","","image-keyboard-response","345","266727","0.0-345.0","3DH6GAKTYZB5D7JMAHSJNJMHTYGYZZ","A27W025UEXS1G0","3S829FDFT2NBOHQMM1CIOU0HZYXDXL","","","img/flower4.png","74","521.6999999992549","1","1","1","0.8,0.8,0.2,0.2,0.8,0.8,0.8,0.2,0.8",""
"null","","html-keyboard-response","346","267036","0.0-346.0","3DH6GAKTYZB5D7JMAHSJNJMHTYGYZZ","A27W025UEXS1G0","3S829FDFT2NBOHQMM1CIOU0HZYXDXL","","","<img src=""img/flower4.png"" style=""width:200px; border:14px solid green;"">","null","","","","","",""
"474.70000000298023","","image-keyboard-response","347","267511","0.0-347.0","3DH6GAKTYZB5D7JMAHSJNJMHTYGYZZ","A27W025UEXS1G0","3S829FDFT2NBOHQMM1CIOU0HZYXDXL","","","img/flower4.png","74","475.1000000014901","1","1","1","0.8,0.8,0.2,0.2,0.8,0.8,0.8,0.2,0.8",""
"null","","html-keyboard-response","348","267820","0.0-348.0","3DH6GAKTYZB5D7JMAHSJNJMHTYGYZZ","A27W025UEXS1G0","3S829FDFT2NBOHQMM1CIOU0HZYXDXL","","","<img src=""img/flower4.png"" style=""width:200px; border:14px solid green;"">","null","","","","","",""
"578.1999999992549","","image-keyboard-response","349","268399","0.0-349.0","3DH6GAKTYZB5D7JMAHSJNJMHTYGYZZ","A27W025UEXS1G0","3S829FDFT2NBOHQMM1CIOU0HZYXDXL","","","img/flower5.png","75","578.8000000007451","2","1","2","0.8,0.8,0.2,0.2,0.8,0.8,0.8,0.2,0.8",""
"null","","html-keyboard-response","350","268713","0.0-350.0","3DH6GAKTYZB5D7JMAHSJNJMHTYGYZZ","A27W025UEXS1G0","3S829FDFT2NBOHQMM1CIOU0HZYXDXL","","","<img src=""img/flower5.png"" style=""width:200px; border:14px solid green;"">","null","","","","","",""
"557.5","","image-keyboard-response","351","269271","0.0-351.0","3DH6GAKTYZB5D7JMAHSJNJMHTYGYZZ","A27W025UEXS1G0","3S829FDFT2NBOHQMM1CIOU0HZYXDXL","","","img/flower4.png","74","557.8999999985099","1","0","1","0.8,0.8,0.2,0.2,0.8,0.8,0.8,0.2,0.8",""
"null","","html-keyboard-response","352","269575","0.0-352.0","3DH6GAKTYZB5D7JMAHSJNJMHTYGYZZ","A27W025UEXS1G0","3S829FDFT2NBOHQMM1CIOU0HZYXDXL","","","<img src=""img/flower4.png"" style=""width:200px;border:14px solid red;"">","null","","","","","",""
"518.7000000029802","","image-keyboard-response","353","270095","0.0-353.0","3DH6GAKTYZB5D7JMAHSJNJMHTYGYZZ","A27W025UEXS1G0","3S829FDFT2NBOHQMM1CIOU0HZYXDXL","","","img/flower5.png","75","519.4000000022352","2","0","2","0.8,0.8,0.2,0.2,0.8,0.8,0.8,0.2,0.8",""
"null","","html-keyboard-response","354","270407","0.0-354.0","3DH6GAKTYZB5D7JMAHSJNJMHTYGYZZ","A27W025UEXS1G0","3S829FDFT2NBOHQMM1CIOU0HZYXDXL","","","<img src=""img/flower5.png"" style=""width:200px;border:14px solid red;"">","null","","","","","",""
"584","","image-keyboard-response","355","270991","0.0-355.0","3DH6GAKTYZB5D7JMAHSJNJMHTYGYZZ","A27W025UEXS1G0","3S829FDFT2NBOHQMM1CIOU0HZYXDXL","","","img/flower4.png","74","584.5","1","1","1","0.8,0.8,0.2,0.2,0.8,0.8,0.8,0.2,0.8",""
"null","","html-keyboard-response","356","271295","0.0-356.0","3DH6GAKTYZB5D7JMAHSJNJMHTYGYZZ","A27W025UEXS1G0","3S829FDFT2NBOHQMM1CIOU0HZYXDXL","","","<img src=""img/flower4.png"" style=""width:200px; border:14px solid green;"">","null","","","","","",""
"502.8999999985099","","image-keyboard-response","357","271799","0.0-357.0","3DH6GAKTYZB5D7JMAHSJNJMHTYGYZZ","A27W025UEXS1G0","3S829FDFT2NBOHQMM1CIOU0HZYXDXL","","","img/flower5.png","75","503.4000000022352","2","1","2","0.8,0.8,0.2,0.2,0.8,0.8,0.8,0.2,0.8",""
"null","","html-keyboard-response","358","272112","0.0-358.0","3DH6GAKTYZB5D7JMAHSJNJMHTYGYZZ","A27W025UEXS1G0","3S829FDFT2NBOHQMM1CIOU0HZYXDXL","","","<img src=""img/flower5.png"" style=""width:200px; border:14px solid green;"">","null","","","","","",""
"542.9000000022352","","image-keyboard-response","359","272655","0.0-359.0","3DH6GAKTYZB5D7JMAHSJNJMHTYGYZZ","A27W025UEXS1G0","3S829FDFT2NBOHQMM1CIOU0HZYXDXL","","","img/flower9.png","74","543.3999999985099","1","1","3","0.8,0.8,0.2,0.2,0.8,0.8,0.8,0.2,0.8",""
"null","","html-keyboard-response","360","272957","0.0-360.0","3DH6GAKTYZB5D7JMAHSJNJMHTYGYZZ","A27W025UEXS1G0","3S829FDFT2NBOHQMM1CIOU0HZYXDXL","","","<img src=""img/flower9.png"" style=""width:200px; border:14px solid green;"">","null","","","","","",""
"817.8000000007451","","image-keyboard-response","361","273775","0.0-361.0","3DH6GAKTYZB5D7JMAHSJNJMHTYGYZZ","A27W025UEXS1G0","3S829FDFT2NBOHQMM1CIOU0HZYXDXL","","","img/flower9.png","76","818.4000000022352","3","1","3","0.8,0.8,0.2,0.2,0.8,0.8,0.8,0.2,0.8",""
"null","","html-keyboard-response","362","274080","0.0-362.0","3DH6GAKTYZB5D7JMAHSJNJMHTYGYZZ","A27W025UEXS1G0","3S829FDFT2NBOHQMM1CIOU0HZYXDXL","","","<img src=""img/flower9.png"" style=""width:200px; border:14px solid green;"">","null","","","","","",""
"598.5","","image-keyboard-response","363","274679","0.0-363.0","3DH6GAKTYZB5D7JMAHSJNJMHTYGYZZ","A27W025UEXS1G0","3S829FDFT2NBOHQMM1CIOU0HZYXDXL","","","img/flower9.png","76","599","3","1","3","0.8,0.8,0.2,0.2,0.8,0.8,0.8,0.2,0.8",""
"null","","html-keyboard-response","364","274986","0.0-364.0","3DH6GAKTYZB5D7JMAHSJNJMHTYGYZZ","A27W025UEXS1G0","3S829FDFT2NBOHQMM1CIOU0HZYXDXL","","","<img src=""img/flower9.png"" style=""width:200px; border:14px solid green;"">","null","","","","","",""
"556.6999999992549","","image-keyboard-response","365","275543","0.0-365.0","3DH6GAKTYZB5D7JMAHSJNJMHTYGYZZ","A27W025UEXS1G0","3S829FDFT2NBOHQMM1CIOU0HZYXDXL","","","img/flower9.png","76","557.1000000014901","3","0","3","0.8,0.8,0.2,0.2,0.8,0.8,0.8,0.2,0.8",""
"null","","html-keyboard-response","366","275847","0.0-366.0","3DH6GAKTYZB5D7JMAHSJNJMHTYGYZZ","A27W025UEXS1G0","3S829FDFT2NBOHQMM1CIOU0HZYXDXL","","","<img src=""img/flower9.png"" style=""width:200px;border:14px solid red;"">","null","","","","","",""
"631.1999999992549","","image-keyboard-response","367","276479","0.0-367.0","3DH6GAKTYZB5D7JMAHSJNJMHTYGYZZ","A27W025UEXS1G0","3S829FDFT2NBOHQMM1CIOU0HZYXDXL","","","img/flower9.png","74","631.6999999992549","1","1","3","0.8,0.8,0.2,0.2,0.8,0.8,0.8,0.2,0.8",""
"null","","html-keyboard-response","368","276786","0.0-368.0","3DH6GAKTYZB5D7JMAHSJNJMHTYGYZZ","A27W025UEXS1G0","3S829FDFT2NBOHQMM1CIOU0HZYXDXL","","","<img src=""img/flower9.png"" style=""width:200px; border:14px solid green;"">","null","","","","","",""
"916.6000000014901","","image-keyboard-response","369","277703","0.0-369.0","3DH6GAKTYZB5D7JMAHSJNJMHTYGYZZ","A27W025UEXS1G0","3S829FDFT2NBOHQMM1CIOU0HZYXDXL","","","img/flower4.png","74","917.1999999992549","1","1","1","0.8,0.8,0.2,0.2,0.8,0.8,0.8,0.2,0.8",""
"null","","html-keyboard-response","370","278010","0.0-370.0","3DH6GAKTYZB5D7JMAHSJNJMHTYGYZZ","A27W025UEXS1G0","3S829FDFT2NBOHQMM1CIOU0HZYXDXL","","","<img src=""img/flower4.png"" style=""width:200px; border:14px solid green;"">","null","","","","","",""
"692.3999999985099","","image-keyboard-response","371","278703","0.0-371.0","3DH6GAKTYZB5D7JMAHSJNJMHTYGYZZ","A27W025UEXS1G0","3S829FDFT2NBOHQMM1CIOU0HZYXDXL","","","img/flower9.png","75","692.9000000022352","2","1","3","0.8,0.8,0.2,0.2,0.8,0.8,0.8,0.2,0.8",""
"null","","html-keyboard-response","372","279018","0.0-372.0","3DH6GAKTYZB5D7JMAHSJNJMHTYGYZZ","A27W025UEXS1G0","3S829FDFT2NBOHQMM1CIOU0HZYXDXL","","","<img src=""img/flower9.png"" style=""width:200px; border:14px solid green;"">","null","","","","","",""
"812.8000000007451","","image-keyboard-response","373","279831","0.0-373.0","3DH6GAKTYZB5D7JMAHSJNJMHTYGYZZ","A27W025UEXS1G0","3S829FDFT2NBOHQMM1CIOU0HZYXDXL","","","img/flower5.png","75","813.3000000007451","2","1","2","0.8,0.8,0.2,0.2,0.8,0.8,0.8,0.2,0.8",""
"null","","html-keyboard-response","374","280134","0.0-374.0","3DH6GAKTYZB5D7JMAHSJNJMHTYGYZZ","A27W025UEXS1G0","3S829FDFT2NBOHQMM1CIOU0HZYXDXL","","","<img src=""img/flower5.png"" style=""width:200px; border:14px solid green;"">","null","","","","","",""
"529.5","","image-keyboard-response","375","280664","0.0-375.0","3DH6GAKTYZB5D7JMAHSJNJMHTYGYZZ","A27W025UEXS1G0","3S829FDFT2NBOHQMM1CIOU0HZYXDXL","","","img/flower5.png","75","530","2","0","2","0.8,0.8,0.2,0.2,0.8,0.8,0.8,0.2,0.8",""
"null","","html-keyboard-response","376","280971","0.0-376.0","3DH6GAKTYZB5D7JMAHSJNJMHTYGYZZ","A27W025UEXS1G0","3S829FDFT2NBOHQMM1CIOU0HZYXDXL","","","<img src=""img/flower5.png"" style=""width:200px;border:14px solid red;"">","null","","","","","",""
"507.5","","image-keyboard-response","377","281479","0.0-377.0","3DH6GAKTYZB5D7JMAHSJNJMHTYGYZZ","A27W025UEXS1G0","3S829FDFT2NBOHQMM1CIOU0HZYXDXL","","","img/flower5.png","75","508.0999999977648","2","1","2","0.8,0.8,0.2,0.2,0.8,0.8,0.8,0.2,0.8",""
"null","","html-keyboard-response","378","281792","0.0-378.0","3DH6GAKTYZB5D7JMAHSJNJMHTYGYZZ","A27W025UEXS1G0","3S829FDFT2NBOHQMM1CIOU0HZYXDXL","","","<img src=""img/flower5.png"" style=""width:200px; border:14px solid green;"">","null","","","","","",""
"646.3000000007451","","image-keyboard-response","379","282439","0.0-379.0","3DH6GAKTYZB5D7JMAHSJNJMHTYGYZZ","A27W025UEXS1G0","3S829FDFT2NBOHQMM1CIOU0HZYXDXL","","","img/flower4.png","74","646.8000000007451","1","1","1","0.8,0.8,0.2,0.2,0.8,0.8,0.8,0.2,0.8",""
"null","","html-keyboard-response","380","282753","0.0-380.0","3DH6GAKTYZB5D7JMAHSJNJMHTYGYZZ","A27W025UEXS1G0","3S829FDFT2NBOHQMM1CIOU0HZYXDXL","","","<img src=""img/flower4.png"" style=""width:200px; border:14px solid green;"">","null","","","","","",""
"461.30000000074506","","image-keyboard-response","381","283215","0.0-381.0","3DH6GAKTYZB5D7JMAHSJNJMHTYGYZZ","A27W025UEXS1G0","3S829FDFT2NBOHQMM1CIOU0HZYXDXL","","","img/flower4.png","74","461.6000000014901","1","0","1","0.8,0.8,0.2,0.2,0.8,0.8,0.8,0.2,0.8",""
"null","","html-keyboard-response","382","283528","0.0-382.0","3DH6GAKTYZB5D7JMAHSJNJMHTYGYZZ","A27W025UEXS1G0","3S829FDFT2NBOHQMM1CIOU0HZYXDXL","","","<img src=""img/flower4.png"" style=""width:200px;border:14px solid red;"">","null","","","","","",""
"359.1000000014901","","image-keyboard-response","383","283888","0.0-383.0","3DH6GAKTYZB5D7JMAHSJNJMHTYGYZZ","A27W025UEXS1G0","3S829FDFT2NBOHQMM1CIOU0HZYXDXL","","","img/flower4.png","74","359.5","1","0","1","0.8,0.8,0.2,0.2,0.8,0.8,0.8,0.2,0.8",""
"null","","html-keyboard-response","384","284195","0.0-384.0","3DH6GAKTYZB5D7JMAHSJNJMHTYGYZZ","A27W025UEXS1G0","3S829FDFT2NBOHQMM1CIOU0HZYXDXL","","","<img src=""img/flower4.png"" style=""width:200px;border:14px solid red;"">","null","","","","","",""
"331.6000000014901","","image-keyboard-response","385","284527","0.0-385.0","3DH6GAKTYZB5D7JMAHSJNJMHTYGYZZ","A27W025UEXS1G0","3S829FDFT2NBOHQMM1CIOU0HZYXDXL","","","img/flower4.png","74","331.8999999985099","1","1","1","0.8,0.8,0.2,0.2,0.8,0.8,0.8,0.2,0.8",""
"null","","html-keyboard-response","386","284830","0.0-386.0","3DH6GAKTYZB5D7JMAHSJNJMHTYGYZZ","A27W025UEXS1G0","3S829FDFT2NBOHQMM1CIOU0HZYXDXL","","","<img src=""img/flower4.png"" style=""width:200px; border:14px solid green;"">","null","","","","","",""
"440.1000000014901","","image-keyboard-response","387","285271","0.0-387.0","3DH6GAKTYZB5D7JMAHSJNJMHTYGYZZ","A27W025UEXS1G0","3S829FDFT2NBOHQMM1CIOU0HZYXDXL","","","img/flower4.png","74","440.79999999701977","1","1","1","0.8,0.8,0.2,0.2,0.8,0.8,0.8,0.2,0.8",""
"null","","html-keyboard-response","388","285574","0.0-388.0","3DH6GAKTYZB5D7JMAHSJNJMHTYGYZZ","A27W025UEXS1G0","3S829FDFT2NBOHQMM1CIOU0HZYXDXL","","","<img src=""img/flower4.png"" style=""width:200px; border:14px solid green;"">","null","","","","","",""
"343.69999999925494","","image-keyboard-response","389","285919","0.0-389.0","3DH6GAKTYZB5D7JMAHSJNJMHTYGYZZ","A27W025UEXS1G0","3S829FDFT2NBOHQMM1CIOU0HZYXDXL","","","img/flower4.png","74","344.19999999925494","1","1","1","0.8,0.8,0.2,0.2,0.8,0.8,0.8,0.2,0.8",""
"null","","html-keyboard-response","390","286225","0.0-390.0","3DH6GAKTYZB5D7JMAHSJNJMHTYGYZZ","A27W025UEXS1G0","3S829FDFT2NBOHQMM1CIOU0HZYXDXL","","","<img src=""img/flower4.png"" style=""width:200px; border:14px solid green;"">","null","","","","","",""
"604.9000000022352","","image-keyboard-response","391","286831","0.0-391.0","3DH6GAKTYZB5D7JMAHSJNJMHTYGYZZ","A27W025UEXS1G0","3S829FDFT2NBOHQMM1CIOU0HZYXDXL","","","img/flower5.png","75","605.5","2","1","2","0.8,0.8,0.2,0.2,0.8,0.8,0.8,0.2,0.8",""
"null","","html-keyboard-response","392","287140","0.0-392.0","3DH6GAKTYZB5D7JMAHSJNJMHTYGYZZ","A27W025UEXS1G0","3S829FDFT2NBOHQMM1CIOU0HZYXDXL","","","<img src=""img/flower5.png"" style=""width:200px; border:14px solid green;"">","null","","","","","",""
"394.69999999925494","","image-keyboard-response","393","287535","0.0-393.0","3DH6GAKTYZB5D7JMAHSJNJMHTYGYZZ","A27W025UEXS1G0","3S829FDFT2NBOHQMM1CIOU0HZYXDXL","","","img/flower5.png","75","395.19999999925494","2","1","2","0.8,0.8,0.2,0.2,0.8,0.8,0.8,0.2,0.8",""
"null","","html-keyboard-response","394","287837","0.0-394.0","3DH6GAKTYZB5D7JMAHSJNJMHTYGYZZ","A27W025UEXS1G0","3S829FDFT2NBOHQMM1CIOU0HZYXDXL","","","<img src=""img/flower5.png"" style=""width:200px; border:14px solid green;"">","null","","","","","",""
"641.2999999970198","","image-keyboard-response","395","288479","0.0-395.0","3DH6GAKTYZB5D7JMAHSJNJMHTYGYZZ","A27W025UEXS1G0","3S829FDFT2NBOHQMM1CIOU0HZYXDXL","","","img/flower4.png","74","641.6999999992549","1","1","1","0.8,0.8,0.2,0.2,0.8,0.8,0.8,0.2,0.8",""
"null","","html-keyboard-response","396","288783","0.0-396.0","3DH6GAKTYZB5D7JMAHSJNJMHTYGYZZ","A27W025UEXS1G0","3S829FDFT2NBOHQMM1CIOU0HZYXDXL","","","<img src=""img/flower4.png"" style=""width:200px; border:14px solid green;"">","null","","","","","",""
"399.5","","image-keyboard-response","397","289183","0.0-397.0","3DH6GAKTYZB5D7JMAHSJNJMHTYGYZZ","A27W025UEXS1G0","3S829FDFT2NBOHQMM1CIOU0HZYXDXL","","","img/flower9.png","76","400","3","1","3","0.8,0.8,0.2,0.2,0.8,0.8,0.8,0.2,0.8",""
"null","","html-keyboard-response","398","289496","0.0-398.0","3DH6GAKTYZB5D7JMAHSJNJMHTYGYZZ","A27W025UEXS1G0","3S829FDFT2NBOHQMM1CIOU0HZYXDXL","","","<img src=""img/flower9.png"" style=""width:200px; border:14px solid green;"">","null","","","","","",""
"398.80000000074506","","image-keyboard-response","399","289895","0.0-399.0","3DH6GAKTYZB5D7JMAHSJNJMHTYGYZZ","A27W025UEXS1G0","3S829FDFT2NBOHQMM1CIOU0HZYXDXL","","","img/flower9.png","76","399.0999999977648","3","1","3","0.8,0.8,0.2,0.2,0.8,0.8,0.8,0.2,0.8",""
"null","","html-keyboard-response","400","290209","0.0-400.0","3DH6GAKTYZB5D7JMAHSJNJMHTYGYZZ","A27W025UEXS1G0","3S829FDFT2NBOHQMM1CIOU0HZYXDXL","","","<img src=""img/flower9.png"" style=""width:200px; border:14px solid green;"">","null","","","","","",""
