"success","trial_type","trial_index","time_elapsed","internal_node_id","assignmentID","mturkID","hitID","view_history","rt","stimulus","key_press","reactionTime","a","r","s","cond","reward_cond","reward_cond_actual","reward_matrix_idx","responses"
"true","fullscreen","0","3763","0.0-0.0","3X3OR7WPZ0M6TCB0IC3GGRNHPU2L8U","A2APG8MSLJ6G2K","3THR0FZ95PF7SK0MYRNAOUHTWDJOLG","","","","","","","","","","","","",""
"","instructions","1","32977","0.0-1.0","3X3OR7WPZ0M6TCB0IC3GGRNHPU2L8U","A2APG8MSLJ6G2K","3THR0FZ95PF7SK0MYRNAOUHTWDJOLG","[{""page_index"":0,""viewing_time"":5194.800000190735},{""page_index"":1,""viewing_time"":2449.7999999523163},{""page_index"":2,""viewing_time"":1160.5999999046326},{""page_index"":3,""viewing_time"":1460.7000000476837},{""page_index"":4,""viewing_time"":7990.200000047684},{""page_index"":5,""viewing_time"":5260.5},{""page_index"":6,""viewing_time"":4162.5},{""page_index"":7,""viewing_time"":1533.5999999046326}]","29212.900000095367","","","","","","","","","","",""
"","image-keyboard-response","2","33645","0.0-2.0","3X3OR7WPZ0M6TCB0IC3GGRNHPU2L8U","A2APG8MSLJ6G2K","3THR0FZ95PF7SK0MYRNAOUHTWDJOLG","","666.8999998569489","img/flower5.png","74","667.7999999523163","1","0","3","2","1,0,0,1,1,0,1,0,1","0,0,1,1,0,1,0,1,1","2",""
"","html-keyboard-response","3","33947","0.0-3.0","3X3OR7WPZ0M6TCB0IC3GGRNHPU2L8U","A2APG8MSLJ6G2K","3THR0FZ95PF7SK0MYRNAOUHTWDJOLG","","null","<img src=""img/flower5.png"" style=""width:200px;border:14px solid red;"">","null","","","","","","","","",""
"","image-keyboard-response","4","34733","0.0-4.0","3X3OR7WPZ0M6TCB0IC3GGRNHPU2L8U","A2APG8MSLJ6G2K","3THR0FZ95PF7SK0MYRNAOUHTWDJOLG","","784.2000000476837","img/flower3.png","75","784.8999998569489","2","0","1","2","1,0,0,1,1,0,1,0,1","0,0,1,1,0,1,0,1,1","2",""
"","html-keyboard-response","5","35034","0.0-5.0","3X3OR7WPZ0M6TCB0IC3GGRNHPU2L8U","A2APG8MSLJ6G2K","3THR0FZ95PF7SK0MYRNAOUHTWDJOLG","","null","<img src=""img/flower3.png"" style=""width:200px;border:14px solid red;"">","null","","","","","","","","",""
"","image-keyboard-response","6","35532","0.0-6.0","3X3OR7WPZ0M6TCB0IC3GGRNHPU2L8U","A2APG8MSLJ6G2K","3THR0FZ95PF7SK0MYRNAOUHTWDJOLG","","496.90000009536743","img/flower5.png","75","497.40000009536743","2","1","3","2","1,0,0,1,1,0,1,0,1","0,0,1,1,0,1,0,1,1","2",""
"","html-keyboard-response","7","35834","0.0-7.0","3X3OR7WPZ0M6TCB0IC3GGRNHPU2L8U","A2APG8MSLJ6G2K","3THR0FZ95PF7SK0MYRNAOUHTWDJOLG","","null","<img src=""img/flower5.png"" style=""width:200px; border:14px solid green;"">","null","","","","","","","","",""
"","image-keyboard-response","8","36325","0.0-8.0","3X3OR7WPZ0M6TCB0IC3GGRNHPU2L8U","A2APG8MSLJ6G2K","3THR0FZ95PF7SK0MYRNAOUHTWDJOLG","","490.10000014305115","img/flower3.png","76","490.7999999523163","3","1","1","2","1,0,0,1,1,0,1,0,1","0,0,1,1,0,1,0,1,1","2",""
"","html-keyboard-response","9","36626","0.0-9.0","3X3OR7WPZ0M6TCB0IC3GGRNHPU2L8U","A2APG8MSLJ6G2K","3THR0FZ95PF7SK0MYRNAOUHTWDJOLG","","null","<img src=""img/flower3.png"" style=""width:200px; border:14px solid green;"">","null","","","","","","","","",""
"","image-keyboard-response","10","37061","0.0-10.0","3X3OR7WPZ0M6TCB0IC3GGRNHPU2L8U","A2APG8MSLJ6G2K","3THR0FZ95PF7SK0MYRNAOUHTWDJOLG","","433.89999985694885","img/flower5.png","76","434.59999990463257","3","1","3","2","1,0,0,1,1,0,1,0,1","0,0,1,1,0,1,0,1,1","2",""
"","html-keyboard-response","11","37362","0.0-11.0","3X3OR7WPZ0M6TCB0IC3GGRNHPU2L8U","A2APG8MSLJ6G2K","3THR0FZ95PF7SK0MYRNAOUHTWDJOLG","","null","<img src=""img/flower5.png"" style=""width:200px; border:14px solid green;"">","null","","","","","","","","",""
"","image-keyboard-response","12","38037","0.0-12.0","3X3OR7WPZ0M6TCB0IC3GGRNHPU2L8U","A2APG8MSLJ6G2K","3THR0FZ95PF7SK0MYRNAOUHTWDJOLG","","674","img/flower1.png","74","674.7000000476837","1","1","2","2","1,0,0,1,1,0,1,0,1","0,0,1,1,0,1,0,1,1","2",""
"","html-keyboard-response","13","38338","0.0-13.0","3X3OR7WPZ0M6TCB0IC3GGRNHPU2L8U","A2APG8MSLJ6G2K","3THR0FZ95PF7SK0MYRNAOUHTWDJOLG","","null","<img src=""img/flower1.png"" style=""width:200px; border:14px solid green;"">","null","","","","","","","","",""
"","image-keyboard-response","14","38788","0.0-14.0","3X3OR7WPZ0M6TCB0IC3GGRNHPU2L8U","A2APG8MSLJ6G2K","3THR0FZ95PF7SK0MYRNAOUHTWDJOLG","","449.09999990463257","img/flower1.png","74","449.7999999523163","1","1","2","2","1,0,0,1,1,0,1,0,1","0,0,1,1,0,1,0,1,1","2",""
"","html-keyboard-response","15","39090","0.0-15.0","3X3OR7WPZ0M6TCB0IC3GGRNHPU2L8U","A2APG8MSLJ6G2K","3THR0FZ95PF7SK0MYRNAOUHTWDJOLG","","null","<img src=""img/flower1.png"" style=""width:200px; border:14px solid green;"">","null","","","","","","","","",""
"","image-keyboard-response","16","39613","0.0-16.0","3X3OR7WPZ0M6TCB0IC3GGRNHPU2L8U","A2APG8MSLJ6G2K","3THR0FZ95PF7SK0MYRNAOUHTWDJOLG","","521.8999998569489","img/flower1.png","74","522.5","1","1","2","2","1,0,0,1,1,0,1,0,1","0,0,1,1,0,1,0,1,1","2",""
"","html-keyboard-response","17","39914","0.0-17.0","3X3OR7WPZ0M6TCB0IC3GGRNHPU2L8U","A2APG8MSLJ6G2K","3THR0FZ95PF7SK0MYRNAOUHTWDJOLG","","null","<img src=""img/flower1.png"" style=""width:200px; border:14px solid green;"">","null","","","","","","","","",""
"","image-keyboard-response","18","40333","0.0-18.0","3X3OR7WPZ0M6TCB0IC3GGRNHPU2L8U","A2APG8MSLJ6G2K","3THR0FZ95PF7SK0MYRNAOUHTWDJOLG","","418","img/flower1.png","74","418.59999990463257","1","1","2","2","1,0,0,1,1,0,1,0,1","0,0,1,1,0,1,0,1,1","2",""
"","html-keyboard-response","19","40634","0.0-19.0","3X3OR7WPZ0M6TCB0IC3GGRNHPU2L8U","A2APG8MSLJ6G2K","3THR0FZ95PF7SK0MYRNAOUHTWDJOLG","","null","<img src=""img/flower1.png"" style=""width:200px; border:14px solid green;"">","null","","","","","","","","",""
"","image-keyboard-response","20","41277","0.0-20.0","3X3OR7WPZ0M6TCB0IC3GGRNHPU2L8U","A2APG8MSLJ6G2K","3THR0FZ95PF7SK0MYRNAOUHTWDJOLG","","641.8999998569489","img/flower5.png","75","642.6000001430511","2","1","3","2","1,0,0,1,1,0,1,0,1","0,0,1,1,0,1,0,1,1","2",""
"","html-keyboard-response","21","41578","0.0-21.0","3X3OR7WPZ0M6TCB0IC3GGRNHPU2L8U","A2APG8MSLJ6G2K","3THR0FZ95PF7SK0MYRNAOUHTWDJOLG","","null","<img src=""img/flower5.png"" style=""width:200px; border:14px solid green;"">","null","","","","","","","","",""
"","image-keyboard-response","22","41956","0.0-22.0","3X3OR7WPZ0M6TCB0IC3GGRNHPU2L8U","A2APG8MSLJ6G2K","3THR0FZ95PF7SK0MYRNAOUHTWDJOLG","","377.2000000476837","img/flower1.png","75","378","2","0","2","2","1,0,0,1,1,0,1,0,1","0,0,1,1,0,1,0,1,1","2",""
"","html-keyboard-response","23","42258","0.0-23.0","3X3OR7WPZ0M6TCB0IC3GGRNHPU2L8U","A2APG8MSLJ6G2K","3THR0FZ95PF7SK0MYRNAOUHTWDJOLG","","null","<img src=""img/flower1.png"" style=""width:200px;border:14px solid red;"">","null","","","","","","","","",""
"","image-keyboard-response","24","42813","0.0-24.0","3X3OR7WPZ0M6TCB0IC3GGRNHPU2L8U","A2APG8MSLJ6G2K","3THR0FZ95PF7SK0MYRNAOUHTWDJOLG","","554.1000001430511","img/flower5.png","74","554.6999998092651","1","0","3","2","1,0,0,1,1,0,1,0,1","0,0,1,1,0,1,0,1,1","2",""
"","html-keyboard-response","25","43114","0.0-25.0","3X3OR7WPZ0M6TCB0IC3GGRNHPU2L8U","A2APG8MSLJ6G2K","3THR0FZ95PF7SK0MYRNAOUHTWDJOLG","","null","<img src=""img/flower5.png"" style=""width:200px;border:14px solid red;"">","null","","","","","","","","",""
"","image-keyboard-response","26","43452","0.0-26.0","3X3OR7WPZ0M6TCB0IC3GGRNHPU2L8U","A2APG8MSLJ6G2K","3THR0FZ95PF7SK0MYRNAOUHTWDJOLG","","337.89999985694885","img/flower3.png","76","338.5","3","1","1","2","1,0,0,1,1,0,1,0,1","0,0,1,1,0,1,0,1,1","2",""
"","html-keyboard-response","27","43755","0.0-27.0","3X3OR7WPZ0M6TCB0IC3GGRNHPU2L8U","A2APG8MSLJ6G2K","3THR0FZ95PF7SK0MYRNAOUHTWDJOLG","","null","<img src=""img/flower3.png"" style=""width:200px; border:14px solid green;"">","null","","","","","","","","",""
"","image-keyboard-response","28","44077","0.0-28.0","3X3OR7WPZ0M6TCB0IC3GGRNHPU2L8U","A2APG8MSLJ6G2K","3THR0FZ95PF7SK0MYRNAOUHTWDJOLG","","321","img/flower3.png","76","321.7000000476837","3","1","1","2","1,0,0,1,1,0,1,0,1","0,0,1,1,0,1,0,1,1","2",""
"","html-keyboard-response","29","44378","0.0-29.0","3X3OR7WPZ0M6TCB0IC3GGRNHPU2L8U","A2APG8MSLJ6G2K","3THR0FZ95PF7SK0MYRNAOUHTWDJOLG","","null","<img src=""img/flower3.png"" style=""width:200px; border:14px solid green;"">","null","","","","","","","","",""
"","image-keyboard-response","30","45132","0.0-30.0","3X3OR7WPZ0M6TCB0IC3GGRNHPU2L8U","A2APG8MSLJ6G2K","3THR0FZ95PF7SK0MYRNAOUHTWDJOLG","","753.9000000953674","img/flower5.png","76","754.6000001430511","3","1","3","2","1,0,0,1,1,0,1,0,1","0,0,1,1,0,1,0,1,1","2",""
"","html-keyboard-response","31","45433","0.0-31.0","3X3OR7WPZ0M6TCB0IC3GGRNHPU2L8U","A2APG8MSLJ6G2K","3THR0FZ95PF7SK0MYRNAOUHTWDJOLG","","null","<img src=""img/flower5.png"" style=""width:200px; border:14px solid green;"">","null","","","","","","","","",""
"","image-keyboard-response","32","45917","0.0-32.0","3X3OR7WPZ0M6TCB0IC3GGRNHPU2L8U","A2APG8MSLJ6G2K","3THR0FZ95PF7SK0MYRNAOUHTWDJOLG","","482.69999980926514","img/flower5.png","76","483.2999999523163","3","1","3","2","1,0,0,1,1,0,1,0,1","0,0,1,1,0,1,0,1,1","2",""
"","html-keyboard-response","33","46218","0.0-33.0","3X3OR7WPZ0M6TCB0IC3GGRNHPU2L8U","A2APG8MSLJ6G2K","3THR0FZ95PF7SK0MYRNAOUHTWDJOLG","","null","<img src=""img/flower5.png"" style=""width:200px; border:14px solid green;"">","null","","","","","","","","",""
"","image-keyboard-response","34","46939","0.0-34.0","3X3OR7WPZ0M6TCB0IC3GGRNHPU2L8U","A2APG8MSLJ6G2K","3THR0FZ95PF7SK0MYRNAOUHTWDJOLG","","721.3000001907349","img/flower3.png","75","721.7999999523163","2","0","1","2","1,0,0,1,1,0,1,0,1","0,0,1,1,0,1,0,1,1","2",""
"","html-keyboard-response","35","47241","0.0-35.0","3X3OR7WPZ0M6TCB0IC3GGRNHPU2L8U","A2APG8MSLJ6G2K","3THR0FZ95PF7SK0MYRNAOUHTWDJOLG","","null","<img src=""img/flower3.png"" style=""width:200px;border:14px solid red;"">","null","","","","","","","","",""
"","image-keyboard-response","36","47541","0.0-36.0","3X3OR7WPZ0M6TCB0IC3GGRNHPU2L8U","A2APG8MSLJ6G2K","3THR0FZ95PF7SK0MYRNAOUHTWDJOLG","","299.30000019073486","img/flower3.png","74","299.7999999523163","1","0","1","2","1,0,0,1,1,0,1,0,1","0,0,1,1,0,1,0,1,1","2",""
"","html-keyboard-response","37","47842","0.0-37.0","3X3OR7WPZ0M6TCB0IC3GGRNHPU2L8U","A2APG8MSLJ6G2K","3THR0FZ95PF7SK0MYRNAOUHTWDJOLG","","null","<img src=""img/flower3.png"" style=""width:200px;border:14px solid red;"">","null","","","","","","","","",""
"","image-keyboard-response","38","48524","0.0-38.0","3X3OR7WPZ0M6TCB0IC3GGRNHPU2L8U","A2APG8MSLJ6G2K","3THR0FZ95PF7SK0MYRNAOUHTWDJOLG","","681.5","img/flower1.png","76","682.1000001430511","3","1","2","2","1,0,0,1,1,0,1,0,1","0,0,1,1,0,1,0,1,1","2",""
"","html-keyboard-response","39","48826","0.0-39.0","3X3OR7WPZ0M6TCB0IC3GGRNHPU2L8U","A2APG8MSLJ6G2K","3THR0FZ95PF7SK0MYRNAOUHTWDJOLG","","null","<img src=""img/flower1.png"" style=""width:200px; border:14px solid green;"">","null","","","","","","","","",""
"","image-keyboard-response","40","49293","0.0-40.0","3X3OR7WPZ0M6TCB0IC3GGRNHPU2L8U","A2APG8MSLJ6G2K","3THR0FZ95PF7SK0MYRNAOUHTWDJOLG","","466","img/flower3.png","76","466.5","3","1","1","2","1,0,0,1,1,0,1,0,1","0,0,1,1,0,1,0,1,1","2",""
"","html-keyboard-response","41","49594","0.0-41.0","3X3OR7WPZ0M6TCB0IC3GGRNHPU2L8U","A2APG8MSLJ6G2K","3THR0FZ95PF7SK0MYRNAOUHTWDJOLG","","null","<img src=""img/flower3.png"" style=""width:200px; border:14px solid green;"">","null","","","","","","","","",""
"","image-keyboard-response","42","49997","0.0-42.0","3X3OR7WPZ0M6TCB0IC3GGRNHPU2L8U","A2APG8MSLJ6G2K","3THR0FZ95PF7SK0MYRNAOUHTWDJOLG","","402.30000019073486","img/flower1.png","74","402.89999985694885","1","1","2","2","1,0,0,1,1,0,1,0,1","0,0,1,1,0,1,0,1,1","2",""
"","html-keyboard-response","43","50297","0.0-43.0","3X3OR7WPZ0M6TCB0IC3GGRNHPU2L8U","A2APG8MSLJ6G2K","3THR0FZ95PF7SK0MYRNAOUHTWDJOLG","","null","<img src=""img/flower1.png"" style=""width:200px; border:14px solid green;"">","null","","","","","","","","",""
"","image-keyboard-response","44","50717","0.0-44.0","3X3OR7WPZ0M6TCB0IC3GGRNHPU2L8U","A2APG8MSLJ6G2K","3THR0FZ95PF7SK0MYRNAOUHTWDJOLG","","418.40000009536743","img/flower3.png","74","419.10000014305115","1","0","1","2","1,0,0,1,1,0,1,0,1","0,0,1,1,0,1,0,1,1","2",""
"","html-keyboard-response","45","51018","0.0-45.0","3X3OR7WPZ0M6TCB0IC3GGRNHPU2L8U","A2APG8MSLJ6G2K","3THR0FZ95PF7SK0MYRNAOUHTWDJOLG","","null","<img src=""img/flower3.png"" style=""width:200px;border:14px solid red;"">","null","","","","","","","","",""
"","image-keyboard-response","46","51837","0.0-46.0","3X3OR7WPZ0M6TCB0IC3GGRNHPU2L8U","A2APG8MSLJ6G2K","3THR0FZ95PF7SK0MYRNAOUHTWDJOLG","","818.0999999046326","img/flower3.png","75","818.7999999523163","2","0","1","2","1,0,0,1,1,0,1,0,1","0,0,1,1,0,1,0,1,1","2",""
"","html-keyboard-response","47","52138","0.0-47.0","3X3OR7WPZ0M6TCB0IC3GGRNHPU2L8U","A2APG8MSLJ6G2K","3THR0FZ95PF7SK0MYRNAOUHTWDJOLG","","null","<img src=""img/flower3.png"" style=""width:200px;border:14px solid red;"">","null","","","","","","","","",""
"","image-keyboard-response","48","52613","0.0-48.0","3X3OR7WPZ0M6TCB0IC3GGRNHPU2L8U","A2APG8MSLJ6G2K","3THR0FZ95PF7SK0MYRNAOUHTWDJOLG","","473.7999999523163","img/flower3.png","76","474.5","3","1","1","2","1,0,0,1,1,0,1,0,1","0,0,1,1,0,1,0,1,1","2",""
"","html-keyboard-response","49","52914","0.0-49.0","3X3OR7WPZ0M6TCB0IC3GGRNHPU2L8U","A2APG8MSLJ6G2K","3THR0FZ95PF7SK0MYRNAOUHTWDJOLG","","null","<img src=""img/flower3.png"" style=""width:200px; border:14px solid green;"">","null","","","","","","","","",""
"","image-keyboard-response","50","53252","0.0-50.0","3X3OR7WPZ0M6TCB0IC3GGRNHPU2L8U","A2APG8MSLJ6G2K","3THR0FZ95PF7SK0MYRNAOUHTWDJOLG","","337.7999999523163","img/flower3.png","76","338.2999999523163","3","1","1","2","1,0,0,1,1,0,1,0,1","0,0,1,1,0,1,0,1,1","2",""
"","html-keyboard-response","51","53554","0.0-51.0","3X3OR7WPZ0M6TCB0IC3GGRNHPU2L8U","A2APG8MSLJ6G2K","3THR0FZ95PF7SK0MYRNAOUHTWDJOLG","","null","<img src=""img/flower3.png"" style=""width:200px; border:14px solid green;"">","null","","","","","","","","",""
"","image-keyboard-response","52","54149","0.0-52.0","3X3OR7WPZ0M6TCB0IC3GGRNHPU2L8U","A2APG8MSLJ6G2K","3THR0FZ95PF7SK0MYRNAOUHTWDJOLG","","594","img/flower1.png","76","594.6000001430511","3","1","2","2","1,0,0,1,1,0,1,0,1","0,0,1,1,0,1,0,1,1","2",""
"","html-keyboard-response","53","54450","0.0-53.0","3X3OR7WPZ0M6TCB0IC3GGRNHPU2L8U","A2APG8MSLJ6G2K","3THR0FZ95PF7SK0MYRNAOUHTWDJOLG","","null","<img src=""img/flower1.png"" style=""width:200px; border:14px solid green;"">","null","","","","","","","","",""
"","image-keyboard-response","54","55356","0.0-54.0","3X3OR7WPZ0M6TCB0IC3GGRNHPU2L8U","A2APG8MSLJ6G2K","3THR0FZ95PF7SK0MYRNAOUHTWDJOLG","","905.3999998569489","img/flower5.png","75","905.9000000953674","2","1","3","2","1,0,0,1,1,0,1,0,1","0,0,1,1,0,1,0,1,1","2",""
"","html-keyboard-response","55","55658","0.0-55.0","3X3OR7WPZ0M6TCB0IC3GGRNHPU2L8U","A2APG8MSLJ6G2K","3THR0FZ95PF7SK0MYRNAOUHTWDJOLG","","null","<img src=""img/flower5.png"" style=""width:200px; border:14px solid green;"">","null","","","","","","","","",""
"","image-keyboard-response","56","56148","0.0-56.0","3X3OR7WPZ0M6TCB0IC3GGRNHPU2L8U","A2APG8MSLJ6G2K","3THR0FZ95PF7SK0MYRNAOUHTWDJOLG","","489.89999985694885","img/flower5.png","75","490.5","2","1","3","2","1,0,0,1,1,0,1,0,1","0,0,1,1,0,1,0,1,1","2",""
"","html-keyboard-response","57","56450","0.0-57.0","3X3OR7WPZ0M6TCB0IC3GGRNHPU2L8U","A2APG8MSLJ6G2K","3THR0FZ95PF7SK0MYRNAOUHTWDJOLG","","null","<img src=""img/flower5.png"" style=""width:200px; border:14px solid green;"">","null","","","","","","","","",""
"","image-keyboard-response","58","57140","0.0-58.0","3X3OR7WPZ0M6TCB0IC3GGRNHPU2L8U","A2APG8MSLJ6G2K","3THR0FZ95PF7SK0MYRNAOUHTWDJOLG","","689.1000001430511","img/flower3.png","74","689.8000001907349","1","0","1","2","1,0,0,1,1,0,1,0,1","0,0,1,1,0,1,0,1,1","2",""
"","html-keyboard-response","59","57441","0.0-59.0","3X3OR7WPZ0M6TCB0IC3GGRNHPU2L8U","A2APG8MSLJ6G2K","3THR0FZ95PF7SK0MYRNAOUHTWDJOLG","","null","<img src=""img/flower3.png"" style=""width:200px;border:14px solid red;"">","null","","","","","","","","",""
"","image-keyboard-response","60","58260","0.0-60.0","3X3OR7WPZ0M6TCB0IC3GGRNHPU2L8U","A2APG8MSLJ6G2K","3THR0FZ95PF7SK0MYRNAOUHTWDJOLG","","818.5","img/flower3.png","76","819","3","1","1","2","1,0,0,1,1,0,1,0,1","0,0,1,1,0,1,0,1,1","2",""
"","html-keyboard-response","61","58561","0.0-61.0","3X3OR7WPZ0M6TCB0IC3GGRNHPU2L8U","A2APG8MSLJ6G2K","3THR0FZ95PF7SK0MYRNAOUHTWDJOLG","","null","<img src=""img/flower3.png"" style=""width:200px; border:14px solid green;"">","null","","","","","","","","",""
"","image-keyboard-response","62","58924","0.0-62.0","3X3OR7WPZ0M6TCB0IC3GGRNHPU2L8U","A2APG8MSLJ6G2K","3THR0FZ95PF7SK0MYRNAOUHTWDJOLG","","362.2999999523163","img/flower3.png","76","362.7999999523163","3","1","1","2","1,0,0,1,1,0,1,0,1","0,0,1,1,0,1,0,1,1","2",""
"","html-keyboard-response","63","59226","0.0-63.0","3X3OR7WPZ0M6TCB0IC3GGRNHPU2L8U","A2APG8MSLJ6G2K","3THR0FZ95PF7SK0MYRNAOUHTWDJOLG","","null","<img src=""img/flower3.png"" style=""width:200px; border:14px solid green;"">","null","","","","","","","","",""
"","image-keyboard-response","64","59805","0.0-64.0","3X3OR7WPZ0M6TCB0IC3GGRNHPU2L8U","A2APG8MSLJ6G2K","3THR0FZ95PF7SK0MYRNAOUHTWDJOLG","","577.7000000476837","img/flower5.png","76","578.2000000476837","3","1","3","2","1,0,0,1,1,0,1,0,1","0,0,1,1,0,1,0,1,1","2",""
"","html-keyboard-response","65","60106","0.0-65.0","3X3OR7WPZ0M6TCB0IC3GGRNHPU2L8U","A2APG8MSLJ6G2K","3THR0FZ95PF7SK0MYRNAOUHTWDJOLG","","null","<img src=""img/flower5.png"" style=""width:200px; border:14px solid green;"">","null","","","","","","","","",""
"","image-keyboard-response","66","60509","0.0-66.0","3X3OR7WPZ0M6TCB0IC3GGRNHPU2L8U","A2APG8MSLJ6G2K","3THR0FZ95PF7SK0MYRNAOUHTWDJOLG","","402.10000014305115","img/flower1.png","76","402.69999980926514","3","1","2","2","1,0,0,1,1,0,1,0,1","0,0,1,1,0,1,0,1,1","2",""
"","html-keyboard-response","67","60811","0.0-67.0","3X3OR7WPZ0M6TCB0IC3GGRNHPU2L8U","A2APG8MSLJ6G2K","3THR0FZ95PF7SK0MYRNAOUHTWDJOLG","","null","<img src=""img/flower1.png"" style=""width:200px; border:14px solid green;"">","null","","","","","","","","",""
"","image-keyboard-response","68","61716","0.0-68.0","3X3OR7WPZ0M6TCB0IC3GGRNHPU2L8U","A2APG8MSLJ6G2K","3THR0FZ95PF7SK0MYRNAOUHTWDJOLG","","904.9000000953674","img/flower5.png","75","905.3999998569489","2","1","3","2","1,0,0,1,1,0,1,0,1","0,0,1,1,0,1,0,1,1","2",""
"","html-keyboard-response","69","62018","0.0-69.0","3X3OR7WPZ0M6TCB0IC3GGRNHPU2L8U","A2APG8MSLJ6G2K","3THR0FZ95PF7SK0MYRNAOUHTWDJOLG","","null","<img src=""img/flower5.png"" style=""width:200px; border:14px solid green;"">","null","","","","","","","","",""
"","image-keyboard-response","70","62557","0.0-70.0","3X3OR7WPZ0M6TCB0IC3GGRNHPU2L8U","A2APG8MSLJ6G2K","3THR0FZ95PF7SK0MYRNAOUHTWDJOLG","","538.4000000953674","img/flower1.png","75","539","2","0","2","2","1,0,0,1,1,0,1,0,1","0,0,1,1,0,1,0,1,1","2",""
"","html-keyboard-response","71","62858","0.0-71.0","3X3OR7WPZ0M6TCB0IC3GGRNHPU2L8U","A2APG8MSLJ6G2K","3THR0FZ95PF7SK0MYRNAOUHTWDJOLG","","null","<img src=""img/flower1.png"" style=""width:200px;border:14px solid red;"">","null","","","","","","","","",""
"","image-keyboard-response","72","63028","0.0-72.0","3X3OR7WPZ0M6TCB0IC3GGRNHPU2L8U","A2APG8MSLJ6G2K","3THR0FZ95PF7SK0MYRNAOUHTWDJOLG","","169.70000004768372","img/flower5.png","76","170.29999995231628","3","1","3","2","1,0,0,1,1,0,1,0,1","0,0,1,1,0,1,0,1,1","2",""
"","html-keyboard-response","73","63329","0.0-73.0","3X3OR7WPZ0M6TCB0IC3GGRNHPU2L8U","A2APG8MSLJ6G2K","3THR0FZ95PF7SK0MYRNAOUHTWDJOLG","","null","<img src=""img/flower5.png"" style=""width:200px; border:14px solid green;"">","null","","","","","","","","",""
"","image-keyboard-response","74","63661","0.0-74.0","3X3OR7WPZ0M6TCB0IC3GGRNHPU2L8U","A2APG8MSLJ6G2K","3THR0FZ95PF7SK0MYRNAOUHTWDJOLG","","330.7000000476837","img/flower5.png","76","331.2999999523163","3","1","3","2","1,0,0,1,1,0,1,0,1","0,0,1,1,0,1,0,1,1","2",""
"","html-keyboard-response","75","63961","0.0-75.0","3X3OR7WPZ0M6TCB0IC3GGRNHPU2L8U","A2APG8MSLJ6G2K","3THR0FZ95PF7SK0MYRNAOUHTWDJOLG","","null","<img src=""img/flower5.png"" style=""width:200px; border:14px solid green;"">","null","","","","","","","","",""
"","image-keyboard-response","76","64885","0.0-76.0","3X3OR7WPZ0M6TCB0IC3GGRNHPU2L8U","A2APG8MSLJ6G2K","3THR0FZ95PF7SK0MYRNAOUHTWDJOLG","","922.7999999523163","img/flower3.png","75","923.4000000953674","2","0","1","2","1,0,0,1,1,0,1,0,1","0,0,1,1,0,1,0,1,1","2",""
"","html-keyboard-response","77","65186","0.0-77.0","3X3OR7WPZ0M6TCB0IC3GGRNHPU2L8U","A2APG8MSLJ6G2K","3THR0FZ95PF7SK0MYRNAOUHTWDJOLG","","null","<img src=""img/flower3.png"" style=""width:200px;border:14px solid red;"">","null","","","","","","","","",""
"","image-keyboard-response","78","65244","0.0-78.0","3X3OR7WPZ0M6TCB0IC3GGRNHPU2L8U","A2APG8MSLJ6G2K","3THR0FZ95PF7SK0MYRNAOUHTWDJOLG","","57.39999985694885","img/flower5.png","76","57.90000009536743","3","1","3","2","1,0,0,1,1,0,1,0,1","0,0,1,1,0,1,0,1,1","2",""
"","html-keyboard-response","79","65546","0.0-79.0","3X3OR7WPZ0M6TCB0IC3GGRNHPU2L8U","A2APG8MSLJ6G2K","3THR0FZ95PF7SK0MYRNAOUHTWDJOLG","","null","<img src=""img/flower5.png"" style=""width:200px; border:14px solid green;"">","null","","","","","","","","",""
"","image-keyboard-response","80","65869","0.0-80.0","3X3OR7WPZ0M6TCB0IC3GGRNHPU2L8U","A2APG8MSLJ6G2K","3THR0FZ95PF7SK0MYRNAOUHTWDJOLG","","321.80000019073486","img/flower5.png","76","322.60000014305115","3","1","3","2","1,0,0,1,1,0,1,0,1","0,0,1,1,0,1,0,1,1","2",""
"","html-keyboard-response","81","66171","0.0-81.0","3X3OR7WPZ0M6TCB0IC3GGRNHPU2L8U","A2APG8MSLJ6G2K","3THR0FZ95PF7SK0MYRNAOUHTWDJOLG","","null","<img src=""img/flower5.png"" style=""width:200px; border:14px solid green;"">","null","","","","","","","","",""
"","image-keyboard-response","82","66652","0.0-82.0","3X3OR7WPZ0M6TCB0IC3GGRNHPU2L8U","A2APG8MSLJ6G2K","3THR0FZ95PF7SK0MYRNAOUHTWDJOLG","","481.09999990463257","img/flower1.png","76","481.60000014305115","3","1","2","2","1,0,0,1,1,0,1,0,1","0,0,1,1,0,1,0,1,1","2",""
"","html-keyboard-response","83","66953","0.0-83.0","3X3OR7WPZ0M6TCB0IC3GGRNHPU2L8U","A2APG8MSLJ6G2K","3THR0FZ95PF7SK0MYRNAOUHTWDJOLG","","null","<img src=""img/flower1.png"" style=""width:200px; border:14px solid green;"">","null","","","","","","","","",""
"","image-keyboard-response","84","67300","0.0-84.0","3X3OR7WPZ0M6TCB0IC3GGRNHPU2L8U","A2APG8MSLJ6G2K","3THR0FZ95PF7SK0MYRNAOUHTWDJOLG","","346.5","img/flower5.png","76","347.09999990463257","3","1","3","2","1,0,0,1,1,0,1,0,1","0,0,1,1,0,1,0,1,1","2",""
"","html-keyboard-response","85","67601","0.0-85.0","3X3OR7WPZ0M6TCB0IC3GGRNHPU2L8U","A2APG8MSLJ6G2K","3THR0FZ95PF7SK0MYRNAOUHTWDJOLG","","null","<img src=""img/flower5.png"" style=""width:200px; border:14px solid green;"">","null","","","","","","","","",""
"","image-keyboard-response","86","67932","0.0-86.0","3X3OR7WPZ0M6TCB0IC3GGRNHPU2L8U","A2APG8MSLJ6G2K","3THR0FZ95PF7SK0MYRNAOUHTWDJOLG","","330.39999985694885","img/flower1.png","76","330.90000009536743","3","1","2","2","1,0,0,1,1,0,1,0,1","0,0,1,1,0,1,0,1,1","2",""
"","html-keyboard-response","87","68233","0.0-87.0","3X3OR7WPZ0M6TCB0IC3GGRNHPU2L8U","A2APG8MSLJ6G2K","3THR0FZ95PF7SK0MYRNAOUHTWDJOLG","","null","<img src=""img/flower1.png"" style=""width:200px; border:14px solid green;"">","null","","","","","","","","",""
"","image-keyboard-response","88","68515","0.0-88.0","3X3OR7WPZ0M6TCB0IC3GGRNHPU2L8U","A2APG8MSLJ6G2K","3THR0FZ95PF7SK0MYRNAOUHTWDJOLG","","281.39999985694885","img/flower3.png","76","281.90000009536743","3","1","1","2","1,0,0,1,1,0,1,0,1","0,0,1,1,0,1,0,1,1","2",""
"","html-keyboard-response","89","68817","0.0-89.0","3X3OR7WPZ0M6TCB0IC3GGRNHPU2L8U","A2APG8MSLJ6G2K","3THR0FZ95PF7SK0MYRNAOUHTWDJOLG","","null","<img src=""img/flower3.png"" style=""width:200px; border:14px solid green;"">","null","","","","","","","","",""
"","image-keyboard-response","90","69547","0.0-90.0","3X3OR7WPZ0M6TCB0IC3GGRNHPU2L8U","A2APG8MSLJ6G2K","3THR0FZ95PF7SK0MYRNAOUHTWDJOLG","","729.3999998569489","img/flower3.png","76","730","3","1","1","2","1,0,0,1,1,0,1,0,1","0,0,1,1,0,1,0,1,1","2",""
"","html-keyboard-response","91","69848","0.0-91.0","3X3OR7WPZ0M6TCB0IC3GGRNHPU2L8U","A2APG8MSLJ6G2K","3THR0FZ95PF7SK0MYRNAOUHTWDJOLG","","null","<img src=""img/flower3.png"" style=""width:200px; border:14px solid green;"">","null","","","","","","","","",""
"","image-keyboard-response","92","70077","0.0-92.0","3X3OR7WPZ0M6TCB0IC3GGRNHPU2L8U","A2APG8MSLJ6G2K","3THR0FZ95PF7SK0MYRNAOUHTWDJOLG","","227.70000004768372","img/flower3.png","76","228.5","3","1","1","2","1,0,0,1,1,0,1,0,1","0,0,1,1,0,1,0,1,1","2",""
"","html-keyboard-response","93","70378","0.0-93.0","3X3OR7WPZ0M6TCB0IC3GGRNHPU2L8U","A2APG8MSLJ6G2K","3THR0FZ95PF7SK0MYRNAOUHTWDJOLG","","null","<img src=""img/flower3.png"" style=""width:200px; border:14px solid green;"">","null","","","","","","","","",""
"","image-keyboard-response","94","70860","0.0-94.0","3X3OR7WPZ0M6TCB0IC3GGRNHPU2L8U","A2APG8MSLJ6G2K","3THR0FZ95PF7SK0MYRNAOUHTWDJOLG","","481.2000000476837","img/flower1.png","76","481.7000000476837","3","1","2","2","1,0,0,1,1,0,1,0,1","0,0,1,1,0,1,0,1,1","2",""
"","html-keyboard-response","95","71162","0.0-95.0","3X3OR7WPZ0M6TCB0IC3GGRNHPU2L8U","A2APG8MSLJ6G2K","3THR0FZ95PF7SK0MYRNAOUHTWDJOLG","","null","<img src=""img/flower1.png"" style=""width:200px; border:14px solid green;"">","null","","","","","","","","",""
"","image-keyboard-response","96","71324","0.0-96.0","3X3OR7WPZ0M6TCB0IC3GGRNHPU2L8U","A2APG8MSLJ6G2K","3THR0FZ95PF7SK0MYRNAOUHTWDJOLG","","162","img/flower1.png","76","162.60000014305115","3","1","2","2","1,0,0,1,1,0,1,0,1","0,0,1,1,0,1,0,1,1","2",""
"","html-keyboard-response","97","71626","0.0-97.0","3X3OR7WPZ0M6TCB0IC3GGRNHPU2L8U","A2APG8MSLJ6G2K","3THR0FZ95PF7SK0MYRNAOUHTWDJOLG","","null","<img src=""img/flower1.png"" style=""width:200px; border:14px solid green;"">","null","","","","","","","","",""
"","image-keyboard-response","98","71765","0.0-98.0","3X3OR7WPZ0M6TCB0IC3GGRNHPU2L8U","A2APG8MSLJ6G2K","3THR0FZ95PF7SK0MYRNAOUHTWDJOLG","","138","img/flower1.png","76","138.70000004768372","3","1","2","2","1,0,0,1,1,0,1,0,1","0,0,1,1,0,1,0,1,1","2",""
"","html-keyboard-response","99","72066","0.0-99.0","3X3OR7WPZ0M6TCB0IC3GGRNHPU2L8U","A2APG8MSLJ6G2K","3THR0FZ95PF7SK0MYRNAOUHTWDJOLG","","null","<img src=""img/flower1.png"" style=""width:200px; border:14px solid green;"">","null","","","","","","","","",""
"","image-keyboard-response","100","72188","0.0-100.0","3X3OR7WPZ0M6TCB0IC3GGRNHPU2L8U","A2APG8MSLJ6G2K","3THR0FZ95PF7SK0MYRNAOUHTWDJOLG","","121.70000004768372","img/flower3.png","76","122.20000004768372","3","1","1","2","1,0,0,1,1,0,1,0,1","0,0,1,1,0,1,0,1,1","2",""
"","html-keyboard-response","101","72490","0.0-101.0","3X3OR7WPZ0M6TCB0IC3GGRNHPU2L8U","A2APG8MSLJ6G2K","3THR0FZ95PF7SK0MYRNAOUHTWDJOLG","","null","<img src=""img/flower3.png"" style=""width:200px; border:14px solid green;"">","null","","","","","","","","",""
"","image-keyboard-response","102","72860","0.0-102.0","3X3OR7WPZ0M6TCB0IC3GGRNHPU2L8U","A2APG8MSLJ6G2K","3THR0FZ95PF7SK0MYRNAOUHTWDJOLG","","369.7999999523163","img/flower5.png","76","370.40000009536743","3","1","3","2","1,0,0,1,1,0,1,0,1","0,0,1,1,0,1,0,1,1","2",""
"","html-keyboard-response","103","73162","0.0-103.0","3X3OR7WPZ0M6TCB0IC3GGRNHPU2L8U","A2APG8MSLJ6G2K","3THR0FZ95PF7SK0MYRNAOUHTWDJOLG","","null","<img src=""img/flower5.png"" style=""width:200px; border:14px solid green;"">","null","","","","","","","","",""
"","image-keyboard-response","104","73372","0.0-104.0","3X3OR7WPZ0M6TCB0IC3GGRNHPU2L8U","A2APG8MSLJ6G2K","3THR0FZ95PF7SK0MYRNAOUHTWDJOLG","","209.90000009536743","img/flower1.png","76","210.59999990463257","3","1","2","2","1,0,0,1,1,0,1,0,1","0,0,1,1,0,1,0,1,1","2",""
"","html-keyboard-response","105","73673","0.0-105.0","3X3OR7WPZ0M6TCB0IC3GGRNHPU2L8U","A2APG8MSLJ6G2K","3THR0FZ95PF7SK0MYRNAOUHTWDJOLG","","null","<img src=""img/flower1.png"" style=""width:200px; border:14px solid green;"">","null","","","","","","","","",""
"","image-keyboard-response","106","73716","0.0-106.0","3X3OR7WPZ0M6TCB0IC3GGRNHPU2L8U","A2APG8MSLJ6G2K","3THR0FZ95PF7SK0MYRNAOUHTWDJOLG","","42.200000047683716","img/flower5.png","76","42.90000009536743","3","1","3","2","1,0,0,1,1,0,1,0,1","0,0,1,1,0,1,0,1,1","2",""
"","html-keyboard-response","107","74017","0.0-107.0","3X3OR7WPZ0M6TCB0IC3GGRNHPU2L8U","A2APG8MSLJ6G2K","3THR0FZ95PF7SK0MYRNAOUHTWDJOLG","","null","<img src=""img/flower5.png"" style=""width:200px; border:14px solid green;"">","null","","","","","","","","",""
"","image-keyboard-response","108","74348","0.0-108.0","3X3OR7WPZ0M6TCB0IC3GGRNHPU2L8U","A2APG8MSLJ6G2K","3THR0FZ95PF7SK0MYRNAOUHTWDJOLG","","330.2999999523163","img/flower5.png","76","330.90000009536743","3","1","3","2","1,0,0,1,1,0,1,0,1","0,0,1,1,0,1,0,1,1","2",""
"","html-keyboard-response","109","74649","0.0-109.0","3X3OR7WPZ0M6TCB0IC3GGRNHPU2L8U","A2APG8MSLJ6G2K","3THR0FZ95PF7SK0MYRNAOUHTWDJOLG","","null","<img src=""img/flower5.png"" style=""width:200px; border:14px solid green;"">","null","","","","","","","","",""
"","image-keyboard-response","110","74852","0.0-110.0","3X3OR7WPZ0M6TCB0IC3GGRNHPU2L8U","A2APG8MSLJ6G2K","3THR0FZ95PF7SK0MYRNAOUHTWDJOLG","","202.20000004768372","img/flower3.png","76","202.70000004768372","3","1","1","2","1,0,0,1,1,0,1,0,1","0,0,1,1,0,1,0,1,1","2",""
"","html-keyboard-response","111","75154","0.0-111.0","3X3OR7WPZ0M6TCB0IC3GGRNHPU2L8U","A2APG8MSLJ6G2K","3THR0FZ95PF7SK0MYRNAOUHTWDJOLG","","null","<img src=""img/flower3.png"" style=""width:200px; border:14px solid green;"">","null","","","","","","","","",""
"","image-keyboard-response","112","75260","0.0-112.0","3X3OR7WPZ0M6TCB0IC3GGRNHPU2L8U","A2APG8MSLJ6G2K","3THR0FZ95PF7SK0MYRNAOUHTWDJOLG","","105.90000009536743","img/flower1.png","76","106.39999985694885","3","1","2","2","1,0,0,1,1,0,1,0,1","0,0,1,1,0,1,0,1,1","2",""
"","html-keyboard-response","113","75561","0.0-113.0","3X3OR7WPZ0M6TCB0IC3GGRNHPU2L8U","A2APG8MSLJ6G2K","3THR0FZ95PF7SK0MYRNAOUHTWDJOLG","","null","<img src=""img/flower1.png"" style=""width:200px; border:14px solid green;"">","null","","","","","","","","",""
"","image-keyboard-response","114","75723","0.0-114.0","3X3OR7WPZ0M6TCB0IC3GGRNHPU2L8U","A2APG8MSLJ6G2K","3THR0FZ95PF7SK0MYRNAOUHTWDJOLG","","161.29999995231628","img/flower5.png","76","161.90000009536743","3","1","3","2","1,0,0,1,1,0,1,0,1","0,0,1,1,0,1,0,1,1","2",""
"","html-keyboard-response","115","76024","0.0-115.0","3X3OR7WPZ0M6TCB0IC3GGRNHPU2L8U","A2APG8MSLJ6G2K","3THR0FZ95PF7SK0MYRNAOUHTWDJOLG","","null","<img src=""img/flower5.png"" style=""width:200px; border:14px solid green;"">","null","","","","","","","","",""
"","image-keyboard-response","116","76244","0.0-116.0","3X3OR7WPZ0M6TCB0IC3GGRNHPU2L8U","A2APG8MSLJ6G2K","3THR0FZ95PF7SK0MYRNAOUHTWDJOLG","","218.70000004768372","img/flower1.png","76","219.40000009536743","3","1","2","2","1,0,0,1,1,0,1,0,1","0,0,1,1,0,1,0,1,1","2",""
"","html-keyboard-response","117","76545","0.0-117.0","3X3OR7WPZ0M6TCB0IC3GGRNHPU2L8U","A2APG8MSLJ6G2K","3THR0FZ95PF7SK0MYRNAOUHTWDJOLG","","null","<img src=""img/flower1.png"" style=""width:200px; border:14px solid green;"">","null","","","","","","","","",""
"","image-keyboard-response","118","76588","0.0-118.0","3X3OR7WPZ0M6TCB0IC3GGRNHPU2L8U","A2APG8MSLJ6G2K","3THR0FZ95PF7SK0MYRNAOUHTWDJOLG","","41.700000047683716","img/flower3.png","76","42.30000019073486","3","1","1","2","1,0,0,1,1,0,1,0,1","0,0,1,1,0,1,0,1,1","2",""
"","html-keyboard-response","119","76889","0.0-119.0","3X3OR7WPZ0M6TCB0IC3GGRNHPU2L8U","A2APG8MSLJ6G2K","3THR0FZ95PF7SK0MYRNAOUHTWDJOLG","","null","<img src=""img/flower3.png"" style=""width:200px; border:14px solid green;"">","null","","","","","","","","",""
"","image-keyboard-response","120","76964","0.0-120.0","3X3OR7WPZ0M6TCB0IC3GGRNHPU2L8U","A2APG8MSLJ6G2K","3THR0FZ95PF7SK0MYRNAOUHTWDJOLG","","74.39999985694885","img/flower3.png","76","74.90000009536743","3","1","1","2","1,0,0,1,1,0,1,0,1","0,0,1,1,0,1,0,1,1","2",""
"","html-keyboard-response","121","77266","0.0-121.0","3X3OR7WPZ0M6TCB0IC3GGRNHPU2L8U","A2APG8MSLJ6G2K","3THR0FZ95PF7SK0MYRNAOUHTWDJOLG","","null","<img src=""img/flower3.png"" style=""width:200px; border:14px solid green;"">","null","","","","","","","","",""
"","image-keyboard-response","122","77308","0.0-122.0","3X3OR7WPZ0M6TCB0IC3GGRNHPU2L8U","A2APG8MSLJ6G2K","3THR0FZ95PF7SK0MYRNAOUHTWDJOLG","","41.799999952316284","img/flower5.png","76","42.59999990463257","3","1","3","2","1,0,0,1,1,0,1,0,1","0,0,1,1,0,1,0,1,1","2",""
"","html-keyboard-response","123","77611","0.0-123.0","3X3OR7WPZ0M6TCB0IC3GGRNHPU2L8U","A2APG8MSLJ6G2K","3THR0FZ95PF7SK0MYRNAOUHTWDJOLG","","null","<img src=""img/flower5.png"" style=""width:200px; border:14px solid green;"">","null","","","","","","","","",""
"","image-keyboard-response","124","77660","0.0-124.0","3X3OR7WPZ0M6TCB0IC3GGRNHPU2L8U","A2APG8MSLJ6G2K","3THR0FZ95PF7SK0MYRNAOUHTWDJOLG","","48.5","img/flower3.png","76","49.200000047683716","3","1","1","2","1,0,0,1,1,0,1,0,1","0,0,1,1,0,1,0,1,1","2",""
"","html-keyboard-response","125","77962","0.0-125.0","3X3OR7WPZ0M6TCB0IC3GGRNHPU2L8U","A2APG8MSLJ6G2K","3THR0FZ95PF7SK0MYRNAOUHTWDJOLG","","null","<img src=""img/flower3.png"" style=""width:200px; border:14px solid green;"">","null","","","","","","","","",""
"","image-keyboard-response","126","78012","0.0-126.0","3X3OR7WPZ0M6TCB0IC3GGRNHPU2L8U","A2APG8MSLJ6G2K","3THR0FZ95PF7SK0MYRNAOUHTWDJOLG","","50.30000019073486","img/flower1.png","76","50.700000047683716","3","1","2","2","1,0,0,1,1,0,1,0,1","0,0,1,1,0,1,0,1,1","2",""
"","html-keyboard-response","127","78314","0.0-127.0","3X3OR7WPZ0M6TCB0IC3GGRNHPU2L8U","A2APG8MSLJ6G2K","3THR0FZ95PF7SK0MYRNAOUHTWDJOLG","","null","<img src=""img/flower1.png"" style=""width:200px; border:14px solid green;"">","null","","","","","","","","",""
"","image-keyboard-response","128","78356","0.0-128.0","3X3OR7WPZ0M6TCB0IC3GGRNHPU2L8U","A2APG8MSLJ6G2K","3THR0FZ95PF7SK0MYRNAOUHTWDJOLG","","41.39999985694885","img/flower5.png","76","42","3","1","3","2","1,0,0,1,1,0,1,0,1","0,0,1,1,0,1,0,1,1","2",""
"","html-keyboard-response","129","78657","0.0-129.0","3X3OR7WPZ0M6TCB0IC3GGRNHPU2L8U","A2APG8MSLJ6G2K","3THR0FZ95PF7SK0MYRNAOUHTWDJOLG","","null","<img src=""img/flower5.png"" style=""width:200px; border:14px solid green;"">","null","","","","","","","","",""
"","image-keyboard-response","130","78668","0.0-130.0","3X3OR7WPZ0M6TCB0IC3GGRNHPU2L8U","A2APG8MSLJ6G2K","3THR0FZ95PF7SK0MYRNAOUHTWDJOLG","","10.299999952316284","img/flower1.png","76","10.799999952316284","3","1","2","2","1,0,0,1,1,0,1,0,1","0,0,1,1,0,1,0,1,1","2",""
"","html-keyboard-response","131","78969","0.0-131.0","3X3OR7WPZ0M6TCB0IC3GGRNHPU2L8U","A2APG8MSLJ6G2K","3THR0FZ95PF7SK0MYRNAOUHTWDJOLG","","null","<img src=""img/flower1.png"" style=""width:200px; border:14px solid green;"">","null","","","","","","","","",""
"","image-keyboard-response","132","79212","0.0-132.0","3X3OR7WPZ0M6TCB0IC3GGRNHPU2L8U","A2APG8MSLJ6G2K","3THR0FZ95PF7SK0MYRNAOUHTWDJOLG","","242","img/flower1.png","76","242.70000004768372","3","1","2","2","1,0,0,1,1,0,1,0,1","0,0,1,1,0,1,0,1,1","2",""
"","html-keyboard-response","133","79513","0.0-133.0","3X3OR7WPZ0M6TCB0IC3GGRNHPU2L8U","A2APG8MSLJ6G2K","3THR0FZ95PF7SK0MYRNAOUHTWDJOLG","","null","<img src=""img/flower1.png"" style=""width:200px; border:14px solid green;"">","null","","","","","","","","",""
"","image-keyboard-response","134","79740","0.0-134.0","3X3OR7WPZ0M6TCB0IC3GGRNHPU2L8U","A2APG8MSLJ6G2K","3THR0FZ95PF7SK0MYRNAOUHTWDJOLG","","225.5","img/flower5.png","76","226.10000014305115","3","1","3","2","1,0,0,1,1,0,1,0,1","0,0,1,1,0,1,0,1,1","2",""
"","html-keyboard-response","135","80041","0.0-135.0","3X3OR7WPZ0M6TCB0IC3GGRNHPU2L8U","A2APG8MSLJ6G2K","3THR0FZ95PF7SK0MYRNAOUHTWDJOLG","","null","<img src=""img/flower5.png"" style=""width:200px; border:14px solid green;"">","null","","","","","","","","",""
"","image-keyboard-response","136","80188","0.0-136.0","3X3OR7WPZ0M6TCB0IC3GGRNHPU2L8U","A2APG8MSLJ6G2K","3THR0FZ95PF7SK0MYRNAOUHTWDJOLG","","145.5","img/flower1.png","76","146.20000004768372","3","1","2","2","1,0,0,1,1,0,1,0,1","0,0,1,1,0,1,0,1,1","2",""
"","html-keyboard-response","137","80489","0.0-137.0","3X3OR7WPZ0M6TCB0IC3GGRNHPU2L8U","A2APG8MSLJ6G2K","3THR0FZ95PF7SK0MYRNAOUHTWDJOLG","","null","<img src=""img/flower1.png"" style=""width:200px; border:14px solid green;"">","null","","","","","","","","",""
"","image-keyboard-response","138","80540","0.0-138.0","3X3OR7WPZ0M6TCB0IC3GGRNHPU2L8U","A2APG8MSLJ6G2K","3THR0FZ95PF7SK0MYRNAOUHTWDJOLG","","50.19999980926514","img/flower1.png","76","50.700000047683716","3","1","2","2","1,0,0,1,1,0,1,0,1","0,0,1,1,0,1,0,1,1","2",""
"","html-keyboard-response","139","80841","0.0-139.0","3X3OR7WPZ0M6TCB0IC3GGRNHPU2L8U","A2APG8MSLJ6G2K","3THR0FZ95PF7SK0MYRNAOUHTWDJOLG","","null","<img src=""img/flower1.png"" style=""width:200px; border:14px solid green;"">","null","","","","","","","","",""
"","image-keyboard-response","140","80867","0.0-140.0","3X3OR7WPZ0M6TCB0IC3GGRNHPU2L8U","A2APG8MSLJ6G2K","3THR0FZ95PF7SK0MYRNAOUHTWDJOLG","","24.90000009536743","img/flower3.png","76","25.40000009536743","3","1","1","2","1,0,0,1,1,0,1,0,1","0,0,1,1,0,1,0,1,1","2",""
"","html-keyboard-response","141","81168","0.0-141.0","3X3OR7WPZ0M6TCB0IC3GGRNHPU2L8U","A2APG8MSLJ6G2K","3THR0FZ95PF7SK0MYRNAOUHTWDJOLG","","null","<img src=""img/flower3.png"" style=""width:200px; border:14px solid green;"">","null","","","","","","","","",""
"","image-keyboard-response","142","81293","0.0-142.0","3X3OR7WPZ0M6TCB0IC3GGRNHPU2L8U","A2APG8MSLJ6G2K","3THR0FZ95PF7SK0MYRNAOUHTWDJOLG","","124.20000004768372","img/flower3.png","76","124.89999985694885","3","1","1","2","1,0,0,1,1,0,1,0,1","0,0,1,1,0,1,0,1,1","2",""
"","html-keyboard-response","143","81594","0.0-143.0","3X3OR7WPZ0M6TCB0IC3GGRNHPU2L8U","A2APG8MSLJ6G2K","3THR0FZ95PF7SK0MYRNAOUHTWDJOLG","","null","<img src=""img/flower3.png"" style=""width:200px; border:14px solid green;"">","null","","","","","","","","",""
"","image-keyboard-response","144","81644","0.0-144.0","3X3OR7WPZ0M6TCB0IC3GGRNHPU2L8U","A2APG8MSLJ6G2K","3THR0FZ95PF7SK0MYRNAOUHTWDJOLG","","49.60000014305115","img/flower1.png","76","50.200000047683716","3","1","2","2","1,0,0,1,1,0,1,0,1","0,0,1,1,0,1,0,1,1","2",""
"","html-keyboard-response","145","81946","0.0-145.0","3X3OR7WPZ0M6TCB0IC3GGRNHPU2L8U","A2APG8MSLJ6G2K","3THR0FZ95PF7SK0MYRNAOUHTWDJOLG","","null","<img src=""img/flower1.png"" style=""width:200px; border:14px solid green;"">","null","","","","","","","","",""
"","image-keyboard-response","146","81980","0.0-146.0","3X3OR7WPZ0M6TCB0IC3GGRNHPU2L8U","A2APG8MSLJ6G2K","3THR0FZ95PF7SK0MYRNAOUHTWDJOLG","","33.30000019073486","img/flower1.png","76","33.89999985694885","3","1","2","2","1,0,0,1,1,0,1,0,1","0,0,1,1,0,1,0,1,1","2",""
"","html-keyboard-response","147","82282","0.0-147.0","3X3OR7WPZ0M6TCB0IC3GGRNHPU2L8U","A2APG8MSLJ6G2K","3THR0FZ95PF7SK0MYRNAOUHTWDJOLG","","null","<img src=""img/flower1.png"" style=""width:200px; border:14px solid green;"">","null","","","","","","","","",""
"","image-keyboard-response","148","82372","0.0-148.0","3X3OR7WPZ0M6TCB0IC3GGRNHPU2L8U","A2APG8MSLJ6G2K","3THR0FZ95PF7SK0MYRNAOUHTWDJOLG","","89.90000009536743","img/flower5.png","76","90.40000009536743","3","1","3","2","1,0,0,1,1,0,1,0,1","0,0,1,1,0,1,0,1,1","2",""
"","html-keyboard-response","149","82674","0.0-149.0","3X3OR7WPZ0M6TCB0IC3GGRNHPU2L8U","A2APG8MSLJ6G2K","3THR0FZ95PF7SK0MYRNAOUHTWDJOLG","","null","<img src=""img/flower5.png"" style=""width:200px; border:14px solid green;"">","null","","","","","","","","",""
"","image-keyboard-response","150","82684","0.0-150.0","3X3OR7WPZ0M6TCB0IC3GGRNHPU2L8U","A2APG8MSLJ6G2K","3THR0FZ95PF7SK0MYRNAOUHTWDJOLG","","9.5","img/flower3.png","76","10.200000047683716","3","1","1","2","1,0,0,1,1,0,1,0,1","0,0,1,1,0,1,0,1,1","2",""
"","html-keyboard-response","151","82985","0.0-151.0","3X3OR7WPZ0M6TCB0IC3GGRNHPU2L8U","A2APG8MSLJ6G2K","3THR0FZ95PF7SK0MYRNAOUHTWDJOLG","","null","<img src=""img/flower3.png"" style=""width:200px; border:14px solid green;"">","null","","","","","","","","",""
"","image-keyboard-response","152","83052","0.0-152.0","3X3OR7WPZ0M6TCB0IC3GGRNHPU2L8U","A2APG8MSLJ6G2K","3THR0FZ95PF7SK0MYRNAOUHTWDJOLG","","66.5","img/flower5.png","76","67.29999995231628","3","1","3","2","1,0,0,1,1,0,1,0,1","0,0,1,1,0,1,0,1,1","2",""
"","html-keyboard-response","153","83354","0.0-153.0","3X3OR7WPZ0M6TCB0IC3GGRNHPU2L8U","A2APG8MSLJ6G2K","3THR0FZ95PF7SK0MYRNAOUHTWDJOLG","","null","<img src=""img/flower5.png"" style=""width:200px; border:14px solid green;"">","null","","","","","","","","",""
"","image-keyboard-response","154","83404","0.0-154.0","3X3OR7WPZ0M6TCB0IC3GGRNHPU2L8U","A2APG8MSLJ6G2K","3THR0FZ95PF7SK0MYRNAOUHTWDJOLG","","49.700000047683716","img/flower3.png","76","50.09999990463257","3","1","1","2","1,0,0,1,1,0,1,0,1","0,0,1,1,0,1,0,1,1","2",""
"","html-keyboard-response","155","83705","0.0-155.0","3X3OR7WPZ0M6TCB0IC3GGRNHPU2L8U","A2APG8MSLJ6G2K","3THR0FZ95PF7SK0MYRNAOUHTWDJOLG","","null","<img src=""img/flower3.png"" style=""width:200px; border:14px solid green;"">","null","","","","","","","","",""
"","image-keyboard-response","156","83748","0.0-156.0","3X3OR7WPZ0M6TCB0IC3GGRNHPU2L8U","A2APG8MSLJ6G2K","3THR0FZ95PF7SK0MYRNAOUHTWDJOLG","","42.19999980926514","img/flower3.png","76","42.799999952316284","3","1","1","2","1,0,0,1,1,0,1,0,1","0,0,1,1,0,1,0,1,1","2",""
"","html-keyboard-response","157","84050","0.0-157.0","3X3OR7WPZ0M6TCB0IC3GGRNHPU2L8U","A2APG8MSLJ6G2K","3THR0FZ95PF7SK0MYRNAOUHTWDJOLG","","null","<img src=""img/flower3.png"" style=""width:200px; border:14px solid green;"">","null","","","","","","","","",""
"","image-keyboard-response","158","84092","0.0-158.0","3X3OR7WPZ0M6TCB0IC3GGRNHPU2L8U","A2APG8MSLJ6G2K","3THR0FZ95PF7SK0MYRNAOUHTWDJOLG","","41.09999990463257","img/flower5.png","76","41.89999985694885","3","1","3","2","1,0,0,1,1,0,1,0,1","0,0,1,1,0,1,0,1,1","2",""
"","html-keyboard-response","159","84394","0.0-159.0","3X3OR7WPZ0M6TCB0IC3GGRNHPU2L8U","A2APG8MSLJ6G2K","3THR0FZ95PF7SK0MYRNAOUHTWDJOLG","","null","<img src=""img/flower5.png"" style=""width:200px; border:14px solid green;"">","null","","","","","","","","",""
"","image-keyboard-response","160","84436","0.0-160.0","3X3OR7WPZ0M6TCB0IC3GGRNHPU2L8U","A2APG8MSLJ6G2K","3THR0FZ95PF7SK0MYRNAOUHTWDJOLG","","41.60000014305115","img/flower5.png","76","42.19999980926514","3","1","3","2","1,0,0,1,1,0,1,0,1","0,0,1,1,0,1,0,1,1","2",""
"","html-keyboard-response","161","84738","0.0-161.0","3X3OR7WPZ0M6TCB0IC3GGRNHPU2L8U","A2APG8MSLJ6G2K","3THR0FZ95PF7SK0MYRNAOUHTWDJOLG","","null","<img src=""img/flower5.png"" style=""width:200px; border:14px solid green;"">","null","","","","","","","","",""
"","image-keyboard-response","162","84797","0.0-162.0","3X3OR7WPZ0M6TCB0IC3GGRNHPU2L8U","A2APG8MSLJ6G2K","3THR0FZ95PF7SK0MYRNAOUHTWDJOLG","","57.90000009536743","img/flower1.png","76","58.59999990463257","3","1","2","2","1,0,0,1,1,0,1,0,1","0,0,1,1,0,1,0,1,1","2",""
"","html-keyboard-response","163","85098","0.0-163.0","3X3OR7WPZ0M6TCB0IC3GGRNHPU2L8U","A2APG8MSLJ6G2K","3THR0FZ95PF7SK0MYRNAOUHTWDJOLG","","null","<img src=""img/flower1.png"" style=""width:200px; border:14px solid green;"">","null","","","","","","","","",""
"","image-keyboard-response","164","85116","0.0-164.0","3X3OR7WPZ0M6TCB0IC3GGRNHPU2L8U","A2APG8MSLJ6G2K","3THR0FZ95PF7SK0MYRNAOUHTWDJOLG","","17.40000009536743","img/flower5.png","76","18","3","1","3","2","1,0,0,1,1,0,1,0,1","0,0,1,1,0,1,0,1,1","2",""
"","html-keyboard-response","165","85417","0.0-165.0","3X3OR7WPZ0M6TCB0IC3GGRNHPU2L8U","A2APG8MSLJ6G2K","3THR0FZ95PF7SK0MYRNAOUHTWDJOLG","","null","<img src=""img/flower5.png"" style=""width:200px; border:14px solid green;"">","null","","","","","","","","",""
"","image-keyboard-response","166","85428","0.0-166.0","3X3OR7WPZ0M6TCB0IC3GGRNHPU2L8U","A2APG8MSLJ6G2K","3THR0FZ95PF7SK0MYRNAOUHTWDJOLG","","10.700000047683716","img/flower1.png","76","11.199999809265137","3","1","2","2","1,0,0,1,1,0,1,0,1","0,0,1,1,0,1,0,1,1","2",""
"","html-keyboard-response","167","85729","0.0-167.0","3X3OR7WPZ0M6TCB0IC3GGRNHPU2L8U","A2APG8MSLJ6G2K","3THR0FZ95PF7SK0MYRNAOUHTWDJOLG","","null","<img src=""img/flower1.png"" style=""width:200px; border:14px solid green;"">","null","","","","","","","","",""
"","image-keyboard-response","168","85788","0.0-168.0","3X3OR7WPZ0M6TCB0IC3GGRNHPU2L8U","A2APG8MSLJ6G2K","3THR0FZ95PF7SK0MYRNAOUHTWDJOLG","","58.39999985694885","img/flower5.png","76","59","3","1","3","2","1,0,0,1,1,0,1,0,1","0,0,1,1,0,1,0,1,1","2",""
"","html-keyboard-response","169","86089","0.0-169.0","3X3OR7WPZ0M6TCB0IC3GGRNHPU2L8U","A2APG8MSLJ6G2K","3THR0FZ95PF7SK0MYRNAOUHTWDJOLG","","null","<img src=""img/flower5.png"" style=""width:200px; border:14px solid green;"">","null","","","","","","","","",""
"","image-keyboard-response","170","86132","0.0-170.0","3X3OR7WPZ0M6TCB0IC3GGRNHPU2L8U","A2APG8MSLJ6G2K","3THR0FZ95PF7SK0MYRNAOUHTWDJOLG","","41.90000009536743","img/flower1.png","76","42.39999985694885","3","1","2","2","1,0,0,1,1,0,1,0,1","0,0,1,1,0,1,0,1,1","2",""
"","html-keyboard-response","171","86433","0.0-171.0","3X3OR7WPZ0M6TCB0IC3GGRNHPU2L8U","A2APG8MSLJ6G2K","3THR0FZ95PF7SK0MYRNAOUHTWDJOLG","","null","<img src=""img/flower1.png"" style=""width:200px; border:14px solid green;"">","null","","","","","","","","",""
"","image-keyboard-response","172","86452","0.0-172.0","3X3OR7WPZ0M6TCB0IC3GGRNHPU2L8U","A2APG8MSLJ6G2K","3THR0FZ95PF7SK0MYRNAOUHTWDJOLG","","18.600000143051147","img/flower1.png","76","19.200000047683716","3","1","2","2","1,0,0,1,1,0,1,0,1","0,0,1,1,0,1,0,1,1","2",""
"","html-keyboard-response","173","86753","0.0-173.0","3X3OR7WPZ0M6TCB0IC3GGRNHPU2L8U","A2APG8MSLJ6G2K","3THR0FZ95PF7SK0MYRNAOUHTWDJOLG","","null","<img src=""img/flower1.png"" style=""width:200px; border:14px solid green;"">","null","","","","","","","","",""
"","image-keyboard-response","174","86772","0.0-174.0","3X3OR7WPZ0M6TCB0IC3GGRNHPU2L8U","A2APG8MSLJ6G2K","3THR0FZ95PF7SK0MYRNAOUHTWDJOLG","","18.299999952316284","img/flower1.png","76","18.799999952316284","3","1","2","2","1,0,0,1,1,0,1,0,1","0,0,1,1,0,1,0,1,1","2",""
"","html-keyboard-response","175","87073","0.0-175.0","3X3OR7WPZ0M6TCB0IC3GGRNHPU2L8U","A2APG8MSLJ6G2K","3THR0FZ95PF7SK0MYRNAOUHTWDJOLG","","null","<img src=""img/flower1.png"" style=""width:200px; border:14px solid green;"">","null","","","","","","","","",""
"","image-keyboard-response","176","87107","0.0-176.0","3X3OR7WPZ0M6TCB0IC3GGRNHPU2L8U","A2APG8MSLJ6G2K","3THR0FZ95PF7SK0MYRNAOUHTWDJOLG","","33.10000014305115","img/flower3.png","76","33.700000047683716","3","1","1","2","1,0,0,1,1,0,1,0,1","0,0,1,1,0,1,0,1,1","2",""
"","html-keyboard-response","177","87408","0.0-177.0","3X3OR7WPZ0M6TCB0IC3GGRNHPU2L8U","A2APG8MSLJ6G2K","3THR0FZ95PF7SK0MYRNAOUHTWDJOLG","","null","<img src=""img/flower3.png"" style=""width:200px; border:14px solid green;"">","null","","","","","","","","",""
"","image-keyboard-response","178","87412","0.0-178.0","3X3OR7WPZ0M6TCB0IC3GGRNHPU2L8U","A2APG8MSLJ6G2K","3THR0FZ95PF7SK0MYRNAOUHTWDJOLG","","3","img/flower3.png","76","3.5","3","1","1","2","1,0,0,1,1,0,1,0,1","0,0,1,1,0,1,0,1,1","2",""
"","html-keyboard-response","179","87713","0.0-179.0","3X3OR7WPZ0M6TCB0IC3GGRNHPU2L8U","A2APG8MSLJ6G2K","3THR0FZ95PF7SK0MYRNAOUHTWDJOLG","","null","<img src=""img/flower3.png"" style=""width:200px; border:14px solid green;"">","null","","","","","","","","",""
"","image-keyboard-response","180","87756","0.0-180.0","3X3OR7WPZ0M6TCB0IC3GGRNHPU2L8U","A2APG8MSLJ6G2K","3THR0FZ95PF7SK0MYRNAOUHTWDJOLG","","42.60000014305115","img/flower5.png","76","43","3","1","3","2","1,0,0,1,1,0,1,0,1","0,0,1,1,0,1,0,1,1","2",""
"","html-keyboard-response","181","88057","0.0-181.0","3X3OR7WPZ0M6TCB0IC3GGRNHPU2L8U","A2APG8MSLJ6G2K","3THR0FZ95PF7SK0MYRNAOUHTWDJOLG","","null","<img src=""img/flower5.png"" style=""width:200px; border:14px solid green;"">","null","","","","","","","","",""
"","image-keyboard-response","182","88124","0.0-182.0","3X3OR7WPZ0M6TCB0IC3GGRNHPU2L8U","A2APG8MSLJ6G2K","3THR0FZ95PF7SK0MYRNAOUHTWDJOLG","","66.5","img/flower2.png","76","67.20000004768372","3","1","3","1","1,0.333,0.333,0.333,1,0.333,0.333,0.333,1","1,0.333,0.333,0.333,1,0.333,0.333,0.333,1","1",""
"","html-keyboard-response","183","88425","0.0-183.0","3X3OR7WPZ0M6TCB0IC3GGRNHPU2L8U","A2APG8MSLJ6G2K","3THR0FZ95PF7SK0MYRNAOUHTWDJOLG","","null","<img src=""img/flower2.png"" style=""width:200px; border:14px solid green;"">","null","","","","","","","","",""
"","image-keyboard-response","184","88476","0.0-184.0","3X3OR7WPZ0M6TCB0IC3GGRNHPU2L8U","A2APG8MSLJ6G2K","3THR0FZ95PF7SK0MYRNAOUHTWDJOLG","","50.60000014305115","img/flower2.png","76","51.09999990463257","3","1","3","1","1,0.333,0.333,0.333,1,0.333,0.333,0.333,1","1,0.333,0.333,0.333,1,0.333,0.333,0.333,1","1",""
"","html-keyboard-response","185","88777","0.0-185.0","3X3OR7WPZ0M6TCB0IC3GGRNHPU2L8U","A2APG8MSLJ6G2K","3THR0FZ95PF7SK0MYRNAOUHTWDJOLG","","null","<img src=""img/flower2.png"" style=""width:200px; border:14px solid green;"">","null","","","","","","","","",""
"","image-keyboard-response","186","88861","0.0-186.0","3X3OR7WPZ0M6TCB0IC3GGRNHPU2L8U","A2APG8MSLJ6G2K","3THR0FZ95PF7SK0MYRNAOUHTWDJOLG","","82.60000014305115","img/flower2.png","76","83.09999990463257","3","1","3","1","1,0.333,0.333,0.333,1,0.333,0.333,0.333,1","1,0.333,0.333,0.333,1,0.333,0.333,0.333,1","1",""
"","html-keyboard-response","187","89162","0.0-187.0","3X3OR7WPZ0M6TCB0IC3GGRNHPU2L8U","A2APG8MSLJ6G2K","3THR0FZ95PF7SK0MYRNAOUHTWDJOLG","","null","<img src=""img/flower2.png"" style=""width:200px; border:14px solid green;"">","null","","","","","","","","",""
"","image-keyboard-response","188","89227","0.0-188.0","3X3OR7WPZ0M6TCB0IC3GGRNHPU2L8U","A2APG8MSLJ6G2K","3THR0FZ95PF7SK0MYRNAOUHTWDJOLG","","64.09999990463257","img/flower4.png","76","64.70000004768372","3","1","1","1","1,0.333,0.333,0.333,1,0.333,0.333,0.333,1","1,0.333,0.333,0.333,1,0.333,0.333,0.333,1","1",""
"","html-keyboard-response","189","89528","0.0-189.0","3X3OR7WPZ0M6TCB0IC3GGRNHPU2L8U","A2APG8MSLJ6G2K","3THR0FZ95PF7SK0MYRNAOUHTWDJOLG","","null","<img src=""img/flower4.png"" style=""width:200px; border:14px solid green;"">","null","","","","","","","","",""
"","image-keyboard-response","190","89668","0.0-190.0","3X3OR7WPZ0M6TCB0IC3GGRNHPU2L8U","A2APG8MSLJ6G2K","3THR0FZ95PF7SK0MYRNAOUHTWDJOLG","","139.5","img/flower6.png","76","140.20000004768372","3","0","2","1","1,0.333,0.333,0.333,1,0.333,0.333,0.333,1","1,0.333,0.333,0.333,1,0.333,0.333,0.333,1","1",""
"","html-keyboard-response","191","89969","0.0-191.0","3X3OR7WPZ0M6TCB0IC3GGRNHPU2L8U","A2APG8MSLJ6G2K","3THR0FZ95PF7SK0MYRNAOUHTWDJOLG","","null","<img src=""img/flower6.png"" style=""width:200px;border:14px solid red;"">","null","","","","","","","","",""
"","image-keyboard-response","192","90148","0.0-192.0","3X3OR7WPZ0M6TCB0IC3GGRNHPU2L8U","A2APG8MSLJ6G2K","3THR0FZ95PF7SK0MYRNAOUHTWDJOLG","","178.20000004768372","img/flower4.png","76","178.90000009536743","3","0","1","1","1,0.333,0.333,0.333,1,0.333,0.333,0.333,1","1,0.333,0.333,0.333,1,0.333,0.333,0.333,1","1",""
"","html-keyboard-response","193","90449","0.0-193.0","3X3OR7WPZ0M6TCB0IC3GGRNHPU2L8U","A2APG8MSLJ6G2K","3THR0FZ95PF7SK0MYRNAOUHTWDJOLG","","null","<img src=""img/flower4.png"" style=""width:200px;border:14px solid red;"">","null","","","","","","","","",""
"","image-keyboard-response","194","91036","0.0-194.0","3X3OR7WPZ0M6TCB0IC3GGRNHPU2L8U","A2APG8MSLJ6G2K","3THR0FZ95PF7SK0MYRNAOUHTWDJOLG","","586.3999998569489","img/flower6.png","75","587","2","1","2","1","1,0.333,0.333,0.333,1,0.333,0.333,0.333,1","1,0.333,0.333,0.333,1,0.333,0.333,0.333,1","1",""
"","html-keyboard-response","195","91338","0.0-195.0","3X3OR7WPZ0M6TCB0IC3GGRNHPU2L8U","A2APG8MSLJ6G2K","3THR0FZ95PF7SK0MYRNAOUHTWDJOLG","","null","<img src=""img/flower6.png"" style=""width:200px; border:14px solid green;"">","null","","","","","","","","",""
"","image-keyboard-response","196","91892","0.0-196.0","3X3OR7WPZ0M6TCB0IC3GGRNHPU2L8U","A2APG8MSLJ6G2K","3THR0FZ95PF7SK0MYRNAOUHTWDJOLG","","553.5","img/flower6.png","75","554.2999999523163","2","1","2","1","1,0.333,0.333,0.333,1,0.333,0.333,0.333,1","1,0.333,0.333,0.333,1,0.333,0.333,0.333,1","1",""
"","html-keyboard-response","197","92193","0.0-197.0","3X3OR7WPZ0M6TCB0IC3GGRNHPU2L8U","A2APG8MSLJ6G2K","3THR0FZ95PF7SK0MYRNAOUHTWDJOLG","","null","<img src=""img/flower6.png"" style=""width:200px; border:14px solid green;"">","null","","","","","","","","",""
"","image-keyboard-response","198","92260","0.0-198.0","3X3OR7WPZ0M6TCB0IC3GGRNHPU2L8U","A2APG8MSLJ6G2K","3THR0FZ95PF7SK0MYRNAOUHTWDJOLG","","66.09999990463257","img/flower4.png","75","66.70000004768372","2","0","1","1","1,0.333,0.333,0.333,1,0.333,0.333,0.333,1","1,0.333,0.333,0.333,1,0.333,0.333,0.333,1","1",""
"","html-keyboard-response","199","92562","0.0-199.0","3X3OR7WPZ0M6TCB0IC3GGRNHPU2L8U","A2APG8MSLJ6G2K","3THR0FZ95PF7SK0MYRNAOUHTWDJOLG","","null","<img src=""img/flower4.png"" style=""width:200px;border:14px solid red;"">","null","","","","","","","","",""
"","image-keyboard-response","200","93099","0.0-200.0","3X3OR7WPZ0M6TCB0IC3GGRNHPU2L8U","A2APG8MSLJ6G2K","3THR0FZ95PF7SK0MYRNAOUHTWDJOLG","","536.5","img/flower4.png","74","537","1","1","1","1","1,0.333,0.333,0.333,1,0.333,0.333,0.333,1","1,0.333,0.333,0.333,1,0.333,0.333,0.333,1","1",""
"","html-keyboard-response","201","93400","0.0-201.0","3X3OR7WPZ0M6TCB0IC3GGRNHPU2L8U","A2APG8MSLJ6G2K","3THR0FZ95PF7SK0MYRNAOUHTWDJOLG","","null","<img src=""img/flower4.png"" style=""width:200px; border:14px solid green;"">","null","","","","","","","","",""
"","image-keyboard-response","202","93652","0.0-202.0","3X3OR7WPZ0M6TCB0IC3GGRNHPU2L8U","A2APG8MSLJ6G2K","3THR0FZ95PF7SK0MYRNAOUHTWDJOLG","","251.19999980926514","img/flower6.png","74","251.79999995231628","1","0","2","1","1,0.333,0.333,0.333,1,0.333,0.333,0.333,1","1,0.333,0.333,0.333,1,0.333,0.333,0.333,1","1",""
"","html-keyboard-response","203","93953","0.0-203.0","3X3OR7WPZ0M6TCB0IC3GGRNHPU2L8U","A2APG8MSLJ6G2K","3THR0FZ95PF7SK0MYRNAOUHTWDJOLG","","null","<img src=""img/flower6.png"" style=""width:200px;border:14px solid red;"">","null","","","","","","","","",""
"","image-keyboard-response","204","94972","0.0-204.0","3X3OR7WPZ0M6TCB0IC3GGRNHPU2L8U","A2APG8MSLJ6G2K","3THR0FZ95PF7SK0MYRNAOUHTWDJOLG","","1018.2000000476837","img/flower6.png","75","1018.5999999046326","2","1","2","1","1,0.333,0.333,0.333,1,0.333,0.333,0.333,1","1,0.333,0.333,0.333,1,0.333,0.333,0.333,1","1",""
"","html-keyboard-response","205","95274","0.0-205.0","3X3OR7WPZ0M6TCB0IC3GGRNHPU2L8U","A2APG8MSLJ6G2K","3THR0FZ95PF7SK0MYRNAOUHTWDJOLG","","null","<img src=""img/flower6.png"" style=""width:200px; border:14px solid green;"">","null","","","","","","","","",""
"","image-keyboard-response","206","95500","0.0-206.0","3X3OR7WPZ0M6TCB0IC3GGRNHPU2L8U","A2APG8MSLJ6G2K","3THR0FZ95PF7SK0MYRNAOUHTWDJOLG","","225.09999990463257","img/flower2.png","75","226","2","0","3","1","1,0.333,0.333,0.333,1,0.333,0.333,0.333,1","1,0.333,0.333,0.333,1,0.333,0.333,0.333,1","1",""
"","html-keyboard-response","207","95801","0.0-207.0","3X3OR7WPZ0M6TCB0IC3GGRNHPU2L8U","A2APG8MSLJ6G2K","3THR0FZ95PF7SK0MYRNAOUHTWDJOLG","","null","<img src=""img/flower2.png"" style=""width:200px;border:14px solid red;"">","null","","","","","","","","",""
"","image-keyboard-response","208","96115","0.0-208.0","3X3OR7WPZ0M6TCB0IC3GGRNHPU2L8U","A2APG8MSLJ6G2K","3THR0FZ95PF7SK0MYRNAOUHTWDJOLG","","313.09999990463257","img/flower6.png","76","313.60000014305115","3","0","2","1","1,0.333,0.333,0.333,1,0.333,0.333,0.333,1","1,0.333,0.333,0.333,1,0.333,0.333,0.333,1","1",""
"","html-keyboard-response","209","96417","0.0-209.0","3X3OR7WPZ0M6TCB0IC3GGRNHPU2L8U","A2APG8MSLJ6G2K","3THR0FZ95PF7SK0MYRNAOUHTWDJOLG","","null","<img src=""img/flower6.png"" style=""width:200px;border:14px solid red;"">","null","","","","","","","","",""
"","image-keyboard-response","210","96820","0.0-210.0","3X3OR7WPZ0M6TCB0IC3GGRNHPU2L8U","A2APG8MSLJ6G2K","3THR0FZ95PF7SK0MYRNAOUHTWDJOLG","","402.89999985694885","img/flower6.png","74","403.59999990463257","1","1","2","1","1,0.333,0.333,0.333,1,0.333,0.333,0.333,1","1,0.333,0.333,0.333,1,0.333,0.333,0.333,1","1",""
"","html-keyboard-response","211","97122","0.0-211.0","3X3OR7WPZ0M6TCB0IC3GGRNHPU2L8U","A2APG8MSLJ6G2K","3THR0FZ95PF7SK0MYRNAOUHTWDJOLG","","null","<img src=""img/flower6.png"" style=""width:200px; border:14px solid green;"">","null","","","","","","","","",""
"","image-keyboard-response","212","97388","0.0-212.0","3X3OR7WPZ0M6TCB0IC3GGRNHPU2L8U","A2APG8MSLJ6G2K","3THR0FZ95PF7SK0MYRNAOUHTWDJOLG","","265.19999980926514","img/flower6.png","74","266","1","0","2","1","1,0.333,0.333,0.333,1,0.333,0.333,0.333,1","1,0.333,0.333,0.333,1,0.333,0.333,0.333,1","1",""
"","html-keyboard-response","213","97690","0.0-213.0","3X3OR7WPZ0M6TCB0IC3GGRNHPU2L8U","A2APG8MSLJ6G2K","3THR0FZ95PF7SK0MYRNAOUHTWDJOLG","","null","<img src=""img/flower6.png"" style=""width:200px;border:14px solid red;"">","null","","","","","","","","",""
"","image-keyboard-response","214","98284","0.0-214.0","3X3OR7WPZ0M6TCB0IC3GGRNHPU2L8U","A2APG8MSLJ6G2K","3THR0FZ95PF7SK0MYRNAOUHTWDJOLG","","593.9000000953674","img/flower4.png","75","594.5","2","0","1","1","1,0.333,0.333,0.333,1,0.333,0.333,0.333,1","1,0.333,0.333,0.333,1,0.333,0.333,0.333,1","1",""
"","html-keyboard-response","215","98586","0.0-215.0","3X3OR7WPZ0M6TCB0IC3GGRNHPU2L8U","A2APG8MSLJ6G2K","3THR0FZ95PF7SK0MYRNAOUHTWDJOLG","","null","<img src=""img/flower4.png"" style=""width:200px;border:14px solid red;"">","null","","","","","","","","",""
"","image-keyboard-response","216","99012","0.0-216.0","3X3OR7WPZ0M6TCB0IC3GGRNHPU2L8U","A2APG8MSLJ6G2K","3THR0FZ95PF7SK0MYRNAOUHTWDJOLG","","425.40000009536743","img/flower4.png","76","426.10000014305115","3","0","1","1","1,0.333,0.333,0.333,1,0.333,0.333,0.333,1","1,0.333,0.333,0.333,1,0.333,0.333,0.333,1","1",""
"","html-keyboard-response","217","99314","0.0-217.0","3X3OR7WPZ0M6TCB0IC3GGRNHPU2L8U","A2APG8MSLJ6G2K","3THR0FZ95PF7SK0MYRNAOUHTWDJOLG","","null","<img src=""img/flower4.png"" style=""width:200px;border:14px solid red;"">","null","","","","","","","","",""
"","image-keyboard-response","218","99732","0.0-218.0","3X3OR7WPZ0M6TCB0IC3GGRNHPU2L8U","A2APG8MSLJ6G2K","3THR0FZ95PF7SK0MYRNAOUHTWDJOLG","","417.90000009536743","img/flower2.png","74","418.39999985694885","1","1","3","1","1,0.333,0.333,0.333,1,0.333,0.333,0.333,1","1,0.333,0.333,0.333,1,0.333,0.333,0.333,1","1",""
"","html-keyboard-response","219","100034","0.0-219.0","3X3OR7WPZ0M6TCB0IC3GGRNHPU2L8U","A2APG8MSLJ6G2K","3THR0FZ95PF7SK0MYRNAOUHTWDJOLG","","null","<img src=""img/flower2.png"" style=""width:200px; border:14px solid green;"">","null","","","","","","","","",""
"","image-keyboard-response","220","100324","0.0-220.0","3X3OR7WPZ0M6TCB0IC3GGRNHPU2L8U","A2APG8MSLJ6G2K","3THR0FZ95PF7SK0MYRNAOUHTWDJOLG","","289.60000014305115","img/flower2.png","74","290.09999990463257","1","1","3","1","1,0.333,0.333,0.333,1,0.333,0.333,0.333,1","1,0.333,0.333,0.333,1,0.333,0.333,0.333,1","1",""
"","html-keyboard-response","221","100626","0.0-221.0","3X3OR7WPZ0M6TCB0IC3GGRNHPU2L8U","A2APG8MSLJ6G2K","3THR0FZ95PF7SK0MYRNAOUHTWDJOLG","","null","<img src=""img/flower2.png"" style=""width:200px; border:14px solid green;"">","null","","","","","","","","",""
"","image-keyboard-response","222","100932","0.0-222.0","3X3OR7WPZ0M6TCB0IC3GGRNHPU2L8U","A2APG8MSLJ6G2K","3THR0FZ95PF7SK0MYRNAOUHTWDJOLG","","306.10000014305115","img/flower2.png","74","306.7000000476837","1","0","3","1","1,0.333,0.333,0.333,1,0.333,0.333,0.333,1","1,0.333,0.333,0.333,1,0.333,0.333,0.333,1","1",""
"","html-keyboard-response","223","101234","0.0-223.0","3X3OR7WPZ0M6TCB0IC3GGRNHPU2L8U","A2APG8MSLJ6G2K","3THR0FZ95PF7SK0MYRNAOUHTWDJOLG","","null","<img src=""img/flower2.png"" style=""width:200px;border:14px solid red;"">","null","","","","","","","","",""
"","image-keyboard-response","224","101732","0.0-224.0","3X3OR7WPZ0M6TCB0IC3GGRNHPU2L8U","A2APG8MSLJ6G2K","3THR0FZ95PF7SK0MYRNAOUHTWDJOLG","","497.2000000476837","img/flower4.png","75","497.7999999523163","2","1","1","1","1,0.333,0.333,0.333,1,0.333,0.333,0.333,1","1,0.333,0.333,0.333,1,0.333,0.333,0.333,1","1",""
"","html-keyboard-response","225","102033","0.0-225.0","3X3OR7WPZ0M6TCB0IC3GGRNHPU2L8U","A2APG8MSLJ6G2K","3THR0FZ95PF7SK0MYRNAOUHTWDJOLG","","null","<img src=""img/flower4.png"" style=""width:200px; border:14px solid green;"">","null","","","","","","","","",""
"","image-keyboard-response","226","102380","0.0-226.0","3X3OR7WPZ0M6TCB0IC3GGRNHPU2L8U","A2APG8MSLJ6G2K","3THR0FZ95PF7SK0MYRNAOUHTWDJOLG","","346.59999990463257","img/flower2.png","75","347.2000000476837","2","1","3","1","1,0.333,0.333,0.333,1,0.333,0.333,0.333,1","1,0.333,0.333,0.333,1,0.333,0.333,0.333,1","1",""
"","html-keyboard-response","227","102682","0.0-227.0","3X3OR7WPZ0M6TCB0IC3GGRNHPU2L8U","A2APG8MSLJ6G2K","3THR0FZ95PF7SK0MYRNAOUHTWDJOLG","","null","<img src=""img/flower2.png"" style=""width:200px; border:14px solid green;"">","null","","","","","","","","",""
"","image-keyboard-response","228","102988","0.0-228.0","3X3OR7WPZ0M6TCB0IC3GGRNHPU2L8U","A2APG8MSLJ6G2K","3THR0FZ95PF7SK0MYRNAOUHTWDJOLG","","306","img/flower2.png","75","306.59999990463257","2","0","3","1","1,0.333,0.333,0.333,1,0.333,0.333,0.333,1","1,0.333,0.333,0.333,1,0.333,0.333,0.333,1","1",""
"","html-keyboard-response","229","103289","0.0-229.0","3X3OR7WPZ0M6TCB0IC3GGRNHPU2L8U","A2APG8MSLJ6G2K","3THR0FZ95PF7SK0MYRNAOUHTWDJOLG","","null","<img src=""img/flower2.png"" style=""width:200px;border:14px solid red;"">","null","","","","","","","","",""
"","image-keyboard-response","230","103692","0.0-230.0","3X3OR7WPZ0M6TCB0IC3GGRNHPU2L8U","A2APG8MSLJ6G2K","3THR0FZ95PF7SK0MYRNAOUHTWDJOLG","","402.60000014305115","img/flower4.png","76","403.2000000476837","3","0","1","1","1,0.333,0.333,0.333,1,0.333,0.333,0.333,1","1,0.333,0.333,0.333,1,0.333,0.333,0.333,1","1",""
"","html-keyboard-response","231","103994","0.0-231.0","3X3OR7WPZ0M6TCB0IC3GGRNHPU2L8U","A2APG8MSLJ6G2K","3THR0FZ95PF7SK0MYRNAOUHTWDJOLG","","null","<img src=""img/flower4.png"" style=""width:200px;border:14px solid red;"">","null","","","","","","","","",""
"","image-keyboard-response","232","104405","0.0-232.0","3X3OR7WPZ0M6TCB0IC3GGRNHPU2L8U","A2APG8MSLJ6G2K","3THR0FZ95PF7SK0MYRNAOUHTWDJOLG","","409.90000009536743","img/flower2.png","75","410.40000009536743","2","0","3","1","1,0.333,0.333,0.333,1,0.333,0.333,0.333,1","1,0.333,0.333,0.333,1,0.333,0.333,0.333,1","1",""
"","html-keyboard-response","233","104706","0.0-233.0","3X3OR7WPZ0M6TCB0IC3GGRNHPU2L8U","A2APG8MSLJ6G2K","3THR0FZ95PF7SK0MYRNAOUHTWDJOLG","","null","<img src=""img/flower2.png"" style=""width:200px;border:14px solid red;"">","null","","","","","","","","",""
"","image-keyboard-response","234","105580","0.0-234.0","3X3OR7WPZ0M6TCB0IC3GGRNHPU2L8U","A2APG8MSLJ6G2K","3THR0FZ95PF7SK0MYRNAOUHTWDJOLG","","873.5","img/flower2.png","74","874.2000000476837","1","0","3","1","1,0.333,0.333,0.333,1,0.333,0.333,0.333,1","1,0.333,0.333,0.333,1,0.333,0.333,0.333,1","1",""
"","html-keyboard-response","235","105882","0.0-235.0","3X3OR7WPZ0M6TCB0IC3GGRNHPU2L8U","A2APG8MSLJ6G2K","3THR0FZ95PF7SK0MYRNAOUHTWDJOLG","","null","<img src=""img/flower2.png"" style=""width:200px;border:14px solid red;"">","null","","","","","","","","",""
"","image-keyboard-response","236","106380","0.0-236.0","3X3OR7WPZ0M6TCB0IC3GGRNHPU2L8U","A2APG8MSLJ6G2K","3THR0FZ95PF7SK0MYRNAOUHTWDJOLG","","497.40000009536743","img/flower4.png","75","498.09999990463257","2","1","1","1","1,0.333,0.333,0.333,1,0.333,0.333,0.333,1","1,0.333,0.333,0.333,1,0.333,0.333,0.333,1","1",""
"","html-keyboard-response","237","106682","0.0-237.0","3X3OR7WPZ0M6TCB0IC3GGRNHPU2L8U","A2APG8MSLJ6G2K","3THR0FZ95PF7SK0MYRNAOUHTWDJOLG","","null","<img src=""img/flower4.png"" style=""width:200px; border:14px solid green;"">","null","","","","","","","","",""
"","image-keyboard-response","238","107027","0.0-238.0","3X3OR7WPZ0M6TCB0IC3GGRNHPU2L8U","A2APG8MSLJ6G2K","3THR0FZ95PF7SK0MYRNAOUHTWDJOLG","","345.39999985694885","img/flower4.png","75","345.90000009536743","2","0","1","1","1,0.333,0.333,0.333,1,0.333,0.333,0.333,1","1,0.333,0.333,0.333,1,0.333,0.333,0.333,1","1",""
"","html-keyboard-response","239","107328","0.0-239.0","3X3OR7WPZ0M6TCB0IC3GGRNHPU2L8U","A2APG8MSLJ6G2K","3THR0FZ95PF7SK0MYRNAOUHTWDJOLG","","null","<img src=""img/flower4.png"" style=""width:200px;border:14px solid red;"">","null","","","","","","","","",""
"","image-keyboard-response","240","107684","0.0-240.0","3X3OR7WPZ0M6TCB0IC3GGRNHPU2L8U","A2APG8MSLJ6G2K","3THR0FZ95PF7SK0MYRNAOUHTWDJOLG","","354.39999985694885","img/flower4.png","76","355.09999990463257","3","0","1","1","1,0.333,0.333,0.333,1,0.333,0.333,0.333,1","1,0.333,0.333,0.333,1,0.333,0.333,0.333,1","1",""
"","html-keyboard-response","241","107985","0.0-241.0","3X3OR7WPZ0M6TCB0IC3GGRNHPU2L8U","A2APG8MSLJ6G2K","3THR0FZ95PF7SK0MYRNAOUHTWDJOLG","","null","<img src=""img/flower4.png"" style=""width:200px;border:14px solid red;"">","null","","","","","","","","",""
"","image-keyboard-response","242","108644","0.0-242.0","3X3OR7WPZ0M6TCB0IC3GGRNHPU2L8U","A2APG8MSLJ6G2K","3THR0FZ95PF7SK0MYRNAOUHTWDJOLG","","659","img/flower4.png","76","659.7000000476837","3","0","1","1","1,0.333,0.333,0.333,1,0.333,0.333,0.333,1","1,0.333,0.333,0.333,1,0.333,0.333,0.333,1","1",""
"","html-keyboard-response","243","108946","0.0-243.0","3X3OR7WPZ0M6TCB0IC3GGRNHPU2L8U","A2APG8MSLJ6G2K","3THR0FZ95PF7SK0MYRNAOUHTWDJOLG","","null","<img src=""img/flower4.png"" style=""width:200px;border:14px solid red;"">","null","","","","","","","","",""
"","image-keyboard-response","244","109252","0.0-244.0","3X3OR7WPZ0M6TCB0IC3GGRNHPU2L8U","A2APG8MSLJ6G2K","3THR0FZ95PF7SK0MYRNAOUHTWDJOLG","","305.5","img/flower4.png","74","306.2000000476837","1","1","1","1","1,0.333,0.333,0.333,1,0.333,0.333,0.333,1","1,0.333,0.333,0.333,1,0.333,0.333,0.333,1","1",""
"","html-keyboard-response","245","109553","0.0-245.0","3X3OR7WPZ0M6TCB0IC3GGRNHPU2L8U","A2APG8MSLJ6G2K","3THR0FZ95PF7SK0MYRNAOUHTWDJOLG","","null","<img src=""img/flower4.png"" style=""width:200px; border:14px solid green;"">","null","","","","","","","","",""
"","image-keyboard-response","246","110172","0.0-246.0","3X3OR7WPZ0M6TCB0IC3GGRNHPU2L8U","A2APG8MSLJ6G2K","3THR0FZ95PF7SK0MYRNAOUHTWDJOLG","","618.6000001430511","img/flower6.png","74","619.1999998092651","1","0","2","1","1,0.333,0.333,0.333,1,0.333,0.333,0.333,1","1,0.333,0.333,0.333,1,0.333,0.333,0.333,1","1",""
"","html-keyboard-response","247","110474","0.0-247.0","3X3OR7WPZ0M6TCB0IC3GGRNHPU2L8U","A2APG8MSLJ6G2K","3THR0FZ95PF7SK0MYRNAOUHTWDJOLG","","null","<img src=""img/flower6.png"" style=""width:200px;border:14px solid red;"">","null","","","","","","","","",""
"","image-keyboard-response","248","110756","0.0-248.0","3X3OR7WPZ0M6TCB0IC3GGRNHPU2L8U","A2APG8MSLJ6G2K","3THR0FZ95PF7SK0MYRNAOUHTWDJOLG","","282.2000000476837","img/flower4.png","75","282.7000000476837","2","0","1","1","1,0.333,0.333,0.333,1,0.333,0.333,0.333,1","1,0.333,0.333,0.333,1,0.333,0.333,0.333,1","1",""
"","html-keyboard-response","249","111058","0.0-249.0","3X3OR7WPZ0M6TCB0IC3GGRNHPU2L8U","A2APG8MSLJ6G2K","3THR0FZ95PF7SK0MYRNAOUHTWDJOLG","","null","<img src=""img/flower4.png"" style=""width:200px;border:14px solid red;"">","null","","","","","","","","",""
"","image-keyboard-response","250","111588","0.0-250.0","3X3OR7WPZ0M6TCB0IC3GGRNHPU2L8U","A2APG8MSLJ6G2K","3THR0FZ95PF7SK0MYRNAOUHTWDJOLG","","529.8000001907349","img/flower4.png","75","530.3999998569489","2","0","1","1","1,0.333,0.333,0.333,1,0.333,0.333,0.333,1","1,0.333,0.333,0.333,1,0.333,0.333,0.333,1","1",""
"","html-keyboard-response","251","111889","0.0-251.0","3X3OR7WPZ0M6TCB0IC3GGRNHPU2L8U","A2APG8MSLJ6G2K","3THR0FZ95PF7SK0MYRNAOUHTWDJOLG","","null","<img src=""img/flower4.png"" style=""width:200px;border:14px solid red;"">","null","","","","","","","","",""
"","image-keyboard-response","252","112692","0.0-252.0","3X3OR7WPZ0M6TCB0IC3GGRNHPU2L8U","A2APG8MSLJ6G2K","3THR0FZ95PF7SK0MYRNAOUHTWDJOLG","","802.2999999523163","img/flower4.png","76","802.9000000953674","3","1","1","1","1,0.333,0.333,0.333,1,0.333,0.333,0.333,1","1,0.333,0.333,0.333,1,0.333,0.333,0.333,1","1",""
"","html-keyboard-response","253","112993","0.0-253.0","3X3OR7WPZ0M6TCB0IC3GGRNHPU2L8U","A2APG8MSLJ6G2K","3THR0FZ95PF7SK0MYRNAOUHTWDJOLG","","null","<img src=""img/flower4.png"" style=""width:200px; border:14px solid green;"">","null","","","","","","","","",""
"","image-keyboard-response","254","114092","0.0-254.0","3X3OR7WPZ0M6TCB0IC3GGRNHPU2L8U","A2APG8MSLJ6G2K","3THR0FZ95PF7SK0MYRNAOUHTWDJOLG","","1098","img/flower6.png","74","1098.7000000476837","1","0","2","1","1,0.333,0.333,0.333,1,0.333,0.333,0.333,1","1,0.333,0.333,0.333,1,0.333,0.333,0.333,1","1",""
"","html-keyboard-response","255","114393","0.0-255.0","3X3OR7WPZ0M6TCB0IC3GGRNHPU2L8U","A2APG8MSLJ6G2K","3THR0FZ95PF7SK0MYRNAOUHTWDJOLG","","null","<img src=""img/flower6.png"" style=""width:200px;border:14px solid red;"">","null","","","","","","","","",""
"","image-keyboard-response","256","114836","0.0-256.0","3X3OR7WPZ0M6TCB0IC3GGRNHPU2L8U","A2APG8MSLJ6G2K","3THR0FZ95PF7SK0MYRNAOUHTWDJOLG","","442.7999999523163","img/flower6.png","76","443.30000019073486","3","0","2","1","1,0.333,0.333,0.333,1,0.333,0.333,0.333,1","1,0.333,0.333,0.333,1,0.333,0.333,0.333,1","1",""
"","html-keyboard-response","257","115138","0.0-257.0","3X3OR7WPZ0M6TCB0IC3GGRNHPU2L8U","A2APG8MSLJ6G2K","3THR0FZ95PF7SK0MYRNAOUHTWDJOLG","","null","<img src=""img/flower6.png"" style=""width:200px;border:14px solid red;"">","null","","","","","","","","",""
"","image-keyboard-response","258","115596","0.0-258.0","3X3OR7WPZ0M6TCB0IC3GGRNHPU2L8U","A2APG8MSLJ6G2K","3THR0FZ95PF7SK0MYRNAOUHTWDJOLG","","457.2999999523163","img/flower2.png","75","457.90000009536743","2","0","3","1","1,0.333,0.333,0.333,1,0.333,0.333,0.333,1","1,0.333,0.333,0.333,1,0.333,0.333,0.333,1","1",""
"","html-keyboard-response","259","115898","0.0-259.0","3X3OR7WPZ0M6TCB0IC3GGRNHPU2L8U","A2APG8MSLJ6G2K","3THR0FZ95PF7SK0MYRNAOUHTWDJOLG","","null","<img src=""img/flower2.png"" style=""width:200px;border:14px solid red;"">","null","","","","","","","","",""
"","image-keyboard-response","260","116276","0.0-260.0","3X3OR7WPZ0M6TCB0IC3GGRNHPU2L8U","A2APG8MSLJ6G2K","3THR0FZ95PF7SK0MYRNAOUHTWDJOLG","","377.59999990463257","img/flower2.png","76","378.2000000476837","3","1","3","1","1,0.333,0.333,0.333,1,0.333,0.333,0.333,1","1,0.333,0.333,0.333,1,0.333,0.333,0.333,1","1",""
"","html-keyboard-response","261","116577","0.0-261.0","3X3OR7WPZ0M6TCB0IC3GGRNHPU2L8U","A2APG8MSLJ6G2K","3THR0FZ95PF7SK0MYRNAOUHTWDJOLG","","null","<img src=""img/flower2.png"" style=""width:200px; border:14px solid green;"">","null","","","","","","","","",""
"","image-keyboard-response","262","116996","0.0-262.0","3X3OR7WPZ0M6TCB0IC3GGRNHPU2L8U","A2APG8MSLJ6G2K","3THR0FZ95PF7SK0MYRNAOUHTWDJOLG","","418.40000009536743","img/flower6.png","76","419","3","1","2","1","1,0.333,0.333,0.333,1,0.333,0.333,0.333,1","1,0.333,0.333,0.333,1,0.333,0.333,0.333,1","1",""
"","html-keyboard-response","263","117297","0.0-263.0","3X3OR7WPZ0M6TCB0IC3GGRNHPU2L8U","A2APG8MSLJ6G2K","3THR0FZ95PF7SK0MYRNAOUHTWDJOLG","","null","<img src=""img/flower6.png"" style=""width:200px; border:14px solid green;"">","null","","","","","","","","",""
"","image-keyboard-response","264","117644","0.0-264.0","3X3OR7WPZ0M6TCB0IC3GGRNHPU2L8U","A2APG8MSLJ6G2K","3THR0FZ95PF7SK0MYRNAOUHTWDJOLG","","346.09999990463257","img/flower2.png","76","346.5","3","1","3","1","1,0.333,0.333,0.333,1,0.333,0.333,0.333,1","1,0.333,0.333,0.333,1,0.333,0.333,0.333,1","1",""
"","html-keyboard-response","265","117946","0.0-265.0","3X3OR7WPZ0M6TCB0IC3GGRNHPU2L8U","A2APG8MSLJ6G2K","3THR0FZ95PF7SK0MYRNAOUHTWDJOLG","","null","<img src=""img/flower2.png"" style=""width:200px; border:14px solid green;"">","null","","","","","","","","",""
"","image-keyboard-response","266","118212","0.0-266.0","3X3OR7WPZ0M6TCB0IC3GGRNHPU2L8U","A2APG8MSLJ6G2K","3THR0FZ95PF7SK0MYRNAOUHTWDJOLG","","266.09999990463257","img/flower2.png","76","266.80000019073486","3","1","3","1","1,0.333,0.333,0.333,1,0.333,0.333,0.333,1","1,0.333,0.333,0.333,1,0.333,0.333,0.333,1","1",""
"","html-keyboard-response","267","118513","0.0-267.0","3X3OR7WPZ0M6TCB0IC3GGRNHPU2L8U","A2APG8MSLJ6G2K","3THR0FZ95PF7SK0MYRNAOUHTWDJOLG","","null","<img src=""img/flower2.png"" style=""width:200px; border:14px solid green;"">","null","","","","","","","","",""
"","image-keyboard-response","268","118588","0.0-268.0","3X3OR7WPZ0M6TCB0IC3GGRNHPU2L8U","A2APG8MSLJ6G2K","3THR0FZ95PF7SK0MYRNAOUHTWDJOLG","","74.20000004768372","img/flower4.png","76","75","3","0","1","1","1,0.333,0.333,0.333,1,0.333,0.333,0.333,1","1,0.333,0.333,0.333,1,0.333,0.333,0.333,1","1",""
"","html-keyboard-response","269","118891","0.0-269.0","3X3OR7WPZ0M6TCB0IC3GGRNHPU2L8U","A2APG8MSLJ6G2K","3THR0FZ95PF7SK0MYRNAOUHTWDJOLG","","null","<img src=""img/flower4.png"" style=""width:200px;border:14px solid red;"">","null","","","","","","","","",""
"","image-keyboard-response","270","119493","0.0-270.0","3X3OR7WPZ0M6TCB0IC3GGRNHPU2L8U","A2APG8MSLJ6G2K","3THR0FZ95PF7SK0MYRNAOUHTWDJOLG","","601.2000000476837","img/flower2.png","75","601.7999999523163","2","1","3","1","1,0.333,0.333,0.333,1,0.333,0.333,0.333,1","1,0.333,0.333,0.333,1,0.333,0.333,0.333,1","1",""
"","html-keyboard-response","271","119794","0.0-271.0","3X3OR7WPZ0M6TCB0IC3GGRNHPU2L8U","A2APG8MSLJ6G2K","3THR0FZ95PF7SK0MYRNAOUHTWDJOLG","","null","<img src=""img/flower2.png"" style=""width:200px; border:14px solid green;"">","null","","","","","","","","",""
"","image-keyboard-response","272","120085","0.0-272.0","3X3OR7WPZ0M6TCB0IC3GGRNHPU2L8U","A2APG8MSLJ6G2K","3THR0FZ95PF7SK0MYRNAOUHTWDJOLG","","290.2999999523163","img/flower6.png","75","291","2","1","2","1","1,0.333,0.333,0.333,1,0.333,0.333,0.333,1","1,0.333,0.333,0.333,1,0.333,0.333,0.333,1","1",""
"","html-keyboard-response","273","120386","0.0-273.0","3X3OR7WPZ0M6TCB0IC3GGRNHPU2L8U","A2APG8MSLJ6G2K","3THR0FZ95PF7SK0MYRNAOUHTWDJOLG","","null","<img src=""img/flower6.png"" style=""width:200px; border:14px solid green;"">","null","","","","","","","","",""
"","image-keyboard-response","274","120677","0.0-274.0","3X3OR7WPZ0M6TCB0IC3GGRNHPU2L8U","A2APG8MSLJ6G2K","3THR0FZ95PF7SK0MYRNAOUHTWDJOLG","","289.90000009536743","img/flower6.png","75","290.5","2","1","2","1","1,0.333,0.333,0.333,1,0.333,0.333,0.333,1","1,0.333,0.333,0.333,1,0.333,0.333,0.333,1","1",""
"","html-keyboard-response","275","120979","0.0-275.0","3X3OR7WPZ0M6TCB0IC3GGRNHPU2L8U","A2APG8MSLJ6G2K","3THR0FZ95PF7SK0MYRNAOUHTWDJOLG","","null","<img src=""img/flower6.png"" style=""width:200px; border:14px solid green;"">","null","","","","","","","","",""
"","image-keyboard-response","276","121508","0.0-276.0","3X3OR7WPZ0M6TCB0IC3GGRNHPU2L8U","A2APG8MSLJ6G2K","3THR0FZ95PF7SK0MYRNAOUHTWDJOLG","","528.2999999523163","img/flower4.png","76","528.9000000953674","3","0","1","1","1,0.333,0.333,0.333,1,0.333,0.333,0.333,1","1,0.333,0.333,0.333,1,0.333,0.333,0.333,1","1",""
"","html-keyboard-response","277","121809","0.0-277.0","3X3OR7WPZ0M6TCB0IC3GGRNHPU2L8U","A2APG8MSLJ6G2K","3THR0FZ95PF7SK0MYRNAOUHTWDJOLG","","null","<img src=""img/flower4.png"" style=""width:200px;border:14px solid red;"">","null","","","","","","","","",""
"","image-keyboard-response","278","122428","0.0-278.0","3X3OR7WPZ0M6TCB0IC3GGRNHPU2L8U","A2APG8MSLJ6G2K","3THR0FZ95PF7SK0MYRNAOUHTWDJOLG","","618.5999999046326","img/flower6.png","75","619.0999999046326","2","1","2","1","1,0.333,0.333,0.333,1,0.333,0.333,0.333,1","1,0.333,0.333,0.333,1,0.333,0.333,0.333,1","1",""
"","html-keyboard-response","279","122729","0.0-279.0","3X3OR7WPZ0M6TCB0IC3GGRNHPU2L8U","A2APG8MSLJ6G2K","3THR0FZ95PF7SK0MYRNAOUHTWDJOLG","","null","<img src=""img/flower6.png"" style=""width:200px; border:14px solid green;"">","null","","","","","","","","",""
"","image-keyboard-response","280","122964","0.0-280.0","3X3OR7WPZ0M6TCB0IC3GGRNHPU2L8U","A2APG8MSLJ6G2K","3THR0FZ95PF7SK0MYRNAOUHTWDJOLG","","234.5","img/flower4.png","75","235.09999990463257","2","0","1","1","1,0.333,0.333,0.333,1,0.333,0.333,0.333,1","1,0.333,0.333,0.333,1,0.333,0.333,0.333,1","1",""
"","html-keyboard-response","281","123267","0.0-281.0","3X3OR7WPZ0M6TCB0IC3GGRNHPU2L8U","A2APG8MSLJ6G2K","3THR0FZ95PF7SK0MYRNAOUHTWDJOLG","","null","<img src=""img/flower4.png"" style=""width:200px;border:14px solid red;"">","null","","","","","","","","",""
"","image-keyboard-response","282","123629","0.0-282.0","3X3OR7WPZ0M6TCB0IC3GGRNHPU2L8U","A2APG8MSLJ6G2K","3THR0FZ95PF7SK0MYRNAOUHTWDJOLG","","360.89999985694885","img/flower4.png","74","361.5","1","1","1","1","1,0.333,0.333,0.333,1,0.333,0.333,0.333,1","1,0.333,0.333,0.333,1,0.333,0.333,0.333,1","1",""
"","html-keyboard-response","283","123930","0.0-283.0","3X3OR7WPZ0M6TCB0IC3GGRNHPU2L8U","A2APG8MSLJ6G2K","3THR0FZ95PF7SK0MYRNAOUHTWDJOLG","","null","<img src=""img/flower4.png"" style=""width:200px; border:14px solid green;"">","null","","","","","","","","",""
"","image-keyboard-response","284","124300","0.0-284.0","3X3OR7WPZ0M6TCB0IC3GGRNHPU2L8U","A2APG8MSLJ6G2K","3THR0FZ95PF7SK0MYRNAOUHTWDJOLG","","369.90000009536743","img/flower6.png","74","370.60000014305115","1","0","2","1","1,0.333,0.333,0.333,1,0.333,0.333,0.333,1","1,0.333,0.333,0.333,1,0.333,0.333,0.333,1","1",""
"","html-keyboard-response","285","124602","0.0-285.0","3X3OR7WPZ0M6TCB0IC3GGRNHPU2L8U","A2APG8MSLJ6G2K","3THR0FZ95PF7SK0MYRNAOUHTWDJOLG","","null","<img src=""img/flower6.png"" style=""width:200px;border:14px solid red;"">","null","","","","","","","","",""
"","image-keyboard-response","286","124972","0.0-286.0","3X3OR7WPZ0M6TCB0IC3GGRNHPU2L8U","A2APG8MSLJ6G2K","3THR0FZ95PF7SK0MYRNAOUHTWDJOLG","","370.10000014305115","img/flower2.png","75","370.59999990463257","2","1","3","1","1,0.333,0.333,0.333,1,0.333,0.333,0.333,1","1,0.333,0.333,0.333,1,0.333,0.333,0.333,1","1",""
"","html-keyboard-response","287","125274","0.0-287.0","3X3OR7WPZ0M6TCB0IC3GGRNHPU2L8U","A2APG8MSLJ6G2K","3THR0FZ95PF7SK0MYRNAOUHTWDJOLG","","null","<img src=""img/flower2.png"" style=""width:200px; border:14px solid green;"">","null","","","","","","","","",""
"","image-keyboard-response","288","125605","0.0-288.0","3X3OR7WPZ0M6TCB0IC3GGRNHPU2L8U","A2APG8MSLJ6G2K","3THR0FZ95PF7SK0MYRNAOUHTWDJOLG","","330.30000019073486","img/flower2.png","75","330.7999999523163","2","0","3","1","1,0.333,0.333,0.333,1,0.333,0.333,0.333,1","1,0.333,0.333,0.333,1,0.333,0.333,0.333,1","1",""
"","html-keyboard-response","289","125905","0.0-289.0","3X3OR7WPZ0M6TCB0IC3GGRNHPU2L8U","A2APG8MSLJ6G2K","3THR0FZ95PF7SK0MYRNAOUHTWDJOLG","","null","<img src=""img/flower2.png"" style=""width:200px;border:14px solid red;"">","null","","","","","","","","",""
"","image-keyboard-response","290","126268","0.0-290.0","3X3OR7WPZ0M6TCB0IC3GGRNHPU2L8U","A2APG8MSLJ6G2K","3THR0FZ95PF7SK0MYRNAOUHTWDJOLG","","361.89999985694885","img/flower6.png","76","362.5","3","0","2","1","1,0.333,0.333,0.333,1,0.333,0.333,0.333,1","1,0.333,0.333,0.333,1,0.333,0.333,0.333,1","1",""
"","html-keyboard-response","291","126569","0.0-291.0","3X3OR7WPZ0M6TCB0IC3GGRNHPU2L8U","A2APG8MSLJ6G2K","3THR0FZ95PF7SK0MYRNAOUHTWDJOLG","","null","<img src=""img/flower6.png"" style=""width:200px;border:14px solid red;"">","null","","","","","","","","",""
"","image-keyboard-response","292","126828","0.0-292.0","3X3OR7WPZ0M6TCB0IC3GGRNHPU2L8U","A2APG8MSLJ6G2K","3THR0FZ95PF7SK0MYRNAOUHTWDJOLG","","258.59999990463257","img/flower4.png","76","259.40000009536743","3","0","1","1","1,0.333,0.333,0.333,1,0.333,0.333,0.333,1","1,0.333,0.333,0.333,1,0.333,0.333,0.333,1","1",""
"","html-keyboard-response","293","127130","0.0-293.0","3X3OR7WPZ0M6TCB0IC3GGRNHPU2L8U","A2APG8MSLJ6G2K","3THR0FZ95PF7SK0MYRNAOUHTWDJOLG","","null","<img src=""img/flower4.png"" style=""width:200px;border:14px solid red;"">","null","","","","","","","","",""
"","image-keyboard-response","294","127572","0.0-294.0","3X3OR7WPZ0M6TCB0IC3GGRNHPU2L8U","A2APG8MSLJ6G2K","3THR0FZ95PF7SK0MYRNAOUHTWDJOLG","","441.5","img/flower6.png","75","442.19999980926514","2","1","2","1","1,0.333,0.333,0.333,1,0.333,0.333,0.333,1","1,0.333,0.333,0.333,1,0.333,0.333,0.333,1","1",""
"","html-keyboard-response","295","127874","0.0-295.0","3X3OR7WPZ0M6TCB0IC3GGRNHPU2L8U","A2APG8MSLJ6G2K","3THR0FZ95PF7SK0MYRNAOUHTWDJOLG","","null","<img src=""img/flower6.png"" style=""width:200px; border:14px solid green;"">","null","","","","","","","","",""
"","image-keyboard-response","296","128197","0.0-296.0","3X3OR7WPZ0M6TCB0IC3GGRNHPU2L8U","A2APG8MSLJ6G2K","3THR0FZ95PF7SK0MYRNAOUHTWDJOLG","","321.39999985694885","img/flower4.png","75","322","2","1","1","1","1,0.333,0.333,0.333,1,0.333,0.333,0.333,1","1,0.333,0.333,0.333,1,0.333,0.333,0.333,1","1",""
"","html-keyboard-response","297","128498","0.0-297.0","3X3OR7WPZ0M6TCB0IC3GGRNHPU2L8U","A2APG8MSLJ6G2K","3THR0FZ95PF7SK0MYRNAOUHTWDJOLG","","null","<img src=""img/flower4.png"" style=""width:200px; border:14px solid green;"">","null","","","","","","","","",""
"","image-keyboard-response","298","128925","0.0-298.0","3X3OR7WPZ0M6TCB0IC3GGRNHPU2L8U","A2APG8MSLJ6G2K","3THR0FZ95PF7SK0MYRNAOUHTWDJOLG","","426.10000014305115","img/flower2.png","75","426.7000000476837","2","0","3","1","1,0.333,0.333,0.333,1,0.333,0.333,0.333,1","1,0.333,0.333,0.333,1,0.333,0.333,0.333,1","1",""
"","html-keyboard-response","299","129226","0.0-299.0","3X3OR7WPZ0M6TCB0IC3GGRNHPU2L8U","A2APG8MSLJ6G2K","3THR0FZ95PF7SK0MYRNAOUHTWDJOLG","","null","<img src=""img/flower2.png"" style=""width:200px;border:14px solid red;"">","null","","","","","","","","",""
"","image-keyboard-response","300","129508","0.0-300.0","3X3OR7WPZ0M6TCB0IC3GGRNHPU2L8U","A2APG8MSLJ6G2K","3THR0FZ95PF7SK0MYRNAOUHTWDJOLG","","281.40000009536743","img/flower2.png","74","282.10000014305115","1","0","3","1","1,0.333,0.333,0.333,1,0.333,0.333,0.333,1","1,0.333,0.333,0.333,1,0.333,0.333,0.333,1","1",""
"","html-keyboard-response","301","129810","0.0-301.0","3X3OR7WPZ0M6TCB0IC3GGRNHPU2L8U","A2APG8MSLJ6G2K","3THR0FZ95PF7SK0MYRNAOUHTWDJOLG","","null","<img src=""img/flower2.png"" style=""width:200px;border:14px solid red;"">","null","","","","","","","","",""
"","image-keyboard-response","302","130292","0.0-302.0","3X3OR7WPZ0M6TCB0IC3GGRNHPU2L8U","A2APG8MSLJ6G2K","3THR0FZ95PF7SK0MYRNAOUHTWDJOLG","","481.5","img/flower2.png","76","481.89999985694885","3","1","3","1","1,0.333,0.333,0.333,1,0.333,0.333,0.333,1","1,0.333,0.333,0.333,1,0.333,0.333,0.333,1","1",""
"","html-keyboard-response","303","130593","0.0-303.0","3X3OR7WPZ0M6TCB0IC3GGRNHPU2L8U","A2APG8MSLJ6G2K","3THR0FZ95PF7SK0MYRNAOUHTWDJOLG","","null","<img src=""img/flower2.png"" style=""width:200px; border:14px solid green;"">","null","","","","","","","","",""
"","image-keyboard-response","304","130885","0.0-304.0","3X3OR7WPZ0M6TCB0IC3GGRNHPU2L8U","A2APG8MSLJ6G2K","3THR0FZ95PF7SK0MYRNAOUHTWDJOLG","","291.10000014305115","img/flower4.png","76","291.7999999523163","3","0","1","1","1,0.333,0.333,0.333,1,0.333,0.333,0.333,1","1,0.333,0.333,0.333,1,0.333,0.333,0.333,1","1",""
"","html-keyboard-response","305","131186","0.0-305.0","3X3OR7WPZ0M6TCB0IC3GGRNHPU2L8U","A2APG8MSLJ6G2K","3THR0FZ95PF7SK0MYRNAOUHTWDJOLG","","null","<img src=""img/flower4.png"" style=""width:200px;border:14px solid red;"">","null","","","","","","","","",""
"","image-keyboard-response","306","131652","0.0-306.0","3X3OR7WPZ0M6TCB0IC3GGRNHPU2L8U","A2APG8MSLJ6G2K","3THR0FZ95PF7SK0MYRNAOUHTWDJOLG","","465.7999999523163","img/flower2.png","74","466.39999985694885","1","1","3","1","1,0.333,0.333,0.333,1,0.333,0.333,0.333,1","1,0.333,0.333,0.333,1,0.333,0.333,0.333,1","1",""
"","html-keyboard-response","307","131953","0.0-307.0","3X3OR7WPZ0M6TCB0IC3GGRNHPU2L8U","A2APG8MSLJ6G2K","3THR0FZ95PF7SK0MYRNAOUHTWDJOLG","","null","<img src=""img/flower2.png"" style=""width:200px; border:14px solid green;"">","null","","","","","","","","",""
"","image-keyboard-response","308","132268","0.0-308.0","3X3OR7WPZ0M6TCB0IC3GGRNHPU2L8U","A2APG8MSLJ6G2K","3THR0FZ95PF7SK0MYRNAOUHTWDJOLG","","314.5","img/flower6.png","74","314.90000009536743","1","1","2","1","1,0.333,0.333,0.333,1,0.333,0.333,0.333,1","1,0.333,0.333,0.333,1,0.333,0.333,0.333,1","1",""
"","html-keyboard-response","309","132569","0.0-309.0","3X3OR7WPZ0M6TCB0IC3GGRNHPU2L8U","A2APG8MSLJ6G2K","3THR0FZ95PF7SK0MYRNAOUHTWDJOLG","","null","<img src=""img/flower6.png"" style=""width:200px; border:14px solid green;"">","null","","","","","","","","",""
"","image-keyboard-response","310","133036","0.0-310.0","3X3OR7WPZ0M6TCB0IC3GGRNHPU2L8U","A2APG8MSLJ6G2K","3THR0FZ95PF7SK0MYRNAOUHTWDJOLG","","465.7000000476837","img/flower4.png","74","466.2999999523163","1","1","1","1","1,0.333,0.333,0.333,1,0.333,0.333,0.333,1","1,0.333,0.333,0.333,1,0.333,0.333,0.333,1","1",""
"","html-keyboard-response","311","133338","0.0-311.0","3X3OR7WPZ0M6TCB0IC3GGRNHPU2L8U","A2APG8MSLJ6G2K","3THR0FZ95PF7SK0MYRNAOUHTWDJOLG","","null","<img src=""img/flower4.png"" style=""width:200px; border:14px solid green;"">","null","","","","","","","","",""
"","image-keyboard-response","312","133628","0.0-312.0","3X3OR7WPZ0M6TCB0IC3GGRNHPU2L8U","A2APG8MSLJ6G2K","3THR0FZ95PF7SK0MYRNAOUHTWDJOLG","","289.7999999523163","img/flower6.png","74","290.39999985694885","1","0","2","1","1,0.333,0.333,0.333,1,0.333,0.333,0.333,1","1,0.333,0.333,0.333,1,0.333,0.333,0.333,1","1",""
"","html-keyboard-response","313","133930","0.0-313.0","3X3OR7WPZ0M6TCB0IC3GGRNHPU2L8U","A2APG8MSLJ6G2K","3THR0FZ95PF7SK0MYRNAOUHTWDJOLG","","null","<img src=""img/flower6.png"" style=""width:200px;border:14px solid red;"">","null","","","","","","","","",""
"","image-keyboard-response","314","134220","0.0-314.0","3X3OR7WPZ0M6TCB0IC3GGRNHPU2L8U","A2APG8MSLJ6G2K","3THR0FZ95PF7SK0MYRNAOUHTWDJOLG","","289.90000009536743","img/flower6.png","75","290.5","2","1","2","1","1,0.333,0.333,0.333,1,0.333,0.333,0.333,1","1,0.333,0.333,0.333,1,0.333,0.333,0.333,1","1",""
"","html-keyboard-response","315","134521","0.0-315.0","3X3OR7WPZ0M6TCB0IC3GGRNHPU2L8U","A2APG8MSLJ6G2K","3THR0FZ95PF7SK0MYRNAOUHTWDJOLG","","null","<img src=""img/flower6.png"" style=""width:200px; border:14px solid green;"">","null","","","","","","","","",""
"","image-keyboard-response","316","134885","0.0-316.0","3X3OR7WPZ0M6TCB0IC3GGRNHPU2L8U","A2APG8MSLJ6G2K","3THR0FZ95PF7SK0MYRNAOUHTWDJOLG","","362.5","img/flower4.png","75","363.30000019073486","2","0","1","1","1,0.333,0.333,0.333,1,0.333,0.333,0.333,1","1,0.333,0.333,0.333,1,0.333,0.333,0.333,1","1",""
"","html-keyboard-response","317","135186","0.0-317.0","3X3OR7WPZ0M6TCB0IC3GGRNHPU2L8U","A2APG8MSLJ6G2K","3THR0FZ95PF7SK0MYRNAOUHTWDJOLG","","null","<img src=""img/flower4.png"" style=""width:200px;border:14px solid red;"">","null","","","","","","","","",""
"","image-keyboard-response","318","135588","0.0-318.0","3X3OR7WPZ0M6TCB0IC3GGRNHPU2L8U","A2APG8MSLJ6G2K","3THR0FZ95PF7SK0MYRNAOUHTWDJOLG","","401.40000009536743","img/flower6.png","76","402.10000014305115","3","0","2","1","1,0.333,0.333,0.333,1,0.333,0.333,0.333,1","1,0.333,0.333,0.333,1,0.333,0.333,0.333,1","1",""
"","html-keyboard-response","319","135890","0.0-319.0","3X3OR7WPZ0M6TCB0IC3GGRNHPU2L8U","A2APG8MSLJ6G2K","3THR0FZ95PF7SK0MYRNAOUHTWDJOLG","","null","<img src=""img/flower6.png"" style=""width:200px;border:14px solid red;"">","null","","","","","","","","",""
"","image-keyboard-response","320","136405","0.0-320.0","3X3OR7WPZ0M6TCB0IC3GGRNHPU2L8U","A2APG8MSLJ6G2K","3THR0FZ95PF7SK0MYRNAOUHTWDJOLG","","514.7000000476837","img/flower4.png","75","515.5999999046326","2","1","1","1","1,0.333,0.333,0.333,1,0.333,0.333,0.333,1","1,0.333,0.333,0.333,1,0.333,0.333,0.333,1","1",""
"","html-keyboard-response","321","136707","0.0-321.0","3X3OR7WPZ0M6TCB0IC3GGRNHPU2L8U","A2APG8MSLJ6G2K","3THR0FZ95PF7SK0MYRNAOUHTWDJOLG","","null","<img src=""img/flower4.png"" style=""width:200px; border:14px solid green;"">","null","","","","","","","","",""
"","image-keyboard-response","322","137076","0.0-322.0","3X3OR7WPZ0M6TCB0IC3GGRNHPU2L8U","A2APG8MSLJ6G2K","3THR0FZ95PF7SK0MYRNAOUHTWDJOLG","","368.5","img/flower6.png","75","369","2","1","2","1","1,0.333,0.333,0.333,1,0.333,0.333,0.333,1","1,0.333,0.333,0.333,1,0.333,0.333,0.333,1","1",""
"","html-keyboard-response","323","137377","0.0-323.0","3X3OR7WPZ0M6TCB0IC3GGRNHPU2L8U","A2APG8MSLJ6G2K","3THR0FZ95PF7SK0MYRNAOUHTWDJOLG","","null","<img src=""img/flower6.png"" style=""width:200px; border:14px solid green;"">","null","","","","","","","","",""
"","image-keyboard-response","324","137724","0.0-324.0","3X3OR7WPZ0M6TCB0IC3GGRNHPU2L8U","A2APG8MSLJ6G2K","3THR0FZ95PF7SK0MYRNAOUHTWDJOLG","","346.59999990463257","img/flower2.png","75","347.2000000476837","2","0","3","1","1,0.333,0.333,0.333,1,0.333,0.333,0.333,1","1,0.333,0.333,0.333,1,0.333,0.333,0.333,1","1",""
"","html-keyboard-response","325","138026","0.0-325.0","3X3OR7WPZ0M6TCB0IC3GGRNHPU2L8U","A2APG8MSLJ6G2K","3THR0FZ95PF7SK0MYRNAOUHTWDJOLG","","null","<img src=""img/flower2.png"" style=""width:200px;border:14px solid red;"">","null","","","","","","","","",""
"","image-keyboard-response","326","138573","0.0-326.0","3X3OR7WPZ0M6TCB0IC3GGRNHPU2L8U","A2APG8MSLJ6G2K","3THR0FZ95PF7SK0MYRNAOUHTWDJOLG","","546.3999998569489","img/flower6.png","76","547","3","1","2","1","1,0.333,0.333,0.333,1,0.333,0.333,0.333,1","1,0.333,0.333,0.333,1,0.333,0.333,0.333,1","1",""
"","html-keyboard-response","327","138874","0.0-327.0","3X3OR7WPZ0M6TCB0IC3GGRNHPU2L8U","A2APG8MSLJ6G2K","3THR0FZ95PF7SK0MYRNAOUHTWDJOLG","","null","<img src=""img/flower6.png"" style=""width:200px; border:14px solid green;"">","null","","","","","","","","",""
"","image-keyboard-response","328","139156","0.0-328.0","3X3OR7WPZ0M6TCB0IC3GGRNHPU2L8U","A2APG8MSLJ6G2K","3THR0FZ95PF7SK0MYRNAOUHTWDJOLG","","281.19999980926514","img/flower6.png","76","282","3","0","2","1","1,0.333,0.333,0.333,1,0.333,0.333,0.333,1","1,0.333,0.333,0.333,1,0.333,0.333,0.333,1","1",""
"","html-keyboard-response","329","139458","0.0-329.0","3X3OR7WPZ0M6TCB0IC3GGRNHPU2L8U","A2APG8MSLJ6G2K","3THR0FZ95PF7SK0MYRNAOUHTWDJOLG","","null","<img src=""img/flower6.png"" style=""width:200px;border:14px solid red;"">","null","","","","","","","","",""
"","image-keyboard-response","330","139965","0.0-330.0","3X3OR7WPZ0M6TCB0IC3GGRNHPU2L8U","A2APG8MSLJ6G2K","3THR0FZ95PF7SK0MYRNAOUHTWDJOLG","","505.2999999523163","img/flower2.png","74","506.2000000476837","1","1","3","1","1,0.333,0.333,0.333,1,0.333,0.333,0.333,1","1,0.333,0.333,0.333,1,0.333,0.333,0.333,1","1",""
"","html-keyboard-response","331","140266","0.0-331.0","3X3OR7WPZ0M6TCB0IC3GGRNHPU2L8U","A2APG8MSLJ6G2K","3THR0FZ95PF7SK0MYRNAOUHTWDJOLG","","null","<img src=""img/flower2.png"" style=""width:200px; border:14px solid green;"">","null","","","","","","","","",""
"","image-keyboard-response","332","140908","0.0-332.0","3X3OR7WPZ0M6TCB0IC3GGRNHPU2L8U","A2APG8MSLJ6G2K","3THR0FZ95PF7SK0MYRNAOUHTWDJOLG","","641.8000001907349","img/flower2.png","74","642.3999998569489","1","1","3","1","1,0.333,0.333,0.333,1,0.333,0.333,0.333,1","1,0.333,0.333,0.333,1,0.333,0.333,0.333,1","1",""
"","html-keyboard-response","333","141209","0.0-333.0","3X3OR7WPZ0M6TCB0IC3GGRNHPU2L8U","A2APG8MSLJ6G2K","3THR0FZ95PF7SK0MYRNAOUHTWDJOLG","","null","<img src=""img/flower2.png"" style=""width:200px; border:14px solid green;"">","null","","","","","","","","",""
"","image-keyboard-response","334","141701","0.0-334.0","3X3OR7WPZ0M6TCB0IC3GGRNHPU2L8U","A2APG8MSLJ6G2K","3THR0FZ95PF7SK0MYRNAOUHTWDJOLG","","490.5","img/flower6.png","75","491.10000014305115","2","1","2","1","1,0.333,0.333,0.333,1,0.333,0.333,0.333,1","1,0.333,0.333,0.333,1,0.333,0.333,0.333,1","1",""
"","html-keyboard-response","335","142002","0.0-335.0","3X3OR7WPZ0M6TCB0IC3GGRNHPU2L8U","A2APG8MSLJ6G2K","3THR0FZ95PF7SK0MYRNAOUHTWDJOLG","","null","<img src=""img/flower6.png"" style=""width:200px; border:14px solid green;"">","null","","","","","","","","",""
"","image-keyboard-response","336","142340","0.0-336.0","3X3OR7WPZ0M6TCB0IC3GGRNHPU2L8U","A2APG8MSLJ6G2K","3THR0FZ95PF7SK0MYRNAOUHTWDJOLG","","337.5","img/flower6.png","75","338.10000014305115","2","1","2","1","1,0.333,0.333,0.333,1,0.333,0.333,0.333,1","1,0.333,0.333,0.333,1,0.333,0.333,0.333,1","1",""
"","html-keyboard-response","337","142641","0.0-337.0","3X3OR7WPZ0M6TCB0IC3GGRNHPU2L8U","A2APG8MSLJ6G2K","3THR0FZ95PF7SK0MYRNAOUHTWDJOLG","","null","<img src=""img/flower6.png"" style=""width:200px; border:14px solid green;"">","null","","","","","","","","",""
"","image-keyboard-response","338","143340","0.0-338.0","3X3OR7WPZ0M6TCB0IC3GGRNHPU2L8U","A2APG8MSLJ6G2K","3THR0FZ95PF7SK0MYRNAOUHTWDJOLG","","698.2999999523163","img/flower2.png","75","699.1000001430511","2","0","3","1","1,0.333,0.333,0.333,1,0.333,0.333,0.333,1","1,0.333,0.333,0.333,1,0.333,0.333,0.333,1","1",""
"","html-keyboard-response","339","143641","0.0-339.0","3X3OR7WPZ0M6TCB0IC3GGRNHPU2L8U","A2APG8MSLJ6G2K","3THR0FZ95PF7SK0MYRNAOUHTWDJOLG","","null","<img src=""img/flower2.png"" style=""width:200px;border:14px solid red;"">","null","","","","","","","","",""
"","image-keyboard-response","340","143893","0.0-340.0","3X3OR7WPZ0M6TCB0IC3GGRNHPU2L8U","A2APG8MSLJ6G2K","3THR0FZ95PF7SK0MYRNAOUHTWDJOLG","","250.5","img/flower6.png","74","251.10000014305115","1","0","2","1","1,0.333,0.333,0.333,1,0.333,0.333,0.333,1","1,0.333,0.333,0.333,1,0.333,0.333,0.333,1","1",""
"","html-keyboard-response","341","144194","0.0-341.0","3X3OR7WPZ0M6TCB0IC3GGRNHPU2L8U","A2APG8MSLJ6G2K","3THR0FZ95PF7SK0MYRNAOUHTWDJOLG","","null","<img src=""img/flower6.png"" style=""width:200px;border:14px solid red;"">","null","","","","","","","","",""
"","image-keyboard-response","342","144548","0.0-342.0","3X3OR7WPZ0M6TCB0IC3GGRNHPU2L8U","A2APG8MSLJ6G2K","3THR0FZ95PF7SK0MYRNAOUHTWDJOLG","","353.89999985694885","img/flower2.png","76","354.5","3","1","3","1","1,0.333,0.333,0.333,1,0.333,0.333,0.333,1","1,0.333,0.333,0.333,1,0.333,0.333,0.333,1","1",""
"","html-keyboard-response","343","144850","0.0-343.0","3X3OR7WPZ0M6TCB0IC3GGRNHPU2L8U","A2APG8MSLJ6G2K","3THR0FZ95PF7SK0MYRNAOUHTWDJOLG","","null","<img src=""img/flower2.png"" style=""width:200px; border:14px solid green;"">","null","","","","","","","","",""
"","image-keyboard-response","344","145148","0.0-344.0","3X3OR7WPZ0M6TCB0IC3GGRNHPU2L8U","A2APG8MSLJ6G2K","3THR0FZ95PF7SK0MYRNAOUHTWDJOLG","","297.80000019073486","img/flower2.png","76","298.5","3","1","3","1","1,0.333,0.333,0.333,1,0.333,0.333,0.333,1","1,0.333,0.333,0.333,1,0.333,0.333,0.333,1","1",""
"","html-keyboard-response","345","145450","0.0-345.0","3X3OR7WPZ0M6TCB0IC3GGRNHPU2L8U","A2APG8MSLJ6G2K","3THR0FZ95PF7SK0MYRNAOUHTWDJOLG","","null","<img src=""img/flower2.png"" style=""width:200px; border:14px solid green;"">","null","","","","","","","","",""
"","image-keyboard-response","346","146092","0.0-346.0","3X3OR7WPZ0M6TCB0IC3GGRNHPU2L8U","A2APG8MSLJ6G2K","3THR0FZ95PF7SK0MYRNAOUHTWDJOLG","","641.7999999523163","img/flower4.png","75","642.5","2","0","1","1","1,0.333,0.333,0.333,1,0.333,0.333,0.333,1","1,0.333,0.333,0.333,1,0.333,0.333,0.333,1","1",""
"","html-keyboard-response","347","146393","0.0-347.0","3X3OR7WPZ0M6TCB0IC3GGRNHPU2L8U","A2APG8MSLJ6G2K","3THR0FZ95PF7SK0MYRNAOUHTWDJOLG","","null","<img src=""img/flower4.png"" style=""width:200px;border:14px solid red;"">","null","","","","","","","","",""
"","image-keyboard-response","348","146757","0.0-348.0","3X3OR7WPZ0M6TCB0IC3GGRNHPU2L8U","A2APG8MSLJ6G2K","3THR0FZ95PF7SK0MYRNAOUHTWDJOLG","","363","img/flower4.png","76","363.59999990463257","3","0","1","1","1,0.333,0.333,0.333,1,0.333,0.333,0.333,1","1,0.333,0.333,0.333,1,0.333,0.333,0.333,1","1",""
"","html-keyboard-response","349","147058","0.0-349.0","3X3OR7WPZ0M6TCB0IC3GGRNHPU2L8U","A2APG8MSLJ6G2K","3THR0FZ95PF7SK0MYRNAOUHTWDJOLG","","null","<img src=""img/flower4.png"" style=""width:200px;border:14px solid red;"">","null","","","","","","","","",""
"","image-keyboard-response","350","147692","0.0-350.0","3X3OR7WPZ0M6TCB0IC3GGRNHPU2L8U","A2APG8MSLJ6G2K","3THR0FZ95PF7SK0MYRNAOUHTWDJOLG","","633.8999998569489","img/flower4.png","74","634.5","1","1","1","1","1,0.333,0.333,0.333,1,0.333,0.333,0.333,1","1,0.333,0.333,0.333,1,0.333,0.333,0.333,1","1",""
"","html-keyboard-response","351","147994","0.0-351.0","3X3OR7WPZ0M6TCB0IC3GGRNHPU2L8U","A2APG8MSLJ6G2K","3THR0FZ95PF7SK0MYRNAOUHTWDJOLG","","null","<img src=""img/flower4.png"" style=""width:200px; border:14px solid green;"">","null","","","","","","","","",""
"","image-keyboard-response","352","148300","0.0-352.0","3X3OR7WPZ0M6TCB0IC3GGRNHPU2L8U","A2APG8MSLJ6G2K","3THR0FZ95PF7SK0MYRNAOUHTWDJOLG","","305.69999980926514","img/flower4.png","74","306.2999999523163","1","1","1","1","1,0.333,0.333,0.333,1,0.333,0.333,0.333,1","1,0.333,0.333,0.333,1,0.333,0.333,0.333,1","1",""
"","html-keyboard-response","353","148602","0.0-353.0","3X3OR7WPZ0M6TCB0IC3GGRNHPU2L8U","A2APG8MSLJ6G2K","3THR0FZ95PF7SK0MYRNAOUHTWDJOLG","","null","<img src=""img/flower4.png"" style=""width:200px; border:14px solid green;"">","null","","","","","","","","",""
"","image-keyboard-response","354","149556","0.0-354.0","3X3OR7WPZ0M6TCB0IC3GGRNHPU2L8U","A2APG8MSLJ6G2K","3THR0FZ95PF7SK0MYRNAOUHTWDJOLG","","953.2999999523163","img/flower2.png","74","953.8999998569489","1","1","3","1","1,0.333,0.333,0.333,1,0.333,0.333,0.333,1","1,0.333,0.333,0.333,1,0.333,0.333,0.333,1","1",""
"","html-keyboard-response","355","149857","0.0-355.0","3X3OR7WPZ0M6TCB0IC3GGRNHPU2L8U","A2APG8MSLJ6G2K","3THR0FZ95PF7SK0MYRNAOUHTWDJOLG","","null","<img src=""img/flower2.png"" style=""width:200px; border:14px solid green;"">","null","","","","","","","","",""
"","image-keyboard-response","356","150204","0.0-356.0","3X3OR7WPZ0M6TCB0IC3GGRNHPU2L8U","A2APG8MSLJ6G2K","3THR0FZ95PF7SK0MYRNAOUHTWDJOLG","","346.09999990463257","img/flower6.png","74","346.89999985694885","1","0","2","1","1,0.333,0.333,0.333,1,0.333,0.333,0.333,1","1,0.333,0.333,0.333,1,0.333,0.333,0.333,1","1",""
"","html-keyboard-response","357","150505","0.0-357.0","3X3OR7WPZ0M6TCB0IC3GGRNHPU2L8U","A2APG8MSLJ6G2K","3THR0FZ95PF7SK0MYRNAOUHTWDJOLG","","null","<img src=""img/flower6.png"" style=""width:200px;border:14px solid red;"">","null","","","","","","","","",""
"","image-keyboard-response","358","150964","0.0-358.0","3X3OR7WPZ0M6TCB0IC3GGRNHPU2L8U","A2APG8MSLJ6G2K","3THR0FZ95PF7SK0MYRNAOUHTWDJOLG","","458.40000009536743","img/flower6.png","75","459.09999990463257","2","1","2","1","1,0.333,0.333,0.333,1,0.333,0.333,0.333,1","1,0.333,0.333,0.333,1,0.333,0.333,0.333,1","1",""
"","html-keyboard-response","359","151266","0.0-359.0","3X3OR7WPZ0M6TCB0IC3GGRNHPU2L8U","A2APG8MSLJ6G2K","3THR0FZ95PF7SK0MYRNAOUHTWDJOLG","","null","<img src=""img/flower6.png"" style=""width:200px; border:14px solid green;"">","null","","","","","","","","",""
"","image-keyboard-response","360","151461","0.0-360.0","3X3OR7WPZ0M6TCB0IC3GGRNHPU2L8U","A2APG8MSLJ6G2K","3THR0FZ95PF7SK0MYRNAOUHTWDJOLG","","194.29999995231628","img/flower2.png","75","194.79999995231628","2","0","3","1","1,0.333,0.333,0.333,1,0.333,0.333,0.333,1","1,0.333,0.333,0.333,1,0.333,0.333,0.333,1","1",""
"","html-keyboard-response","361","151762","0.0-361.0","3X3OR7WPZ0M6TCB0IC3GGRNHPU2L8U","A2APG8MSLJ6G2K","3THR0FZ95PF7SK0MYRNAOUHTWDJOLG","","null","<img src=""img/flower2.png"" style=""width:200px;border:14px solid red;"">","null","","","","","","","","",""
"","html-keyboard-response","362","154515","0.0-362.0","3X3OR7WPZ0M6TCB0IC3GGRNHPU2L8U","A2APG8MSLJ6G2K","3THR0FZ95PF7SK0MYRNAOUHTWDJOLG","","","","","","","","","","","","",""
"","instructions","363","157907","0.0-363.0","3X3OR7WPZ0M6TCB0IC3GGRNHPU2L8U","A2APG8MSLJ6G2K","3THR0FZ95PF7SK0MYRNAOUHTWDJOLG","[{""page_index"":0,""viewing_time"":3391.2999999523163}]","3391.4000000953674","","","","","","","","","","",""
"","survey-text","364","171957","0.0-364.0","3X3OR7WPZ0M6TCB0IC3GGRNHPU2L8U","A2APG8MSLJ6G2K","3THR0FZ95PF7SK0MYRNAOUHTWDJOLG","","14046.899999856949","","","","","","","","","","","{""Q0"":""A2APG8MSLJ6G2K""}"
