"success","trial_type","trial_index","time_elapsed","internal_node_id","assignmentID","mturkID","hitID","view_history","rt","stimulus","key_press","reactionTime","a","r","s","cond","reward_cond","reward_cond_actual","reward_matrix_idx","responses"
"true","fullscreen","0","2952","0.0-0.0","3TU5ZICBRENHK9RDAHBCXDMBZVNQ8C","A2AP9F2LCG5GV8","3P7RGTLO6EZ76AO3386R8ZK9IWWKAW","","","","","","","","","","","","",""
"","instructions","1","14434","0.0-1.0","3TU5ZICBRENHK9RDAHBCXDMBZVNQ8C","A2AP9F2LCG5GV8","3P7RGTLO6EZ76AO3386R8ZK9IWWKAW","[{""page_index"":0,""viewing_time"":1159},{""page_index"":1,""viewing_time"":1693},{""page_index"":2,""viewing_time"":1497},{""page_index"":3,""viewing_time"":1251},{""page_index"":4,""viewing_time"":1896},{""page_index"":5,""viewing_time"":1612},{""page_index"":6,""viewing_time"":1208},{""page_index"":7,""viewing_time"":1161}]","11477","","","","","","","","","","",""
"","image-keyboard-response","2","15460","0.0-2.0","3TU5ZICBRENHK9RDAHBCXDMBZVNQ8C","A2AP9F2LCG5GV8","3P7RGTLO6EZ76AO3386R8ZK9IWWKAW","","1024","img/flower5.png","76","1026","3","1","3","2","1,0,0,1,1,0,1,0,1","1,0,0,1,1,0,1,0,1","1",""
"","html-keyboard-response","3","15763","0.0-3.0","3TU5ZICBRENHK9RDAHBCXDMBZVNQ8C","A2AP9F2LCG5GV8","3P7RGTLO6EZ76AO3386R8ZK9IWWKAW","","null","<img src=""img/flower5.png"" style=""width:200px; border:14px solid green;"">","null","","","","","","","","",""
"","image-keyboard-response","4","15765","0.0-4.0","3TU5ZICBRENHK9RDAHBCXDMBZVNQ8C","A2AP9F2LCG5GV8","3P7RGTLO6EZ76AO3386R8ZK9IWWKAW","","1","img/flower6.png","75","2","2","1","2","2","1,0,0,1,1,0,1,0,1","1,0,0,1,1,0,1,0,1","1",""
"","html-keyboard-response","5","16066","0.0-5.0","3TU5ZICBRENHK9RDAHBCXDMBZVNQ8C","A2AP9F2LCG5GV8","3P7RGTLO6EZ76AO3386R8ZK9IWWKAW","","null","<img src=""img/flower6.png"" style=""width:200px; border:14px solid green;"">","null","","","","","","","","",""
"","image-keyboard-response","6","16084","0.0-6.0","3TU5ZICBRENHK9RDAHBCXDMBZVNQ8C","A2AP9F2LCG5GV8","3P7RGTLO6EZ76AO3386R8ZK9IWWKAW","","15","img/flower5.png","74","17","1","1","3","2","1,0,0,1,1,0,1,0,1","1,0,0,1,1,0,1,0,1","1",""
"","html-keyboard-response","7","16387","0.0-7.0","3TU5ZICBRENHK9RDAHBCXDMBZVNQ8C","A2AP9F2LCG5GV8","3P7RGTLO6EZ76AO3386R8ZK9IWWKAW","","null","<img src=""img/flower5.png"" style=""width:200px; border:14px solid green;"">","null","","","","","","","","",""
"","image-keyboard-response","8","16450","0.0-8.0","3TU5ZICBRENHK9RDAHBCXDMBZVNQ8C","A2AP9F2LCG5GV8","3P7RGTLO6EZ76AO3386R8ZK9IWWKAW","","62","img/flower6.png","76","62","3","0","2","2","1,0,0,1,1,0,1,0,1","1,0,0,1,1,0,1,0,1","1",""
"","html-keyboard-response","9","16752","0.0-9.0","3TU5ZICBRENHK9RDAHBCXDMBZVNQ8C","A2AP9F2LCG5GV8","3P7RGTLO6EZ76AO3386R8ZK9IWWKAW","","null","<img src=""img/flower6.png"" style=""width:200px;border:14px solid red;"">","null","","","","","","","","",""
"","image-keyboard-response","10","16766","0.0-10.0","3TU5ZICBRENHK9RDAHBCXDMBZVNQ8C","A2AP9F2LCG5GV8","3P7RGTLO6EZ76AO3386R8ZK9IWWKAW","","12","img/flower2.png","76","14","3","0","1","2","1,0,0,1,1,0,1,0,1","1,0,0,1,1,0,1,0,1","1",""
"","html-keyboard-response","11","17069","0.0-11.0","3TU5ZICBRENHK9RDAHBCXDMBZVNQ8C","A2AP9F2LCG5GV8","3P7RGTLO6EZ76AO3386R8ZK9IWWKAW","","null","<img src=""img/flower2.png"" style=""width:200px;border:14px solid red;"">","null","","","","","","","","",""
"","image-keyboard-response","12","17149","0.0-12.0","3TU5ZICBRENHK9RDAHBCXDMBZVNQ8C","A2AP9F2LCG5GV8","3P7RGTLO6EZ76AO3386R8ZK9IWWKAW","","77","img/flower6.png","75","79","2","1","2","2","1,0,0,1,1,0,1,0,1","1,0,0,1,1,0,1,0,1","1",""
"","html-keyboard-response","13","17450","0.0-13.0","3TU5ZICBRENHK9RDAHBCXDMBZVNQ8C","A2AP9F2LCG5GV8","3P7RGTLO6EZ76AO3386R8ZK9IWWKAW","","null","<img src=""img/flower6.png"" style=""width:200px; border:14px solid green;"">","null","","","","","","","","",""
"","image-keyboard-response","14","17467","0.0-14.0","3TU5ZICBRENHK9RDAHBCXDMBZVNQ8C","A2AP9F2LCG5GV8","3P7RGTLO6EZ76AO3386R8ZK9IWWKAW","","16","img/flower2.png","74","17","1","1","1","2","1,0,0,1,1,0,1,0,1","1,0,0,1,1,0,1,0,1","1",""
"","html-keyboard-response","15","17769","0.0-15.0","3TU5ZICBRENHK9RDAHBCXDMBZVNQ8C","A2AP9F2LCG5GV8","3P7RGTLO6EZ76AO3386R8ZK9IWWKAW","","null","<img src=""img/flower2.png"" style=""width:200px; border:14px solid green;"">","null","","","","","","","","",""
"","image-keyboard-response","16","17843","0.0-16.0","3TU5ZICBRENHK9RDAHBCXDMBZVNQ8C","A2AP9F2LCG5GV8","3P7RGTLO6EZ76AO3386R8ZK9IWWKAW","","73","img/flower2.png","76","74","3","0","1","2","1,0,0,1,1,0,1,0,1","1,0,0,1,1,0,1,0,1","1",""
"","html-keyboard-response","17","18145","0.0-17.0","3TU5ZICBRENHK9RDAHBCXDMBZVNQ8C","A2AP9F2LCG5GV8","3P7RGTLO6EZ76AO3386R8ZK9IWWKAW","","null","<img src=""img/flower2.png"" style=""width:200px;border:14px solid red;"">","null","","","","","","","","",""
"","image-keyboard-response","18","18205","0.0-18.0","3TU5ZICBRENHK9RDAHBCXDMBZVNQ8C","A2AP9F2LCG5GV8","3P7RGTLO6EZ76AO3386R8ZK9IWWKAW","","56","img/flower2.png","75","60","2","0","1","2","1,0,0,1,1,0,1,0,1","1,0,0,1,1,0,1,0,1","1",""
"","html-keyboard-response","19","18507","0.0-19.0","3TU5ZICBRENHK9RDAHBCXDMBZVNQ8C","A2AP9F2LCG5GV8","3P7RGTLO6EZ76AO3386R8ZK9IWWKAW","","null","<img src=""img/flower2.png"" style=""width:200px;border:14px solid red;"">","null","","","","","","","","",""
"","image-keyboard-response","20","18605","0.0-20.0","3TU5ZICBRENHK9RDAHBCXDMBZVNQ8C","A2AP9F2LCG5GV8","3P7RGTLO6EZ76AO3386R8ZK9IWWKAW","","95","img/flower6.png","76","98","3","0","2","2","1,0,0,1,1,0,1,0,1","1,0,0,1,1,0,1,0,1","1",""
"","html-keyboard-response","21","18907","0.0-21.0","3TU5ZICBRENHK9RDAHBCXDMBZVNQ8C","A2AP9F2LCG5GV8","3P7RGTLO6EZ76AO3386R8ZK9IWWKAW","","null","<img src=""img/flower6.png"" style=""width:200px;border:14px solid red;"">","null","","","","","","","","",""
"","image-keyboard-response","22","19044","0.0-22.0","3TU5ZICBRENHK9RDAHBCXDMBZVNQ8C","A2AP9F2LCG5GV8","3P7RGTLO6EZ76AO3386R8ZK9IWWKAW","","134","img/flower5.png","74","137","1","1","3","2","1,0,0,1,1,0,1,0,1","1,0,0,1,1,0,1,0,1","1",""
"","html-keyboard-response","23","19345","0.0-23.0","3TU5ZICBRENHK9RDAHBCXDMBZVNQ8C","A2AP9F2LCG5GV8","3P7RGTLO6EZ76AO3386R8ZK9IWWKAW","","null","<img src=""img/flower5.png"" style=""width:200px; border:14px solid green;"">","null","","","","","","","","",""
"","image-keyboard-response","24","19362","0.0-24.0","3TU5ZICBRENHK9RDAHBCXDMBZVNQ8C","A2AP9F2LCG5GV8","3P7RGTLO6EZ76AO3386R8ZK9IWWKAW","","15","img/flower6.png","75","16","2","1","2","2","1,0,0,1,1,0,1,0,1","1,0,0,1,1,0,1,0,1","1",""
"","html-keyboard-response","25","19664","0.0-25.0","3TU5ZICBRENHK9RDAHBCXDMBZVNQ8C","A2AP9F2LCG5GV8","3P7RGTLO6EZ76AO3386R8ZK9IWWKAW","","null","<img src=""img/flower6.png"" style=""width:200px; border:14px solid green;"">","null","","","","","","","","",""
"","image-keyboard-response","26","19730","0.0-26.0","3TU5ZICBRENHK9RDAHBCXDMBZVNQ8C","A2AP9F2LCG5GV8","3P7RGTLO6EZ76AO3386R8ZK9IWWKAW","","64","img/flower2.png","76","66","3","0","1","2","1,0,0,1,1,0,1,0,1","1,0,0,1,1,0,1,0,1","1",""
"","html-keyboard-response","27","20032","0.0-27.0","3TU5ZICBRENHK9RDAHBCXDMBZVNQ8C","A2AP9F2LCG5GV8","3P7RGTLO6EZ76AO3386R8ZK9IWWKAW","","null","<img src=""img/flower2.png"" style=""width:200px;border:14px solid red;"">","null","","","","","","","","",""
"","image-keyboard-response","28","20061","0.0-28.0","3TU5ZICBRENHK9RDAHBCXDMBZVNQ8C","A2AP9F2LCG5GV8","3P7RGTLO6EZ76AO3386R8ZK9IWWKAW","","27","img/flower5.png","74","29","1","1","3","2","1,0,0,1,1,0,1,0,1","1,0,0,1,1,0,1,0,1","1",""
"","html-keyboard-response","29","20365","0.0-29.0","3TU5ZICBRENHK9RDAHBCXDMBZVNQ8C","A2AP9F2LCG5GV8","3P7RGTLO6EZ76AO3386R8ZK9IWWKAW","","null","<img src=""img/flower5.png"" style=""width:200px; border:14px solid green;"">","null","","","","","","","","",""
"","image-keyboard-response","30","20379","0.0-30.0","3TU5ZICBRENHK9RDAHBCXDMBZVNQ8C","A2AP9F2LCG5GV8","3P7RGTLO6EZ76AO3386R8ZK9IWWKAW","","12","img/flower2.png","75","14","2","0","1","2","1,0,0,1,1,0,1,0,1","1,0,0,1,1,0,1,0,1","1",""
"","html-keyboard-response","31","20679","0.0-31.0","3TU5ZICBRENHK9RDAHBCXDMBZVNQ8C","A2AP9F2LCG5GV8","3P7RGTLO6EZ76AO3386R8ZK9IWWKAW","","null","<img src=""img/flower2.png"" style=""width:200px;border:14px solid red;"">","null","","","","","","","","",""
"","image-keyboard-response","32","20763","0.0-32.0","3TU5ZICBRENHK9RDAHBCXDMBZVNQ8C","A2AP9F2LCG5GV8","3P7RGTLO6EZ76AO3386R8ZK9IWWKAW","","83","img/flower5.png","74","83","1","1","3","2","1,0,0,1,1,0,1,0,1","1,0,0,1,1,0,1,0,1","1",""
"","html-keyboard-response","33","21065","0.0-33.0","3TU5ZICBRENHK9RDAHBCXDMBZVNQ8C","A2AP9F2LCG5GV8","3P7RGTLO6EZ76AO3386R8ZK9IWWKAW","","null","<img src=""img/flower5.png"" style=""width:200px; border:14px solid green;"">","null","","","","","","","","",""
"","image-keyboard-response","34","21084","0.0-34.0","3TU5ZICBRENHK9RDAHBCXDMBZVNQ8C","A2AP9F2LCG5GV8","3P7RGTLO6EZ76AO3386R8ZK9IWWKAW","","16","img/flower2.png","76","19","3","0","1","2","1,0,0,1,1,0,1,0,1","1,0,0,1,1,0,1,0,1","1",""
"","html-keyboard-response","35","21387","0.0-35.0","3TU5ZICBRENHK9RDAHBCXDMBZVNQ8C","A2AP9F2LCG5GV8","3P7RGTLO6EZ76AO3386R8ZK9IWWKAW","","null","<img src=""img/flower2.png"" style=""width:200px;border:14px solid red;"">","null","","","","","","","","",""
"","image-keyboard-response","36","21418","0.0-36.0","3TU5ZICBRENHK9RDAHBCXDMBZVNQ8C","A2AP9F2LCG5GV8","3P7RGTLO6EZ76AO3386R8ZK9IWWKAW","","30","img/flower5.png","75","31","2","0","3","2","1,0,0,1,1,0,1,0,1","1,0,0,1,1,0,1,0,1","1",""
"","html-keyboard-response","37","21724","0.0-37.0","3TU5ZICBRENHK9RDAHBCXDMBZVNQ8C","A2AP9F2LCG5GV8","3P7RGTLO6EZ76AO3386R8ZK9IWWKAW","","null","<img src=""img/flower5.png"" style=""width:200px;border:14px solid red;"">","null","","","","","","","","",""
"","image-keyboard-response","38","21737","0.0-38.0","3TU5ZICBRENHK9RDAHBCXDMBZVNQ8C","A2AP9F2LCG5GV8","3P7RGTLO6EZ76AO3386R8ZK9IWWKAW","","13","img/flower6.png","74","13","1","1","2","2","1,0,0,1,1,0,1,0,1","1,0,0,1,1,0,1,0,1","1",""
"","html-keyboard-response","39","22039","0.0-39.0","3TU5ZICBRENHK9RDAHBCXDMBZVNQ8C","A2AP9F2LCG5GV8","3P7RGTLO6EZ76AO3386R8ZK9IWWKAW","","null","<img src=""img/flower6.png"" style=""width:200px; border:14px solid green;"">","null","","","","","","","","",""
"","image-keyboard-response","40","22131","0.0-40.0","3TU5ZICBRENHK9RDAHBCXDMBZVNQ8C","A2AP9F2LCG5GV8","3P7RGTLO6EZ76AO3386R8ZK9IWWKAW","","91","img/flower5.png","76","92","3","1","3","2","1,0,0,1,1,0,1,0,1","1,0,0,1,1,0,1,0,1","1",""
"","html-keyboard-response","41","22434","0.0-41.0","3TU5ZICBRENHK9RDAHBCXDMBZVNQ8C","A2AP9F2LCG5GV8","3P7RGTLO6EZ76AO3386R8ZK9IWWKAW","","null","<img src=""img/flower5.png"" style=""width:200px; border:14px solid green;"">","null","","","","","","","","",""
"","image-keyboard-response","42","22466","0.0-42.0","3TU5ZICBRENHK9RDAHBCXDMBZVNQ8C","A2AP9F2LCG5GV8","3P7RGTLO6EZ76AO3386R8ZK9IWWKAW","","31","img/flower6.png","74","32","1","1","2","2","1,0,0,1,1,0,1,0,1","1,0,0,1,1,0,1,0,1","1",""
"","html-keyboard-response","43","22767","0.0-43.0","3TU5ZICBRENHK9RDAHBCXDMBZVNQ8C","A2AP9F2LCG5GV8","3P7RGTLO6EZ76AO3386R8ZK9IWWKAW","","null","<img src=""img/flower6.png"" style=""width:200px; border:14px solid green;"">","null","","","","","","","","",""
"","image-keyboard-response","44","22853","0.0-44.0","3TU5ZICBRENHK9RDAHBCXDMBZVNQ8C","A2AP9F2LCG5GV8","3P7RGTLO6EZ76AO3386R8ZK9IWWKAW","","84","img/flower5.png","75","86","2","0","3","2","1,0,0,1,1,0,1,0,1","1,0,0,1,1,0,1,0,1","1",""
"","html-keyboard-response","45","23157","0.0-45.0","3TU5ZICBRENHK9RDAHBCXDMBZVNQ8C","A2AP9F2LCG5GV8","3P7RGTLO6EZ76AO3386R8ZK9IWWKAW","","null","<img src=""img/flower5.png"" style=""width:200px;border:14px solid red;"">","null","","","","","","","","",""
"","image-keyboard-response","46","23250","0.0-46.0","3TU5ZICBRENHK9RDAHBCXDMBZVNQ8C","A2AP9F2LCG5GV8","3P7RGTLO6EZ76AO3386R8ZK9IWWKAW","","92","img/flower6.png","74","93","1","1","2","2","1,0,0,1,1,0,1,0,1","1,0,0,1,1,0,1,0,1","1",""
"","html-keyboard-response","47","23552","0.0-47.0","3TU5ZICBRENHK9RDAHBCXDMBZVNQ8C","A2AP9F2LCG5GV8","3P7RGTLO6EZ76AO3386R8ZK9IWWKAW","","null","<img src=""img/flower6.png"" style=""width:200px; border:14px solid green;"">","null","","","","","","","","",""
"","image-keyboard-response","48","23599","0.0-48.0","3TU5ZICBRENHK9RDAHBCXDMBZVNQ8C","A2AP9F2LCG5GV8","3P7RGTLO6EZ76AO3386R8ZK9IWWKAW","","42","img/flower2.png","76","47","3","0","1","2","1,0,0,1,1,0,1,0,1","1,0,0,1,1,0,1,0,1","1",""
"","html-keyboard-response","49","23902","0.0-49.0","3TU5ZICBRENHK9RDAHBCXDMBZVNQ8C","A2AP9F2LCG5GV8","3P7RGTLO6EZ76AO3386R8ZK9IWWKAW","","null","<img src=""img/flower2.png"" style=""width:200px;border:14px solid red;"">","null","","","","","","","","",""
"","image-keyboard-response","50","23949","0.0-50.0","3TU5ZICBRENHK9RDAHBCXDMBZVNQ8C","A2AP9F2LCG5GV8","3P7RGTLO6EZ76AO3386R8ZK9IWWKAW","","45","img/flower5.png","74","47","1","1","3","2","1,0,0,1,1,0,1,0,1","1,0,0,1,1,0,1,0,1","1",""
"","html-keyboard-response","51","24250","0.0-51.0","3TU5ZICBRENHK9RDAHBCXDMBZVNQ8C","A2AP9F2LCG5GV8","3P7RGTLO6EZ76AO3386R8ZK9IWWKAW","","null","<img src=""img/flower5.png"" style=""width:200px; border:14px solid green;"">","null","","","","","","","","",""
"","image-keyboard-response","52","24298","0.0-52.0","3TU5ZICBRENHK9RDAHBCXDMBZVNQ8C","A2AP9F2LCG5GV8","3P7RGTLO6EZ76AO3386R8ZK9IWWKAW","","47","img/flower6.png","75","48","2","1","2","2","1,0,0,1,1,0,1,0,1","1,0,0,1,1,0,1,0,1","1",""
"","html-keyboard-response","53","24598","0.0-53.0","3TU5ZICBRENHK9RDAHBCXDMBZVNQ8C","A2AP9F2LCG5GV8","3P7RGTLO6EZ76AO3386R8ZK9IWWKAW","","null","<img src=""img/flower6.png"" style=""width:200px; border:14px solid green;"">","null","","","","","","","","",""
"","image-keyboard-response","54","24626","0.0-54.0","3TU5ZICBRENHK9RDAHBCXDMBZVNQ8C","A2AP9F2LCG5GV8","3P7RGTLO6EZ76AO3386R8ZK9IWWKAW","","25","img/flower2.png","74","28","1","1","1","2","1,0,0,1,1,0,1,0,1","1,0,0,1,1,0,1,0,1","1",""
"","html-keyboard-response","55","24928","0.0-55.0","3TU5ZICBRENHK9RDAHBCXDMBZVNQ8C","A2AP9F2LCG5GV8","3P7RGTLO6EZ76AO3386R8ZK9IWWKAW","","null","<img src=""img/flower2.png"" style=""width:200px; border:14px solid green;"">","null","","","","","","","","",""
"","image-keyboard-response","56","25036","0.0-56.0","3TU5ZICBRENHK9RDAHBCXDMBZVNQ8C","A2AP9F2LCG5GV8","3P7RGTLO6EZ76AO3386R8ZK9IWWKAW","","108","img/flower2.png","76","108","3","0","1","2","1,0,0,1,1,0,1,0,1","1,0,0,1,1,0,1,0,1","1",""
"","html-keyboard-response","57","25337","0.0-57.0","3TU5ZICBRENHK9RDAHBCXDMBZVNQ8C","A2AP9F2LCG5GV8","3P7RGTLO6EZ76AO3386R8ZK9IWWKAW","","null","<img src=""img/flower2.png"" style=""width:200px;border:14px solid red;"">","null","","","","","","","","",""
"","image-keyboard-response","58","25443","0.0-58.0","3TU5ZICBRENHK9RDAHBCXDMBZVNQ8C","A2AP9F2LCG5GV8","3P7RGTLO6EZ76AO3386R8ZK9IWWKAW","","103","img/flower5.png","75","106","2","0","3","2","1,0,0,1,1,0,1,0,1","1,0,0,1,1,0,1,0,1","1",""
"","html-keyboard-response","59","25747","0.0-59.0","3TU5ZICBRENHK9RDAHBCXDMBZVNQ8C","A2AP9F2LCG5GV8","3P7RGTLO6EZ76AO3386R8ZK9IWWKAW","","null","<img src=""img/flower5.png"" style=""width:200px;border:14px solid red;"">","null","","","","","","","","",""
"","image-keyboard-response","60","25812","0.0-60.0","3TU5ZICBRENHK9RDAHBCXDMBZVNQ8C","A2AP9F2LCG5GV8","3P7RGTLO6EZ76AO3386R8ZK9IWWKAW","","63","img/flower6.png","74","65","1","1","2","2","1,0,0,1,1,0,1,0,1","1,0,0,1,1,0,1,0,1","1",""
"","html-keyboard-response","61","26117","0.0-61.0","3TU5ZICBRENHK9RDAHBCXDMBZVNQ8C","A2AP9F2LCG5GV8","3P7RGTLO6EZ76AO3386R8ZK9IWWKAW","","null","<img src=""img/flower6.png"" style=""width:200px; border:14px solid green;"">","null","","","","","","","","",""
"","image-keyboard-response","62","26149","0.0-62.0","3TU5ZICBRENHK9RDAHBCXDMBZVNQ8C","A2AP9F2LCG5GV8","3P7RGTLO6EZ76AO3386R8ZK9IWWKAW","","30","img/flower2.png","76","32","3","0","1","2","1,0,0,1,1,0,1,0,1","1,0,0,1,1,0,1,0,1","1",""
"","html-keyboard-response","63","26454","0.0-63.0","3TU5ZICBRENHK9RDAHBCXDMBZVNQ8C","A2AP9F2LCG5GV8","3P7RGTLO6EZ76AO3386R8ZK9IWWKAW","","null","<img src=""img/flower2.png"" style=""width:200px;border:14px solid red;"">","null","","","","","","","","",""
"","image-keyboard-response","64","26498","0.0-64.0","3TU5ZICBRENHK9RDAHBCXDMBZVNQ8C","A2AP9F2LCG5GV8","3P7RGTLO6EZ76AO3386R8ZK9IWWKAW","","43","img/flower2.png","74","43","1","1","1","2","1,0,0,1,1,0,1,0,1","1,0,0,1,1,0,1,0,1","1",""
"","html-keyboard-response","65","26800","0.0-65.0","3TU5ZICBRENHK9RDAHBCXDMBZVNQ8C","A2AP9F2LCG5GV8","3P7RGTLO6EZ76AO3386R8ZK9IWWKAW","","null","<img src=""img/flower2.png"" style=""width:200px; border:14px solid green;"">","null","","","","","","","","",""
"","image-keyboard-response","66","26900","0.0-66.0","3TU5ZICBRENHK9RDAHBCXDMBZVNQ8C","A2AP9F2LCG5GV8","3P7RGTLO6EZ76AO3386R8ZK9IWWKAW","","99","img/flower2.png","75","99","2","0","1","2","1,0,0,1,1,0,1,0,1","1,0,0,1,1,0,1,0,1","1",""
"","html-keyboard-response","67","27214","0.0-67.0","3TU5ZICBRENHK9RDAHBCXDMBZVNQ8C","A2AP9F2LCG5GV8","3P7RGTLO6EZ76AO3386R8ZK9IWWKAW","","null","<img src=""img/flower2.png"" style=""width:200px;border:14px solid red;"">","null","","","","","","","","",""
"","image-keyboard-response","68","27270","0.0-68.0","3TU5ZICBRENHK9RDAHBCXDMBZVNQ8C","A2AP9F2LCG5GV8","3P7RGTLO6EZ76AO3386R8ZK9IWWKAW","","56","img/flower5.png","74","57","1","1","3","2","1,0,0,1,1,0,1,0,1","1,0,0,1,1,0,1,0,1","1",""
"","html-keyboard-response","69","27574","0.0-69.0","3TU5ZICBRENHK9RDAHBCXDMBZVNQ8C","A2AP9F2LCG5GV8","3P7RGTLO6EZ76AO3386R8ZK9IWWKAW","","null","<img src=""img/flower5.png"" style=""width:200px; border:14px solid green;"">","null","","","","","","","","",""
"","image-keyboard-response","70","27646","0.0-70.0","3TU5ZICBRENHK9RDAHBCXDMBZVNQ8C","A2AP9F2LCG5GV8","3P7RGTLO6EZ76AO3386R8ZK9IWWKAW","","70","img/flower6.png","76","72","3","0","2","2","1,0,0,1,1,0,1,0,1","1,0,0,1,1,0,1,0,1","1",""
"","html-keyboard-response","71","27949","0.0-71.0","3TU5ZICBRENHK9RDAHBCXDMBZVNQ8C","A2AP9F2LCG5GV8","3P7RGTLO6EZ76AO3386R8ZK9IWWKAW","","null","<img src=""img/flower6.png"" style=""width:200px;border:14px solid red;"">","null","","","","","","","","",""
"","image-keyboard-response","72","27985","0.0-72.0","3TU5ZICBRENHK9RDAHBCXDMBZVNQ8C","A2AP9F2LCG5GV8","3P7RGTLO6EZ76AO3386R8ZK9IWWKAW","","34","img/flower5.png","76","36","3","1","3","2","1,0,0,1,1,0,1,0,1","1,0,0,1,1,0,1,0,1","1",""
"","html-keyboard-response","73","28287","0.0-73.0","3TU5ZICBRENHK9RDAHBCXDMBZVNQ8C","A2AP9F2LCG5GV8","3P7RGTLO6EZ76AO3386R8ZK9IWWKAW","","null","<img src=""img/flower5.png"" style=""width:200px; border:14px solid green;"">","null","","","","","","","","",""
"","image-keyboard-response","74","28354","0.0-74.0","3TU5ZICBRENHK9RDAHBCXDMBZVNQ8C","A2AP9F2LCG5GV8","3P7RGTLO6EZ76AO3386R8ZK9IWWKAW","","65","img/flower6.png","74","67","1","1","2","2","1,0,0,1,1,0,1,0,1","1,0,0,1,1,0,1,0,1","1",""
"","html-keyboard-response","75","28655","0.0-75.0","3TU5ZICBRENHK9RDAHBCXDMBZVNQ8C","A2AP9F2LCG5GV8","3P7RGTLO6EZ76AO3386R8ZK9IWWKAW","","null","<img src=""img/flower6.png"" style=""width:200px; border:14px solid green;"">","null","","","","","","","","",""
"","image-keyboard-response","76","28699","0.0-76.0","3TU5ZICBRENHK9RDAHBCXDMBZVNQ8C","A2AP9F2LCG5GV8","3P7RGTLO6EZ76AO3386R8ZK9IWWKAW","","43","img/flower2.png","75","44","2","0","1","2","1,0,0,1,1,0,1,0,1","1,0,0,1,1,0,1,0,1","1",""
"","html-keyboard-response","77","29000","0.0-77.0","3TU5ZICBRENHK9RDAHBCXDMBZVNQ8C","A2AP9F2LCG5GV8","3P7RGTLO6EZ76AO3386R8ZK9IWWKAW","","null","<img src=""img/flower2.png"" style=""width:200px;border:14px solid red;"">","null","","","","","","","","",""
"","image-keyboard-response","78","29020","0.0-78.0","3TU5ZICBRENHK9RDAHBCXDMBZVNQ8C","A2AP9F2LCG5GV8","3P7RGTLO6EZ76AO3386R8ZK9IWWKAW","","17","img/flower5.png","75","20","2","0","3","2","1,0,0,1,1,0,1,0,1","1,0,0,1,1,0,1,0,1","1",""
"","html-keyboard-response","79","29323","0.0-79.0","3TU5ZICBRENHK9RDAHBCXDMBZVNQ8C","A2AP9F2LCG5GV8","3P7RGTLO6EZ76AO3386R8ZK9IWWKAW","","null","<img src=""img/flower5.png"" style=""width:200px;border:14px solid red;"">","null","","","","","","","","",""
"","image-keyboard-response","80","29444","0.0-80.0","3TU5ZICBRENHK9RDAHBCXDMBZVNQ8C","A2AP9F2LCG5GV8","3P7RGTLO6EZ76AO3386R8ZK9IWWKAW","","119","img/flower5.png","74","121","1","1","3","2","1,0,0,1,1,0,1,0,1","1,0,0,1,1,0,1,0,1","1",""
"","html-keyboard-response","81","29746","0.0-81.0","3TU5ZICBRENHK9RDAHBCXDMBZVNQ8C","A2AP9F2LCG5GV8","3P7RGTLO6EZ76AO3386R8ZK9IWWKAW","","null","<img src=""img/flower5.png"" style=""width:200px; border:14px solid green;"">","null","","","","","","","","",""
"","image-keyboard-response","82","29803","0.0-82.0","3TU5ZICBRENHK9RDAHBCXDMBZVNQ8C","A2AP9F2LCG5GV8","3P7RGTLO6EZ76AO3386R8ZK9IWWKAW","","56","img/flower5.png","76","57","3","1","3","2","1,0,0,1,1,0,1,0,1","1,0,0,1,1,0,1,0,1","1",""
"","html-keyboard-response","83","30109","0.0-83.0","3TU5ZICBRENHK9RDAHBCXDMBZVNQ8C","A2AP9F2LCG5GV8","3P7RGTLO6EZ76AO3386R8ZK9IWWKAW","","null","<img src=""img/flower5.png"" style=""width:200px; border:14px solid green;"">","null","","","","","","","","",""
"","image-keyboard-response","84","30126","0.0-84.0","3TU5ZICBRENHK9RDAHBCXDMBZVNQ8C","A2AP9F2LCG5GV8","3P7RGTLO6EZ76AO3386R8ZK9IWWKAW","","14","img/flower2.png","76","17","3","0","1","2","1,0,0,1,1,0,1,0,1","1,0,0,1,1,0,1,0,1","1",""
"","html-keyboard-response","85","30427","0.0-85.0","3TU5ZICBRENHK9RDAHBCXDMBZVNQ8C","A2AP9F2LCG5GV8","3P7RGTLO6EZ76AO3386R8ZK9IWWKAW","","null","<img src=""img/flower2.png"" style=""width:200px;border:14px solid red;"">","null","","","","","","","","",""
"","image-keyboard-response","86","30427","0.0-86.0","3TU5ZICBRENHK9RDAHBCXDMBZVNQ8C","A2AP9F2LCG5GV8","3P7RGTLO6EZ76AO3386R8ZK9IWWKAW","","0","img/flower2.png","74","0","1","1","1","2","1,0,0,1,1,0,1,0,1","1,0,0,1,1,0,1,0,1","1",""
"","html-keyboard-response","87","30730","0.0-87.0","3TU5ZICBRENHK9RDAHBCXDMBZVNQ8C","A2AP9F2LCG5GV8","3P7RGTLO6EZ76AO3386R8ZK9IWWKAW","","null","<img src=""img/flower2.png"" style=""width:200px; border:14px solid green;"">","null","","","","","","","","",""
"","image-keyboard-response","88","30834","0.0-88.0","3TU5ZICBRENHK9RDAHBCXDMBZVNQ8C","A2AP9F2LCG5GV8","3P7RGTLO6EZ76AO3386R8ZK9IWWKAW","","104","img/flower5.png","75","104","2","0","3","2","1,0,0,1,1,0,1,0,1","1,0,0,1,1,0,1,0,1","1",""
"","html-keyboard-response","89","31135","0.0-89.0","3TU5ZICBRENHK9RDAHBCXDMBZVNQ8C","A2AP9F2LCG5GV8","3P7RGTLO6EZ76AO3386R8ZK9IWWKAW","","null","<img src=""img/flower5.png"" style=""width:200px;border:14px solid red;"">","null","","","","","","","","",""
"","image-keyboard-response","90","31147","0.0-90.0","3TU5ZICBRENHK9RDAHBCXDMBZVNQ8C","A2AP9F2LCG5GV8","3P7RGTLO6EZ76AO3386R8ZK9IWWKAW","","8","img/flower2.png","75","13","2","0","1","2","1,0,0,1,1,0,1,0,1","1,0,0,1,1,0,1,0,1","1",""
"","html-keyboard-response","91","31463","0.0-91.0","3TU5ZICBRENHK9RDAHBCXDMBZVNQ8C","A2AP9F2LCG5GV8","3P7RGTLO6EZ76AO3386R8ZK9IWWKAW","","null","<img src=""img/flower2.png"" style=""width:200px;border:14px solid red;"">","null","","","","","","","","",""
"","image-keyboard-response","92","31515","0.0-92.0","3TU5ZICBRENHK9RDAHBCXDMBZVNQ8C","A2AP9F2LCG5GV8","3P7RGTLO6EZ76AO3386R8ZK9IWWKAW","","51","img/flower2.png","74","52","1","1","1","2","1,0,0,1,1,0,1,0,1","1,0,0,1,1,0,1,0,1","1",""
"","html-keyboard-response","93","31815","0.0-93.0","3TU5ZICBRENHK9RDAHBCXDMBZVNQ8C","A2AP9F2LCG5GV8","3P7RGTLO6EZ76AO3386R8ZK9IWWKAW","","null","<img src=""img/flower2.png"" style=""width:200px; border:14px solid green;"">","null","","","","","","","","",""
"","image-keyboard-response","94","31893","0.0-94.0","3TU5ZICBRENHK9RDAHBCXDMBZVNQ8C","A2AP9F2LCG5GV8","3P7RGTLO6EZ76AO3386R8ZK9IWWKAW","","76","img/flower2.png","76","78","3","0","1","2","1,0,0,1,1,0,1,0,1","1,0,0,1,1,0,1,0,1","1",""
"","html-keyboard-response","95","32194","0.0-95.0","3TU5ZICBRENHK9RDAHBCXDMBZVNQ8C","A2AP9F2LCG5GV8","3P7RGTLO6EZ76AO3386R8ZK9IWWKAW","","null","<img src=""img/flower2.png"" style=""width:200px;border:14px solid red;"">","null","","","","","","","","",""
"","image-keyboard-response","96","32203","0.0-96.0","3TU5ZICBRENHK9RDAHBCXDMBZVNQ8C","A2AP9F2LCG5GV8","3P7RGTLO6EZ76AO3386R8ZK9IWWKAW","","9","img/flower6.png","76","9","3","0","2","2","1,0,0,1,1,0,1,0,1","1,0,0,1,1,0,1,0,1","1",""
"","html-keyboard-response","97","32508","0.0-97.0","3TU5ZICBRENHK9RDAHBCXDMBZVNQ8C","A2AP9F2LCG5GV8","3P7RGTLO6EZ76AO3386R8ZK9IWWKAW","","null","<img src=""img/flower6.png"" style=""width:200px;border:14px solid red;"">","null","","","","","","","","",""
"","image-keyboard-response","98","32524","0.0-98.0","3TU5ZICBRENHK9RDAHBCXDMBZVNQ8C","A2AP9F2LCG5GV8","3P7RGTLO6EZ76AO3386R8ZK9IWWKAW","","14","img/flower6.png","74","15","1","1","2","2","1,0,0,1,1,0,1,0,1","1,0,0,1,1,0,1,0,1","1",""
"","html-keyboard-response","99","32826","0.0-99.0","3TU5ZICBRENHK9RDAHBCXDMBZVNQ8C","A2AP9F2LCG5GV8","3P7RGTLO6EZ76AO3386R8ZK9IWWKAW","","null","<img src=""img/flower6.png"" style=""width:200px; border:14px solid green;"">","null","","","","","","","","",""
"","image-keyboard-response","100","32882","0.0-100.0","3TU5ZICBRENHK9RDAHBCXDMBZVNQ8C","A2AP9F2LCG5GV8","3P7RGTLO6EZ76AO3386R8ZK9IWWKAW","","55","img/flower6.png","75","56","2","1","2","2","1,0,0,1,1,0,1,0,1","1,0,0,1,1,0,1,0,1","1",""
"","html-keyboard-response","101","33185","0.0-101.0","3TU5ZICBRENHK9RDAHBCXDMBZVNQ8C","A2AP9F2LCG5GV8","3P7RGTLO6EZ76AO3386R8ZK9IWWKAW","","null","<img src=""img/flower6.png"" style=""width:200px; border:14px solid green;"">","null","","","","","","","","",""
"","image-keyboard-response","102","33319","0.0-102.0","3TU5ZICBRENHK9RDAHBCXDMBZVNQ8C","A2AP9F2LCG5GV8","3P7RGTLO6EZ76AO3386R8ZK9IWWKAW","","133","img/flower6.png","74","134","1","1","2","2","1,0,0,1,1,0,1,0,1","1,0,0,1,1,0,1,0,1","1",""
"","html-keyboard-response","103","33620","0.0-103.0","3TU5ZICBRENHK9RDAHBCXDMBZVNQ8C","A2AP9F2LCG5GV8","3P7RGTLO6EZ76AO3386R8ZK9IWWKAW","","null","<img src=""img/flower6.png"" style=""width:200px; border:14px solid green;"">","null","","","","","","","","",""
"","image-keyboard-response","104","33682","0.0-104.0","3TU5ZICBRENHK9RDAHBCXDMBZVNQ8C","A2AP9F2LCG5GV8","3P7RGTLO6EZ76AO3386R8ZK9IWWKAW","","61","img/flower6.png","76","61","3","0","2","2","1,0,0,1,1,0,1,0,1","1,0,0,1,1,0,1,0,1","1",""
"","html-keyboard-response","105","33984","0.0-105.0","3TU5ZICBRENHK9RDAHBCXDMBZVNQ8C","A2AP9F2LCG5GV8","3P7RGTLO6EZ76AO3386R8ZK9IWWKAW","","null","<img src=""img/flower6.png"" style=""width:200px;border:14px solid red;"">","null","","","","","","","","",""
"","image-keyboard-response","106","34001","0.0-106.0","3TU5ZICBRENHK9RDAHBCXDMBZVNQ8C","A2AP9F2LCG5GV8","3P7RGTLO6EZ76AO3386R8ZK9IWWKAW","","17","img/flower2.png","76","17","3","0","1","2","1,0,0,1,1,0,1,0,1","1,0,0,1,1,0,1,0,1","1",""
"","html-keyboard-response","107","34303","0.0-107.0","3TU5ZICBRENHK9RDAHBCXDMBZVNQ8C","A2AP9F2LCG5GV8","3P7RGTLO6EZ76AO3386R8ZK9IWWKAW","","null","<img src=""img/flower2.png"" style=""width:200px;border:14px solid red;"">","null","","","","","","","","",""
"","image-keyboard-response","108","34340","0.0-108.0","3TU5ZICBRENHK9RDAHBCXDMBZVNQ8C","A2AP9F2LCG5GV8","3P7RGTLO6EZ76AO3386R8ZK9IWWKAW","","35","img/flower2.png","74","37","1","1","1","2","1,0,0,1,1,0,1,0,1","1,0,0,1,1,0,1,0,1","1",""
"","html-keyboard-response","109","34641","0.0-109.0","3TU5ZICBRENHK9RDAHBCXDMBZVNQ8C","A2AP9F2LCG5GV8","3P7RGTLO6EZ76AO3386R8ZK9IWWKAW","","null","<img src=""img/flower2.png"" style=""width:200px; border:14px solid green;"">","null","","","","","","","","",""
"","image-keyboard-response","110","34690","0.0-110.0","3TU5ZICBRENHK9RDAHBCXDMBZVNQ8C","A2AP9F2LCG5GV8","3P7RGTLO6EZ76AO3386R8ZK9IWWKAW","","48","img/flower2.png","75","49","2","0","1","2","1,0,0,1,1,0,1,0,1","1,0,0,1,1,0,1,0,1","1",""
"","html-keyboard-response","111","34991","0.0-111.0","3TU5ZICBRENHK9RDAHBCXDMBZVNQ8C","A2AP9F2LCG5GV8","3P7RGTLO6EZ76AO3386R8ZK9IWWKAW","","null","<img src=""img/flower2.png"" style=""width:200px;border:14px solid red;"">","null","","","","","","","","",""
"","image-keyboard-response","112","35162","0.0-112.0","3TU5ZICBRENHK9RDAHBCXDMBZVNQ8C","A2AP9F2LCG5GV8","3P7RGTLO6EZ76AO3386R8ZK9IWWKAW","","170","img/flower6.png","76","171","3","0","2","2","1,0,0,1,1,0,1,0,1","1,0,0,1,1,0,1,0,1","1",""
"","html-keyboard-response","113","35463","0.0-113.0","3TU5ZICBRENHK9RDAHBCXDMBZVNQ8C","A2AP9F2LCG5GV8","3P7RGTLO6EZ76AO3386R8ZK9IWWKAW","","null","<img src=""img/flower6.png"" style=""width:200px;border:14px solid red;"">","null","","","","","","","","",""
"","image-keyboard-response","114","35498","0.0-114.0","3TU5ZICBRENHK9RDAHBCXDMBZVNQ8C","A2AP9F2LCG5GV8","3P7RGTLO6EZ76AO3386R8ZK9IWWKAW","","33","img/flower6.png","75","35","2","1","2","2","1,0,0,1,1,0,1,0,1","1,0,0,1,1,0,1,0,1","1",""
"","html-keyboard-response","115","35799","0.0-115.0","3TU5ZICBRENHK9RDAHBCXDMBZVNQ8C","A2AP9F2LCG5GV8","3P7RGTLO6EZ76AO3386R8ZK9IWWKAW","","null","<img src=""img/flower6.png"" style=""width:200px; border:14px solid green;"">","null","","","","","","","","",""
"","image-keyboard-response","116","35882","0.0-116.0","3TU5ZICBRENHK9RDAHBCXDMBZVNQ8C","A2AP9F2LCG5GV8","3P7RGTLO6EZ76AO3386R8ZK9IWWKAW","","81","img/flower5.png","75","83","2","0","3","2","1,0,0,1,1,0,1,0,1","1,0,0,1,1,0,1,0,1","1",""
"","html-keyboard-response","117","36185","0.0-117.0","3TU5ZICBRENHK9RDAHBCXDMBZVNQ8C","A2AP9F2LCG5GV8","3P7RGTLO6EZ76AO3386R8ZK9IWWKAW","","null","<img src=""img/flower5.png"" style=""width:200px;border:14px solid red;"">","null","","","","","","","","",""
"","image-keyboard-response","118","36283","0.0-118.0","3TU5ZICBRENHK9RDAHBCXDMBZVNQ8C","A2AP9F2LCG5GV8","3P7RGTLO6EZ76AO3386R8ZK9IWWKAW","","96","img/flower5.png","76","98","3","1","3","2","1,0,0,1,1,0,1,0,1","1,0,0,1,1,0,1,0,1","1",""
"","html-keyboard-response","119","36584","0.0-119.0","3TU5ZICBRENHK9RDAHBCXDMBZVNQ8C","A2AP9F2LCG5GV8","3P7RGTLO6EZ76AO3386R8ZK9IWWKAW","","null","<img src=""img/flower5.png"" style=""width:200px; border:14px solid green;"">","null","","","","","","","","",""
"","image-keyboard-response","120","36643","0.0-120.0","3TU5ZICBRENHK9RDAHBCXDMBZVNQ8C","A2AP9F2LCG5GV8","3P7RGTLO6EZ76AO3386R8ZK9IWWKAW","","57","img/flower6.png","74","59","1","1","2","2","1,0,0,1,1,0,1,0,1","1,0,0,1,1,0,1,0,1","1",""
"","html-keyboard-response","121","36944","0.0-121.0","3TU5ZICBRENHK9RDAHBCXDMBZVNQ8C","A2AP9F2LCG5GV8","3P7RGTLO6EZ76AO3386R8ZK9IWWKAW","","null","<img src=""img/flower6.png"" style=""width:200px; border:14px solid green;"">","null","","","","","","","","",""
"","image-keyboard-response","122","37011","0.0-122.0","3TU5ZICBRENHK9RDAHBCXDMBZVNQ8C","A2AP9F2LCG5GV8","3P7RGTLO6EZ76AO3386R8ZK9IWWKAW","","66","img/flower2.png","75","67","2","0","1","2","1,0,0,1,1,0,1,0,1","1,0,0,1,1,0,1,0,1","1",""
"","html-keyboard-response","123","37312","0.0-123.0","3TU5ZICBRENHK9RDAHBCXDMBZVNQ8C","A2AP9F2LCG5GV8","3P7RGTLO6EZ76AO3386R8ZK9IWWKAW","","null","<img src=""img/flower2.png"" style=""width:200px;border:14px solid red;"">","null","","","","","","","","",""
"","image-keyboard-response","124","37334","0.0-124.0","3TU5ZICBRENHK9RDAHBCXDMBZVNQ8C","A2AP9F2LCG5GV8","3P7RGTLO6EZ76AO3386R8ZK9IWWKAW","","19","img/flower6.png","75","22","2","1","2","2","1,0,0,1,1,0,1,0,1","1,0,0,1,1,0,1,0,1","1",""
"","html-keyboard-response","125","37638","0.0-125.0","3TU5ZICBRENHK9RDAHBCXDMBZVNQ8C","A2AP9F2LCG5GV8","3P7RGTLO6EZ76AO3386R8ZK9IWWKAW","","null","<img src=""img/flower6.png"" style=""width:200px; border:14px solid green;"">","null","","","","","","","","",""
"","image-keyboard-response","126","37786","0.0-126.0","3TU5ZICBRENHK9RDAHBCXDMBZVNQ8C","A2AP9F2LCG5GV8","3P7RGTLO6EZ76AO3386R8ZK9IWWKAW","","148","img/flower5.png","74","148","1","1","3","2","1,0,0,1,1,0,1,0,1","1,0,0,1,1,0,1,0,1","1",""
"","html-keyboard-response","127","38088","0.0-127.0","3TU5ZICBRENHK9RDAHBCXDMBZVNQ8C","A2AP9F2LCG5GV8","3P7RGTLO6EZ76AO3386R8ZK9IWWKAW","","null","<img src=""img/flower5.png"" style=""width:200px; border:14px solid green;"">","null","","","","","","","","",""
"","image-keyboard-response","128","38109","0.0-128.0","3TU5ZICBRENHK9RDAHBCXDMBZVNQ8C","A2AP9F2LCG5GV8","3P7RGTLO6EZ76AO3386R8ZK9IWWKAW","","20","img/flower5.png","76","21","3","1","3","2","1,0,0,1,1,0,1,0,1","1,0,0,1,1,0,1,0,1","1",""
"","html-keyboard-response","129","38411","0.0-129.0","3TU5ZICBRENHK9RDAHBCXDMBZVNQ8C","A2AP9F2LCG5GV8","3P7RGTLO6EZ76AO3386R8ZK9IWWKAW","","null","<img src=""img/flower5.png"" style=""width:200px; border:14px solid green;"">","null","","","","","","","","",""
"","image-keyboard-response","130","38588","0.0-130.0","3TU5ZICBRENHK9RDAHBCXDMBZVNQ8C","A2AP9F2LCG5GV8","3P7RGTLO6EZ76AO3386R8ZK9IWWKAW","","177","img/flower5.png","75","177","2","0","3","2","1,0,0,1,1,0,1,0,1","1,0,0,1,1,0,1,0,1","1",""
"","html-keyboard-response","131","38890","0.0-131.0","3TU5ZICBRENHK9RDAHBCXDMBZVNQ8C","A2AP9F2LCG5GV8","3P7RGTLO6EZ76AO3386R8ZK9IWWKAW","","null","<img src=""img/flower5.png"" style=""width:200px;border:14px solid red;"">","null","","","","","","","","",""
"","image-keyboard-response","132","39034","0.0-132.0","3TU5ZICBRENHK9RDAHBCXDMBZVNQ8C","A2AP9F2LCG5GV8","3P7RGTLO6EZ76AO3386R8ZK9IWWKAW","","144","img/flower6.png","76","144","3","0","2","2","1,0,0,1,1,0,1,0,1","1,0,0,1,1,0,1,0,1","1",""
"","html-keyboard-response","133","39336","0.0-133.0","3TU5ZICBRENHK9RDAHBCXDMBZVNQ8C","A2AP9F2LCG5GV8","3P7RGTLO6EZ76AO3386R8ZK9IWWKAW","","null","<img src=""img/flower6.png"" style=""width:200px;border:14px solid red;"">","null","","","","","","","","",""
"","image-keyboard-response","134","39363","0.0-134.0","3TU5ZICBRENHK9RDAHBCXDMBZVNQ8C","A2AP9F2LCG5GV8","3P7RGTLO6EZ76AO3386R8ZK9IWWKAW","","25","img/flower5.png","76","27","3","1","3","2","1,0,0,1,1,0,1,0,1","1,0,0,1,1,0,1,0,1","1",""
"","html-keyboard-response","135","39664","0.0-135.0","3TU5ZICBRENHK9RDAHBCXDMBZVNQ8C","A2AP9F2LCG5GV8","3P7RGTLO6EZ76AO3386R8ZK9IWWKAW","","null","<img src=""img/flower5.png"" style=""width:200px; border:14px solid green;"">","null","","","","","","","","",""
"","image-keyboard-response","136","39685","0.0-136.0","3TU5ZICBRENHK9RDAHBCXDMBZVNQ8C","A2AP9F2LCG5GV8","3P7RGTLO6EZ76AO3386R8ZK9IWWKAW","","19","img/flower5.png","76","20","3","1","3","2","1,0,0,1,1,0,1,0,1","1,0,0,1,1,0,1,0,1","1",""
"","html-keyboard-response","137","39986","0.0-137.0","3TU5ZICBRENHK9RDAHBCXDMBZVNQ8C","A2AP9F2LCG5GV8","3P7RGTLO6EZ76AO3386R8ZK9IWWKAW","","null","<img src=""img/flower5.png"" style=""width:200px; border:14px solid green;"">","null","","","","","","","","",""
"","image-keyboard-response","138","40131","0.0-138.0","3TU5ZICBRENHK9RDAHBCXDMBZVNQ8C","A2AP9F2LCG5GV8","3P7RGTLO6EZ76AO3386R8ZK9IWWKAW","","145","img/flower5.png","75","146","2","0","3","2","1,0,0,1,1,0,1,0,1","1,0,0,1,1,0,1,0,1","1",""
"","html-keyboard-response","139","40434","0.0-139.0","3TU5ZICBRENHK9RDAHBCXDMBZVNQ8C","A2AP9F2LCG5GV8","3P7RGTLO6EZ76AO3386R8ZK9IWWKAW","","null","<img src=""img/flower5.png"" style=""width:200px;border:14px solid red;"">","null","","","","","","","","",""
"","image-keyboard-response","140","40445","0.0-140.0","3TU5ZICBRENHK9RDAHBCXDMBZVNQ8C","A2AP9F2LCG5GV8","3P7RGTLO6EZ76AO3386R8ZK9IWWKAW","","9","img/flower5.png","75","11","2","0","3","2","1,0,0,1,1,0,1,0,1","1,0,0,1,1,0,1,0,1","1",""
"","html-keyboard-response","141","40745","0.0-141.0","3TU5ZICBRENHK9RDAHBCXDMBZVNQ8C","A2AP9F2LCG5GV8","3P7RGTLO6EZ76AO3386R8ZK9IWWKAW","","null","<img src=""img/flower5.png"" style=""width:200px;border:14px solid red;"">","null","","","","","","","","",""
"","image-keyboard-response","142","40810","0.0-142.0","3TU5ZICBRENHK9RDAHBCXDMBZVNQ8C","A2AP9F2LCG5GV8","3P7RGTLO6EZ76AO3386R8ZK9IWWKAW","","64","img/flower5.png","74","65","1","1","3","2","1,0,0,1,1,0,1,0,1","1,0,0,1,1,0,1,0,1","1",""
"","html-keyboard-response","143","41110","0.0-143.0","3TU5ZICBRENHK9RDAHBCXDMBZVNQ8C","A2AP9F2LCG5GV8","3P7RGTLO6EZ76AO3386R8ZK9IWWKAW","","null","<img src=""img/flower5.png"" style=""width:200px; border:14px solid green;"">","null","","","","","","","","",""
"","image-keyboard-response","144","41187","0.0-144.0","3TU5ZICBRENHK9RDAHBCXDMBZVNQ8C","A2AP9F2LCG5GV8","3P7RGTLO6EZ76AO3386R8ZK9IWWKAW","","75","img/flower2.png","76","77","3","0","1","2","1,0,0,1,1,0,1,0,1","1,0,0,1,1,0,1,0,1","1",""
"","html-keyboard-response","145","41489","0.0-145.0","3TU5ZICBRENHK9RDAHBCXDMBZVNQ8C","A2AP9F2LCG5GV8","3P7RGTLO6EZ76AO3386R8ZK9IWWKAW","","null","<img src=""img/flower2.png"" style=""width:200px;border:14px solid red;"">","null","","","","","","","","",""
"","image-keyboard-response","146","41627","0.0-146.0","3TU5ZICBRENHK9RDAHBCXDMBZVNQ8C","A2AP9F2LCG5GV8","3P7RGTLO6EZ76AO3386R8ZK9IWWKAW","","137","img/flower2.png","74","138","1","1","1","2","1,0,0,1,1,0,1,0,1","1,0,0,1,1,0,1,0,1","1",""
"","html-keyboard-response","147","41929","0.0-147.0","3TU5ZICBRENHK9RDAHBCXDMBZVNQ8C","A2AP9F2LCG5GV8","3P7RGTLO6EZ76AO3386R8ZK9IWWKAW","","null","<img src=""img/flower2.png"" style=""width:200px; border:14px solid green;"">","null","","","","","","","","",""
"","image-keyboard-response","148","41994","0.0-148.0","3TU5ZICBRENHK9RDAHBCXDMBZVNQ8C","A2AP9F2LCG5GV8","3P7RGTLO6EZ76AO3386R8ZK9IWWKAW","","64","img/flower6.png","75","65","2","1","2","2","1,0,0,1,1,0,1,0,1","1,0,0,1,1,0,1,0,1","1",""
"","html-keyboard-response","149","42294","0.0-149.0","3TU5ZICBRENHK9RDAHBCXDMBZVNQ8C","A2AP9F2LCG5GV8","3P7RGTLO6EZ76AO3386R8ZK9IWWKAW","","null","<img src=""img/flower6.png"" style=""width:200px; border:14px solid green;"">","null","","","","","","","","",""
"","image-keyboard-response","150","42315","0.0-150.0","3TU5ZICBRENHK9RDAHBCXDMBZVNQ8C","A2AP9F2LCG5GV8","3P7RGTLO6EZ76AO3386R8ZK9IWWKAW","","20","img/flower5.png","75","21","2","0","3","2","1,0,0,1,1,0,1,0,1","1,0,0,1,1,0,1,0,1","1",""
"","html-keyboard-response","151","42617","0.0-151.0","3TU5ZICBRENHK9RDAHBCXDMBZVNQ8C","A2AP9F2LCG5GV8","3P7RGTLO6EZ76AO3386R8ZK9IWWKAW","","null","<img src=""img/flower5.png"" style=""width:200px;border:14px solid red;"">","null","","","","","","","","",""
"","image-keyboard-response","152","42772","0.0-152.0","3TU5ZICBRENHK9RDAHBCXDMBZVNQ8C","A2AP9F2LCG5GV8","3P7RGTLO6EZ76AO3386R8ZK9IWWKAW","","154","img/flower2.png","74","155","1","1","1","2","1,0,0,1,1,0,1,0,1","1,0,0,1,1,0,1,0,1","1",""
"","html-keyboard-response","153","43074","0.0-153.0","3TU5ZICBRENHK9RDAHBCXDMBZVNQ8C","A2AP9F2LCG5GV8","3P7RGTLO6EZ76AO3386R8ZK9IWWKAW","","null","<img src=""img/flower2.png"" style=""width:200px; border:14px solid green;"">","null","","","","","","","","",""
"","image-keyboard-response","154","43132","0.0-154.0","3TU5ZICBRENHK9RDAHBCXDMBZVNQ8C","A2AP9F2LCG5GV8","3P7RGTLO6EZ76AO3386R8ZK9IWWKAW","","56","img/flower5.png","76","58","3","1","3","2","1,0,0,1,1,0,1,0,1","1,0,0,1,1,0,1,0,1","1",""
"","html-keyboard-response","155","43433","0.0-155.0","3TU5ZICBRENHK9RDAHBCXDMBZVNQ8C","A2AP9F2LCG5GV8","3P7RGTLO6EZ76AO3386R8ZK9IWWKAW","","null","<img src=""img/flower5.png"" style=""width:200px; border:14px solid green;"">","null","","","","","","","","",""
"","image-keyboard-response","156","43450","0.0-156.0","3TU5ZICBRENHK9RDAHBCXDMBZVNQ8C","A2AP9F2LCG5GV8","3P7RGTLO6EZ76AO3386R8ZK9IWWKAW","","16","img/flower6.png","76","17","3","0","2","2","1,0,0,1,1,0,1,0,1","1,0,0,1,1,0,1,0,1","1",""
"","html-keyboard-response","157","43752","0.0-157.0","3TU5ZICBRENHK9RDAHBCXDMBZVNQ8C","A2AP9F2LCG5GV8","3P7RGTLO6EZ76AO3386R8ZK9IWWKAW","","null","<img src=""img/flower6.png"" style=""width:200px;border:14px solid red;"">","null","","","","","","","","",""
"","image-keyboard-response","158","43779","0.0-158.0","3TU5ZICBRENHK9RDAHBCXDMBZVNQ8C","A2AP9F2LCG5GV8","3P7RGTLO6EZ76AO3386R8ZK9IWWKAW","","26","img/flower2.png","76","27","3","0","1","2","1,0,0,1,1,0,1,0,1","1,0,0,1,1,0,1,0,1","1",""
"","html-keyboard-response","159","44080","0.0-159.0","3TU5ZICBRENHK9RDAHBCXDMBZVNQ8C","A2AP9F2LCG5GV8","3P7RGTLO6EZ76AO3386R8ZK9IWWKAW","","null","<img src=""img/flower2.png"" style=""width:200px;border:14px solid red;"">","null","","","","","","","","",""
"","image-keyboard-response","160","44105","0.0-160.0","3TU5ZICBRENHK9RDAHBCXDMBZVNQ8C","A2AP9F2LCG5GV8","3P7RGTLO6EZ76AO3386R8ZK9IWWKAW","","20","img/flower5.png","76","25","3","1","3","2","1,0,0,1,1,0,1,0,1","1,0,0,1,1,0,1,0,1","1",""
"","html-keyboard-response","161","44408","0.0-161.0","3TU5ZICBRENHK9RDAHBCXDMBZVNQ8C","A2AP9F2LCG5GV8","3P7RGTLO6EZ76AO3386R8ZK9IWWKAW","","null","<img src=""img/flower5.png"" style=""width:200px; border:14px solid green;"">","null","","","","","","","","",""
"","image-keyboard-response","162","44426","0.0-162.0","3TU5ZICBRENHK9RDAHBCXDMBZVNQ8C","A2AP9F2LCG5GV8","3P7RGTLO6EZ76AO3386R8ZK9IWWKAW","","17","img/flower6.png","74","18","1","1","2","2","1,0,0,1,1,0,1,0,1","1,0,0,1,1,0,1,0,1","1",""
"","html-keyboard-response","163","44727","0.0-163.0","3TU5ZICBRENHK9RDAHBCXDMBZVNQ8C","A2AP9F2LCG5GV8","3P7RGTLO6EZ76AO3386R8ZK9IWWKAW","","null","<img src=""img/flower6.png"" style=""width:200px; border:14px solid green;"">","null","","","","","","","","",""
"","image-keyboard-response","164","44867","0.0-164.0","3TU5ZICBRENHK9RDAHBCXDMBZVNQ8C","A2AP9F2LCG5GV8","3P7RGTLO6EZ76AO3386R8ZK9IWWKAW","","139","img/flower6.png","75","140","2","1","2","2","1,0,0,1,1,0,1,0,1","1,0,0,1,1,0,1,0,1","1",""
"","html-keyboard-response","165","45167","0.0-165.0","3TU5ZICBRENHK9RDAHBCXDMBZVNQ8C","A2AP9F2LCG5GV8","3P7RGTLO6EZ76AO3386R8ZK9IWWKAW","","null","<img src=""img/flower6.png"" style=""width:200px; border:14px solid green;"">","null","","","","","","","","",""
"","image-keyboard-response","166","45201","0.0-166.0","3TU5ZICBRENHK9RDAHBCXDMBZVNQ8C","A2AP9F2LCG5GV8","3P7RGTLO6EZ76AO3386R8ZK9IWWKAW","","32","img/flower6.png","75","34","2","1","2","2","1,0,0,1,1,0,1,0,1","1,0,0,1,1,0,1,0,1","1",""
"","html-keyboard-response","167","45504","0.0-167.0","3TU5ZICBRENHK9RDAHBCXDMBZVNQ8C","A2AP9F2LCG5GV8","3P7RGTLO6EZ76AO3386R8ZK9IWWKAW","","null","<img src=""img/flower6.png"" style=""width:200px; border:14px solid green;"">","null","","","","","","","","",""
"","image-keyboard-response","168","45523","0.0-168.0","3TU5ZICBRENHK9RDAHBCXDMBZVNQ8C","A2AP9F2LCG5GV8","3P7RGTLO6EZ76AO3386R8ZK9IWWKAW","","18","img/flower6.png","75","19","2","1","2","2","1,0,0,1,1,0,1,0,1","1,0,0,1,1,0,1,0,1","1",""
"","html-keyboard-response","169","45825","0.0-169.0","3TU5ZICBRENHK9RDAHBCXDMBZVNQ8C","A2AP9F2LCG5GV8","3P7RGTLO6EZ76AO3386R8ZK9IWWKAW","","null","<img src=""img/flower6.png"" style=""width:200px; border:14px solid green;"">","null","","","","","","","","",""
"","image-keyboard-response","170","46183","0.0-170.0","3TU5ZICBRENHK9RDAHBCXDMBZVNQ8C","A2AP9F2LCG5GV8","3P7RGTLO6EZ76AO3386R8ZK9IWWKAW","","356","img/flower2.png","75","357","2","0","1","2","1,0,0,1,1,0,1,0,1","1,0,0,1,1,0,1,0,1","1",""
"","html-keyboard-response","171","46484","0.0-171.0","3TU5ZICBRENHK9RDAHBCXDMBZVNQ8C","A2AP9F2LCG5GV8","3P7RGTLO6EZ76AO3386R8ZK9IWWKAW","","null","<img src=""img/flower2.png"" style=""width:200px;border:14px solid red;"">","null","","","","","","","","",""
"","image-keyboard-response","172","46512","0.0-172.0","3TU5ZICBRENHK9RDAHBCXDMBZVNQ8C","A2AP9F2LCG5GV8","3P7RGTLO6EZ76AO3386R8ZK9IWWKAW","","27","img/flower5.png","74","28","1","1","3","2","1,0,0,1,1,0,1,0,1","1,0,0,1,1,0,1,0,1","1",""
"","html-keyboard-response","173","46813","0.0-173.0","3TU5ZICBRENHK9RDAHBCXDMBZVNQ8C","A2AP9F2LCG5GV8","3P7RGTLO6EZ76AO3386R8ZK9IWWKAW","","null","<img src=""img/flower5.png"" style=""width:200px; border:14px solid green;"">","null","","","","","","","","",""
"","image-keyboard-response","174","46923","0.0-174.0","3TU5ZICBRENHK9RDAHBCXDMBZVNQ8C","A2AP9F2LCG5GV8","3P7RGTLO6EZ76AO3386R8ZK9IWWKAW","","109","img/flower2.png","75","111","2","0","1","2","1,0,0,1,1,0,1,0,1","1,0,0,1,1,0,1,0,1","1",""
"","html-keyboard-response","175","47227","0.0-175.0","3TU5ZICBRENHK9RDAHBCXDMBZVNQ8C","A2AP9F2LCG5GV8","3P7RGTLO6EZ76AO3386R8ZK9IWWKAW","","null","<img src=""img/flower2.png"" style=""width:200px;border:14px solid red;"">","null","","","","","","","","",""
"","image-keyboard-response","176","47234","0.0-176.0","3TU5ZICBRENHK9RDAHBCXDMBZVNQ8C","A2AP9F2LCG5GV8","3P7RGTLO6EZ76AO3386R8ZK9IWWKAW","","6","img/flower6.png","75","7","2","1","2","2","1,0,0,1,1,0,1,0,1","1,0,0,1,1,0,1,0,1","1",""
"","html-keyboard-response","177","47538","0.0-177.0","3TU5ZICBRENHK9RDAHBCXDMBZVNQ8C","A2AP9F2LCG5GV8","3P7RGTLO6EZ76AO3386R8ZK9IWWKAW","","null","<img src=""img/flower6.png"" style=""width:200px; border:14px solid green;"">","null","","","","","","","","",""
"","image-keyboard-response","178","47552","0.0-178.0","3TU5ZICBRENHK9RDAHBCXDMBZVNQ8C","A2AP9F2LCG5GV8","3P7RGTLO6EZ76AO3386R8ZK9IWWKAW","","13","img/flower2.png","75","13","2","0","1","2","1,0,0,1,1,0,1,0,1","1,0,0,1,1,0,1,0,1","1",""
"","html-keyboard-response","179","47854","0.0-179.0","3TU5ZICBRENHK9RDAHBCXDMBZVNQ8C","A2AP9F2LCG5GV8","3P7RGTLO6EZ76AO3386R8ZK9IWWKAW","","null","<img src=""img/flower2.png"" style=""width:200px;border:14px solid red;"">","null","","","","","","","","",""
"","image-keyboard-response","180","47931","0.0-180.0","3TU5ZICBRENHK9RDAHBCXDMBZVNQ8C","A2AP9F2LCG5GV8","3P7RGTLO6EZ76AO3386R8ZK9IWWKAW","","76","img/flower6.png","74","77","1","1","2","2","1,0,0,1,1,0,1,0,1","1,0,0,1,1,0,1,0,1","1",""
"","html-keyboard-response","181","48233","0.0-181.0","3TU5ZICBRENHK9RDAHBCXDMBZVNQ8C","A2AP9F2LCG5GV8","3P7RGTLO6EZ76AO3386R8ZK9IWWKAW","","null","<img src=""img/flower6.png"" style=""width:200px; border:14px solid green;"">","null","","","","","","","","",""
"","image-keyboard-response","182","48330","0.0-182.0","3TU5ZICBRENHK9RDAHBCXDMBZVNQ8C","A2AP9F2LCG5GV8","3P7RGTLO6EZ76AO3386R8ZK9IWWKAW","","96","img/flower4.png","76","97","3","1","3","1","1,0.333,0.333,0.333,1,0.333,0.333,0.333,1","1,0.333,0.333,0.333,1,0.333,0.333,0.333,1","1",""
"","html-keyboard-response","183","48633","0.0-183.0","3TU5ZICBRENHK9RDAHBCXDMBZVNQ8C","A2AP9F2LCG5GV8","3P7RGTLO6EZ76AO3386R8ZK9IWWKAW","","null","<img src=""img/flower4.png"" style=""width:200px; border:14px solid green;"">","null","","","","","","","","",""
"","image-keyboard-response","184","48644","0.0-184.0","3TU5ZICBRENHK9RDAHBCXDMBZVNQ8C","A2AP9F2LCG5GV8","3P7RGTLO6EZ76AO3386R8ZK9IWWKAW","","10","img/flower4.png","76","11","3","1","3","1","1,0.333,0.333,0.333,1,0.333,0.333,0.333,1","1,0.333,0.333,0.333,1,0.333,0.333,0.333,1","1",""
"","html-keyboard-response","185","48946","0.0-185.0","3TU5ZICBRENHK9RDAHBCXDMBZVNQ8C","A2AP9F2LCG5GV8","3P7RGTLO6EZ76AO3386R8ZK9IWWKAW","","null","<img src=""img/flower4.png"" style=""width:200px; border:14px solid green;"">","null","","","","","","","","",""
"","image-keyboard-response","186","48971","0.0-186.0","3TU5ZICBRENHK9RDAHBCXDMBZVNQ8C","A2AP9F2LCG5GV8","3P7RGTLO6EZ76AO3386R8ZK9IWWKAW","","24","img/flower3.png","76","24","3","1","2","1","1,0.333,0.333,0.333,1,0.333,0.333,0.333,1","1,0.333,0.333,0.333,1,0.333,0.333,0.333,1","1",""
"","html-keyboard-response","187","49273","0.0-187.0","3TU5ZICBRENHK9RDAHBCXDMBZVNQ8C","A2AP9F2LCG5GV8","3P7RGTLO6EZ76AO3386R8ZK9IWWKAW","","null","<img src=""img/flower3.png"" style=""width:200px; border:14px solid green;"">","null","","","","","","","","",""
"","image-keyboard-response","188","49355","0.0-188.0","3TU5ZICBRENHK9RDAHBCXDMBZVNQ8C","A2AP9F2LCG5GV8","3P7RGTLO6EZ76AO3386R8ZK9IWWKAW","","80","img/flower4.png","75","82","2","1","3","1","1,0.333,0.333,0.333,1,0.333,0.333,0.333,1","1,0.333,0.333,0.333,1,0.333,0.333,0.333,1","1",""
"","html-keyboard-response","189","49657","0.0-189.0","3TU5ZICBRENHK9RDAHBCXDMBZVNQ8C","A2AP9F2LCG5GV8","3P7RGTLO6EZ76AO3386R8ZK9IWWKAW","","null","<img src=""img/flower4.png"" style=""width:200px; border:14px solid green;"">","null","","","","","","","","",""
"","image-keyboard-response","190","49754","0.0-190.0","3TU5ZICBRENHK9RDAHBCXDMBZVNQ8C","A2AP9F2LCG5GV8","3P7RGTLO6EZ76AO3386R8ZK9IWWKAW","","97","img/flower4.png","76","97","3","1","3","1","1,0.333,0.333,0.333,1,0.333,0.333,0.333,1","1,0.333,0.333,0.333,1,0.333,0.333,0.333,1","1",""
"","html-keyboard-response","191","50058","0.0-191.0","3TU5ZICBRENHK9RDAHBCXDMBZVNQ8C","A2AP9F2LCG5GV8","3P7RGTLO6EZ76AO3386R8ZK9IWWKAW","","null","<img src=""img/flower4.png"" style=""width:200px; border:14px solid green;"">","null","","","","","","","","",""
"","image-keyboard-response","192","50123","0.0-192.0","3TU5ZICBRENHK9RDAHBCXDMBZVNQ8C","A2AP9F2LCG5GV8","3P7RGTLO6EZ76AO3386R8ZK9IWWKAW","","64","img/flower1.png","74","65","1","1","1","1","1,0.333,0.333,0.333,1,0.333,0.333,0.333,1","1,0.333,0.333,0.333,1,0.333,0.333,0.333,1","1",""
"","html-keyboard-response","193","50426","0.0-193.0","3TU5ZICBRENHK9RDAHBCXDMBZVNQ8C","A2AP9F2LCG5GV8","3P7RGTLO6EZ76AO3386R8ZK9IWWKAW","","null","<img src=""img/flower1.png"" style=""width:200px; border:14px solid green;"">","null","","","","","","","","",""
"","image-keyboard-response","194","50435","0.0-194.0","3TU5ZICBRENHK9RDAHBCXDMBZVNQ8C","A2AP9F2LCG5GV8","3P7RGTLO6EZ76AO3386R8ZK9IWWKAW","","8","img/flower1.png","75","9","2","0","1","1","1,0.333,0.333,0.333,1,0.333,0.333,0.333,1","1,0.333,0.333,0.333,1,0.333,0.333,0.333,1","1",""
"","html-keyboard-response","195","50740","0.0-195.0","3TU5ZICBRENHK9RDAHBCXDMBZVNQ8C","A2AP9F2LCG5GV8","3P7RGTLO6EZ76AO3386R8ZK9IWWKAW","","null","<img src=""img/flower1.png"" style=""width:200px;border:14px solid red;"">","null","","","","","","","","",""
"","image-keyboard-response","196","50867","0.0-196.0","3TU5ZICBRENHK9RDAHBCXDMBZVNQ8C","A2AP9F2LCG5GV8","3P7RGTLO6EZ76AO3386R8ZK9IWWKAW","","126","img/flower4.png","76","127","3","1","3","1","1,0.333,0.333,0.333,1,0.333,0.333,0.333,1","1,0.333,0.333,0.333,1,0.333,0.333,0.333,1","1",""
"","html-keyboard-response","197","51176","0.0-197.0","3TU5ZICBRENHK9RDAHBCXDMBZVNQ8C","A2AP9F2LCG5GV8","3P7RGTLO6EZ76AO3386R8ZK9IWWKAW","","null","<img src=""img/flower4.png"" style=""width:200px; border:14px solid green;"">","null","","","","","","","","",""
"","image-keyboard-response","198","51193","0.0-198.0","3TU5ZICBRENHK9RDAHBCXDMBZVNQ8C","A2AP9F2LCG5GV8","3P7RGTLO6EZ76AO3386R8ZK9IWWKAW","","12","img/flower4.png","76","17","3","1","3","1","1,0.333,0.333,0.333,1,0.333,0.333,0.333,1","1,0.333,0.333,0.333,1,0.333,0.333,0.333,1","1",""
"","html-keyboard-response","199","51495","0.0-199.0","3TU5ZICBRENHK9RDAHBCXDMBZVNQ8C","A2AP9F2LCG5GV8","3P7RGTLO6EZ76AO3386R8ZK9IWWKAW","","null","<img src=""img/flower4.png"" style=""width:200px; border:14px solid green;"">","null","","","","","","","","",""
"","image-keyboard-response","200","51571","0.0-200.0","3TU5ZICBRENHK9RDAHBCXDMBZVNQ8C","A2AP9F2LCG5GV8","3P7RGTLO6EZ76AO3386R8ZK9IWWKAW","","74","img/flower4.png","75","76","2","0","3","1","1,0.333,0.333,0.333,1,0.333,0.333,0.333,1","1,0.333,0.333,0.333,1,0.333,0.333,0.333,1","1",""
"","html-keyboard-response","201","51871","0.0-201.0","3TU5ZICBRENHK9RDAHBCXDMBZVNQ8C","A2AP9F2LCG5GV8","3P7RGTLO6EZ76AO3386R8ZK9IWWKAW","","null","<img src=""img/flower4.png"" style=""width:200px;border:14px solid red;"">","null","","","","","","","","",""
"","image-keyboard-response","202","51955","0.0-202.0","3TU5ZICBRENHK9RDAHBCXDMBZVNQ8C","A2AP9F2LCG5GV8","3P7RGTLO6EZ76AO3386R8ZK9IWWKAW","","84","img/flower1.png","74","84","1","1","1","1","1,0.333,0.333,0.333,1,0.333,0.333,0.333,1","1,0.333,0.333,0.333,1,0.333,0.333,0.333,1","1",""
"","html-keyboard-response","203","52256","0.0-203.0","3TU5ZICBRENHK9RDAHBCXDMBZVNQ8C","A2AP9F2LCG5GV8","3P7RGTLO6EZ76AO3386R8ZK9IWWKAW","","null","<img src=""img/flower1.png"" style=""width:200px; border:14px solid green;"">","null","","","","","","","","",""
"","image-keyboard-response","204","52268","0.0-204.0","3TU5ZICBRENHK9RDAHBCXDMBZVNQ8C","A2AP9F2LCG5GV8","3P7RGTLO6EZ76AO3386R8ZK9IWWKAW","","7","img/flower1.png","76","12","3","0","1","1","1,0.333,0.333,0.333,1,0.333,0.333,0.333,1","1,0.333,0.333,0.333,1,0.333,0.333,0.333,1","1",""
"","html-keyboard-response","205","52571","0.0-205.0","3TU5ZICBRENHK9RDAHBCXDMBZVNQ8C","A2AP9F2LCG5GV8","3P7RGTLO6EZ76AO3386R8ZK9IWWKAW","","null","<img src=""img/flower1.png"" style=""width:200px;border:14px solid red;"">","null","","","","","","","","",""
"","image-keyboard-response","206","52603","0.0-206.0","3TU5ZICBRENHK9RDAHBCXDMBZVNQ8C","A2AP9F2LCG5GV8","3P7RGTLO6EZ76AO3386R8ZK9IWWKAW","","30","img/flower4.png","75","31","2","1","3","1","1,0.333,0.333,0.333,1,0.333,0.333,0.333,1","1,0.333,0.333,0.333,1,0.333,0.333,0.333,1","1",""
"","html-keyboard-response","207","52905","0.0-207.0","3TU5ZICBRENHK9RDAHBCXDMBZVNQ8C","A2AP9F2LCG5GV8","3P7RGTLO6EZ76AO3386R8ZK9IWWKAW","","null","<img src=""img/flower4.png"" style=""width:200px; border:14px solid green;"">","null","","","","","","","","",""
"","image-keyboard-response","208","52987","0.0-208.0","3TU5ZICBRENHK9RDAHBCXDMBZVNQ8C","A2AP9F2LCG5GV8","3P7RGTLO6EZ76AO3386R8ZK9IWWKAW","","81","img/flower3.png","74","82","1","0","2","1","1,0.333,0.333,0.333,1,0.333,0.333,0.333,1","1,0.333,0.333,0.333,1,0.333,0.333,0.333,1","1",""
"","html-keyboard-response","209","53287","0.0-209.0","3TU5ZICBRENHK9RDAHBCXDMBZVNQ8C","A2AP9F2LCG5GV8","3P7RGTLO6EZ76AO3386R8ZK9IWWKAW","","null","<img src=""img/flower3.png"" style=""width:200px;border:14px solid red;"">","null","","","","","","","","",""
"","image-keyboard-response","210","53411","0.0-210.0","3TU5ZICBRENHK9RDAHBCXDMBZVNQ8C","A2AP9F2LCG5GV8","3P7RGTLO6EZ76AO3386R8ZK9IWWKAW","","123","img/flower3.png","75","124","2","1","2","1","1,0.333,0.333,0.333,1,0.333,0.333,0.333,1","1,0.333,0.333,0.333,1,0.333,0.333,0.333,1","1",""
"","html-keyboard-response","211","53711","0.0-211.0","3TU5ZICBRENHK9RDAHBCXDMBZVNQ8C","A2AP9F2LCG5GV8","3P7RGTLO6EZ76AO3386R8ZK9IWWKAW","","null","<img src=""img/flower3.png"" style=""width:200px; border:14px solid green;"">","null","","","","","","","","",""
"","image-keyboard-response","212","53786","0.0-212.0","3TU5ZICBRENHK9RDAHBCXDMBZVNQ8C","A2AP9F2LCG5GV8","3P7RGTLO6EZ76AO3386R8ZK9IWWKAW","","74","img/flower4.png","74","75","1","0","3","1","1,0.333,0.333,0.333,1,0.333,0.333,0.333,1","1,0.333,0.333,0.333,1,0.333,0.333,0.333,1","1",""
"","html-keyboard-response","213","54089","0.0-213.0","3TU5ZICBRENHK9RDAHBCXDMBZVNQ8C","A2AP9F2LCG5GV8","3P7RGTLO6EZ76AO3386R8ZK9IWWKAW","","null","<img src=""img/flower4.png"" style=""width:200px;border:14px solid red;"">","null","","","","","","","","",""
"","image-keyboard-response","214","54202","0.0-214.0","3TU5ZICBRENHK9RDAHBCXDMBZVNQ8C","A2AP9F2LCG5GV8","3P7RGTLO6EZ76AO3386R8ZK9IWWKAW","","112","img/flower3.png","75","113","2","1","2","1","1,0.333,0.333,0.333,1,0.333,0.333,0.333,1","1,0.333,0.333,0.333,1,0.333,0.333,0.333,1","1",""
"","html-keyboard-response","215","54502","0.0-215.0","3TU5ZICBRENHK9RDAHBCXDMBZVNQ8C","A2AP9F2LCG5GV8","3P7RGTLO6EZ76AO3386R8ZK9IWWKAW","","null","<img src=""img/flower3.png"" style=""width:200px; border:14px solid green;"">","null","","","","","","","","",""
"","image-keyboard-response","216","54523","0.0-216.0","3TU5ZICBRENHK9RDAHBCXDMBZVNQ8C","A2AP9F2LCG5GV8","3P7RGTLO6EZ76AO3386R8ZK9IWWKAW","","20","img/flower4.png","74","21","1","0","3","1","1,0.333,0.333,0.333,1,0.333,0.333,0.333,1","1,0.333,0.333,0.333,1,0.333,0.333,0.333,1","1",""
"","html-keyboard-response","217","54835","0.0-217.0","3TU5ZICBRENHK9RDAHBCXDMBZVNQ8C","A2AP9F2LCG5GV8","3P7RGTLO6EZ76AO3386R8ZK9IWWKAW","","null","<img src=""img/flower4.png"" style=""width:200px;border:14px solid red;"">","null","","","","","","","","",""
"","image-keyboard-response","218","54882","0.0-218.0","3TU5ZICBRENHK9RDAHBCXDMBZVNQ8C","A2AP9F2LCG5GV8","3P7RGTLO6EZ76AO3386R8ZK9IWWKAW","","46","img/flower4.png","76","46","3","1","3","1","1,0.333,0.333,0.333,1,0.333,0.333,0.333,1","1,0.333,0.333,0.333,1,0.333,0.333,0.333,1","1",""
"","html-keyboard-response","219","55184","0.0-219.0","3TU5ZICBRENHK9RDAHBCXDMBZVNQ8C","A2AP9F2LCG5GV8","3P7RGTLO6EZ76AO3386R8ZK9IWWKAW","","null","<img src=""img/flower4.png"" style=""width:200px; border:14px solid green;"">","null","","","","","","","","",""
"","image-keyboard-response","220","55266","0.0-220.0","3TU5ZICBRENHK9RDAHBCXDMBZVNQ8C","A2AP9F2LCG5GV8","3P7RGTLO6EZ76AO3386R8ZK9IWWKAW","","81","img/flower4.png","75","83","2","1","3","1","1,0.333,0.333,0.333,1,0.333,0.333,0.333,1","1,0.333,0.333,0.333,1,0.333,0.333,0.333,1","1",""
"","html-keyboard-response","221","55569","0.0-221.0","3TU5ZICBRENHK9RDAHBCXDMBZVNQ8C","A2AP9F2LCG5GV8","3P7RGTLO6EZ76AO3386R8ZK9IWWKAW","","null","<img src=""img/flower4.png"" style=""width:200px; border:14px solid green;"">","null","","","","","","","","",""
"","image-keyboard-response","222","55585","0.0-222.0","3TU5ZICBRENHK9RDAHBCXDMBZVNQ8C","A2AP9F2LCG5GV8","3P7RGTLO6EZ76AO3386R8ZK9IWWKAW","","15","img/flower1.png","74","16","1","1","1","1","1,0.333,0.333,0.333,1,0.333,0.333,0.333,1","1,0.333,0.333,0.333,1,0.333,0.333,0.333,1","1",""
"","html-keyboard-response","223","55886","0.0-223.0","3TU5ZICBRENHK9RDAHBCXDMBZVNQ8C","A2AP9F2LCG5GV8","3P7RGTLO6EZ76AO3386R8ZK9IWWKAW","","null","<img src=""img/flower1.png"" style=""width:200px; border:14px solid green;"">","null","","","","","","","","",""
"","image-keyboard-response","224","56028","0.0-224.0","3TU5ZICBRENHK9RDAHBCXDMBZVNQ8C","A2AP9F2LCG5GV8","3P7RGTLO6EZ76AO3386R8ZK9IWWKAW","","140","img/flower1.png","76","142","3","1","1","1","1,0.333,0.333,0.333,1,0.333,0.333,0.333,1","1,0.333,0.333,0.333,1,0.333,0.333,0.333,1","1",""
"","html-keyboard-response","225","56329","0.0-225.0","3TU5ZICBRENHK9RDAHBCXDMBZVNQ8C","A2AP9F2LCG5GV8","3P7RGTLO6EZ76AO3386R8ZK9IWWKAW","","null","<img src=""img/flower1.png"" style=""width:200px; border:14px solid green;"">","null","","","","","","","","",""
"","image-keyboard-response","226","56419","0.0-226.0","3TU5ZICBRENHK9RDAHBCXDMBZVNQ8C","A2AP9F2LCG5GV8","3P7RGTLO6EZ76AO3386R8ZK9IWWKAW","","83","img/flower1.png","75","90","2","1","1","1","1,0.333,0.333,0.333,1,0.333,0.333,0.333,1","1,0.333,0.333,0.333,1,0.333,0.333,0.333,1","1",""
"","html-keyboard-response","227","56720","0.0-227.0","3TU5ZICBRENHK9RDAHBCXDMBZVNQ8C","A2AP9F2LCG5GV8","3P7RGTLO6EZ76AO3386R8ZK9IWWKAW","","null","<img src=""img/flower1.png"" style=""width:200px; border:14px solid green;"">","null","","","","","","","","",""
"","image-keyboard-response","228","56884","0.0-228.0","3TU5ZICBRENHK9RDAHBCXDMBZVNQ8C","A2AP9F2LCG5GV8","3P7RGTLO6EZ76AO3386R8ZK9IWWKAW","","164","img/flower1.png","76","164","3","0","1","1","1,0.333,0.333,0.333,1,0.333,0.333,0.333,1","1,0.333,0.333,0.333,1,0.333,0.333,0.333,1","1",""
"","html-keyboard-response","229","57185","0.0-229.0","3TU5ZICBRENHK9RDAHBCXDMBZVNQ8C","A2AP9F2LCG5GV8","3P7RGTLO6EZ76AO3386R8ZK9IWWKAW","","null","<img src=""img/flower1.png"" style=""width:200px;border:14px solid red;"">","null","","","","","","","","",""
"","image-keyboard-response","230","57221","0.0-230.0","3TU5ZICBRENHK9RDAHBCXDMBZVNQ8C","A2AP9F2LCG5GV8","3P7RGTLO6EZ76AO3386R8ZK9IWWKAW","","22","img/flower3.png","74","35","1","0","2","1","1,0.333,0.333,0.333,1,0.333,0.333,0.333,1","1,0.333,0.333,0.333,1,0.333,0.333,0.333,1","1",""
"","html-keyboard-response","231","57523","0.0-231.0","3TU5ZICBRENHK9RDAHBCXDMBZVNQ8C","A2AP9F2LCG5GV8","3P7RGTLO6EZ76AO3386R8ZK9IWWKAW","","null","<img src=""img/flower3.png"" style=""width:200px;border:14px solid red;"">","null","","","","","","","","",""
"","image-keyboard-response","232","57541","0.0-232.0","3TU5ZICBRENHK9RDAHBCXDMBZVNQ8C","A2AP9F2LCG5GV8","3P7RGTLO6EZ76AO3386R8ZK9IWWKAW","","16","img/flower3.png","75","17","2","1","2","1","1,0.333,0.333,0.333,1,0.333,0.333,0.333,1","1,0.333,0.333,0.333,1,0.333,0.333,0.333,1","1",""
"","html-keyboard-response","233","57843","0.0-233.0","3TU5ZICBRENHK9RDAHBCXDMBZVNQ8C","A2AP9F2LCG5GV8","3P7RGTLO6EZ76AO3386R8ZK9IWWKAW","","null","<img src=""img/flower3.png"" style=""width:200px; border:14px solid green;"">","null","","","","","","","","",""
"","image-keyboard-response","234","57947","0.0-234.0","3TU5ZICBRENHK9RDAHBCXDMBZVNQ8C","A2AP9F2LCG5GV8","3P7RGTLO6EZ76AO3386R8ZK9IWWKAW","","103","img/flower4.png","76","104","3","1","3","1","1,0.333,0.333,0.333,1,0.333,0.333,0.333,1","1,0.333,0.333,0.333,1,0.333,0.333,0.333,1","1",""
"","html-keyboard-response","235","58247","0.0-235.0","3TU5ZICBRENHK9RDAHBCXDMBZVNQ8C","A2AP9F2LCG5GV8","3P7RGTLO6EZ76AO3386R8ZK9IWWKAW","","null","<img src=""img/flower4.png"" style=""width:200px; border:14px solid green;"">","null","","","","","","","","",""
"","image-keyboard-response","236","58299","0.0-236.0","3TU5ZICBRENHK9RDAHBCXDMBZVNQ8C","A2AP9F2LCG5GV8","3P7RGTLO6EZ76AO3386R8ZK9IWWKAW","","50","img/flower1.png","75","52","2","0","1","1","1,0.333,0.333,0.333,1,0.333,0.333,0.333,1","1,0.333,0.333,0.333,1,0.333,0.333,0.333,1","1",""
"","html-keyboard-response","237","58602","0.0-237.0","3TU5ZICBRENHK9RDAHBCXDMBZVNQ8C","A2AP9F2LCG5GV8","3P7RGTLO6EZ76AO3386R8ZK9IWWKAW","","null","<img src=""img/flower1.png"" style=""width:200px;border:14px solid red;"">","null","","","","","","","","",""
"","image-keyboard-response","238","58603","0.0-238.0","3TU5ZICBRENHK9RDAHBCXDMBZVNQ8C","A2AP9F2LCG5GV8","3P7RGTLO6EZ76AO3386R8ZK9IWWKAW","","0","img/flower1.png","75","1","2","0","1","1","1,0.333,0.333,0.333,1,0.333,0.333,0.333,1","1,0.333,0.333,0.333,1,0.333,0.333,0.333,1","1",""
"","html-keyboard-response","239","58904","0.0-239.0","3TU5ZICBRENHK9RDAHBCXDMBZVNQ8C","A2AP9F2LCG5GV8","3P7RGTLO6EZ76AO3386R8ZK9IWWKAW","","null","<img src=""img/flower1.png"" style=""width:200px;border:14px solid red;"">","null","","","","","","","","",""
"","image-keyboard-response","240","59011","0.0-240.0","3TU5ZICBRENHK9RDAHBCXDMBZVNQ8C","A2AP9F2LCG5GV8","3P7RGTLO6EZ76AO3386R8ZK9IWWKAW","","106","img/flower1.png","76","108","3","0","1","1","1,0.333,0.333,0.333,1,0.333,0.333,0.333,1","1,0.333,0.333,0.333,1,0.333,0.333,0.333,1","1",""
"","html-keyboard-response","241","59313","0.0-241.0","3TU5ZICBRENHK9RDAHBCXDMBZVNQ8C","A2AP9F2LCG5GV8","3P7RGTLO6EZ76AO3386R8ZK9IWWKAW","","null","<img src=""img/flower1.png"" style=""width:200px;border:14px solid red;"">","null","","","","","","","","",""
"","image-keyboard-response","242","59387","0.0-242.0","3TU5ZICBRENHK9RDAHBCXDMBZVNQ8C","A2AP9F2LCG5GV8","3P7RGTLO6EZ76AO3386R8ZK9IWWKAW","","73","img/flower3.png","75","74","2","1","2","1","1,0.333,0.333,0.333,1,0.333,0.333,0.333,1","1,0.333,0.333,0.333,1,0.333,0.333,0.333,1","1",""
"","html-keyboard-response","243","59689","0.0-243.0","3TU5ZICBRENHK9RDAHBCXDMBZVNQ8C","A2AP9F2LCG5GV8","3P7RGTLO6EZ76AO3386R8ZK9IWWKAW","","null","<img src=""img/flower3.png"" style=""width:200px; border:14px solid green;"">","null","","","","","","","","",""
"","image-keyboard-response","244","59834","0.0-244.0","3TU5ZICBRENHK9RDAHBCXDMBZVNQ8C","A2AP9F2LCG5GV8","3P7RGTLO6EZ76AO3386R8ZK9IWWKAW","","144","img/flower1.png","76","146","3","0","1","1","1,0.333,0.333,0.333,1,0.333,0.333,0.333,1","1,0.333,0.333,0.333,1,0.333,0.333,0.333,1","1",""
"","html-keyboard-response","245","60135","0.0-245.0","3TU5ZICBRENHK9RDAHBCXDMBZVNQ8C","A2AP9F2LCG5GV8","3P7RGTLO6EZ76AO3386R8ZK9IWWKAW","","null","<img src=""img/flower1.png"" style=""width:200px;border:14px solid red;"">","null","","","","","","","","",""
"","image-keyboard-response","246","60211","0.0-246.0","3TU5ZICBRENHK9RDAHBCXDMBZVNQ8C","A2AP9F2LCG5GV8","3P7RGTLO6EZ76AO3386R8ZK9IWWKAW","","75","img/flower3.png","76","76","3","0","2","1","1,0.333,0.333,0.333,1,0.333,0.333,0.333,1","1,0.333,0.333,0.333,1,0.333,0.333,0.333,1","1",""
"","html-keyboard-response","247","60513","0.0-247.0","3TU5ZICBRENHK9RDAHBCXDMBZVNQ8C","A2AP9F2LCG5GV8","3P7RGTLO6EZ76AO3386R8ZK9IWWKAW","","null","<img src=""img/flower3.png"" style=""width:200px;border:14px solid red;"">","null","","","","","","","","",""
"","image-keyboard-response","248","60541","0.0-248.0","3TU5ZICBRENHK9RDAHBCXDMBZVNQ8C","A2AP9F2LCG5GV8","3P7RGTLO6EZ76AO3386R8ZK9IWWKAW","","25","img/flower3.png","75","27","2","1","2","1","1,0.333,0.333,0.333,1,0.333,0.333,0.333,1","1,0.333,0.333,0.333,1,0.333,0.333,0.333,1","1",""
"","html-keyboard-response","249","60841","0.0-249.0","3TU5ZICBRENHK9RDAHBCXDMBZVNQ8C","A2AP9F2LCG5GV8","3P7RGTLO6EZ76AO3386R8ZK9IWWKAW","","null","<img src=""img/flower3.png"" style=""width:200px; border:14px solid green;"">","null","","","","","","","","",""
"","image-keyboard-response","250","60953","0.0-250.0","3TU5ZICBRENHK9RDAHBCXDMBZVNQ8C","A2AP9F2LCG5GV8","3P7RGTLO6EZ76AO3386R8ZK9IWWKAW","","111","img/flower4.png","74","112","1","1","3","1","1,0.333,0.333,0.333,1,0.333,0.333,0.333,1","1,0.333,0.333,0.333,1,0.333,0.333,0.333,1","1",""
"","html-keyboard-response","251","61256","0.0-251.0","3TU5ZICBRENHK9RDAHBCXDMBZVNQ8C","A2AP9F2LCG5GV8","3P7RGTLO6EZ76AO3386R8ZK9IWWKAW","","null","<img src=""img/flower4.png"" style=""width:200px; border:14px solid green;"">","null","","","","","","","","",""
"","image-keyboard-response","252","61338","0.0-252.0","3TU5ZICBRENHK9RDAHBCXDMBZVNQ8C","A2AP9F2LCG5GV8","3P7RGTLO6EZ76AO3386R8ZK9IWWKAW","","82","img/flower3.png","75","82","2","1","2","1","1,0.333,0.333,0.333,1,0.333,0.333,0.333,1","1,0.333,0.333,0.333,1,0.333,0.333,0.333,1","1",""
"","html-keyboard-response","253","61641","0.0-253.0","3TU5ZICBRENHK9RDAHBCXDMBZVNQ8C","A2AP9F2LCG5GV8","3P7RGTLO6EZ76AO3386R8ZK9IWWKAW","","null","<img src=""img/flower3.png"" style=""width:200px; border:14px solid green;"">","null","","","","","","","","",""
"","image-keyboard-response","254","61730","0.0-254.0","3TU5ZICBRENHK9RDAHBCXDMBZVNQ8C","A2AP9F2LCG5GV8","3P7RGTLO6EZ76AO3386R8ZK9IWWKAW","","87","img/flower3.png","74","89","1","0","2","1","1,0.333,0.333,0.333,1,0.333,0.333,0.333,1","1,0.333,0.333,0.333,1,0.333,0.333,0.333,1","1",""
"","html-keyboard-response","255","62032","0.0-255.0","3TU5ZICBRENHK9RDAHBCXDMBZVNQ8C","A2AP9F2LCG5GV8","3P7RGTLO6EZ76AO3386R8ZK9IWWKAW","","null","<img src=""img/flower3.png"" style=""width:200px;border:14px solid red;"">","null","","","","","","","","",""
"","image-keyboard-response","256","62079","0.0-256.0","3TU5ZICBRENHK9RDAHBCXDMBZVNQ8C","A2AP9F2LCG5GV8","3P7RGTLO6EZ76AO3386R8ZK9IWWKAW","","46","img/flower4.png","76","47","3","1","3","1","1,0.333,0.333,0.333,1,0.333,0.333,0.333,1","1,0.333,0.333,0.333,1,0.333,0.333,0.333,1","1",""
"","html-keyboard-response","257","62382","0.0-257.0","3TU5ZICBRENHK9RDAHBCXDMBZVNQ8C","A2AP9F2LCG5GV8","3P7RGTLO6EZ76AO3386R8ZK9IWWKAW","","null","<img src=""img/flower4.png"" style=""width:200px; border:14px solid green;"">","null","","","","","","","","",""
"","image-keyboard-response","258","62443","0.0-258.0","3TU5ZICBRENHK9RDAHBCXDMBZVNQ8C","A2AP9F2LCG5GV8","3P7RGTLO6EZ76AO3386R8ZK9IWWKAW","","60","img/flower3.png","75","61","2","1","2","1","1,0.333,0.333,0.333,1,0.333,0.333,0.333,1","1,0.333,0.333,0.333,1,0.333,0.333,0.333,1","1",""
"","html-keyboard-response","259","62744","0.0-259.0","3TU5ZICBRENHK9RDAHBCXDMBZVNQ8C","A2AP9F2LCG5GV8","3P7RGTLO6EZ76AO3386R8ZK9IWWKAW","","null","<img src=""img/flower3.png"" style=""width:200px; border:14px solid green;"">","null","","","","","","","","",""
"","image-keyboard-response","260","62914","0.0-260.0","3TU5ZICBRENHK9RDAHBCXDMBZVNQ8C","A2AP9F2LCG5GV8","3P7RGTLO6EZ76AO3386R8ZK9IWWKAW","","169","img/flower3.png","76","170","3","0","2","1","1,0.333,0.333,0.333,1,0.333,0.333,0.333,1","1,0.333,0.333,0.333,1,0.333,0.333,0.333,1","1",""
"","html-keyboard-response","261","63221","0.0-261.0","3TU5ZICBRENHK9RDAHBCXDMBZVNQ8C","A2AP9F2LCG5GV8","3P7RGTLO6EZ76AO3386R8ZK9IWWKAW","","null","<img src=""img/flower3.png"" style=""width:200px;border:14px solid red;"">","null","","","","","","","","",""
"","image-keyboard-response","262","63266","0.0-262.0","3TU5ZICBRENHK9RDAHBCXDMBZVNQ8C","A2AP9F2LCG5GV8","3P7RGTLO6EZ76AO3386R8ZK9IWWKAW","","43","img/flower3.png","74","45","1","1","2","1","1,0.333,0.333,0.333,1,0.333,0.333,0.333,1","1,0.333,0.333,0.333,1,0.333,0.333,0.333,1","1",""
"","html-keyboard-response","263","63567","0.0-263.0","3TU5ZICBRENHK9RDAHBCXDMBZVNQ8C","A2AP9F2LCG5GV8","3P7RGTLO6EZ76AO3386R8ZK9IWWKAW","","null","<img src=""img/flower3.png"" style=""width:200px; border:14px solid green;"">","null","","","","","","","","",""
"","image-keyboard-response","264","63635","0.0-264.0","3TU5ZICBRENHK9RDAHBCXDMBZVNQ8C","A2AP9F2LCG5GV8","3P7RGTLO6EZ76AO3386R8ZK9IWWKAW","","66","img/flower1.png","75","67","2","0","1","1","1,0.333,0.333,0.333,1,0.333,0.333,0.333,1","1,0.333,0.333,0.333,1,0.333,0.333,0.333,1","1",""
"","html-keyboard-response","265","63937","0.0-265.0","3TU5ZICBRENHK9RDAHBCXDMBZVNQ8C","A2AP9F2LCG5GV8","3P7RGTLO6EZ76AO3386R8ZK9IWWKAW","","null","<img src=""img/flower1.png"" style=""width:200px;border:14px solid red;"">","null","","","","","","","","",""
"","image-keyboard-response","266","64036","0.0-266.0","3TU5ZICBRENHK9RDAHBCXDMBZVNQ8C","A2AP9F2LCG5GV8","3P7RGTLO6EZ76AO3386R8ZK9IWWKAW","","97","img/flower3.png","76","99","3","0","2","1","1,0.333,0.333,0.333,1,0.333,0.333,0.333,1","1,0.333,0.333,0.333,1,0.333,0.333,0.333,1","1",""
"","html-keyboard-response","267","64339","0.0-267.0","3TU5ZICBRENHK9RDAHBCXDMBZVNQ8C","A2AP9F2LCG5GV8","3P7RGTLO6EZ76AO3386R8ZK9IWWKAW","","null","<img src=""img/flower3.png"" style=""width:200px;border:14px solid red;"">","null","","","","","","","","",""
"","image-keyboard-response","268","64348","0.0-268.0","3TU5ZICBRENHK9RDAHBCXDMBZVNQ8C","A2AP9F2LCG5GV8","3P7RGTLO6EZ76AO3386R8ZK9IWWKAW","","2","img/flower4.png","74","9","1","0","3","1","1,0.333,0.333,0.333,1,0.333,0.333,0.333,1","1,0.333,0.333,0.333,1,0.333,0.333,0.333,1","1",""
"","html-keyboard-response","269","64650","0.0-269.0","3TU5ZICBRENHK9RDAHBCXDMBZVNQ8C","A2AP9F2LCG5GV8","3P7RGTLO6EZ76AO3386R8ZK9IWWKAW","","null","<img src=""img/flower4.png"" style=""width:200px;border:14px solid red;"">","null","","","","","","","","",""
"","image-keyboard-response","270","64705","0.0-270.0","3TU5ZICBRENHK9RDAHBCXDMBZVNQ8C","A2AP9F2LCG5GV8","3P7RGTLO6EZ76AO3386R8ZK9IWWKAW","","54","img/flower1.png","75","55","2","1","1","1","1,0.333,0.333,0.333,1,0.333,0.333,0.333,1","1,0.333,0.333,0.333,1,0.333,0.333,0.333,1","1",""
"","html-keyboard-response","271","65007","0.0-271.0","3TU5ZICBRENHK9RDAHBCXDMBZVNQ8C","A2AP9F2LCG5GV8","3P7RGTLO6EZ76AO3386R8ZK9IWWKAW","","null","<img src=""img/flower1.png"" style=""width:200px; border:14px solid green;"">","null","","","","","","","","",""
"","image-keyboard-response","272","65105","0.0-272.0","3TU5ZICBRENHK9RDAHBCXDMBZVNQ8C","A2AP9F2LCG5GV8","3P7RGTLO6EZ76AO3386R8ZK9IWWKAW","","96","img/flower3.png","74","98","1","0","2","1","1,0.333,0.333,0.333,1,0.333,0.333,0.333,1","1,0.333,0.333,0.333,1,0.333,0.333,0.333,1","1",""
"","html-keyboard-response","273","65408","0.0-273.0","3TU5ZICBRENHK9RDAHBCXDMBZVNQ8C","A2AP9F2LCG5GV8","3P7RGTLO6EZ76AO3386R8ZK9IWWKAW","","null","<img src=""img/flower3.png"" style=""width:200px;border:14px solid red;"">","null","","","","","","","","",""
"","image-keyboard-response","274","65483","0.0-274.0","3TU5ZICBRENHK9RDAHBCXDMBZVNQ8C","A2AP9F2LCG5GV8","3P7RGTLO6EZ76AO3386R8ZK9IWWKAW","","74","img/flower1.png","75","76","2","0","1","1","1,0.333,0.333,0.333,1,0.333,0.333,0.333,1","1,0.333,0.333,0.333,1,0.333,0.333,0.333,1","1",""
"","html-keyboard-response","275","65785","0.0-275.0","3TU5ZICBRENHK9RDAHBCXDMBZVNQ8C","A2AP9F2LCG5GV8","3P7RGTLO6EZ76AO3386R8ZK9IWWKAW","","null","<img src=""img/flower1.png"" style=""width:200px;border:14px solid red;"">","null","","","","","","","","",""
"","image-keyboard-response","276","65899","0.0-276.0","3TU5ZICBRENHK9RDAHBCXDMBZVNQ8C","A2AP9F2LCG5GV8","3P7RGTLO6EZ76AO3386R8ZK9IWWKAW","","112","img/flower3.png","74","113","1","0","2","1","1,0.333,0.333,0.333,1,0.333,0.333,0.333,1","1,0.333,0.333,0.333,1,0.333,0.333,0.333,1","1",""
"","html-keyboard-response","277","66200","0.0-277.0","3TU5ZICBRENHK9RDAHBCXDMBZVNQ8C","A2AP9F2LCG5GV8","3P7RGTLO6EZ76AO3386R8ZK9IWWKAW","","null","<img src=""img/flower3.png"" style=""width:200px;border:14px solid red;"">","null","","","","","","","","",""
"","image-keyboard-response","278","66291","0.0-278.0","3TU5ZICBRENHK9RDAHBCXDMBZVNQ8C","A2AP9F2LCG5GV8","3P7RGTLO6EZ76AO3386R8ZK9IWWKAW","","88","img/flower4.png","75","90","2","0","3","1","1,0.333,0.333,0.333,1,0.333,0.333,0.333,1","1,0.333,0.333,0.333,1,0.333,0.333,0.333,1","1",""
"","html-keyboard-response","279","66592","0.0-279.0","3TU5ZICBRENHK9RDAHBCXDMBZVNQ8C","A2AP9F2LCG5GV8","3P7RGTLO6EZ76AO3386R8ZK9IWWKAW","","null","<img src=""img/flower4.png"" style=""width:200px;border:14px solid red;"">","null","","","","","","","","",""
"","image-keyboard-response","280","66674","0.0-280.0","3TU5ZICBRENHK9RDAHBCXDMBZVNQ8C","A2AP9F2LCG5GV8","3P7RGTLO6EZ76AO3386R8ZK9IWWKAW","","81","img/flower3.png","74","82","1","1","2","1","1,0.333,0.333,0.333,1,0.333,0.333,0.333,1","1,0.333,0.333,0.333,1,0.333,0.333,0.333,1","1",""
"","html-keyboard-response","281","66976","0.0-281.0","3TU5ZICBRENHK9RDAHBCXDMBZVNQ8C","A2AP9F2LCG5GV8","3P7RGTLO6EZ76AO3386R8ZK9IWWKAW","","null","<img src=""img/flower3.png"" style=""width:200px; border:14px solid green;"">","null","","","","","","","","",""
"","image-keyboard-response","282","66995","0.0-282.0","3TU5ZICBRENHK9RDAHBCXDMBZVNQ8C","A2AP9F2LCG5GV8","3P7RGTLO6EZ76AO3386R8ZK9IWWKAW","","17","img/flower3.png","76","19","3","0","2","1","1,0.333,0.333,0.333,1,0.333,0.333,0.333,1","1,0.333,0.333,0.333,1,0.333,0.333,0.333,1","1",""
"","html-keyboard-response","283","67296","0.0-283.0","3TU5ZICBRENHK9RDAHBCXDMBZVNQ8C","A2AP9F2LCG5GV8","3P7RGTLO6EZ76AO3386R8ZK9IWWKAW","","null","<img src=""img/flower3.png"" style=""width:200px;border:14px solid red;"">","null","","","","","","","","",""
"","image-keyboard-response","284","67378","0.0-284.0","3TU5ZICBRENHK9RDAHBCXDMBZVNQ8C","A2AP9F2LCG5GV8","3P7RGTLO6EZ76AO3386R8ZK9IWWKAW","","81","img/flower3.png","75","81","2","1","2","1","1,0.333,0.333,0.333,1,0.333,0.333,0.333,1","1,0.333,0.333,0.333,1,0.333,0.333,0.333,1","1",""
"","html-keyboard-response","285","67679","0.0-285.0","3TU5ZICBRENHK9RDAHBCXDMBZVNQ8C","A2AP9F2LCG5GV8","3P7RGTLO6EZ76AO3386R8ZK9IWWKAW","","null","<img src=""img/flower3.png"" style=""width:200px; border:14px solid green;"">","null","","","","","","","","",""
"","image-keyboard-response","286","67851","0.0-286.0","3TU5ZICBRENHK9RDAHBCXDMBZVNQ8C","A2AP9F2LCG5GV8","3P7RGTLO6EZ76AO3386R8ZK9IWWKAW","","171","img/flower1.png","76","172","3","0","1","1","1,0.333,0.333,0.333,1,0.333,0.333,0.333,1","1,0.333,0.333,0.333,1,0.333,0.333,0.333,1","1",""
"","html-keyboard-response","287","68159","0.0-287.0","3TU5ZICBRENHK9RDAHBCXDMBZVNQ8C","A2AP9F2LCG5GV8","3P7RGTLO6EZ76AO3386R8ZK9IWWKAW","","null","<img src=""img/flower1.png"" style=""width:200px;border:14px solid red;"">","null","","","","","","","","",""
"","image-keyboard-response","288","68180","0.0-288.0","3TU5ZICBRENHK9RDAHBCXDMBZVNQ8C","A2AP9F2LCG5GV8","3P7RGTLO6EZ76AO3386R8ZK9IWWKAW","","18","img/flower4.png","76","20","3","1","3","1","1,0.333,0.333,0.333,1,0.333,0.333,0.333,1","1,0.333,0.333,0.333,1,0.333,0.333,0.333,1","1",""
"","html-keyboard-response","289","68483","0.0-289.0","3TU5ZICBRENHK9RDAHBCXDMBZVNQ8C","A2AP9F2LCG5GV8","3P7RGTLO6EZ76AO3386R8ZK9IWWKAW","","null","<img src=""img/flower4.png"" style=""width:200px; border:14px solid green;"">","null","","","","","","","","",""
"","image-keyboard-response","290","68508","0.0-290.0","3TU5ZICBRENHK9RDAHBCXDMBZVNQ8C","A2AP9F2LCG5GV8","3P7RGTLO6EZ76AO3386R8ZK9IWWKAW","","24","img/flower1.png","75","25","2","0","1","1","1,0.333,0.333,0.333,1,0.333,0.333,0.333,1","1,0.333,0.333,0.333,1,0.333,0.333,0.333,1","1",""
"","html-keyboard-response","291","68810","0.0-291.0","3TU5ZICBRENHK9RDAHBCXDMBZVNQ8C","A2AP9F2LCG5GV8","3P7RGTLO6EZ76AO3386R8ZK9IWWKAW","","null","<img src=""img/flower1.png"" style=""width:200px;border:14px solid red;"">","null","","","","","","","","",""
"","image-keyboard-response","292","68915","0.0-292.0","3TU5ZICBRENHK9RDAHBCXDMBZVNQ8C","A2AP9F2LCG5GV8","3P7RGTLO6EZ76AO3386R8ZK9IWWKAW","","103","img/flower3.png","74","105","1","0","2","1","1,0.333,0.333,0.333,1,0.333,0.333,0.333,1","1,0.333,0.333,0.333,1,0.333,0.333,0.333,1","1",""
"","html-keyboard-response","293","69216","0.0-293.0","3TU5ZICBRENHK9RDAHBCXDMBZVNQ8C","A2AP9F2LCG5GV8","3P7RGTLO6EZ76AO3386R8ZK9IWWKAW","","null","<img src=""img/flower3.png"" style=""width:200px;border:14px solid red;"">","null","","","","","","","","",""
"","image-keyboard-response","294","69290","0.0-294.0","3TU5ZICBRENHK9RDAHBCXDMBZVNQ8C","A2AP9F2LCG5GV8","3P7RGTLO6EZ76AO3386R8ZK9IWWKAW","","73","img/flower3.png","75","75","2","1","2","1","1,0.333,0.333,0.333,1,0.333,0.333,0.333,1","1,0.333,0.333,0.333,1,0.333,0.333,0.333,1","1",""
"","html-keyboard-response","295","69591","0.0-295.0","3TU5ZICBRENHK9RDAHBCXDMBZVNQ8C","A2AP9F2LCG5GV8","3P7RGTLO6EZ76AO3386R8ZK9IWWKAW","","null","<img src=""img/flower3.png"" style=""width:200px; border:14px solid green;"">","null","","","","","","","","",""
"","image-keyboard-response","296","69676","0.0-296.0","3TU5ZICBRENHK9RDAHBCXDMBZVNQ8C","A2AP9F2LCG5GV8","3P7RGTLO6EZ76AO3386R8ZK9IWWKAW","","77","img/flower4.png","76","84","3","1","3","1","1,0.333,0.333,0.333,1,0.333,0.333,0.333,1","1,0.333,0.333,0.333,1,0.333,0.333,0.333,1","1",""
"","html-keyboard-response","297","69979","0.0-297.0","3TU5ZICBRENHK9RDAHBCXDMBZVNQ8C","A2AP9F2LCG5GV8","3P7RGTLO6EZ76AO3386R8ZK9IWWKAW","","null","<img src=""img/flower4.png"" style=""width:200px; border:14px solid green;"">","null","","","","","","","","",""
"","image-keyboard-response","298","70011","0.0-298.0","3TU5ZICBRENHK9RDAHBCXDMBZVNQ8C","A2AP9F2LCG5GV8","3P7RGTLO6EZ76AO3386R8ZK9IWWKAW","","30","img/flower4.png","75","31","2","0","3","1","1,0.333,0.333,0.333,1,0.333,0.333,0.333,1","1,0.333,0.333,0.333,1,0.333,0.333,0.333,1","1",""
"","html-keyboard-response","299","70312","0.0-299.0","3TU5ZICBRENHK9RDAHBCXDMBZVNQ8C","A2AP9F2LCG5GV8","3P7RGTLO6EZ76AO3386R8ZK9IWWKAW","","null","<img src=""img/flower4.png"" style=""width:200px;border:14px solid red;"">","null","","","","","","","","",""
"","image-keyboard-response","300","70411","0.0-300.0","3TU5ZICBRENHK9RDAHBCXDMBZVNQ8C","A2AP9F2LCG5GV8","3P7RGTLO6EZ76AO3386R8ZK9IWWKAW","","98","img/flower4.png","74","99","1","0","3","1","1,0.333,0.333,0.333,1,0.333,0.333,0.333,1","1,0.333,0.333,0.333,1,0.333,0.333,0.333,1","1",""
"","html-keyboard-response","301","70712","0.0-301.0","3TU5ZICBRENHK9RDAHBCXDMBZVNQ8C","A2AP9F2LCG5GV8","3P7RGTLO6EZ76AO3386R8ZK9IWWKAW","","null","<img src=""img/flower4.png"" style=""width:200px;border:14px solid red;"">","null","","","","","","","","",""
"","image-keyboard-response","302","70731","0.0-302.0","3TU5ZICBRENHK9RDAHBCXDMBZVNQ8C","A2AP9F2LCG5GV8","3P7RGTLO6EZ76AO3386R8ZK9IWWKAW","","18","img/flower1.png","75","19","2","1","1","1","1,0.333,0.333,0.333,1,0.333,0.333,0.333,1","1,0.333,0.333,0.333,1,0.333,0.333,0.333,1","1",""
"","html-keyboard-response","303","71033","0.0-303.0","3TU5ZICBRENHK9RDAHBCXDMBZVNQ8C","A2AP9F2LCG5GV8","3P7RGTLO6EZ76AO3386R8ZK9IWWKAW","","null","<img src=""img/flower1.png"" style=""width:200px; border:14px solid green;"">","null","","","","","","","","",""
"","image-keyboard-response","304","71163","0.0-304.0","3TU5ZICBRENHK9RDAHBCXDMBZVNQ8C","A2AP9F2LCG5GV8","3P7RGTLO6EZ76AO3386R8ZK9IWWKAW","","128","img/flower4.png","74","130","1","0","3","1","1,0.333,0.333,0.333,1,0.333,0.333,0.333,1","1,0.333,0.333,0.333,1,0.333,0.333,0.333,1","1",""
"","html-keyboard-response","305","71465","0.0-305.0","3TU5ZICBRENHK9RDAHBCXDMBZVNQ8C","A2AP9F2LCG5GV8","3P7RGTLO6EZ76AO3386R8ZK9IWWKAW","","null","<img src=""img/flower4.png"" style=""width:200px;border:14px solid red;"">","null","","","","","","","","",""
"","image-keyboard-response","306","71475","0.0-306.0","3TU5ZICBRENHK9RDAHBCXDMBZVNQ8C","A2AP9F2LCG5GV8","3P7RGTLO6EZ76AO3386R8ZK9IWWKAW","","8","img/flower1.png","76","10","3","0","1","1","1,0.333,0.333,0.333,1,0.333,0.333,0.333,1","1,0.333,0.333,0.333,1,0.333,0.333,0.333,1","1",""
"","html-keyboard-response","307","71776","0.0-307.0","3TU5ZICBRENHK9RDAHBCXDMBZVNQ8C","A2AP9F2LCG5GV8","3P7RGTLO6EZ76AO3386R8ZK9IWWKAW","","null","<img src=""img/flower1.png"" style=""width:200px;border:14px solid red;"">","null","","","","","","","","",""
"","image-keyboard-response","308","71835","0.0-308.0","3TU5ZICBRENHK9RDAHBCXDMBZVNQ8C","A2AP9F2LCG5GV8","3P7RGTLO6EZ76AO3386R8ZK9IWWKAW","","57","img/flower1.png","75","59","2","1","1","1","1,0.333,0.333,0.333,1,0.333,0.333,0.333,1","1,0.333,0.333,0.333,1,0.333,0.333,0.333,1","1",""
"","html-keyboard-response","309","72137","0.0-309.0","3TU5ZICBRENHK9RDAHBCXDMBZVNQ8C","A2AP9F2LCG5GV8","3P7RGTLO6EZ76AO3386R8ZK9IWWKAW","","null","<img src=""img/flower1.png"" style=""width:200px; border:14px solid green;"">","null","","","","","","","","",""
"","image-keyboard-response","310","72228","0.0-310.0","3TU5ZICBRENHK9RDAHBCXDMBZVNQ8C","A2AP9F2LCG5GV8","3P7RGTLO6EZ76AO3386R8ZK9IWWKAW","","89","img/flower3.png","74","90","1","0","2","1","1,0.333,0.333,0.333,1,0.333,0.333,0.333,1","1,0.333,0.333,0.333,1,0.333,0.333,0.333,1","1",""
"","html-keyboard-response","311","72532","0.0-311.0","3TU5ZICBRENHK9RDAHBCXDMBZVNQ8C","A2AP9F2LCG5GV8","3P7RGTLO6EZ76AO3386R8ZK9IWWKAW","","null","<img src=""img/flower3.png"" style=""width:200px;border:14px solid red;"">","null","","","","","","","","",""
"","image-keyboard-response","312","72563","0.0-312.0","3TU5ZICBRENHK9RDAHBCXDMBZVNQ8C","A2AP9F2LCG5GV8","3P7RGTLO6EZ76AO3386R8ZK9IWWKAW","","30","img/flower3.png","76","31","3","1","2","1","1,0.333,0.333,0.333,1,0.333,0.333,0.333,1","1,0.333,0.333,0.333,1,0.333,0.333,0.333,1","1",""
"","html-keyboard-response","313","72865","0.0-313.0","3TU5ZICBRENHK9RDAHBCXDMBZVNQ8C","A2AP9F2LCG5GV8","3P7RGTLO6EZ76AO3386R8ZK9IWWKAW","","null","<img src=""img/flower3.png"" style=""width:200px; border:14px solid green;"">","null","","","","","","","","",""
"","image-keyboard-response","314","72891","0.0-314.0","3TU5ZICBRENHK9RDAHBCXDMBZVNQ8C","A2AP9F2LCG5GV8","3P7RGTLO6EZ76AO3386R8ZK9IWWKAW","","24","img/flower4.png","75","25","2","0","3","1","1,0.333,0.333,0.333,1,0.333,0.333,0.333,1","1,0.333,0.333,0.333,1,0.333,0.333,0.333,1","1",""
"","html-keyboard-response","315","73196","0.0-315.0","3TU5ZICBRENHK9RDAHBCXDMBZVNQ8C","A2AP9F2LCG5GV8","3P7RGTLO6EZ76AO3386R8ZK9IWWKAW","","null","<img src=""img/flower4.png"" style=""width:200px;border:14px solid red;"">","null","","","","","","","","",""
"","image-keyboard-response","316","73242","0.0-316.0","3TU5ZICBRENHK9RDAHBCXDMBZVNQ8C","A2AP9F2LCG5GV8","3P7RGTLO6EZ76AO3386R8ZK9IWWKAW","","45","img/flower3.png","74","46","1","1","2","1","1,0.333,0.333,0.333,1,0.333,0.333,0.333,1","1,0.333,0.333,0.333,1,0.333,0.333,0.333,1","1",""
"","html-keyboard-response","317","73542","0.0-317.0","3TU5ZICBRENHK9RDAHBCXDMBZVNQ8C","A2AP9F2LCG5GV8","3P7RGTLO6EZ76AO3386R8ZK9IWWKAW","","null","<img src=""img/flower3.png"" style=""width:200px; border:14px solid green;"">","null","","","","","","","","",""
"","image-keyboard-response","318","73579","0.0-318.0","3TU5ZICBRENHK9RDAHBCXDMBZVNQ8C","A2AP9F2LCG5GV8","3P7RGTLO6EZ76AO3386R8ZK9IWWKAW","","36","img/flower3.png","76","37","3","0","2","1","1,0.333,0.333,0.333,1,0.333,0.333,0.333,1","1,0.333,0.333,0.333,1,0.333,0.333,0.333,1","1",""
"","html-keyboard-response","319","73880","0.0-319.0","3TU5ZICBRENHK9RDAHBCXDMBZVNQ8C","A2AP9F2LCG5GV8","3P7RGTLO6EZ76AO3386R8ZK9IWWKAW","","null","<img src=""img/flower3.png"" style=""width:200px;border:14px solid red;"">","null","","","","","","","","",""
"","image-keyboard-response","320","73954","0.0-320.0","3TU5ZICBRENHK9RDAHBCXDMBZVNQ8C","A2AP9F2LCG5GV8","3P7RGTLO6EZ76AO3386R8ZK9IWWKAW","","73","img/flower4.png","75","74","2","1","3","1","1,0.333,0.333,0.333,1,0.333,0.333,0.333,1","1,0.333,0.333,0.333,1,0.333,0.333,0.333,1","1",""
"","html-keyboard-response","321","74255","0.0-321.0","3TU5ZICBRENHK9RDAHBCXDMBZVNQ8C","A2AP9F2LCG5GV8","3P7RGTLO6EZ76AO3386R8ZK9IWWKAW","","null","<img src=""img/flower4.png"" style=""width:200px; border:14px solid green;"">","null","","","","","","","","",""
"","image-keyboard-response","322","74290","0.0-322.0","3TU5ZICBRENHK9RDAHBCXDMBZVNQ8C","A2AP9F2LCG5GV8","3P7RGTLO6EZ76AO3386R8ZK9IWWKAW","","34","img/flower4.png","74","34","1","0","3","1","1,0.333,0.333,0.333,1,0.333,0.333,0.333,1","1,0.333,0.333,0.333,1,0.333,0.333,0.333,1","1",""
"","html-keyboard-response","323","74592","0.0-323.0","3TU5ZICBRENHK9RDAHBCXDMBZVNQ8C","A2AP9F2LCG5GV8","3P7RGTLO6EZ76AO3386R8ZK9IWWKAW","","null","<img src=""img/flower4.png"" style=""width:200px;border:14px solid red;"">","null","","","","","","","","",""
"","image-keyboard-response","324","74609","0.0-324.0","3TU5ZICBRENHK9RDAHBCXDMBZVNQ8C","A2AP9F2LCG5GV8","3P7RGTLO6EZ76AO3386R8ZK9IWWKAW","","16","img/flower3.png","74","17","1","0","2","1","1,0.333,0.333,0.333,1,0.333,0.333,0.333,1","1,0.333,0.333,0.333,1,0.333,0.333,0.333,1","1",""
"","html-keyboard-response","325","74912","0.0-325.0","3TU5ZICBRENHK9RDAHBCXDMBZVNQ8C","A2AP9F2LCG5GV8","3P7RGTLO6EZ76AO3386R8ZK9IWWKAW","","null","<img src=""img/flower3.png"" style=""width:200px;border:14px solid red;"">","null","","","","","","","","",""
"","image-keyboard-response","326","74963","0.0-326.0","3TU5ZICBRENHK9RDAHBCXDMBZVNQ8C","A2AP9F2LCG5GV8","3P7RGTLO6EZ76AO3386R8ZK9IWWKAW","","50","img/flower1.png","76","52","3","0","1","1","1,0.333,0.333,0.333,1,0.333,0.333,0.333,1","1,0.333,0.333,0.333,1,0.333,0.333,0.333,1","1",""
"","html-keyboard-response","327","75265","0.0-327.0","3TU5ZICBRENHK9RDAHBCXDMBZVNQ8C","A2AP9F2LCG5GV8","3P7RGTLO6EZ76AO3386R8ZK9IWWKAW","","null","<img src=""img/flower1.png"" style=""width:200px;border:14px solid red;"">","null","","","","","","","","",""
"","image-keyboard-response","328","75328","0.0-328.0","3TU5ZICBRENHK9RDAHBCXDMBZVNQ8C","A2AP9F2LCG5GV8","3P7RGTLO6EZ76AO3386R8ZK9IWWKAW","","61","img/flower1.png","74","62","1","1","1","1","1,0.333,0.333,0.333,1,0.333,0.333,0.333,1","1,0.333,0.333,0.333,1,0.333,0.333,0.333,1","1",""
"","html-keyboard-response","329","75629","0.0-329.0","3TU5ZICBRENHK9RDAHBCXDMBZVNQ8C","A2AP9F2LCG5GV8","3P7RGTLO6EZ76AO3386R8ZK9IWWKAW","","null","<img src=""img/flower1.png"" style=""width:200px; border:14px solid green;"">","null","","","","","","","","",""
"","image-keyboard-response","330","75762","0.0-330.0","3TU5ZICBRENHK9RDAHBCXDMBZVNQ8C","A2AP9F2LCG5GV8","3P7RGTLO6EZ76AO3386R8ZK9IWWKAW","","131","img/flower1.png","76","132","3","0","1","1","1,0.333,0.333,0.333,1,0.333,0.333,0.333,1","1,0.333,0.333,0.333,1,0.333,0.333,0.333,1","1",""
"","html-keyboard-response","331","76064","0.0-331.0","3TU5ZICBRENHK9RDAHBCXDMBZVNQ8C","A2AP9F2LCG5GV8","3P7RGTLO6EZ76AO3386R8ZK9IWWKAW","","null","<img src=""img/flower1.png"" style=""width:200px;border:14px solid red;"">","null","","","","","","","","",""
"","image-keyboard-response","332","76111","0.0-332.0","3TU5ZICBRENHK9RDAHBCXDMBZVNQ8C","A2AP9F2LCG5GV8","3P7RGTLO6EZ76AO3386R8ZK9IWWKAW","","43","img/flower1.png","74","46","1","1","1","1","1,0.333,0.333,0.333,1,0.333,0.333,0.333,1","1,0.333,0.333,0.333,1,0.333,0.333,0.333,1","1",""
"","html-keyboard-response","333","76411","0.0-333.0","3TU5ZICBRENHK9RDAHBCXDMBZVNQ8C","A2AP9F2LCG5GV8","3P7RGTLO6EZ76AO3386R8ZK9IWWKAW","","null","<img src=""img/flower1.png"" style=""width:200px; border:14px solid green;"">","null","","","","","","","","",""
"","image-keyboard-response","334","76466","0.0-334.0","3TU5ZICBRENHK9RDAHBCXDMBZVNQ8C","A2AP9F2LCG5GV8","3P7RGTLO6EZ76AO3386R8ZK9IWWKAW","","55","img/flower1.png","75","55","2","1","1","1","1,0.333,0.333,0.333,1,0.333,0.333,0.333,1","1,0.333,0.333,0.333,1,0.333,0.333,0.333,1","1",""
"","html-keyboard-response","335","76767","0.0-335.0","3TU5ZICBRENHK9RDAHBCXDMBZVNQ8C","A2AP9F2LCG5GV8","3P7RGTLO6EZ76AO3386R8ZK9IWWKAW","","null","<img src=""img/flower1.png"" style=""width:200px; border:14px solid green;"">","null","","","","","","","","",""
"","image-keyboard-response","336","76786","0.0-336.0","3TU5ZICBRENHK9RDAHBCXDMBZVNQ8C","A2AP9F2LCG5GV8","3P7RGTLO6EZ76AO3386R8ZK9IWWKAW","","18","img/flower4.png","75","19","2","0","3","1","1,0.333,0.333,0.333,1,0.333,0.333,0.333,1","1,0.333,0.333,0.333,1,0.333,0.333,0.333,1","1",""
"","html-keyboard-response","337","77088","0.0-337.0","3TU5ZICBRENHK9RDAHBCXDMBZVNQ8C","A2AP9F2LCG5GV8","3P7RGTLO6EZ76AO3386R8ZK9IWWKAW","","null","<img src=""img/flower4.png"" style=""width:200px;border:14px solid red;"">","null","","","","","","","","",""
"","image-keyboard-response","338","77238","0.0-338.0","3TU5ZICBRENHK9RDAHBCXDMBZVNQ8C","A2AP9F2LCG5GV8","3P7RGTLO6EZ76AO3386R8ZK9IWWKAW","","146","img/flower1.png","76","150","3","0","1","1","1,0.333,0.333,0.333,1,0.333,0.333,0.333,1","1,0.333,0.333,0.333,1,0.333,0.333,0.333,1","1",""
"","html-keyboard-response","339","77539","0.0-339.0","3TU5ZICBRENHK9RDAHBCXDMBZVNQ8C","A2AP9F2LCG5GV8","3P7RGTLO6EZ76AO3386R8ZK9IWWKAW","","null","<img src=""img/flower1.png"" style=""width:200px;border:14px solid red;"">","null","","","","","","","","",""
"","image-keyboard-response","340","77563","0.0-340.0","3TU5ZICBRENHK9RDAHBCXDMBZVNQ8C","A2AP9F2LCG5GV8","3P7RGTLO6EZ76AO3386R8ZK9IWWKAW","","23","img/flower1.png","74","24","1","1","1","1","1,0.333,0.333,0.333,1,0.333,0.333,0.333,1","1,0.333,0.333,0.333,1,0.333,0.333,0.333,1","1",""
"","html-keyboard-response","341","77865","0.0-341.0","3TU5ZICBRENHK9RDAHBCXDMBZVNQ8C","A2AP9F2LCG5GV8","3P7RGTLO6EZ76AO3386R8ZK9IWWKAW","","null","<img src=""img/flower1.png"" style=""width:200px; border:14px solid green;"">","null","","","","","","","","",""
"","image-keyboard-response","342","77994","0.0-342.0","3TU5ZICBRENHK9RDAHBCXDMBZVNQ8C","A2AP9F2LCG5GV8","3P7RGTLO6EZ76AO3386R8ZK9IWWKAW","","128","img/flower1.png","75","129","2","0","1","1","1,0.333,0.333,0.333,1,0.333,0.333,0.333,1","1,0.333,0.333,0.333,1,0.333,0.333,0.333,1","1",""
"","html-keyboard-response","343","78294","0.0-343.0","3TU5ZICBRENHK9RDAHBCXDMBZVNQ8C","A2AP9F2LCG5GV8","3P7RGTLO6EZ76AO3386R8ZK9IWWKAW","","null","<img src=""img/flower1.png"" style=""width:200px;border:14px solid red;"">","null","","","","","","","","",""
"","image-keyboard-response","344","78306","0.0-344.0","3TU5ZICBRENHK9RDAHBCXDMBZVNQ8C","A2AP9F2LCG5GV8","3P7RGTLO6EZ76AO3386R8ZK9IWWKAW","","11","img/flower1.png","75","12","2","0","1","1","1,0.333,0.333,0.333,1,0.333,0.333,0.333,1","1,0.333,0.333,0.333,1,0.333,0.333,0.333,1","1",""
"","html-keyboard-response","345","78608","0.0-345.0","3TU5ZICBRENHK9RDAHBCXDMBZVNQ8C","A2AP9F2LCG5GV8","3P7RGTLO6EZ76AO3386R8ZK9IWWKAW","","null","<img src=""img/flower1.png"" style=""width:200px;border:14px solid red;"">","null","","","","","","","","",""
"","image-keyboard-response","346","78649","0.0-346.0","3TU5ZICBRENHK9RDAHBCXDMBZVNQ8C","A2AP9F2LCG5GV8","3P7RGTLO6EZ76AO3386R8ZK9IWWKAW","","40","img/flower3.png","74","41","1","1","2","1","1,0.333,0.333,0.333,1,0.333,0.333,0.333,1","1,0.333,0.333,0.333,1,0.333,0.333,0.333,1","1",""
"","html-keyboard-response","347","78950","0.0-347.0","3TU5ZICBRENHK9RDAHBCXDMBZVNQ8C","A2AP9F2LCG5GV8","3P7RGTLO6EZ76AO3386R8ZK9IWWKAW","","null","<img src=""img/flower3.png"" style=""width:200px; border:14px solid green;"">","null","","","","","","","","",""
"","image-keyboard-response","348","78987","0.0-348.0","3TU5ZICBRENHK9RDAHBCXDMBZVNQ8C","A2AP9F2LCG5GV8","3P7RGTLO6EZ76AO3386R8ZK9IWWKAW","","36","img/flower1.png","76","37","3","1","1","1","1,0.333,0.333,0.333,1,0.333,0.333,0.333,1","1,0.333,0.333,0.333,1,0.333,0.333,0.333,1","1",""
"","html-keyboard-response","349","79289","0.0-349.0","3TU5ZICBRENHK9RDAHBCXDMBZVNQ8C","A2AP9F2LCG5GV8","3P7RGTLO6EZ76AO3386R8ZK9IWWKAW","","null","<img src=""img/flower1.png"" style=""width:200px; border:14px solid green;"">","null","","","","","","","","",""
"","image-keyboard-response","350","79299","0.0-350.0","3TU5ZICBRENHK9RDAHBCXDMBZVNQ8C","A2AP9F2LCG5GV8","3P7RGTLO6EZ76AO3386R8ZK9IWWKAW","","9","img/flower4.png","76","10","3","1","3","1","1,0.333,0.333,0.333,1,0.333,0.333,0.333,1","1,0.333,0.333,0.333,1,0.333,0.333,0.333,1","1",""
"","html-keyboard-response","351","79602","0.0-351.0","3TU5ZICBRENHK9RDAHBCXDMBZVNQ8C","A2AP9F2LCG5GV8","3P7RGTLO6EZ76AO3386R8ZK9IWWKAW","","null","<img src=""img/flower4.png"" style=""width:200px; border:14px solid green;"">","null","","","","","","","","",""
"","image-keyboard-response","352","79699","0.0-352.0","3TU5ZICBRENHK9RDAHBCXDMBZVNQ8C","A2AP9F2LCG5GV8","3P7RGTLO6EZ76AO3386R8ZK9IWWKAW","","95","img/flower4.png","74","96","1","1","3","1","1,0.333,0.333,0.333,1,0.333,0.333,0.333,1","1,0.333,0.333,0.333,1,0.333,0.333,0.333,1","1",""
"","html-keyboard-response","353","80000","0.0-353.0","3TU5ZICBRENHK9RDAHBCXDMBZVNQ8C","A2AP9F2LCG5GV8","3P7RGTLO6EZ76AO3386R8ZK9IWWKAW","","null","<img src=""img/flower4.png"" style=""width:200px; border:14px solid green;"">","null","","","","","","","","",""
"","image-keyboard-response","354","80043","0.0-354.0","3TU5ZICBRENHK9RDAHBCXDMBZVNQ8C","A2AP9F2LCG5GV8","3P7RGTLO6EZ76AO3386R8ZK9IWWKAW","","42","img/flower4.png","75","43","2","0","3","1","1,0.333,0.333,0.333,1,0.333,0.333,0.333,1","1,0.333,0.333,0.333,1,0.333,0.333,0.333,1","1",""
"","html-keyboard-response","355","80345","0.0-355.0","3TU5ZICBRENHK9RDAHBCXDMBZVNQ8C","A2AP9F2LCG5GV8","3P7RGTLO6EZ76AO3386R8ZK9IWWKAW","","null","<img src=""img/flower4.png"" style=""width:200px;border:14px solid red;"">","null","","","","","","","","",""
"","image-keyboard-response","356","80491","0.0-356.0","3TU5ZICBRENHK9RDAHBCXDMBZVNQ8C","A2AP9F2LCG5GV8","3P7RGTLO6EZ76AO3386R8ZK9IWWKAW","","145","img/flower3.png","74","147","1","0","2","1","1,0.333,0.333,0.333,1,0.333,0.333,0.333,1","1,0.333,0.333,0.333,1,0.333,0.333,0.333,1","1",""
"","html-keyboard-response","357","80793","0.0-357.0","3TU5ZICBRENHK9RDAHBCXDMBZVNQ8C","A2AP9F2LCG5GV8","3P7RGTLO6EZ76AO3386R8ZK9IWWKAW","","null","<img src=""img/flower3.png"" style=""width:200px;border:14px solid red;"">","null","","","","","","","","",""
"","image-keyboard-response","358","80796","0.0-358.0","3TU5ZICBRENHK9RDAHBCXDMBZVNQ8C","A2AP9F2LCG5GV8","3P7RGTLO6EZ76AO3386R8ZK9IWWKAW","","1","img/flower4.png","76","3","3","1","3","1","1,0.333,0.333,0.333,1,0.333,0.333,0.333,1","1,0.333,0.333,0.333,1,0.333,0.333,0.333,1","1",""
"","html-keyboard-response","359","81096","0.0-359.0","3TU5ZICBRENHK9RDAHBCXDMBZVNQ8C","A2AP9F2LCG5GV8","3P7RGTLO6EZ76AO3386R8ZK9IWWKAW","","null","<img src=""img/flower4.png"" style=""width:200px; border:14px solid green;"">","null","","","","","","","","",""
"","image-keyboard-response","360","81111","0.0-360.0","3TU5ZICBRENHK9RDAHBCXDMBZVNQ8C","A2AP9F2LCG5GV8","3P7RGTLO6EZ76AO3386R8ZK9IWWKAW","","12","img/flower3.png","76","15","3","1","2","1","1,0.333,0.333,0.333,1,0.333,0.333,0.333,1","1,0.333,0.333,0.333,1,0.333,0.333,0.333,1","1",""
"","html-keyboard-response","361","81413","0.0-361.0","3TU5ZICBRENHK9RDAHBCXDMBZVNQ8C","A2AP9F2LCG5GV8","3P7RGTLO6EZ76AO3386R8ZK9IWWKAW","","null","<img src=""img/flower3.png"" style=""width:200px; border:14px solid green;"">","null","","","","","","","","",""
"","html-keyboard-response","362","83807","0.0-362.0","3TU5ZICBRENHK9RDAHBCXDMBZVNQ8C","A2AP9F2LCG5GV8","3P7RGTLO6EZ76AO3386R8ZK9IWWKAW","","","","","","","","","","","","",""
"","instructions","363","85156","0.0-363.0","3TU5ZICBRENHK9RDAHBCXDMBZVNQ8C","A2AP9F2LCG5GV8","3P7RGTLO6EZ76AO3386R8ZK9IWWKAW","[{""page_index"":0,""viewing_time"":1346}]","1347","","","","","","","","","","",""
"","survey-text","364","88956","0.0-364.0","3TU5ZICBRENHK9RDAHBCXDMBZVNQ8C","A2AP9F2LCG5GV8","3P7RGTLO6EZ76AO3386R8ZK9IWWKAW","","3790","","","","","","","","","","","{""Q0"":""A2AP9F2LCG5GV8""}"
