"success","trial_type","trial_index","time_elapsed","internal_node_id","assignmentID","mturkID","hitID","view_history","rt","stimulus","key_press","reactionTime","a","r","s","cond","reward_cond","reward_cond_actual","reward_matrix_idx","responses"
"true","fullscreen","0","95535","0.0-0.0","","","","","","","","","","","","","","","",""
"","instructions","1","109743","0.0-1.0","","","","[{""page_index"":0,""viewing_time"":1591.1999998092651},{""page_index"":1,""viewing_time"":1265.9000000953674},{""page_index"":2,""viewing_time"":2243.9000000953674},{""page_index"":3,""viewing_time"":1602.8000001907349},{""page_index"":4,""viewing_time"":2487.3999996185303},{""page_index"":5,""viewing_time"":1781.8000001907349},{""page_index"":6,""viewing_time"":1701.9000000953674},{""page_index"":7,""viewing_time"":1530.4000000953674}]","14206.300000190735","","","","","","","","","","",""
"","image-keyboard-response","2","110969","0.0-2.0","","","","","1223.4000000953674","img/flower3.png","75","1225.0999999046326","2","1","2","1","1,0.333,0.333,0.333,1,0.333,0.333,0.333,1","1,0.333,0.333,0.333,1,0.333,0.333,0.333,1","1",""
"","html-keyboard-response","3","111272","0.0-3.0","","","","","null","<img src=""img/flower3.png"" style=""width:200px; border:14px solid green;"">","null","","","","","","","","",""
"","image-keyboard-response","4","111824","0.0-4.0","","","","","550","img/flower3.png","75","551.5999999046326","2","1","2","1","1,0.333,0.333,0.333,1,0.333,0.333,0.333,1","1,0.333,0.333,0.333,1,0.333,0.333,0.333,1","1",""
"","html-keyboard-response","5","112126","0.0-5.0","","","","","null","<img src=""img/flower3.png"" style=""width:200px; border:14px solid green;"">","null","","","","","","","","",""
"","image-keyboard-response","6","113116","0.0-6.0","","","","","988.3000001907349","img/flower1.png","74","989.3000001907349","1","1","1","1","1,0.333,0.333,0.333,1,0.333,0.333,0.333,1","1,0.333,0.333,0.333,1,0.333,0.333,0.333,1","1",""
"","html-keyboard-response","7","113418","0.0-7.0","","","","","null","<img src=""img/flower1.png"" style=""width:200px; border:14px solid green;"">","null","","","","","","","","",""
"","image-keyboard-response","8","114296","0.0-8.0","","","","","876.9000000953674","img/flower3.png","76","877.8000001907349","3","1","2","1","1,0.333,0.333,0.333,1,0.333,0.333,0.333,1","1,0.333,0.333,0.333,1,0.333,0.333,0.333,1","1",""
"","html-keyboard-response","9","114597","0.0-9.0","","","","","null","<img src=""img/flower3.png"" style=""width:200px; border:14px solid green;"">","null","","","","","","","","",""
"","image-keyboard-response","10","114955","0.0-10.0","","","","","355.59999990463257","img/flower1.png","75","357.69999980926514","2","0","1","1","1,0.333,0.333,0.333,1,0.333,0.333,0.333,1","1,0.333,0.333,0.333,1,0.333,0.333,0.333,1","1",""
"","html-keyboard-response","11","115262","0.0-11.0","","","","","null","<img src=""img/flower1.png"" style=""width:200px;border:14px solid red;"">","null","","","","","","","","",""
"","image-keyboard-response","12","115891","0.0-12.0","","","","","627.1999998092651","img/flower5.png","75","628.1999998092651","2","0","3","1","1,0.333,0.333,0.333,1,0.333,0.333,0.333,1","1,0.333,0.333,0.333,1,0.333,0.333,0.333,1","1",""
"","html-keyboard-response","13","116192","0.0-13.0","","","","","null","<img src=""img/flower5.png"" style=""width:200px;border:14px solid red;"">","null","","","","","","","","",""
"","image-keyboard-response","14","116594","0.0-14.0","","","","","400.80000019073486","img/flower3.png","76","401.69999980926514","3","0","2","1","1,0.333,0.333,0.333,1,0.333,0.333,0.333,1","1,0.333,0.333,0.333,1,0.333,0.333,0.333,1","1",""
"","html-keyboard-response","15","116897","0.0-15.0","","","","","null","<img src=""img/flower3.png"" style=""width:200px;border:14px solid red;"">","null","","","","","","","","",""
"","image-keyboard-response","16","117313","0.0-16.0","","","","","415.19999980926514","img/flower1.png","74","415.90000009536743","1","1","1","1","1,0.333,0.333,0.333,1,0.333,0.333,0.333,1","1,0.333,0.333,0.333,1,0.333,0.333,0.333,1","1",""
"","html-keyboard-response","17","117614","0.0-17.0","","","","","null","<img src=""img/flower1.png"" style=""width:200px; border:14px solid green;"">","null","","","","","","","","",""
"","image-keyboard-response","18","118309","0.0-18.0","","","","","693.7999997138977","img/flower5.png","75","694.6999998092651","2","0","3","1","1,0.333,0.333,0.333,1,0.333,0.333,0.333,1","1,0.333,0.333,0.333,1,0.333,0.333,0.333,1","1",""
"","html-keyboard-response","19","118610","0.0-19.0","","","","","null","<img src=""img/flower5.png"" style=""width:200px;border:14px solid red;"">","null","","","","","","","","",""
"","image-keyboard-response","20","119433","0.0-20.0","","","","","821.5999999046326","img/flower3.png","76","822.6999998092651","3","1","2","1","1,0.333,0.333,0.333,1,0.333,0.333,0.333,1","1,0.333,0.333,0.333,1,0.333,0.333,0.333,1","1",""
"","html-keyboard-response","21","119739","0.0-21.0","","","","","null","<img src=""img/flower3.png"" style=""width:200px; border:14px solid green;"">","null","","","","","","","","",""
"","image-keyboard-response","22","120414","0.0-22.0","","","","","673.8999996185303","img/flower5.png","74","675.0999999046326","1","0","3","1","1,0.333,0.333,0.333,1,0.333,0.333,0.333,1","1,0.333,0.333,0.333,1,0.333,0.333,0.333,1","1",""
"","html-keyboard-response","23","120716","0.0-23.0","","","","","null","<img src=""img/flower5.png"" style=""width:200px;border:14px solid red;"">","null","","","","","","","","",""
"","image-keyboard-response","24","121772","0.0-24.0","","","","","1055.7000002861023","img/flower5.png","75","1056.5999999046326","2","0","3","1","1,0.333,0.333,0.333,1,0.333,0.333,0.333,1","1,0.333,0.333,0.333,1,0.333,0.333,0.333,1","1",""
"","html-keyboard-response","25","122073","0.0-25.0","","","","","null","<img src=""img/flower5.png"" style=""width:200px;border:14px solid red;"">","null","","","","","","","","",""
"","image-keyboard-response","26","122890","0.0-26.0","","","","","815.6999998092651","img/flower1.png","76","816.5","3","1","1","1","1,0.333,0.333,0.333,1,0.333,0.333,0.333,1","1,0.333,0.333,0.333,1,0.333,0.333,0.333,1","1",""
"","html-keyboard-response","27","123192","0.0-27.0","","","","","null","<img src=""img/flower1.png"" style=""width:200px; border:14px solid green;"">","null","","","","","","","","",""
"","image-keyboard-response","28","123816","0.0-28.0","","","","","623.5","img/flower5.png","75","624.5","2","0","3","1","1,0.333,0.333,0.333,1,0.333,0.333,0.333,1","1,0.333,0.333,0.333,1,0.333,0.333,0.333,1","1",""
"","html-keyboard-response","29","124118","0.0-29.0","","","","","null","<img src=""img/flower5.png"" style=""width:200px;border:14px solid red;"">","null","","","","","","","","",""
"","image-keyboard-response","30","124677","0.0-30.0","","","","","557.9000000953674","img/flower3.png","76","558.7999997138977","3","1","2","1","1,0.333,0.333,0.333,1,0.333,0.333,0.333,1","1,0.333,0.333,0.333,1,0.333,0.333,0.333,1","1",""
"","html-keyboard-response","31","124987","0.0-31.0","","","","","null","<img src=""img/flower3.png"" style=""width:200px; border:14px solid green;"">","null","","","","","","","","",""
"","image-keyboard-response","32","125337","0.0-32.0","","","","","349.30000019073486","img/flower1.png","74","350.2000002861023","1","1","1","1","1,0.333,0.333,0.333,1,0.333,0.333,0.333,1","1,0.333,0.333,0.333,1,0.333,0.333,0.333,1","1",""
"","html-keyboard-response","33","125639","0.0-33.0","","","","","null","<img src=""img/flower1.png"" style=""width:200px; border:14px solid green;"">","null","","","","","","","","",""
"","image-keyboard-response","34","126329","0.0-34.0","","","","","687.8000001907349","img/flower1.png","75","690","2","0","1","1","1,0.333,0.333,0.333,1,0.333,0.333,0.333,1","1,0.333,0.333,0.333,1,0.333,0.333,0.333,1","1",""
"","html-keyboard-response","35","126631","0.0-35.0","","","","","null","<img src=""img/flower1.png"" style=""width:200px;border:14px solid red;"">","null","","","","","","","","",""
"","image-keyboard-response","36","127235","0.0-36.0","","","","","602","img/flower5.png","74","603.3000001907349","1","1","3","1","1,0.333,0.333,0.333,1,0.333,0.333,0.333,1","1,0.333,0.333,0.333,1,0.333,0.333,0.333,1","1",""
"","html-keyboard-response","37","127537","0.0-37.0","","","","","null","<img src=""img/flower5.png"" style=""width:200px; border:14px solid green;"">","null","","","","","","","","",""
"","image-keyboard-response","38","128056","0.0-38.0","","","","","518.0999999046326","img/flower5.png","74","519.0999999046326","1","0","3","1","1,0.333,0.333,0.333,1,0.333,0.333,0.333,1","1,0.333,0.333,0.333,1,0.333,0.333,0.333,1","1",""
"","html-keyboard-response","39","128358","0.0-39.0","","","","","null","<img src=""img/flower5.png"" style=""width:200px;border:14px solid red;"">","null","","","","","","","","",""
"","image-keyboard-response","40","128900","0.0-40.0","","","","","540.3999996185303","img/flower3.png","76","542","3","0","2","1","1,0.333,0.333,0.333,1,0.333,0.333,0.333,1","1,0.333,0.333,0.333,1,0.333,0.333,0.333,1","1",""
"","html-keyboard-response","41","129202","0.0-41.0","","","","","null","<img src=""img/flower3.png"" style=""width:200px;border:14px solid red;"">","null","","","","","","","","",""
"","image-keyboard-response","42","129798","0.0-42.0","","","","","593.8000001907349","img/flower5.png","75","595","2","0","3","1","1,0.333,0.333,0.333,1,0.333,0.333,0.333,1","1,0.333,0.333,0.333,1,0.333,0.333,0.333,1","1",""
"","html-keyboard-response","43","130100","0.0-43.0","","","","","null","<img src=""img/flower5.png"" style=""width:200px;border:14px solid red;"">","null","","","","","","","","",""
"","image-keyboard-response","44","130475","0.0-44.0","","","","","374","img/flower5.png","76","374.7999997138977","3","1","3","1","1,0.333,0.333,0.333,1,0.333,0.333,0.333,1","1,0.333,0.333,0.333,1,0.333,0.333,0.333,1","1",""
"","html-keyboard-response","45","130776","0.0-45.0","","","","","null","<img src=""img/flower5.png"" style=""width:200px; border:14px solid green;"">","null","","","","","","","","",""
"","image-keyboard-response","46","131215","0.0-46.0","","","","","438.5","img/flower3.png","74","439.2999997138977","1","0","2","1","1,0.333,0.333,0.333,1,0.333,0.333,0.333,1","1,0.333,0.333,0.333,1,0.333,0.333,0.333,1","1",""
"","html-keyboard-response","47","131517","0.0-47.0","","","","","null","<img src=""img/flower3.png"" style=""width:200px;border:14px solid red;"">","null","","","","","","","","",""
"","image-keyboard-response","48","131950","0.0-48.0","","","","","432.40000009536743","img/flower3.png","74","434","1","1","2","1","1,0.333,0.333,0.333,1,0.333,0.333,0.333,1","1,0.333,0.333,0.333,1,0.333,0.333,0.333,1","1",""
"","html-keyboard-response","49","132278","0.0-49.0","","","","","null","<img src=""img/flower3.png"" style=""width:200px; border:14px solid green;"">","null","","","","","","","","",""
"","image-keyboard-response","50","132707","0.0-50.0","","","","","428.30000019073486","img/flower1.png","75","429.19999980926514","2","1","1","1","1,0.333,0.333,0.333,1,0.333,0.333,0.333,1","1,0.333,0.333,0.333,1,0.333,0.333,0.333,1","1",""
"","html-keyboard-response","51","133010","0.0-51.0","","","","","null","<img src=""img/flower1.png"" style=""width:200px; border:14px solid green;"">","null","","","","","","","","",""
"","image-keyboard-response","52","133565","0.0-52.0","","","","","554.6000003814697","img/flower3.png","76","555.6999998092651","3","0","2","1","1,0.333,0.333,0.333,1,0.333,0.333,0.333,1","1,0.333,0.333,0.333,1,0.333,0.333,0.333,1","1",""
"","html-keyboard-response","53","133867","0.0-53.0","","","","","null","<img src=""img/flower3.png"" style=""width:200px;border:14px solid red;"">","null","","","","","","","","",""
"","image-keyboard-response","54","134278","0.0-54.0","","","","","410.19999980926514","img/flower3.png","74","411","1","1","2","1","1,0.333,0.333,0.333,1,0.333,0.333,0.333,1","1,0.333,0.333,0.333,1,0.333,0.333,0.333,1","1",""
"","html-keyboard-response","55","134580","0.0-55.0","","","","","null","<img src=""img/flower3.png"" style=""width:200px; border:14px solid green;"">","null","","","","","","","","",""
"","image-keyboard-response","56","135121","0.0-56.0","","","","","539.9000000953674","img/flower1.png","75","540.8000001907349","2","0","1","1","1,0.333,0.333,0.333,1,0.333,0.333,0.333,1","1,0.333,0.333,0.333,1,0.333,0.333,0.333,1","1",""
"","html-keyboard-response","57","135423","0.0-57.0","","","","","null","<img src=""img/flower1.png"" style=""width:200px;border:14px solid red;"">","null","","","","","","","","",""
"","image-keyboard-response","58","136005","0.0-58.0","","","","","581.7000002861023","img/flower1.png","74","582.6999998092651","1","1","1","1","1,0.333,0.333,0.333,1,0.333,0.333,0.333,1","1,0.333,0.333,0.333,1,0.333,0.333,0.333,1","1",""
"","html-keyboard-response","59","136309","0.0-59.0","","","","","null","<img src=""img/flower1.png"" style=""width:200px; border:14px solid green;"">","null","","","","","","","","",""
"","image-keyboard-response","60","136903","0.0-60.0","","","","","592.1999998092651","img/flower3.png","76","593","3","0","2","1","1,0.333,0.333,0.333,1,0.333,0.333,0.333,1","1,0.333,0.333,0.333,1,0.333,0.333,0.333,1","1",""
"","html-keyboard-response","61","137206","0.0-61.0","","","","","null","<img src=""img/flower3.png"" style=""width:200px;border:14px solid red;"">","null","","","","","","","","",""
"","image-keyboard-response","62","137763","0.0-62.0","","","","","555.5999999046326","img/flower3.png","75","556.6999998092651","2","1","2","1","1,0.333,0.333,0.333,1,0.333,0.333,0.333,1","1,0.333,0.333,0.333,1,0.333,0.333,0.333,1","1",""
"","html-keyboard-response","63","138066","0.0-63.0","","","","","null","<img src=""img/flower3.png"" style=""width:200px; border:14px solid green;"">","null","","","","","","","","",""
"","image-keyboard-response","64","138643","0.0-64.0","","","","","569.5","img/flower5.png","74","571.5","1","0","3","1","1,0.333,0.333,0.333,1,0.333,0.333,0.333,1","1,0.333,0.333,0.333,1,0.333,0.333,0.333,1","1",""
"","html-keyboard-response","65","138945","0.0-65.0","","","","","null","<img src=""img/flower5.png"" style=""width:200px;border:14px solid red;"">","null","","","","","","","","",""
"","image-keyboard-response","66","139478","0.0-66.0","","","","","531.2999997138977","img/flower3.png","75","532.7999997138977","2","1","2","1","1,0.333,0.333,0.333,1,0.333,0.333,0.333,1","1,0.333,0.333,0.333,1,0.333,0.333,0.333,1","1",""
"","html-keyboard-response","67","139780","0.0-67.0","","","","","null","<img src=""img/flower3.png"" style=""width:200px; border:14px solid green;"">","null","","","","","","","","",""
"","image-keyboard-response","68","140234","0.0-68.0","","","","","453.2000002861023","img/flower3.png","75","454.09999990463257","2","1","2","1","1,0.333,0.333,0.333,1,0.333,0.333,0.333,1","1,0.333,0.333,0.333,1,0.333,0.333,0.333,1","1",""
"","html-keyboard-response","69","140536","0.0-69.0","","","","","null","<img src=""img/flower3.png"" style=""width:200px; border:14px solid green;"">","null","","","","","","","","",""
"","image-keyboard-response","70","141207","0.0-70.0","","","","","669.9000000953674","img/flower3.png","76","670.7999997138977","3","0","2","1","1,0.333,0.333,0.333,1,0.333,0.333,0.333,1","1,0.333,0.333,0.333,1,0.333,0.333,0.333,1","1",""
"","html-keyboard-response","71","141508","0.0-71.0","","","","","null","<img src=""img/flower3.png"" style=""width:200px;border:14px solid red;"">","null","","","","","","","","",""
"","image-keyboard-response","72","142149","0.0-72.0","","","","","639.9000000953674","img/flower5.png","74","640.8999996185303","1","1","3","1","1,0.333,0.333,0.333,1,0.333,0.333,0.333,1","1,0.333,0.333,0.333,1,0.333,0.333,0.333,1","1",""
"","html-keyboard-response","73","142454","0.0-73.0","","","","","null","<img src=""img/flower5.png"" style=""width:200px; border:14px solid green;"">","null","","","","","","","","",""
"","image-keyboard-response","74","143063","0.0-74.0","","","","","608.5","img/flower3.png","75","609.5","2","1","2","1","1,0.333,0.333,0.333,1,0.333,0.333,0.333,1","1,0.333,0.333,0.333,1,0.333,0.333,0.333,1","1",""
"","html-keyboard-response","75","143365","0.0-75.0","","","","","null","<img src=""img/flower3.png"" style=""width:200px; border:14px solid green;"">","null","","","","","","","","",""
"","image-keyboard-response","76","144074","0.0-76.0","","","","","708","img/flower5.png","74","709.0999999046326","1","0","3","1","1,0.333,0.333,0.333,1,0.333,0.333,0.333,1","1,0.333,0.333,0.333,1,0.333,0.333,0.333,1","1",""
"","html-keyboard-response","77","144380","0.0-77.0","","","","","null","<img src=""img/flower5.png"" style=""width:200px;border:14px solid red;"">","null","","","","","","","","",""
"","image-keyboard-response","78","144840","0.0-78.0","","","","","458.8999996185303","img/flower1.png","75","459.90000009536743","2","0","1","1","1,0.333,0.333,0.333,1,0.333,0.333,0.333,1","1,0.333,0.333,0.333,1,0.333,0.333,0.333,1","1",""
"","html-keyboard-response","79","145142","0.0-79.0","","","","","null","<img src=""img/flower1.png"" style=""width:200px;border:14px solid red;"">","null","","","","","","","","",""
"","image-keyboard-response","80","145748","0.0-80.0","","","","","605.2000002861023","img/flower1.png","76","606","3","0","1","1","1,0.333,0.333,0.333,1,0.333,0.333,0.333,1","1,0.333,0.333,0.333,1,0.333,0.333,0.333,1","1",""
"","html-keyboard-response","81","146050","0.0-81.0","","","","","null","<img src=""img/flower1.png"" style=""width:200px;border:14px solid red;"">","null","","","","","","","","",""
"","image-keyboard-response","82","146673","0.0-82.0","","","","","621.4000000953674","img/flower5.png","74","622.4000000953674","1","0","3","1","1,0.333,0.333,0.333,1,0.333,0.333,0.333,1","1,0.333,0.333,0.333,1,0.333,0.333,0.333,1","1",""
"","html-keyboard-response","83","146975","0.0-83.0","","","","","null","<img src=""img/flower5.png"" style=""width:200px;border:14px solid red;"">","null","","","","","","","","",""
"","image-keyboard-response","84","147650","0.0-84.0","","","","","674","img/flower5.png","74","674.9000000953674","1","0","3","1","1,0.333,0.333,0.333,1,0.333,0.333,0.333,1","1,0.333,0.333,0.333,1,0.333,0.333,0.333,1","1",""
"","html-keyboard-response","85","147952","0.0-85.0","","","","","null","<img src=""img/flower5.png"" style=""width:200px;border:14px solid red;"">","null","","","","","","","","",""
"","image-keyboard-response","86","148322","0.0-86.0","","","","","368.09999990463257","img/flower3.png","75","370.09999990463257","2","1","2","1","1,0.333,0.333,0.333,1,0.333,0.333,0.333,1","1,0.333,0.333,0.333,1,0.333,0.333,0.333,1","1",""
"","html-keyboard-response","87","148624","0.0-87.0","","","","","null","<img src=""img/flower3.png"" style=""width:200px; border:14px solid green;"">","null","","","","","","","","",""
"","image-keyboard-response","88","149278","0.0-88.0","","","","","653.3000001907349","img/flower1.png","75","654.0999999046326","2","1","1","1","1,0.333,0.333,0.333,1,0.333,0.333,0.333,1","1,0.333,0.333,0.333,1,0.333,0.333,0.333,1","1",""
"","html-keyboard-response","89","149583","0.0-89.0","","","","","null","<img src=""img/flower1.png"" style=""width:200px; border:14px solid green;"">","null","","","","","","","","",""
"","image-keyboard-response","90","150739","0.0-90.0","","","","","1155","img/flower3.png","75","1156","2","1","2","1","1,0.333,0.333,0.333,1,0.333,0.333,0.333,1","1,0.333,0.333,0.333,1,0.333,0.333,0.333,1","1",""
"","html-keyboard-response","91","151040","0.0-91.0","","","","","null","<img src=""img/flower3.png"" style=""width:200px; border:14px solid green;"">","null","","","","","","","","",""
"","image-keyboard-response","92","151792","0.0-92.0","","","","","750.0999999046326","img/flower5.png","76","751","3","1","3","1","1,0.333,0.333,0.333,1,0.333,0.333,0.333,1","1,0.333,0.333,0.333,1,0.333,0.333,0.333,1","1",""
"","html-keyboard-response","93","152093","0.0-93.0","","","","","null","<img src=""img/flower5.png"" style=""width:200px; border:14px solid green;"">","null","","","","","","","","",""
"","image-keyboard-response","94","152719","0.0-94.0","","","","","623.8000001907349","img/flower3.png","74","625","1","0","2","1","1,0.333,0.333,0.333,1,0.333,0.333,0.333,1","1,0.333,0.333,0.333,1,0.333,0.333,0.333,1","1",""
"","html-keyboard-response","95","153022","0.0-95.0","","","","","null","<img src=""img/flower3.png"" style=""width:200px;border:14px solid red;"">","null","","","","","","","","",""
"","image-keyboard-response","96","153603","0.0-96.0","","","","","579.3000001907349","img/flower5.png","75","580.4000000953674","2","1","3","1","1,0.333,0.333,0.333,1,0.333,0.333,0.333,1","1,0.333,0.333,0.333,1,0.333,0.333,0.333,1","1",""
"","html-keyboard-response","97","153906","0.0-97.0","","","","","null","<img src=""img/flower5.png"" style=""width:200px; border:14px solid green;"">","null","","","","","","","","",""
"","image-keyboard-response","98","154566","0.0-98.0","","","","","657.7999997138977","img/flower5.png","74","660","1","0","3","1","1,0.333,0.333,0.333,1,0.333,0.333,0.333,1","1,0.333,0.333,0.333,1,0.333,0.333,0.333,1","1",""
"","html-keyboard-response","99","154869","0.0-99.0","","","","","null","<img src=""img/flower5.png"" style=""width:200px;border:14px solid red;"">","null","","","","","","","","",""
"","image-keyboard-response","100","155558","0.0-100.0","","","","","685.9000000953674","img/flower5.png","75","689.2000002861023","2","0","3","1","1,0.333,0.333,0.333,1,0.333,0.333,0.333,1","1,0.333,0.333,0.333,1,0.333,0.333,0.333,1","1",""
"","html-keyboard-response","101","155859","0.0-101.0","","","","","null","<img src=""img/flower5.png"" style=""width:200px;border:14px solid red;"">","null","","","","","","","","",""
"","image-keyboard-response","102","156529","0.0-102.0","","","","","667.5999999046326","img/flower1.png","76","669.3000001907349","3","0","1","1","1,0.333,0.333,0.333,1,0.333,0.333,0.333,1","1,0.333,0.333,0.333,1,0.333,0.333,0.333,1","1",""
"","html-keyboard-response","103","156832","0.0-103.0","","","","","null","<img src=""img/flower1.png"" style=""width:200px;border:14px solid red;"">","null","","","","","","","","",""
"","image-keyboard-response","104","157414","0.0-104.0","","","","","580.5","img/flower3.png","74","581.5999999046326","1","0","2","1","1,0.333,0.333,0.333,1,0.333,0.333,0.333,1","1,0.333,0.333,0.333,1,0.333,0.333,0.333,1","1",""
"","html-keyboard-response","105","157716","0.0-105.0","","","","","null","<img src=""img/flower3.png"" style=""width:200px;border:14px solid red;"">","null","","","","","","","","",""
"","image-keyboard-response","106","158474","0.0-106.0","","","","","757","img/flower1.png","75","757.8000001907349","2","0","1","1","1,0.333,0.333,0.333,1,0.333,0.333,0.333,1","1,0.333,0.333,0.333,1,0.333,0.333,0.333,1","1",""
"","html-keyboard-response","107","158782","0.0-107.0","","","","","null","<img src=""img/flower1.png"" style=""width:200px;border:14px solid red;"">","null","","","","","","","","",""
"","image-keyboard-response","108","159461","0.0-108.0","","","","","677.9000000953674","img/flower1.png","76","678.6999998092651","3","0","1","1","1,0.333,0.333,0.333,1,0.333,0.333,0.333,1","1,0.333,0.333,0.333,1,0.333,0.333,0.333,1","1",""
"","html-keyboard-response","109","159767","0.0-109.0","","","","","null","<img src=""img/flower1.png"" style=""width:200px;border:14px solid red;"">","null","","","","","","","","",""
"","image-keyboard-response","110","160381","0.0-110.0","","","","","612.5999999046326","img/flower1.png","74","613.5","1","1","1","1","1,0.333,0.333,0.333,1,0.333,0.333,0.333,1","1,0.333,0.333,0.333,1,0.333,0.333,0.333,1","1",""
"","html-keyboard-response","111","160683","0.0-111.0","","","","","null","<img src=""img/flower1.png"" style=""width:200px; border:14px solid green;"">","null","","","","","","","","",""
"","image-keyboard-response","112","161461","0.0-112.0","","","","","776","img/flower1.png","75","777.6999998092651","2","0","1","1","1,0.333,0.333,0.333,1,0.333,0.333,0.333,1","1,0.333,0.333,0.333,1,0.333,0.333,0.333,1","1",""
"","html-keyboard-response","113","161766","0.0-113.0","","","","","null","<img src=""img/flower1.png"" style=""width:200px;border:14px solid red;"">","null","","","","","","","","",""
"","image-keyboard-response","114","162373","0.0-114.0","","","","","606.3000001907349","img/flower5.png","74","607.1000003814697","1","1","3","1","1,0.333,0.333,0.333,1,0.333,0.333,0.333,1","1,0.333,0.333,0.333,1,0.333,0.333,0.333,1","1",""
"","html-keyboard-response","115","162674","0.0-115.0","","","","","null","<img src=""img/flower5.png"" style=""width:200px; border:14px solid green;"">","null","","","","","","","","",""
"","image-keyboard-response","116","163340","0.0-116.0","","","","","665.1999998092651","img/flower1.png","74","666.2000002861023","1","1","1","1","1,0.333,0.333,0.333,1,0.333,0.333,0.333,1","1,0.333,0.333,0.333,1,0.333,0.333,0.333,1","1",""
"","html-keyboard-response","117","163642","0.0-117.0","","","","","null","<img src=""img/flower1.png"" style=""width:200px; border:14px solid green;"">","null","","","","","","","","",""
"","image-keyboard-response","118","164299","0.0-118.0","","","","","655.2000002861023","img/flower5.png","75","656.5","2","1","3","1","1,0.333,0.333,0.333,1,0.333,0.333,0.333,1","1,0.333,0.333,0.333,1,0.333,0.333,0.333,1","1",""
"","html-keyboard-response","119","164601","0.0-119.0","","","","","null","<img src=""img/flower5.png"" style=""width:200px; border:14px solid green;"">","null","","","","","","","","",""
"","image-keyboard-response","120","165216","0.0-120.0","","","","","613.2999997138977","img/flower5.png","75","614.1999998092651","2","0","3","1","1,0.333,0.333,0.333,1,0.333,0.333,0.333,1","1,0.333,0.333,0.333,1,0.333,0.333,0.333,1","1",""
"","html-keyboard-response","121","165517","0.0-121.0","","","","","null","<img src=""img/flower5.png"" style=""width:200px;border:14px solid red;"">","null","","","","","","","","",""
"","image-keyboard-response","122","166278","0.0-122.0","","","","","759.6999998092651","img/flower5.png","76","760.5","3","1","3","1","1,0.333,0.333,0.333,1,0.333,0.333,0.333,1","1,0.333,0.333,0.333,1,0.333,0.333,0.333,1","1",""
"","html-keyboard-response","123","166579","0.0-123.0","","","","","null","<img src=""img/flower5.png"" style=""width:200px; border:14px solid green;"">","null","","","","","","","","",""
"","image-keyboard-response","124","167201","0.0-124.0","","","","","620.5","img/flower1.png","74","621.4000000953674","1","1","1","1","1,0.333,0.333,0.333,1,0.333,0.333,0.333,1","1,0.333,0.333,0.333,1,0.333,0.333,0.333,1","1",""
"","html-keyboard-response","125","167504","0.0-125.0","","","","","null","<img src=""img/flower1.png"" style=""width:200px; border:14px solid green;"">","null","","","","","","","","",""
"","image-keyboard-response","126","168206","0.0-126.0","","","","","701","img/flower5.png","76","702","3","1","3","1","1,0.333,0.333,0.333,1,0.333,0.333,0.333,1","1,0.333,0.333,0.333,1,0.333,0.333,0.333,1","1",""
"","html-keyboard-response","127","168508","0.0-127.0","","","","","null","<img src=""img/flower5.png"" style=""width:200px; border:14px solid green;"">","null","","","","","","","","",""
"","image-keyboard-response","128","169073","0.0-128.0","","","","","563.4000000953674","img/flower1.png","75","564.4000000953674","2","0","1","1","1,0.333,0.333,0.333,1,0.333,0.333,0.333,1","1,0.333,0.333,0.333,1,0.333,0.333,0.333,1","1",""
"","html-keyboard-response","129","169374","0.0-129.0","","","","","null","<img src=""img/flower1.png"" style=""width:200px;border:14px solid red;"">","null","","","","","","","","",""
"","image-keyboard-response","130","169942","0.0-130.0","","","","","567.1999998092651","img/flower1.png","74","568.1999998092651","1","1","1","1","1,0.333,0.333,0.333,1,0.333,0.333,0.333,1","1,0.333,0.333,0.333,1,0.333,0.333,0.333,1","1",""
"","html-keyboard-response","131","170244","0.0-131.0","","","","","null","<img src=""img/flower1.png"" style=""width:200px; border:14px solid green;"">","null","","","","","","","","",""
"","image-keyboard-response","132","170909","0.0-132.0","","","","","663.2999997138977","img/flower1.png","75","664.4000000953674","2","0","1","1","1,0.333,0.333,0.333,1,0.333,0.333,0.333,1","1,0.333,0.333,0.333,1,0.333,0.333,0.333,1","1",""
"","html-keyboard-response","133","171211","0.0-133.0","","","","","null","<img src=""img/flower1.png"" style=""width:200px;border:14px solid red;"">","null","","","","","","","","",""
"","image-keyboard-response","134","171778","0.0-134.0","","","","","566.5999999046326","img/flower3.png","74","567.5","1","0","2","1","1,0.333,0.333,0.333,1,0.333,0.333,0.333,1","1,0.333,0.333,0.333,1,0.333,0.333,0.333,1","1",""
"","html-keyboard-response","135","172081","0.0-135.0","","","","","null","<img src=""img/flower3.png"" style=""width:200px;border:14px solid red;"">","null","","","","","","","","",""
"","image-keyboard-response","136","172557","0.0-136.0","","","","","474.5","img/flower3.png","75","475.5","2","1","2","1","1,0.333,0.333,0.333,1,0.333,0.333,0.333,1","1,0.333,0.333,0.333,1,0.333,0.333,0.333,1","1",""
"","html-keyboard-response","137","172858","0.0-137.0","","","","","null","<img src=""img/flower3.png"" style=""width:200px; border:14px solid green;"">","null","","","","","","","","",""
"","image-keyboard-response","138","173056","0.0-138.0","","","","","196.39999961853027","img/flower3.png","76","197.5","3","1","2","1","1,0.333,0.333,0.333,1,0.333,0.333,0.333,1","1,0.333,0.333,0.333,1,0.333,0.333,0.333,1","1",""
"","html-keyboard-response","139","173358","0.0-139.0","","","","","null","<img src=""img/flower3.png"" style=""width:200px; border:14px solid green;"">","null","","","","","","","","",""
"","image-keyboard-response","140","173794","0.0-140.0","","","","","433.30000019073486","img/flower3.png","74","435.5","1","0","2","1","1,0.333,0.333,0.333,1,0.333,0.333,0.333,1","1,0.333,0.333,0.333,1,0.333,0.333,0.333,1","1",""
"","html-keyboard-response","141","174096","0.0-141.0","","","","","null","<img src=""img/flower3.png"" style=""width:200px;border:14px solid red;"">","null","","","","","","","","",""
"","image-keyboard-response","142","174769","0.0-142.0","","","","","671.1999998092651","img/flower1.png","76","672.0999999046326","3","0","1","1","1,0.333,0.333,0.333,1,0.333,0.333,0.333,1","1,0.333,0.333,0.333,1,0.333,0.333,0.333,1","1",""
"","html-keyboard-response","143","175071","0.0-143.0","","","","","null","<img src=""img/flower1.png"" style=""width:200px;border:14px solid red;"">","null","","","","","","","","",""
"","image-keyboard-response","144","175507","0.0-144.0","","","","","434.7999997138977","img/flower1.png","74","435.7999997138977","1","1","1","1","1,0.333,0.333,0.333,1,0.333,0.333,0.333,1","1,0.333,0.333,0.333,1,0.333,0.333,0.333,1","1",""
"","html-keyboard-response","145","175809","0.0-145.0","","","","","null","<img src=""img/flower1.png"" style=""width:200px; border:14px solid green;"">","null","","","","","","","","",""
"","image-keyboard-response","146","176582","0.0-146.0","","","","","772.6999998092651","img/flower5.png","76","773.9000000953674","3","1","3","1","1,0.333,0.333,0.333,1,0.333,0.333,0.333,1","1,0.333,0.333,0.333,1,0.333,0.333,0.333,1","1",""
"","html-keyboard-response","147","176884","0.0-147.0","","","","","null","<img src=""img/flower5.png"" style=""width:200px; border:14px solid green;"">","null","","","","","","","","",""
"","image-keyboard-response","148","177039","0.0-148.0","","","","","154.19999980926514","img/flower3.png","74","155.30000019073486","1","1","2","1","1,0.333,0.333,0.333,1,0.333,0.333,0.333,1","1,0.333,0.333,0.333,1,0.333,0.333,0.333,1","1",""
"","html-keyboard-response","149","177342","0.0-149.0","","","","","null","<img src=""img/flower3.png"" style=""width:200px; border:14px solid green;"">","null","","","","","","","","",""
"","image-keyboard-response","150","177417","0.0-150.0","","","","","74.2000002861023","img/flower1.png","75","75.39999961853027","2","1","1","1","1,0.333,0.333,0.333,1,0.333,0.333,0.333,1","1,0.333,0.333,0.333,1,0.333,0.333,0.333,1","1",""
"","html-keyboard-response","151","177718","0.0-151.0","","","","","null","<img src=""img/flower1.png"" style=""width:200px; border:14px solid green;"">","null","","","","","","","","",""
"","image-keyboard-response","152","177864","0.0-152.0","","","","","145.09999990463257","img/flower5.png","76","146.09999990463257","3","1","3","1","1,0.333,0.333,0.333,1,0.333,0.333,0.333,1","1,0.333,0.333,0.333,1,0.333,0.333,0.333,1","1",""
"","html-keyboard-response","153","178167","0.0-153.0","","","","","null","<img src=""img/flower5.png"" style=""width:200px; border:14px solid green;"">","null","","","","","","","","",""
"","image-keyboard-response","154","178456","0.0-154.0","","","","","288.5","img/flower3.png","74","289.30000019073486","1","1","2","1","1,0.333,0.333,0.333,1,0.333,0.333,0.333,1","1,0.333,0.333,0.333,1,0.333,0.333,0.333,1","1",""
"","html-keyboard-response","155","178758","0.0-155.0","","","","","null","<img src=""img/flower3.png"" style=""width:200px; border:14px solid green;"">","null","","","","","","","","",""
"","image-keyboard-response","156","179016","0.0-156.0","","","","","256.30000019073486","img/flower5.png","74","257.40000009536743","1","0","3","1","1,0.333,0.333,0.333,1,0.333,0.333,0.333,1","1,0.333,0.333,0.333,1,0.333,0.333,0.333,1","1",""
"","html-keyboard-response","157","179318","0.0-157.0","","","","","null","<img src=""img/flower5.png"" style=""width:200px;border:14px solid red;"">","null","","","","","","","","",""
"","image-keyboard-response","158","179332","0.0-158.0","","","","","12.5","img/flower1.png","76","13.300000190734863","3","0","1","1","1,0.333,0.333,0.333,1,0.333,0.333,0.333,1","1,0.333,0.333,0.333,1,0.333,0.333,0.333,1","1",""
"","html-keyboard-response","159","179633","0.0-159.0","","","","","null","<img src=""img/flower1.png"" style=""width:200px;border:14px solid red;"">","null","","","","","","","","",""
"","image-keyboard-response","160","179835","0.0-160.0","","","","","200.59999990463257","img/flower1.png","75","201.5","2","1","1","1","1,0.333,0.333,0.333,1,0.333,0.333,0.333,1","1,0.333,0.333,0.333,1,0.333,0.333,0.333,1","1",""
"","html-keyboard-response","161","180137","0.0-161.0","","","","","null","<img src=""img/flower1.png"" style=""width:200px; border:14px solid green;"">","null","","","","","","","","",""
"","image-keyboard-response","162","180247","0.0-162.0","","","","","108.7000002861023","img/flower3.png","76","109.59999990463257","3","0","2","1","1,0.333,0.333,0.333,1,0.333,0.333,0.333,1","1,0.333,0.333,0.333,1,0.333,0.333,0.333,1","1",""
"","html-keyboard-response","163","180550","0.0-163.0","","","","","null","<img src=""img/flower3.png"" style=""width:200px;border:14px solid red;"">","null","","","","","","","","",""
"","image-keyboard-response","164","180746","0.0-164.0","","","","","195.5","img/flower1.png","75","196.5","2","0","1","1","1,0.333,0.333,0.333,1,0.333,0.333,0.333,1","1,0.333,0.333,0.333,1,0.333,0.333,0.333,1","1",""
"","html-keyboard-response","165","181048","0.0-165.0","","","","","null","<img src=""img/flower1.png"" style=""width:200px;border:14px solid red;"">","null","","","","","","","","",""
"","image-keyboard-response","166","181090","0.0-166.0","","","","","40.5","img/flower5.png","74","41.60000038146973","1","0","3","1","1,0.333,0.333,0.333,1,0.333,0.333,0.333,1","1,0.333,0.333,0.333,1,0.333,0.333,0.333,1","1",""
"","html-keyboard-response","167","181392","0.0-167.0","","","","","null","<img src=""img/flower5.png"" style=""width:200px;border:14px solid red;"">","null","","","","","","","","",""
"","image-keyboard-response","168","181437","0.0-168.0","","","","","43.40000009536743","img/flower5.png","75","44.19999980926514","2","1","3","1","1,0.333,0.333,0.333,1,0.333,0.333,0.333,1","1,0.333,0.333,0.333,1,0.333,0.333,0.333,1","1",""
"","html-keyboard-response","169","181739","0.0-169.0","","","","","null","<img src=""img/flower5.png"" style=""width:200px; border:14px solid green;"">","null","","","","","","","","",""
"","image-keyboard-response","170","181776","0.0-170.0","","","","","36.69999980926514","img/flower1.png","76","37.69999980926514","3","0","1","1","1,0.333,0.333,0.333,1,0.333,0.333,0.333,1","1,0.333,0.333,0.333,1,0.333,0.333,0.333,1","1",""
"","html-keyboard-response","171","182079","0.0-171.0","","","","","null","<img src=""img/flower1.png"" style=""width:200px;border:14px solid red;"">","null","","","","","","","","",""
"","image-keyboard-response","172","182101","0.0-172.0","","","","","21.200000286102295","img/flower5.png","74","22.09999990463257","1","1","3","1","1,0.333,0.333,0.333,1,0.333,0.333,0.333,1","1,0.333,0.333,0.333,1,0.333,0.333,0.333,1","1",""
"","html-keyboard-response","173","182404","0.0-173.0","","","","","null","<img src=""img/flower5.png"" style=""width:200px; border:14px solid green;"">","null","","","","","","","","",""
"","image-keyboard-response","174","182410","0.0-174.0","","","","","4.300000190734863","img/flower1.png","75","5.100000381469727","2","0","1","1","1,0.333,0.333,0.333,1,0.333,0.333,0.333,1","1,0.333,0.333,0.333,1,0.333,0.333,0.333,1","1",""
"","html-keyboard-response","175","182711","0.0-175.0","","","","","null","<img src=""img/flower1.png"" style=""width:200px;border:14px solid red;"">","null","","","","","","","","",""
"","image-keyboard-response","176","182854","0.0-176.0","","","","","141.09999990463257","img/flower3.png","76","142","3","0","2","1","1,0.333,0.333,0.333,1,0.333,0.333,0.333,1","1,0.333,0.333,0.333,1,0.333,0.333,0.333,1","1",""
"","html-keyboard-response","177","183156","0.0-177.0","","","","","null","<img src=""img/flower3.png"" style=""width:200px;border:14px solid red;"">","null","","","","","","","","",""
"","image-keyboard-response","178","184268","0.0-178.0","","","","","1111.1000003814697","img/flower3.png","74","1112.1000003814697","1","0","2","1","1,0.333,0.333,0.333,1,0.333,0.333,0.333,1","1,0.333,0.333,0.333,1,0.333,0.333,0.333,1","1",""
"","html-keyboard-response","179","184575","0.0-179.0","","","","","null","<img src=""img/flower3.png"" style=""width:200px;border:14px solid red;"">","null","","","","","","","","",""
"","image-keyboard-response","180","184870","0.0-180.0","","","","","291.30000019073486","img/flower5.png","75","295.40000009536743","2","1","3","1","1,0.333,0.333,0.333,1,0.333,0.333,0.333,1","1,0.333,0.333,0.333,1,0.333,0.333,0.333,1","1",""
"","html-keyboard-response","181","185172","0.0-181.0","","","","","null","<img src=""img/flower5.png"" style=""width:200px; border:14px solid green;"">","null","","","","","","","","",""
"","html-keyboard-response","182","187609","0.0-182.0","","","","","","","","","","","","","","","",""
"","image-keyboard-response","183","189312","0.0-183.0","","","","","1701.1999998092651","img/flower2.png","75","1702.7000002861023","2","1","1","2","1,0,0,1,1,0,1,0,1","0,1,0,0,1,1,1,1,0","3",""
"","html-keyboard-response","184","189619","0.0-184.0","","","","","null","<img src=""img/flower2.png"" style=""width:200px; border:14px solid green;"">","null","","","","","","","","",""
"","image-keyboard-response","185","190361","0.0-185.0","","","","","739.5","img/flower6.png","75","741","2","1","3","2","1,0,0,1,1,0,1,0,1","0,1,0,0,1,1,1,1,0","3",""
"","html-keyboard-response","186","190663","0.0-186.0","","","","","null","<img src=""img/flower6.png"" style=""width:200px; border:14px solid green;"">","null","","","","","","","","",""
"","image-keyboard-response","187","191199","0.0-187.0","","","","","535.1999998092651","img/flower6.png","74","536.2999997138977","1","1","3","2","1,0,0,1,1,0,1,0,1","0,1,0,0,1,1,1,1,0","3",""
"","html-keyboard-response","188","191501","0.0-188.0","","","","","null","<img src=""img/flower6.png"" style=""width:200px; border:14px solid green;"">","null","","","","","","","","",""
"","image-keyboard-response","189","192144","0.0-189.0","","","","","641.2999997138977","img/flower6.png","75","643.0999999046326","2","1","3","2","1,0,0,1,1,0,1,0,1","0,1,0,0,1,1,1,1,0","3",""
"","html-keyboard-response","190","192448","0.0-190.0","","","","","null","<img src=""img/flower6.png"" style=""width:200px; border:14px solid green;"">","null","","","","","","","","",""
"","image-keyboard-response","191","193037","0.0-191.0","","","","","586.6999998092651","img/flower6.png","75","588.2999997138977","2","1","3","2","1,0,0,1,1,0,1,0,1","0,1,0,0,1,1,1,1,0","3",""
"","html-keyboard-response","192","193340","0.0-192.0","","","","","null","<img src=""img/flower6.png"" style=""width:200px; border:14px solid green;"">","null","","","","","","","","",""
"","image-keyboard-response","193","194465","0.0-193.0","","","","","1123.1000003814697","img/flower4.png","74","1124.2000002861023","1","0","2","2","1,0,0,1,1,0,1,0,1","0,1,0,0,1,1,1,1,0","3",""
"","html-keyboard-response","194","194768","0.0-194.0","","","","","null","<img src=""img/flower4.png"" style=""width:200px;border:14px solid red;"">","null","","","","","","","","",""
"","image-keyboard-response","195","195182","0.0-195.0","","","","","413","img/flower6.png","75","414.19999980926514","2","1","3","2","1,0,0,1,1,0,1,0,1","0,1,0,0,1,1,1,1,0","3",""
"","html-keyboard-response","196","195484","0.0-196.0","","","","","null","<img src=""img/flower6.png"" style=""width:200px; border:14px solid green;"">","null","","","","","","","","",""
"","image-keyboard-response","197","195885","0.0-197.0","","","","","399.1000003814697","img/flower2.png","76","400.09999990463257","3","0","1","2","1,0,0,1,1,0,1,0,1","0,1,0,0,1,1,1,1,0","3",""
"","html-keyboard-response","198","196186","0.0-198.0","","","","","null","<img src=""img/flower2.png"" style=""width:200px;border:14px solid red;"">","null","","","","","","","","",""
"","image-keyboard-response","199","196971","0.0-199.0","","","","","782.0999999046326","img/flower4.png","76","784.3000001907349","3","1","2","2","1,0,0,1,1,0,1,0,1","0,1,0,0,1,1,1,1,0","3",""
"","html-keyboard-response","200","197272","0.0-200.0","","","","","null","<img src=""img/flower4.png"" style=""width:200px; border:14px solid green;"">","null","","","","","","","","",""
"","image-keyboard-response","201","197590","0.0-201.0","","","","","316.69999980926514","img/flower6.png","74","318.1000003814697","1","1","3","2","1,0,0,1,1,0,1,0,1","0,1,0,0,1,1,1,1,0","3",""
"","html-keyboard-response","202","197893","0.0-202.0","","","","","null","<img src=""img/flower6.png"" style=""width:200px; border:14px solid green;"">","null","","","","","","","","",""
"","image-keyboard-response","203","198445","0.0-203.0","","","","","551.0999999046326","img/flower2.png","75","552","2","1","1","2","1,0,0,1,1,0,1,0,1","0,1,0,0,1,1,1,1,0","3",""
"","html-keyboard-response","204","198747","0.0-204.0","","","","","null","<img src=""img/flower2.png"" style=""width:200px; border:14px solid green;"">","null","","","","","","","","",""
"","image-keyboard-response","205","198807","0.0-205.0","","","","","58.80000019073486","img/flower6.png","76","59.69999980926514","3","0","3","2","1,0,0,1,1,0,1,0,1","0,1,0,0,1,1,1,1,0","3",""
"","html-keyboard-response","206","199109","0.0-206.0","","","","","null","<img src=""img/flower6.png"" style=""width:200px;border:14px solid red;"">","null","","","","","","","","",""
"","image-keyboard-response","207","199147","0.0-207.0","","","","","37.09999990463257","img/flower4.png","74","37.90000009536743","1","0","2","2","1,0,0,1,1,0,1,0,1","0,1,0,0,1,1,1,1,0","3",""
"","html-keyboard-response","208","199448","0.0-208.0","","","","","null","<img src=""img/flower4.png"" style=""width:200px;border:14px solid red;"">","null","","","","","","","","",""
"","image-keyboard-response","209","199740","0.0-209.0","","","","","290.30000019073486","img/flower2.png","76","291.40000009536743","3","0","1","2","1,0,0,1,1,0,1,0,1","0,1,0,0,1,1,1,1,0","3",""
"","html-keyboard-response","210","200043","0.0-210.0","","","","","null","<img src=""img/flower2.png"" style=""width:200px;border:14px solid red;"">","null","","","","","","","","",""
"","image-keyboard-response","211","200425","0.0-211.0","","","","","380.30000019073486","img/flower2.png","75","381.09999990463257","2","1","1","2","1,0,0,1,1,0,1,0,1","0,1,0,0,1,1,1,1,0","3",""
"","html-keyboard-response","212","200726","0.0-212.0","","","","","null","<img src=""img/flower2.png"" style=""width:200px; border:14px solid green;"">","null","","","","","","","","",""
"","image-keyboard-response","213","201056","0.0-213.0","","","","","329.19999980926514","img/flower2.png","75","330.40000009536743","2","1","1","2","1,0,0,1,1,0,1,0,1","0,1,0,0,1,1,1,1,0","3",""
"","html-keyboard-response","214","201359","0.0-214.0","","","","","null","<img src=""img/flower2.png"" style=""width:200px; border:14px solid green;"">","null","","","","","","","","",""
"","image-keyboard-response","215","201557","0.0-215.0","","","","","196.40000009536743","img/flower2.png","75","197.30000019073486","2","1","1","2","1,0,0,1,1,0,1,0,1","0,1,0,0,1,1,1,1,0","3",""
"","html-keyboard-response","216","201859","0.0-216.0","","","","","null","<img src=""img/flower2.png"" style=""width:200px; border:14px solid green;"">","null","","","","","","","","",""
"","image-keyboard-response","217","202060","0.0-217.0","","","","","199.30000019073486","img/flower2.png","76","201.09999990463257","3","0","1","2","1,0,0,1,1,0,1,0,1","0,1,0,0,1,1,1,1,0","3",""
"","html-keyboard-response","218","202364","0.0-218.0","","","","","null","<img src=""img/flower2.png"" style=""width:200px;border:14px solid red;"">","null","","","","","","","","",""
"","image-keyboard-response","219","202530","0.0-219.0","","","","","165.40000009536743","img/flower2.png","74","166.59999990463257","1","0","1","2","1,0,0,1,1,0,1,0,1","0,1,0,0,1,1,1,1,0","3",""
"","html-keyboard-response","220","202832","0.0-220.0","","","","","null","<img src=""img/flower2.png"" style=""width:200px;border:14px solid red;"">","null","","","","","","","","",""
"","image-keyboard-response","221","203260","0.0-221.0","","","","","426.30000019073486","img/flower2.png","75","428.30000019073486","2","1","1","2","1,0,0,1,1,0,1,0,1","0,1,0,0,1,1,1,1,0","3",""
"","html-keyboard-response","222","203563","0.0-222.0","","","","","null","<img src=""img/flower2.png"" style=""width:200px; border:14px solid green;"">","null","","","","","","","","",""
"","image-keyboard-response","223","203765","0.0-223.0","","","","","200.5","img/flower2.png","76","201.80000019073486","3","0","1","2","1,0,0,1,1,0,1,0,1","0,1,0,0,1,1,1,1,0","3",""
"","html-keyboard-response","224","204068","0.0-224.0","","","","","null","<img src=""img/flower2.png"" style=""width:200px;border:14px solid red;"">","null","","","","","","","","",""
"","image-keyboard-response","225","204119","0.0-225.0","","","","","50.40000009536743","img/flower4.png","74","51.799999713897705","1","0","2","2","1,0,0,1,1,0,1,0,1","0,1,0,0,1,1,1,1,0","3",""
"","html-keyboard-response","226","204422","0.0-226.0","","","","","null","<img src=""img/flower4.png"" style=""width:200px;border:14px solid red;"">","null","","","","","","","","",""
"","image-keyboard-response","227","204709","0.0-227.0","","","","","285.69999980926514","img/flower6.png","74","286.59999990463257","1","1","3","2","1,0,0,1,1,0,1,0,1","0,1,0,0,1,1,1,1,0","3",""
"","html-keyboard-response","228","205012","0.0-228.0","","","","","null","<img src=""img/flower6.png"" style=""width:200px; border:14px solid green;"">","null","","","","","","","","",""
"","image-keyboard-response","229","205210","0.0-229.0","","","","","195.90000009536743","img/flower6.png","76","197.40000009536743","3","0","3","2","1,0,0,1,1,0,1,0,1","0,1,0,0,1,1,1,1,0","3",""
"","html-keyboard-response","230","205512","0.0-230.0","","","","","null","<img src=""img/flower6.png"" style=""width:200px;border:14px solid red;"">","null","","","","","","","","",""
"","image-keyboard-response","231","206019","0.0-231.0","","","","","505.40000009536743","img/flower2.png","75","506.7000002861023","2","1","1","2","1,0,0,1,1,0,1,0,1","0,1,0,0,1,1,1,1,0","3",""
"","html-keyboard-response","232","206322","0.0-232.0","","","","","null","<img src=""img/flower2.png"" style=""width:200px; border:14px solid green;"">","null","","","","","","","","",""
"","image-keyboard-response","233","206728","0.0-233.0","","","","","404.1000003814697","img/flower2.png","76","405.09999990463257","3","0","1","2","1,0,0,1,1,0,1,0,1","0,1,0,0,1,1,1,1,0","3",""
"","html-keyboard-response","234","207029","0.0-234.0","","","","","null","<img src=""img/flower2.png"" style=""width:200px;border:14px solid red;"">","null","","","","","","","","",""
"","image-keyboard-response","235","207389","0.0-235.0","","","","","358.5","img/flower2.png","74","359.59999990463257","1","0","1","2","1,0,0,1,1,0,1,0,1","0,1,0,0,1,1,1,1,0","3",""
"","html-keyboard-response","236","207691","0.0-236.0","","","","","null","<img src=""img/flower2.png"" style=""width:200px;border:14px solid red;"">","null","","","","","","","","",""
"","image-keyboard-response","237","208009","0.0-237.0","","","","","316.59999990463257","img/flower4.png","75","317.59999990463257","2","1","2","2","1,0,0,1,1,0,1,0,1","0,1,0,0,1,1,1,1,0","3",""
"","html-keyboard-response","238","208311","0.0-238.0","","","","","null","<img src=""img/flower4.png"" style=""width:200px; border:14px solid green;"">","null","","","","","","","","",""
"","image-keyboard-response","239","208464","0.0-239.0","","","","","151","img/flower4.png","76","152.80000019073486","3","1","2","2","1,0,0,1,1,0,1,0,1","0,1,0,0,1,1,1,1,0","3",""
"","html-keyboard-response","240","208766","0.0-240.0","","","","","null","<img src=""img/flower4.png"" style=""width:200px; border:14px solid green;"">","null","","","","","","","","",""
"","image-keyboard-response","241","209068","0.0-241.0","","","","","300.90000009536743","img/flower6.png","74","302","1","1","3","2","1,0,0,1,1,0,1,0,1","0,1,0,0,1,1,1,1,0","3",""
"","html-keyboard-response","242","209369","0.0-242.0","","","","","null","<img src=""img/flower6.png"" style=""width:200px; border:14px solid green;"">","null","","","","","","","","",""
"","image-keyboard-response","243","209915","0.0-243.0","","","","","544.2999997138977","img/flower4.png","74","545.5","1","0","2","2","1,0,0,1,1,0,1,0,1","0,1,0,0,1,1,1,1,0","3",""
"","html-keyboard-response","244","210217","0.0-244.0","","","","","null","<img src=""img/flower4.png"" style=""width:200px;border:14px solid red;"">","null","","","","","","","","",""
"","image-keyboard-response","245","210286","0.0-245.0","","","","","68.09999990463257","img/flower6.png","75","69.19999980926514","2","1","3","2","1,0,0,1,1,0,1,0,1","0,1,0,0,1,1,1,1,0","3",""
"","html-keyboard-response","246","210588","0.0-246.0","","","","","null","<img src=""img/flower6.png"" style=""width:200px; border:14px solid green;"">","null","","","","","","","","",""
"","image-keyboard-response","247","211301","0.0-247.0","","","","","712.4000000953674","img/flower6.png","74","713.4000000953674","1","1","3","2","1,0,0,1,1,0,1,0,1","0,1,0,0,1,1,1,1,0","3",""
"","html-keyboard-response","248","211606","0.0-248.0","","","","","null","<img src=""img/flower6.png"" style=""width:200px; border:14px solid green;"">","null","","","","","","","","",""
"","image-keyboard-response","249","211939","0.0-249.0","","","","","332.69999980926514","img/flower6.png","76","333.7000002861023","3","0","3","2","1,0,0,1,1,0,1,0,1","0,1,0,0,1,1,1,1,0","3",""
"","html-keyboard-response","250","212241","0.0-250.0","","","","","null","<img src=""img/flower6.png"" style=""width:200px;border:14px solid red;"">","null","","","","","","","","",""
"","image-keyboard-response","251","212526","0.0-251.0","","","","","284","img/flower4.png","76","284.8999996185303","3","1","2","2","1,0,0,1,1,0,1,0,1","0,1,0,0,1,1,1,1,0","3",""
"","html-keyboard-response","252","212830","0.0-252.0","","","","","null","<img src=""img/flower4.png"" style=""width:200px; border:14px solid green;"">","null","","","","","","","","",""
"","image-keyboard-response","253","213033","0.0-253.0","","","","","202.2999997138977","img/flower2.png","74","203.19999980926514","1","0","1","2","1,0,0,1,1,0,1,0,1","0,1,0,0,1,1,1,1,0","3",""
"","html-keyboard-response","254","213335","0.0-254.0","","","","","null","<img src=""img/flower2.png"" style=""width:200px;border:14px solid red;"">","null","","","","","","","","",""
"","image-keyboard-response","255","213650","0.0-255.0","","","","","312","img/flower4.png","76","314","3","1","2","2","1,0,0,1,1,0,1,0,1","0,1,0,0,1,1,1,1,0","3",""
"","html-keyboard-response","256","213952","0.0-256.0","","","","","null","<img src=""img/flower4.png"" style=""width:200px; border:14px solid green;"">","null","","","","","","","","",""
"","image-keyboard-response","257","214457","0.0-257.0","","","","","503.30000019073486","img/flower4.png","75","504.19999980926514","2","1","2","2","1,0,0,1,1,0,1,0,1","0,1,0,0,1,1,1,1,0","3",""
"","html-keyboard-response","258","214758","0.0-258.0","","","","","null","<img src=""img/flower4.png"" style=""width:200px; border:14px solid green;"">","null","","","","","","","","",""
"","image-keyboard-response","259","214860","0.0-259.0","","","","","100.19999980926514","img/flower6.png","76","101.30000019073486","3","0","3","2","1,0,0,1,1,0,1,0,1","0,1,0,0,1,1,1,1,0","3",""
"","html-keyboard-response","260","215162","0.0-260.0","","","","","null","<img src=""img/flower6.png"" style=""width:200px;border:14px solid red;"">","null","","","","","","","","",""
"","image-keyboard-response","261","215286","0.0-261.0","","","","","124","img/flower4.png","74","124.7999997138977","1","0","2","2","1,0,0,1,1,0,1,0,1","0,1,0,0,1,1,1,1,0","3",""
"","html-keyboard-response","262","215588","0.0-262.0","","","","","null","<img src=""img/flower4.png"" style=""width:200px;border:14px solid red;"">","null","","","","","","","","",""
"","image-keyboard-response","263","215728","0.0-263.0","","","","","139","img/flower6.png","75","140.40000009536743","2","1","3","2","1,0,0,1,1,0,1,0,1","0,1,0,0,1,1,1,1,0","3",""
"","html-keyboard-response","264","216030","0.0-264.0","","","","","null","<img src=""img/flower6.png"" style=""width:200px; border:14px solid green;"">","null","","","","","","","","",""
"","image-keyboard-response","265","216385","0.0-265.0","","","","","353.5","img/flower6.png","76","354.40000009536743","3","0","3","2","1,0,0,1,1,0,1,0,1","0,1,0,0,1,1,1,1,0","3",""
"","html-keyboard-response","266","216686","0.0-266.0","","","","","null","<img src=""img/flower6.png"" style=""width:200px;border:14px solid red;"">","null","","","","","","","","",""
"","image-keyboard-response","267","216869","0.0-267.0","","","","","181.09999990463257","img/flower6.png","74","182","1","1","3","2","1,0,0,1,1,0,1,0,1","0,1,0,0,1,1,1,1,0","3",""
"","html-keyboard-response","268","217171","0.0-268.0","","","","","null","<img src=""img/flower6.png"" style=""width:200px; border:14px solid green;"">","null","","","","","","","","",""
"","image-keyboard-response","269","217228","0.0-269.0","","","","","55.90000009536743","img/flower6.png","75","56.700000286102295","2","1","3","2","1,0,0,1,1,0,1,0,1","0,1,0,0,1,1,1,1,0","3",""
"","html-keyboard-response","270","217529","0.0-270.0","","","","","null","<img src=""img/flower6.png"" style=""width:200px; border:14px solid green;"">","null","","","","","","","","",""
"","image-keyboard-response","271","217922","0.0-271.0","","","","","391.19999980926514","img/flower2.png","75","392.59999990463257","2","1","1","2","1,0,0,1,1,0,1,0,1","0,1,0,0,1,1,1,1,0","3",""
"","html-keyboard-response","272","218224","0.0-272.0","","","","","null","<img src=""img/flower2.png"" style=""width:200px; border:14px solid green;"">","null","","","","","","","","",""
"","image-keyboard-response","273","218435","0.0-273.0","","","","","208.19999980926514","img/flower4.png","76","209.80000019073486","3","1","2","2","1,0,0,1,1,0,1,0,1","0,1,0,0,1,1,1,1,0","3",""
"","html-keyboard-response","274","218737","0.0-274.0","","","","","null","<img src=""img/flower4.png"" style=""width:200px; border:14px solid green;"">","null","","","","","","","","",""
"","image-keyboard-response","275","218758","0.0-275.0","","","","","20.09999990463257","img/flower6.png","74","21.199999809265137","1","1","3","2","1,0,0,1,1,0,1,0,1","0,1,0,0,1,1,1,1,0","3",""
"","html-keyboard-response","276","219059","0.0-276.0","","","","","null","<img src=""img/flower6.png"" style=""width:200px; border:14px solid green;"">","null","","","","","","","","",""
"","image-keyboard-response","277","219150","0.0-277.0","","","","","89.80000019073486","img/flower4.png","75","91.09999990463257","2","1","2","2","1,0,0,1,1,0,1,0,1","0,1,0,0,1,1,1,1,0","3",""
"","html-keyboard-response","278","219452","0.0-278.0","","","","","null","<img src=""img/flower4.png"" style=""width:200px; border:14px solid green;"">","null","","","","","","","","",""
"","image-keyboard-response","279","219700","0.0-279.0","","","","","246.59999990463257","img/flower4.png","76","247.5","3","1","2","2","1,0,0,1,1,0,1,0,1","0,1,0,0,1,1,1,1,0","3",""
"","html-keyboard-response","280","220006","0.0-280.0","","","","","null","<img src=""img/flower4.png"" style=""width:200px; border:14px solid green;"">","null","","","","","","","","",""
"","image-keyboard-response","281","220523","0.0-281.0","","","","","515.3000001907349","img/flower6.png","74","517.0999999046326","1","1","3","2","1,0,0,1,1,0,1,0,1","0,1,0,0,1,1,1,1,0","3",""
"","html-keyboard-response","282","220825","0.0-282.0","","","","","null","<img src=""img/flower6.png"" style=""width:200px; border:14px solid green;"">","null","","","","","","","","",""
"","image-keyboard-response","283","221078","0.0-283.0","","","","","251.5","img/flower4.png","75","252.5","2","1","2","2","1,0,0,1,1,0,1,0,1","0,1,0,0,1,1,1,1,0","3",""
"","html-keyboard-response","284","221380","0.0-284.0","","","","","null","<img src=""img/flower4.png"" style=""width:200px; border:14px solid green;"">","null","","","","","","","","",""
"","image-keyboard-response","285","221693","0.0-285.0","","","","","311.19999980926514","img/flower4.png","74","312.7999997138977","1","0","2","2","1,0,0,1,1,0,1,0,1","0,1,0,0,1,1,1,1,0","3",""
"","html-keyboard-response","286","221995","0.0-286.0","","","","","null","<img src=""img/flower4.png"" style=""width:200px;border:14px solid red;"">","null","","","","","","","","",""
"","image-keyboard-response","287","222033","0.0-287.0","","","","","37.39999961853027","img/flower4.png","75","38.40000009536743","2","1","2","2","1,0,0,1,1,0,1,0,1","0,1,0,0,1,1,1,1,0","3",""
"","html-keyboard-response","288","222335","0.0-288.0","","","","","null","<img src=""img/flower4.png"" style=""width:200px; border:14px solid green;"">","null","","","","","","","","",""
"","image-keyboard-response","289","222564","0.0-289.0","","","","","227.7000002861023","img/flower2.png","76","228.60000038146973","3","0","1","2","1,0,0,1,1,0,1,0,1","0,1,0,0,1,1,1,1,0","3",""
"","html-keyboard-response","290","222867","0.0-290.0","","","","","null","<img src=""img/flower2.png"" style=""width:200px;border:14px solid red;"">","null","","","","","","","","",""
"","image-keyboard-response","291","223435","0.0-291.0","","","","","564.1999998092651","img/flower2.png","75","567.0999999046326","2","1","1","2","1,0,0,1,1,0,1,0,1","0,1,0,0,1,1,1,1,0","3",""
"","html-keyboard-response","292","223737","0.0-292.0","","","","","null","<img src=""img/flower2.png"" style=""width:200px; border:14px solid green;"">","null","","","","","","","","",""
"","image-keyboard-response","293","224044","0.0-293.0","","","","","305.80000019073486","img/flower2.png","74","307","1","0","1","2","1,0,0,1,1,0,1,0,1","0,1,0,0,1,1,1,1,0","3",""
"","html-keyboard-response","294","224348","0.0-294.0","","","","","null","<img src=""img/flower2.png"" style=""width:200px;border:14px solid red;"">","null","","","","","","","","",""
"","image-keyboard-response","295","224636","0.0-295.0","","","","","287.80000019073486","img/flower6.png","76","288.69999980926514","3","0","3","2","1,0,0,1,1,0,1,0,1","0,1,0,0,1,1,1,1,0","3",""
"","html-keyboard-response","296","224940","0.0-296.0","","","","","null","<img src=""img/flower6.png"" style=""width:200px;border:14px solid red;"">","null","","","","","","","","",""
"","image-keyboard-response","297","225130","0.0-297.0","","","","","189.19999980926514","img/flower4.png","74","190.5","1","0","2","2","1,0,0,1,1,0,1,0,1","0,1,0,0,1,1,1,1,0","3",""
"","html-keyboard-response","298","225432","0.0-298.0","","","","","null","<img src=""img/flower4.png"" style=""width:200px;border:14px solid red;"">","null","","","","","","","","",""
"","image-keyboard-response","299","225600","0.0-299.0","","","","","166.40000009536743","img/flower2.png","75","167.5","2","1","1","2","1,0,0,1,1,0,1,0,1","0,1,0,0,1,1,1,1,0","3",""
"","html-keyboard-response","300","225902","0.0-300.0","","","","","null","<img src=""img/flower2.png"" style=""width:200px; border:14px solid green;"">","null","","","","","","","","",""
"","image-keyboard-response","301","226006","0.0-301.0","","","","","102.80000019073486","img/flower4.png","76","103.80000019073486","3","1","2","2","1,0,0,1,1,0,1,0,1","0,1,0,0,1,1,1,1,0","3",""
"","html-keyboard-response","302","226307","0.0-302.0","","","","","null","<img src=""img/flower4.png"" style=""width:200px; border:14px solid green;"">","null","","","","","","","","",""
"","image-keyboard-response","303","226403","0.0-303.0","","","","","94.09999990463257","img/flower2.png","74","95.19999980926514","1","0","1","2","1,0,0,1,1,0,1,0,1","0,1,0,0,1,1,1,1,0","3",""
"","html-keyboard-response","304","226705","0.0-304.0","","","","","null","<img src=""img/flower2.png"" style=""width:200px;border:14px solid red;"">","null","","","","","","","","",""
"","image-keyboard-response","305","227004","0.0-305.0","","","","","297.80000019073486","img/flower6.png","75","298.7000002861023","2","1","3","2","1,0,0,1,1,0,1,0,1","0,1,0,0,1,1,1,1,0","3",""
"","html-keyboard-response","306","227305","0.0-306.0","","","","","null","<img src=""img/flower6.png"" style=""width:200px; border:14px solid green;"">","null","","","","","","","","",""
"","image-keyboard-response","307","227655","0.0-307.0","","","","","349.6000003814697","img/flower4.png","76","350.40000009536743","3","1","2","2","1,0,0,1,1,0,1,0,1","0,1,0,0,1,1,1,1,0","3",""
"","html-keyboard-response","308","227958","0.0-308.0","","","","","null","<img src=""img/flower4.png"" style=""width:200px; border:14px solid green;"">","null","","","","","","","","",""
"","image-keyboard-response","309","228052","0.0-309.0","","","","","92.59999990463257","img/flower6.png","74","93.5","1","1","3","2","1,0,0,1,1,0,1,0,1","0,1,0,0,1,1,1,1,0","3",""
"","html-keyboard-response","310","228354","0.0-310.0","","","","","null","<img src=""img/flower6.png"" style=""width:200px; border:14px solid green;"">","null","","","","","","","","",""
"","image-keyboard-response","311","228594","0.0-311.0","","","","","238.59999990463257","img/flower4.png","75","239.7999997138977","2","1","2","2","1,0,0,1,1,0,1,0,1","0,1,0,0,1,1,1,1,0","3",""
"","html-keyboard-response","312","228895","0.0-312.0","","","","","null","<img src=""img/flower4.png"" style=""width:200px; border:14px solid green;"">","null","","","","","","","","",""
"","image-keyboard-response","313","229476","0.0-313.0","","","","","579.0999999046326","img/flower6.png","76","581.4000000953674","3","0","3","2","1,0,0,1,1,0,1,0,1","0,1,0,0,1,1,1,1,0","3",""
"","html-keyboard-response","314","229785","0.0-314.0","","","","","null","<img src=""img/flower6.png"" style=""width:200px;border:14px solid red;"">","null","","","","","","","","",""
"","image-keyboard-response","315","229995","0.0-315.0","","","","","206.5","img/flower6.png","74","209.59999990463257","1","1","3","2","1,0,0,1,1,0,1,0,1","0,1,0,0,1,1,1,1,0","3",""
"","html-keyboard-response","316","230297","0.0-316.0","","","","","null","<img src=""img/flower6.png"" style=""width:200px; border:14px solid green;"">","null","","","","","","","","",""
"","image-keyboard-response","317","230415","0.0-317.0","","","","","116.2000002861023","img/flower6.png","74","117.2999997138977","1","1","3","2","1,0,0,1,1,0,1,0,1","0,1,0,0,1,1,1,1,0","3",""
"","html-keyboard-response","318","230718","0.0-318.0","","","","","null","<img src=""img/flower6.png"" style=""width:200px; border:14px solid green;"">","null","","","","","","","","",""
"","image-keyboard-response","319","230739","0.0-319.0","","","","","19.59999990463257","img/flower2.png","74","20.90000009536743","1","0","1","2","1,0,0,1,1,0,1,0,1","0,1,0,0,1,1,1,1,0","3",""
"","html-keyboard-response","320","231041","0.0-320.0","","","","","null","<img src=""img/flower2.png"" style=""width:200px;border:14px solid red;"">","null","","","","","","","","",""
"","image-keyboard-response","321","231427","0.0-321.0","","","","","383.5","img/flower4.png","75","385.59999990463257","2","1","2","2","1,0,0,1,1,0,1,0,1","0,1,0,0,1,1,1,1,0","3",""
"","html-keyboard-response","322","231729","0.0-322.0","","","","","null","<img src=""img/flower4.png"" style=""width:200px; border:14px solid green;"">","null","","","","","","","","",""
"","image-keyboard-response","323","232353","0.0-323.0","","","","","622.5999999046326","img/flower4.png","74","623.5999999046326","1","0","2","2","1,0,0,1,1,0,1,0,1","0,1,0,0,1,1,1,1,0","3",""
"","html-keyboard-response","324","232654","0.0-324.0","","","","","null","<img src=""img/flower4.png"" style=""width:200px;border:14px solid red;"">","null","","","","","","","","",""
"","image-keyboard-response","325","232912","0.0-325.0","","","","","257.1000003814697","img/flower4.png","74","258.09999990463257","1","0","2","2","1,0,0,1,1,0,1,0,1","0,1,0,0,1,1,1,1,0","3",""
"","html-keyboard-response","326","233214","0.0-326.0","","","","","null","<img src=""img/flower4.png"" style=""width:200px;border:14px solid red;"">","null","","","","","","","","",""
"","image-keyboard-response","327","233551","0.0-327.0","","","","","335.80000019073486","img/flower2.png","75","336.90000009536743","2","1","1","2","1,0,0,1,1,0,1,0,1","0,1,0,0,1,1,1,1,0","3",""
"","html-keyboard-response","328","233853","0.0-328.0","","","","","null","<img src=""img/flower2.png"" style=""width:200px; border:14px solid green;"">","null","","","","","","","","",""
"","image-keyboard-response","329","234039","0.0-329.0","","","","","178.30000019073486","img/flower6.png","76","181.2999997138977","3","0","3","2","1,0,0,1,1,0,1,0,1","0,1,0,0,1,1,1,1,0","3",""
"","html-keyboard-response","330","234342","0.0-330.0","","","","","null","<img src=""img/flower6.png"" style=""width:200px;border:14px solid red;"">","null","","","","","","","","",""
"","image-keyboard-response","331","234443","0.0-331.0","","","","","99.90000009536743","img/flower4.png","74","100.90000009536743","1","0","2","2","1,0,0,1,1,0,1,0,1","0,1,0,0,1,1,1,1,0","3",""
"","html-keyboard-response","332","234744","0.0-332.0","","","","","null","<img src=""img/flower4.png"" style=""width:200px;border:14px solid red;"">","null","","","","","","","","",""
"","image-keyboard-response","333","234949","0.0-333.0","","","","","203.09999990463257","img/flower2.png","76","204","3","0","1","2","1,0,0,1,1,0,1,0,1","0,1,0,0,1,1,1,1,0","3",""
"","html-keyboard-response","334","235250","0.0-334.0","","","","","null","<img src=""img/flower2.png"" style=""width:200px;border:14px solid red;"">","null","","","","","","","","",""
"","image-keyboard-response","335","235584","0.0-335.0","","","","","332.3999996185303","img/flower4.png","74","333.3999996185303","1","0","2","2","1,0,0,1,1,0,1,0,1","0,1,0,0,1,1,1,1,0","3",""
"","html-keyboard-response","336","235887","0.0-336.0","","","","","null","<img src=""img/flower4.png"" style=""width:200px;border:14px solid red;"">","null","","","","","","","","",""
"","image-keyboard-response","337","236083","0.0-337.0","","","","","194.89999961853027","img/flower4.png","75","196.09999990463257","2","1","2","2","1,0,0,1,1,0,1,0,1","0,1,0,0,1,1,1,1,0","3",""
"","html-keyboard-response","338","236386","0.0-338.0","","","","","null","<img src=""img/flower4.png"" style=""width:200px; border:14px solid green;"">","null","","","","","","","","",""
"","image-keyboard-response","339","236959","0.0-339.0","","","","","572.2000002861023","img/flower4.png","74","573.6999998092651","1","0","2","2","1,0,0,1,1,0,1,0,1","0,1,0,0,1,1,1,1,0","3",""
"","html-keyboard-response","340","237262","0.0-340.0","","","","","null","<img src=""img/flower4.png"" style=""width:200px;border:14px solid red;"">","null","","","","","","","","",""
"","image-keyboard-response","341","237584","0.0-341.0","","","","","320","img/flower2.png","75","321.59999990463257","2","1","1","2","1,0,0,1,1,0,1,0,1","0,1,0,0,1,1,1,1,0","3",""
"","html-keyboard-response","342","237886","0.0-342.0","","","","","null","<img src=""img/flower2.png"" style=""width:200px; border:14px solid green;"">","null","","","","","","","","",""
"","image-keyboard-response","343","238210","0.0-343.0","","","","","323.5","img/flower2.png","74","324.40000009536743","1","0","1","2","1,0,0,1,1,0,1,0,1","0,1,0,0,1,1,1,1,0","3",""
"","html-keyboard-response","344","238512","0.0-344.0","","","","","null","<img src=""img/flower2.png"" style=""width:200px;border:14px solid red;"">","null","","","","","","","","",""
"","image-keyboard-response","345","238705","0.0-345.0","","","","","189.89999961853027","img/flower2.png","75","192.40000009536743","2","1","1","2","1,0,0,1,1,0,1,0,1","0,1,0,0,1,1,1,1,0","3",""
"","html-keyboard-response","346","239006","0.0-346.0","","","","","null","<img src=""img/flower2.png"" style=""width:200px; border:14px solid green;"">","null","","","","","","","","",""
"","image-keyboard-response","347","239152","0.0-347.0","","","","","145.09999990463257","img/flower4.png","74","146","1","0","2","2","1,0,0,1,1,0,1,0,1","0,1,0,0,1,1,1,1,0","3",""
"","html-keyboard-response","348","239454","0.0-348.0","","","","","null","<img src=""img/flower4.png"" style=""width:200px;border:14px solid red;"">","null","","","","","","","","",""
"","image-keyboard-response","349","239800","0.0-349.0","","","","","344.5","img/flower6.png","74","345.40000009536743","1","1","3","2","1,0,0,1,1,0,1,0,1","0,1,0,0,1,1,1,1,0","3",""
"","html-keyboard-response","350","240101","0.0-350.0","","","","","null","<img src=""img/flower6.png"" style=""width:200px; border:14px solid green;"">","null","","","","","","","","",""
"","image-keyboard-response","351","240320","0.0-351.0","","","","","217.69999980926514","img/flower2.png","75","219","2","1","1","2","1,0,0,1,1,0,1,0,1","0,1,0,0,1,1,1,1,0","3",""
"","html-keyboard-response","352","240622","0.0-352.0","","","","","null","<img src=""img/flower2.png"" style=""width:200px; border:14px solid green;"">","null","","","","","","","","",""
"","image-keyboard-response","353","240869","0.0-353.0","","","","","244.69999980926514","img/flower2.png","74","246.19999980926514","1","0","1","2","1,0,0,1,1,0,1,0,1","0,1,0,0,1,1,1,1,0","3",""
"","html-keyboard-response","354","241171","0.0-354.0","","","","","null","<img src=""img/flower2.png"" style=""width:200px;border:14px solid red;"">","null","","","","","","","","",""
"","image-keyboard-response","355","241187","0.0-355.0","","","","","15.5","img/flower4.png","75","16.40000009536743","2","1","2","2","1,0,0,1,1,0,1,0,1","0,1,0,0,1,1,1,1,0","3",""
"","html-keyboard-response","356","241491","0.0-356.0","","","","","null","<img src=""img/flower4.png"" style=""width:200px; border:14px solid green;"">","null","","","","","","","","",""
"","image-keyboard-response","357","242299","0.0-357.0","","","","","807.1000003814697","img/flower6.png","75","808","2","1","3","2","1,0,0,1,1,0,1,0,1","0,1,0,0,1,1,1,1,0","3",""
"","html-keyboard-response","358","242603","0.0-358.0","","","","","null","<img src=""img/flower6.png"" style=""width:200px; border:14px solid green;"">","null","","","","","","","","",""
"","image-keyboard-response","359","242974","0.0-359.0","","","","","369.40000009536743","img/flower6.png","75","370.69999980926514","2","1","3","2","1,0,0,1,1,0,1,0,1","0,1,0,0,1,1,1,1,0","3",""
"","html-keyboard-response","360","243276","0.0-360.0","","","","","null","<img src=""img/flower6.png"" style=""width:200px; border:14px solid green;"">","null","","","","","","","","",""
"","image-keyboard-response","361","243752","0.0-361.0","","","","","475.40000009536743","img/flower2.png","74","476.2000002861023","1","0","1","2","1,0,0,1,1,0,1,0,1","0,1,0,0,1,1,1,1,0","3",""
"","html-keyboard-response","362","244053","0.0-362.0","","","","","null","<img src=""img/flower2.png"" style=""width:200px;border:14px solid red;"">","null","","","","","","","","",""
"","instructions","363","245808","0.0-363.0","","","","[{""page_index"":0,""viewing_time"":1753.5}]","1753.8999996185303","","","","","","","","","","",""
"","survey-text","364","248950","0.0-364.0","","","","","3138.2999997138977","","","","","","","","","","","{""Q0"":""A2B9OD2O9CJNC0""}"
