"rt","url","trial_type","trial_index","time_elapsed","internal_node_id","assignmentID","mturkID","hitID","success","view_history","stimulus","key_press","reactionTime","a","r","s","reward_cond","responses"
"145306.90000000596","consent.html","external-html","0","145330","0.0-0.0","3DIP6YHAPDESN6181QGC3WXXCDQ8EB","A2BK9RMC0NOIH8","3TZDZ3Y0JSSRVQSC3SM97PDQ3Z7196","","","","","","","","","",""
"","","fullscreen","1","151389","0.0-1.0","3DIP6YHAPDESN6181QGC3WXXCDQ8EB","A2BK9RMC0NOIH8","3TZDZ3Y0JSSRVQSC3SM97PDQ3Z7196","true","","","","","","","","",""
"171022.10000000894","","instructions","2","322412","0.0-2.0","3DIP6YHAPDESN6181QGC3WXXCDQ8EB","A2BK9RMC0NOIH8","3TZDZ3Y0JSSRVQSC3SM97PDQ3Z7196","","[{""page_index"":0,""viewing_time"":20637.90000000596},{""page_index"":1,""viewing_time"":16528.29999999702},{""page_index"":2,""viewing_time"":60031.09999999404},{""page_index"":3,""viewing_time"":20347},{""page_index"":4,""viewing_time"":17675.10000000894},{""page_index"":5,""viewing_time"":23137.89999999106},{""page_index"":6,""viewing_time"":12664.300000011921}]","","","","","","","",""
"54212.09999999404","","instructions","3","376625","0.0-3.0","3DIP6YHAPDESN6181QGC3WXXCDQ8EB","A2BK9RMC0NOIH8","3TZDZ3Y0JSSRVQSC3SM97PDQ3Z7196","","[{""page_index"":0,""viewing_time"":54211.89999999106}]","","","","","","","",""
"1260.8999999910593","","image-keyboard-response","4","377887","0.0-4.0","3DIP6YHAPDESN6181QGC3WXXCDQ8EB","A2BK9RMC0NOIH8","3TZDZ3Y0JSSRVQSC3SM97PDQ3Z7196","","","img/flower4.png","76","1261.9000000059605","3","0","1","",""
"null","","html-keyboard-response","5","378202","0.0-5.0","3DIP6YHAPDESN6181QGC3WXXCDQ8EB","A2BK9RMC0NOIH8","3TZDZ3Y0JSSRVQSC3SM97PDQ3Z7196","","","<img src=""img/flower4.png"" style=""width:200px;border:14px solid red;"">","null","","","","","",""
"819.5999999940395","","image-keyboard-response","6","379022","0.0-6.0","3DIP6YHAPDESN6181QGC3WXXCDQ8EB","A2BK9RMC0NOIH8","3TZDZ3Y0JSSRVQSC3SM97PDQ3Z7196","","","img/flower6.png","75","820.2999999970198","2","0","3","",""
"null","","html-keyboard-response","7","379324","0.0-7.0","3DIP6YHAPDESN6181QGC3WXXCDQ8EB","A2BK9RMC0NOIH8","3TZDZ3Y0JSSRVQSC3SM97PDQ3Z7196","","","<img src=""img/flower6.png"" style=""width:200px;border:14px solid red;"">","null","","","","","",""
"562.1000000089407","","image-keyboard-response","8","379887","0.0-8.0","3DIP6YHAPDESN6181QGC3WXXCDQ8EB","A2BK9RMC0NOIH8","3TZDZ3Y0JSSRVQSC3SM97PDQ3Z7196","","","img/flower5.png","74","562.4000000059605","1","0","2","",""
"null","","html-keyboard-response","9","380188","0.0-9.0","3DIP6YHAPDESN6181QGC3WXXCDQ8EB","A2BK9RMC0NOIH8","3TZDZ3Y0JSSRVQSC3SM97PDQ3Z7196","","","<img src=""img/flower5.png"" style=""width:200px;border:14px solid red;"">","null","","","","","",""
"1434.2999999970198","","image-keyboard-response","10","381623","0.0-10.0","3DIP6YHAPDESN6181QGC3WXXCDQ8EB","A2BK9RMC0NOIH8","3TZDZ3Y0JSSRVQSC3SM97PDQ3Z7196","","","img/flower5.png","75","1434.7000000029802","2","1","2","",""
"null","","html-keyboard-response","11","381924","0.0-11.0","3DIP6YHAPDESN6181QGC3WXXCDQ8EB","A2BK9RMC0NOIH8","3TZDZ3Y0JSSRVQSC3SM97PDQ3Z7196","","","<img src=""img/flower5.png"" style=""width:200px; border:14px solid green;"">","null","","","","","",""
"682.2999999970198","","image-keyboard-response","12","382607","0.0-12.0","3DIP6YHAPDESN6181QGC3WXXCDQ8EB","A2BK9RMC0NOIH8","3TZDZ3Y0JSSRVQSC3SM97PDQ3Z7196","","","img/flower5.png","75","682.7999999970198","2","1","2","",""
"null","","html-keyboard-response","13","382917","0.0-13.0","3DIP6YHAPDESN6181QGC3WXXCDQ8EB","A2BK9RMC0NOIH8","3TZDZ3Y0JSSRVQSC3SM97PDQ3Z7196","","","<img src=""img/flower5.png"" style=""width:200px; border:14px solid green;"">","null","","","","","",""
"489.29999999701977","","image-keyboard-response","14","383406","0.0-14.0","3DIP6YHAPDESN6181QGC3WXXCDQ8EB","A2BK9RMC0NOIH8","3TZDZ3Y0JSSRVQSC3SM97PDQ3Z7196","","","img/flower4.png","75","489.70000000298023","2","1","1","",""
"null","","html-keyboard-response","15","383715","0.0-15.0","3DIP6YHAPDESN6181QGC3WXXCDQ8EB","A2BK9RMC0NOIH8","3TZDZ3Y0JSSRVQSC3SM97PDQ3Z7196","","","<img src=""img/flower4.png"" style=""width:200px; border:14px solid green;"">","null","","","","","",""
"594.9000000059605","","image-keyboard-response","16","384311","0.0-16.0","3DIP6YHAPDESN6181QGC3WXXCDQ8EB","A2BK9RMC0NOIH8","3TZDZ3Y0JSSRVQSC3SM97PDQ3Z7196","","","img/flower6.png","75","595.3999999910593","2","0","3","",""
"null","","html-keyboard-response","17","384625","0.0-17.0","3DIP6YHAPDESN6181QGC3WXXCDQ8EB","A2BK9RMC0NOIH8","3TZDZ3Y0JSSRVQSC3SM97PDQ3Z7196","","","<img src=""img/flower6.png"" style=""width:200px;border:14px solid red;"">","null","","","","","",""
"397.40000000596046","","image-keyboard-response","18","385023","0.0-18.0","3DIP6YHAPDESN6181QGC3WXXCDQ8EB","A2BK9RMC0NOIH8","3TZDZ3Y0JSSRVQSC3SM97PDQ3Z7196","","","img/flower5.png","76","398","3","0","2","",""
"null","","html-keyboard-response","19","385327","0.0-19.0","3DIP6YHAPDESN6181QGC3WXXCDQ8EB","A2BK9RMC0NOIH8","3TZDZ3Y0JSSRVQSC3SM97PDQ3Z7196","","","<img src=""img/flower5.png"" style=""width:200px;border:14px solid red;"">","null","","","","","",""
"119.20000000298023","","image-keyboard-response","20","385447","0.0-20.0","3DIP6YHAPDESN6181QGC3WXXCDQ8EB","A2BK9RMC0NOIH8","3TZDZ3Y0JSSRVQSC3SM97PDQ3Z7196","","","img/flower6.png","74","119.70000000298023","1","0","3","",""
"null","","html-keyboard-response","21","385748","0.0-21.0","3DIP6YHAPDESN6181QGC3WXXCDQ8EB","A2BK9RMC0NOIH8","3TZDZ3Y0JSSRVQSC3SM97PDQ3Z7196","","","<img src=""img/flower6.png"" style=""width:200px;border:14px solid red;"">","null","","","","","",""
"185.90000000596046","","image-keyboard-response","22","385934","0.0-22.0","3DIP6YHAPDESN6181QGC3WXXCDQ8EB","A2BK9RMC0NOIH8","3TZDZ3Y0JSSRVQSC3SM97PDQ3Z7196","","","img/flower4.png","75","186.59999999403954","2","0","1","",""
"null","","html-keyboard-response","23","386236","0.0-23.0","3DIP6YHAPDESN6181QGC3WXXCDQ8EB","A2BK9RMC0NOIH8","3TZDZ3Y0JSSRVQSC3SM97PDQ3Z7196","","","<img src=""img/flower4.png"" style=""width:200px;border:14px solid red;"">","null","","","","","",""
"137.70000000298023","","image-keyboard-response","24","386375","0.0-24.0","3DIP6YHAPDESN6181QGC3WXXCDQ8EB","A2BK9RMC0NOIH8","3TZDZ3Y0JSSRVQSC3SM97PDQ3Z7196","","","img/flower6.png","76","138.09999999403954","3","1","3","",""
"null","","html-keyboard-response","25","386679","0.0-25.0","3DIP6YHAPDESN6181QGC3WXXCDQ8EB","A2BK9RMC0NOIH8","3TZDZ3Y0JSSRVQSC3SM97PDQ3Z7196","","","<img src=""img/flower6.png"" style=""width:200px; border:14px solid green;"">","null","","","","","",""
"583","","image-keyboard-response","26","387263","0.0-26.0","3DIP6YHAPDESN6181QGC3WXXCDQ8EB","A2BK9RMC0NOIH8","3TZDZ3Y0JSSRVQSC3SM97PDQ3Z7196","","","img/flower6.png","75","583.4000000059605","2","0","3","",""
"null","","html-keyboard-response","27","387573","0.0-27.0","3DIP6YHAPDESN6181QGC3WXXCDQ8EB","A2BK9RMC0NOIH8","3TZDZ3Y0JSSRVQSC3SM97PDQ3Z7196","","","<img src=""img/flower6.png"" style=""width:200px;border:14px solid red;"">","null","","","","","",""
"376.79999999701977","","image-keyboard-response","28","387950","0.0-28.0","3DIP6YHAPDESN6181QGC3WXXCDQ8EB","A2BK9RMC0NOIH8","3TZDZ3Y0JSSRVQSC3SM97PDQ3Z7196","","","img/flower6.png","74","377.1000000089407","1","0","3","",""
"null","","html-keyboard-response","29","388257","0.0-29.0","3DIP6YHAPDESN6181QGC3WXXCDQ8EB","A2BK9RMC0NOIH8","3TZDZ3Y0JSSRVQSC3SM97PDQ3Z7196","","","<img src=""img/flower6.png"" style=""width:200px;border:14px solid red;"">","null","","","","","",""
"84.5","","image-keyboard-response","30","388343","0.0-30.0","3DIP6YHAPDESN6181QGC3WXXCDQ8EB","A2BK9RMC0NOIH8","3TZDZ3Y0JSSRVQSC3SM97PDQ3Z7196","","","img/flower5.png","75","85","2","1","2","",""
"null","","html-keyboard-response","31","388649","0.0-31.0","3DIP6YHAPDESN6181QGC3WXXCDQ8EB","A2BK9RMC0NOIH8","3TZDZ3Y0JSSRVQSC3SM97PDQ3Z7196","","","<img src=""img/flower5.png"" style=""width:200px; border:14px solid green;"">","null","","","","","",""
"221.20000000298023","","image-keyboard-response","32","388870","0.0-32.0","3DIP6YHAPDESN6181QGC3WXXCDQ8EB","A2BK9RMC0NOIH8","3TZDZ3Y0JSSRVQSC3SM97PDQ3Z7196","","","img/flower4.png","76","221.6000000089407","3","0","1","",""
"null","","html-keyboard-response","33","389184","0.0-33.0","3DIP6YHAPDESN6181QGC3WXXCDQ8EB","A2BK9RMC0NOIH8","3TZDZ3Y0JSSRVQSC3SM97PDQ3Z7196","","","<img src=""img/flower4.png"" style=""width:200px;border:14px solid red;"">","null","","","","","",""
"230.09999999403954","","image-keyboard-response","34","389414","0.0-34.0","3DIP6YHAPDESN6181QGC3WXXCDQ8EB","A2BK9RMC0NOIH8","3TZDZ3Y0JSSRVQSC3SM97PDQ3Z7196","","","img/flower5.png","75","230.59999999403954","2","0","2","",""
"null","","html-keyboard-response","35","389716","0.0-35.0","3DIP6YHAPDESN6181QGC3WXXCDQ8EB","A2BK9RMC0NOIH8","3TZDZ3Y0JSSRVQSC3SM97PDQ3Z7196","","","<img src=""img/flower5.png"" style=""width:200px;border:14px solid red;"">","null","","","","","",""
"121.80000001192093","","image-keyboard-response","36","389839","0.0-36.0","3DIP6YHAPDESN6181QGC3WXXCDQ8EB","A2BK9RMC0NOIH8","3TZDZ3Y0JSSRVQSC3SM97PDQ3Z7196","","","img/flower4.png","74","122.29999999701977","1","1","1","",""
"null","","html-keyboard-response","37","390140","0.0-37.0","3DIP6YHAPDESN6181QGC3WXXCDQ8EB","A2BK9RMC0NOIH8","3TZDZ3Y0JSSRVQSC3SM97PDQ3Z7196","","","<img src=""img/flower4.png"" style=""width:200px; border:14px solid green;"">","null","","","","","",""
"442.1000000089407","","image-keyboard-response","38","390583","0.0-38.0","3DIP6YHAPDESN6181QGC3WXXCDQ8EB","A2BK9RMC0NOIH8","3TZDZ3Y0JSSRVQSC3SM97PDQ3Z7196","","","img/flower4.png","74","442.5","1","1","1","",""
"null","","html-keyboard-response","39","390889","0.0-39.0","3DIP6YHAPDESN6181QGC3WXXCDQ8EB","A2BK9RMC0NOIH8","3TZDZ3Y0JSSRVQSC3SM97PDQ3Z7196","","","<img src=""img/flower4.png"" style=""width:200px; border:14px solid green;"">","null","","","","","",""
"84.90000000596046","","image-keyboard-response","40","390975","0.0-40.0","3DIP6YHAPDESN6181QGC3WXXCDQ8EB","A2BK9RMC0NOIH8","3TZDZ3Y0JSSRVQSC3SM97PDQ3Z7196","","","img/flower6.png","75","85.3999999910593","2","0","3","",""
"null","","html-keyboard-response","41","391277","0.0-41.0","3DIP6YHAPDESN6181QGC3WXXCDQ8EB","A2BK9RMC0NOIH8","3TZDZ3Y0JSSRVQSC3SM97PDQ3Z7196","","","<img src=""img/flower6.png"" style=""width:200px;border:14px solid red;"">","null","","","","","",""
"264.90000000596046","","image-keyboard-response","42","391543","0.0-42.0","3DIP6YHAPDESN6181QGC3WXXCDQ8EB","A2BK9RMC0NOIH8","3TZDZ3Y0JSSRVQSC3SM97PDQ3Z7196","","","img/flower5.png","76","265.29999999701977","3","0","2","",""
"null","","html-keyboard-response","43","391845","0.0-43.0","3DIP6YHAPDESN6181QGC3WXXCDQ8EB","A2BK9RMC0NOIH8","3TZDZ3Y0JSSRVQSC3SM97PDQ3Z7196","","","<img src=""img/flower5.png"" style=""width:200px;border:14px solid red;"">","null","","","","","",""
"265.09999999403954","","image-keyboard-response","44","392110","0.0-44.0","3DIP6YHAPDESN6181QGC3WXXCDQ8EB","A2BK9RMC0NOIH8","3TZDZ3Y0JSSRVQSC3SM97PDQ3Z7196","","","img/flower4.png","75","265.6000000089407","2","0","1","",""
"null","","html-keyboard-response","45","392424","0.0-45.0","3DIP6YHAPDESN6181QGC3WXXCDQ8EB","A2BK9RMC0NOIH8","3TZDZ3Y0JSSRVQSC3SM97PDQ3Z7196","","","<img src=""img/flower4.png"" style=""width:200px;border:14px solid red;"">","null","","","","","",""
"142.09999999403954","","image-keyboard-response","46","392567","0.0-46.0","3DIP6YHAPDESN6181QGC3WXXCDQ8EB","A2BK9RMC0NOIH8","3TZDZ3Y0JSSRVQSC3SM97PDQ3Z7196","","","img/flower5.png","74","142.59999999403954","1","0","2","",""
"null","","html-keyboard-response","47","392877","0.0-47.0","3DIP6YHAPDESN6181QGC3WXXCDQ8EB","A2BK9RMC0NOIH8","3TZDZ3Y0JSSRVQSC3SM97PDQ3Z7196","","","<img src=""img/flower5.png"" style=""width:200px;border:14px solid red;"">","null","","","","","",""
"265.40000000596046","","image-keyboard-response","48","393143","0.0-48.0","3DIP6YHAPDESN6181QGC3WXXCDQ8EB","A2BK9RMC0NOIH8","3TZDZ3Y0JSSRVQSC3SM97PDQ3Z7196","","","img/flower4.png","74","265.8999999910593","1","1","1","",""
"null","","html-keyboard-response","49","393452","0.0-49.0","3DIP6YHAPDESN6181QGC3WXXCDQ8EB","A2BK9RMC0NOIH8","3TZDZ3Y0JSSRVQSC3SM97PDQ3Z7196","","","<img src=""img/flower4.png"" style=""width:200px; border:14px solid green;"">","null","","","","","",""
"225.80000001192093","","image-keyboard-response","50","393679","0.0-50.0","3DIP6YHAPDESN6181QGC3WXXCDQ8EB","A2BK9RMC0NOIH8","3TZDZ3Y0JSSRVQSC3SM97PDQ3Z7196","","","img/flower6.png","74","226.29999999701977","1","1","3","",""
"null","","html-keyboard-response","51","393985","0.0-51.0","3DIP6YHAPDESN6181QGC3WXXCDQ8EB","A2BK9RMC0NOIH8","3TZDZ3Y0JSSRVQSC3SM97PDQ3Z7196","","","<img src=""img/flower6.png"" style=""width:200px; border:14px solid green;"">","null","","","","","",""
"244.6000000089407","","image-keyboard-response","52","394231","0.0-52.0","3DIP6YHAPDESN6181QGC3WXXCDQ8EB","A2BK9RMC0NOIH8","3TZDZ3Y0JSSRVQSC3SM97PDQ3Z7196","","","img/flower4.png","74","245.09999999403954","1","1","1","",""
"null","","html-keyboard-response","53","394546","0.0-53.0","3DIP6YHAPDESN6181QGC3WXXCDQ8EB","A2BK9RMC0NOIH8","3TZDZ3Y0JSSRVQSC3SM97PDQ3Z7196","","","<img src=""img/flower4.png"" style=""width:200px; border:14px solid green;"">","null","","","","","",""
"235.5","","image-keyboard-response","54","394783","0.0-54.0","3DIP6YHAPDESN6181QGC3WXXCDQ8EB","A2BK9RMC0NOIH8","3TZDZ3Y0JSSRVQSC3SM97PDQ3Z7196","","","img/flower6.png","74","236.29999999701977","1","0","3","",""
"null","","html-keyboard-response","55","395089","0.0-55.0","3DIP6YHAPDESN6181QGC3WXXCDQ8EB","A2BK9RMC0NOIH8","3TZDZ3Y0JSSRVQSC3SM97PDQ3Z7196","","","<img src=""img/flower6.png"" style=""width:200px;border:14px solid red;"">","null","","","","","",""
"325.3999999910593","","image-keyboard-response","56","395415","0.0-56.0","3DIP6YHAPDESN6181QGC3WXXCDQ8EB","A2BK9RMC0NOIH8","3TZDZ3Y0JSSRVQSC3SM97PDQ3Z7196","","","img/flower6.png","74","326","1","1","3","",""
"null","","html-keyboard-response","57","395718","0.0-57.0","3DIP6YHAPDESN6181QGC3WXXCDQ8EB","A2BK9RMC0NOIH8","3TZDZ3Y0JSSRVQSC3SM97PDQ3Z7196","","","<img src=""img/flower6.png"" style=""width:200px; border:14px solid green;"">","null","","","","","",""
"271.30000001192093","","image-keyboard-response","58","395991","0.0-58.0","3DIP6YHAPDESN6181QGC3WXXCDQ8EB","A2BK9RMC0NOIH8","3TZDZ3Y0JSSRVQSC3SM97PDQ3Z7196","","","img/flower5.png","74","272.09999999403954","1","0","2","",""
"null","","html-keyboard-response","59","396296","0.0-59.0","3DIP6YHAPDESN6181QGC3WXXCDQ8EB","A2BK9RMC0NOIH8","3TZDZ3Y0JSSRVQSC3SM97PDQ3Z7196","","","<img src=""img/flower5.png"" style=""width:200px;border:14px solid red;"">","null","","","","","",""
"270.3999999910593","","image-keyboard-response","60","396567","0.0-60.0","3DIP6YHAPDESN6181QGC3WXXCDQ8EB","A2BK9RMC0NOIH8","3TZDZ3Y0JSSRVQSC3SM97PDQ3Z7196","","","img/flower5.png","74","271","1","1","2","",""
"null","","html-keyboard-response","61","396873","0.0-61.0","3DIP6YHAPDESN6181QGC3WXXCDQ8EB","A2BK9RMC0NOIH8","3TZDZ3Y0JSSRVQSC3SM97PDQ3Z7196","","","<img src=""img/flower5.png"" style=""width:200px; border:14px solid green;"">","null","","","","","",""
"525.6000000089407","","image-keyboard-response","62","397399","0.0-62.0","3DIP6YHAPDESN6181QGC3WXXCDQ8EB","A2BK9RMC0NOIH8","3TZDZ3Y0JSSRVQSC3SM97PDQ3Z7196","","","img/flower4.png","74","526.2000000029802","1","1","1","",""
"null","","html-keyboard-response","63","397701","0.0-63.0","3DIP6YHAPDESN6181QGC3WXXCDQ8EB","A2BK9RMC0NOIH8","3TZDZ3Y0JSSRVQSC3SM97PDQ3Z7196","","","<img src=""img/flower4.png"" style=""width:200px; border:14px solid green;"">","null","","","","","",""
"9286.5","","instructions","64","406988","0.0-64.0","3DIP6YHAPDESN6181QGC3WXXCDQ8EB","A2BK9RMC0NOIH8","3TZDZ3Y0JSSRVQSC3SM97PDQ3Z7196","","[{""page_index"":0,""viewing_time"":7058.300000011921},{""page_index"":1,""viewing_time"":2228}]","","","","","","","",""
"442.5","","image-keyboard-response","65","407431","0.0-65.0","3DIP6YHAPDESN6181QGC3WXXCDQ8EB","A2BK9RMC0NOIH8","3TZDZ3Y0JSSRVQSC3SM97PDQ3Z7196","","","img/flower4.png","74","443","1","1","1","",""
"null","","html-keyboard-response","66","407735","0.0-66.0","3DIP6YHAPDESN6181QGC3WXXCDQ8EB","A2BK9RMC0NOIH8","3TZDZ3Y0JSSRVQSC3SM97PDQ3Z7196","","","<img src=""img/flower4.png"" style=""width:200px; border:14px solid green;"">","null","","","","","",""
"271.59999999403954","","image-keyboard-response","67","408007","0.0-67.0","3DIP6YHAPDESN6181QGC3WXXCDQ8EB","A2BK9RMC0NOIH8","3TZDZ3Y0JSSRVQSC3SM97PDQ3Z7196","","","img/flower5.png","74","271.8999999910593","1","0","2","",""
"null","","html-keyboard-response","68","408311","0.0-68.0","3DIP6YHAPDESN6181QGC3WXXCDQ8EB","A2BK9RMC0NOIH8","3TZDZ3Y0JSSRVQSC3SM97PDQ3Z7196","","","<img src=""img/flower5.png"" style=""width:200px;border:14px solid red;"">","null","","","","","",""
"470.79999999701977","","image-keyboard-response","69","408782","0.0-69.0","3DIP6YHAPDESN6181QGC3WXXCDQ8EB","A2BK9RMC0NOIH8","3TZDZ3Y0JSSRVQSC3SM97PDQ3Z7196","","","img/flower6.png","74","471.20000000298023","1","0","3","",""
"null","","html-keyboard-response","70","409093","0.0-70.0","3DIP6YHAPDESN6181QGC3WXXCDQ8EB","A2BK9RMC0NOIH8","3TZDZ3Y0JSSRVQSC3SM97PDQ3Z7196","","","<img src=""img/flower6.png"" style=""width:200px;border:14px solid red;"">","null","","","","","",""
"537.4000000059605","","image-keyboard-response","71","409631","0.0-71.0","3DIP6YHAPDESN6181QGC3WXXCDQ8EB","A2BK9RMC0NOIH8","3TZDZ3Y0JSSRVQSC3SM97PDQ3Z7196","","","img/flower4.png","76","537.5999999940395","3","0","1","",""
"null","","html-keyboard-response","72","409939","0.0-72.0","3DIP6YHAPDESN6181QGC3WXXCDQ8EB","A2BK9RMC0NOIH8","3TZDZ3Y0JSSRVQSC3SM97PDQ3Z7196","","","<img src=""img/flower4.png"" style=""width:200px;border:14px solid red;"">","null","","","","","",""
"298.6000000089407","","image-keyboard-response","73","410239","0.0-73.0","3DIP6YHAPDESN6181QGC3WXXCDQ8EB","A2BK9RMC0NOIH8","3TZDZ3Y0JSSRVQSC3SM97PDQ3Z7196","","","img/flower5.png","75","299.29999999701977","2","1","2","",""
"null","","html-keyboard-response","74","410545","0.0-74.0","3DIP6YHAPDESN6181QGC3WXXCDQ8EB","A2BK9RMC0NOIH8","3TZDZ3Y0JSSRVQSC3SM97PDQ3Z7196","","","<img src=""img/flower5.png"" style=""width:200px; border:14px solid green;"">","null","","","","","",""
"468.3999999910593","","image-keyboard-response","75","411015","0.0-75.0","3DIP6YHAPDESN6181QGC3WXXCDQ8EB","A2BK9RMC0NOIH8","3TZDZ3Y0JSSRVQSC3SM97PDQ3Z7196","","","img/flower6.png","74","469","1","1","3","",""
"null","","html-keyboard-response","76","411327","0.0-76.0","3DIP6YHAPDESN6181QGC3WXXCDQ8EB","A2BK9RMC0NOIH8","3TZDZ3Y0JSSRVQSC3SM97PDQ3Z7196","","","<img src=""img/flower6.png"" style=""width:200px; border:14px solid green;"">","null","","","","","",""
"503.40000000596046","","image-keyboard-response","77","411831","0.0-77.0","3DIP6YHAPDESN6181QGC3WXXCDQ8EB","A2BK9RMC0NOIH8","3TZDZ3Y0JSSRVQSC3SM97PDQ3Z7196","","","img/flower4.png","74","504","1","1","1","",""
"null","","html-keyboard-response","78","412136","0.0-78.0","3DIP6YHAPDESN6181QGC3WXXCDQ8EB","A2BK9RMC0NOIH8","3TZDZ3Y0JSSRVQSC3SM97PDQ3Z7196","","","<img src=""img/flower4.png"" style=""width:200px; border:14px solid green;"">","null","","","","","",""
"125.90000000596046","","image-keyboard-response","79","412263","0.0-79.0","3DIP6YHAPDESN6181QGC3WXXCDQ8EB","A2BK9RMC0NOIH8","3TZDZ3Y0JSSRVQSC3SM97PDQ3Z7196","","","img/flower5.png","75","126.40000000596046","2","0","2","",""
"null","","html-keyboard-response","80","412572","0.0-80.0","3DIP6YHAPDESN6181QGC3WXXCDQ8EB","A2BK9RMC0NOIH8","3TZDZ3Y0JSSRVQSC3SM97PDQ3Z7196","","","<img src=""img/flower5.png"" style=""width:200px;border:14px solid red;"">","null","","","","","",""
"290","","image-keyboard-response","81","412863","0.0-81.0","3DIP6YHAPDESN6181QGC3WXXCDQ8EB","A2BK9RMC0NOIH8","3TZDZ3Y0JSSRVQSC3SM97PDQ3Z7196","","","img/flower4.png","74","290.59999999403954","1","0","1","",""
"null","","html-keyboard-response","82","413166","0.0-82.0","3DIP6YHAPDESN6181QGC3WXXCDQ8EB","A2BK9RMC0NOIH8","3TZDZ3Y0JSSRVQSC3SM97PDQ3Z7196","","","<img src=""img/flower4.png"" style=""width:200px;border:14px solid red;"">","null","","","","","",""
"664.1000000089407","","image-keyboard-response","83","413831","0.0-83.0","3DIP6YHAPDESN6181QGC3WXXCDQ8EB","A2BK9RMC0NOIH8","3TZDZ3Y0JSSRVQSC3SM97PDQ3Z7196","","","img/flower6.png","76","664.5999999940395","3","1","3","",""
"null","","html-keyboard-response","84","414146","0.0-84.0","3DIP6YHAPDESN6181QGC3WXXCDQ8EB","A2BK9RMC0NOIH8","3TZDZ3Y0JSSRVQSC3SM97PDQ3Z7196","","","<img src=""img/flower6.png"" style=""width:200px; border:14px solid green;"">","null","","","","","",""
"403.70000000298023","","image-keyboard-response","85","414551","0.0-85.0","3DIP6YHAPDESN6181QGC3WXXCDQ8EB","A2BK9RMC0NOIH8","3TZDZ3Y0JSSRVQSC3SM97PDQ3Z7196","","","img/flower5.png","74","404.29999999701977","1","0","2","",""
"null","","html-keyboard-response","86","414864","0.0-86.0","3DIP6YHAPDESN6181QGC3WXXCDQ8EB","A2BK9RMC0NOIH8","3TZDZ3Y0JSSRVQSC3SM97PDQ3Z7196","","","<img src=""img/flower5.png"" style=""width:200px;border:14px solid red;"">","null","","","","","",""
"349.80000001192093","","image-keyboard-response","87","415215","0.0-87.0","3DIP6YHAPDESN6181QGC3WXXCDQ8EB","A2BK9RMC0NOIH8","3TZDZ3Y0JSSRVQSC3SM97PDQ3Z7196","","","img/flower5.png","75","350.29999999701977","2","1","2","",""
"null","","html-keyboard-response","88","415521","0.0-88.0","3DIP6YHAPDESN6181QGC3WXXCDQ8EB","A2BK9RMC0NOIH8","3TZDZ3Y0JSSRVQSC3SM97PDQ3Z7196","","","<img src=""img/flower5.png"" style=""width:200px; border:14px solid green;"">","null","","","","","",""
"676.5999999940395","","image-keyboard-response","89","416199","0.0-89.0","3DIP6YHAPDESN6181QGC3WXXCDQ8EB","A2BK9RMC0NOIH8","3TZDZ3Y0JSSRVQSC3SM97PDQ3Z7196","","","img/flower6.png","76","677.1000000089407","3","1","3","",""
"null","","html-keyboard-response","90","416505","0.0-90.0","3DIP6YHAPDESN6181QGC3WXXCDQ8EB","A2BK9RMC0NOIH8","3TZDZ3Y0JSSRVQSC3SM97PDQ3Z7196","","","<img src=""img/flower6.png"" style=""width:200px; border:14px solid green;"">","null","","","","","",""
"420.5","","image-keyboard-response","91","416926","0.0-91.0","3DIP6YHAPDESN6181QGC3WXXCDQ8EB","A2BK9RMC0NOIH8","3TZDZ3Y0JSSRVQSC3SM97PDQ3Z7196","","","img/flower6.png","74","421","1","1","3","",""
"null","","html-keyboard-response","92","417235","0.0-92.0","3DIP6YHAPDESN6181QGC3WXXCDQ8EB","A2BK9RMC0NOIH8","3TZDZ3Y0JSSRVQSC3SM97PDQ3Z7196","","","<img src=""img/flower6.png"" style=""width:200px; border:14px solid green;"">","null","","","","","",""
"546.8999999910593","","image-keyboard-response","93","417783","0.0-93.0","3DIP6YHAPDESN6181QGC3WXXCDQ8EB","A2BK9RMC0NOIH8","3TZDZ3Y0JSSRVQSC3SM97PDQ3Z7196","","","img/flower5.png","74","547.3000000119209","1","0","2","",""
"null","","html-keyboard-response","94","418096","0.0-94.0","3DIP6YHAPDESN6181QGC3WXXCDQ8EB","A2BK9RMC0NOIH8","3TZDZ3Y0JSSRVQSC3SM97PDQ3Z7196","","","<img src=""img/flower5.png"" style=""width:200px;border:14px solid red;"">","null","","","","","",""
"390.79999999701977","","image-keyboard-response","95","418487","0.0-95.0","3DIP6YHAPDESN6181QGC3WXXCDQ8EB","A2BK9RMC0NOIH8","3TZDZ3Y0JSSRVQSC3SM97PDQ3Z7196","","","img/flower4.png","75","391.29999999701977","2","1","1","",""
"null","","html-keyboard-response","96","418802","0.0-96.0","3DIP6YHAPDESN6181QGC3WXXCDQ8EB","A2BK9RMC0NOIH8","3TZDZ3Y0JSSRVQSC3SM97PDQ3Z7196","","","<img src=""img/flower4.png"" style=""width:200px; border:14px solid green;"">","null","","","","","",""
"428.20000000298023","","image-keyboard-response","97","419231","0.0-97.0","3DIP6YHAPDESN6181QGC3WXXCDQ8EB","A2BK9RMC0NOIH8","3TZDZ3Y0JSSRVQSC3SM97PDQ3Z7196","","","img/flower4.png","76","428.69999998807907","3","1","1","",""
"null","","html-keyboard-response","98","419538","0.0-98.0","3DIP6YHAPDESN6181QGC3WXXCDQ8EB","A2BK9RMC0NOIH8","3TZDZ3Y0JSSRVQSC3SM97PDQ3Z7196","","","<img src=""img/flower4.png"" style=""width:200px; border:14px solid green;"">","null","","","","","",""
"548.4000000059605","","image-keyboard-response","99","420087","0.0-99.0","3DIP6YHAPDESN6181QGC3WXXCDQ8EB","A2BK9RMC0NOIH8","3TZDZ3Y0JSSRVQSC3SM97PDQ3Z7196","","","img/flower4.png","75","548.9000000059605","2","1","1","",""
"null","","html-keyboard-response","100","420403","0.0-100.0","3DIP6YHAPDESN6181QGC3WXXCDQ8EB","A2BK9RMC0NOIH8","3TZDZ3Y0JSSRVQSC3SM97PDQ3Z7196","","","<img src=""img/flower4.png"" style=""width:200px; border:14px solid green;"">","null","","","","","",""
"699.2000000029802","","image-keyboard-response","101","421103","0.0-101.0","3DIP6YHAPDESN6181QGC3WXXCDQ8EB","A2BK9RMC0NOIH8","3TZDZ3Y0JSSRVQSC3SM97PDQ3Z7196","","","img/flower6.png","75","699.5999999940395","2","0","3","",""
"null","","html-keyboard-response","102","421415","0.0-102.0","3DIP6YHAPDESN6181QGC3WXXCDQ8EB","A2BK9RMC0NOIH8","3TZDZ3Y0JSSRVQSC3SM97PDQ3Z7196","","","<img src=""img/flower6.png"" style=""width:200px;border:14px solid red;"">","null","","","","","",""
"102.79999999701977","","image-keyboard-response","103","421519","0.0-103.0","3DIP6YHAPDESN6181QGC3WXXCDQ8EB","A2BK9RMC0NOIH8","3TZDZ3Y0JSSRVQSC3SM97PDQ3Z7196","","","img/flower4.png","74","103.40000000596046","1","1","1","",""
"null","","html-keyboard-response","104","421821","0.0-104.0","3DIP6YHAPDESN6181QGC3WXXCDQ8EB","A2BK9RMC0NOIH8","3TZDZ3Y0JSSRVQSC3SM97PDQ3Z7196","","","<img src=""img/flower4.png"" style=""width:200px; border:14px solid green;"">","null","","","","","",""
"576.7000000029802","","image-keyboard-response","105","422398","0.0-105.0","3DIP6YHAPDESN6181QGC3WXXCDQ8EB","A2BK9RMC0NOIH8","3TZDZ3Y0JSSRVQSC3SM97PDQ3Z7196","","","img/flower5.png","74","577","1","0","2","",""
"null","","html-keyboard-response","106","422715","0.0-106.0","3DIP6YHAPDESN6181QGC3WXXCDQ8EB","A2BK9RMC0NOIH8","3TZDZ3Y0JSSRVQSC3SM97PDQ3Z7196","","","<img src=""img/flower5.png"" style=""width:200px;border:14px solid red;"">","null","","","","","",""
"347.5","","image-keyboard-response","107","423063","0.0-107.0","3DIP6YHAPDESN6181QGC3WXXCDQ8EB","A2BK9RMC0NOIH8","3TZDZ3Y0JSSRVQSC3SM97PDQ3Z7196","","","img/flower5.png","75","348.1000000089407","2","1","2","",""
"null","","html-keyboard-response","108","423374","0.0-108.0","3DIP6YHAPDESN6181QGC3WXXCDQ8EB","A2BK9RMC0NOIH8","3TZDZ3Y0JSSRVQSC3SM97PDQ3Z7196","","","<img src=""img/flower5.png"" style=""width:200px; border:14px solid green;"">","null","","","","","",""
"568.0999999940395","","image-keyboard-response","109","423943","0.0-109.0","3DIP6YHAPDESN6181QGC3WXXCDQ8EB","A2BK9RMC0NOIH8","3TZDZ3Y0JSSRVQSC3SM97PDQ3Z7196","","","img/flower5.png","76","568.6000000089407","3","1","2","",""
"null","","html-keyboard-response","110","424248","0.0-110.0","3DIP6YHAPDESN6181QGC3WXXCDQ8EB","A2BK9RMC0NOIH8","3TZDZ3Y0JSSRVQSC3SM97PDQ3Z7196","","","<img src=""img/flower5.png"" style=""width:200px; border:14px solid green;"">","null","","","","","",""
"477.90000000596046","","image-keyboard-response","111","424727","0.0-111.0","3DIP6YHAPDESN6181QGC3WXXCDQ8EB","A2BK9RMC0NOIH8","3TZDZ3Y0JSSRVQSC3SM97PDQ3Z7196","","","img/flower5.png","75","478.3999999910593","2","1","2","",""
"null","","html-keyboard-response","112","425031","0.0-112.0","3DIP6YHAPDESN6181QGC3WXXCDQ8EB","A2BK9RMC0NOIH8","3TZDZ3Y0JSSRVQSC3SM97PDQ3Z7196","","","<img src=""img/flower5.png"" style=""width:200px; border:14px solid green;"">","null","","","","","",""
"438.8999999910593","","image-keyboard-response","113","425471","0.0-113.0","3DIP6YHAPDESN6181QGC3WXXCDQ8EB","A2BK9RMC0NOIH8","3TZDZ3Y0JSSRVQSC3SM97PDQ3Z7196","","","img/flower6.png","74","439.6000000089407","1","0","3","",""
"null","","html-keyboard-response","114","425781","0.0-114.0","3DIP6YHAPDESN6181QGC3WXXCDQ8EB","A2BK9RMC0NOIH8","3TZDZ3Y0JSSRVQSC3SM97PDQ3Z7196","","","<img src=""img/flower6.png"" style=""width:200px;border:14px solid red;"">","null","","","","","",""
"457.5","","image-keyboard-response","115","426239","0.0-115.0","3DIP6YHAPDESN6181QGC3WXXCDQ8EB","A2BK9RMC0NOIH8","3TZDZ3Y0JSSRVQSC3SM97PDQ3Z7196","","","img/flower6.png","74","457.79999999701977","1","1","3","",""
"null","","html-keyboard-response","116","426546","0.0-116.0","3DIP6YHAPDESN6181QGC3WXXCDQ8EB","A2BK9RMC0NOIH8","3TZDZ3Y0JSSRVQSC3SM97PDQ3Z7196","","","<img src=""img/flower6.png"" style=""width:200px; border:14px solid green;"">","null","","","","","",""
"468.40000000596046","","image-keyboard-response","117","427015","0.0-117.0","3DIP6YHAPDESN6181QGC3WXXCDQ8EB","A2BK9RMC0NOIH8","3TZDZ3Y0JSSRVQSC3SM97PDQ3Z7196","","","img/flower6.png","74","469","1","1","3","",""
"null","","html-keyboard-response","118","427326","0.0-118.0","3DIP6YHAPDESN6181QGC3WXXCDQ8EB","A2BK9RMC0NOIH8","3TZDZ3Y0JSSRVQSC3SM97PDQ3Z7196","","","<img src=""img/flower6.png"" style=""width:200px; border:14px solid green;"">","null","","","","","",""
"408.30000001192093","","image-keyboard-response","119","427735","0.0-119.0","3DIP6YHAPDESN6181QGC3WXXCDQ8EB","A2BK9RMC0NOIH8","3TZDZ3Y0JSSRVQSC3SM97PDQ3Z7196","","","img/flower6.png","74","408.79999999701977","1","0","3","",""
"null","","html-keyboard-response","120","428040","0.0-120.0","3DIP6YHAPDESN6181QGC3WXXCDQ8EB","A2BK9RMC0NOIH8","3TZDZ3Y0JSSRVQSC3SM97PDQ3Z7196","","","<img src=""img/flower6.png"" style=""width:200px;border:14px solid red;"">","null","","","","","",""
"926.2000000029802","","image-keyboard-response","121","428967","0.0-121.0","3DIP6YHAPDESN6181QGC3WXXCDQ8EB","A2BK9RMC0NOIH8","3TZDZ3Y0JSSRVQSC3SM97PDQ3Z7196","","","img/flower4.png","74","926.9000000059605","1","1","1","",""
"null","","html-keyboard-response","122","429277","0.0-122.0","3DIP6YHAPDESN6181QGC3WXXCDQ8EB","A2BK9RMC0NOIH8","3TZDZ3Y0JSSRVQSC3SM97PDQ3Z7196","","","<img src=""img/flower4.png"" style=""width:200px; border:14px solid green;"">","null","","","","","",""
"1081.2999999970198","","image-keyboard-response","123","430359","0.0-123.0","3DIP6YHAPDESN6181QGC3WXXCDQ8EB","A2BK9RMC0NOIH8","3TZDZ3Y0JSSRVQSC3SM97PDQ3Z7196","","","img/flower4.png","74","1082","1","1","1","",""
"null","","html-keyboard-response","124","430671","0.0-124.0","3DIP6YHAPDESN6181QGC3WXXCDQ8EB","A2BK9RMC0NOIH8","3TZDZ3Y0JSSRVQSC3SM97PDQ3Z7196","","","<img src=""img/flower4.png"" style=""width:200px; border:14px solid green;"">","null","","","","","",""
"5815.79999999702","","instructions","125","436486","0.0-125.0","3DIP6YHAPDESN6181QGC3WXXCDQ8EB","A2BK9RMC0NOIH8","3TZDZ3Y0JSSRVQSC3SM97PDQ3Z7196","","[{""page_index"":0,""viewing_time"":5815.5}]","","","","","","","",""
"937.0999999940395","","image-keyboard-response","126","437424","0.0-126.0","3DIP6YHAPDESN6181QGC3WXXCDQ8EB","A2BK9RMC0NOIH8","3TZDZ3Y0JSSRVQSC3SM97PDQ3Z7196","","","img/flower5.png","75","937.7999999970198","2","0","2","0.6,0.6,0,0,0.6,0.6,0.6,0,0.6",""
"null","","html-keyboard-response","127","437733","0.0-127.0","3DIP6YHAPDESN6181QGC3WXXCDQ8EB","A2BK9RMC0NOIH8","3TZDZ3Y0JSSRVQSC3SM97PDQ3Z7196","","","<img src=""img/flower5.png"" style=""width:200px;border:14px solid red;"">","null","","","","","",""
"520.9000000059605","","image-keyboard-response","128","438254","0.0-128.0","3DIP6YHAPDESN6181QGC3WXXCDQ8EB","A2BK9RMC0NOIH8","3TZDZ3Y0JSSRVQSC3SM97PDQ3Z7196","","","img/flower5.png","74","521.3999999910593","1","0","2","0.6,0.6,0,0,0.6,0.6,0.6,0,0.6",""
"null","","html-keyboard-response","129","438565","0.0-129.0","3DIP6YHAPDESN6181QGC3WXXCDQ8EB","A2BK9RMC0NOIH8","3TZDZ3Y0JSSRVQSC3SM97PDQ3Z7196","","","<img src=""img/flower5.png"" style=""width:200px;border:14px solid red;"">","null","","","","","",""
"681.7999999970198","","image-keyboard-response","130","439247","0.0-130.0","3DIP6YHAPDESN6181QGC3WXXCDQ8EB","A2BK9RMC0NOIH8","3TZDZ3Y0JSSRVQSC3SM97PDQ3Z7196","","","img/flower2.png","76","682.4000000059605","3","1","3","0.6,0.6,0,0,0.6,0.6,0.6,0,0.6",""
"null","","html-keyboard-response","131","439552","0.0-131.0","3DIP6YHAPDESN6181QGC3WXXCDQ8EB","A2BK9RMC0NOIH8","3TZDZ3Y0JSSRVQSC3SM97PDQ3Z7196","","","<img src=""img/flower2.png"" style=""width:200px; border:14px solid green;"">","null","","","","","",""
"412.8999999910593","","image-keyboard-response","132","439966","0.0-132.0","3DIP6YHAPDESN6181QGC3WXXCDQ8EB","A2BK9RMC0NOIH8","3TZDZ3Y0JSSRVQSC3SM97PDQ3Z7196","","","img/flower5.png","75","413.40000000596046","2","1","2","0.6,0.6,0,0,0.6,0.6,0.6,0,0.6",""
"null","","html-keyboard-response","133","440268","0.0-133.0","3DIP6YHAPDESN6181QGC3WXXCDQ8EB","A2BK9RMC0NOIH8","3TZDZ3Y0JSSRVQSC3SM97PDQ3Z7196","","","<img src=""img/flower5.png"" style=""width:200px; border:14px solid green;"">","null","","","","","",""
"345.1000000089407","","image-keyboard-response","134","440614","0.0-134.0","3DIP6YHAPDESN6181QGC3WXXCDQ8EB","A2BK9RMC0NOIH8","3TZDZ3Y0JSSRVQSC3SM97PDQ3Z7196","","","img/flower2.png","74","345.40000000596046","1","1","3","0.6,0.6,0,0,0.6,0.6,0.6,0,0.6",""
"null","","html-keyboard-response","135","440922","0.0-135.0","3DIP6YHAPDESN6181QGC3WXXCDQ8EB","A2BK9RMC0NOIH8","3TZDZ3Y0JSSRVQSC3SM97PDQ3Z7196","","","<img src=""img/flower2.png"" style=""width:200px; border:14px solid green;"">","null","","","","","",""
"451.30000001192093","","image-keyboard-response","136","441374","0.0-136.0","3DIP6YHAPDESN6181QGC3WXXCDQ8EB","A2BK9RMC0NOIH8","3TZDZ3Y0JSSRVQSC3SM97PDQ3Z7196","","","img/flower6.png","75","451.79999999701977","2","1","1","0.6,0.6,0,0,0.6,0.6,0.6,0,0.6",""
"null","","html-keyboard-response","137","441684","0.0-137.0","3DIP6YHAPDESN6181QGC3WXXCDQ8EB","A2BK9RMC0NOIH8","3TZDZ3Y0JSSRVQSC3SM97PDQ3Z7196","","","<img src=""img/flower6.png"" style=""width:200px; border:14px solid green;"">","null","","","","","",""
"250.09999999403954","","image-keyboard-response","138","441935","0.0-138.0","3DIP6YHAPDESN6181QGC3WXXCDQ8EB","A2BK9RMC0NOIH8","3TZDZ3Y0JSSRVQSC3SM97PDQ3Z7196","","","img/flower6.png","76","250.79999999701977","3","0","1","0.6,0.6,0,0,0.6,0.6,0.6,0,0.6",""
"null","","html-keyboard-response","139","442249","0.0-139.0","3DIP6YHAPDESN6181QGC3WXXCDQ8EB","A2BK9RMC0NOIH8","3TZDZ3Y0JSSRVQSC3SM97PDQ3Z7196","","","<img src=""img/flower6.png"" style=""width:200px;border:14px solid red;"">","null","","","","","",""
"308.30000001192093","","image-keyboard-response","140","442558","0.0-140.0","3DIP6YHAPDESN6181QGC3WXXCDQ8EB","A2BK9RMC0NOIH8","3TZDZ3Y0JSSRVQSC3SM97PDQ3Z7196","","","img/flower2.png","75","308.8999999910593","2","0","3","0.6,0.6,0,0,0.6,0.6,0.6,0,0.6",""
"null","","html-keyboard-response","141","442872","0.0-141.0","3DIP6YHAPDESN6181QGC3WXXCDQ8EB","A2BK9RMC0NOIH8","3TZDZ3Y0JSSRVQSC3SM97PDQ3Z7196","","","<img src=""img/flower2.png"" style=""width:200px;border:14px solid red;"">","null","","","","","",""
"77.1000000089407","","image-keyboard-response","142","442950","0.0-142.0","3DIP6YHAPDESN6181QGC3WXXCDQ8EB","A2BK9RMC0NOIH8","3TZDZ3Y0JSSRVQSC3SM97PDQ3Z7196","","","img/flower6.png","74","77.5","1","1","1","0.6,0.6,0,0,0.6,0.6,0.6,0,0.6",""
"null","","html-keyboard-response","143","443261","0.0-143.0","3DIP6YHAPDESN6181QGC3WXXCDQ8EB","A2BK9RMC0NOIH8","3TZDZ3Y0JSSRVQSC3SM97PDQ3Z7196","","","<img src=""img/flower6.png"" style=""width:200px; border:14px solid green;"">","null","","","","","",""
"504.20000000298023","","image-keyboard-response","144","443766","0.0-144.0","3DIP6YHAPDESN6181QGC3WXXCDQ8EB","A2BK9RMC0NOIH8","3TZDZ3Y0JSSRVQSC3SM97PDQ3Z7196","","","img/flower2.png","75","504.70000000298023","2","0","3","0.6,0.6,0,0,0.6,0.6,0.6,0,0.6",""
"null","","html-keyboard-response","145","444078","0.0-145.0","3DIP6YHAPDESN6181QGC3WXXCDQ8EB","A2BK9RMC0NOIH8","3TZDZ3Y0JSSRVQSC3SM97PDQ3Z7196","","","<img src=""img/flower2.png"" style=""width:200px;border:14px solid red;"">","null","","","","","",""
"240","","image-keyboard-response","146","444318","0.0-146.0","3DIP6YHAPDESN6181QGC3WXXCDQ8EB","A2BK9RMC0NOIH8","3TZDZ3Y0JSSRVQSC3SM97PDQ3Z7196","","","img/flower5.png","76","240.5","3","0","2","0.6,0.6,0,0,0.6,0.6,0.6,0,0.6",""
"null","","html-keyboard-response","147","444622","0.0-147.0","3DIP6YHAPDESN6181QGC3WXXCDQ8EB","A2BK9RMC0NOIH8","3TZDZ3Y0JSSRVQSC3SM97PDQ3Z7196","","","<img src=""img/flower5.png"" style=""width:200px;border:14px solid red;"">","null","","","","","",""
"239.20000000298023","","image-keyboard-response","148","444862","0.0-148.0","3DIP6YHAPDESN6181QGC3WXXCDQ8EB","A2BK9RMC0NOIH8","3TZDZ3Y0JSSRVQSC3SM97PDQ3Z7196","","","img/flower2.png","74","239.69999998807907","1","1","3","0.6,0.6,0,0,0.6,0.6,0.6,0,0.6",""
"null","","html-keyboard-response","149","445169","0.0-149.0","3DIP6YHAPDESN6181QGC3WXXCDQ8EB","A2BK9RMC0NOIH8","3TZDZ3Y0JSSRVQSC3SM97PDQ3Z7196","","","<img src=""img/flower2.png"" style=""width:200px; border:14px solid green;"">","null","","","","","",""
"108.20000000298023","","image-keyboard-response","150","445278","0.0-150.0","3DIP6YHAPDESN6181QGC3WXXCDQ8EB","A2BK9RMC0NOIH8","3TZDZ3Y0JSSRVQSC3SM97PDQ3Z7196","","","img/flower6.png","74","108.79999999701977","1","1","1","0.6,0.6,0,0,0.6,0.6,0.6,0,0.6",""
"null","","html-keyboard-response","151","445591","0.0-151.0","3DIP6YHAPDESN6181QGC3WXXCDQ8EB","A2BK9RMC0NOIH8","3TZDZ3Y0JSSRVQSC3SM97PDQ3Z7196","","","<img src=""img/flower6.png"" style=""width:200px; border:14px solid green;"">","null","","","","","",""
"143.09999999403954","","image-keyboard-response","152","445734","0.0-152.0","3DIP6YHAPDESN6181QGC3WXXCDQ8EB","A2BK9RMC0NOIH8","3TZDZ3Y0JSSRVQSC3SM97PDQ3Z7196","","","img/flower2.png","75","143.79999999701977","2","0","3","0.6,0.6,0,0,0.6,0.6,0.6,0,0.6",""
"null","","html-keyboard-response","153","446044","0.0-153.0","3DIP6YHAPDESN6181QGC3WXXCDQ8EB","A2BK9RMC0NOIH8","3TZDZ3Y0JSSRVQSC3SM97PDQ3Z7196","","","<img src=""img/flower2.png"" style=""width:200px;border:14px solid red;"">","null","","","","","",""
"201.79999999701977","","image-keyboard-response","154","446246","0.0-154.0","3DIP6YHAPDESN6181QGC3WXXCDQ8EB","A2BK9RMC0NOIH8","3TZDZ3Y0JSSRVQSC3SM97PDQ3Z7196","","","img/flower6.png","76","202.20000000298023","3","0","1","0.6,0.6,0,0,0.6,0.6,0.6,0,0.6",""
"null","","html-keyboard-response","155","446557","0.0-155.0","3DIP6YHAPDESN6181QGC3WXXCDQ8EB","A2BK9RMC0NOIH8","3TZDZ3Y0JSSRVQSC3SM97PDQ3Z7196","","","<img src=""img/flower6.png"" style=""width:200px;border:14px solid red;"">","null","","","","","",""
"216.90000000596046","","image-keyboard-response","156","446774","0.0-156.0","3DIP6YHAPDESN6181QGC3WXXCDQ8EB","A2BK9RMC0NOIH8","3TZDZ3Y0JSSRVQSC3SM97PDQ3Z7196","","","img/flower5.png","75","217.29999999701977","2","0","2","0.6,0.6,0,0,0.6,0.6,0.6,0,0.6",""
"null","","html-keyboard-response","157","447085","0.0-157.0","3DIP6YHAPDESN6181QGC3WXXCDQ8EB","A2BK9RMC0NOIH8","3TZDZ3Y0JSSRVQSC3SM97PDQ3Z7196","","","<img src=""img/flower5.png"" style=""width:200px;border:14px solid red;"">","null","","","","","",""
"48.400000005960464","","image-keyboard-response","158","447134","0.0-158.0","3DIP6YHAPDESN6181QGC3WXXCDQ8EB","A2BK9RMC0NOIH8","3TZDZ3Y0JSSRVQSC3SM97PDQ3Z7196","","","img/flower5.png","74","48.8999999910593","1","0","2","0.6,0.6,0,0,0.6,0.6,0.6,0,0.6",""
"null","","html-keyboard-response","159","447445","0.0-159.0","3DIP6YHAPDESN6181QGC3WXXCDQ8EB","A2BK9RMC0NOIH8","3TZDZ3Y0JSSRVQSC3SM97PDQ3Z7196","","","<img src=""img/flower5.png"" style=""width:200px;border:14px solid red;"">","null","","","","","",""
"360.70000000298023","","image-keyboard-response","160","447806","0.0-160.0","3DIP6YHAPDESN6181QGC3WXXCDQ8EB","A2BK9RMC0NOIH8","3TZDZ3Y0JSSRVQSC3SM97PDQ3Z7196","","","img/flower6.png","74","361.19999998807907","1","1","1","0.6,0.6,0,0,0.6,0.6,0.6,0,0.6",""
"null","","html-keyboard-response","161","448115","0.0-161.0","3DIP6YHAPDESN6181QGC3WXXCDQ8EB","A2BK9RMC0NOIH8","3TZDZ3Y0JSSRVQSC3SM97PDQ3Z7196","","","<img src=""img/flower6.png"" style=""width:200px; border:14px solid green;"">","null","","","","","",""
"562.9000000059605","","image-keyboard-response","162","448678","0.0-162.0","3DIP6YHAPDESN6181QGC3WXXCDQ8EB","A2BK9RMC0NOIH8","3TZDZ3Y0JSSRVQSC3SM97PDQ3Z7196","","","img/flower6.png","76","563.3999999910593","3","0","1","0.6,0.6,0,0,0.6,0.6,0.6,0,0.6",""
"null","","html-keyboard-response","163","448988","0.0-163.0","3DIP6YHAPDESN6181QGC3WXXCDQ8EB","A2BK9RMC0NOIH8","3TZDZ3Y0JSSRVQSC3SM97PDQ3Z7196","","","<img src=""img/flower6.png"" style=""width:200px;border:14px solid red;"">","null","","","","","",""
"193.79999999701977","","image-keyboard-response","164","449182","0.0-164.0","3DIP6YHAPDESN6181QGC3WXXCDQ8EB","A2BK9RMC0NOIH8","3TZDZ3Y0JSSRVQSC3SM97PDQ3Z7196","","","img/flower2.png","75","194.20000000298023","2","0","3","0.6,0.6,0,0,0.6,0.6,0.6,0,0.6",""
"null","","html-keyboard-response","165","449483","0.0-165.0","3DIP6YHAPDESN6181QGC3WXXCDQ8EB","A2BK9RMC0NOIH8","3TZDZ3Y0JSSRVQSC3SM97PDQ3Z7196","","","<img src=""img/flower2.png"" style=""width:200px;border:14px solid red;"">","null","","","","","",""
"203","","image-keyboard-response","166","449687","0.0-166.0","3DIP6YHAPDESN6181QGC3WXXCDQ8EB","A2BK9RMC0NOIH8","3TZDZ3Y0JSSRVQSC3SM97PDQ3Z7196","","","img/flower5.png","74","203.6000000089407","1","0","2","0.6,0.6,0,0,0.6,0.6,0.6,0,0.6",""
"null","","html-keyboard-response","167","449999","0.0-167.0","3DIP6YHAPDESN6181QGC3WXXCDQ8EB","A2BK9RMC0NOIH8","3TZDZ3Y0JSSRVQSC3SM97PDQ3Z7196","","","<img src=""img/flower5.png"" style=""width:200px;border:14px solid red;"">","null","","","","","",""
"439","","image-keyboard-response","168","450438","0.0-168.0","3DIP6YHAPDESN6181QGC3WXXCDQ8EB","A2BK9RMC0NOIH8","3TZDZ3Y0JSSRVQSC3SM97PDQ3Z7196","","","img/flower6.png","75","439.5","2","1","1","0.6,0.6,0,0,0.6,0.6,0.6,0,0.6",""
"null","","html-keyboard-response","169","450741","0.0-169.0","3DIP6YHAPDESN6181QGC3WXXCDQ8EB","A2BK9RMC0NOIH8","3TZDZ3Y0JSSRVQSC3SM97PDQ3Z7196","","","<img src=""img/flower6.png"" style=""width:200px; border:14px solid green;"">","null","","","","","",""
"313","","image-keyboard-response","170","451054","0.0-170.0","3DIP6YHAPDESN6181QGC3WXXCDQ8EB","A2BK9RMC0NOIH8","3TZDZ3Y0JSSRVQSC3SM97PDQ3Z7196","","","img/flower6.png","76","313.6000000089407","3","0","1","0.6,0.6,0,0,0.6,0.6,0.6,0,0.6",""
"null","","html-keyboard-response","171","451370","0.0-171.0","3DIP6YHAPDESN6181QGC3WXXCDQ8EB","A2BK9RMC0NOIH8","3TZDZ3Y0JSSRVQSC3SM97PDQ3Z7196","","","<img src=""img/flower6.png"" style=""width:200px;border:14px solid red;"">","null","","","","","",""
"211.59999999403954","","image-keyboard-response","172","451582","0.0-172.0","3DIP6YHAPDESN6181QGC3WXXCDQ8EB","A2BK9RMC0NOIH8","3TZDZ3Y0JSSRVQSC3SM97PDQ3Z7196","","","img/flower6.png","75","212","2","1","1","0.6,0.6,0,0,0.6,0.6,0.6,0,0.6",""
"null","","html-keyboard-response","173","451898","0.0-173.0","3DIP6YHAPDESN6181QGC3WXXCDQ8EB","A2BK9RMC0NOIH8","3TZDZ3Y0JSSRVQSC3SM97PDQ3Z7196","","","<img src=""img/flower6.png"" style=""width:200px; border:14px solid green;"">","null","","","","","",""
"83","","image-keyboard-response","174","451982","0.0-174.0","3DIP6YHAPDESN6181QGC3WXXCDQ8EB","A2BK9RMC0NOIH8","3TZDZ3Y0JSSRVQSC3SM97PDQ3Z7196","","","img/flower2.png","74","83.3999999910593","1","1","3","0.6,0.6,0,0,0.6,0.6,0.6,0,0.6",""
"null","","html-keyboard-response","175","452289","0.0-175.0","3DIP6YHAPDESN6181QGC3WXXCDQ8EB","A2BK9RMC0NOIH8","3TZDZ3Y0JSSRVQSC3SM97PDQ3Z7196","","","<img src=""img/flower2.png"" style=""width:200px; border:14px solid green;"">","null","","","","","",""
"261","","image-keyboard-response","176","452550","0.0-176.0","3DIP6YHAPDESN6181QGC3WXXCDQ8EB","A2BK9RMC0NOIH8","3TZDZ3Y0JSSRVQSC3SM97PDQ3Z7196","","","img/flower2.png","74","261.40000000596046","1","0","3","0.6,0.6,0,0,0.6,0.6,0.6,0,0.6",""
"null","","html-keyboard-response","177","452853","0.0-177.0","3DIP6YHAPDESN6181QGC3WXXCDQ8EB","A2BK9RMC0NOIH8","3TZDZ3Y0JSSRVQSC3SM97PDQ3Z7196","","","<img src=""img/flower2.png"" style=""width:200px;border:14px solid red;"">","null","","","","","",""
"88.80000001192093","","image-keyboard-response","178","452942","0.0-178.0","3DIP6YHAPDESN6181QGC3WXXCDQ8EB","A2BK9RMC0NOIH8","3TZDZ3Y0JSSRVQSC3SM97PDQ3Z7196","","","img/flower5.png","75","89.40000000596046","2","0","2","0.6,0.6,0,0,0.6,0.6,0.6,0,0.6",""
"null","","html-keyboard-response","179","453246","0.0-179.0","3DIP6YHAPDESN6181QGC3WXXCDQ8EB","A2BK9RMC0NOIH8","3TZDZ3Y0JSSRVQSC3SM97PDQ3Z7196","","","<img src=""img/flower5.png"" style=""width:200px;border:14px solid red;"">","null","","","","","",""
"191.59999999403954","","image-keyboard-response","180","453438","0.0-180.0","3DIP6YHAPDESN6181QGC3WXXCDQ8EB","A2BK9RMC0NOIH8","3TZDZ3Y0JSSRVQSC3SM97PDQ3Z7196","","","img/flower5.png","76","192","3","1","2","0.6,0.6,0,0,0.6,0.6,0.6,0,0.6",""
"null","","html-keyboard-response","181","453751","0.0-181.0","3DIP6YHAPDESN6181QGC3WXXCDQ8EB","A2BK9RMC0NOIH8","3TZDZ3Y0JSSRVQSC3SM97PDQ3Z7196","","","<img src=""img/flower5.png"" style=""width:200px; border:14px solid green;"">","null","","","","","",""
"421.70000000298023","","image-keyboard-response","182","454174","0.0-182.0","3DIP6YHAPDESN6181QGC3WXXCDQ8EB","A2BK9RMC0NOIH8","3TZDZ3Y0JSSRVQSC3SM97PDQ3Z7196","","","img/flower6.png","76","422.8999999910593","3","0","1","0.6,0.6,0,0,0.6,0.6,0.6,0,0.6",""
"null","","html-keyboard-response","183","454484","0.0-183.0","3DIP6YHAPDESN6181QGC3WXXCDQ8EB","A2BK9RMC0NOIH8","3TZDZ3Y0JSSRVQSC3SM97PDQ3Z7196","","","<img src=""img/flower6.png"" style=""width:200px;border:14px solid red;"">","null","","","","","",""
"145.30000001192093","","image-keyboard-response","184","454630","0.0-184.0","3DIP6YHAPDESN6181QGC3WXXCDQ8EB","A2BK9RMC0NOIH8","3TZDZ3Y0JSSRVQSC3SM97PDQ3Z7196","","","img/flower5.png","76","145.70000000298023","3","1","2","0.6,0.6,0,0,0.6,0.6,0.6,0,0.6",""
"null","","html-keyboard-response","185","454939","0.0-185.0","3DIP6YHAPDESN6181QGC3WXXCDQ8EB","A2BK9RMC0NOIH8","3TZDZ3Y0JSSRVQSC3SM97PDQ3Z7196","","","<img src=""img/flower5.png"" style=""width:200px; border:14px solid green;"">","null","","","","","",""
"194.70000000298023","","image-keyboard-response","186","455134","0.0-186.0","3DIP6YHAPDESN6181QGC3WXXCDQ8EB","A2BK9RMC0NOIH8","3TZDZ3Y0JSSRVQSC3SM97PDQ3Z7196","","","img/flower5.png","75","195.09999999403954","2","1","2","0.6,0.6,0,0,0.6,0.6,0.6,0,0.6",""
"null","","html-keyboard-response","187","455449","0.0-187.0","3DIP6YHAPDESN6181QGC3WXXCDQ8EB","A2BK9RMC0NOIH8","3TZDZ3Y0JSSRVQSC3SM97PDQ3Z7196","","","<img src=""img/flower5.png"" style=""width:200px; border:14px solid green;"">","null","","","","","",""
"180.80000001192093","","image-keyboard-response","188","455630","0.0-188.0","3DIP6YHAPDESN6181QGC3WXXCDQ8EB","A2BK9RMC0NOIH8","3TZDZ3Y0JSSRVQSC3SM97PDQ3Z7196","","","img/flower6.png","75","181.20000000298023","2","1","1","0.6,0.6,0,0,0.6,0.6,0.6,0,0.6",""
"null","","html-keyboard-response","189","455932","0.0-189.0","3DIP6YHAPDESN6181QGC3WXXCDQ8EB","A2BK9RMC0NOIH8","3TZDZ3Y0JSSRVQSC3SM97PDQ3Z7196","","","<img src=""img/flower6.png"" style=""width:200px; border:14px solid green;"">","null","","","","","",""
"41.400000005960464","","image-keyboard-response","190","455974","0.0-190.0","3DIP6YHAPDESN6181QGC3WXXCDQ8EB","A2BK9RMC0NOIH8","3TZDZ3Y0JSSRVQSC3SM97PDQ3Z7196","","","img/flower2.png","75","41.79999999701977","2","0","3","0.6,0.6,0,0,0.6,0.6,0.6,0,0.6",""
"null","","html-keyboard-response","191","456289","0.0-191.0","3DIP6YHAPDESN6181QGC3WXXCDQ8EB","A2BK9RMC0NOIH8","3TZDZ3Y0JSSRVQSC3SM97PDQ3Z7196","","","<img src=""img/flower2.png"" style=""width:200px;border:14px solid red;"">","null","","","","","",""
"21","","image-keyboard-response","192","456310","0.0-192.0","3DIP6YHAPDESN6181QGC3WXXCDQ8EB","A2BK9RMC0NOIH8","3TZDZ3Y0JSSRVQSC3SM97PDQ3Z7196","","","img/flower5.png","75","21.600000008940697","2","0","2","0.6,0.6,0,0,0.6,0.6,0.6,0,0.6",""
"null","","html-keyboard-response","193","456614","0.0-193.0","3DIP6YHAPDESN6181QGC3WXXCDQ8EB","A2BK9RMC0NOIH8","3TZDZ3Y0JSSRVQSC3SM97PDQ3Z7196","","","<img src=""img/flower5.png"" style=""width:200px;border:14px solid red;"">","null","","","","","",""
"231.5","","image-keyboard-response","194","456846","0.0-194.0","3DIP6YHAPDESN6181QGC3WXXCDQ8EB","A2BK9RMC0NOIH8","3TZDZ3Y0JSSRVQSC3SM97PDQ3Z7196","","","img/flower6.png","74","232","1","0","1","0.6,0.6,0,0,0.6,0.6,0.6,0,0.6",""
"null","","html-keyboard-response","195","457148","0.0-195.0","3DIP6YHAPDESN6181QGC3WXXCDQ8EB","A2BK9RMC0NOIH8","3TZDZ3Y0JSSRVQSC3SM97PDQ3Z7196","","","<img src=""img/flower6.png"" style=""width:200px;border:14px solid red;"">","null","","","","","",""
"481.40000000596046","","image-keyboard-response","196","457630","0.0-196.0","3DIP6YHAPDESN6181QGC3WXXCDQ8EB","A2BK9RMC0NOIH8","3TZDZ3Y0JSSRVQSC3SM97PDQ3Z7196","","","img/flower6.png","75","481.79999999701977","2","1","1","0.6,0.6,0,0,0.6,0.6,0.6,0,0.6",""
"null","","html-keyboard-response","197","457943","0.0-197.0","3DIP6YHAPDESN6181QGC3WXXCDQ8EB","A2BK9RMC0NOIH8","3TZDZ3Y0JSSRVQSC3SM97PDQ3Z7196","","","<img src=""img/flower6.png"" style=""width:200px; border:14px solid green;"">","null","","","","","",""
"30.700000002980232","","image-keyboard-response","198","457974","0.0-198.0","3DIP6YHAPDESN6181QGC3WXXCDQ8EB","A2BK9RMC0NOIH8","3TZDZ3Y0JSSRVQSC3SM97PDQ3Z7196","","","img/flower2.png","74","31.200000002980232","1","1","3","0.6,0.6,0,0,0.6,0.6,0.6,0,0.6",""
"null","","html-keyboard-response","199","458287","0.0-199.0","3DIP6YHAPDESN6181QGC3WXXCDQ8EB","A2BK9RMC0NOIH8","3TZDZ3Y0JSSRVQSC3SM97PDQ3Z7196","","","<img src=""img/flower2.png"" style=""width:200px; border:14px solid green;"">","null","","","","","",""
"471","","image-keyboard-response","200","458758","0.0-200.0","3DIP6YHAPDESN6181QGC3WXXCDQ8EB","A2BK9RMC0NOIH8","3TZDZ3Y0JSSRVQSC3SM97PDQ3Z7196","","","img/flower6.png","74","471.5","1","1","1","0.6,0.6,0,0,0.6,0.6,0.6,0,0.6",""
"null","","html-keyboard-response","201","459069","0.0-201.0","3DIP6YHAPDESN6181QGC3WXXCDQ8EB","A2BK9RMC0NOIH8","3TZDZ3Y0JSSRVQSC3SM97PDQ3Z7196","","","<img src=""img/flower6.png"" style=""width:200px; border:14px solid green;"">","null","","","","","",""
"1529.2999999970198","","image-keyboard-response","202","460599","0.0-202.0","3DIP6YHAPDESN6181QGC3WXXCDQ8EB","A2BK9RMC0NOIH8","3TZDZ3Y0JSSRVQSC3SM97PDQ3Z7196","","","img/flower6.png","76","1529.8999999910593","3","0","1","0.6,0.6,0,0,0.6,0.6,0.6,0,0.6",""
"null","","html-keyboard-response","203","460915","0.0-203.0","3DIP6YHAPDESN6181QGC3WXXCDQ8EB","A2BK9RMC0NOIH8","3TZDZ3Y0JSSRVQSC3SM97PDQ3Z7196","","","<img src=""img/flower6.png"" style=""width:200px;border:14px solid red;"">","null","","","","","",""
"634.5","","image-keyboard-response","204","461550","0.0-204.0","3DIP6YHAPDESN6181QGC3WXXCDQ8EB","A2BK9RMC0NOIH8","3TZDZ3Y0JSSRVQSC3SM97PDQ3Z7196","","","img/flower2.png","74","635","1","1","3","0.6,0.6,0,0,0.6,0.6,0.6,0,0.6",""
"null","","html-keyboard-response","205","461865","0.0-205.0","3DIP6YHAPDESN6181QGC3WXXCDQ8EB","A2BK9RMC0NOIH8","3TZDZ3Y0JSSRVQSC3SM97PDQ3Z7196","","","<img src=""img/flower2.png"" style=""width:200px; border:14px solid green;"">","null","","","","","",""
"180.79999999701977","","image-keyboard-response","206","462046","0.0-206.0","3DIP6YHAPDESN6181QGC3WXXCDQ8EB","A2BK9RMC0NOIH8","3TZDZ3Y0JSSRVQSC3SM97PDQ3Z7196","","","img/flower5.png","74","181.20000000298023","1","0","2","0.6,0.6,0,0,0.6,0.6,0.6,0,0.6",""
"null","","html-keyboard-response","207","462351","0.0-207.0","3DIP6YHAPDESN6181QGC3WXXCDQ8EB","A2BK9RMC0NOIH8","3TZDZ3Y0JSSRVQSC3SM97PDQ3Z7196","","","<img src=""img/flower5.png"" style=""width:200px;border:14px solid red;"">","null","","","","","",""
"279","","image-keyboard-response","208","462631","0.0-208.0","3DIP6YHAPDESN6181QGC3WXXCDQ8EB","A2BK9RMC0NOIH8","3TZDZ3Y0JSSRVQSC3SM97PDQ3Z7196","","","img/flower2.png","75","279.59999999403954","2","0","3","0.6,0.6,0,0,0.6,0.6,0.6,0,0.6",""
"null","","html-keyboard-response","209","462934","0.0-209.0","3DIP6YHAPDESN6181QGC3WXXCDQ8EB","A2BK9RMC0NOIH8","3TZDZ3Y0JSSRVQSC3SM97PDQ3Z7196","","","<img src=""img/flower2.png"" style=""width:200px;border:14px solid red;"">","null","","","","","",""
"295.29999999701977","","image-keyboard-response","210","463230","0.0-210.0","3DIP6YHAPDESN6181QGC3WXXCDQ8EB","A2BK9RMC0NOIH8","3TZDZ3Y0JSSRVQSC3SM97PDQ3Z7196","","","img/flower5.png","76","295.79999999701977","3","0","2","0.6,0.6,0,0,0.6,0.6,0.6,0,0.6",""
"null","","html-keyboard-response","211","463543","0.0-211.0","3DIP6YHAPDESN6181QGC3WXXCDQ8EB","A2BK9RMC0NOIH8","3TZDZ3Y0JSSRVQSC3SM97PDQ3Z7196","","","<img src=""img/flower5.png"" style=""width:200px;border:14px solid red;"">","null","","","","","",""
"534.7000000029802","","image-keyboard-response","212","464078","0.0-212.0","3DIP6YHAPDESN6181QGC3WXXCDQ8EB","A2BK9RMC0NOIH8","3TZDZ3Y0JSSRVQSC3SM97PDQ3Z7196","","","img/flower6.png","74","535.2999999970198","1","0","1","0.6,0.6,0,0,0.6,0.6,0.6,0,0.6",""
"null","","html-keyboard-response","213","464391","0.0-213.0","3DIP6YHAPDESN6181QGC3WXXCDQ8EB","A2BK9RMC0NOIH8","3TZDZ3Y0JSSRVQSC3SM97PDQ3Z7196","","","<img src=""img/flower6.png"" style=""width:200px;border:14px solid red;"">","null","","","","","",""
"78.3999999910593","","image-keyboard-response","214","464470","0.0-214.0","3DIP6YHAPDESN6181QGC3WXXCDQ8EB","A2BK9RMC0NOIH8","3TZDZ3Y0JSSRVQSC3SM97PDQ3Z7196","","","img/flower2.png","75","78.8999999910593","2","0","3","0.6,0.6,0,0,0.6,0.6,0.6,0,0.6",""
"null","","html-keyboard-response","215","464782","0.0-215.0","3DIP6YHAPDESN6181QGC3WXXCDQ8EB","A2BK9RMC0NOIH8","3TZDZ3Y0JSSRVQSC3SM97PDQ3Z7196","","","<img src=""img/flower2.png"" style=""width:200px;border:14px solid red;"">","null","","","","","",""
"224.20000000298023","","image-keyboard-response","216","465006","0.0-216.0","3DIP6YHAPDESN6181QGC3WXXCDQ8EB","A2BK9RMC0NOIH8","3TZDZ3Y0JSSRVQSC3SM97PDQ3Z7196","","","img/flower6.png","75","224.6000000089407","2","1","1","0.6,0.6,0,0,0.6,0.6,0.6,0,0.6",""
"null","","html-keyboard-response","217","465314","0.0-217.0","3DIP6YHAPDESN6181QGC3WXXCDQ8EB","A2BK9RMC0NOIH8","3TZDZ3Y0JSSRVQSC3SM97PDQ3Z7196","","","<img src=""img/flower6.png"" style=""width:200px; border:14px solid green;"">","null","","","","","",""
"91.79999999701977","","image-keyboard-response","218","465406","0.0-218.0","3DIP6YHAPDESN6181QGC3WXXCDQ8EB","A2BK9RMC0NOIH8","3TZDZ3Y0JSSRVQSC3SM97PDQ3Z7196","","","img/flower6.png","75","92.29999999701977","2","1","1","0.6,0.6,0,0,0.6,0.6,0.6,0,0.6",""
"null","","html-keyboard-response","219","465710","0.0-219.0","3DIP6YHAPDESN6181QGC3WXXCDQ8EB","A2BK9RMC0NOIH8","3TZDZ3Y0JSSRVQSC3SM97PDQ3Z7196","","","<img src=""img/flower6.png"" style=""width:200px; border:14px solid green;"">","null","","","","","",""
"383.30000001192093","","image-keyboard-response","220","466094","0.0-220.0","3DIP6YHAPDESN6181QGC3WXXCDQ8EB","A2BK9RMC0NOIH8","3TZDZ3Y0JSSRVQSC3SM97PDQ3Z7196","","","img/flower5.png","75","383.79999999701977","2","1","2","0.6,0.6,0,0,0.6,0.6,0.6,0,0.6",""
"null","","html-keyboard-response","221","466406","0.0-221.0","3DIP6YHAPDESN6181QGC3WXXCDQ8EB","A2BK9RMC0NOIH8","3TZDZ3Y0JSSRVQSC3SM97PDQ3Z7196","","","<img src=""img/flower5.png"" style=""width:200px; border:14px solid green;"">","null","","","","","",""
"47.70000000298023","","image-keyboard-response","222","466454","0.0-222.0","3DIP6YHAPDESN6181QGC3WXXCDQ8EB","A2BK9RMC0NOIH8","3TZDZ3Y0JSSRVQSC3SM97PDQ3Z7196","","","img/flower5.png","76","48.29999999701977","3","1","2","0.6,0.6,0,0,0.6,0.6,0.6,0,0.6",""
"null","","html-keyboard-response","223","466761","0.0-223.0","3DIP6YHAPDESN6181QGC3WXXCDQ8EB","A2BK9RMC0NOIH8","3TZDZ3Y0JSSRVQSC3SM97PDQ3Z7196","","","<img src=""img/flower5.png"" style=""width:200px; border:14px solid green;"">","null","","","","","",""
"484.40000000596046","","image-keyboard-response","224","467246","0.0-224.0","3DIP6YHAPDESN6181QGC3WXXCDQ8EB","A2BK9RMC0NOIH8","3TZDZ3Y0JSSRVQSC3SM97PDQ3Z7196","","","img/flower2.png","74","485","1","1","3","0.6,0.6,0,0,0.6,0.6,0.6,0,0.6",""
"null","","html-keyboard-response","225","467553","0.0-225.0","3DIP6YHAPDESN6181QGC3WXXCDQ8EB","A2BK9RMC0NOIH8","3TZDZ3Y0JSSRVQSC3SM97PDQ3Z7196","","","<img src=""img/flower2.png"" style=""width:200px; border:14px solid green;"">","null","","","","","",""
"1396.2999999970198","","image-keyboard-response","226","468950","0.0-226.0","3DIP6YHAPDESN6181QGC3WXXCDQ8EB","A2BK9RMC0NOIH8","3TZDZ3Y0JSSRVQSC3SM97PDQ3Z7196","","","img/flower6.png","74","1397","1","1","1","0.6,0.6,0,0,0.6,0.6,0.6,0,0.6",""
"null","","html-keyboard-response","227","469267","0.0-227.0","3DIP6YHAPDESN6181QGC3WXXCDQ8EB","A2BK9RMC0NOIH8","3TZDZ3Y0JSSRVQSC3SM97PDQ3Z7196","","","<img src=""img/flower6.png"" style=""width:200px; border:14px solid green;"">","null","","","","","",""
"1595.5","","image-keyboard-response","228","470863","0.0-228.0","3DIP6YHAPDESN6181QGC3WXXCDQ8EB","A2BK9RMC0NOIH8","3TZDZ3Y0JSSRVQSC3SM97PDQ3Z7196","","","img/flower2.png","74","1596.2000000029802","1","1","3","0.6,0.6,0,0,0.6,0.6,0.6,0,0.6",""
"null","","html-keyboard-response","229","471167","0.0-229.0","3DIP6YHAPDESN6181QGC3WXXCDQ8EB","A2BK9RMC0NOIH8","3TZDZ3Y0JSSRVQSC3SM97PDQ3Z7196","","","<img src=""img/flower2.png"" style=""width:200px; border:14px solid green;"">","null","","","","","",""
"694.9000000059605","","image-keyboard-response","230","471862","0.0-230.0","3DIP6YHAPDESN6181QGC3WXXCDQ8EB","A2BK9RMC0NOIH8","3TZDZ3Y0JSSRVQSC3SM97PDQ3Z7196","","","img/flower2.png","74","695.4000000059605","1","1","3","0.6,0.6,0,0,0.6,0.6,0.6,0,0.6",""
"null","","html-keyboard-response","231","472166","0.0-231.0","3DIP6YHAPDESN6181QGC3WXXCDQ8EB","A2BK9RMC0NOIH8","3TZDZ3Y0JSSRVQSC3SM97PDQ3Z7196","","","<img src=""img/flower2.png"" style=""width:200px; border:14px solid green;"">","null","","","","","",""
"359.20000000298023","","image-keyboard-response","232","472526","0.0-232.0","3DIP6YHAPDESN6181QGC3WXXCDQ8EB","A2BK9RMC0NOIH8","3TZDZ3Y0JSSRVQSC3SM97PDQ3Z7196","","","img/flower2.png","75","359.69999998807907","2","0","3","0.6,0.6,0,0,0.6,0.6,0.6,0,0.6",""
"null","","html-keyboard-response","233","472838","0.0-233.0","3DIP6YHAPDESN6181QGC3WXXCDQ8EB","A2BK9RMC0NOIH8","3TZDZ3Y0JSSRVQSC3SM97PDQ3Z7196","","","<img src=""img/flower2.png"" style=""width:200px;border:14px solid red;"">","null","","","","","",""
"375.5","","image-keyboard-response","234","473214","0.0-234.0","3DIP6YHAPDESN6181QGC3WXXCDQ8EB","A2BK9RMC0NOIH8","3TZDZ3Y0JSSRVQSC3SM97PDQ3Z7196","","","img/flower2.png","76","375.90000000596046","3","0","3","0.6,0.6,0,0,0.6,0.6,0.6,0,0.6",""
"null","","html-keyboard-response","235","473530","0.0-235.0","3DIP6YHAPDESN6181QGC3WXXCDQ8EB","A2BK9RMC0NOIH8","3TZDZ3Y0JSSRVQSC3SM97PDQ3Z7196","","","<img src=""img/flower2.png"" style=""width:200px;border:14px solid red;"">","null","","","","","",""
"419.30000001192093","","image-keyboard-response","236","473950","0.0-236.0","3DIP6YHAPDESN6181QGC3WXXCDQ8EB","A2BK9RMC0NOIH8","3TZDZ3Y0JSSRVQSC3SM97PDQ3Z7196","","","img/flower2.png","74","419.79999999701977","1","0","3","0.6,0.6,0,0,0.6,0.6,0.6,0,0.6",""
"null","","html-keyboard-response","237","474266","0.0-237.0","3DIP6YHAPDESN6181QGC3WXXCDQ8EB","A2BK9RMC0NOIH8","3TZDZ3Y0JSSRVQSC3SM97PDQ3Z7196","","","<img src=""img/flower2.png"" style=""width:200px;border:14px solid red;"">","null","","","","","",""
"435.70000000298023","","image-keyboard-response","238","474702","0.0-238.0","3DIP6YHAPDESN6181QGC3WXXCDQ8EB","A2BK9RMC0NOIH8","3TZDZ3Y0JSSRVQSC3SM97PDQ3Z7196","","","img/flower6.png","75","436.29999999701977","2","1","1","0.6,0.6,0,0,0.6,0.6,0.6,0,0.6",""
"null","","html-keyboard-response","239","475014","0.0-239.0","3DIP6YHAPDESN6181QGC3WXXCDQ8EB","A2BK9RMC0NOIH8","3TZDZ3Y0JSSRVQSC3SM97PDQ3Z7196","","","<img src=""img/flower6.png"" style=""width:200px; border:14px solid green;"">","null","","","","","",""
"359.70000000298023","","image-keyboard-response","240","475374","0.0-240.0","3DIP6YHAPDESN6181QGC3WXXCDQ8EB","A2BK9RMC0NOIH8","3TZDZ3Y0JSSRVQSC3SM97PDQ3Z7196","","","img/flower5.png","76","360.1000000089407","3","1","2","0.6,0.6,0,0,0.6,0.6,0.6,0,0.6",""
"null","","html-keyboard-response","241","475687","0.0-241.0","3DIP6YHAPDESN6181QGC3WXXCDQ8EB","A2BK9RMC0NOIH8","3TZDZ3Y0JSSRVQSC3SM97PDQ3Z7196","","","<img src=""img/flower5.png"" style=""width:200px; border:14px solid green;"">","null","","","","","",""
"415","","image-keyboard-response","242","476102","0.0-242.0","3DIP6YHAPDESN6181QGC3WXXCDQ8EB","A2BK9RMC0NOIH8","3TZDZ3Y0JSSRVQSC3SM97PDQ3Z7196","","","img/flower6.png","74","415.70000000298023","1","0","1","0.6,0.6,0,0,0.6,0.6,0.6,0,0.6",""
"null","","html-keyboard-response","243","476406","0.0-243.0","3DIP6YHAPDESN6181QGC3WXXCDQ8EB","A2BK9RMC0NOIH8","3TZDZ3Y0JSSRVQSC3SM97PDQ3Z7196","","","<img src=""img/flower6.png"" style=""width:200px;border:14px solid red;"">","null","","","","","",""
"383.70000000298023","","image-keyboard-response","244","476790","0.0-244.0","3DIP6YHAPDESN6181QGC3WXXCDQ8EB","A2BK9RMC0NOIH8","3TZDZ3Y0JSSRVQSC3SM97PDQ3Z7196","","","img/flower5.png","74","384.09999999403954","1","0","2","0.6,0.6,0,0,0.6,0.6,0.6,0,0.6",""
"null","","html-keyboard-response","245","477095","0.0-245.0","3DIP6YHAPDESN6181QGC3WXXCDQ8EB","A2BK9RMC0NOIH8","3TZDZ3Y0JSSRVQSC3SM97PDQ3Z7196","","","<img src=""img/flower5.png"" style=""width:200px;border:14px solid red;"">","null","","","","","",""
"319","","image-keyboard-response","246","477414","0.0-246.0","3DIP6YHAPDESN6181QGC3WXXCDQ8EB","A2BK9RMC0NOIH8","3TZDZ3Y0JSSRVQSC3SM97PDQ3Z7196","","","img/flower6.png","75","319.5","2","1","1","0.6,0.6,0,0,0.6,0.6,0.6,0,0.6",""
"null","","html-keyboard-response","247","477718","0.0-247.0","3DIP6YHAPDESN6181QGC3WXXCDQ8EB","A2BK9RMC0NOIH8","3TZDZ3Y0JSSRVQSC3SM97PDQ3Z7196","","","<img src=""img/flower6.png"" style=""width:200px; border:14px solid green;"">","null","","","","","",""
"336","","image-keyboard-response","248","478054","0.0-248.0","3DIP6YHAPDESN6181QGC3WXXCDQ8EB","A2BK9RMC0NOIH8","3TZDZ3Y0JSSRVQSC3SM97PDQ3Z7196","","","img/flower5.png","76","336.3999999910593","3","1","2","0.6,0.6,0,0,0.6,0.6,0.6,0,0.6",""
"null","","html-keyboard-response","249","478359","0.0-249.0","3DIP6YHAPDESN6181QGC3WXXCDQ8EB","A2BK9RMC0NOIH8","3TZDZ3Y0JSSRVQSC3SM97PDQ3Z7196","","","<img src=""img/flower5.png"" style=""width:200px; border:14px solid green;"">","null","","","","","",""
"454.40000000596046","","image-keyboard-response","250","478814","0.0-250.0","3DIP6YHAPDESN6181QGC3WXXCDQ8EB","A2BK9RMC0NOIH8","3TZDZ3Y0JSSRVQSC3SM97PDQ3Z7196","","","img/flower6.png","75","454.79999999701977","2","1","1","0.6,0.6,0,0,0.6,0.6,0.6,0,0.6",""
"null","","html-keyboard-response","251","479122","0.0-251.0","3DIP6YHAPDESN6181QGC3WXXCDQ8EB","A2BK9RMC0NOIH8","3TZDZ3Y0JSSRVQSC3SM97PDQ3Z7196","","","<img src=""img/flower6.png"" style=""width:200px; border:14px solid green;"">","null","","","","","",""
"363.29999999701977","","image-keyboard-response","252","479486","0.0-252.0","3DIP6YHAPDESN6181QGC3WXXCDQ8EB","A2BK9RMC0NOIH8","3TZDZ3Y0JSSRVQSC3SM97PDQ3Z7196","","","img/flower5.png","74","363.8999999910593","1","0","2","0.6,0.6,0,0,0.6,0.6,0.6,0,0.6",""
"null","","html-keyboard-response","253","479791","0.0-253.0","3DIP6YHAPDESN6181QGC3WXXCDQ8EB","A2BK9RMC0NOIH8","3TZDZ3Y0JSSRVQSC3SM97PDQ3Z7196","","","<img src=""img/flower5.png"" style=""width:200px;border:14px solid red;"">","null","","","","","",""
"398.29999999701977","","image-keyboard-response","254","480190","0.0-254.0","3DIP6YHAPDESN6181QGC3WXXCDQ8EB","A2BK9RMC0NOIH8","3TZDZ3Y0JSSRVQSC3SM97PDQ3Z7196","","","img/flower2.png","74","398.79999999701977","1","0","3","0.6,0.6,0,0,0.6,0.6,0.6,0,0.6",""
"null","","html-keyboard-response","255","480499","0.0-255.0","3DIP6YHAPDESN6181QGC3WXXCDQ8EB","A2BK9RMC0NOIH8","3TZDZ3Y0JSSRVQSC3SM97PDQ3Z7196","","","<img src=""img/flower2.png"" style=""width:200px;border:14px solid red;"">","null","","","","","",""
"362","","image-keyboard-response","256","480862","0.0-256.0","3DIP6YHAPDESN6181QGC3WXXCDQ8EB","A2BK9RMC0NOIH8","3TZDZ3Y0JSSRVQSC3SM97PDQ3Z7196","","","img/flower6.png","75","362.90000000596046","2","1","1","0.6,0.6,0,0,0.6,0.6,0.6,0,0.6",""
"null","","html-keyboard-response","257","481174","0.0-257.0","3DIP6YHAPDESN6181QGC3WXXCDQ8EB","A2BK9RMC0NOIH8","3TZDZ3Y0JSSRVQSC3SM97PDQ3Z7196","","","<img src=""img/flower6.png"" style=""width:200px; border:14px solid green;"">","null","","","","","",""
"464.20000000298023","","image-keyboard-response","258","481639","0.0-258.0","3DIP6YHAPDESN6181QGC3WXXCDQ8EB","A2BK9RMC0NOIH8","3TZDZ3Y0JSSRVQSC3SM97PDQ3Z7196","","","img/flower2.png","76","464.70000000298023","3","1","3","0.6,0.6,0,0,0.6,0.6,0.6,0,0.6",""
"null","","html-keyboard-response","259","481942","0.0-259.0","3DIP6YHAPDESN6181QGC3WXXCDQ8EB","A2BK9RMC0NOIH8","3TZDZ3Y0JSSRVQSC3SM97PDQ3Z7196","","","<img src=""img/flower2.png"" style=""width:200px; border:14px solid green;"">","null","","","","","",""
"408","","image-keyboard-response","260","482350","0.0-260.0","3DIP6YHAPDESN6181QGC3WXXCDQ8EB","A2BK9RMC0NOIH8","3TZDZ3Y0JSSRVQSC3SM97PDQ3Z7196","","","img/flower2.png","75","408.5","2","0","3","0.6,0.6,0,0,0.6,0.6,0.6,0,0.6",""
"null","","html-keyboard-response","261","482662","0.0-261.0","3DIP6YHAPDESN6181QGC3WXXCDQ8EB","A2BK9RMC0NOIH8","3TZDZ3Y0JSSRVQSC3SM97PDQ3Z7196","","","<img src=""img/flower2.png"" style=""width:200px;border:14px solid red;"">","null","","","","","",""
"360","","image-keyboard-response","262","483022","0.0-262.0","3DIP6YHAPDESN6181QGC3WXXCDQ8EB","A2BK9RMC0NOIH8","3TZDZ3Y0JSSRVQSC3SM97PDQ3Z7196","","","img/flower5.png","74","360.40000000596046","1","0","2","0.6,0.6,0,0,0.6,0.6,0.6,0,0.6",""
"null","","html-keyboard-response","263","483337","0.0-263.0","3DIP6YHAPDESN6181QGC3WXXCDQ8EB","A2BK9RMC0NOIH8","3TZDZ3Y0JSSRVQSC3SM97PDQ3Z7196","","","<img src=""img/flower5.png"" style=""width:200px;border:14px solid red;"">","null","","","","","",""
"244.40000000596046","","image-keyboard-response","264","483582","0.0-264.0","3DIP6YHAPDESN6181QGC3WXXCDQ8EB","A2BK9RMC0NOIH8","3TZDZ3Y0JSSRVQSC3SM97PDQ3Z7196","","","img/flower5.png","75","244.79999999701977","2","1","2","0.6,0.6,0,0,0.6,0.6,0.6,0,0.6",""
"null","","html-keyboard-response","265","483886","0.0-265.0","3DIP6YHAPDESN6181QGC3WXXCDQ8EB","A2BK9RMC0NOIH8","3TZDZ3Y0JSSRVQSC3SM97PDQ3Z7196","","","<img src=""img/flower5.png"" style=""width:200px; border:14px solid green;"">","null","","","","","",""
"312.09999999403954","","image-keyboard-response","266","484198","0.0-266.0","3DIP6YHAPDESN6181QGC3WXXCDQ8EB","A2BK9RMC0NOIH8","3TZDZ3Y0JSSRVQSC3SM97PDQ3Z7196","","","img/flower6.png","76","312.5","3","0","1","0.6,0.6,0,0,0.6,0.6,0.6,0,0.6",""
"null","","html-keyboard-response","267","484500","0.0-267.0","3DIP6YHAPDESN6181QGC3WXXCDQ8EB","A2BK9RMC0NOIH8","3TZDZ3Y0JSSRVQSC3SM97PDQ3Z7196","","","<img src=""img/flower6.png"" style=""width:200px;border:14px solid red;"">","null","","","","","",""
"321.5","","image-keyboard-response","268","484822","0.0-268.0","3DIP6YHAPDESN6181QGC3WXXCDQ8EB","A2BK9RMC0NOIH8","3TZDZ3Y0JSSRVQSC3SM97PDQ3Z7196","","","img/flower2.png","76","322","3","1","3","0.6,0.6,0,0,0.6,0.6,0.6,0,0.6",""
"null","","html-keyboard-response","269","485127","0.0-269.0","3DIP6YHAPDESN6181QGC3WXXCDQ8EB","A2BK9RMC0NOIH8","3TZDZ3Y0JSSRVQSC3SM97PDQ3Z7196","","","<img src=""img/flower2.png"" style=""width:200px; border:14px solid green;"">","null","","","","","",""
"302.70000000298023","","image-keyboard-response","270","485430","0.0-270.0","3DIP6YHAPDESN6181QGC3WXXCDQ8EB","A2BK9RMC0NOIH8","3TZDZ3Y0JSSRVQSC3SM97PDQ3Z7196","","","img/flower6.png","76","303.20000000298023","3","0","1","0.6,0.6,0,0,0.6,0.6,0.6,0,0.6",""
"null","","html-keyboard-response","271","485741","0.0-271.0","3DIP6YHAPDESN6181QGC3WXXCDQ8EB","A2BK9RMC0NOIH8","3TZDZ3Y0JSSRVQSC3SM97PDQ3Z7196","","","<img src=""img/flower6.png"" style=""width:200px;border:14px solid red;"">","null","","","","","",""
"24.600000008940697","","image-keyboard-response","272","485766","0.0-272.0","3DIP6YHAPDESN6181QGC3WXXCDQ8EB","A2BK9RMC0NOIH8","3TZDZ3Y0JSSRVQSC3SM97PDQ3Z7196","","","img/flower2.png","74","25.099999994039536","1","0","3","0.6,0.6,0,0,0.6,0.6,0.6,0,0.6",""
"null","","html-keyboard-response","273","486070","0.0-273.0","3DIP6YHAPDESN6181QGC3WXXCDQ8EB","A2BK9RMC0NOIH8","3TZDZ3Y0JSSRVQSC3SM97PDQ3Z7196","","","<img src=""img/flower2.png"" style=""width:200px;border:14px solid red;"">","null","","","","","",""
"88.09999999403954","","image-keyboard-response","274","486158","0.0-274.0","3DIP6YHAPDESN6181QGC3WXXCDQ8EB","A2BK9RMC0NOIH8","3TZDZ3Y0JSSRVQSC3SM97PDQ3Z7196","","","img/flower5.png","75","88.5","2","1","2","0.6,0.6,0,0,0.6,0.6,0.6,0,0.6",""
"null","","html-keyboard-response","275","486460","0.0-275.0","3DIP6YHAPDESN6181QGC3WXXCDQ8EB","A2BK9RMC0NOIH8","3TZDZ3Y0JSSRVQSC3SM97PDQ3Z7196","","","<img src=""img/flower5.png"" style=""width:200px; border:14px solid green;"">","null","","","","","",""
"40.79999999701977","","image-keyboard-response","276","486502","0.0-276.0","3DIP6YHAPDESN6181QGC3WXXCDQ8EB","A2BK9RMC0NOIH8","3TZDZ3Y0JSSRVQSC3SM97PDQ3Z7196","","","img/flower5.png","75","41.599999994039536","2","1","2","0.6,0.6,0,0,0.6,0.6,0.6,0,0.6",""
"null","","html-keyboard-response","277","486804","0.0-277.0","3DIP6YHAPDESN6181QGC3WXXCDQ8EB","A2BK9RMC0NOIH8","3TZDZ3Y0JSSRVQSC3SM97PDQ3Z7196","","","<img src=""img/flower5.png"" style=""width:200px; border:14px solid green;"">","null","","","","","",""
"321.70000000298023","","image-keyboard-response","278","487126","0.0-278.0","3DIP6YHAPDESN6181QGC3WXXCDQ8EB","A2BK9RMC0NOIH8","3TZDZ3Y0JSSRVQSC3SM97PDQ3Z7196","","","img/flower5.png","74","322.20000000298023","1","0","2","0.6,0.6,0,0,0.6,0.6,0.6,0,0.6",""
"null","","html-keyboard-response","279","487434","0.0-279.0","3DIP6YHAPDESN6181QGC3WXXCDQ8EB","A2BK9RMC0NOIH8","3TZDZ3Y0JSSRVQSC3SM97PDQ3Z7196","","","<img src=""img/flower5.png"" style=""width:200px;border:14px solid red;"">","null","","","","","",""
"11.799999997019768","","image-keyboard-response","280","487446","0.0-280.0","3DIP6YHAPDESN6181QGC3WXXCDQ8EB","A2BK9RMC0NOIH8","3TZDZ3Y0JSSRVQSC3SM97PDQ3Z7196","","","img/flower5.png","74","12.299999997019768","1","0","2","0.6,0.6,0,0,0.6,0.6,0.6,0,0.6",""
"null","","html-keyboard-response","281","487762","0.0-281.0","3DIP6YHAPDESN6181QGC3WXXCDQ8EB","A2BK9RMC0NOIH8","3TZDZ3Y0JSSRVQSC3SM97PDQ3Z7196","","","<img src=""img/flower5.png"" style=""width:200px;border:14px solid red;"">","null","","","","","",""
"3.0999999940395355","","image-keyboard-response","282","487766","0.0-282.0","3DIP6YHAPDESN6181QGC3WXXCDQ8EB","A2BK9RMC0NOIH8","3TZDZ3Y0JSSRVQSC3SM97PDQ3Z7196","","","img/flower5.png","75","3.5999999940395355","2","1","2","0.6,0.6,0,0,0.6,0.6,0.6,0,0.6",""
"null","","html-keyboard-response","283","488079","0.0-283.0","3DIP6YHAPDESN6181QGC3WXXCDQ8EB","A2BK9RMC0NOIH8","3TZDZ3Y0JSSRVQSC3SM97PDQ3Z7196","","","<img src=""img/flower5.png"" style=""width:200px; border:14px solid green;"">","null","","","","","",""
"278.20000000298023","","image-keyboard-response","284","488358","0.0-284.0","3DIP6YHAPDESN6181QGC3WXXCDQ8EB","A2BK9RMC0NOIH8","3TZDZ3Y0JSSRVQSC3SM97PDQ3Z7196","","","img/flower5.png","76","278.70000000298023","3","0","2","0.6,0.6,0,0,0.6,0.6,0.6,0,0.6",""
"null","","html-keyboard-response","285","488671","0.0-285.0","3DIP6YHAPDESN6181QGC3WXXCDQ8EB","A2BK9RMC0NOIH8","3TZDZ3Y0JSSRVQSC3SM97PDQ3Z7196","","","<img src=""img/flower5.png"" style=""width:200px;border:14px solid red;"">","null","","","","","",""
"54.599999994039536","","image-keyboard-response","286","488726","0.0-286.0","3DIP6YHAPDESN6181QGC3WXXCDQ8EB","A2BK9RMC0NOIH8","3TZDZ3Y0JSSRVQSC3SM97PDQ3Z7196","","","img/flower5.png","76","55","3","0","2","0.6,0.6,0,0,0.6,0.6,0.6,0,0.6",""
"null","","html-keyboard-response","287","489032","0.0-287.0","3DIP6YHAPDESN6181QGC3WXXCDQ8EB","A2BK9RMC0NOIH8","3TZDZ3Y0JSSRVQSC3SM97PDQ3Z7196","","","<img src=""img/flower5.png"" style=""width:200px;border:14px solid red;"">","null","","","","","",""
"37.70000000298023","","image-keyboard-response","288","489070","0.0-288.0","3DIP6YHAPDESN6181QGC3WXXCDQ8EB","A2BK9RMC0NOIH8","3TZDZ3Y0JSSRVQSC3SM97PDQ3Z7196","","","img/flower2.png","75","38.099999994039536","2","0","3","0.6,0.6,0,0,0.6,0.6,0.6,0,0.6",""
"null","","html-keyboard-response","289","489373","0.0-289.0","3DIP6YHAPDESN6181QGC3WXXCDQ8EB","A2BK9RMC0NOIH8","3TZDZ3Y0JSSRVQSC3SM97PDQ3Z7196","","","<img src=""img/flower2.png"" style=""width:200px;border:14px solid red;"">","null","","","","","",""
"281","","image-keyboard-response","290","489654","0.0-290.0","3DIP6YHAPDESN6181QGC3WXXCDQ8EB","A2BK9RMC0NOIH8","3TZDZ3Y0JSSRVQSC3SM97PDQ3Z7196","","","img/flower2.png","74","281.40000000596046","1","1","3","0.6,0.6,0,0,0.6,0.6,0.6,0,0.6",""
"null","","html-keyboard-response","291","489969","0.0-291.0","3DIP6YHAPDESN6181QGC3WXXCDQ8EB","A2BK9RMC0NOIH8","3TZDZ3Y0JSSRVQSC3SM97PDQ3Z7196","","","<img src=""img/flower2.png"" style=""width:200px; border:14px solid green;"">","null","","","","","",""
"45","","image-keyboard-response","292","490014","0.0-292.0","3DIP6YHAPDESN6181QGC3WXXCDQ8EB","A2BK9RMC0NOIH8","3TZDZ3Y0JSSRVQSC3SM97PDQ3Z7196","","","img/flower5.png","74","45.70000000298023","1","0","2","0.6,0.6,0,0,0.6,0.6,0.6,0,0.6",""
"null","","html-keyboard-response","293","490329","0.0-293.0","3DIP6YHAPDESN6181QGC3WXXCDQ8EB","A2BK9RMC0NOIH8","3TZDZ3Y0JSSRVQSC3SM97PDQ3Z7196","","","<img src=""img/flower5.png"" style=""width:200px;border:14px solid red;"">","null","","","","","",""
"12.899999991059303","","image-keyboard-response","294","490342","0.0-294.0","3DIP6YHAPDESN6181QGC3WXXCDQ8EB","A2BK9RMC0NOIH8","3TZDZ3Y0JSSRVQSC3SM97PDQ3Z7196","","","img/flower2.png","74","13.299999997019768","1","1","3","0.6,0.6,0,0,0.6,0.6,0.6,0,0.6",""
"null","","html-keyboard-response","295","490655","0.0-295.0","3DIP6YHAPDESN6181QGC3WXXCDQ8EB","A2BK9RMC0NOIH8","3TZDZ3Y0JSSRVQSC3SM97PDQ3Z7196","","","<img src=""img/flower2.png"" style=""width:200px; border:14px solid green;"">","null","","","","","",""
"326.40000000596046","","image-keyboard-response","296","490982","0.0-296.0","3DIP6YHAPDESN6181QGC3WXXCDQ8EB","A2BK9RMC0NOIH8","3TZDZ3Y0JSSRVQSC3SM97PDQ3Z7196","","","img/flower6.png","75","327.09999999403954","2","1","1","0.6,0.6,0,0,0.6,0.6,0.6,0,0.6",""
"null","","html-keyboard-response","297","491294","0.0-297.0","3DIP6YHAPDESN6181QGC3WXXCDQ8EB","A2BK9RMC0NOIH8","3TZDZ3Y0JSSRVQSC3SM97PDQ3Z7196","","","<img src=""img/flower6.png"" style=""width:200px; border:14px solid green;"">","null","","","","","",""
"7.0999999940395355","","image-keyboard-response","298","491302","0.0-298.0","3DIP6YHAPDESN6181QGC3WXXCDQ8EB","A2BK9RMC0NOIH8","3TZDZ3Y0JSSRVQSC3SM97PDQ3Z7196","","","img/flower2.png","76","7.600000008940697","3","0","3","0.6,0.6,0,0,0.6,0.6,0.6,0,0.6",""
"null","","html-keyboard-response","299","491607","0.0-299.0","3DIP6YHAPDESN6181QGC3WXXCDQ8EB","A2BK9RMC0NOIH8","3TZDZ3Y0JSSRVQSC3SM97PDQ3Z7196","","","<img src=""img/flower2.png"" style=""width:200px;border:14px solid red;"">","null","","","","","",""
"311","","image-keyboard-response","300","491919","0.0-300.0","3DIP6YHAPDESN6181QGC3WXXCDQ8EB","A2BK9RMC0NOIH8","3TZDZ3Y0JSSRVQSC3SM97PDQ3Z7196","","","img/flower6.png","75","311.5","2","1","1","0.6,0.6,0,0,0.6,0.6,0.6,0,0.6",""
"null","","html-keyboard-response","301","492233","0.0-301.0","3DIP6YHAPDESN6181QGC3WXXCDQ8EB","A2BK9RMC0NOIH8","3TZDZ3Y0JSSRVQSC3SM97PDQ3Z7196","","","<img src=""img/flower6.png"" style=""width:200px; border:14px solid green;"">","null","","","","","",""
"76.20000000298023","","image-keyboard-response","302","492310","0.0-302.0","3DIP6YHAPDESN6181QGC3WXXCDQ8EB","A2BK9RMC0NOIH8","3TZDZ3Y0JSSRVQSC3SM97PDQ3Z7196","","","img/flower2.png","74","76.69999998807907","1","1","3","0.6,0.6,0,0,0.6,0.6,0.6,0,0.6",""
"null","","html-keyboard-response","303","492620","0.0-303.0","3DIP6YHAPDESN6181QGC3WXXCDQ8EB","A2BK9RMC0NOIH8","3TZDZ3Y0JSSRVQSC3SM97PDQ3Z7196","","","<img src=""img/flower2.png"" style=""width:200px; border:14px solid green;"">","null","","","","","",""
"249.59999999403954","","image-keyboard-response","304","492870","0.0-304.0","3DIP6YHAPDESN6181QGC3WXXCDQ8EB","A2BK9RMC0NOIH8","3TZDZ3Y0JSSRVQSC3SM97PDQ3Z7196","","","img/flower6.png","74","250.40000000596046","1","1","1","0.6,0.6,0,0,0.6,0.6,0.6,0,0.6",""
"null","","html-keyboard-response","305","493185","0.0-305.0","3DIP6YHAPDESN6181QGC3WXXCDQ8EB","A2BK9RMC0NOIH8","3TZDZ3Y0JSSRVQSC3SM97PDQ3Z7196","","","<img src=""img/flower6.png"" style=""width:200px; border:14px solid green;"">","null","","","","","",""
"","","html-keyboard-response","306","500831","0.0-306.0","3DIP6YHAPDESN6181QGC3WXXCDQ8EB","A2BK9RMC0NOIH8","3TZDZ3Y0JSSRVQSC3SM97PDQ3Z7196","","","","","","","","","",""
"582.3000000119209","","image-keyboard-response","307","501414","0.0-307.0","3DIP6YHAPDESN6181QGC3WXXCDQ8EB","A2BK9RMC0NOIH8","3TZDZ3Y0JSSRVQSC3SM97PDQ3Z7196","","","img/flower7.png","75","583.1000000089407","2","1","2","0.8,0.2,0.2,0.2,0.8,0.2,0.2,0.2,0.8",""
"null","","html-keyboard-response","308","501718","0.0-308.0","3DIP6YHAPDESN6181QGC3WXXCDQ8EB","A2BK9RMC0NOIH8","3TZDZ3Y0JSSRVQSC3SM97PDQ3Z7196","","","<img src=""img/flower7.png"" style=""width:200px; border:14px solid green;"">","null","","","","","",""
"15.300000011920929","","image-keyboard-response","309","501734","0.0-309.0","3DIP6YHAPDESN6181QGC3WXXCDQ8EB","A2BK9RMC0NOIH8","3TZDZ3Y0JSSRVQSC3SM97PDQ3Z7196","","","img/flower8.png","75","15.900000005960464","2","0","3","0.8,0.2,0.2,0.2,0.8,0.2,0.2,0.2,0.8",""
"null","","html-keyboard-response","310","502046","0.0-310.0","3DIP6YHAPDESN6181QGC3WXXCDQ8EB","A2BK9RMC0NOIH8","3TZDZ3Y0JSSRVQSC3SM97PDQ3Z7196","","","<img src=""img/flower8.png"" style=""width:200px;border:14px solid red;"">","null","","","","","",""
"144.1000000089407","","image-keyboard-response","311","502191","0.0-311.0","3DIP6YHAPDESN6181QGC3WXXCDQ8EB","A2BK9RMC0NOIH8","3TZDZ3Y0JSSRVQSC3SM97PDQ3Z7196","","","img/flower1.png","76","144.59999999403954","3","1","1","0.8,0.2,0.2,0.2,0.8,0.2,0.2,0.2,0.8",""
"null","","html-keyboard-response","312","502494","0.0-312.0","3DIP6YHAPDESN6181QGC3WXXCDQ8EB","A2BK9RMC0NOIH8","3TZDZ3Y0JSSRVQSC3SM97PDQ3Z7196","","","<img src=""img/flower1.png"" style=""width:200px; border:14px solid green;"">","null","","","","","",""
"287.70000000298023","","image-keyboard-response","313","502782","0.0-313.0","3DIP6YHAPDESN6181QGC3WXXCDQ8EB","A2BK9RMC0NOIH8","3TZDZ3Y0JSSRVQSC3SM97PDQ3Z7196","","","img/flower1.png","74","288.19999998807907","1","1","1","0.8,0.2,0.2,0.2,0.8,0.2,0.2,0.2,0.8",""
"null","","html-keyboard-response","314","503090","0.0-314.0","3DIP6YHAPDESN6181QGC3WXXCDQ8EB","A2BK9RMC0NOIH8","3TZDZ3Y0JSSRVQSC3SM97PDQ3Z7196","","","<img src=""img/flower1.png"" style=""width:200px; border:14px solid green;"">","null","","","","","",""
"11.299999997019768","","image-keyboard-response","315","503102","0.0-315.0","3DIP6YHAPDESN6181QGC3WXXCDQ8EB","A2BK9RMC0NOIH8","3TZDZ3Y0JSSRVQSC3SM97PDQ3Z7196","","","img/flower1.png","74","11.800000011920929","1","0","1","0.8,0.2,0.2,0.2,0.8,0.2,0.2,0.2,0.8",""
"null","","html-keyboard-response","316","503417","0.0-316.0","3DIP6YHAPDESN6181QGC3WXXCDQ8EB","A2BK9RMC0NOIH8","3TZDZ3Y0JSSRVQSC3SM97PDQ3Z7196","","","<img src=""img/flower1.png"" style=""width:200px;border:14px solid red;"">","null","","","","","",""
"60.20000000298023","","image-keyboard-response","317","503478","0.0-317.0","3DIP6YHAPDESN6181QGC3WXXCDQ8EB","A2BK9RMC0NOIH8","3TZDZ3Y0JSSRVQSC3SM97PDQ3Z7196","","","img/flower8.png","74","60.79999999701977","1","1","3","0.8,0.2,0.2,0.2,0.8,0.2,0.2,0.2,0.8",""
"null","","html-keyboard-response","318","503789","0.0-318.0","3DIP6YHAPDESN6181QGC3WXXCDQ8EB","A2BK9RMC0NOIH8","3TZDZ3Y0JSSRVQSC3SM97PDQ3Z7196","","","<img src=""img/flower8.png"" style=""width:200px; border:14px solid green;"">","null","","","","","",""
"16.799999997019768","","image-keyboard-response","319","503806","0.0-319.0","3DIP6YHAPDESN6181QGC3WXXCDQ8EB","A2BK9RMC0NOIH8","3TZDZ3Y0JSSRVQSC3SM97PDQ3Z7196","","","img/flower7.png","75","17.5","2","1","2","0.8,0.2,0.2,0.2,0.8,0.2,0.2,0.2,0.8",""
"null","","html-keyboard-response","320","504119","0.0-320.0","3DIP6YHAPDESN6181QGC3WXXCDQ8EB","A2BK9RMC0NOIH8","3TZDZ3Y0JSSRVQSC3SM97PDQ3Z7196","","","<img src=""img/flower7.png"" style=""width:200px; border:14px solid green;"">","null","","","","","",""
"6.4000000059604645","","image-keyboard-response","321","504126","0.0-321.0","3DIP6YHAPDESN6181QGC3WXXCDQ8EB","A2BK9RMC0NOIH8","3TZDZ3Y0JSSRVQSC3SM97PDQ3Z7196","","","img/flower7.png","76","6.9000000059604645","3","0","2","0.8,0.2,0.2,0.2,0.8,0.2,0.2,0.2,0.8",""
"null","","html-keyboard-response","322","504432","0.0-322.0","3DIP6YHAPDESN6181QGC3WXXCDQ8EB","A2BK9RMC0NOIH8","3TZDZ3Y0JSSRVQSC3SM97PDQ3Z7196","","","<img src=""img/flower7.png"" style=""width:200px;border:14px solid red;"">","null","","","","","",""
"5.700000002980232","","image-keyboard-response","323","504438","0.0-323.0","3DIP6YHAPDESN6181QGC3WXXCDQ8EB","A2BK9RMC0NOIH8","3TZDZ3Y0JSSRVQSC3SM97PDQ3Z7196","","","img/flower1.png","76","6.200000002980232","3","0","1","0.8,0.2,0.2,0.2,0.8,0.2,0.2,0.2,0.8",""
"null","","html-keyboard-response","324","504743","0.0-324.0","3DIP6YHAPDESN6181QGC3WXXCDQ8EB","A2BK9RMC0NOIH8","3TZDZ3Y0JSSRVQSC3SM97PDQ3Z7196","","","<img src=""img/flower1.png"" style=""width:200px;border:14px solid red;"">","null","","","","","",""
"22.200000002980232","","image-keyboard-response","325","504766","0.0-325.0","3DIP6YHAPDESN6181QGC3WXXCDQ8EB","A2BK9RMC0NOIH8","3TZDZ3Y0JSSRVQSC3SM97PDQ3Z7196","","","img/flower8.png","75","22.599999994039536","2","0","3","0.8,0.2,0.2,0.2,0.8,0.2,0.2,0.2,0.8",""
"null","","html-keyboard-response","326","505069","0.0-326.0","3DIP6YHAPDESN6181QGC3WXXCDQ8EB","A2BK9RMC0NOIH8","3TZDZ3Y0JSSRVQSC3SM97PDQ3Z7196","","","<img src=""img/flower8.png"" style=""width:200px;border:14px solid red;"">","null","","","","","",""
"0.7999999970197678","","image-keyboard-response","327","505070","0.0-327.0","3DIP6YHAPDESN6181QGC3WXXCDQ8EB","A2BK9RMC0NOIH8","3TZDZ3Y0JSSRVQSC3SM97PDQ3Z7196","","","img/flower8.png","74","1.2999999970197678","1","0","3","0.8,0.2,0.2,0.2,0.8,0.2,0.2,0.2,0.8",""
"null","","html-keyboard-response","328","505386","0.0-328.0","3DIP6YHAPDESN6181QGC3WXXCDQ8EB","A2BK9RMC0NOIH8","3TZDZ3Y0JSSRVQSC3SM97PDQ3Z7196","","","<img src=""img/flower8.png"" style=""width:200px;border:14px solid red;"">","null","","","","","",""
"291.59999999403954","","image-keyboard-response","329","505678","0.0-329.0","3DIP6YHAPDESN6181QGC3WXXCDQ8EB","A2BK9RMC0NOIH8","3TZDZ3Y0JSSRVQSC3SM97PDQ3Z7196","","","img/flower7.png","75","292.1000000089407","2","1","2","0.8,0.2,0.2,0.2,0.8,0.2,0.2,0.2,0.8",""
"null","","html-keyboard-response","330","505994","0.0-330.0","3DIP6YHAPDESN6181QGC3WXXCDQ8EB","A2BK9RMC0NOIH8","3TZDZ3Y0JSSRVQSC3SM97PDQ3Z7196","","","<img src=""img/flower7.png"" style=""width:200px; border:14px solid green;"">","null","","","","","",""
"27.599999994039536","","image-keyboard-response","331","506022","0.0-331.0","3DIP6YHAPDESN6181QGC3WXXCDQ8EB","A2BK9RMC0NOIH8","3TZDZ3Y0JSSRVQSC3SM97PDQ3Z7196","","","img/flower8.png","75","28.100000008940697","2","1","3","0.8,0.2,0.2,0.2,0.8,0.2,0.2,0.2,0.8",""
"null","","html-keyboard-response","332","506323","0.0-332.0","3DIP6YHAPDESN6181QGC3WXXCDQ8EB","A2BK9RMC0NOIH8","3TZDZ3Y0JSSRVQSC3SM97PDQ3Z7196","","","<img src=""img/flower8.png"" style=""width:200px; border:14px solid green;"">","null","","","","","",""
"91.90000000596046","","image-keyboard-response","333","506416","0.0-333.0","3DIP6YHAPDESN6181QGC3WXXCDQ8EB","A2BK9RMC0NOIH8","3TZDZ3Y0JSSRVQSC3SM97PDQ3Z7196","","","img/flower8.png","76","92.40000000596046","3","0","3","0.8,0.2,0.2,0.2,0.8,0.2,0.2,0.2,0.8",""
"null","","html-keyboard-response","334","506719","0.0-334.0","3DIP6YHAPDESN6181QGC3WXXCDQ8EB","A2BK9RMC0NOIH8","3TZDZ3Y0JSSRVQSC3SM97PDQ3Z7196","","","<img src=""img/flower8.png"" style=""width:200px;border:14px solid red;"">","null","","","","","",""
"318.6000000089407","","image-keyboard-response","335","507038","0.0-335.0","3DIP6YHAPDESN6181QGC3WXXCDQ8EB","A2BK9RMC0NOIH8","3TZDZ3Y0JSSRVQSC3SM97PDQ3Z7196","","","img/flower8.png","75","319.40000000596046","2","0","3","0.8,0.2,0.2,0.2,0.8,0.2,0.2,0.2,0.8",""
"null","","html-keyboard-response","336","507341","0.0-336.0","3DIP6YHAPDESN6181QGC3WXXCDQ8EB","A2BK9RMC0NOIH8","3TZDZ3Y0JSSRVQSC3SM97PDQ3Z7196","","","<img src=""img/flower8.png"" style=""width:200px;border:14px solid red;"">","null","","","","","",""
"16.099999994039536","","image-keyboard-response","337","507358","0.0-337.0","3DIP6YHAPDESN6181QGC3WXXCDQ8EB","A2BK9RMC0NOIH8","3TZDZ3Y0JSSRVQSC3SM97PDQ3Z7196","","","img/flower1.png","75","16.600000008940697","2","1","1","0.8,0.2,0.2,0.2,0.8,0.2,0.2,0.2,0.8",""
"null","","html-keyboard-response","338","507668","0.0-338.0","3DIP6YHAPDESN6181QGC3WXXCDQ8EB","A2BK9RMC0NOIH8","3TZDZ3Y0JSSRVQSC3SM97PDQ3Z7196","","","<img src=""img/flower1.png"" style=""width:200px; border:14px solid green;"">","null","","","","","",""
"321.59999999403954","","image-keyboard-response","339","507990","0.0-339.0","3DIP6YHAPDESN6181QGC3WXXCDQ8EB","A2BK9RMC0NOIH8","3TZDZ3Y0JSSRVQSC3SM97PDQ3Z7196","","","img/flower7.png","74","322.30000001192093","1","0","2","0.8,0.2,0.2,0.2,0.8,0.2,0.2,0.2,0.8",""
"null","","html-keyboard-response","340","508295","0.0-340.0","3DIP6YHAPDESN6181QGC3WXXCDQ8EB","A2BK9RMC0NOIH8","3TZDZ3Y0JSSRVQSC3SM97PDQ3Z7196","","","<img src=""img/flower7.png"" style=""width:200px;border:14px solid red;"">","null","","","","","",""
"6.5","","image-keyboard-response","341","508302","0.0-341.0","3DIP6YHAPDESN6181QGC3WXXCDQ8EB","A2BK9RMC0NOIH8","3TZDZ3Y0JSSRVQSC3SM97PDQ3Z7196","","","img/flower7.png","75","7","2","0","2","0.8,0.2,0.2,0.2,0.8,0.2,0.2,0.2,0.8",""
"null","","html-keyboard-response","342","508610","0.0-342.0","3DIP6YHAPDESN6181QGC3WXXCDQ8EB","A2BK9RMC0NOIH8","3TZDZ3Y0JSSRVQSC3SM97PDQ3Z7196","","","<img src=""img/flower7.png"" style=""width:200px;border:14px solid red;"">","null","","","","","",""
"27.5","","image-keyboard-response","343","508638","0.0-343.0","3DIP6YHAPDESN6181QGC3WXXCDQ8EB","A2BK9RMC0NOIH8","3TZDZ3Y0JSSRVQSC3SM97PDQ3Z7196","","","img/flower8.png","75","28","2","0","3","0.8,0.2,0.2,0.2,0.8,0.2,0.2,0.2,0.8",""
"null","","html-keyboard-response","344","508954","0.0-344.0","3DIP6YHAPDESN6181QGC3WXXCDQ8EB","A2BK9RMC0NOIH8","3TZDZ3Y0JSSRVQSC3SM97PDQ3Z7196","","","<img src=""img/flower8.png"" style=""width:200px;border:14px solid red;"">","null","","","","","",""
"51.599999994039536","","image-keyboard-response","345","509006","0.0-345.0","3DIP6YHAPDESN6181QGC3WXXCDQ8EB","A2BK9RMC0NOIH8","3TZDZ3Y0JSSRVQSC3SM97PDQ3Z7196","","","img/flower1.png","76","52.20000000298023","3","0","1","0.8,0.2,0.2,0.2,0.8,0.2,0.2,0.2,0.8",""
"null","","html-keyboard-response","346","509313","0.0-346.0","3DIP6YHAPDESN6181QGC3WXXCDQ8EB","A2BK9RMC0NOIH8","3TZDZ3Y0JSSRVQSC3SM97PDQ3Z7196","","","<img src=""img/flower1.png"" style=""width:200px;border:14px solid red;"">","null","","","","","",""
"236.70000000298023","","image-keyboard-response","347","509550","0.0-347.0","3DIP6YHAPDESN6181QGC3WXXCDQ8EB","A2BK9RMC0NOIH8","3TZDZ3Y0JSSRVQSC3SM97PDQ3Z7196","","","img/flower7.png","75","237.1000000089407","2","1","2","0.8,0.2,0.2,0.2,0.8,0.2,0.2,0.2,0.8",""
"null","","html-keyboard-response","348","509856","0.0-348.0","3DIP6YHAPDESN6181QGC3WXXCDQ8EB","A2BK9RMC0NOIH8","3TZDZ3Y0JSSRVQSC3SM97PDQ3Z7196","","","<img src=""img/flower7.png"" style=""width:200px; border:14px solid green;"">","null","","","","","",""
"29.5","","image-keyboard-response","349","509886","0.0-349.0","3DIP6YHAPDESN6181QGC3WXXCDQ8EB","A2BK9RMC0NOIH8","3TZDZ3Y0JSSRVQSC3SM97PDQ3Z7196","","","img/flower7.png","75","30.299999997019768","2","1","2","0.8,0.2,0.2,0.2,0.8,0.2,0.2,0.2,0.8",""
"null","","html-keyboard-response","350","510200","0.0-350.0","3DIP6YHAPDESN6181QGC3WXXCDQ8EB","A2BK9RMC0NOIH8","3TZDZ3Y0JSSRVQSC3SM97PDQ3Z7196","","","<img src=""img/flower7.png"" style=""width:200px; border:14px solid green;"">","null","","","","","",""
"285.90000000596046","","image-keyboard-response","351","510486","0.0-351.0","3DIP6YHAPDESN6181QGC3WXXCDQ8EB","A2BK9RMC0NOIH8","3TZDZ3Y0JSSRVQSC3SM97PDQ3Z7196","","","img/flower8.png","75","286.3999999910593","2","1","3","0.8,0.2,0.2,0.2,0.8,0.2,0.2,0.2,0.8",""
"null","","html-keyboard-response","352","510792","0.0-352.0","3DIP6YHAPDESN6181QGC3WXXCDQ8EB","A2BK9RMC0NOIH8","3TZDZ3Y0JSSRVQSC3SM97PDQ3Z7196","","","<img src=""img/flower8.png"" style=""width:200px; border:14px solid green;"">","null","","","","","",""
"381.20000000298023","","image-keyboard-response","353","511174","0.0-353.0","3DIP6YHAPDESN6181QGC3WXXCDQ8EB","A2BK9RMC0NOIH8","3TZDZ3Y0JSSRVQSC3SM97PDQ3Z7196","","","img/flower1.png","76","381.69999998807907","3","0","1","0.8,0.2,0.2,0.2,0.8,0.2,0.2,0.2,0.8",""
"null","","html-keyboard-response","354","511479","0.0-354.0","3DIP6YHAPDESN6181QGC3WXXCDQ8EB","A2BK9RMC0NOIH8","3TZDZ3Y0JSSRVQSC3SM97PDQ3Z7196","","","<img src=""img/flower1.png"" style=""width:200px;border:14px solid red;"">","null","","","","","",""
"6.5999999940395355","","image-keyboard-response","355","511486","0.0-355.0","3DIP6YHAPDESN6181QGC3WXXCDQ8EB","A2BK9RMC0NOIH8","3TZDZ3Y0JSSRVQSC3SM97PDQ3Z7196","","","img/flower1.png","76","7","3","0","1","0.8,0.2,0.2,0.2,0.8,0.2,0.2,0.2,0.8",""
"null","","html-keyboard-response","356","511791","0.0-356.0","3DIP6YHAPDESN6181QGC3WXXCDQ8EB","A2BK9RMC0NOIH8","3TZDZ3Y0JSSRVQSC3SM97PDQ3Z7196","","","<img src=""img/flower1.png"" style=""width:200px;border:14px solid red;"">","null","","","","","",""
"14.599999994039536","","image-keyboard-response","357","511806","0.0-357.0","3DIP6YHAPDESN6181QGC3WXXCDQ8EB","A2BK9RMC0NOIH8","3TZDZ3Y0JSSRVQSC3SM97PDQ3Z7196","","","img/flower7.png","75","14.900000005960464","2","0","2","0.8,0.2,0.2,0.2,0.8,0.2,0.2,0.2,0.8",""
"null","","html-keyboard-response","358","512121","0.0-358.0","3DIP6YHAPDESN6181QGC3WXXCDQ8EB","A2BK9RMC0NOIH8","3TZDZ3Y0JSSRVQSC3SM97PDQ3Z7196","","","<img src=""img/flower7.png"" style=""width:200px;border:14px solid red;"">","null","","","","","",""
"14.099999994039536","","image-keyboard-response","359","512135","0.0-359.0","3DIP6YHAPDESN6181QGC3WXXCDQ8EB","A2BK9RMC0NOIH8","3TZDZ3Y0JSSRVQSC3SM97PDQ3Z7196","","","img/flower7.png","74","14.899999991059303","1","1","2","0.8,0.2,0.2,0.2,0.8,0.2,0.2,0.2,0.8",""
"null","","html-keyboard-response","360","512452","0.0-360.0","3DIP6YHAPDESN6181QGC3WXXCDQ8EB","A2BK9RMC0NOIH8","3TZDZ3Y0JSSRVQSC3SM97PDQ3Z7196","","","<img src=""img/flower7.png"" style=""width:200px; border:14px solid green;"">","null","","","","","",""
"2.2999999970197678","","image-keyboard-response","361","512455","0.0-361.0","3DIP6YHAPDESN6181QGC3WXXCDQ8EB","A2BK9RMC0NOIH8","3TZDZ3Y0JSSRVQSC3SM97PDQ3Z7196","","","img/flower8.png","74","2.7000000029802322","1","0","3","0.8,0.2,0.2,0.2,0.8,0.2,0.2,0.2,0.8",""
"null","","html-keyboard-response","362","512764","0.0-362.0","3DIP6YHAPDESN6181QGC3WXXCDQ8EB","A2BK9RMC0NOIH8","3TZDZ3Y0JSSRVQSC3SM97PDQ3Z7196","","","<img src=""img/flower8.png"" style=""width:200px;border:14px solid red;"">","null","","","","","",""
"385","","image-keyboard-response","363","513150","0.0-363.0","3DIP6YHAPDESN6181QGC3WXXCDQ8EB","A2BK9RMC0NOIH8","3TZDZ3Y0JSSRVQSC3SM97PDQ3Z7196","","","img/flower1.png","76","385.3999999910593","3","0","1","0.8,0.2,0.2,0.2,0.8,0.2,0.2,0.2,0.8",""
"null","","html-keyboard-response","364","513453","0.0-364.0","3DIP6YHAPDESN6181QGC3WXXCDQ8EB","A2BK9RMC0NOIH8","3TZDZ3Y0JSSRVQSC3SM97PDQ3Z7196","","","<img src=""img/flower1.png"" style=""width:200px;border:14px solid red;"">","null","","","","","",""
"281","","image-keyboard-response","365","513734","0.0-365.0","3DIP6YHAPDESN6181QGC3WXXCDQ8EB","A2BK9RMC0NOIH8","3TZDZ3Y0JSSRVQSC3SM97PDQ3Z7196","","","img/flower7.png","75","281.79999999701977","2","1","2","0.8,0.2,0.2,0.2,0.8,0.2,0.2,0.2,0.8",""
"null","","html-keyboard-response","366","514047","0.0-366.0","3DIP6YHAPDESN6181QGC3WXXCDQ8EB","A2BK9RMC0NOIH8","3TZDZ3Y0JSSRVQSC3SM97PDQ3Z7196","","","<img src=""img/flower7.png"" style=""width:200px; border:14px solid green;"">","null","","","","","",""
"38.599999994039536","","image-keyboard-response","367","514086","0.0-367.0","3DIP6YHAPDESN6181QGC3WXXCDQ8EB","A2BK9RMC0NOIH8","3TZDZ3Y0JSSRVQSC3SM97PDQ3Z7196","","","img/flower1.png","75","39.20000000298023","2","0","1","0.8,0.2,0.2,0.2,0.8,0.2,0.2,0.2,0.8",""
"null","","html-keyboard-response","368","514392","0.0-368.0","3DIP6YHAPDESN6181QGC3WXXCDQ8EB","A2BK9RMC0NOIH8","3TZDZ3Y0JSSRVQSC3SM97PDQ3Z7196","","","<img src=""img/flower1.png"" style=""width:200px;border:14px solid red;"">","null","","","","","",""
"309.40000000596046","","image-keyboard-response","369","514702","0.0-369.0","3DIP6YHAPDESN6181QGC3WXXCDQ8EB","A2BK9RMC0NOIH8","3TZDZ3Y0JSSRVQSC3SM97PDQ3Z7196","","","img/flower8.png","74","309.90000000596046","1","0","3","0.8,0.2,0.2,0.2,0.8,0.2,0.2,0.2,0.8",""
"null","","html-keyboard-response","370","515015","0.0-370.0","3DIP6YHAPDESN6181QGC3WXXCDQ8EB","A2BK9RMC0NOIH8","3TZDZ3Y0JSSRVQSC3SM97PDQ3Z7196","","","<img src=""img/flower8.png"" style=""width:200px;border:14px solid red;"">","null","","","","","",""
"14.899999991059303","","image-keyboard-response","371","515031","0.0-371.0","3DIP6YHAPDESN6181QGC3WXXCDQ8EB","A2BK9RMC0NOIH8","3TZDZ3Y0JSSRVQSC3SM97PDQ3Z7196","","","img/flower1.png","75","15.299999997019768","2","0","1","0.8,0.2,0.2,0.2,0.8,0.2,0.2,0.2,0.8",""
"null","","html-keyboard-response","372","515343","0.0-372.0","3DIP6YHAPDESN6181QGC3WXXCDQ8EB","A2BK9RMC0NOIH8","3TZDZ3Y0JSSRVQSC3SM97PDQ3Z7196","","","<img src=""img/flower1.png"" style=""width:200px;border:14px solid red;"">","null","","","","","",""
"78.8999999910593","","image-keyboard-response","373","515422","0.0-373.0","3DIP6YHAPDESN6181QGC3WXXCDQ8EB","A2BK9RMC0NOIH8","3TZDZ3Y0JSSRVQSC3SM97PDQ3Z7196","","","img/flower1.png","75","79.40000000596046","2","0","1","0.8,0.2,0.2,0.2,0.8,0.2,0.2,0.2,0.8",""
"null","","html-keyboard-response","374","515733","0.0-374.0","3DIP6YHAPDESN6181QGC3WXXCDQ8EB","A2BK9RMC0NOIH8","3TZDZ3Y0JSSRVQSC3SM97PDQ3Z7196","","","<img src=""img/flower1.png"" style=""width:200px;border:14px solid red;"">","null","","","","","",""
"272.80000001192093","","image-keyboard-response","375","516007","0.0-375.0","3DIP6YHAPDESN6181QGC3WXXCDQ8EB","A2BK9RMC0NOIH8","3TZDZ3Y0JSSRVQSC3SM97PDQ3Z7196","","","img/flower8.png","75","273.19999998807907","2","0","3","0.8,0.2,0.2,0.2,0.8,0.2,0.2,0.2,0.8",""
"null","","html-keyboard-response","376","516313","0.0-376.0","3DIP6YHAPDESN6181QGC3WXXCDQ8EB","A2BK9RMC0NOIH8","3TZDZ3Y0JSSRVQSC3SM97PDQ3Z7196","","","<img src=""img/flower8.png"" style=""width:200px;border:14px solid red;"">","null","","","","","",""
"36.400000005960464","","image-keyboard-response","377","516350","0.0-377.0","3DIP6YHAPDESN6181QGC3WXXCDQ8EB","A2BK9RMC0NOIH8","3TZDZ3Y0JSSRVQSC3SM97PDQ3Z7196","","","img/flower8.png","75","36.900000005960464","2","0","3","0.8,0.2,0.2,0.2,0.8,0.2,0.2,0.2,0.8",""
"null","","html-keyboard-response","378","516656","0.0-378.0","3DIP6YHAPDESN6181QGC3WXXCDQ8EB","A2BK9RMC0NOIH8","3TZDZ3Y0JSSRVQSC3SM97PDQ3Z7196","","","<img src=""img/flower8.png"" style=""width:200px;border:14px solid red;"">","null","","","","","",""
"269.29999999701977","","image-keyboard-response","379","516926","0.0-379.0","3DIP6YHAPDESN6181QGC3WXXCDQ8EB","A2BK9RMC0NOIH8","3TZDZ3Y0JSSRVQSC3SM97PDQ3Z7196","","","img/flower7.png","76","269.69999998807907","3","0","2","0.8,0.2,0.2,0.2,0.8,0.2,0.2,0.2,0.8",""
"null","","html-keyboard-response","380","517239","0.0-380.0","3DIP6YHAPDESN6181QGC3WXXCDQ8EB","A2BK9RMC0NOIH8","3TZDZ3Y0JSSRVQSC3SM97PDQ3Z7196","","","<img src=""img/flower7.png"" style=""width:200px;border:14px solid red;"">","null","","","","","",""
"318.79999999701977","","image-keyboard-response","381","517558","0.0-381.0","3DIP6YHAPDESN6181QGC3WXXCDQ8EB","A2BK9RMC0NOIH8","3TZDZ3Y0JSSRVQSC3SM97PDQ3Z7196","","","img/flower7.png","74","319.3999999910593","1","1","2","0.8,0.2,0.2,0.2,0.8,0.2,0.2,0.2,0.8",""
"null","","html-keyboard-response","382","517860","0.0-382.0","3DIP6YHAPDESN6181QGC3WXXCDQ8EB","A2BK9RMC0NOIH8","3TZDZ3Y0JSSRVQSC3SM97PDQ3Z7196","","","<img src=""img/flower7.png"" style=""width:200px; border:14px solid green;"">","null","","","","","",""
"337.79999999701977","","image-keyboard-response","383","518198","0.0-383.0","3DIP6YHAPDESN6181QGC3WXXCDQ8EB","A2BK9RMC0NOIH8","3TZDZ3Y0JSSRVQSC3SM97PDQ3Z7196","","","img/flower1.png","74","338.20000000298023","1","1","1","0.8,0.2,0.2,0.2,0.8,0.2,0.2,0.2,0.8",""
"null","","html-keyboard-response","384","518510","0.0-384.0","3DIP6YHAPDESN6181QGC3WXXCDQ8EB","A2BK9RMC0NOIH8","3TZDZ3Y0JSSRVQSC3SM97PDQ3Z7196","","","<img src=""img/flower1.png"" style=""width:200px; border:14px solid green;"">","null","","","","","",""
"320.09999999403954","","image-keyboard-response","385","518830","0.0-385.0","3DIP6YHAPDESN6181QGC3WXXCDQ8EB","A2BK9RMC0NOIH8","3TZDZ3Y0JSSRVQSC3SM97PDQ3Z7196","","","img/flower7.png","74","320.59999999403954","1","0","2","0.8,0.2,0.2,0.2,0.8,0.2,0.2,0.2,0.8",""
"null","","html-keyboard-response","386","519133","0.0-386.0","3DIP6YHAPDESN6181QGC3WXXCDQ8EB","A2BK9RMC0NOIH8","3TZDZ3Y0JSSRVQSC3SM97PDQ3Z7196","","","<img src=""img/flower7.png"" style=""width:200px;border:14px solid red;"">","null","","","","","",""
"328.19999998807907","","image-keyboard-response","387","519462","0.0-387.0","3DIP6YHAPDESN6181QGC3WXXCDQ8EB","A2BK9RMC0NOIH8","3TZDZ3Y0JSSRVQSC3SM97PDQ3Z7196","","","img/flower8.png","76","328.70000000298023","3","1","3","0.8,0.2,0.2,0.2,0.8,0.2,0.2,0.2,0.8",""
"null","","html-keyboard-response","388","519773","0.0-388.0","3DIP6YHAPDESN6181QGC3WXXCDQ8EB","A2BK9RMC0NOIH8","3TZDZ3Y0JSSRVQSC3SM97PDQ3Z7196","","","<img src=""img/flower8.png"" style=""width:200px; border:14px solid green;"">","null","","","","","",""
"305","","image-keyboard-response","389","520078","0.0-389.0","3DIP6YHAPDESN6181QGC3WXXCDQ8EB","A2BK9RMC0NOIH8","3TZDZ3Y0JSSRVQSC3SM97PDQ3Z7196","","","img/flower1.png","75","305.6000000089407","2","0","1","0.8,0.2,0.2,0.2,0.8,0.2,0.2,0.2,0.8",""
"null","","html-keyboard-response","390","520384","0.0-390.0","3DIP6YHAPDESN6181QGC3WXXCDQ8EB","A2BK9RMC0NOIH8","3TZDZ3Y0JSSRVQSC3SM97PDQ3Z7196","","","<img src=""img/flower1.png"" style=""width:200px;border:14px solid red;"">","null","","","","","",""
"325.29999999701977","","image-keyboard-response","391","520710","0.0-391.0","3DIP6YHAPDESN6181QGC3WXXCDQ8EB","A2BK9RMC0NOIH8","3TZDZ3Y0JSSRVQSC3SM97PDQ3Z7196","","","img/flower8.png","74","326","1","1","3","0.8,0.2,0.2,0.2,0.8,0.2,0.2,0.2,0.8",""
"null","","html-keyboard-response","392","521023","0.0-392.0","3DIP6YHAPDESN6181QGC3WXXCDQ8EB","A2BK9RMC0NOIH8","3TZDZ3Y0JSSRVQSC3SM97PDQ3Z7196","","","<img src=""img/flower8.png"" style=""width:200px; border:14px solid green;"">","null","","","","","",""
"391","","image-keyboard-response","393","521414","0.0-393.0","3DIP6YHAPDESN6181QGC3WXXCDQ8EB","A2BK9RMC0NOIH8","3TZDZ3Y0JSSRVQSC3SM97PDQ3Z7196","","","img/flower7.png","75","391.3999999910593","2","1","2","0.8,0.2,0.2,0.2,0.8,0.2,0.2,0.2,0.8",""
"null","","html-keyboard-response","394","521722","0.0-394.0","3DIP6YHAPDESN6181QGC3WXXCDQ8EB","A2BK9RMC0NOIH8","3TZDZ3Y0JSSRVQSC3SM97PDQ3Z7196","","","<img src=""img/flower7.png"" style=""width:200px; border:14px solid green;"">","null","","","","","",""
"331.69999998807907","","image-keyboard-response","395","522054","0.0-395.0","3DIP6YHAPDESN6181QGC3WXXCDQ8EB","A2BK9RMC0NOIH8","3TZDZ3Y0JSSRVQSC3SM97PDQ3Z7196","","","img/flower1.png","76","332.1000000089407","3","0","1","0.8,0.2,0.2,0.2,0.8,0.2,0.2,0.2,0.8",""
"null","","html-keyboard-response","396","522366","0.0-396.0","3DIP6YHAPDESN6181QGC3WXXCDQ8EB","A2BK9RMC0NOIH8","3TZDZ3Y0JSSRVQSC3SM97PDQ3Z7196","","","<img src=""img/flower1.png"" style=""width:200px;border:14px solid red;"">","null","","","","","",""
"336.59999999403954","","image-keyboard-response","397","522703","0.0-397.0","3DIP6YHAPDESN6181QGC3WXXCDQ8EB","A2BK9RMC0NOIH8","3TZDZ3Y0JSSRVQSC3SM97PDQ3Z7196","","","img/flower7.png","74","337.1000000089407","1","0","2","0.8,0.2,0.2,0.2,0.8,0.2,0.2,0.2,0.8",""
"null","","html-keyboard-response","398","523007","0.0-398.0","3DIP6YHAPDESN6181QGC3WXXCDQ8EB","A2BK9RMC0NOIH8","3TZDZ3Y0JSSRVQSC3SM97PDQ3Z7196","","","<img src=""img/flower7.png"" style=""width:200px;border:14px solid red;"">","null","","","","","",""
"199","","image-keyboard-response","399","523206","0.0-399.0","3DIP6YHAPDESN6181QGC3WXXCDQ8EB","A2BK9RMC0NOIH8","3TZDZ3Y0JSSRVQSC3SM97PDQ3Z7196","","","img/flower7.png","74","199.40000000596046","1","0","2","0.8,0.2,0.2,0.2,0.8,0.2,0.2,0.2,0.8",""
"null","","html-keyboard-response","400","523520","0.0-400.0","3DIP6YHAPDESN6181QGC3WXXCDQ8EB","A2BK9RMC0NOIH8","3TZDZ3Y0JSSRVQSC3SM97PDQ3Z7196","","","<img src=""img/flower7.png"" style=""width:200px;border:14px solid red;"">","null","","","","","",""
