"success","trial_type","trial_index","time_elapsed","internal_node_id","assignmentID","mturkID","hitID","view_history","rt","stimulus","key_press","reactionTime","a","r","s","cond","reward_cond","reward_cond_actual","reward_matrix_idx","responses"
"true","fullscreen","0","3569","0.0-0.0","3EO896NRAXHJW6FOIP2YR86CZIJTJQ","A2CDPJ7FMJ4WHG","3HUR21WDDUBEMSLDIXZW1FAIHWSYXN","","","","","","","","","","","","",""
"","instructions","1","59798","0.0-1.0","3EO896NRAXHJW6FOIP2YR86CZIJTJQ","A2CDPJ7FMJ4WHG","3HUR21WDDUBEMSLDIXZW1FAIHWSYXN","[{""page_index"":0,""viewing_time"":8560.89999999106},{""page_index"":1,""viewing_time"":3733.1000000089407},{""page_index"":2,""viewing_time"":5500.199999988079},{""page_index"":3,""viewing_time"":9099.5},{""page_index"":4,""viewing_time"":10548.800000011921},{""page_index"":5,""viewing_time"":7000.29999999702},{""page_index"":6,""viewing_time"":9683.39999999106},{""page_index"":7,""viewing_time"":2099.5}]","56226.09999999404","","","","","","","","","","",""
"","image-keyboard-response","2","61805","0.0-2.0","3EO896NRAXHJW6FOIP2YR86CZIJTJQ","A2CDPJ7FMJ4WHG","3HUR21WDDUBEMSLDIXZW1FAIHWSYXN","","","img/flower4.png","","2005.7000000029802","-1","0","2","2","1,0,0,1,1,0,1,0,1","0,0,1,1,0,1,0,1,1","2",""
"","html-keyboard-response","3","62112","0.0-3.0","3EO896NRAXHJW6FOIP2YR86CZIJTJQ","A2CDPJ7FMJ4WHG","3HUR21WDDUBEMSLDIXZW1FAIHWSYXN","","null","<img src=""img/flower4.png"" style=""width:200px;border:14px solid red;"">","null","","","","","","","","",""
"","image-keyboard-response","4","64118","0.0-4.0","3EO896NRAXHJW6FOIP2YR86CZIJTJQ","A2CDPJ7FMJ4WHG","3HUR21WDDUBEMSLDIXZW1FAIHWSYXN","","","img/flower5.png","","2005.5","-1","0","1","2","1,0,0,1,1,0,1,0,1","0,0,1,1,0,1,0,1,1","2",""
"","html-keyboard-response","5","64423","0.0-5.0","3EO896NRAXHJW6FOIP2YR86CZIJTJQ","A2CDPJ7FMJ4WHG","3HUR21WDDUBEMSLDIXZW1FAIHWSYXN","","null","<img src=""img/flower5.png"" style=""width:200px;border:14px solid red;"">","null","","","","","","","","",""
"","image-keyboard-response","6","65556","0.0-6.0","3EO896NRAXHJW6FOIP2YR86CZIJTJQ","A2CDPJ7FMJ4WHG","3HUR21WDDUBEMSLDIXZW1FAIHWSYXN","","1131.7000000029802","img/flower1.png","74","1133","1","0","3","2","1,0,0,1,1,0,1,0,1","0,0,1,1,0,1,0,1,1","2",""
"","html-keyboard-response","7","65863","0.0-7.0","3EO896NRAXHJW6FOIP2YR86CZIJTJQ","A2CDPJ7FMJ4WHG","3HUR21WDDUBEMSLDIXZW1FAIHWSYXN","","null","<img src=""img/flower1.png"" style=""width:200px;border:14px solid red;"">","null","","","","","","","","",""
"","image-keyboard-response","8","67697","0.0-8.0","3EO896NRAXHJW6FOIP2YR86CZIJTJQ","A2CDPJ7FMJ4WHG","3HUR21WDDUBEMSLDIXZW1FAIHWSYXN","","1832.699999988079","img/flower5.png","75","1833.7999999970198","2","0","1","2","1,0,0,1,1,0,1,0,1","0,0,1,1,0,1,0,1,1","2",""
"","html-keyboard-response","9","68004","0.0-9.0","3EO896NRAXHJW6FOIP2YR86CZIJTJQ","A2CDPJ7FMJ4WHG","3HUR21WDDUBEMSLDIXZW1FAIHWSYXN","","null","<img src=""img/flower5.png"" style=""width:200px;border:14px solid red;"">","null","","","","","","","","",""
"","image-keyboard-response","10","69714","0.0-10.0","3EO896NRAXHJW6FOIP2YR86CZIJTJQ","A2CDPJ7FMJ4WHG","3HUR21WDDUBEMSLDIXZW1FAIHWSYXN","","1708.3999999910593","img/flower5.png","74","1709.7000000029802","1","0","1","2","1,0,0,1,1,0,1,0,1","0,0,1,1,0,1,0,1,1","2",""
"","html-keyboard-response","11","70019","0.0-11.0","3EO896NRAXHJW6FOIP2YR86CZIJTJQ","A2CDPJ7FMJ4WHG","3HUR21WDDUBEMSLDIXZW1FAIHWSYXN","","null","<img src=""img/flower5.png"" style=""width:200px;border:14px solid red;"">","null","","","","","","","","",""
"","image-keyboard-response","12","70224","0.0-12.0","3EO896NRAXHJW6FOIP2YR86CZIJTJQ","A2CDPJ7FMJ4WHG","3HUR21WDDUBEMSLDIXZW1FAIHWSYXN","","203.79999999701977","img/flower1.png","76","205","3","1","3","2","1,0,0,1,1,0,1,0,1","0,0,1,1,0,1,0,1,1","2",""
"","html-keyboard-response","13","70530","0.0-13.0","3EO896NRAXHJW6FOIP2YR86CZIJTJQ","A2CDPJ7FMJ4WHG","3HUR21WDDUBEMSLDIXZW1FAIHWSYXN","","null","<img src=""img/flower1.png"" style=""width:200px; border:14px solid green;"">","null","","","","","","","","",""
"","image-keyboard-response","14","71337","0.0-14.0","3EO896NRAXHJW6FOIP2YR86CZIJTJQ","A2CDPJ7FMJ4WHG","3HUR21WDDUBEMSLDIXZW1FAIHWSYXN","","805.7000000029802","img/flower5.png","76","806.8000000119209","3","1","1","2","1,0,0,1,1,0,1,0,1","0,0,1,1,0,1,0,1,1","2",""
"","html-keyboard-response","15","71644","0.0-15.0","3EO896NRAXHJW6FOIP2YR86CZIJTJQ","A2CDPJ7FMJ4WHG","3HUR21WDDUBEMSLDIXZW1FAIHWSYXN","","null","<img src=""img/flower5.png"" style=""width:200px; border:14px solid green;"">","null","","","","","","","","",""
"","image-keyboard-response","16","72874","0.0-16.0","3EO896NRAXHJW6FOIP2YR86CZIJTJQ","A2CDPJ7FMJ4WHG","3HUR21WDDUBEMSLDIXZW1FAIHWSYXN","","1228.5","img/flower4.png","76","1229.699999988079","3","1","2","2","1,0,0,1,1,0,1,0,1","0,0,1,1,0,1,0,1,1","2",""
"","html-keyboard-response","17","73180","0.0-17.0","3EO896NRAXHJW6FOIP2YR86CZIJTJQ","A2CDPJ7FMJ4WHG","3HUR21WDDUBEMSLDIXZW1FAIHWSYXN","","null","<img src=""img/flower4.png"" style=""width:200px; border:14px solid green;"">","null","","","","","","","","",""
"","image-keyboard-response","18","74790","0.0-18.0","3EO896NRAXHJW6FOIP2YR86CZIJTJQ","A2CDPJ7FMJ4WHG","3HUR21WDDUBEMSLDIXZW1FAIHWSYXN","","1607.9000000059605","img/flower4.png","76","1609.1000000089407","3","1","2","2","1,0,0,1,1,0,1,0,1","0,0,1,1,0,1,0,1,1","2",""
"","html-keyboard-response","19","75093","0.0-19.0","3EO896NRAXHJW6FOIP2YR86CZIJTJQ","A2CDPJ7FMJ4WHG","3HUR21WDDUBEMSLDIXZW1FAIHWSYXN","","null","<img src=""img/flower4.png"" style=""width:200px; border:14px solid green;"">","null","","","","","","","","",""
"","image-keyboard-response","20","75704","0.0-20.0","3EO896NRAXHJW6FOIP2YR86CZIJTJQ","A2CDPJ7FMJ4WHG","3HUR21WDDUBEMSLDIXZW1FAIHWSYXN","","608.8000000119209","img/flower1.png","76","610.1000000089407","3","1","3","2","1,0,0,1,1,0,1,0,1","0,0,1,1,0,1,0,1,1","2",""
"","html-keyboard-response","21","76008","0.0-21.0","3EO896NRAXHJW6FOIP2YR86CZIJTJQ","A2CDPJ7FMJ4WHG","3HUR21WDDUBEMSLDIXZW1FAIHWSYXN","","null","<img src=""img/flower1.png"" style=""width:200px; border:14px solid green;"">","null","","","","","","","","",""
"","image-keyboard-response","22","77255","0.0-22.0","3EO896NRAXHJW6FOIP2YR86CZIJTJQ","A2CDPJ7FMJ4WHG","3HUR21WDDUBEMSLDIXZW1FAIHWSYXN","","1245.5999999940395","img/flower1.png","76","1246.7000000029802","3","1","3","2","1,0,0,1,1,0,1,0,1","0,0,1,1,0,1,0,1,1","2",""
"","html-keyboard-response","23","77560","0.0-23.0","3EO896NRAXHJW6FOIP2YR86CZIJTJQ","A2CDPJ7FMJ4WHG","3HUR21WDDUBEMSLDIXZW1FAIHWSYXN","","null","<img src=""img/flower1.png"" style=""width:200px; border:14px solid green;"">","null","","","","","","","","",""
"","image-keyboard-response","24","78122","0.0-24.0","3EO896NRAXHJW6FOIP2YR86CZIJTJQ","A2CDPJ7FMJ4WHG","3HUR21WDDUBEMSLDIXZW1FAIHWSYXN","","560.3999999910593","img/flower1.png","76","561.5999999940395","3","1","3","2","1,0,0,1,1,0,1,0,1","0,0,1,1,0,1,0,1,1","2",""
"","html-keyboard-response","25","78429","0.0-25.0","3EO896NRAXHJW6FOIP2YR86CZIJTJQ","A2CDPJ7FMJ4WHG","3HUR21WDDUBEMSLDIXZW1FAIHWSYXN","","null","<img src=""img/flower1.png"" style=""width:200px; border:14px solid green;"">","null","","","","","","","","",""
"","image-keyboard-response","26","80433","0.0-26.0","3EO896NRAXHJW6FOIP2YR86CZIJTJQ","A2CDPJ7FMJ4WHG","3HUR21WDDUBEMSLDIXZW1FAIHWSYXN","","","img/flower4.png","","2003.8999999910593","-1","0","2","2","1,0,0,1,1,0,1,0,1","0,0,1,1,0,1,0,1,1","2",""
"","html-keyboard-response","27","80737","0.0-27.0","3EO896NRAXHJW6FOIP2YR86CZIJTJQ","A2CDPJ7FMJ4WHG","3HUR21WDDUBEMSLDIXZW1FAIHWSYXN","","null","<img src=""img/flower4.png"" style=""width:200px;border:14px solid red;"">","null","","","","","","","","",""
"","image-keyboard-response","28","81300","0.0-28.0","3EO896NRAXHJW6FOIP2YR86CZIJTJQ","A2CDPJ7FMJ4WHG","3HUR21WDDUBEMSLDIXZW1FAIHWSYXN","","561.7000000029802","img/flower5.png","76","562.5999999940395","3","1","1","2","1,0,0,1,1,0,1,0,1","0,0,1,1,0,1,0,1,1","2",""
"","html-keyboard-response","29","81605","0.0-29.0","3EO896NRAXHJW6FOIP2YR86CZIJTJQ","A2CDPJ7FMJ4WHG","3HUR21WDDUBEMSLDIXZW1FAIHWSYXN","","null","<img src=""img/flower5.png"" style=""width:200px; border:14px solid green;"">","null","","","","","","","","",""
"","image-keyboard-response","30","81999","0.0-30.0","3EO896NRAXHJW6FOIP2YR86CZIJTJQ","A2CDPJ7FMJ4WHG","3HUR21WDDUBEMSLDIXZW1FAIHWSYXN","","393.6000000089407","img/flower1.png","76","394.59999999403954","3","1","3","2","1,0,0,1,1,0,1,0,1","0,0,1,1,0,1,0,1,1","2",""
"","html-keyboard-response","31","82305","0.0-31.0","3EO896NRAXHJW6FOIP2YR86CZIJTJQ","A2CDPJ7FMJ4WHG","3HUR21WDDUBEMSLDIXZW1FAIHWSYXN","","null","<img src=""img/flower1.png"" style=""width:200px; border:14px solid green;"">","null","","","","","","","","",""
"","image-keyboard-response","32","82638","0.0-32.0","3EO896NRAXHJW6FOIP2YR86CZIJTJQ","A2CDPJ7FMJ4WHG","3HUR21WDDUBEMSLDIXZW1FAIHWSYXN","","332","img/flower4.png","76","333","3","1","2","2","1,0,0,1,1,0,1,0,1","0,0,1,1,0,1,0,1,1","2",""
"","html-keyboard-response","33","82945","0.0-33.0","3EO896NRAXHJW6FOIP2YR86CZIJTJQ","A2CDPJ7FMJ4WHG","3HUR21WDDUBEMSLDIXZW1FAIHWSYXN","","null","<img src=""img/flower4.png"" style=""width:200px; border:14px solid green;"">","null","","","","","","","","",""
"","image-keyboard-response","34","83233","0.0-34.0","3EO896NRAXHJW6FOIP2YR86CZIJTJQ","A2CDPJ7FMJ4WHG","3HUR21WDDUBEMSLDIXZW1FAIHWSYXN","","287","img/flower1.png","76","288.09999999403954","3","1","3","2","1,0,0,1,1,0,1,0,1","0,0,1,1,0,1,0,1,1","2",""
"","html-keyboard-response","35","83540","0.0-35.0","3EO896NRAXHJW6FOIP2YR86CZIJTJQ","A2CDPJ7FMJ4WHG","3HUR21WDDUBEMSLDIXZW1FAIHWSYXN","","null","<img src=""img/flower1.png"" style=""width:200px; border:14px solid green;"">","null","","","","","","","","",""
"","image-keyboard-response","36","83796","0.0-36.0","3EO896NRAXHJW6FOIP2YR86CZIJTJQ","A2CDPJ7FMJ4WHG","3HUR21WDDUBEMSLDIXZW1FAIHWSYXN","","255.1000000089407","img/flower4.png","76","256.30000001192093","3","1","2","2","1,0,0,1,1,0,1,0,1","0,0,1,1,0,1,0,1,1","2",""
"","html-keyboard-response","37","84102","0.0-37.0","3EO896NRAXHJW6FOIP2YR86CZIJTJQ","A2CDPJ7FMJ4WHG","3HUR21WDDUBEMSLDIXZW1FAIHWSYXN","","null","<img src=""img/flower4.png"" style=""width:200px; border:14px solid green;"">","null","","","","","","","","",""
"","image-keyboard-response","38","84626","0.0-38.0","3EO896NRAXHJW6FOIP2YR86CZIJTJQ","A2CDPJ7FMJ4WHG","3HUR21WDDUBEMSLDIXZW1FAIHWSYXN","","523.5","img/flower4.png","76","524.6000000089407","3","1","2","2","1,0,0,1,1,0,1,0,1","0,0,1,1,0,1,0,1,1","2",""
"","html-keyboard-response","39","84933","0.0-39.0","3EO896NRAXHJW6FOIP2YR86CZIJTJQ","A2CDPJ7FMJ4WHG","3HUR21WDDUBEMSLDIXZW1FAIHWSYXN","","null","<img src=""img/flower4.png"" style=""width:200px; border:14px solid green;"">","null","","","","","","","","",""
"","image-keyboard-response","40","85326","0.0-40.0","3EO896NRAXHJW6FOIP2YR86CZIJTJQ","A2CDPJ7FMJ4WHG","3HUR21WDDUBEMSLDIXZW1FAIHWSYXN","","391.29999999701977","img/flower1.png","76","392.09999999403954","3","1","3","2","1,0,0,1,1,0,1,0,1","0,0,1,1,0,1,0,1,1","2",""
"","html-keyboard-response","41","85631","0.0-41.0","3EO896NRAXHJW6FOIP2YR86CZIJTJQ","A2CDPJ7FMJ4WHG","3HUR21WDDUBEMSLDIXZW1FAIHWSYXN","","null","<img src=""img/flower1.png"" style=""width:200px; border:14px solid green;"">","null","","","","","","","","",""
"","image-keyboard-response","42","85911","0.0-42.0","3EO896NRAXHJW6FOIP2YR86CZIJTJQ","A2CDPJ7FMJ4WHG","3HUR21WDDUBEMSLDIXZW1FAIHWSYXN","","279","img/flower1.png","76","279.90000000596046","3","1","3","2","1,0,0,1,1,0,1,0,1","0,0,1,1,0,1,0,1,1","2",""
"","html-keyboard-response","43","86213","0.0-43.0","3EO896NRAXHJW6FOIP2YR86CZIJTJQ","A2CDPJ7FMJ4WHG","3HUR21WDDUBEMSLDIXZW1FAIHWSYXN","","null","<img src=""img/flower1.png"" style=""width:200px; border:14px solid green;"">","null","","","","","","","","",""
"","image-keyboard-response","44","86545","0.0-44.0","3EO896NRAXHJW6FOIP2YR86CZIJTJQ","A2CDPJ7FMJ4WHG","3HUR21WDDUBEMSLDIXZW1FAIHWSYXN","","330.70000000298023","img/flower1.png","76","331.59999999403954","3","1","3","2","1,0,0,1,1,0,1,0,1","0,0,1,1,0,1,0,1,1","2",""
"","html-keyboard-response","45","86848","0.0-45.0","3EO896NRAXHJW6FOIP2YR86CZIJTJQ","A2CDPJ7FMJ4WHG","3HUR21WDDUBEMSLDIXZW1FAIHWSYXN","","null","<img src=""img/flower1.png"" style=""width:200px; border:14px solid green;"">","null","","","","","","","","",""
"","image-keyboard-response","46","87280","0.0-46.0","3EO896NRAXHJW6FOIP2YR86CZIJTJQ","A2CDPJ7FMJ4WHG","3HUR21WDDUBEMSLDIXZW1FAIHWSYXN","","431.30000001192093","img/flower5.png","76","432.30000001192093","3","1","1","2","1,0,0,1,1,0,1,0,1","0,0,1,1,0,1,0,1,1","2",""
"","html-keyboard-response","47","87586","0.0-47.0","3EO896NRAXHJW6FOIP2YR86CZIJTJQ","A2CDPJ7FMJ4WHG","3HUR21WDDUBEMSLDIXZW1FAIHWSYXN","","null","<img src=""img/flower5.png"" style=""width:200px; border:14px solid green;"">","null","","","","","","","","",""
"","image-keyboard-response","48","87896","0.0-48.0","3EO896NRAXHJW6FOIP2YR86CZIJTJQ","A2CDPJ7FMJ4WHG","3HUR21WDDUBEMSLDIXZW1FAIHWSYXN","","309","img/flower5.png","76","310.1000000089407","3","1","1","2","1,0,0,1,1,0,1,0,1","0,0,1,1,0,1,0,1,1","2",""
"","html-keyboard-response","49","88198","0.0-49.0","3EO896NRAXHJW6FOIP2YR86CZIJTJQ","A2CDPJ7FMJ4WHG","3HUR21WDDUBEMSLDIXZW1FAIHWSYXN","","null","<img src=""img/flower5.png"" style=""width:200px; border:14px solid green;"">","null","","","","","","","","",""
"","image-keyboard-response","50","88533","0.0-50.0","3EO896NRAXHJW6FOIP2YR86CZIJTJQ","A2CDPJ7FMJ4WHG","3HUR21WDDUBEMSLDIXZW1FAIHWSYXN","","333.29999999701977","img/flower1.png","76","334.19999998807907","3","1","3","2","1,0,0,1,1,0,1,0,1","0,0,1,1,0,1,0,1,1","2",""
"","html-keyboard-response","51","88839","0.0-51.0","3EO896NRAXHJW6FOIP2YR86CZIJTJQ","A2CDPJ7FMJ4WHG","3HUR21WDDUBEMSLDIXZW1FAIHWSYXN","","null","<img src=""img/flower1.png"" style=""width:200px; border:14px solid green;"">","null","","","","","","","","",""
"","image-keyboard-response","52","89285","0.0-52.0","3EO896NRAXHJW6FOIP2YR86CZIJTJQ","A2CDPJ7FMJ4WHG","3HUR21WDDUBEMSLDIXZW1FAIHWSYXN","","444.79999999701977","img/flower4.png","76","445.70000000298023","3","1","2","2","1,0,0,1,1,0,1,0,1","0,0,1,1,0,1,0,1,1","2",""
"","html-keyboard-response","53","89589","0.0-53.0","3EO896NRAXHJW6FOIP2YR86CZIJTJQ","A2CDPJ7FMJ4WHG","3HUR21WDDUBEMSLDIXZW1FAIHWSYXN","","null","<img src=""img/flower4.png"" style=""width:200px; border:14px solid green;"">","null","","","","","","","","",""
"","image-keyboard-response","54","89872","0.0-54.0","3EO896NRAXHJW6FOIP2YR86CZIJTJQ","A2CDPJ7FMJ4WHG","3HUR21WDDUBEMSLDIXZW1FAIHWSYXN","","281.59999999403954","img/flower1.png","76","282.59999999403954","3","1","3","2","1,0,0,1,1,0,1,0,1","0,0,1,1,0,1,0,1,1","2",""
"","html-keyboard-response","55","90179","0.0-55.0","3EO896NRAXHJW6FOIP2YR86CZIJTJQ","A2CDPJ7FMJ4WHG","3HUR21WDDUBEMSLDIXZW1FAIHWSYXN","","null","<img src=""img/flower1.png"" style=""width:200px; border:14px solid green;"">","null","","","","","","","","",""
"","image-keyboard-response","56","90430","0.0-56.0","3EO896NRAXHJW6FOIP2YR86CZIJTJQ","A2CDPJ7FMJ4WHG","3HUR21WDDUBEMSLDIXZW1FAIHWSYXN","","250.1000000089407","img/flower5.png","76","251.19999998807907","3","1","1","2","1,0,0,1,1,0,1,0,1","0,0,1,1,0,1,0,1,1","2",""
"","html-keyboard-response","57","90736","0.0-57.0","3EO896NRAXHJW6FOIP2YR86CZIJTJQ","A2CDPJ7FMJ4WHG","3HUR21WDDUBEMSLDIXZW1FAIHWSYXN","","null","<img src=""img/flower5.png"" style=""width:200px; border:14px solid green;"">","null","","","","","","","","",""
"","image-keyboard-response","58","90929","0.0-58.0","3EO896NRAXHJW6FOIP2YR86CZIJTJQ","A2CDPJ7FMJ4WHG","3HUR21WDDUBEMSLDIXZW1FAIHWSYXN","","191.6000000089407","img/flower5.png","76","192.69999998807907","3","1","1","2","1,0,0,1,1,0,1,0,1","0,0,1,1,0,1,0,1,1","2",""
"","html-keyboard-response","59","91235","0.0-59.0","3EO896NRAXHJW6FOIP2YR86CZIJTJQ","A2CDPJ7FMJ4WHG","3HUR21WDDUBEMSLDIXZW1FAIHWSYXN","","null","<img src=""img/flower5.png"" style=""width:200px; border:14px solid green;"">","null","","","","","","","","",""
"","image-keyboard-response","60","91498","0.0-60.0","3EO896NRAXHJW6FOIP2YR86CZIJTJQ","A2CDPJ7FMJ4WHG","3HUR21WDDUBEMSLDIXZW1FAIHWSYXN","","262.29999999701977","img/flower5.png","76","263.3999999910593","3","1","1","2","1,0,0,1,1,0,1,0,1","0,0,1,1,0,1,0,1,1","2",""
"","html-keyboard-response","61","91803","0.0-61.0","3EO896NRAXHJW6FOIP2YR86CZIJTJQ","A2CDPJ7FMJ4WHG","3HUR21WDDUBEMSLDIXZW1FAIHWSYXN","","null","<img src=""img/flower5.png"" style=""width:200px; border:14px solid green;"">","null","","","","","","","","",""
"","image-keyboard-response","62","92030","0.0-62.0","3EO896NRAXHJW6FOIP2YR86CZIJTJQ","A2CDPJ7FMJ4WHG","3HUR21WDDUBEMSLDIXZW1FAIHWSYXN","","225.8999999910593","img/flower4.png","76","226.90000000596046","3","1","2","2","1,0,0,1,1,0,1,0,1","0,0,1,1,0,1,0,1,1","2",""
"","html-keyboard-response","63","92337","0.0-63.0","3EO896NRAXHJW6FOIP2YR86CZIJTJQ","A2CDPJ7FMJ4WHG","3HUR21WDDUBEMSLDIXZW1FAIHWSYXN","","null","<img src=""img/flower4.png"" style=""width:200px; border:14px solid green;"">","null","","","","","","","","",""
"","image-keyboard-response","64","92572","0.0-64.0","3EO896NRAXHJW6FOIP2YR86CZIJTJQ","A2CDPJ7FMJ4WHG","3HUR21WDDUBEMSLDIXZW1FAIHWSYXN","","233.69999998807907","img/flower5.png","76","234.90000000596046","3","1","1","2","1,0,0,1,1,0,1,0,1","0,0,1,1,0,1,0,1,1","2",""
"","html-keyboard-response","65","92875","0.0-65.0","3EO896NRAXHJW6FOIP2YR86CZIJTJQ","A2CDPJ7FMJ4WHG","3HUR21WDDUBEMSLDIXZW1FAIHWSYXN","","null","<img src=""img/flower5.png"" style=""width:200px; border:14px solid green;"">","null","","","","","","","","",""
"","image-keyboard-response","66","93135","0.0-66.0","3EO896NRAXHJW6FOIP2YR86CZIJTJQ","A2CDPJ7FMJ4WHG","3HUR21WDDUBEMSLDIXZW1FAIHWSYXN","","259","img/flower4.png","76","260.09999999403954","3","1","2","2","1,0,0,1,1,0,1,0,1","0,0,1,1,0,1,0,1,1","2",""
"","html-keyboard-response","67","93442","0.0-67.0","3EO896NRAXHJW6FOIP2YR86CZIJTJQ","A2CDPJ7FMJ4WHG","3HUR21WDDUBEMSLDIXZW1FAIHWSYXN","","null","<img src=""img/flower4.png"" style=""width:200px; border:14px solid green;"">","null","","","","","","","","",""
"","image-keyboard-response","68","93668","0.0-68.0","3EO896NRAXHJW6FOIP2YR86CZIJTJQ","A2CDPJ7FMJ4WHG","3HUR21WDDUBEMSLDIXZW1FAIHWSYXN","","225.09999999403954","img/flower5.png","76","226.20000000298023","3","1","1","2","1,0,0,1,1,0,1,0,1","0,0,1,1,0,1,0,1,1","2",""
"","html-keyboard-response","69","93970","0.0-69.0","3EO896NRAXHJW6FOIP2YR86CZIJTJQ","A2CDPJ7FMJ4WHG","3HUR21WDDUBEMSLDIXZW1FAIHWSYXN","","null","<img src=""img/flower5.png"" style=""width:200px; border:14px solid green;"">","null","","","","","","","","",""
"","image-keyboard-response","70","94222","0.0-70.0","3EO896NRAXHJW6FOIP2YR86CZIJTJQ","A2CDPJ7FMJ4WHG","3HUR21WDDUBEMSLDIXZW1FAIHWSYXN","","250.90000000596046","img/flower1.png","76","252.19999998807907","3","1","3","2","1,0,0,1,1,0,1,0,1","0,0,1,1,0,1,0,1,1","2",""
"","html-keyboard-response","71","94529","0.0-71.0","3EO896NRAXHJW6FOIP2YR86CZIJTJQ","A2CDPJ7FMJ4WHG","3HUR21WDDUBEMSLDIXZW1FAIHWSYXN","","null","<img src=""img/flower1.png"" style=""width:200px; border:14px solid green;"">","null","","","","","","","","",""
"","image-keyboard-response","72","94773","0.0-72.0","3EO896NRAXHJW6FOIP2YR86CZIJTJQ","A2CDPJ7FMJ4WHG","3HUR21WDDUBEMSLDIXZW1FAIHWSYXN","","242.59999999403954","img/flower1.png","76","243.8999999910593","3","1","3","2","1,0,0,1,1,0,1,0,1","0,0,1,1,0,1,0,1,1","2",""
"","html-keyboard-response","73","95080","0.0-73.0","3EO896NRAXHJW6FOIP2YR86CZIJTJQ","A2CDPJ7FMJ4WHG","3HUR21WDDUBEMSLDIXZW1FAIHWSYXN","","null","<img src=""img/flower1.png"" style=""width:200px; border:14px solid green;"">","null","","","","","","","","",""
"","image-keyboard-response","74","95306","0.0-74.0","3EO896NRAXHJW6FOIP2YR86CZIJTJQ","A2CDPJ7FMJ4WHG","3HUR21WDDUBEMSLDIXZW1FAIHWSYXN","","224.70000000298023","img/flower5.png","76","225.59999999403954","3","1","1","2","1,0,0,1,1,0,1,0,1","0,0,1,1,0,1,0,1,1","2",""
"","html-keyboard-response","75","95612","0.0-75.0","3EO896NRAXHJW6FOIP2YR86CZIJTJQ","A2CDPJ7FMJ4WHG","3HUR21WDDUBEMSLDIXZW1FAIHWSYXN","","null","<img src=""img/flower5.png"" style=""width:200px; border:14px solid green;"">","null","","","","","","","","",""
"","image-keyboard-response","76","95828","0.0-76.0","3EO896NRAXHJW6FOIP2YR86CZIJTJQ","A2CDPJ7FMJ4WHG","3HUR21WDDUBEMSLDIXZW1FAIHWSYXN","","214.29999999701977","img/flower5.png","76","215.40000000596046","3","1","1","2","1,0,0,1,1,0,1,0,1","0,0,1,1,0,1,0,1,1","2",""
"","html-keyboard-response","77","96135","0.0-77.0","3EO896NRAXHJW6FOIP2YR86CZIJTJQ","A2CDPJ7FMJ4WHG","3HUR21WDDUBEMSLDIXZW1FAIHWSYXN","","null","<img src=""img/flower5.png"" style=""width:200px; border:14px solid green;"">","null","","","","","","","","",""
"","image-keyboard-response","78","96360","0.0-78.0","3EO896NRAXHJW6FOIP2YR86CZIJTJQ","A2CDPJ7FMJ4WHG","3HUR21WDDUBEMSLDIXZW1FAIHWSYXN","","224.09999999403954","img/flower1.png","76","225.20000000298023","3","1","3","2","1,0,0,1,1,0,1,0,1","0,0,1,1,0,1,0,1,1","2",""
"","html-keyboard-response","79","96664","0.0-79.0","3EO896NRAXHJW6FOIP2YR86CZIJTJQ","A2CDPJ7FMJ4WHG","3HUR21WDDUBEMSLDIXZW1FAIHWSYXN","","null","<img src=""img/flower1.png"" style=""width:200px; border:14px solid green;"">","null","","","","","","","","",""
"","image-keyboard-response","80","96860","0.0-80.0","3EO896NRAXHJW6FOIP2YR86CZIJTJQ","A2CDPJ7FMJ4WHG","3HUR21WDDUBEMSLDIXZW1FAIHWSYXN","","194.59999999403954","img/flower4.png","76","195.70000000298023","3","1","2","2","1,0,0,1,1,0,1,0,1","0,0,1,1,0,1,0,1,1","2",""
"","html-keyboard-response","81","97165","0.0-81.0","3EO896NRAXHJW6FOIP2YR86CZIJTJQ","A2CDPJ7FMJ4WHG","3HUR21WDDUBEMSLDIXZW1FAIHWSYXN","","null","<img src=""img/flower4.png"" style=""width:200px; border:14px solid green;"">","null","","","","","","","","",""
"","image-keyboard-response","82","97345","0.0-82.0","3EO896NRAXHJW6FOIP2YR86CZIJTJQ","A2CDPJ7FMJ4WHG","3HUR21WDDUBEMSLDIXZW1FAIHWSYXN","","179","img/flower5.png","75","180.1000000089407","2","0","1","2","1,0,0,1,1,0,1,0,1","0,0,1,1,0,1,0,1,1","2",""
"","html-keyboard-response","83","97655","0.0-83.0","3EO896NRAXHJW6FOIP2YR86CZIJTJQ","A2CDPJ7FMJ4WHG","3HUR21WDDUBEMSLDIXZW1FAIHWSYXN","","null","<img src=""img/flower5.png"" style=""width:200px;border:14px solid red;"">","null","","","","","","","","",""
"","image-keyboard-response","84","97813","0.0-84.0","3EO896NRAXHJW6FOIP2YR86CZIJTJQ","A2CDPJ7FMJ4WHG","3HUR21WDDUBEMSLDIXZW1FAIHWSYXN","","157.1000000089407","img/flower5.png","76","158","3","1","1","2","1,0,0,1,1,0,1,0,1","0,0,1,1,0,1,0,1,1","2",""
"","html-keyboard-response","85","98119","0.0-85.0","3EO896NRAXHJW6FOIP2YR86CZIJTJQ","A2CDPJ7FMJ4WHG","3HUR21WDDUBEMSLDIXZW1FAIHWSYXN","","null","<img src=""img/flower5.png"" style=""width:200px; border:14px solid green;"">","null","","","","","","","","",""
"","image-keyboard-response","86","98364","0.0-86.0","3EO896NRAXHJW6FOIP2YR86CZIJTJQ","A2CDPJ7FMJ4WHG","3HUR21WDDUBEMSLDIXZW1FAIHWSYXN","","243.70000000298023","img/flower4.png","76","244.70000000298023","3","1","2","2","1,0,0,1,1,0,1,0,1","0,0,1,1,0,1,0,1,1","2",""
"","html-keyboard-response","87","98669","0.0-87.0","3EO896NRAXHJW6FOIP2YR86CZIJTJQ","A2CDPJ7FMJ4WHG","3HUR21WDDUBEMSLDIXZW1FAIHWSYXN","","null","<img src=""img/flower4.png"" style=""width:200px; border:14px solid green;"">","null","","","","","","","","",""
"","image-keyboard-response","88","98782","0.0-88.0","3EO896NRAXHJW6FOIP2YR86CZIJTJQ","A2CDPJ7FMJ4WHG","3HUR21WDDUBEMSLDIXZW1FAIHWSYXN","","111.70000000298023","img/flower4.png","74","113","1","1","2","2","1,0,0,1,1,0,1,0,1","0,0,1,1,0,1,0,1,1","2",""
"","html-keyboard-response","89","99087","0.0-89.0","3EO896NRAXHJW6FOIP2YR86CZIJTJQ","A2CDPJ7FMJ4WHG","3HUR21WDDUBEMSLDIXZW1FAIHWSYXN","","null","<img src=""img/flower4.png"" style=""width:200px; border:14px solid green;"">","null","","","","","","","","",""
"","image-keyboard-response","90","99375","0.0-90.0","3EO896NRAXHJW6FOIP2YR86CZIJTJQ","A2CDPJ7FMJ4WHG","3HUR21WDDUBEMSLDIXZW1FAIHWSYXN","","286.30000001192093","img/flower4.png","76","287.3999999910593","3","1","2","2","1,0,0,1,1,0,1,0,1","0,0,1,1,0,1,0,1,1","2",""
"","html-keyboard-response","91","99682","0.0-91.0","3EO896NRAXHJW6FOIP2YR86CZIJTJQ","A2CDPJ7FMJ4WHG","3HUR21WDDUBEMSLDIXZW1FAIHWSYXN","","null","<img src=""img/flower4.png"" style=""width:200px; border:14px solid green;"">","null","","","","","","","","",""
"","image-keyboard-response","92","99929","0.0-92.0","3EO896NRAXHJW6FOIP2YR86CZIJTJQ","A2CDPJ7FMJ4WHG","3HUR21WDDUBEMSLDIXZW1FAIHWSYXN","","245.5","img/flower5.png","74","246.59999999403954","1","0","1","2","1,0,0,1,1,0,1,0,1","0,0,1,1,0,1,0,1,1","2",""
"","html-keyboard-response","93","100234","0.0-93.0","3EO896NRAXHJW6FOIP2YR86CZIJTJQ","A2CDPJ7FMJ4WHG","3HUR21WDDUBEMSLDIXZW1FAIHWSYXN","","null","<img src=""img/flower5.png"" style=""width:200px;border:14px solid red;"">","null","","","","","","","","",""
"","image-keyboard-response","94","100457","0.0-94.0","3EO896NRAXHJW6FOIP2YR86CZIJTJQ","A2CDPJ7FMJ4WHG","3HUR21WDDUBEMSLDIXZW1FAIHWSYXN","","221.5","img/flower5.png","76","222.70000000298023","3","1","1","2","1,0,0,1,1,0,1,0,1","0,0,1,1,0,1,0,1,1","2",""
"","html-keyboard-response","95","100764","0.0-95.0","3EO896NRAXHJW6FOIP2YR86CZIJTJQ","A2CDPJ7FMJ4WHG","3HUR21WDDUBEMSLDIXZW1FAIHWSYXN","","null","<img src=""img/flower5.png"" style=""width:200px; border:14px solid green;"">","null","","","","","","","","",""
"","image-keyboard-response","96","100984","0.0-96.0","3EO896NRAXHJW6FOIP2YR86CZIJTJQ","A2CDPJ7FMJ4WHG","3HUR21WDDUBEMSLDIXZW1FAIHWSYXN","","218.69999998807907","img/flower4.png","76","219.70000000298023","3","1","2","2","1,0,0,1,1,0,1,0,1","0,0,1,1,0,1,0,1,1","2",""
"","html-keyboard-response","97","101289","0.0-97.0","3EO896NRAXHJW6FOIP2YR86CZIJTJQ","A2CDPJ7FMJ4WHG","3HUR21WDDUBEMSLDIXZW1FAIHWSYXN","","null","<img src=""img/flower4.png"" style=""width:200px; border:14px solid green;"">","null","","","","","","","","",""
"","image-keyboard-response","98","101381","0.0-98.0","3EO896NRAXHJW6FOIP2YR86CZIJTJQ","A2CDPJ7FMJ4WHG","3HUR21WDDUBEMSLDIXZW1FAIHWSYXN","","90.90000000596046","img/flower1.png","74","91.79999999701977","1","0","3","2","1,0,0,1,1,0,1,0,1","0,0,1,1,0,1,0,1,1","2",""
"","html-keyboard-response","99","101683","0.0-99.0","3EO896NRAXHJW6FOIP2YR86CZIJTJQ","A2CDPJ7FMJ4WHG","3HUR21WDDUBEMSLDIXZW1FAIHWSYXN","","null","<img src=""img/flower1.png"" style=""width:200px;border:14px solid red;"">","null","","","","","","","","",""
"","image-keyboard-response","100","101904","0.0-100.0","3EO896NRAXHJW6FOIP2YR86CZIJTJQ","A2CDPJ7FMJ4WHG","3HUR21WDDUBEMSLDIXZW1FAIHWSYXN","","219.19999998807907","img/flower4.png","75","220.40000000596046","2","0","2","2","1,0,0,1,1,0,1,0,1","0,0,1,1,0,1,0,1,1","2",""
"","html-keyboard-response","101","102211","0.0-101.0","3EO896NRAXHJW6FOIP2YR86CZIJTJQ","A2CDPJ7FMJ4WHG","3HUR21WDDUBEMSLDIXZW1FAIHWSYXN","","null","<img src=""img/flower4.png"" style=""width:200px;border:14px solid red;"">","null","","","","","","","","",""
"","image-keyboard-response","102","102341","0.0-102.0","3EO896NRAXHJW6FOIP2YR86CZIJTJQ","A2CDPJ7FMJ4WHG","3HUR21WDDUBEMSLDIXZW1FAIHWSYXN","","128.69999998807907","img/flower4.png","76","129.70000000298023","3","1","2","2","1,0,0,1,1,0,1,0,1","0,0,1,1,0,1,0,1,1","2",""
"","html-keyboard-response","103","102644","0.0-103.0","3EO896NRAXHJW6FOIP2YR86CZIJTJQ","A2CDPJ7FMJ4WHG","3HUR21WDDUBEMSLDIXZW1FAIHWSYXN","","null","<img src=""img/flower4.png"" style=""width:200px; border:14px solid green;"">","null","","","","","","","","",""
"","image-keyboard-response","104","102806","0.0-104.0","3EO896NRAXHJW6FOIP2YR86CZIJTJQ","A2CDPJ7FMJ4WHG","3HUR21WDDUBEMSLDIXZW1FAIHWSYXN","","159.79999999701977","img/flower4.png","76","161","3","1","2","2","1,0,0,1,1,0,1,0,1","0,0,1,1,0,1,0,1,1","2",""
"","html-keyboard-response","105","103110","0.0-105.0","3EO896NRAXHJW6FOIP2YR86CZIJTJQ","A2CDPJ7FMJ4WHG","3HUR21WDDUBEMSLDIXZW1FAIHWSYXN","","null","<img src=""img/flower4.png"" style=""width:200px; border:14px solid green;"">","null","","","","","","","","",""
"","image-keyboard-response","106","103273","0.0-106.0","3EO896NRAXHJW6FOIP2YR86CZIJTJQ","A2CDPJ7FMJ4WHG","3HUR21WDDUBEMSLDIXZW1FAIHWSYXN","","161.70000000298023","img/flower5.png","76","162.90000000596046","3","1","1","2","1,0,0,1,1,0,1,0,1","0,0,1,1,0,1,0,1,1","2",""
"","html-keyboard-response","107","103580","0.0-107.0","3EO896NRAXHJW6FOIP2YR86CZIJTJQ","A2CDPJ7FMJ4WHG","3HUR21WDDUBEMSLDIXZW1FAIHWSYXN","","null","<img src=""img/flower5.png"" style=""width:200px; border:14px solid green;"">","null","","","","","","","","",""
"","image-keyboard-response","108","103721","0.0-108.0","3EO896NRAXHJW6FOIP2YR86CZIJTJQ","A2CDPJ7FMJ4WHG","3HUR21WDDUBEMSLDIXZW1FAIHWSYXN","","139.79999999701977","img/flower1.png","76","140.8999999910593","3","1","3","2","1,0,0,1,1,0,1,0,1","0,0,1,1,0,1,0,1,1","2",""
"","html-keyboard-response","109","104022","0.0-109.0","3EO896NRAXHJW6FOIP2YR86CZIJTJQ","A2CDPJ7FMJ4WHG","3HUR21WDDUBEMSLDIXZW1FAIHWSYXN","","null","<img src=""img/flower1.png"" style=""width:200px; border:14px solid green;"">","null","","","","","","","","",""
"","image-keyboard-response","110","104160","0.0-110.0","3EO896NRAXHJW6FOIP2YR86CZIJTJQ","A2CDPJ7FMJ4WHG","3HUR21WDDUBEMSLDIXZW1FAIHWSYXN","","136.29999999701977","img/flower1.png","76","137.59999999403954","3","1","3","2","1,0,0,1,1,0,1,0,1","0,0,1,1,0,1,0,1,1","2",""
"","html-keyboard-response","111","104464","0.0-111.0","3EO896NRAXHJW6FOIP2YR86CZIJTJQ","A2CDPJ7FMJ4WHG","3HUR21WDDUBEMSLDIXZW1FAIHWSYXN","","null","<img src=""img/flower1.png"" style=""width:200px; border:14px solid green;"">","null","","","","","","","","",""
"","image-keyboard-response","112","104619","0.0-112.0","3EO896NRAXHJW6FOIP2YR86CZIJTJQ","A2CDPJ7FMJ4WHG","3HUR21WDDUBEMSLDIXZW1FAIHWSYXN","","153.6000000089407","img/flower4.png","76","154.59999999403954","3","1","2","2","1,0,0,1,1,0,1,0,1","0,0,1,1,0,1,0,1,1","2",""
"","html-keyboard-response","113","104922","0.0-113.0","3EO896NRAXHJW6FOIP2YR86CZIJTJQ","A2CDPJ7FMJ4WHG","3HUR21WDDUBEMSLDIXZW1FAIHWSYXN","","null","<img src=""img/flower4.png"" style=""width:200px; border:14px solid green;"">","null","","","","","","","","",""
"","image-keyboard-response","114","105042","0.0-114.0","3EO896NRAXHJW6FOIP2YR86CZIJTJQ","A2CDPJ7FMJ4WHG","3HUR21WDDUBEMSLDIXZW1FAIHWSYXN","","118.59999999403954","img/flower5.png","76","119.79999999701977","3","1","1","2","1,0,0,1,1,0,1,0,1","0,0,1,1,0,1,0,1,1","2",""
"","html-keyboard-response","115","105345","0.0-115.0","3EO896NRAXHJW6FOIP2YR86CZIJTJQ","A2CDPJ7FMJ4WHG","3HUR21WDDUBEMSLDIXZW1FAIHWSYXN","","null","<img src=""img/flower5.png"" style=""width:200px; border:14px solid green;"">","null","","","","","","","","",""
"","image-keyboard-response","116","105608","0.0-116.0","3EO896NRAXHJW6FOIP2YR86CZIJTJQ","A2CDPJ7FMJ4WHG","3HUR21WDDUBEMSLDIXZW1FAIHWSYXN","","261.09999999403954","img/flower4.png","76","262.3999999910593","3","1","2","2","1,0,0,1,1,0,1,0,1","0,0,1,1,0,1,0,1,1","2",""
"","html-keyboard-response","117","105915","0.0-117.0","3EO896NRAXHJW6FOIP2YR86CZIJTJQ","A2CDPJ7FMJ4WHG","3HUR21WDDUBEMSLDIXZW1FAIHWSYXN","","null","<img src=""img/flower4.png"" style=""width:200px; border:14px solid green;"">","null","","","","","","","","",""
"","image-keyboard-response","118","106223","0.0-118.0","3EO896NRAXHJW6FOIP2YR86CZIJTJQ","A2CDPJ7FMJ4WHG","3HUR21WDDUBEMSLDIXZW1FAIHWSYXN","","306.20000000298023","img/flower5.png","76","307.20000000298023","3","1","1","2","1,0,0,1,1,0,1,0,1","0,0,1,1,0,1,0,1,1","2",""
"","html-keyboard-response","119","106530","0.0-119.0","3EO896NRAXHJW6FOIP2YR86CZIJTJQ","A2CDPJ7FMJ4WHG","3HUR21WDDUBEMSLDIXZW1FAIHWSYXN","","null","<img src=""img/flower5.png"" style=""width:200px; border:14px solid green;"">","null","","","","","","","","",""
"","image-keyboard-response","120","106675","0.0-120.0","3EO896NRAXHJW6FOIP2YR86CZIJTJQ","A2CDPJ7FMJ4WHG","3HUR21WDDUBEMSLDIXZW1FAIHWSYXN","","143.59999999403954","img/flower5.png","76","144.79999999701977","3","1","1","2","1,0,0,1,1,0,1,0,1","0,0,1,1,0,1,0,1,1","2",""
"","html-keyboard-response","121","106981","0.0-121.0","3EO896NRAXHJW6FOIP2YR86CZIJTJQ","A2CDPJ7FMJ4WHG","3HUR21WDDUBEMSLDIXZW1FAIHWSYXN","","null","<img src=""img/flower5.png"" style=""width:200px; border:14px solid green;"">","null","","","","","","","","",""
"","image-keyboard-response","122","107103","0.0-122.0","3EO896NRAXHJW6FOIP2YR86CZIJTJQ","A2CDPJ7FMJ4WHG","3HUR21WDDUBEMSLDIXZW1FAIHWSYXN","","120","img/flower1.png","76","121.1000000089407","3","1","3","2","1,0,0,1,1,0,1,0,1","0,0,1,1,0,1,0,1,1","2",""
"","html-keyboard-response","123","107410","0.0-123.0","3EO896NRAXHJW6FOIP2YR86CZIJTJQ","A2CDPJ7FMJ4WHG","3HUR21WDDUBEMSLDIXZW1FAIHWSYXN","","null","<img src=""img/flower1.png"" style=""width:200px; border:14px solid green;"">","null","","","","","","","","",""
"","image-keyboard-response","124","107547","0.0-124.0","3EO896NRAXHJW6FOIP2YR86CZIJTJQ","A2CDPJ7FMJ4WHG","3HUR21WDDUBEMSLDIXZW1FAIHWSYXN","","135.5","img/flower4.png","76","136.6000000089407","3","1","2","2","1,0,0,1,1,0,1,0,1","0,0,1,1,0,1,0,1,1","2",""
"","html-keyboard-response","125","107854","0.0-125.0","3EO896NRAXHJW6FOIP2YR86CZIJTJQ","A2CDPJ7FMJ4WHG","3HUR21WDDUBEMSLDIXZW1FAIHWSYXN","","null","<img src=""img/flower4.png"" style=""width:200px; border:14px solid green;"">","null","","","","","","","","",""
"","image-keyboard-response","126","108224","0.0-126.0","3EO896NRAXHJW6FOIP2YR86CZIJTJQ","A2CDPJ7FMJ4WHG","3HUR21WDDUBEMSLDIXZW1FAIHWSYXN","","368.30000001192093","img/flower5.png","76","369.5","3","1","1","2","1,0,0,1,1,0,1,0,1","0,0,1,1,0,1,0,1,1","2",""
"","html-keyboard-response","127","108529","0.0-127.0","3EO896NRAXHJW6FOIP2YR86CZIJTJQ","A2CDPJ7FMJ4WHG","3HUR21WDDUBEMSLDIXZW1FAIHWSYXN","","null","<img src=""img/flower5.png"" style=""width:200px; border:14px solid green;"">","null","","","","","","","","",""
"","image-keyboard-response","128","108653","0.0-128.0","3EO896NRAXHJW6FOIP2YR86CZIJTJQ","A2CDPJ7FMJ4WHG","3HUR21WDDUBEMSLDIXZW1FAIHWSYXN","","122.5","img/flower4.png","76","123.8999999910593","3","1","2","2","1,0,0,1,1,0,1,0,1","0,0,1,1,0,1,0,1,1","2",""
"","html-keyboard-response","129","108955","0.0-129.0","3EO896NRAXHJW6FOIP2YR86CZIJTJQ","A2CDPJ7FMJ4WHG","3HUR21WDDUBEMSLDIXZW1FAIHWSYXN","","null","<img src=""img/flower4.png"" style=""width:200px; border:14px solid green;"">","null","","","","","","","","",""
"","image-keyboard-response","130","109149","0.0-130.0","3EO896NRAXHJW6FOIP2YR86CZIJTJQ","A2CDPJ7FMJ4WHG","3HUR21WDDUBEMSLDIXZW1FAIHWSYXN","","192.79999999701977","img/flower1.png","76","193.8999999910593","3","1","3","2","1,0,0,1,1,0,1,0,1","0,0,1,1,0,1,0,1,1","2",""
"","html-keyboard-response","131","109452","0.0-131.0","3EO896NRAXHJW6FOIP2YR86CZIJTJQ","A2CDPJ7FMJ4WHG","3HUR21WDDUBEMSLDIXZW1FAIHWSYXN","","null","<img src=""img/flower1.png"" style=""width:200px; border:14px solid green;"">","null","","","","","","","","",""
"","image-keyboard-response","132","109629","0.0-132.0","3EO896NRAXHJW6FOIP2YR86CZIJTJQ","A2CDPJ7FMJ4WHG","3HUR21WDDUBEMSLDIXZW1FAIHWSYXN","","175.20000000298023","img/flower5.png","76","176.29999999701977","3","1","1","2","1,0,0,1,1,0,1,0,1","0,0,1,1,0,1,0,1,1","2",""
"","html-keyboard-response","133","109936","0.0-133.0","3EO896NRAXHJW6FOIP2YR86CZIJTJQ","A2CDPJ7FMJ4WHG","3HUR21WDDUBEMSLDIXZW1FAIHWSYXN","","null","<img src=""img/flower5.png"" style=""width:200px; border:14px solid green;"">","null","","","","","","","","",""
"","image-keyboard-response","134","110052","0.0-134.0","3EO896NRAXHJW6FOIP2YR86CZIJTJQ","A2CDPJ7FMJ4WHG","3HUR21WDDUBEMSLDIXZW1FAIHWSYXN","","114.59999999403954","img/flower4.png","76","115.79999999701977","3","1","2","2","1,0,0,1,1,0,1,0,1","0,0,1,1,0,1,0,1,1","2",""
"","html-keyboard-response","135","110357","0.0-135.0","3EO896NRAXHJW6FOIP2YR86CZIJTJQ","A2CDPJ7FMJ4WHG","3HUR21WDDUBEMSLDIXZW1FAIHWSYXN","","null","<img src=""img/flower4.png"" style=""width:200px; border:14px solid green;"">","null","","","","","","","","",""
"","image-keyboard-response","136","110523","0.0-136.0","3EO896NRAXHJW6FOIP2YR86CZIJTJQ","A2CDPJ7FMJ4WHG","3HUR21WDDUBEMSLDIXZW1FAIHWSYXN","","163.5","img/flower4.png","76","165.20000000298023","3","1","2","2","1,0,0,1,1,0,1,0,1","0,0,1,1,0,1,0,1,1","2",""
"","html-keyboard-response","137","110825","0.0-137.0","3EO896NRAXHJW6FOIP2YR86CZIJTJQ","A2CDPJ7FMJ4WHG","3HUR21WDDUBEMSLDIXZW1FAIHWSYXN","","null","<img src=""img/flower4.png"" style=""width:200px; border:14px solid green;"">","null","","","","","","","","",""
"","image-keyboard-response","138","110983","0.0-138.0","3EO896NRAXHJW6FOIP2YR86CZIJTJQ","A2CDPJ7FMJ4WHG","3HUR21WDDUBEMSLDIXZW1FAIHWSYXN","","157.40000000596046","img/flower1.png","76","158.5","3","1","3","2","1,0,0,1,1,0,1,0,1","0,0,1,1,0,1,0,1,1","2",""
"","html-keyboard-response","139","111287","0.0-139.0","3EO896NRAXHJW6FOIP2YR86CZIJTJQ","A2CDPJ7FMJ4WHG","3HUR21WDDUBEMSLDIXZW1FAIHWSYXN","","null","<img src=""img/flower1.png"" style=""width:200px; border:14px solid green;"">","null","","","","","","","","",""
"","image-keyboard-response","140","111414","0.0-140.0","3EO896NRAXHJW6FOIP2YR86CZIJTJQ","A2CDPJ7FMJ4WHG","3HUR21WDDUBEMSLDIXZW1FAIHWSYXN","","126.20000000298023","img/flower4.png","76","127.20000000298023","3","1","2","2","1,0,0,1,1,0,1,0,1","0,0,1,1,0,1,0,1,1","2",""
"","html-keyboard-response","141","111718","0.0-141.0","3EO896NRAXHJW6FOIP2YR86CZIJTJQ","A2CDPJ7FMJ4WHG","3HUR21WDDUBEMSLDIXZW1FAIHWSYXN","","null","<img src=""img/flower4.png"" style=""width:200px; border:14px solid green;"">","null","","","","","","","","",""
"","image-keyboard-response","142","111759","0.0-142.0","3EO896NRAXHJW6FOIP2YR86CZIJTJQ","A2CDPJ7FMJ4WHG","3HUR21WDDUBEMSLDIXZW1FAIHWSYXN","","39.20000000298023","img/flower1.png","76","40.400000005960464","3","1","3","2","1,0,0,1,1,0,1,0,1","0,0,1,1,0,1,0,1,1","2",""
"","html-keyboard-response","143","112065","0.0-143.0","3EO896NRAXHJW6FOIP2YR86CZIJTJQ","A2CDPJ7FMJ4WHG","3HUR21WDDUBEMSLDIXZW1FAIHWSYXN","","null","<img src=""img/flower1.png"" style=""width:200px; border:14px solid green;"">","null","","","","","","","","",""
"","image-keyboard-response","144","112143","0.0-144.0","3EO896NRAXHJW6FOIP2YR86CZIJTJQ","A2CDPJ7FMJ4WHG","3HUR21WDDUBEMSLDIXZW1FAIHWSYXN","","76.59999999403954","img/flower5.png","76","77.79999999701977","3","1","1","2","1,0,0,1,1,0,1,0,1","0,0,1,1,0,1,0,1,1","2",""
"","html-keyboard-response","145","112446","0.0-145.0","3EO896NRAXHJW6FOIP2YR86CZIJTJQ","A2CDPJ7FMJ4WHG","3HUR21WDDUBEMSLDIXZW1FAIHWSYXN","","null","<img src=""img/flower5.png"" style=""width:200px; border:14px solid green;"">","null","","","","","","","","",""
"","image-keyboard-response","146","112568","0.0-146.0","3EO896NRAXHJW6FOIP2YR86CZIJTJQ","A2CDPJ7FMJ4WHG","3HUR21WDDUBEMSLDIXZW1FAIHWSYXN","","120.29999999701977","img/flower1.png","74","121.3999999910593","1","0","3","2","1,0,0,1,1,0,1,0,1","0,0,1,1,0,1,0,1,1","2",""
"","html-keyboard-response","147","112870","0.0-147.0","3EO896NRAXHJW6FOIP2YR86CZIJTJQ","A2CDPJ7FMJ4WHG","3HUR21WDDUBEMSLDIXZW1FAIHWSYXN","","null","<img src=""img/flower1.png"" style=""width:200px;border:14px solid red;"">","null","","","","","","","","",""
"","image-keyboard-response","148","113024","0.0-148.0","3EO896NRAXHJW6FOIP2YR86CZIJTJQ","A2CDPJ7FMJ4WHG","3HUR21WDDUBEMSLDIXZW1FAIHWSYXN","","152.69999998807907","img/flower4.png","76","153.90000000596046","3","1","2","2","1,0,0,1,1,0,1,0,1","0,0,1,1,0,1,0,1,1","2",""
"","html-keyboard-response","149","113328","0.0-149.0","3EO896NRAXHJW6FOIP2YR86CZIJTJQ","A2CDPJ7FMJ4WHG","3HUR21WDDUBEMSLDIXZW1FAIHWSYXN","","null","<img src=""img/flower4.png"" style=""width:200px; border:14px solid green;"">","null","","","","","","","","",""
"","image-keyboard-response","150","113442","0.0-150.0","3EO896NRAXHJW6FOIP2YR86CZIJTJQ","A2CDPJ7FMJ4WHG","3HUR21WDDUBEMSLDIXZW1FAIHWSYXN","","113.1000000089407","img/flower1.png","76","114.09999999403954","3","1","3","2","1,0,0,1,1,0,1,0,1","0,0,1,1,0,1,0,1,1","2",""
"","html-keyboard-response","151","113745","0.0-151.0","3EO896NRAXHJW6FOIP2YR86CZIJTJQ","A2CDPJ7FMJ4WHG","3HUR21WDDUBEMSLDIXZW1FAIHWSYXN","","null","<img src=""img/flower1.png"" style=""width:200px; border:14px solid green;"">","null","","","","","","","","",""
"","image-keyboard-response","152","113832","0.0-152.0","3EO896NRAXHJW6FOIP2YR86CZIJTJQ","A2CDPJ7FMJ4WHG","3HUR21WDDUBEMSLDIXZW1FAIHWSYXN","","86.09999999403954","img/flower1.png","75","87.20000000298023","2","1","3","2","1,0,0,1,1,0,1,0,1","0,0,1,1,0,1,0,1,1","2",""
"","html-keyboard-response","153","114139","0.0-153.0","3EO896NRAXHJW6FOIP2YR86CZIJTJQ","A2CDPJ7FMJ4WHG","3HUR21WDDUBEMSLDIXZW1FAIHWSYXN","","null","<img src=""img/flower1.png"" style=""width:200px; border:14px solid green;"">","null","","","","","","","","",""
"","image-keyboard-response","154","114481","0.0-154.0","3EO896NRAXHJW6FOIP2YR86CZIJTJQ","A2CDPJ7FMJ4WHG","3HUR21WDDUBEMSLDIXZW1FAIHWSYXN","","340.69999998807907","img/flower1.png","75","341.79999999701977","2","1","3","2","1,0,0,1,1,0,1,0,1","0,0,1,1,0,1,0,1,1","2",""
"","html-keyboard-response","155","114785","0.0-155.0","3EO896NRAXHJW6FOIP2YR86CZIJTJQ","A2CDPJ7FMJ4WHG","3HUR21WDDUBEMSLDIXZW1FAIHWSYXN","","null","<img src=""img/flower1.png"" style=""width:200px; border:14px solid green;"">","null","","","","","","","","",""
"","image-keyboard-response","156","115118","0.0-156.0","3EO896NRAXHJW6FOIP2YR86CZIJTJQ","A2CDPJ7FMJ4WHG","3HUR21WDDUBEMSLDIXZW1FAIHWSYXN","","332.09999999403954","img/flower4.png","76","333.20000000298023","3","1","2","2","1,0,0,1,1,0,1,0,1","0,0,1,1,0,1,0,1,1","2",""
"","html-keyboard-response","157","115426","0.0-157.0","3EO896NRAXHJW6FOIP2YR86CZIJTJQ","A2CDPJ7FMJ4WHG","3HUR21WDDUBEMSLDIXZW1FAIHWSYXN","","null","<img src=""img/flower4.png"" style=""width:200px; border:14px solid green;"">","null","","","","","","","","",""
"","image-keyboard-response","158","115502","0.0-158.0","3EO896NRAXHJW6FOIP2YR86CZIJTJQ","A2CDPJ7FMJ4WHG","3HUR21WDDUBEMSLDIXZW1FAIHWSYXN","","75.3999999910593","img/flower1.png","75","76.40000000596046","2","1","3","2","1,0,0,1,1,0,1,0,1","0,0,1,1,0,1,0,1,1","2",""
"","html-keyboard-response","159","115807","0.0-159.0","3EO896NRAXHJW6FOIP2YR86CZIJTJQ","A2CDPJ7FMJ4WHG","3HUR21WDDUBEMSLDIXZW1FAIHWSYXN","","null","<img src=""img/flower1.png"" style=""width:200px; border:14px solid green;"">","null","","","","","","","","",""
"","image-keyboard-response","160","115898","0.0-160.0","3EO896NRAXHJW6FOIP2YR86CZIJTJQ","A2CDPJ7FMJ4WHG","3HUR21WDDUBEMSLDIXZW1FAIHWSYXN","","90.19999998807907","img/flower1.png","75","91.3999999910593","2","1","3","2","1,0,0,1,1,0,1,0,1","0,0,1,1,0,1,0,1,1","2",""
"","html-keyboard-response","161","116203","0.0-161.0","3EO896NRAXHJW6FOIP2YR86CZIJTJQ","A2CDPJ7FMJ4WHG","3HUR21WDDUBEMSLDIXZW1FAIHWSYXN","","null","<img src=""img/flower1.png"" style=""width:200px; border:14px solid green;"">","null","","","","","","","","",""
"","image-keyboard-response","162","116374","0.0-162.0","3EO896NRAXHJW6FOIP2YR86CZIJTJQ","A2CDPJ7FMJ4WHG","3HUR21WDDUBEMSLDIXZW1FAIHWSYXN","","169.79999999701977","img/flower5.png","75","170.69999998807907","2","0","1","2","1,0,0,1,1,0,1,0,1","0,0,1,1,0,1,0,1,1","2",""
"","html-keyboard-response","163","116681","0.0-163.0","3EO896NRAXHJW6FOIP2YR86CZIJTJQ","A2CDPJ7FMJ4WHG","3HUR21WDDUBEMSLDIXZW1FAIHWSYXN","","null","<img src=""img/flower5.png"" style=""width:200px;border:14px solid red;"">","null","","","","","","","","",""
"","image-keyboard-response","164","116783","0.0-164.0","3EO896NRAXHJW6FOIP2YR86CZIJTJQ","A2CDPJ7FMJ4WHG","3HUR21WDDUBEMSLDIXZW1FAIHWSYXN","","101.09999999403954","img/flower4.png","76","102.1000000089407","3","1","2","2","1,0,0,1,1,0,1,0,1","0,0,1,1,0,1,0,1,1","2",""
"","html-keyboard-response","165","117090","0.0-165.0","3EO896NRAXHJW6FOIP2YR86CZIJTJQ","A2CDPJ7FMJ4WHG","3HUR21WDDUBEMSLDIXZW1FAIHWSYXN","","null","<img src=""img/flower4.png"" style=""width:200px; border:14px solid green;"">","null","","","","","","","","",""
"","image-keyboard-response","166","117202","0.0-166.0","3EO896NRAXHJW6FOIP2YR86CZIJTJQ","A2CDPJ7FMJ4WHG","3HUR21WDDUBEMSLDIXZW1FAIHWSYXN","","110.90000000596046","img/flower5.png","76","112.20000000298023","3","1","1","2","1,0,0,1,1,0,1,0,1","0,0,1,1,0,1,0,1,1","2",""
"","html-keyboard-response","167","117509","0.0-167.0","3EO896NRAXHJW6FOIP2YR86CZIJTJQ","A2CDPJ7FMJ4WHG","3HUR21WDDUBEMSLDIXZW1FAIHWSYXN","","null","<img src=""img/flower5.png"" style=""width:200px; border:14px solid green;"">","null","","","","","","","","",""
"","image-keyboard-response","168","117628","0.0-168.0","3EO896NRAXHJW6FOIP2YR86CZIJTJQ","A2CDPJ7FMJ4WHG","3HUR21WDDUBEMSLDIXZW1FAIHWSYXN","","117.59999999403954","img/flower5.png","76","118.70000000298023","3","1","1","2","1,0,0,1,1,0,1,0,1","0,0,1,1,0,1,0,1,1","2",""
"","html-keyboard-response","169","117934","0.0-169.0","3EO896NRAXHJW6FOIP2YR86CZIJTJQ","A2CDPJ7FMJ4WHG","3HUR21WDDUBEMSLDIXZW1FAIHWSYXN","","null","<img src=""img/flower5.png"" style=""width:200px; border:14px solid green;"">","null","","","","","","","","",""
"","image-keyboard-response","170","117992","0.0-170.0","3EO896NRAXHJW6FOIP2YR86CZIJTJQ","A2CDPJ7FMJ4WHG","3HUR21WDDUBEMSLDIXZW1FAIHWSYXN","","57","img/flower5.png","76","58.099999994039536","3","1","1","2","1,0,0,1,1,0,1,0,1","0,0,1,1,0,1,0,1,1","2",""
"","html-keyboard-response","171","118297","0.0-171.0","3EO896NRAXHJW6FOIP2YR86CZIJTJQ","A2CDPJ7FMJ4WHG","3HUR21WDDUBEMSLDIXZW1FAIHWSYXN","","null","<img src=""img/flower5.png"" style=""width:200px; border:14px solid green;"">","null","","","","","","","","",""
"","image-keyboard-response","172","118595","0.0-172.0","3EO896NRAXHJW6FOIP2YR86CZIJTJQ","A2CDPJ7FMJ4WHG","3HUR21WDDUBEMSLDIXZW1FAIHWSYXN","","297.40000000596046","img/flower1.png","76","298.6000000089407","3","1","3","2","1,0,0,1,1,0,1,0,1","0,0,1,1,0,1,0,1,1","2",""
"","html-keyboard-response","173","118902","0.0-173.0","3EO896NRAXHJW6FOIP2YR86CZIJTJQ","A2CDPJ7FMJ4WHG","3HUR21WDDUBEMSLDIXZW1FAIHWSYXN","","null","<img src=""img/flower1.png"" style=""width:200px; border:14px solid green;"">","null","","","","","","","","",""
"","image-keyboard-response","174","118958","0.0-174.0","3EO896NRAXHJW6FOIP2YR86CZIJTJQ","A2CDPJ7FMJ4WHG","3HUR21WDDUBEMSLDIXZW1FAIHWSYXN","","54.900000005960464","img/flower1.png","76","56.20000000298023","3","1","3","2","1,0,0,1,1,0,1,0,1","0,0,1,1,0,1,0,1,1","2",""
"","html-keyboard-response","175","119266","0.0-175.0","3EO896NRAXHJW6FOIP2YR86CZIJTJQ","A2CDPJ7FMJ4WHG","3HUR21WDDUBEMSLDIXZW1FAIHWSYXN","","null","<img src=""img/flower1.png"" style=""width:200px; border:14px solid green;"">","null","","","","","","","","",""
"","image-keyboard-response","176","119361","0.0-176.0","3EO896NRAXHJW6FOIP2YR86CZIJTJQ","A2CDPJ7FMJ4WHG","3HUR21WDDUBEMSLDIXZW1FAIHWSYXN","","94","img/flower4.png","74","95","1","1","2","2","1,0,0,1,1,0,1,0,1","0,0,1,1,0,1,0,1,1","2",""
"","html-keyboard-response","177","119664","0.0-177.0","3EO896NRAXHJW6FOIP2YR86CZIJTJQ","A2CDPJ7FMJ4WHG","3HUR21WDDUBEMSLDIXZW1FAIHWSYXN","","null","<img src=""img/flower4.png"" style=""width:200px; border:14px solid green;"">","null","","","","","","","","",""
"","image-keyboard-response","178","119821","0.0-178.0","3EO896NRAXHJW6FOIP2YR86CZIJTJQ","A2CDPJ7FMJ4WHG","3HUR21WDDUBEMSLDIXZW1FAIHWSYXN","","156","img/flower5.png","76","157.20000000298023","3","1","1","2","1,0,0,1,1,0,1,0,1","0,0,1,1,0,1,0,1,1","2",""
"","html-keyboard-response","179","120127","0.0-179.0","3EO896NRAXHJW6FOIP2YR86CZIJTJQ","A2CDPJ7FMJ4WHG","3HUR21WDDUBEMSLDIXZW1FAIHWSYXN","","null","<img src=""img/flower5.png"" style=""width:200px; border:14px solid green;"">","null","","","","","","","","",""
"","image-keyboard-response","180","120244","0.0-180.0","3EO896NRAXHJW6FOIP2YR86CZIJTJQ","A2CDPJ7FMJ4WHG","3HUR21WDDUBEMSLDIXZW1FAIHWSYXN","","116.09999999403954","img/flower4.png","76","117.30000001192093","3","1","2","2","1,0,0,1,1,0,1,0,1","0,0,1,1,0,1,0,1,1","2",""
"","html-keyboard-response","181","120551","0.0-181.0","3EO896NRAXHJW6FOIP2YR86CZIJTJQ","A2CDPJ7FMJ4WHG","3HUR21WDDUBEMSLDIXZW1FAIHWSYXN","","null","<img src=""img/flower4.png"" style=""width:200px; border:14px solid green;"">","null","","","","","","","","",""
"","image-keyboard-response","182","120649","0.0-182.0","3EO896NRAXHJW6FOIP2YR86CZIJTJQ","A2CDPJ7FMJ4WHG","3HUR21WDDUBEMSLDIXZW1FAIHWSYXN","","97.6000000089407","img/flower3.png","76","98.29999999701977","3","0","2","1","1,0.333,0.333,0.333,1,0.333,0.333,0.333,1","1,0.333,0.333,0.333,1,0.333,0.333,0.333,1","1",""
"","html-keyboard-response","183","120952","0.0-183.0","3EO896NRAXHJW6FOIP2YR86CZIJTJQ","A2CDPJ7FMJ4WHG","3HUR21WDDUBEMSLDIXZW1FAIHWSYXN","","null","<img src=""img/flower3.png"" style=""width:200px;border:14px solid red;"">","null","","","","","","","","",""
"","image-keyboard-response","184","121461","0.0-184.0","3EO896NRAXHJW6FOIP2YR86CZIJTJQ","A2CDPJ7FMJ4WHG","3HUR21WDDUBEMSLDIXZW1FAIHWSYXN","","507.5","img/flower3.png","75","508.59999999403954","2","1","2","1","1,0.333,0.333,0.333,1,0.333,0.333,0.333,1","1,0.333,0.333,0.333,1,0.333,0.333,0.333,1","1",""
"","html-keyboard-response","185","121768","0.0-185.0","3EO896NRAXHJW6FOIP2YR86CZIJTJQ","A2CDPJ7FMJ4WHG","3HUR21WDDUBEMSLDIXZW1FAIHWSYXN","","null","<img src=""img/flower3.png"" style=""width:200px; border:14px solid green;"">","null","","","","","","","","",""
"","image-keyboard-response","186","122163","0.0-186.0","3EO896NRAXHJW6FOIP2YR86CZIJTJQ","A2CDPJ7FMJ4WHG","3HUR21WDDUBEMSLDIXZW1FAIHWSYXN","","394.20000000298023","img/flower2.png","76","395.20000000298023","3","1","3","1","1,0.333,0.333,0.333,1,0.333,0.333,0.333,1","1,0.333,0.333,0.333,1,0.333,0.333,0.333,1","1",""
"","html-keyboard-response","187","122470","0.0-187.0","3EO896NRAXHJW6FOIP2YR86CZIJTJQ","A2CDPJ7FMJ4WHG","3HUR21WDDUBEMSLDIXZW1FAIHWSYXN","","null","<img src=""img/flower2.png"" style=""width:200px; border:14px solid green;"">","null","","","","","","","","",""
"","image-keyboard-response","188","122743","0.0-188.0","3EO896NRAXHJW6FOIP2YR86CZIJTJQ","A2CDPJ7FMJ4WHG","3HUR21WDDUBEMSLDIXZW1FAIHWSYXN","","271.6000000089407","img/flower6.png","76","272.5","3","0","1","1","1,0.333,0.333,0.333,1,0.333,0.333,0.333,1","1,0.333,0.333,0.333,1,0.333,0.333,0.333,1","1",""
"","html-keyboard-response","189","123048","0.0-189.0","3EO896NRAXHJW6FOIP2YR86CZIJTJQ","A2CDPJ7FMJ4WHG","3HUR21WDDUBEMSLDIXZW1FAIHWSYXN","","null","<img src=""img/flower6.png"" style=""width:200px;border:14px solid red;"">","null","","","","","","","","",""
"","image-keyboard-response","190","123544","0.0-190.0","3EO896NRAXHJW6FOIP2YR86CZIJTJQ","A2CDPJ7FMJ4WHG","3HUR21WDDUBEMSLDIXZW1FAIHWSYXN","","495.3999999910593","img/flower2.png","74","496.5","1","1","3","1","1,0.333,0.333,0.333,1,0.333,0.333,0.333,1","1,0.333,0.333,0.333,1,0.333,0.333,0.333,1","1",""
"","html-keyboard-response","191","123851","0.0-191.0","3EO896NRAXHJW6FOIP2YR86CZIJTJQ","A2CDPJ7FMJ4WHG","3HUR21WDDUBEMSLDIXZW1FAIHWSYXN","","null","<img src=""img/flower2.png"" style=""width:200px; border:14px solid green;"">","null","","","","","","","","",""
"","image-keyboard-response","192","124033","0.0-192.0","3EO896NRAXHJW6FOIP2YR86CZIJTJQ","A2CDPJ7FMJ4WHG","3HUR21WDDUBEMSLDIXZW1FAIHWSYXN","","181.09999999403954","img/flower3.png","74","182","1","1","2","1","1,0.333,0.333,0.333,1,0.333,0.333,0.333,1","1,0.333,0.333,0.333,1,0.333,0.333,0.333,1","1",""
"","html-keyboard-response","193","124340","0.0-193.0","3EO896NRAXHJW6FOIP2YR86CZIJTJQ","A2CDPJ7FMJ4WHG","3HUR21WDDUBEMSLDIXZW1FAIHWSYXN","","null","<img src=""img/flower3.png"" style=""width:200px; border:14px solid green;"">","null","","","","","","","","",""
"","image-keyboard-response","194","124703","0.0-194.0","3EO896NRAXHJW6FOIP2YR86CZIJTJQ","A2CDPJ7FMJ4WHG","3HUR21WDDUBEMSLDIXZW1FAIHWSYXN","","361.8999999910593","img/flower3.png","74","363.19999998807907","1","0","2","1","1,0.333,0.333,0.333,1,0.333,0.333,0.333,1","1,0.333,0.333,0.333,1,0.333,0.333,0.333,1","1",""
"","html-keyboard-response","195","125007","0.0-195.0","3EO896NRAXHJW6FOIP2YR86CZIJTJQ","A2CDPJ7FMJ4WHG","3HUR21WDDUBEMSLDIXZW1FAIHWSYXN","","null","<img src=""img/flower3.png"" style=""width:200px;border:14px solid red;"">","null","","","","","","","","",""
"","image-keyboard-response","196","125267","0.0-196.0","3EO896NRAXHJW6FOIP2YR86CZIJTJQ","A2CDPJ7FMJ4WHG","3HUR21WDDUBEMSLDIXZW1FAIHWSYXN","","258.40000000596046","img/flower2.png","76","259.5","3","1","3","1","1,0.333,0.333,0.333,1,0.333,0.333,0.333,1","1,0.333,0.333,0.333,1,0.333,0.333,0.333,1","1",""
"","html-keyboard-response","197","125572","0.0-197.0","3EO896NRAXHJW6FOIP2YR86CZIJTJQ","A2CDPJ7FMJ4WHG","3HUR21WDDUBEMSLDIXZW1FAIHWSYXN","","null","<img src=""img/flower2.png"" style=""width:200px; border:14px solid green;"">","null","","","","","","","","",""
"","image-keyboard-response","198","125877","0.0-198.0","3EO896NRAXHJW6FOIP2YR86CZIJTJQ","A2CDPJ7FMJ4WHG","3HUR21WDDUBEMSLDIXZW1FAIHWSYXN","","303.6000000089407","img/flower6.png","76","304.69999998807907","3","1","1","1","1,0.333,0.333,0.333,1,0.333,0.333,0.333,1","1,0.333,0.333,0.333,1,0.333,0.333,0.333,1","1",""
"","html-keyboard-response","199","126183","0.0-199.0","3EO896NRAXHJW6FOIP2YR86CZIJTJQ","A2CDPJ7FMJ4WHG","3HUR21WDDUBEMSLDIXZW1FAIHWSYXN","","null","<img src=""img/flower6.png"" style=""width:200px; border:14px solid green;"">","null","","","","","","","","",""
"","image-keyboard-response","200","126242","0.0-200.0","3EO896NRAXHJW6FOIP2YR86CZIJTJQ","A2CDPJ7FMJ4WHG","3HUR21WDDUBEMSLDIXZW1FAIHWSYXN","","57.20000000298023","img/flower6.png","76","58.400000005960464","3","1","1","1","1,0.333,0.333,0.333,1,0.333,0.333,0.333,1","1,0.333,0.333,0.333,1,0.333,0.333,0.333,1","1",""
"","html-keyboard-response","201","126549","0.0-201.0","3EO896NRAXHJW6FOIP2YR86CZIJTJQ","A2CDPJ7FMJ4WHG","3HUR21WDDUBEMSLDIXZW1FAIHWSYXN","","null","<img src=""img/flower6.png"" style=""width:200px; border:14px solid green;"">","null","","","","","","","","",""
"","image-keyboard-response","202","126695","0.0-202.0","3EO896NRAXHJW6FOIP2YR86CZIJTJQ","A2CDPJ7FMJ4WHG","3HUR21WDDUBEMSLDIXZW1FAIHWSYXN","","145.19999998807907","img/flower6.png","75","146.29999999701977","2","0","1","1","1,0.333,0.333,0.333,1,0.333,0.333,0.333,1","1,0.333,0.333,0.333,1,0.333,0.333,0.333,1","1",""
"","html-keyboard-response","203","127002","0.0-203.0","3EO896NRAXHJW6FOIP2YR86CZIJTJQ","A2CDPJ7FMJ4WHG","3HUR21WDDUBEMSLDIXZW1FAIHWSYXN","","null","<img src=""img/flower6.png"" style=""width:200px;border:14px solid red;"">","null","","","","","","","","",""
"","image-keyboard-response","204","127275","0.0-204.0","3EO896NRAXHJW6FOIP2YR86CZIJTJQ","A2CDPJ7FMJ4WHG","3HUR21WDDUBEMSLDIXZW1FAIHWSYXN","","271.70000000298023","img/flower6.png","76","272.80000001192093","3","0","1","1","1,0.333,0.333,0.333,1,0.333,0.333,0.333,1","1,0.333,0.333,0.333,1,0.333,0.333,0.333,1","1",""
"","html-keyboard-response","205","127582","0.0-205.0","3EO896NRAXHJW6FOIP2YR86CZIJTJQ","A2CDPJ7FMJ4WHG","3HUR21WDDUBEMSLDIXZW1FAIHWSYXN","","null","<img src=""img/flower6.png"" style=""width:200px;border:14px solid red;"">","null","","","","","","","","",""
"","image-keyboard-response","206","127704","0.0-206.0","3EO896NRAXHJW6FOIP2YR86CZIJTJQ","A2CDPJ7FMJ4WHG","3HUR21WDDUBEMSLDIXZW1FAIHWSYXN","","120.8999999910593","img/flower3.png","76","121.90000000596046","3","0","2","1","1,0.333,0.333,0.333,1,0.333,0.333,0.333,1","1,0.333,0.333,0.333,1,0.333,0.333,0.333,1","1",""
"","html-keyboard-response","207","128007","0.0-207.0","3EO896NRAXHJW6FOIP2YR86CZIJTJQ","A2CDPJ7FMJ4WHG","3HUR21WDDUBEMSLDIXZW1FAIHWSYXN","","null","<img src=""img/flower3.png"" style=""width:200px;border:14px solid red;"">","null","","","","","","","","",""
"","image-keyboard-response","208","128123","0.0-208.0","3EO896NRAXHJW6FOIP2YR86CZIJTJQ","A2CDPJ7FMJ4WHG","3HUR21WDDUBEMSLDIXZW1FAIHWSYXN","","115","img/flower3.png","76","116","3","1","2","1","1,0.333,0.333,0.333,1,0.333,0.333,0.333,1","1,0.333,0.333,0.333,1,0.333,0.333,0.333,1","1",""
"","html-keyboard-response","209","128430","0.0-209.0","3EO896NRAXHJW6FOIP2YR86CZIJTJQ","A2CDPJ7FMJ4WHG","3HUR21WDDUBEMSLDIXZW1FAIHWSYXN","","null","<img src=""img/flower3.png"" style=""width:200px; border:14px solid green;"">","null","","","","","","","","",""
"","image-keyboard-response","210","128617","0.0-210.0","3EO896NRAXHJW6FOIP2YR86CZIJTJQ","A2CDPJ7FMJ4WHG","3HUR21WDDUBEMSLDIXZW1FAIHWSYXN","","185.5","img/flower3.png","75","186.79999999701977","2","1","2","1","1,0.333,0.333,0.333,1,0.333,0.333,0.333,1","1,0.333,0.333,0.333,1,0.333,0.333,0.333,1","1",""
"","html-keyboard-response","211","128920","0.0-211.0","3EO896NRAXHJW6FOIP2YR86CZIJTJQ","A2CDPJ7FMJ4WHG","3HUR21WDDUBEMSLDIXZW1FAIHWSYXN","","null","<img src=""img/flower3.png"" style=""width:200px; border:14px solid green;"">","null","","","","","","","","",""
"","image-keyboard-response","212","129107","0.0-212.0","3EO896NRAXHJW6FOIP2YR86CZIJTJQ","A2CDPJ7FMJ4WHG","3HUR21WDDUBEMSLDIXZW1FAIHWSYXN","","185.59999999403954","img/flower3.png","76","186.79999999701977","3","0","2","1","1,0.333,0.333,0.333,1,0.333,0.333,0.333,1","1,0.333,0.333,0.333,1,0.333,0.333,0.333,1","1",""
"","html-keyboard-response","213","129414","0.0-213.0","3EO896NRAXHJW6FOIP2YR86CZIJTJQ","A2CDPJ7FMJ4WHG","3HUR21WDDUBEMSLDIXZW1FAIHWSYXN","","null","<img src=""img/flower3.png"" style=""width:200px;border:14px solid red;"">","null","","","","","","","","",""
"","image-keyboard-response","214","129580","0.0-214.0","3EO896NRAXHJW6FOIP2YR86CZIJTJQ","A2CDPJ7FMJ4WHG","3HUR21WDDUBEMSLDIXZW1FAIHWSYXN","","165.6000000089407","img/flower3.png","76","166.59999999403954","3","0","2","1","1,0.333,0.333,0.333,1,0.333,0.333,0.333,1","1,0.333,0.333,0.333,1,0.333,0.333,0.333,1","1",""
"","html-keyboard-response","215","129884","0.0-215.0","3EO896NRAXHJW6FOIP2YR86CZIJTJQ","A2CDPJ7FMJ4WHG","3HUR21WDDUBEMSLDIXZW1FAIHWSYXN","","null","<img src=""img/flower3.png"" style=""width:200px;border:14px solid red;"">","null","","","","","","","","",""
"","image-keyboard-response","216","129962","0.0-216.0","3EO896NRAXHJW6FOIP2YR86CZIJTJQ","A2CDPJ7FMJ4WHG","3HUR21WDDUBEMSLDIXZW1FAIHWSYXN","","76.5","img/flower3.png","74","77.5","1","0","2","1","1,0.333,0.333,0.333,1,0.333,0.333,0.333,1","1,0.333,0.333,0.333,1,0.333,0.333,0.333,1","1",""
"","html-keyboard-response","217","130268","0.0-217.0","3EO896NRAXHJW6FOIP2YR86CZIJTJQ","A2CDPJ7FMJ4WHG","3HUR21WDDUBEMSLDIXZW1FAIHWSYXN","","null","<img src=""img/flower3.png"" style=""width:200px;border:14px solid red;"">","null","","","","","","","","",""
"","image-keyboard-response","218","130358","0.0-218.0","3EO896NRAXHJW6FOIP2YR86CZIJTJQ","A2CDPJ7FMJ4WHG","3HUR21WDDUBEMSLDIXZW1FAIHWSYXN","","88.90000000596046","img/flower3.png","74","89.79999999701977","1","1","2","1","1,0.333,0.333,0.333,1,0.333,0.333,0.333,1","1,0.333,0.333,0.333,1,0.333,0.333,0.333,1","1",""
"","html-keyboard-response","219","130662","0.0-219.0","3EO896NRAXHJW6FOIP2YR86CZIJTJQ","A2CDPJ7FMJ4WHG","3HUR21WDDUBEMSLDIXZW1FAIHWSYXN","","null","<img src=""img/flower3.png"" style=""width:200px; border:14px solid green;"">","null","","","","","","","","",""
"","image-keyboard-response","220","130724","0.0-220.0","3EO896NRAXHJW6FOIP2YR86CZIJTJQ","A2CDPJ7FMJ4WHG","3HUR21WDDUBEMSLDIXZW1FAIHWSYXN","","60.900000005960464","img/flower6.png","75","62.1000000089407","2","1","1","1","1,0.333,0.333,0.333,1,0.333,0.333,0.333,1","1,0.333,0.333,0.333,1,0.333,0.333,0.333,1","1",""
"","html-keyboard-response","221","131027","0.0-221.0","3EO896NRAXHJW6FOIP2YR86CZIJTJQ","A2CDPJ7FMJ4WHG","3HUR21WDDUBEMSLDIXZW1FAIHWSYXN","","null","<img src=""img/flower6.png"" style=""width:200px; border:14px solid green;"">","null","","","","","","","","",""
"","image-keyboard-response","222","131229","0.0-222.0","3EO896NRAXHJW6FOIP2YR86CZIJTJQ","A2CDPJ7FMJ4WHG","3HUR21WDDUBEMSLDIXZW1FAIHWSYXN","","200.80000001192093","img/flower2.png","76","201.8999999910593","3","1","3","1","1,0.333,0.333,0.333,1,0.333,0.333,0.333,1","1,0.333,0.333,0.333,1,0.333,0.333,0.333,1","1",""
"","html-keyboard-response","223","131536","0.0-223.0","3EO896NRAXHJW6FOIP2YR86CZIJTJQ","A2CDPJ7FMJ4WHG","3HUR21WDDUBEMSLDIXZW1FAIHWSYXN","","null","<img src=""img/flower2.png"" style=""width:200px; border:14px solid green;"">","null","","","","","","","","",""
"","image-keyboard-response","224","131710","0.0-224.0","3EO896NRAXHJW6FOIP2YR86CZIJTJQ","A2CDPJ7FMJ4WHG","3HUR21WDDUBEMSLDIXZW1FAIHWSYXN","","172.70000000298023","img/flower2.png","75","173.90000000596046","2","0","3","1","1,0.333,0.333,0.333,1,0.333,0.333,0.333,1","1,0.333,0.333,0.333,1,0.333,0.333,0.333,1","1",""
"","html-keyboard-response","225","132017","0.0-225.0","3EO896NRAXHJW6FOIP2YR86CZIJTJQ","A2CDPJ7FMJ4WHG","3HUR21WDDUBEMSLDIXZW1FAIHWSYXN","","null","<img src=""img/flower2.png"" style=""width:200px;border:14px solid red;"">","null","","","","","","","","",""
"","image-keyboard-response","226","132126","0.0-226.0","3EO896NRAXHJW6FOIP2YR86CZIJTJQ","A2CDPJ7FMJ4WHG","3HUR21WDDUBEMSLDIXZW1FAIHWSYXN","","107.79999999701977","img/flower6.png","76","108.90000000596046","3","1","1","1","1,0.333,0.333,0.333,1,0.333,0.333,0.333,1","1,0.333,0.333,0.333,1,0.333,0.333,0.333,1","1",""
"","html-keyboard-response","227","132433","0.0-227.0","3EO896NRAXHJW6FOIP2YR86CZIJTJQ","A2CDPJ7FMJ4WHG","3HUR21WDDUBEMSLDIXZW1FAIHWSYXN","","null","<img src=""img/flower6.png"" style=""width:200px; border:14px solid green;"">","null","","","","","","","","",""
"","image-keyboard-response","228","132548","0.0-228.0","3EO896NRAXHJW6FOIP2YR86CZIJTJQ","A2CDPJ7FMJ4WHG","3HUR21WDDUBEMSLDIXZW1FAIHWSYXN","","113.5","img/flower3.png","76","114.5","3","1","2","1","1,0.333,0.333,0.333,1,0.333,0.333,0.333,1","1,0.333,0.333,0.333,1,0.333,0.333,0.333,1","1",""
"","html-keyboard-response","229","132852","0.0-229.0","3EO896NRAXHJW6FOIP2YR86CZIJTJQ","A2CDPJ7FMJ4WHG","3HUR21WDDUBEMSLDIXZW1FAIHWSYXN","","null","<img src=""img/flower3.png"" style=""width:200px; border:14px solid green;"">","null","","","","","","","","",""
"","image-keyboard-response","230","133072","0.0-230.0","3EO896NRAXHJW6FOIP2YR86CZIJTJQ","A2CDPJ7FMJ4WHG","3HUR21WDDUBEMSLDIXZW1FAIHWSYXN","","218.29999999701977","img/flower3.png","76","219.5","3","0","2","1","1,0.333,0.333,0.333,1,0.333,0.333,0.333,1","1,0.333,0.333,0.333,1,0.333,0.333,0.333,1","1",""
"","html-keyboard-response","231","133376","0.0-231.0","3EO896NRAXHJW6FOIP2YR86CZIJTJQ","A2CDPJ7FMJ4WHG","3HUR21WDDUBEMSLDIXZW1FAIHWSYXN","","null","<img src=""img/flower3.png"" style=""width:200px;border:14px solid red;"">","null","","","","","","","","",""
"","image-keyboard-response","232","133496","0.0-232.0","3EO896NRAXHJW6FOIP2YR86CZIJTJQ","A2CDPJ7FMJ4WHG","3HUR21WDDUBEMSLDIXZW1FAIHWSYXN","","118.79999999701977","img/flower6.png","74","119.8999999910593","1","1","1","1","1,0.333,0.333,0.333,1,0.333,0.333,0.333,1","1,0.333,0.333,0.333,1,0.333,0.333,0.333,1","1",""
"","html-keyboard-response","233","133799","0.0-233.0","3EO896NRAXHJW6FOIP2YR86CZIJTJQ","A2CDPJ7FMJ4WHG","3HUR21WDDUBEMSLDIXZW1FAIHWSYXN","","null","<img src=""img/flower6.png"" style=""width:200px; border:14px solid green;"">","null","","","","","","","","",""
"","image-keyboard-response","234","133906","0.0-234.0","3EO896NRAXHJW6FOIP2YR86CZIJTJQ","A2CDPJ7FMJ4WHG","3HUR21WDDUBEMSLDIXZW1FAIHWSYXN","","105.6000000089407","img/flower6.png","76","106.79999999701977","3","0","1","1","1,0.333,0.333,0.333,1,0.333,0.333,0.333,1","1,0.333,0.333,0.333,1,0.333,0.333,0.333,1","1",""
"","html-keyboard-response","235","134209","0.0-235.0","3EO896NRAXHJW6FOIP2YR86CZIJTJQ","A2CDPJ7FMJ4WHG","3HUR21WDDUBEMSLDIXZW1FAIHWSYXN","","null","<img src=""img/flower6.png"" style=""width:200px;border:14px solid red;"">","null","","","","","","","","",""
"","image-keyboard-response","236","134446","0.0-236.0","3EO896NRAXHJW6FOIP2YR86CZIJTJQ","A2CDPJ7FMJ4WHG","3HUR21WDDUBEMSLDIXZW1FAIHWSYXN","","235.6000000089407","img/flower2.png","76","236.79999999701977","3","1","3","1","1,0.333,0.333,0.333,1,0.333,0.333,0.333,1","1,0.333,0.333,0.333,1,0.333,0.333,0.333,1","1",""
"","html-keyboard-response","237","134753","0.0-237.0","3EO896NRAXHJW6FOIP2YR86CZIJTJQ","A2CDPJ7FMJ4WHG","3HUR21WDDUBEMSLDIXZW1FAIHWSYXN","","null","<img src=""img/flower2.png"" style=""width:200px; border:14px solid green;"">","null","","","","","","","","",""
"","image-keyboard-response","238","134817","0.0-238.0","3EO896NRAXHJW6FOIP2YR86CZIJTJQ","A2CDPJ7FMJ4WHG","3HUR21WDDUBEMSLDIXZW1FAIHWSYXN","","62.79999999701977","img/flower3.png","76","63.8999999910593","3","1","2","1","1,0.333,0.333,0.333,1,0.333,0.333,0.333,1","1,0.333,0.333,0.333,1,0.333,0.333,0.333,1","1",""
"","html-keyboard-response","239","135119","0.0-239.0","3EO896NRAXHJW6FOIP2YR86CZIJTJQ","A2CDPJ7FMJ4WHG","3HUR21WDDUBEMSLDIXZW1FAIHWSYXN","","null","<img src=""img/flower3.png"" style=""width:200px; border:14px solid green;"">","null","","","","","","","","",""
"","image-keyboard-response","240","135301","0.0-240.0","3EO896NRAXHJW6FOIP2YR86CZIJTJQ","A2CDPJ7FMJ4WHG","3HUR21WDDUBEMSLDIXZW1FAIHWSYXN","","181.59999999403954","img/flower3.png","74","182.3999999910593","1","0","2","1","1,0.333,0.333,0.333,1,0.333,0.333,0.333,1","1,0.333,0.333,0.333,1,0.333,0.333,0.333,1","1",""
"","html-keyboard-response","241","135605","0.0-241.0","3EO896NRAXHJW6FOIP2YR86CZIJTJQ","A2CDPJ7FMJ4WHG","3HUR21WDDUBEMSLDIXZW1FAIHWSYXN","","null","<img src=""img/flower3.png"" style=""width:200px;border:14px solid red;"">","null","","","","","","","","",""
"","image-keyboard-response","242","135821","0.0-242.0","3EO896NRAXHJW6FOIP2YR86CZIJTJQ","A2CDPJ7FMJ4WHG","3HUR21WDDUBEMSLDIXZW1FAIHWSYXN","","214.09999999403954","img/flower2.png","76","215.29999999701977","3","1","3","1","1,0.333,0.333,0.333,1,0.333,0.333,0.333,1","1,0.333,0.333,0.333,1,0.333,0.333,0.333,1","1",""
"","html-keyboard-response","243","136124","0.0-243.0","3EO896NRAXHJW6FOIP2YR86CZIJTJQ","A2CDPJ7FMJ4WHG","3HUR21WDDUBEMSLDIXZW1FAIHWSYXN","","null","<img src=""img/flower2.png"" style=""width:200px; border:14px solid green;"">","null","","","","","","","","",""
"","image-keyboard-response","244","136198","0.0-244.0","3EO896NRAXHJW6FOIP2YR86CZIJTJQ","A2CDPJ7FMJ4WHG","3HUR21WDDUBEMSLDIXZW1FAIHWSYXN","","72.70000000298023","img/flower6.png","76","73.79999999701977","3","0","1","1","1,0.333,0.333,0.333,1,0.333,0.333,0.333,1","1,0.333,0.333,0.333,1,0.333,0.333,0.333,1","1",""
"","html-keyboard-response","245","136502","0.0-245.0","3EO896NRAXHJW6FOIP2YR86CZIJTJQ","A2CDPJ7FMJ4WHG","3HUR21WDDUBEMSLDIXZW1FAIHWSYXN","","null","<img src=""img/flower6.png"" style=""width:200px;border:14px solid red;"">","null","","","","","","","","",""
"","image-keyboard-response","246","136634","0.0-246.0","3EO896NRAXHJW6FOIP2YR86CZIJTJQ","A2CDPJ7FMJ4WHG","3HUR21WDDUBEMSLDIXZW1FAIHWSYXN","","130.09999999403954","img/flower6.png","76","131.19999998807907","3","1","1","1","1,0.333,0.333,0.333,1,0.333,0.333,0.333,1","1,0.333,0.333,0.333,1,0.333,0.333,0.333,1","1",""
"","html-keyboard-response","247","136940","0.0-247.0","3EO896NRAXHJW6FOIP2YR86CZIJTJQ","A2CDPJ7FMJ4WHG","3HUR21WDDUBEMSLDIXZW1FAIHWSYXN","","null","<img src=""img/flower6.png"" style=""width:200px; border:14px solid green;"">","null","","","","","","","","",""
"","image-keyboard-response","248","136976","0.0-248.0","3EO896NRAXHJW6FOIP2YR86CZIJTJQ","A2CDPJ7FMJ4WHG","3HUR21WDDUBEMSLDIXZW1FAIHWSYXN","","34.19999998807907","img/flower2.png","75","35.599999994039536","2","0","3","1","1,0.333,0.333,0.333,1,0.333,0.333,0.333,1","1,0.333,0.333,0.333,1,0.333,0.333,0.333,1","1",""
"","html-keyboard-response","249","137283","0.0-249.0","3EO896NRAXHJW6FOIP2YR86CZIJTJQ","A2CDPJ7FMJ4WHG","3HUR21WDDUBEMSLDIXZW1FAIHWSYXN","","null","<img src=""img/flower2.png"" style=""width:200px;border:14px solid red;"">","null","","","","","","","","",""
"","image-keyboard-response","250","137411","0.0-250.0","3EO896NRAXHJW6FOIP2YR86CZIJTJQ","A2CDPJ7FMJ4WHG","3HUR21WDDUBEMSLDIXZW1FAIHWSYXN","","126.8999999910593","img/flower2.png","76","128.29999999701977","3","1","3","1","1,0.333,0.333,0.333,1,0.333,0.333,0.333,1","1,0.333,0.333,0.333,1,0.333,0.333,0.333,1","1",""
"","html-keyboard-response","251","137718","0.0-251.0","3EO896NRAXHJW6FOIP2YR86CZIJTJQ","A2CDPJ7FMJ4WHG","3HUR21WDDUBEMSLDIXZW1FAIHWSYXN","","null","<img src=""img/flower2.png"" style=""width:200px; border:14px solid green;"">","null","","","","","","","","",""
"","image-keyboard-response","252","137778","0.0-252.0","3EO896NRAXHJW6FOIP2YR86CZIJTJQ","A2CDPJ7FMJ4WHG","3HUR21WDDUBEMSLDIXZW1FAIHWSYXN","","58.6000000089407","img/flower6.png","76","59.69999998807907","3","1","1","1","1,0.333,0.333,0.333,1,0.333,0.333,0.333,1","1,0.333,0.333,0.333,1,0.333,0.333,0.333,1","1",""
"","html-keyboard-response","253","138085","0.0-253.0","3EO896NRAXHJW6FOIP2YR86CZIJTJQ","A2CDPJ7FMJ4WHG","3HUR21WDDUBEMSLDIXZW1FAIHWSYXN","","null","<img src=""img/flower6.png"" style=""width:200px; border:14px solid green;"">","null","","","","","","","","",""
"","image-keyboard-response","254","138364","0.0-254.0","3EO896NRAXHJW6FOIP2YR86CZIJTJQ","A2CDPJ7FMJ4WHG","3HUR21WDDUBEMSLDIXZW1FAIHWSYXN","","278.09999999403954","img/flower3.png","76","279.20000000298023","3","1","2","1","1,0.333,0.333,0.333,1,0.333,0.333,0.333,1","1,0.333,0.333,0.333,1,0.333,0.333,0.333,1","1",""
"","html-keyboard-response","255","138670","0.0-255.0","3EO896NRAXHJW6FOIP2YR86CZIJTJQ","A2CDPJ7FMJ4WHG","3HUR21WDDUBEMSLDIXZW1FAIHWSYXN","","null","<img src=""img/flower3.png"" style=""width:200px; border:14px solid green;"">","null","","","","","","","","",""
"","image-keyboard-response","256","139383","0.0-256.0","3EO896NRAXHJW6FOIP2YR86CZIJTJQ","A2CDPJ7FMJ4WHG","3HUR21WDDUBEMSLDIXZW1FAIHWSYXN","","711.3999999910593","img/flower2.png","76","712.5","3","1","3","1","1,0.333,0.333,0.333,1,0.333,0.333,0.333,1","1,0.333,0.333,0.333,1,0.333,0.333,0.333,1","1",""
"","html-keyboard-response","257","139685","0.0-257.0","3EO896NRAXHJW6FOIP2YR86CZIJTJQ","A2CDPJ7FMJ4WHG","3HUR21WDDUBEMSLDIXZW1FAIHWSYXN","","null","<img src=""img/flower2.png"" style=""width:200px; border:14px solid green;"">","null","","","","","","","","",""
"","image-keyboard-response","258","139886","0.0-258.0","3EO896NRAXHJW6FOIP2YR86CZIJTJQ","A2CDPJ7FMJ4WHG","3HUR21WDDUBEMSLDIXZW1FAIHWSYXN","","199.70000000298023","img/flower3.png","76","200.8999999910593","3","1","2","1","1,0.333,0.333,0.333,1,0.333,0.333,0.333,1","1,0.333,0.333,0.333,1,0.333,0.333,0.333,1","1",""
"","html-keyboard-response","259","140190","0.0-259.0","3EO896NRAXHJW6FOIP2YR86CZIJTJQ","A2CDPJ7FMJ4WHG","3HUR21WDDUBEMSLDIXZW1FAIHWSYXN","","null","<img src=""img/flower3.png"" style=""width:200px; border:14px solid green;"">","null","","","","","","","","",""
"","image-keyboard-response","260","140309","0.0-260.0","3EO896NRAXHJW6FOIP2YR86CZIJTJQ","A2CDPJ7FMJ4WHG","3HUR21WDDUBEMSLDIXZW1FAIHWSYXN","","117.59999999403954","img/flower6.png","74","118.79999999701977","1","1","1","1","1,0.333,0.333,0.333,1,0.333,0.333,0.333,1","1,0.333,0.333,0.333,1,0.333,0.333,0.333,1","1",""
"","html-keyboard-response","261","140614","0.0-261.0","3EO896NRAXHJW6FOIP2YR86CZIJTJQ","A2CDPJ7FMJ4WHG","3HUR21WDDUBEMSLDIXZW1FAIHWSYXN","","null","<img src=""img/flower6.png"" style=""width:200px; border:14px solid green;"">","null","","","","","","","","",""
"","image-keyboard-response","262","140797","0.0-262.0","3EO896NRAXHJW6FOIP2YR86CZIJTJQ","A2CDPJ7FMJ4WHG","3HUR21WDDUBEMSLDIXZW1FAIHWSYXN","","181","img/flower6.png","76","182","3","0","1","1","1,0.333,0.333,0.333,1,0.333,0.333,0.333,1","1,0.333,0.333,0.333,1,0.333,0.333,0.333,1","1",""
"","html-keyboard-response","263","141104","0.0-263.0","3EO896NRAXHJW6FOIP2YR86CZIJTJQ","A2CDPJ7FMJ4WHG","3HUR21WDDUBEMSLDIXZW1FAIHWSYXN","","null","<img src=""img/flower6.png"" style=""width:200px;border:14px solid red;"">","null","","","","","","","","",""
"","image-keyboard-response","264","141332","0.0-264.0","3EO896NRAXHJW6FOIP2YR86CZIJTJQ","A2CDPJ7FMJ4WHG","3HUR21WDDUBEMSLDIXZW1FAIHWSYXN","","226.79999999701977","img/flower2.png","76","227.90000000596046","3","1","3","1","1,0.333,0.333,0.333,1,0.333,0.333,0.333,1","1,0.333,0.333,0.333,1,0.333,0.333,0.333,1","1",""
"","html-keyboard-response","265","141635","0.0-265.0","3EO896NRAXHJW6FOIP2YR86CZIJTJQ","A2CDPJ7FMJ4WHG","3HUR21WDDUBEMSLDIXZW1FAIHWSYXN","","null","<img src=""img/flower2.png"" style=""width:200px; border:14px solid green;"">","null","","","","","","","","",""
"","image-keyboard-response","266","141762","0.0-266.0","3EO896NRAXHJW6FOIP2YR86CZIJTJQ","A2CDPJ7FMJ4WHG","3HUR21WDDUBEMSLDIXZW1FAIHWSYXN","","124.79999999701977","img/flower2.png","76","126","3","1","3","1","1,0.333,0.333,0.333,1,0.333,0.333,0.333,1","1,0.333,0.333,0.333,1,0.333,0.333,0.333,1","1",""
"","html-keyboard-response","267","142065","0.0-267.0","3EO896NRAXHJW6FOIP2YR86CZIJTJQ","A2CDPJ7FMJ4WHG","3HUR21WDDUBEMSLDIXZW1FAIHWSYXN","","null","<img src=""img/flower2.png"" style=""width:200px; border:14px solid green;"">","null","","","","","","","","",""
"","image-keyboard-response","268","142203","0.0-268.0","3EO896NRAXHJW6FOIP2YR86CZIJTJQ","A2CDPJ7FMJ4WHG","3HUR21WDDUBEMSLDIXZW1FAIHWSYXN","","136.30000001192093","img/flower2.png","76","137.5","3","1","3","1","1,0.333,0.333,0.333,1,0.333,0.333,0.333,1","1,0.333,0.333,0.333,1,0.333,0.333,0.333,1","1",""
"","html-keyboard-response","269","142507","0.0-269.0","3EO896NRAXHJW6FOIP2YR86CZIJTJQ","A2CDPJ7FMJ4WHG","3HUR21WDDUBEMSLDIXZW1FAIHWSYXN","","null","<img src=""img/flower2.png"" style=""width:200px; border:14px solid green;"">","null","","","","","","","","",""
"","image-keyboard-response","270","142793","0.0-270.0","3EO896NRAXHJW6FOIP2YR86CZIJTJQ","A2CDPJ7FMJ4WHG","3HUR21WDDUBEMSLDIXZW1FAIHWSYXN","","284","img/flower2.png","76","285.20000000298023","3","1","3","1","1,0.333,0.333,0.333,1,0.333,0.333,0.333,1","1,0.333,0.333,0.333,1,0.333,0.333,0.333,1","1",""
"","html-keyboard-response","271","143095","0.0-271.0","3EO896NRAXHJW6FOIP2YR86CZIJTJQ","A2CDPJ7FMJ4WHG","3HUR21WDDUBEMSLDIXZW1FAIHWSYXN","","null","<img src=""img/flower2.png"" style=""width:200px; border:14px solid green;"">","null","","","","","","","","",""
"","image-keyboard-response","272","143270","0.0-272.0","3EO896NRAXHJW6FOIP2YR86CZIJTJQ","A2CDPJ7FMJ4WHG","3HUR21WDDUBEMSLDIXZW1FAIHWSYXN","","172.90000000596046","img/flower6.png","76","173.8999999910593","3","0","1","1","1,0.333,0.333,0.333,1,0.333,0.333,0.333,1","1,0.333,0.333,0.333,1,0.333,0.333,0.333,1","1",""
"","html-keyboard-response","273","143574","0.0-273.0","3EO896NRAXHJW6FOIP2YR86CZIJTJQ","A2CDPJ7FMJ4WHG","3HUR21WDDUBEMSLDIXZW1FAIHWSYXN","","null","<img src=""img/flower6.png"" style=""width:200px;border:14px solid red;"">","null","","","","","","","","",""
"","image-keyboard-response","274","144028","0.0-274.0","3EO896NRAXHJW6FOIP2YR86CZIJTJQ","A2CDPJ7FMJ4WHG","3HUR21WDDUBEMSLDIXZW1FAIHWSYXN","","451.90000000596046","img/flower2.png","74","453","1","1","3","1","1,0.333,0.333,0.333,1,0.333,0.333,0.333,1","1,0.333,0.333,0.333,1,0.333,0.333,0.333,1","1",""
"","html-keyboard-response","275","144332","0.0-275.0","3EO896NRAXHJW6FOIP2YR86CZIJTJQ","A2CDPJ7FMJ4WHG","3HUR21WDDUBEMSLDIXZW1FAIHWSYXN","","null","<img src=""img/flower2.png"" style=""width:200px; border:14px solid green;"">","null","","","","","","","","",""
"","image-keyboard-response","276","144493","0.0-276.0","3EO896NRAXHJW6FOIP2YR86CZIJTJQ","A2CDPJ7FMJ4WHG","3HUR21WDDUBEMSLDIXZW1FAIHWSYXN","","159.6000000089407","img/flower6.png","74","160.40000000596046","1","1","1","1","1,0.333,0.333,0.333,1,0.333,0.333,0.333,1","1,0.333,0.333,0.333,1,0.333,0.333,0.333,1","1",""
"","html-keyboard-response","277","144799","0.0-277.0","3EO896NRAXHJW6FOIP2YR86CZIJTJQ","A2CDPJ7FMJ4WHG","3HUR21WDDUBEMSLDIXZW1FAIHWSYXN","","null","<img src=""img/flower6.png"" style=""width:200px; border:14px solid green;"">","null","","","","","","","","",""
"","image-keyboard-response","278","144854","0.0-278.0","3EO896NRAXHJW6FOIP2YR86CZIJTJQ","A2CDPJ7FMJ4WHG","3HUR21WDDUBEMSLDIXZW1FAIHWSYXN","","53.099999994039536","img/flower6.png","74","54.30000001192093","1","1","1","1","1,0.333,0.333,0.333,1,0.333,0.333,0.333,1","1,0.333,0.333,0.333,1,0.333,0.333,0.333,1","1",""
"","html-keyboard-response","279","145161","0.0-279.0","3EO896NRAXHJW6FOIP2YR86CZIJTJQ","A2CDPJ7FMJ4WHG","3HUR21WDDUBEMSLDIXZW1FAIHWSYXN","","null","<img src=""img/flower6.png"" style=""width:200px; border:14px solid green;"">","null","","","","","","","","",""
"","image-keyboard-response","280","145309","0.0-280.0","3EO896NRAXHJW6FOIP2YR86CZIJTJQ","A2CDPJ7FMJ4WHG","3HUR21WDDUBEMSLDIXZW1FAIHWSYXN","","147.19999998807907","img/flower2.png","75","148.29999999701977","2","0","3","1","1,0.333,0.333,0.333,1,0.333,0.333,0.333,1","1,0.333,0.333,0.333,1,0.333,0.333,0.333,1","1",""
"","html-keyboard-response","281","145615","0.0-281.0","3EO896NRAXHJW6FOIP2YR86CZIJTJQ","A2CDPJ7FMJ4WHG","3HUR21WDDUBEMSLDIXZW1FAIHWSYXN","","null","<img src=""img/flower2.png"" style=""width:200px;border:14px solid red;"">","null","","","","","","","","",""
"","image-keyboard-response","282","145779","0.0-282.0","3EO896NRAXHJW6FOIP2YR86CZIJTJQ","A2CDPJ7FMJ4WHG","3HUR21WDDUBEMSLDIXZW1FAIHWSYXN","","162.29999999701977","img/flower6.png","74","163.6000000089407","1","1","1","1","1,0.333,0.333,0.333,1,0.333,0.333,0.333,1","1,0.333,0.333,0.333,1,0.333,0.333,0.333,1","1",""
"","html-keyboard-response","283","146080","0.0-283.0","3EO896NRAXHJW6FOIP2YR86CZIJTJQ","A2CDPJ7FMJ4WHG","3HUR21WDDUBEMSLDIXZW1FAIHWSYXN","","null","<img src=""img/flower6.png"" style=""width:200px; border:14px solid green;"">","null","","","","","","","","",""
"","image-keyboard-response","284","146122","0.0-284.0","3EO896NRAXHJW6FOIP2YR86CZIJTJQ","A2CDPJ7FMJ4WHG","3HUR21WDDUBEMSLDIXZW1FAIHWSYXN","","39.70000000298023","img/flower2.png","74","40.900000005960464","1","1","3","1","1,0.333,0.333,0.333,1,0.333,0.333,0.333,1","1,0.333,0.333,0.333,1,0.333,0.333,0.333,1","1",""
"","html-keyboard-response","285","146424","0.0-285.0","3EO896NRAXHJW6FOIP2YR86CZIJTJQ","A2CDPJ7FMJ4WHG","3HUR21WDDUBEMSLDIXZW1FAIHWSYXN","","null","<img src=""img/flower2.png"" style=""width:200px; border:14px solid green;"">","null","","","","","","","","",""
"","image-keyboard-response","286","146685","0.0-286.0","3EO896NRAXHJW6FOIP2YR86CZIJTJQ","A2CDPJ7FMJ4WHG","3HUR21WDDUBEMSLDIXZW1FAIHWSYXN","","259","img/flower2.png","74","260.1000000089407","1","1","3","1","1,0.333,0.333,0.333,1,0.333,0.333,0.333,1","1,0.333,0.333,0.333,1,0.333,0.333,0.333,1","1",""
"","html-keyboard-response","287","146988","0.0-287.0","3EO896NRAXHJW6FOIP2YR86CZIJTJQ","A2CDPJ7FMJ4WHG","3HUR21WDDUBEMSLDIXZW1FAIHWSYXN","","null","<img src=""img/flower2.png"" style=""width:200px; border:14px solid green;"">","null","","","","","","","","",""
"","image-keyboard-response","288","147504","0.0-288.0","3EO896NRAXHJW6FOIP2YR86CZIJTJQ","A2CDPJ7FMJ4WHG","3HUR21WDDUBEMSLDIXZW1FAIHWSYXN","","514","img/flower6.png","76","515.2999999970198","3","0","1","1","1,0.333,0.333,0.333,1,0.333,0.333,0.333,1","1,0.333,0.333,0.333,1,0.333,0.333,0.333,1","1",""
"","html-keyboard-response","289","147811","0.0-289.0","3EO896NRAXHJW6FOIP2YR86CZIJTJQ","A2CDPJ7FMJ4WHG","3HUR21WDDUBEMSLDIXZW1FAIHWSYXN","","null","<img src=""img/flower6.png"" style=""width:200px;border:14px solid red;"">","null","","","","","","","","",""
"","image-keyboard-response","290","148001","0.0-290.0","3EO896NRAXHJW6FOIP2YR86CZIJTJQ","A2CDPJ7FMJ4WHG","3HUR21WDDUBEMSLDIXZW1FAIHWSYXN","","189.20000000298023","img/flower2.png","74","190.09999999403954","1","1","3","1","1,0.333,0.333,0.333,1,0.333,0.333,0.333,1","1,0.333,0.333,0.333,1,0.333,0.333,0.333,1","1",""
"","html-keyboard-response","291","148308","0.0-291.0","3EO896NRAXHJW6FOIP2YR86CZIJTJQ","A2CDPJ7FMJ4WHG","3HUR21WDDUBEMSLDIXZW1FAIHWSYXN","","null","<img src=""img/flower2.png"" style=""width:200px; border:14px solid green;"">","null","","","","","","","","",""
"","image-keyboard-response","292","148412","0.0-292.0","3EO896NRAXHJW6FOIP2YR86CZIJTJQ","A2CDPJ7FMJ4WHG","3HUR21WDDUBEMSLDIXZW1FAIHWSYXN","","103.5","img/flower3.png","74","104.5","1","0","2","1","1,0.333,0.333,0.333,1,0.333,0.333,0.333,1","1,0.333,0.333,0.333,1,0.333,0.333,0.333,1","1",""
"","html-keyboard-response","293","148718","0.0-293.0","3EO896NRAXHJW6FOIP2YR86CZIJTJQ","A2CDPJ7FMJ4WHG","3HUR21WDDUBEMSLDIXZW1FAIHWSYXN","","null","<img src=""img/flower3.png"" style=""width:200px;border:14px solid red;"">","null","","","","","","","","",""
"","image-keyboard-response","294","148986","0.0-294.0","3EO896NRAXHJW6FOIP2YR86CZIJTJQ","A2CDPJ7FMJ4WHG","3HUR21WDDUBEMSLDIXZW1FAIHWSYXN","","265.90000000596046","img/flower3.png","76","267.20000000298023","3","0","2","1","1,0.333,0.333,0.333,1,0.333,0.333,0.333,1","1,0.333,0.333,0.333,1,0.333,0.333,0.333,1","1",""
"","html-keyboard-response","295","149290","0.0-295.0","3EO896NRAXHJW6FOIP2YR86CZIJTJQ","A2CDPJ7FMJ4WHG","3HUR21WDDUBEMSLDIXZW1FAIHWSYXN","","null","<img src=""img/flower3.png"" style=""width:200px;border:14px solid red;"">","null","","","","","","","","",""
"","image-keyboard-response","296","149409","0.0-296.0","3EO896NRAXHJW6FOIP2YR86CZIJTJQ","A2CDPJ7FMJ4WHG","3HUR21WDDUBEMSLDIXZW1FAIHWSYXN","","118.59999999403954","img/flower2.png","76","119.59999999403954","3","1","3","1","1,0.333,0.333,0.333,1,0.333,0.333,0.333,1","1,0.333,0.333,0.333,1,0.333,0.333,0.333,1","1",""
"","html-keyboard-response","297","149715","0.0-297.0","3EO896NRAXHJW6FOIP2YR86CZIJTJQ","A2CDPJ7FMJ4WHG","3HUR21WDDUBEMSLDIXZW1FAIHWSYXN","","null","<img src=""img/flower2.png"" style=""width:200px; border:14px solid green;"">","null","","","","","","","","",""
"","image-keyboard-response","298","151236","0.0-298.0","3EO896NRAXHJW6FOIP2YR86CZIJTJQ","A2CDPJ7FMJ4WHG","3HUR21WDDUBEMSLDIXZW1FAIHWSYXN","","1519.0999999940395","img/flower2.png","76","1520.2000000029802","3","1","3","1","1,0.333,0.333,0.333,1,0.333,0.333,0.333,1","1,0.333,0.333,0.333,1,0.333,0.333,0.333,1","1",""
"","html-keyboard-response","299","151543","0.0-299.0","3EO896NRAXHJW6FOIP2YR86CZIJTJQ","A2CDPJ7FMJ4WHG","3HUR21WDDUBEMSLDIXZW1FAIHWSYXN","","null","<img src=""img/flower2.png"" style=""width:200px; border:14px solid green;"">","null","","","","","","","","",""
"","image-keyboard-response","300","151778","0.0-300.0","3EO896NRAXHJW6FOIP2YR86CZIJTJQ","A2CDPJ7FMJ4WHG","3HUR21WDDUBEMSLDIXZW1FAIHWSYXN","","234.30000001192093","img/flower3.png","76","234.70000000298023","3","0","2","1","1,0.333,0.333,0.333,1,0.333,0.333,0.333,1","1,0.333,0.333,0.333,1,0.333,0.333,0.333,1","1",""
"","html-keyboard-response","301","152081","0.0-301.0","3EO896NRAXHJW6FOIP2YR86CZIJTJQ","A2CDPJ7FMJ4WHG","3HUR21WDDUBEMSLDIXZW1FAIHWSYXN","","null","<img src=""img/flower3.png"" style=""width:200px;border:14px solid red;"">","null","","","","","","","","",""
"","image-keyboard-response","302","152573","0.0-302.0","3EO896NRAXHJW6FOIP2YR86CZIJTJQ","A2CDPJ7FMJ4WHG","3HUR21WDDUBEMSLDIXZW1FAIHWSYXN","","490.79999999701977","img/flower6.png","76","492","3","1","1","1","1,0.333,0.333,0.333,1,0.333,0.333,0.333,1","1,0.333,0.333,0.333,1,0.333,0.333,0.333,1","1",""
"","html-keyboard-response","303","152880","0.0-303.0","3EO896NRAXHJW6FOIP2YR86CZIJTJQ","A2CDPJ7FMJ4WHG","3HUR21WDDUBEMSLDIXZW1FAIHWSYXN","","null","<img src=""img/flower6.png"" style=""width:200px; border:14px solid green;"">","null","","","","","","","","",""
"","image-keyboard-response","304","153195","0.0-304.0","3EO896NRAXHJW6FOIP2YR86CZIJTJQ","A2CDPJ7FMJ4WHG","3HUR21WDDUBEMSLDIXZW1FAIHWSYXN","","313.59999999403954","img/flower2.png","76","314.79999999701977","3","1","3","1","1,0.333,0.333,0.333,1,0.333,0.333,0.333,1","1,0.333,0.333,0.333,1,0.333,0.333,0.333,1","1",""
"","html-keyboard-response","305","153500","0.0-305.0","3EO896NRAXHJW6FOIP2YR86CZIJTJQ","A2CDPJ7FMJ4WHG","3HUR21WDDUBEMSLDIXZW1FAIHWSYXN","","null","<img src=""img/flower2.png"" style=""width:200px; border:14px solid green;"">","null","","","","","","","","",""
"","image-keyboard-response","306","153569","0.0-306.0","3EO896NRAXHJW6FOIP2YR86CZIJTJQ","A2CDPJ7FMJ4WHG","3HUR21WDDUBEMSLDIXZW1FAIHWSYXN","","67.8999999910593","img/flower6.png","76","69.30000001192093","3","0","1","1","1,0.333,0.333,0.333,1,0.333,0.333,0.333,1","1,0.333,0.333,0.333,1,0.333,0.333,0.333,1","1",""
"","html-keyboard-response","307","153873","0.0-307.0","3EO896NRAXHJW6FOIP2YR86CZIJTJQ","A2CDPJ7FMJ4WHG","3HUR21WDDUBEMSLDIXZW1FAIHWSYXN","","null","<img src=""img/flower6.png"" style=""width:200px;border:14px solid red;"">","null","","","","","","","","",""
"","image-keyboard-response","308","154009","0.0-308.0","3EO896NRAXHJW6FOIP2YR86CZIJTJQ","A2CDPJ7FMJ4WHG","3HUR21WDDUBEMSLDIXZW1FAIHWSYXN","","134.70000000298023","img/flower3.png","76","136","3","1","2","1","1,0.333,0.333,0.333,1,0.333,0.333,0.333,1","1,0.333,0.333,0.333,1,0.333,0.333,0.333,1","1",""
"","html-keyboard-response","309","154316","0.0-309.0","3EO896NRAXHJW6FOIP2YR86CZIJTJQ","A2CDPJ7FMJ4WHG","3HUR21WDDUBEMSLDIXZW1FAIHWSYXN","","null","<img src=""img/flower3.png"" style=""width:200px; border:14px solid green;"">","null","","","","","","","","",""
"","image-keyboard-response","310","154481","0.0-310.0","3EO896NRAXHJW6FOIP2YR86CZIJTJQ","A2CDPJ7FMJ4WHG","3HUR21WDDUBEMSLDIXZW1FAIHWSYXN","","164.20000000298023","img/flower6.png","76","165.20000000298023","3","0","1","1","1,0.333,0.333,0.333,1,0.333,0.333,0.333,1","1,0.333,0.333,0.333,1,0.333,0.333,0.333,1","1",""
"","html-keyboard-response","311","154788","0.0-311.0","3EO896NRAXHJW6FOIP2YR86CZIJTJQ","A2CDPJ7FMJ4WHG","3HUR21WDDUBEMSLDIXZW1FAIHWSYXN","","null","<img src=""img/flower6.png"" style=""width:200px;border:14px solid red;"">","null","","","","","","","","",""
"","image-keyboard-response","312","154856","0.0-312.0","3EO896NRAXHJW6FOIP2YR86CZIJTJQ","A2CDPJ7FMJ4WHG","3HUR21WDDUBEMSLDIXZW1FAIHWSYXN","","67.20000000298023","img/flower6.png","76","68.29999999701977","3","1","1","1","1,0.333,0.333,0.333,1,0.333,0.333,0.333,1","1,0.333,0.333,0.333,1,0.333,0.333,0.333,1","1",""
"","html-keyboard-response","313","155164","0.0-313.0","3EO896NRAXHJW6FOIP2YR86CZIJTJQ","A2CDPJ7FMJ4WHG","3HUR21WDDUBEMSLDIXZW1FAIHWSYXN","","null","<img src=""img/flower6.png"" style=""width:200px; border:14px solid green;"">","null","","","","","","","","",""
"","image-keyboard-response","314","155741","0.0-314.0","3EO896NRAXHJW6FOIP2YR86CZIJTJQ","A2CDPJ7FMJ4WHG","3HUR21WDDUBEMSLDIXZW1FAIHWSYXN","","576.4000000059605","img/flower3.png","76","577.5","3","0","2","1","1,0.333,0.333,0.333,1,0.333,0.333,0.333,1","1,0.333,0.333,0.333,1,0.333,0.333,0.333,1","1",""
"","html-keyboard-response","315","156048","0.0-315.0","3EO896NRAXHJW6FOIP2YR86CZIJTJQ","A2CDPJ7FMJ4WHG","3HUR21WDDUBEMSLDIXZW1FAIHWSYXN","","null","<img src=""img/flower3.png"" style=""width:200px;border:14px solid red;"">","null","","","","","","","","",""
"","image-keyboard-response","316","156334","0.0-316.0","3EO896NRAXHJW6FOIP2YR86CZIJTJQ","A2CDPJ7FMJ4WHG","3HUR21WDDUBEMSLDIXZW1FAIHWSYXN","","284.8999999910593","img/flower6.png","75","286.20000000298023","2","1","1","1","1,0.333,0.333,0.333,1,0.333,0.333,0.333,1","1,0.333,0.333,0.333,1,0.333,0.333,0.333,1","1",""
"","html-keyboard-response","317","156641","0.0-317.0","3EO896NRAXHJW6FOIP2YR86CZIJTJQ","A2CDPJ7FMJ4WHG","3HUR21WDDUBEMSLDIXZW1FAIHWSYXN","","null","<img src=""img/flower6.png"" style=""width:200px; border:14px solid green;"">","null","","","","","","","","",""
"","image-keyboard-response","318","156779","0.0-318.0","3EO896NRAXHJW6FOIP2YR86CZIJTJQ","A2CDPJ7FMJ4WHG","3HUR21WDDUBEMSLDIXZW1FAIHWSYXN","","137.29999999701977","img/flower6.png","75","138.5","2","1","1","1","1,0.333,0.333,0.333,1,0.333,0.333,0.333,1","1,0.333,0.333,0.333,1,0.333,0.333,0.333,1","1",""
"","html-keyboard-response","319","157083","0.0-319.0","3EO896NRAXHJW6FOIP2YR86CZIJTJQ","A2CDPJ7FMJ4WHG","3HUR21WDDUBEMSLDIXZW1FAIHWSYXN","","null","<img src=""img/flower6.png"" style=""width:200px; border:14px solid green;"">","null","","","","","","","","",""
"","image-keyboard-response","320","157272","0.0-320.0","3EO896NRAXHJW6FOIP2YR86CZIJTJQ","A2CDPJ7FMJ4WHG","3HUR21WDDUBEMSLDIXZW1FAIHWSYXN","","187.79999999701977","img/flower6.png","75","188.79999999701977","2","0","1","1","1,0.333,0.333,0.333,1,0.333,0.333,0.333,1","1,0.333,0.333,0.333,1,0.333,0.333,0.333,1","1",""
"","html-keyboard-response","321","157579","0.0-321.0","3EO896NRAXHJW6FOIP2YR86CZIJTJQ","A2CDPJ7FMJ4WHG","3HUR21WDDUBEMSLDIXZW1FAIHWSYXN","","null","<img src=""img/flower6.png"" style=""width:200px;border:14px solid red;"">","null","","","","","","","","",""
"","image-keyboard-response","322","158121","0.0-322.0","3EO896NRAXHJW6FOIP2YR86CZIJTJQ","A2CDPJ7FMJ4WHG","3HUR21WDDUBEMSLDIXZW1FAIHWSYXN","","541","img/flower2.png","74","542.1999999880791","1","1","3","1","1,0.333,0.333,0.333,1,0.333,0.333,0.333,1","1,0.333,0.333,0.333,1,0.333,0.333,0.333,1","1",""
"","html-keyboard-response","323","158423","0.0-323.0","3EO896NRAXHJW6FOIP2YR86CZIJTJQ","A2CDPJ7FMJ4WHG","3HUR21WDDUBEMSLDIXZW1FAIHWSYXN","","null","<img src=""img/flower2.png"" style=""width:200px; border:14px solid green;"">","null","","","","","","","","",""
"","image-keyboard-response","324","158577","0.0-324.0","3EO896NRAXHJW6FOIP2YR86CZIJTJQ","A2CDPJ7FMJ4WHG","3HUR21WDDUBEMSLDIXZW1FAIHWSYXN","","152.5","img/flower6.png","74","153.5","1","1","1","1","1,0.333,0.333,0.333,1,0.333,0.333,0.333,1","1,0.333,0.333,0.333,1,0.333,0.333,0.333,1","1",""
"","html-keyboard-response","325","158881","0.0-325.0","3EO896NRAXHJW6FOIP2YR86CZIJTJQ","A2CDPJ7FMJ4WHG","3HUR21WDDUBEMSLDIXZW1FAIHWSYXN","","null","<img src=""img/flower6.png"" style=""width:200px; border:14px solid green;"">","null","","","","","","","","",""
"","image-keyboard-response","326","158922","0.0-326.0","3EO896NRAXHJW6FOIP2YR86CZIJTJQ","A2CDPJ7FMJ4WHG","3HUR21WDDUBEMSLDIXZW1FAIHWSYXN","","39.6000000089407","img/flower2.png","74","40.69999998807907","1","1","3","1","1,0.333,0.333,0.333,1,0.333,0.333,0.333,1","1,0.333,0.333,0.333,1,0.333,0.333,0.333,1","1",""
"","html-keyboard-response","327","159228","0.0-327.0","3EO896NRAXHJW6FOIP2YR86CZIJTJQ","A2CDPJ7FMJ4WHG","3HUR21WDDUBEMSLDIXZW1FAIHWSYXN","","null","<img src=""img/flower2.png"" style=""width:200px; border:14px solid green;"">","null","","","","","","","","",""
"","image-keyboard-response","328","159353","0.0-328.0","3EO896NRAXHJW6FOIP2YR86CZIJTJQ","A2CDPJ7FMJ4WHG","3HUR21WDDUBEMSLDIXZW1FAIHWSYXN","","123.79999999701977","img/flower3.png","74","125","1","0","2","1","1,0.333,0.333,0.333,1,0.333,0.333,0.333,1","1,0.333,0.333,0.333,1,0.333,0.333,0.333,1","1",""
"","html-keyboard-response","329","159657","0.0-329.0","3EO896NRAXHJW6FOIP2YR86CZIJTJQ","A2CDPJ7FMJ4WHG","3HUR21WDDUBEMSLDIXZW1FAIHWSYXN","","null","<img src=""img/flower3.png"" style=""width:200px;border:14px solid red;"">","null","","","","","","","","",""
"","image-keyboard-response","330","159919","0.0-330.0","3EO896NRAXHJW6FOIP2YR86CZIJTJQ","A2CDPJ7FMJ4WHG","3HUR21WDDUBEMSLDIXZW1FAIHWSYXN","","260.90000000596046","img/flower6.png","76","261.80000001192093","3","0","1","1","1,0.333,0.333,0.333,1,0.333,0.333,0.333,1","1,0.333,0.333,0.333,1,0.333,0.333,0.333,1","1",""
"","html-keyboard-response","331","160226","0.0-331.0","3EO896NRAXHJW6FOIP2YR86CZIJTJQ","A2CDPJ7FMJ4WHG","3HUR21WDDUBEMSLDIXZW1FAIHWSYXN","","null","<img src=""img/flower6.png"" style=""width:200px;border:14px solid red;"">","null","","","","","","","","",""
"","image-keyboard-response","332","160786","0.0-332.0","3EO896NRAXHJW6FOIP2YR86CZIJTJQ","A2CDPJ7FMJ4WHG","3HUR21WDDUBEMSLDIXZW1FAIHWSYXN","","559.1999999880791","img/flower2.png","74","560.2999999970198","1","1","3","1","1,0.333,0.333,0.333,1,0.333,0.333,0.333,1","1,0.333,0.333,0.333,1,0.333,0.333,0.333,1","1",""
"","html-keyboard-response","333","161093","0.0-333.0","3EO896NRAXHJW6FOIP2YR86CZIJTJQ","A2CDPJ7FMJ4WHG","3HUR21WDDUBEMSLDIXZW1FAIHWSYXN","","null","<img src=""img/flower2.png"" style=""width:200px; border:14px solid green;"">","null","","","","","","","","",""
"","image-keyboard-response","334","161105","0.0-334.0","3EO896NRAXHJW6FOIP2YR86CZIJTJQ","A2CDPJ7FMJ4WHG","3HUR21WDDUBEMSLDIXZW1FAIHWSYXN","","11.299999997019768","img/flower3.png","75","12.299999997019768","2","1","2","1","1,0.333,0.333,0.333,1,0.333,0.333,0.333,1","1,0.333,0.333,0.333,1,0.333,0.333,0.333,1","1",""
"","html-keyboard-response","335","161409","0.0-335.0","3EO896NRAXHJW6FOIP2YR86CZIJTJQ","A2CDPJ7FMJ4WHG","3HUR21WDDUBEMSLDIXZW1FAIHWSYXN","","null","<img src=""img/flower3.png"" style=""width:200px; border:14px solid green;"">","null","","","","","","","","",""
"","image-keyboard-response","336","161551","0.0-336.0","3EO896NRAXHJW6FOIP2YR86CZIJTJQ","A2CDPJ7FMJ4WHG","3HUR21WDDUBEMSLDIXZW1FAIHWSYXN","","140.70000000298023","img/flower2.png","75","141.70000000298023","2","0","3","1","1,0.333,0.333,0.333,1,0.333,0.333,0.333,1","1,0.333,0.333,0.333,1,0.333,0.333,0.333,1","1",""
"","html-keyboard-response","337","161856","0.0-337.0","3EO896NRAXHJW6FOIP2YR86CZIJTJQ","A2CDPJ7FMJ4WHG","3HUR21WDDUBEMSLDIXZW1FAIHWSYXN","","null","<img src=""img/flower2.png"" style=""width:200px;border:14px solid red;"">","null","","","","","","","","",""
"","image-keyboard-response","338","162004","0.0-338.0","3EO896NRAXHJW6FOIP2YR86CZIJTJQ","A2CDPJ7FMJ4WHG","3HUR21WDDUBEMSLDIXZW1FAIHWSYXN","","146.90000000596046","img/flower3.png","74","148.1000000089407","1","0","2","1","1,0.333,0.333,0.333,1,0.333,0.333,0.333,1","1,0.333,0.333,0.333,1,0.333,0.333,0.333,1","1",""
"","html-keyboard-response","339","162311","0.0-339.0","3EO896NRAXHJW6FOIP2YR86CZIJTJQ","A2CDPJ7FMJ4WHG","3HUR21WDDUBEMSLDIXZW1FAIHWSYXN","","null","<img src=""img/flower3.png"" style=""width:200px;border:14px solid red;"">","null","","","","","","","","",""
"","image-keyboard-response","340","162527","0.0-340.0","3EO896NRAXHJW6FOIP2YR86CZIJTJQ","A2CDPJ7FMJ4WHG","3HUR21WDDUBEMSLDIXZW1FAIHWSYXN","","215.20000000298023","img/flower3.png","76","216.29999999701977","3","0","2","1","1,0.333,0.333,0.333,1,0.333,0.333,0.333,1","1,0.333,0.333,0.333,1,0.333,0.333,0.333,1","1",""
"","html-keyboard-response","341","162834","0.0-341.0","3EO896NRAXHJW6FOIP2YR86CZIJTJQ","A2CDPJ7FMJ4WHG","3HUR21WDDUBEMSLDIXZW1FAIHWSYXN","","null","<img src=""img/flower3.png"" style=""width:200px;border:14px solid red;"">","null","","","","","","","","",""
"","image-keyboard-response","342","163415","0.0-342.0","3EO896NRAXHJW6FOIP2YR86CZIJTJQ","A2CDPJ7FMJ4WHG","3HUR21WDDUBEMSLDIXZW1FAIHWSYXN","","579.2999999970198","img/flower2.png","76","580.5","3","1","3","1","1,0.333,0.333,0.333,1,0.333,0.333,0.333,1","1,0.333,0.333,0.333,1,0.333,0.333,0.333,1","1",""
"","html-keyboard-response","343","163719","0.0-343.0","3EO896NRAXHJW6FOIP2YR86CZIJTJQ","A2CDPJ7FMJ4WHG","3HUR21WDDUBEMSLDIXZW1FAIHWSYXN","","null","<img src=""img/flower2.png"" style=""width:200px; border:14px solid green;"">","null","","","","","","","","",""
"","image-keyboard-response","344","163747","0.0-344.0","3EO896NRAXHJW6FOIP2YR86CZIJTJQ","A2CDPJ7FMJ4WHG","3HUR21WDDUBEMSLDIXZW1FAIHWSYXN","","27","img/flower2.png","76","28.19999998807907","3","1","3","1","1,0.333,0.333,0.333,1,0.333,0.333,0.333,1","1,0.333,0.333,0.333,1,0.333,0.333,0.333,1","1",""
"","html-keyboard-response","345","164054","0.0-345.0","3EO896NRAXHJW6FOIP2YR86CZIJTJQ","A2CDPJ7FMJ4WHG","3HUR21WDDUBEMSLDIXZW1FAIHWSYXN","","null","<img src=""img/flower2.png"" style=""width:200px; border:14px solid green;"">","null","","","","","","","","",""
"","image-keyboard-response","346","164123","0.0-346.0","3EO896NRAXHJW6FOIP2YR86CZIJTJQ","A2CDPJ7FMJ4WHG","3HUR21WDDUBEMSLDIXZW1FAIHWSYXN","","67.70000000298023","img/flower2.png","76","69","3","1","3","1","1,0.333,0.333,0.333,1,0.333,0.333,0.333,1","1,0.333,0.333,0.333,1,0.333,0.333,0.333,1","1",""
"","html-keyboard-response","347","164428","0.0-347.0","3EO896NRAXHJW6FOIP2YR86CZIJTJQ","A2CDPJ7FMJ4WHG","3HUR21WDDUBEMSLDIXZW1FAIHWSYXN","","null","<img src=""img/flower2.png"" style=""width:200px; border:14px solid green;"">","null","","","","","","","","",""
"","image-keyboard-response","348","164593","0.0-348.0","3EO896NRAXHJW6FOIP2YR86CZIJTJQ","A2CDPJ7FMJ4WHG","3HUR21WDDUBEMSLDIXZW1FAIHWSYXN","","163.59999999403954","img/flower3.png","76","164.79999999701977","3","0","2","1","1,0.333,0.333,0.333,1,0.333,0.333,0.333,1","1,0.333,0.333,0.333,1,0.333,0.333,0.333,1","1",""
"","html-keyboard-response","349","164900","0.0-349.0","3EO896NRAXHJW6FOIP2YR86CZIJTJQ","A2CDPJ7FMJ4WHG","3HUR21WDDUBEMSLDIXZW1FAIHWSYXN","","null","<img src=""img/flower3.png"" style=""width:200px;border:14px solid red;"">","null","","","","","","","","",""
"","image-keyboard-response","350","165154","0.0-350.0","3EO896NRAXHJW6FOIP2YR86CZIJTJQ","A2CDPJ7FMJ4WHG","3HUR21WDDUBEMSLDIXZW1FAIHWSYXN","","252.29999999701977","img/flower2.png","74","253.5","1","0","3","1","1,0.333,0.333,0.333,1,0.333,0.333,0.333,1","1,0.333,0.333,0.333,1,0.333,0.333,0.333,1","1",""
"","html-keyboard-response","351","165457","0.0-351.0","3EO896NRAXHJW6FOIP2YR86CZIJTJQ","A2CDPJ7FMJ4WHG","3HUR21WDDUBEMSLDIXZW1FAIHWSYXN","","null","<img src=""img/flower2.png"" style=""width:200px;border:14px solid red;"">","null","","","","","","","","",""
"","image-keyboard-response","352","165591","0.0-352.0","3EO896NRAXHJW6FOIP2YR86CZIJTJQ","A2CDPJ7FMJ4WHG","3HUR21WDDUBEMSLDIXZW1FAIHWSYXN","","132.29999999701977","img/flower6.png","76","133.40000000596046","3","0","1","1","1,0.333,0.333,0.333,1,0.333,0.333,0.333,1","1,0.333,0.333,0.333,1,0.333,0.333,0.333,1","1",""
"","html-keyboard-response","353","165896","0.0-353.0","3EO896NRAXHJW6FOIP2YR86CZIJTJQ","A2CDPJ7FMJ4WHG","3HUR21WDDUBEMSLDIXZW1FAIHWSYXN","","null","<img src=""img/flower6.png"" style=""width:200px;border:14px solid red;"">","null","","","","","","","","",""
"","image-keyboard-response","354","166059","0.0-354.0","3EO896NRAXHJW6FOIP2YR86CZIJTJQ","A2CDPJ7FMJ4WHG","3HUR21WDDUBEMSLDIXZW1FAIHWSYXN","","162.09999999403954","img/flower6.png","76","163.20000000298023","3","0","1","1","1,0.333,0.333,0.333,1,0.333,0.333,0.333,1","1,0.333,0.333,0.333,1,0.333,0.333,0.333,1","1",""
"","html-keyboard-response","355","166364","0.0-355.0","3EO896NRAXHJW6FOIP2YR86CZIJTJQ","A2CDPJ7FMJ4WHG","3HUR21WDDUBEMSLDIXZW1FAIHWSYXN","","null","<img src=""img/flower6.png"" style=""width:200px;border:14px solid red;"">","null","","","","","","","","",""
"","image-keyboard-response","356","166405","0.0-356.0","3EO896NRAXHJW6FOIP2YR86CZIJTJQ","A2CDPJ7FMJ4WHG","3HUR21WDDUBEMSLDIXZW1FAIHWSYXN","","39.3999999910593","img/flower3.png","75","40.599999994039536","2","1","2","1","1,0.333,0.333,0.333,1,0.333,0.333,0.333,1","1,0.333,0.333,0.333,1,0.333,0.333,0.333,1","1",""
"","html-keyboard-response","357","166711","0.0-357.0","3EO896NRAXHJW6FOIP2YR86CZIJTJQ","A2CDPJ7FMJ4WHG","3HUR21WDDUBEMSLDIXZW1FAIHWSYXN","","null","<img src=""img/flower3.png"" style=""width:200px; border:14px solid green;"">","null","","","","","","","","",""
"","image-keyboard-response","358","167019","0.0-358.0","3EO896NRAXHJW6FOIP2YR86CZIJTJQ","A2CDPJ7FMJ4WHG","3HUR21WDDUBEMSLDIXZW1FAIHWSYXN","","306.80000001192093","img/flower3.png","75","308","2","1","2","1","1,0.333,0.333,0.333,1,0.333,0.333,0.333,1","1,0.333,0.333,0.333,1,0.333,0.333,0.333,1","1",""
"","html-keyboard-response","359","167322","0.0-359.0","3EO896NRAXHJW6FOIP2YR86CZIJTJQ","A2CDPJ7FMJ4WHG","3HUR21WDDUBEMSLDIXZW1FAIHWSYXN","","null","<img src=""img/flower3.png"" style=""width:200px; border:14px solid green;"">","null","","","","","","","","",""
"","image-keyboard-response","360","167420","0.0-360.0","3EO896NRAXHJW6FOIP2YR86CZIJTJQ","A2CDPJ7FMJ4WHG","3HUR21WDDUBEMSLDIXZW1FAIHWSYXN","","96.20000000298023","img/flower3.png","75","97.40000000596046","2","1","2","1","1,0.333,0.333,0.333,1,0.333,0.333,0.333,1","1,0.333,0.333,0.333,1,0.333,0.333,0.333,1","1",""
"","html-keyboard-response","361","167727","0.0-361.0","3EO896NRAXHJW6FOIP2YR86CZIJTJQ","A2CDPJ7FMJ4WHG","3HUR21WDDUBEMSLDIXZW1FAIHWSYXN","","null","<img src=""img/flower3.png"" style=""width:200px; border:14px solid green;"">","null","","","","","","","","",""
"","html-keyboard-response","362","171831","0.0-362.0","3EO896NRAXHJW6FOIP2YR86CZIJTJQ","A2CDPJ7FMJ4WHG","3HUR21WDDUBEMSLDIXZW1FAIHWSYXN","","","","","","","","","","","","",""
"","instructions","363","174982","0.0-363.0","3EO896NRAXHJW6FOIP2YR86CZIJTJQ","A2CDPJ7FMJ4WHG","3HUR21WDDUBEMSLDIXZW1FAIHWSYXN","[{""page_index"":0,""viewing_time"":3148.7000000029802}]","3149.2999999970198","","","","","","","","","","",""
