"rt","url","trial_type","trial_index","time_elapsed","internal_node_id","assignmentID","mturkID","hitID","success","view_history","stimulus","key_press","reactionTime","a","r","s","reward_cond","responses"
"255451","consent.html","external-html","0","255619","0.0-0.0","339ANSOTR6OOYC5V6Y36EG4GZ6RIKD","A2D28BVEFUUTMO","368IUKXGA5U7UZ9GQNUNOB4MGE4P6M","","","","","","","","","",""
"","","fullscreen","1","258359","0.0-1.0","339ANSOTR6OOYC5V6Y36EG4GZ6RIKD","A2D28BVEFUUTMO","368IUKXGA5U7UZ9GQNUNOB4MGE4P6M","true","","","","","","","","",""
"47847","","instructions","2","306216","0.0-2.0","339ANSOTR6OOYC5V6Y36EG4GZ6RIKD","A2D28BVEFUUTMO","368IUKXGA5U7UZ9GQNUNOB4MGE4P6M","","[{""page_index"":0,""viewing_time"":10335},{""page_index"":1,""viewing_time"":6030},{""page_index"":2,""viewing_time"":7327},{""page_index"":3,""viewing_time"":6988},{""page_index"":4,""viewing_time"":3944},{""page_index"":5,""viewing_time"":10708},{""page_index"":6,""viewing_time"":2510}]","","","","","","","",""
"11397","","instructions","3","317617","0.0-3.0","339ANSOTR6OOYC5V6Y36EG4GZ6RIKD","A2D28BVEFUUTMO","368IUKXGA5U7UZ9GQNUNOB4MGE4P6M","","[{""page_index"":0,""viewing_time"":11393}]","","","","","","","",""
"1439","","image-keyboard-response","4","319068","0.0-4.0","339ANSOTR6OOYC5V6Y36EG4GZ6RIKD","A2D28BVEFUUTMO","368IUKXGA5U7UZ9GQNUNOB4MGE4P6M","","","img/flower5.png","75","1447","2","1","2","",""
"null","","html-keyboard-response","5","319395","0.0-5.0","339ANSOTR6OOYC5V6Y36EG4GZ6RIKD","A2D28BVEFUUTMO","368IUKXGA5U7UZ9GQNUNOB4MGE4P6M","","","<img src=""img/flower5.png"" style=""width:200px; border:14px solid green;"">","null","","","","","",""
"1263","","image-keyboard-response","6","320662","0.0-6.0","339ANSOTR6OOYC5V6Y36EG4GZ6RIKD","A2D28BVEFUUTMO","368IUKXGA5U7UZ9GQNUNOB4MGE4P6M","","","img/flower6.png","76","1266","3","1","3","",""
"null","","html-keyboard-response","7","320970","0.0-7.0","339ANSOTR6OOYC5V6Y36EG4GZ6RIKD","A2D28BVEFUUTMO","368IUKXGA5U7UZ9GQNUNOB4MGE4P6M","","","<img src=""img/flower6.png"" style=""width:200px; border:14px solid green;"">","null","","","","","",""
"1036","","image-keyboard-response","8","322012","0.0-8.0","339ANSOTR6OOYC5V6Y36EG4GZ6RIKD","A2D28BVEFUUTMO","368IUKXGA5U7UZ9GQNUNOB4MGE4P6M","","","img/flower5.png","75","1042","2","0","2","",""
"null","","html-keyboard-response","9","322335","0.0-9.0","339ANSOTR6OOYC5V6Y36EG4GZ6RIKD","A2D28BVEFUUTMO","368IUKXGA5U7UZ9GQNUNOB4MGE4P6M","","","<img src=""img/flower5.png"" style=""width:200px;border:14px solid red;"">","null","","","","","",""
"1580","","image-keyboard-response","10","323919","0.0-10.0","339ANSOTR6OOYC5V6Y36EG4GZ6RIKD","A2D28BVEFUUTMO","368IUKXGA5U7UZ9GQNUNOB4MGE4P6M","","","img/flower4.png","74","1584","1","1","1","",""
"null","","html-keyboard-response","11","324224","0.0-11.0","339ANSOTR6OOYC5V6Y36EG4GZ6RIKD","A2D28BVEFUUTMO","368IUKXGA5U7UZ9GQNUNOB4MGE4P6M","","","<img src=""img/flower4.png"" style=""width:200px; border:14px solid green;"">","null","","","","","",""
"1210","","image-keyboard-response","12","325439","0.0-12.0","339ANSOTR6OOYC5V6Y36EG4GZ6RIKD","A2D28BVEFUUTMO","368IUKXGA5U7UZ9GQNUNOB4MGE4P6M","","","img/flower5.png","75","1214","2","1","2","",""
"null","","html-keyboard-response","13","325747","0.0-13.0","339ANSOTR6OOYC5V6Y36EG4GZ6RIKD","A2D28BVEFUUTMO","368IUKXGA5U7UZ9GQNUNOB4MGE4P6M","","","<img src=""img/flower5.png"" style=""width:200px; border:14px solid green;"">","null","","","","","",""
"1348","","image-keyboard-response","14","327102","0.0-14.0","339ANSOTR6OOYC5V6Y36EG4GZ6RIKD","A2D28BVEFUUTMO","368IUKXGA5U7UZ9GQNUNOB4MGE4P6M","","","img/flower4.png","74","1353","1","0","1","",""
"null","","html-keyboard-response","15","327421","0.0-15.0","339ANSOTR6OOYC5V6Y36EG4GZ6RIKD","A2D28BVEFUUTMO","368IUKXGA5U7UZ9GQNUNOB4MGE4P6M","","","<img src=""img/flower4.png"" style=""width:200px;border:14px solid red;"">","null","","","","","",""
"1201","","image-keyboard-response","16","328628","0.0-16.0","339ANSOTR6OOYC5V6Y36EG4GZ6RIKD","A2D28BVEFUUTMO","368IUKXGA5U7UZ9GQNUNOB4MGE4P6M","","","img/flower5.png","75","1207","2","0","2","",""
"null","","html-keyboard-response","17","328949","0.0-17.0","339ANSOTR6OOYC5V6Y36EG4GZ6RIKD","A2D28BVEFUUTMO","368IUKXGA5U7UZ9GQNUNOB4MGE4P6M","","","<img src=""img/flower5.png"" style=""width:200px;border:14px solid red;"">","null","","","","","",""
"871","","image-keyboard-response","18","329826","0.0-18.0","339ANSOTR6OOYC5V6Y36EG4GZ6RIKD","A2D28BVEFUUTMO","368IUKXGA5U7UZ9GQNUNOB4MGE4P6M","","","img/flower6.png","76","877","3","1","3","",""
"null","","html-keyboard-response","19","330132","0.0-19.0","339ANSOTR6OOYC5V6Y36EG4GZ6RIKD","A2D28BVEFUUTMO","368IUKXGA5U7UZ9GQNUNOB4MGE4P6M","","","<img src=""img/flower6.png"" style=""width:200px; border:14px solid green;"">","null","","","","","",""
"1867","","image-keyboard-response","20","332007","0.0-20.0","339ANSOTR6OOYC5V6Y36EG4GZ6RIKD","A2D28BVEFUUTMO","368IUKXGA5U7UZ9GQNUNOB4MGE4P6M","","","img/flower6.png","76","1873","3","0","3","",""
"null","","html-keyboard-response","21","332320","0.0-21.0","339ANSOTR6OOYC5V6Y36EG4GZ6RIKD","A2D28BVEFUUTMO","368IUKXGA5U7UZ9GQNUNOB4MGE4P6M","","","<img src=""img/flower6.png"" style=""width:200px;border:14px solid red;"">","null","","","","","",""
"1409","","image-keyboard-response","22","333735","0.0-22.0","339ANSOTR6OOYC5V6Y36EG4GZ6RIKD","A2D28BVEFUUTMO","368IUKXGA5U7UZ9GQNUNOB4MGE4P6M","","","img/flower6.png","76","1414","3","1","3","",""
"null","","html-keyboard-response","23","334047","0.0-23.0","339ANSOTR6OOYC5V6Y36EG4GZ6RIKD","A2D28BVEFUUTMO","368IUKXGA5U7UZ9GQNUNOB4MGE4P6M","","","<img src=""img/flower6.png"" style=""width:200px; border:14px solid green;"">","null","","","","","",""
"1126","","image-keyboard-response","24","335184","0.0-24.0","339ANSOTR6OOYC5V6Y36EG4GZ6RIKD","A2D28BVEFUUTMO","368IUKXGA5U7UZ9GQNUNOB4MGE4P6M","","","img/flower5.png","75","1136","2","1","2","",""
"null","","html-keyboard-response","25","335493","0.0-25.0","339ANSOTR6OOYC5V6Y36EG4GZ6RIKD","A2D28BVEFUUTMO","368IUKXGA5U7UZ9GQNUNOB4MGE4P6M","","","<img src=""img/flower5.png"" style=""width:200px; border:14px solid green;"">","null","","","","","",""
"841","","image-keyboard-response","26","336340","0.0-26.0","339ANSOTR6OOYC5V6Y36EG4GZ6RIKD","A2D28BVEFUUTMO","368IUKXGA5U7UZ9GQNUNOB4MGE4P6M","","","img/flower5.png","75","846","2","0","2","",""
"null","","html-keyboard-response","27","336649","0.0-27.0","339ANSOTR6OOYC5V6Y36EG4GZ6RIKD","A2D28BVEFUUTMO","368IUKXGA5U7UZ9GQNUNOB4MGE4P6M","","","<img src=""img/flower5.png"" style=""width:200px;border:14px solid red;"">","null","","","","","",""
"1003","","image-keyboard-response","28","337658","0.0-28.0","339ANSOTR6OOYC5V6Y36EG4GZ6RIKD","A2D28BVEFUUTMO","368IUKXGA5U7UZ9GQNUNOB4MGE4P6M","","","img/flower6.png","76","1007","3","0","3","",""
"null","","html-keyboard-response","29","337971","0.0-29.0","339ANSOTR6OOYC5V6Y36EG4GZ6RIKD","A2D28BVEFUUTMO","368IUKXGA5U7UZ9GQNUNOB4MGE4P6M","","","<img src=""img/flower6.png"" style=""width:200px;border:14px solid red;"">","null","","","","","",""
"968","","image-keyboard-response","30","338945","0.0-30.0","339ANSOTR6OOYC5V6Y36EG4GZ6RIKD","A2D28BVEFUUTMO","368IUKXGA5U7UZ9GQNUNOB4MGE4P6M","","","img/flower4.png","74","974","1","0","1","",""
"null","","html-keyboard-response","31","339268","0.0-31.0","339ANSOTR6OOYC5V6Y36EG4GZ6RIKD","A2D28BVEFUUTMO","368IUKXGA5U7UZ9GQNUNOB4MGE4P6M","","","<img src=""img/flower4.png"" style=""width:200px;border:14px solid red;"">","null","","","","","",""
"1545","","image-keyboard-response","32","340818","0.0-32.0","339ANSOTR6OOYC5V6Y36EG4GZ6RIKD","A2D28BVEFUUTMO","368IUKXGA5U7UZ9GQNUNOB4MGE4P6M","","","img/flower6.png","76","1548","3","1","3","",""
"null","","html-keyboard-response","33","341127","0.0-33.0","339ANSOTR6OOYC5V6Y36EG4GZ6RIKD","A2D28BVEFUUTMO","368IUKXGA5U7UZ9GQNUNOB4MGE4P6M","","","<img src=""img/flower6.png"" style=""width:200px; border:14px solid green;"">","null","","","","","",""
"973","","image-keyboard-response","34","342106","0.0-34.0","339ANSOTR6OOYC5V6Y36EG4GZ6RIKD","A2D28BVEFUUTMO","368IUKXGA5U7UZ9GQNUNOB4MGE4P6M","","","img/flower4.png","74","978","1","1","1","",""
"null","","html-keyboard-response","35","342430","0.0-35.0","339ANSOTR6OOYC5V6Y36EG4GZ6RIKD","A2D28BVEFUUTMO","368IUKXGA5U7UZ9GQNUNOB4MGE4P6M","","","<img src=""img/flower4.png"" style=""width:200px; border:14px solid green;"">","null","","","","","",""
"596","","image-keyboard-response","36","343033","0.0-36.0","339ANSOTR6OOYC5V6Y36EG4GZ6RIKD","A2D28BVEFUUTMO","368IUKXGA5U7UZ9GQNUNOB4MGE4P6M","","","img/flower4.png","74","601","1","1","1","",""
"null","","html-keyboard-response","37","343346","0.0-37.0","339ANSOTR6OOYC5V6Y36EG4GZ6RIKD","A2D28BVEFUUTMO","368IUKXGA5U7UZ9GQNUNOB4MGE4P6M","","","<img src=""img/flower4.png"" style=""width:200px; border:14px solid green;"">","null","","","","","",""
"940","","image-keyboard-response","38","344293","0.0-38.0","339ANSOTR6OOYC5V6Y36EG4GZ6RIKD","A2D28BVEFUUTMO","368IUKXGA5U7UZ9GQNUNOB4MGE4P6M","","","img/flower5.png","75","946","2","1","2","",""
"null","","html-keyboard-response","39","344608","0.0-39.0","339ANSOTR6OOYC5V6Y36EG4GZ6RIKD","A2D28BVEFUUTMO","368IUKXGA5U7UZ9GQNUNOB4MGE4P6M","","","<img src=""img/flower5.png"" style=""width:200px; border:14px solid green;"">","null","","","","","",""
"731","","image-keyboard-response","40","345344","0.0-40.0","339ANSOTR6OOYC5V6Y36EG4GZ6RIKD","A2D28BVEFUUTMO","368IUKXGA5U7UZ9GQNUNOB4MGE4P6M","","","img/flower4.png","75","734","2","0","1","",""
"null","","html-keyboard-response","41","345653","0.0-41.0","339ANSOTR6OOYC5V6Y36EG4GZ6RIKD","A2D28BVEFUUTMO","368IUKXGA5U7UZ9GQNUNOB4MGE4P6M","","","<img src=""img/flower4.png"" style=""width:200px;border:14px solid red;"">","null","","","","","",""
"1612","","image-keyboard-response","42","347272","0.0-42.0","339ANSOTR6OOYC5V6Y36EG4GZ6RIKD","A2D28BVEFUUTMO","368IUKXGA5U7UZ9GQNUNOB4MGE4P6M","","","img/flower6.png","76","1617","3","1","3","",""
"null","","html-keyboard-response","43","347595","0.0-43.0","339ANSOTR6OOYC5V6Y36EG4GZ6RIKD","A2D28BVEFUUTMO","368IUKXGA5U7UZ9GQNUNOB4MGE4P6M","","","<img src=""img/flower6.png"" style=""width:200px; border:14px solid green;"">","null","","","","","",""
"2665","","image-keyboard-response","44","350267","0.0-44.0","339ANSOTR6OOYC5V6Y36EG4GZ6RIKD","A2D28BVEFUUTMO","368IUKXGA5U7UZ9GQNUNOB4MGE4P6M","","","img/flower5.png","75","2671","2","1","2","",""
"null","","html-keyboard-response","45","350582","0.0-45.0","339ANSOTR6OOYC5V6Y36EG4GZ6RIKD","A2D28BVEFUUTMO","368IUKXGA5U7UZ9GQNUNOB4MGE4P6M","","","<img src=""img/flower5.png"" style=""width:200px; border:14px solid green;"">","null","","","","","",""
"532","","image-keyboard-response","46","351121","0.0-46.0","339ANSOTR6OOYC5V6Y36EG4GZ6RIKD","A2D28BVEFUUTMO","368IUKXGA5U7UZ9GQNUNOB4MGE4P6M","","","img/flower5.png","75","537","2","0","2","",""
"null","","html-keyboard-response","47","351428","0.0-47.0","339ANSOTR6OOYC5V6Y36EG4GZ6RIKD","A2D28BVEFUUTMO","368IUKXGA5U7UZ9GQNUNOB4MGE4P6M","","","<img src=""img/flower5.png"" style=""width:200px;border:14px solid red;"">","null","","","","","",""
"950","","image-keyboard-response","48","352381","0.0-48.0","339ANSOTR6OOYC5V6Y36EG4GZ6RIKD","A2D28BVEFUUTMO","368IUKXGA5U7UZ9GQNUNOB4MGE4P6M","","","img/flower4.png","74","953","1","1","1","",""
"null","","html-keyboard-response","49","352703","0.0-49.0","339ANSOTR6OOYC5V6Y36EG4GZ6RIKD","A2D28BVEFUUTMO","368IUKXGA5U7UZ9GQNUNOB4MGE4P6M","","","<img src=""img/flower4.png"" style=""width:200px; border:14px solid green;"">","null","","","","","",""
"611","","image-keyboard-response","50","353322","0.0-50.0","339ANSOTR6OOYC5V6Y36EG4GZ6RIKD","A2D28BVEFUUTMO","368IUKXGA5U7UZ9GQNUNOB4MGE4P6M","","","img/flower4.png","74","616","1","1","1","",""
"null","","html-keyboard-response","51","353626","0.0-51.0","339ANSOTR6OOYC5V6Y36EG4GZ6RIKD","A2D28BVEFUUTMO","368IUKXGA5U7UZ9GQNUNOB4MGE4P6M","","","<img src=""img/flower4.png"" style=""width:200px; border:14px solid green;"">","null","","","","","",""
"483","","image-keyboard-response","52","354116","0.0-52.0","339ANSOTR6OOYC5V6Y36EG4GZ6RIKD","A2D28BVEFUUTMO","368IUKXGA5U7UZ9GQNUNOB4MGE4P6M","","","img/flower4.png","74","487","1","1","1","",""
"null","","html-keyboard-response","53","354424","0.0-53.0","339ANSOTR6OOYC5V6Y36EG4GZ6RIKD","A2D28BVEFUUTMO","368IUKXGA5U7UZ9GQNUNOB4MGE4P6M","","","<img src=""img/flower4.png"" style=""width:200px; border:14px solid green;"">","null","","","","","",""
"959","","image-keyboard-response","54","355389","0.0-54.0","339ANSOTR6OOYC5V6Y36EG4GZ6RIKD","A2D28BVEFUUTMO","368IUKXGA5U7UZ9GQNUNOB4MGE4P6M","","","img/flower6.png","76","963","3","1","3","",""
"null","","html-keyboard-response","55","355709","0.0-55.0","339ANSOTR6OOYC5V6Y36EG4GZ6RIKD","A2D28BVEFUUTMO","368IUKXGA5U7UZ9GQNUNOB4MGE4P6M","","","<img src=""img/flower6.png"" style=""width:200px; border:14px solid green;"">","null","","","","","",""
"676","","image-keyboard-response","56","356392","0.0-56.0","339ANSOTR6OOYC5V6Y36EG4GZ6RIKD","A2D28BVEFUUTMO","368IUKXGA5U7UZ9GQNUNOB4MGE4P6M","","","img/flower6.png","76","682","3","1","3","",""
"null","","html-keyboard-response","57","356704","0.0-57.0","339ANSOTR6OOYC5V6Y36EG4GZ6RIKD","A2D28BVEFUUTMO","368IUKXGA5U7UZ9GQNUNOB4MGE4P6M","","","<img src=""img/flower6.png"" style=""width:200px; border:14px solid green;"">","null","","","","","",""
"565","","image-keyboard-response","58","357275","0.0-58.0","339ANSOTR6OOYC5V6Y36EG4GZ6RIKD","A2D28BVEFUUTMO","368IUKXGA5U7UZ9GQNUNOB4MGE4P6M","","","img/flower6.png","76","570","3","1","3","",""
"null","","html-keyboard-response","59","357590","0.0-59.0","339ANSOTR6OOYC5V6Y36EG4GZ6RIKD","A2D28BVEFUUTMO","368IUKXGA5U7UZ9GQNUNOB4MGE4P6M","","","<img src=""img/flower6.png"" style=""width:200px; border:14px solid green;"">","null","","","","","",""
"756","","image-keyboard-response","60","358353","0.0-60.0","339ANSOTR6OOYC5V6Y36EG4GZ6RIKD","A2D28BVEFUUTMO","368IUKXGA5U7UZ9GQNUNOB4MGE4P6M","","","img/flower5.png","75","761","2","1","2","",""
"null","","html-keyboard-response","61","358671","0.0-61.0","339ANSOTR6OOYC5V6Y36EG4GZ6RIKD","A2D28BVEFUUTMO","368IUKXGA5U7UZ9GQNUNOB4MGE4P6M","","","<img src=""img/flower5.png"" style=""width:200px; border:14px solid green;"">","null","","","","","",""
"1262","","image-keyboard-response","62","359940","0.0-62.0","339ANSOTR6OOYC5V6Y36EG4GZ6RIKD","A2D28BVEFUUTMO","368IUKXGA5U7UZ9GQNUNOB4MGE4P6M","","","img/flower4.png","74","1268","1","1","1","",""
"null","","html-keyboard-response","63","360246","0.0-63.0","339ANSOTR6OOYC5V6Y36EG4GZ6RIKD","A2D28BVEFUUTMO","368IUKXGA5U7UZ9GQNUNOB4MGE4P6M","","","<img src=""img/flower4.png"" style=""width:200px; border:14px solid green;"">","null","","","","","",""
"22951","","instructions","64","383196","0.0-64.0","339ANSOTR6OOYC5V6Y36EG4GZ6RIKD","A2D28BVEFUUTMO","368IUKXGA5U7UZ9GQNUNOB4MGE4P6M","","[{""page_index"":0,""viewing_time"":5098},{""page_index"":1,""viewing_time"":17849}]","","","","","","","",""
"1262","","image-keyboard-response","65","384468","0.0-65.0","339ANSOTR6OOYC5V6Y36EG4GZ6RIKD","A2D28BVEFUUTMO","368IUKXGA5U7UZ9GQNUNOB4MGE4P6M","","","img/flower4.png","74","1269","1","1","1","",""
"null","","html-keyboard-response","66","384786","0.0-66.0","339ANSOTR6OOYC5V6Y36EG4GZ6RIKD","A2D28BVEFUUTMO","368IUKXGA5U7UZ9GQNUNOB4MGE4P6M","","","<img src=""img/flower4.png"" style=""width:200px; border:14px solid green;"">","null","","","","","",""
"1456","","image-keyboard-response","67","386246","0.0-67.0","339ANSOTR6OOYC5V6Y36EG4GZ6RIKD","A2D28BVEFUUTMO","368IUKXGA5U7UZ9GQNUNOB4MGE4P6M","","","img/flower5.png","75","1460","2","0","2","",""
"null","","html-keyboard-response","68","386569","0.0-68.0","339ANSOTR6OOYC5V6Y36EG4GZ6RIKD","A2D28BVEFUUTMO","368IUKXGA5U7UZ9GQNUNOB4MGE4P6M","","","<img src=""img/flower5.png"" style=""width:200px;border:14px solid red;"">","null","","","","","",""
"1368","","image-keyboard-response","69","387947","0.0-69.0","339ANSOTR6OOYC5V6Y36EG4GZ6RIKD","A2D28BVEFUUTMO","368IUKXGA5U7UZ9GQNUNOB4MGE4P6M","","","img/flower5.png","75","1376","2","1","2","",""
"null","","html-keyboard-response","70","388257","0.0-70.0","339ANSOTR6OOYC5V6Y36EG4GZ6RIKD","A2D28BVEFUUTMO","368IUKXGA5U7UZ9GQNUNOB4MGE4P6M","","","<img src=""img/flower5.png"" style=""width:200px; border:14px solid green;"">","null","","","","","",""
"1235","","image-keyboard-response","71","389496","0.0-71.0","339ANSOTR6OOYC5V6Y36EG4GZ6RIKD","A2D28BVEFUUTMO","368IUKXGA5U7UZ9GQNUNOB4MGE4P6M","","","img/flower4.png","74","1239","1","1","1","",""
"null","","html-keyboard-response","72","389810","0.0-72.0","339ANSOTR6OOYC5V6Y36EG4GZ6RIKD","A2D28BVEFUUTMO","368IUKXGA5U7UZ9GQNUNOB4MGE4P6M","","","<img src=""img/flower4.png"" style=""width:200px; border:14px solid green;"">","null","","","","","",""
"2013","","image-keyboard-response","73","391833","0.0-73.0","339ANSOTR6OOYC5V6Y36EG4GZ6RIKD","A2D28BVEFUUTMO","368IUKXGA5U7UZ9GQNUNOB4MGE4P6M","","","img/flower5.png","75","2021","2","0","2","",""
"null","","html-keyboard-response","74","392143","0.0-74.0","339ANSOTR6OOYC5V6Y36EG4GZ6RIKD","A2D28BVEFUUTMO","368IUKXGA5U7UZ9GQNUNOB4MGE4P6M","","","<img src=""img/flower5.png"" style=""width:200px;border:14px solid red;"">","null","","","","","",""
"2043","","image-keyboard-response","75","394196","0.0-75.0","339ANSOTR6OOYC5V6Y36EG4GZ6RIKD","A2D28BVEFUUTMO","368IUKXGA5U7UZ9GQNUNOB4MGE4P6M","","","img/flower6.png","76","2051","3","1","3","",""
"null","","html-keyboard-response","76","394504","0.0-76.0","339ANSOTR6OOYC5V6Y36EG4GZ6RIKD","A2D28BVEFUUTMO","368IUKXGA5U7UZ9GQNUNOB4MGE4P6M","","","<img src=""img/flower6.png"" style=""width:200px; border:14px solid green;"">","null","","","","","",""
"936","","image-keyboard-response","77","395449","0.0-77.0","339ANSOTR6OOYC5V6Y36EG4GZ6RIKD","A2D28BVEFUUTMO","368IUKXGA5U7UZ9GQNUNOB4MGE4P6M","","","img/flower6.png","76","944","3","0","3","",""
"null","","html-keyboard-response","78","395772","0.0-78.0","339ANSOTR6OOYC5V6Y36EG4GZ6RIKD","A2D28BVEFUUTMO","368IUKXGA5U7UZ9GQNUNOB4MGE4P6M","","","<img src=""img/flower6.png"" style=""width:200px;border:14px solid red;"">","null","","","","","",""
"989","","image-keyboard-response","79","396768","0.0-79.0","339ANSOTR6OOYC5V6Y36EG4GZ6RIKD","A2D28BVEFUUTMO","368IUKXGA5U7UZ9GQNUNOB4MGE4P6M","","","img/flower5.png","74","995","1","1","2","",""
"null","","html-keyboard-response","80","397094","0.0-80.0","339ANSOTR6OOYC5V6Y36EG4GZ6RIKD","A2D28BVEFUUTMO","368IUKXGA5U7UZ9GQNUNOB4MGE4P6M","","","<img src=""img/flower5.png"" style=""width:200px; border:14px solid green;"">","null","","","","","",""
"1252","","image-keyboard-response","81","398351","0.0-81.0","339ANSOTR6OOYC5V6Y36EG4GZ6RIKD","A2D28BVEFUUTMO","368IUKXGA5U7UZ9GQNUNOB4MGE4P6M","","","img/flower4.png","75","1256","2","1","1","",""
"null","","html-keyboard-response","82","398675","0.0-82.0","339ANSOTR6OOYC5V6Y36EG4GZ6RIKD","A2D28BVEFUUTMO","368IUKXGA5U7UZ9GQNUNOB4MGE4P6M","","","<img src=""img/flower4.png"" style=""width:200px; border:14px solid green;"">","null","","","","","",""
"1036","","image-keyboard-response","83","399718","0.0-83.0","339ANSOTR6OOYC5V6Y36EG4GZ6RIKD","A2D28BVEFUUTMO","368IUKXGA5U7UZ9GQNUNOB4MGE4P6M","","","img/flower6.png","76","1042","3","1","3","",""
"null","","html-keyboard-response","84","400047","0.0-84.0","339ANSOTR6OOYC5V6Y36EG4GZ6RIKD","A2D28BVEFUUTMO","368IUKXGA5U7UZ9GQNUNOB4MGE4P6M","","","<img src=""img/flower6.png"" style=""width:200px; border:14px solid green;"">","null","","","","","",""
"785","","image-keyboard-response","85","400837","0.0-85.0","339ANSOTR6OOYC5V6Y36EG4GZ6RIKD","A2D28BVEFUUTMO","368IUKXGA5U7UZ9GQNUNOB4MGE4P6M","","","img/flower4.png","74","789","1","1","1","",""
"null","","html-keyboard-response","86","401150","0.0-86.0","339ANSOTR6OOYC5V6Y36EG4GZ6RIKD","A2D28BVEFUUTMO","368IUKXGA5U7UZ9GQNUNOB4MGE4P6M","","","<img src=""img/flower4.png"" style=""width:200px; border:14px solid green;"">","null","","","","","",""
"2544","","image-keyboard-response","87","403699","0.0-87.0","339ANSOTR6OOYC5V6Y36EG4GZ6RIKD","A2D28BVEFUUTMO","368IUKXGA5U7UZ9GQNUNOB4MGE4P6M","","","img/flower5.png","75","2547","2","1","2","",""
"null","","html-keyboard-response","88","404021","0.0-88.0","339ANSOTR6OOYC5V6Y36EG4GZ6RIKD","A2D28BVEFUUTMO","368IUKXGA5U7UZ9GQNUNOB4MGE4P6M","","","<img src=""img/flower5.png"" style=""width:200px; border:14px solid green;"">","null","","","","","",""
"941","","image-keyboard-response","89","404966","0.0-89.0","339ANSOTR6OOYC5V6Y36EG4GZ6RIKD","A2D28BVEFUUTMO","368IUKXGA5U7UZ9GQNUNOB4MGE4P6M","","","img/flower4.png","74","944","1","1","1","",""
"null","","html-keyboard-response","90","405272","0.0-90.0","339ANSOTR6OOYC5V6Y36EG4GZ6RIKD","A2D28BVEFUUTMO","368IUKXGA5U7UZ9GQNUNOB4MGE4P6M","","","<img src=""img/flower4.png"" style=""width:200px; border:14px solid green;"">","null","","","","","",""
"753","","image-keyboard-response","91","406029","0.0-91.0","339ANSOTR6OOYC5V6Y36EG4GZ6RIKD","A2D28BVEFUUTMO","368IUKXGA5U7UZ9GQNUNOB4MGE4P6M","","","img/flower5.png","75","757","2","1","2","",""
"null","","html-keyboard-response","92","406337","0.0-92.0","339ANSOTR6OOYC5V6Y36EG4GZ6RIKD","A2D28BVEFUUTMO","368IUKXGA5U7UZ9GQNUNOB4MGE4P6M","","","<img src=""img/flower5.png"" style=""width:200px; border:14px solid green;"">","null","","","","","",""
"890","","image-keyboard-response","93","407236","0.0-93.0","339ANSOTR6OOYC5V6Y36EG4GZ6RIKD","A2D28BVEFUUTMO","368IUKXGA5U7UZ9GQNUNOB4MGE4P6M","","","img/flower4.png","74","897","1","1","1","",""
"null","","html-keyboard-response","94","407549","0.0-94.0","339ANSOTR6OOYC5V6Y36EG4GZ6RIKD","A2D28BVEFUUTMO","368IUKXGA5U7UZ9GQNUNOB4MGE4P6M","","","<img src=""img/flower4.png"" style=""width:200px; border:14px solid green;"">","null","","","","","",""
"706","","image-keyboard-response","95","408260","0.0-95.0","339ANSOTR6OOYC5V6Y36EG4GZ6RIKD","A2D28BVEFUUTMO","368IUKXGA5U7UZ9GQNUNOB4MGE4P6M","","","img/flower5.png","75","711","2","1","2","",""
"null","","html-keyboard-response","96","408564","0.0-96.0","339ANSOTR6OOYC5V6Y36EG4GZ6RIKD","A2D28BVEFUUTMO","368IUKXGA5U7UZ9GQNUNOB4MGE4P6M","","","<img src=""img/flower5.png"" style=""width:200px; border:14px solid green;"">","null","","","","","",""
"714","","image-keyboard-response","97","409284","0.0-97.0","339ANSOTR6OOYC5V6Y36EG4GZ6RIKD","A2D28BVEFUUTMO","368IUKXGA5U7UZ9GQNUNOB4MGE4P6M","","","img/flower4.png","74","719","1","1","1","",""
"null","","html-keyboard-response","98","409603","0.0-98.0","339ANSOTR6OOYC5V6Y36EG4GZ6RIKD","A2D28BVEFUUTMO","368IUKXGA5U7UZ9GQNUNOB4MGE4P6M","","","<img src=""img/flower4.png"" style=""width:200px; border:14px solid green;"">","null","","","","","",""
"616","","image-keyboard-response","99","410227","0.0-99.0","339ANSOTR6OOYC5V6Y36EG4GZ6RIKD","A2D28BVEFUUTMO","368IUKXGA5U7UZ9GQNUNOB4MGE4P6M","","","img/flower5.png","75","623","2","1","2","",""
"null","","html-keyboard-response","100","410539","0.0-100.0","339ANSOTR6OOYC5V6Y36EG4GZ6RIKD","A2D28BVEFUUTMO","368IUKXGA5U7UZ9GQNUNOB4MGE4P6M","","","<img src=""img/flower5.png"" style=""width:200px; border:14px solid green;"">","null","","","","","",""
"901","","image-keyboard-response","101","411446","0.0-101.0","339ANSOTR6OOYC5V6Y36EG4GZ6RIKD","A2D28BVEFUUTMO","368IUKXGA5U7UZ9GQNUNOB4MGE4P6M","","","img/flower6.png","76","906","3","0","3","",""
"null","","html-keyboard-response","102","411754","0.0-102.0","339ANSOTR6OOYC5V6Y36EG4GZ6RIKD","A2D28BVEFUUTMO","368IUKXGA5U7UZ9GQNUNOB4MGE4P6M","","","<img src=""img/flower6.png"" style=""width:200px;border:14px solid red;"">","null","","","","","",""
"952","","image-keyboard-response","103","412719","0.0-103.0","339ANSOTR6OOYC5V6Y36EG4GZ6RIKD","A2D28BVEFUUTMO","368IUKXGA5U7UZ9GQNUNOB4MGE4P6M","","","img/flower4.png","74","965","1","0","1","",""
"null","","html-keyboard-response","104","413031","0.0-104.0","339ANSOTR6OOYC5V6Y36EG4GZ6RIKD","A2D28BVEFUUTMO","368IUKXGA5U7UZ9GQNUNOB4MGE4P6M","","","<img src=""img/flower4.png"" style=""width:200px;border:14px solid red;"">","null","","","","","",""
"1052","","image-keyboard-response","105","414087","0.0-105.0","339ANSOTR6OOYC5V6Y36EG4GZ6RIKD","A2D28BVEFUUTMO","368IUKXGA5U7UZ9GQNUNOB4MGE4P6M","","","img/flower5.png","75","1055","2","1","2","",""
"null","","html-keyboard-response","106","414399","0.0-106.0","339ANSOTR6OOYC5V6Y36EG4GZ6RIKD","A2D28BVEFUUTMO","368IUKXGA5U7UZ9GQNUNOB4MGE4P6M","","","<img src=""img/flower5.png"" style=""width:200px; border:14px solid green;"">","null","","","","","",""
"986","","image-keyboard-response","107","415393","0.0-107.0","339ANSOTR6OOYC5V6Y36EG4GZ6RIKD","A2D28BVEFUUTMO","368IUKXGA5U7UZ9GQNUNOB4MGE4P6M","","","img/flower6.png","76","992","3","0","3","",""
"null","","html-keyboard-response","108","415709","0.0-108.0","339ANSOTR6OOYC5V6Y36EG4GZ6RIKD","A2D28BVEFUUTMO","368IUKXGA5U7UZ9GQNUNOB4MGE4P6M","","","<img src=""img/flower6.png"" style=""width:200px;border:14px solid red;"">","null","","","","","",""
"570","","image-keyboard-response","109","416286","0.0-109.0","339ANSOTR6OOYC5V6Y36EG4GZ6RIKD","A2D28BVEFUUTMO","368IUKXGA5U7UZ9GQNUNOB4MGE4P6M","","","img/flower6.png","76","576","3","1","3","",""
"null","","html-keyboard-response","110","416597","0.0-110.0","339ANSOTR6OOYC5V6Y36EG4GZ6RIKD","A2D28BVEFUUTMO","368IUKXGA5U7UZ9GQNUNOB4MGE4P6M","","","<img src=""img/flower6.png"" style=""width:200px; border:14px solid green;"">","null","","","","","",""
"1018","","image-keyboard-response","111","417620","0.0-111.0","339ANSOTR6OOYC5V6Y36EG4GZ6RIKD","A2D28BVEFUUTMO","368IUKXGA5U7UZ9GQNUNOB4MGE4P6M","","","img/flower4.png","74","1023","1","1","1","",""
"null","","html-keyboard-response","112","417935","0.0-112.0","339ANSOTR6OOYC5V6Y36EG4GZ6RIKD","A2D28BVEFUUTMO","368IUKXGA5U7UZ9GQNUNOB4MGE4P6M","","","<img src=""img/flower4.png"" style=""width:200px; border:14px solid green;"">","null","","","","","",""
"546","","image-keyboard-response","113","418488","0.0-113.0","339ANSOTR6OOYC5V6Y36EG4GZ6RIKD","A2D28BVEFUUTMO","368IUKXGA5U7UZ9GQNUNOB4MGE4P6M","","","img/flower4.png","75","552","2","1","1","",""
"null","","html-keyboard-response","114","418797","0.0-114.0","339ANSOTR6OOYC5V6Y36EG4GZ6RIKD","A2D28BVEFUUTMO","368IUKXGA5U7UZ9GQNUNOB4MGE4P6M","","","<img src=""img/flower4.png"" style=""width:200px; border:14px solid green;"">","null","","","","","",""
"1128","","image-keyboard-response","115","419933","0.0-115.0","339ANSOTR6OOYC5V6Y36EG4GZ6RIKD","A2D28BVEFUUTMO","368IUKXGA5U7UZ9GQNUNOB4MGE4P6M","","","img/flower6.png","76","1135","3","0","3","",""
"null","","html-keyboard-response","116","420249","0.0-116.0","339ANSOTR6OOYC5V6Y36EG4GZ6RIKD","A2D28BVEFUUTMO","368IUKXGA5U7UZ9GQNUNOB4MGE4P6M","","","<img src=""img/flower6.png"" style=""width:200px;border:14px solid red;"">","null","","","","","",""
"599","","image-keyboard-response","117","420853","0.0-117.0","339ANSOTR6OOYC5V6Y36EG4GZ6RIKD","A2D28BVEFUUTMO","368IUKXGA5U7UZ9GQNUNOB4MGE4P6M","","","img/flower6.png","76","603","3","1","3","",""
"null","","html-keyboard-response","118","421167","0.0-118.0","339ANSOTR6OOYC5V6Y36EG4GZ6RIKD","A2D28BVEFUUTMO","368IUKXGA5U7UZ9GQNUNOB4MGE4P6M","","","<img src=""img/flower6.png"" style=""width:200px; border:14px solid green;"">","null","","","","","",""
"1537","","image-keyboard-response","119","422711","0.0-119.0","339ANSOTR6OOYC5V6Y36EG4GZ6RIKD","A2D28BVEFUUTMO","368IUKXGA5U7UZ9GQNUNOB4MGE4P6M","","","img/flower5.png","75","1543","2","0","2","",""
"null","","html-keyboard-response","120","423034","0.0-120.0","339ANSOTR6OOYC5V6Y36EG4GZ6RIKD","A2D28BVEFUUTMO","368IUKXGA5U7UZ9GQNUNOB4MGE4P6M","","","<img src=""img/flower5.png"" style=""width:200px;border:14px solid red;"">","null","","","","","",""
"1202","","image-keyboard-response","121","424241","0.0-121.0","339ANSOTR6OOYC5V6Y36EG4GZ6RIKD","A2D28BVEFUUTMO","368IUKXGA5U7UZ9GQNUNOB4MGE4P6M","","","img/flower6.png","76","1206","3","1","3","",""
"null","","html-keyboard-response","122","424570","0.0-122.0","339ANSOTR6OOYC5V6Y36EG4GZ6RIKD","A2D28BVEFUUTMO","368IUKXGA5U7UZ9GQNUNOB4MGE4P6M","","","<img src=""img/flower6.png"" style=""width:200px; border:14px solid green;"">","null","","","","","",""
"559","","image-keyboard-response","123","425136","0.0-123.0","339ANSOTR6OOYC5V6Y36EG4GZ6RIKD","A2D28BVEFUUTMO","368IUKXGA5U7UZ9GQNUNOB4MGE4P6M","","","img/flower6.png","76","565","3","1","3","",""
"null","","html-keyboard-response","124","425451","0.0-124.0","339ANSOTR6OOYC5V6Y36EG4GZ6RIKD","A2D28BVEFUUTMO","368IUKXGA5U7UZ9GQNUNOB4MGE4P6M","","","<img src=""img/flower6.png"" style=""width:200px; border:14px solid green;"">","null","","","","","",""
"54751","","instructions","125","480219","0.0-125.0","339ANSOTR6OOYC5V6Y36EG4GZ6RIKD","A2D28BVEFUUTMO","368IUKXGA5U7UZ9GQNUNOB4MGE4P6M","","[{""page_index"":0,""viewing_time"":54740}]","","","","","","","",""
"6859","","image-keyboard-response","126","487124","0.0-126.0","339ANSOTR6OOYC5V6Y36EG4GZ6RIKD","A2D28BVEFUUTMO","368IUKXGA5U7UZ9GQNUNOB4MGE4P6M","","","img/flower2.png","75","6875","2","0","2","0.8,0.8,0.2,0.2,0.8,0.8,0.8,0.2,0.8",""
"null","","html-keyboard-response","127","487435","0.0-127.0","339ANSOTR6OOYC5V6Y36EG4GZ6RIKD","A2D28BVEFUUTMO","368IUKXGA5U7UZ9GQNUNOB4MGE4P6M","","","<img src=""img/flower2.png"" style=""width:200px;border:14px solid red;"">","null","","","","","",""
"2647","","image-keyboard-response","128","490092","0.0-128.0","339ANSOTR6OOYC5V6Y36EG4GZ6RIKD","A2D28BVEFUUTMO","368IUKXGA5U7UZ9GQNUNOB4MGE4P6M","","","img/flower3.png","74","2655","1","1","3","0.8,0.8,0.2,0.2,0.8,0.8,0.8,0.2,0.8",""
"null","","html-keyboard-response","129","490400","0.0-129.0","339ANSOTR6OOYC5V6Y36EG4GZ6RIKD","A2D28BVEFUUTMO","368IUKXGA5U7UZ9GQNUNOB4MGE4P6M","","","<img src=""img/flower3.png"" style=""width:200px; border:14px solid green;"">","null","","","","","",""
"1969","","image-keyboard-response","130","492380","0.0-130.0","339ANSOTR6OOYC5V6Y36EG4GZ6RIKD","A2D28BVEFUUTMO","368IUKXGA5U7UZ9GQNUNOB4MGE4P6M","","","img/flower5.png","75","1979","2","1","1","0.8,0.8,0.2,0.2,0.8,0.8,0.8,0.2,0.8",""
"null","","html-keyboard-response","131","492685","0.0-131.0","339ANSOTR6OOYC5V6Y36EG4GZ6RIKD","A2D28BVEFUUTMO","368IUKXGA5U7UZ9GQNUNOB4MGE4P6M","","","<img src=""img/flower5.png"" style=""width:200px; border:14px solid green;"">","null","","","","","",""
"1421","","image-keyboard-response","132","494117","0.0-132.0","339ANSOTR6OOYC5V6Y36EG4GZ6RIKD","A2D28BVEFUUTMO","368IUKXGA5U7UZ9GQNUNOB4MGE4P6M","","","img/flower3.png","74","1431","1","1","3","0.8,0.8,0.2,0.2,0.8,0.8,0.8,0.2,0.8",""
"null","","html-keyboard-response","133","494422","0.0-133.0","339ANSOTR6OOYC5V6Y36EG4GZ6RIKD","A2D28BVEFUUTMO","368IUKXGA5U7UZ9GQNUNOB4MGE4P6M","","","<img src=""img/flower3.png"" style=""width:200px; border:14px solid green;"">","null","","","","","",""
"752","","image-keyboard-response","134","495180","0.0-134.0","339ANSOTR6OOYC5V6Y36EG4GZ6RIKD","A2D28BVEFUUTMO","368IUKXGA5U7UZ9GQNUNOB4MGE4P6M","","","img/flower3.png","74","758","1","1","3","0.8,0.8,0.2,0.2,0.8,0.8,0.8,0.2,0.8",""
"null","","html-keyboard-response","135","495485","0.0-135.0","339ANSOTR6OOYC5V6Y36EG4GZ6RIKD","A2D28BVEFUUTMO","368IUKXGA5U7UZ9GQNUNOB4MGE4P6M","","","<img src=""img/flower3.png"" style=""width:200px; border:14px solid green;"">","null","","","","","",""
"1538","","image-keyboard-response","136","497032","0.0-136.0","339ANSOTR6OOYC5V6Y36EG4GZ6RIKD","A2D28BVEFUUTMO","368IUKXGA5U7UZ9GQNUNOB4MGE4P6M","","","img/flower2.png","75","1546","2","1","2","0.8,0.8,0.2,0.2,0.8,0.8,0.8,0.2,0.8",""
"null","","html-keyboard-response","137","497340","0.0-137.0","339ANSOTR6OOYC5V6Y36EG4GZ6RIKD","A2D28BVEFUUTMO","368IUKXGA5U7UZ9GQNUNOB4MGE4P6M","","","<img src=""img/flower2.png"" style=""width:200px; border:14px solid green;"">","null","","","","","",""
"696","","image-keyboard-response","138","498041","0.0-138.0","339ANSOTR6OOYC5V6Y36EG4GZ6RIKD","A2D28BVEFUUTMO","368IUKXGA5U7UZ9GQNUNOB4MGE4P6M","","","img/flower2.png","75","700","2","0","2","0.8,0.8,0.2,0.2,0.8,0.8,0.8,0.2,0.8",""
"null","","html-keyboard-response","139","498353","0.0-139.0","339ANSOTR6OOYC5V6Y36EG4GZ6RIKD","A2D28BVEFUUTMO","368IUKXGA5U7UZ9GQNUNOB4MGE4P6M","","","<img src=""img/flower2.png"" style=""width:200px;border:14px solid red;"">","null","","","","","",""
"1269","","image-keyboard-response","140","499628","0.0-140.0","339ANSOTR6OOYC5V6Y36EG4GZ6RIKD","A2D28BVEFUUTMO","368IUKXGA5U7UZ9GQNUNOB4MGE4P6M","","","img/flower5.png","74","1274","1","1","1","0.8,0.8,0.2,0.2,0.8,0.8,0.8,0.2,0.8",""
"null","","html-keyboard-response","141","499933","0.0-141.0","339ANSOTR6OOYC5V6Y36EG4GZ6RIKD","A2D28BVEFUUTMO","368IUKXGA5U7UZ9GQNUNOB4MGE4P6M","","","<img src=""img/flower5.png"" style=""width:200px; border:14px solid green;"">","null","","","","","",""
"571","","image-keyboard-response","142","500512","0.0-142.0","339ANSOTR6OOYC5V6Y36EG4GZ6RIKD","A2D28BVEFUUTMO","368IUKXGA5U7UZ9GQNUNOB4MGE4P6M","","","img/flower5.png","74","578","1","1","1","0.8,0.8,0.2,0.2,0.8,0.8,0.8,0.2,0.8",""
"null","","html-keyboard-response","143","500816","0.0-143.0","339ANSOTR6OOYC5V6Y36EG4GZ6RIKD","A2D28BVEFUUTMO","368IUKXGA5U7UZ9GQNUNOB4MGE4P6M","","","<img src=""img/flower5.png"" style=""width:200px; border:14px solid green;"">","null","","","","","",""
"1352","","image-keyboard-response","144","502175","0.0-144.0","339ANSOTR6OOYC5V6Y36EG4GZ6RIKD","A2D28BVEFUUTMO","368IUKXGA5U7UZ9GQNUNOB4MGE4P6M","","","img/flower2.png","76","1356","3","1","2","0.8,0.8,0.2,0.2,0.8,0.8,0.8,0.2,0.8",""
"null","","html-keyboard-response","145","502480","0.0-145.0","339ANSOTR6OOYC5V6Y36EG4GZ6RIKD","A2D28BVEFUUTMO","368IUKXGA5U7UZ9GQNUNOB4MGE4P6M","","","<img src=""img/flower2.png"" style=""width:200px; border:14px solid green;"">","null","","","","","",""
"1889","","image-keyboard-response","146","504376","0.0-146.0","339ANSOTR6OOYC5V6Y36EG4GZ6RIKD","A2D28BVEFUUTMO","368IUKXGA5U7UZ9GQNUNOB4MGE4P6M","","","img/flower5.png","74","1897","1","1","1","0.8,0.8,0.2,0.2,0.8,0.8,0.8,0.2,0.8",""
"null","","html-keyboard-response","147","504683","0.0-147.0","339ANSOTR6OOYC5V6Y36EG4GZ6RIKD","A2D28BVEFUUTMO","368IUKXGA5U7UZ9GQNUNOB4MGE4P6M","","","<img src=""img/flower5.png"" style=""width:200px; border:14px solid green;"">","null","","","","","",""
"882","","image-keyboard-response","148","505603","0.0-148.0","339ANSOTR6OOYC5V6Y36EG4GZ6RIKD","A2D28BVEFUUTMO","368IUKXGA5U7UZ9GQNUNOB4MGE4P6M","","","img/flower3.png","74","886","1","1","3","0.8,0.8,0.2,0.2,0.8,0.8,0.8,0.2,0.8",""
"null","","html-keyboard-response","149","505908","0.0-149.0","339ANSOTR6OOYC5V6Y36EG4GZ6RIKD","A2D28BVEFUUTMO","368IUKXGA5U7UZ9GQNUNOB4MGE4P6M","","","<img src=""img/flower3.png"" style=""width:200px; border:14px solid green;"">","null","","","","","",""
"993","","image-keyboard-response","150","506907","0.0-150.0","339ANSOTR6OOYC5V6Y36EG4GZ6RIKD","A2D28BVEFUUTMO","368IUKXGA5U7UZ9GQNUNOB4MGE4P6M","","","img/flower5.png","75","998","2","1","1","0.8,0.8,0.2,0.2,0.8,0.8,0.8,0.2,0.8",""
"null","","html-keyboard-response","151","507211","0.0-151.0","339ANSOTR6OOYC5V6Y36EG4GZ6RIKD","A2D28BVEFUUTMO","368IUKXGA5U7UZ9GQNUNOB4MGE4P6M","","","<img src=""img/flower5.png"" style=""width:200px; border:14px solid green;"">","null","","","","","",""
"1309","","image-keyboard-response","152","508525","0.0-152.0","339ANSOTR6OOYC5V6Y36EG4GZ6RIKD","A2D28BVEFUUTMO","368IUKXGA5U7UZ9GQNUNOB4MGE4P6M","","","img/flower2.png","76","1313","3","0","2","0.8,0.8,0.2,0.2,0.8,0.8,0.8,0.2,0.8",""
"null","","html-keyboard-response","153","508831","0.0-153.0","339ANSOTR6OOYC5V6Y36EG4GZ6RIKD","A2D28BVEFUUTMO","368IUKXGA5U7UZ9GQNUNOB4MGE4P6M","","","<img src=""img/flower2.png"" style=""width:200px;border:14px solid red;"">","null","","","","","",""
"479","","image-keyboard-response","154","509317","0.0-154.0","339ANSOTR6OOYC5V6Y36EG4GZ6RIKD","A2D28BVEFUUTMO","368IUKXGA5U7UZ9GQNUNOB4MGE4P6M","","","img/flower2.png","76","484","3","1","2","0.8,0.8,0.2,0.2,0.8,0.8,0.8,0.2,0.8",""
"null","","html-keyboard-response","155","509623","0.0-155.0","339ANSOTR6OOYC5V6Y36EG4GZ6RIKD","A2D28BVEFUUTMO","368IUKXGA5U7UZ9GQNUNOB4MGE4P6M","","","<img src=""img/flower2.png"" style=""width:200px; border:14px solid green;"">","null","","","","","",""
"1261","","image-keyboard-response","156","510890","0.0-156.0","339ANSOTR6OOYC5V6Y36EG4GZ6RIKD","A2D28BVEFUUTMO","368IUKXGA5U7UZ9GQNUNOB4MGE4P6M","","","img/flower3.png","74","1266","1","1","3","0.8,0.8,0.2,0.2,0.8,0.8,0.8,0.2,0.8",""
"null","","html-keyboard-response","157","511195","0.0-157.0","339ANSOTR6OOYC5V6Y36EG4GZ6RIKD","A2D28BVEFUUTMO","368IUKXGA5U7UZ9GQNUNOB4MGE4P6M","","","<img src=""img/flower3.png"" style=""width:200px; border:14px solid green;"">","null","","","","","",""
"2326","","image-keyboard-response","158","513528","0.0-158.0","339ANSOTR6OOYC5V6Y36EG4GZ6RIKD","A2D28BVEFUUTMO","368IUKXGA5U7UZ9GQNUNOB4MGE4P6M","","","img/flower5.png","74","2331","1","1","1","0.8,0.8,0.2,0.2,0.8,0.8,0.8,0.2,0.8",""
"null","","html-keyboard-response","159","513835","0.0-159.0","339ANSOTR6OOYC5V6Y36EG4GZ6RIKD","A2D28BVEFUUTMO","368IUKXGA5U7UZ9GQNUNOB4MGE4P6M","","","<img src=""img/flower5.png"" style=""width:200px; border:14px solid green;"">","null","","","","","",""
"574","","image-keyboard-response","160","514418","0.0-160.0","339ANSOTR6OOYC5V6Y36EG4GZ6RIKD","A2D28BVEFUUTMO","368IUKXGA5U7UZ9GQNUNOB4MGE4P6M","","","img/flower5.png","74","582","1","1","1","0.8,0.8,0.2,0.2,0.8,0.8,0.8,0.2,0.8",""
"null","","html-keyboard-response","161","514726","0.0-161.0","339ANSOTR6OOYC5V6Y36EG4GZ6RIKD","A2D28BVEFUUTMO","368IUKXGA5U7UZ9GQNUNOB4MGE4P6M","","","<img src=""img/flower5.png"" style=""width:200px; border:14px solid green;"">","null","","","","","",""
"813","","image-keyboard-response","162","515551","0.0-162.0","339ANSOTR6OOYC5V6Y36EG4GZ6RIKD","A2D28BVEFUUTMO","368IUKXGA5U7UZ9GQNUNOB4MGE4P6M","","","img/flower2.png","75","822","2","0","2","0.8,0.8,0.2,0.2,0.8,0.8,0.8,0.2,0.8",""
"null","","html-keyboard-response","163","515856","0.0-163.0","339ANSOTR6OOYC5V6Y36EG4GZ6RIKD","A2D28BVEFUUTMO","368IUKXGA5U7UZ9GQNUNOB4MGE4P6M","","","<img src=""img/flower2.png"" style=""width:200px;border:14px solid red;"">","null","","","","","",""
"750","","image-keyboard-response","164","516609","0.0-164.0","339ANSOTR6OOYC5V6Y36EG4GZ6RIKD","A2D28BVEFUUTMO","368IUKXGA5U7UZ9GQNUNOB4MGE4P6M","","","img/flower5.png","74","753","1","1","1","0.8,0.8,0.2,0.2,0.8,0.8,0.8,0.2,0.8",""
"null","","html-keyboard-response","165","516913","0.0-165.0","339ANSOTR6OOYC5V6Y36EG4GZ6RIKD","A2D28BVEFUUTMO","368IUKXGA5U7UZ9GQNUNOB4MGE4P6M","","","<img src=""img/flower5.png"" style=""width:200px; border:14px solid green;"">","null","","","","","",""
"626","","image-keyboard-response","166","517547","0.0-166.0","339ANSOTR6OOYC5V6Y36EG4GZ6RIKD","A2D28BVEFUUTMO","368IUKXGA5U7UZ9GQNUNOB4MGE4P6M","","","img/flower5.png","74","632","1","1","1","0.8,0.8,0.2,0.2,0.8,0.8,0.8,0.2,0.8",""
"null","","html-keyboard-response","167","517855","0.0-167.0","339ANSOTR6OOYC5V6Y36EG4GZ6RIKD","A2D28BVEFUUTMO","368IUKXGA5U7UZ9GQNUNOB4MGE4P6M","","","<img src=""img/flower5.png"" style=""width:200px; border:14px solid green;"">","null","","","","","",""
"981","","image-keyboard-response","168","518843","0.0-168.0","339ANSOTR6OOYC5V6Y36EG4GZ6RIKD","A2D28BVEFUUTMO","368IUKXGA5U7UZ9GQNUNOB4MGE4P6M","","","img/flower3.png","75","986","2","0","3","0.8,0.8,0.2,0.2,0.8,0.8,0.8,0.2,0.8",""
"null","","html-keyboard-response","169","519148","0.0-169.0","339ANSOTR6OOYC5V6Y36EG4GZ6RIKD","A2D28BVEFUUTMO","368IUKXGA5U7UZ9GQNUNOB4MGE4P6M","","","<img src=""img/flower3.png"" style=""width:200px;border:14px solid red;"">","null","","","","","",""
"644","","image-keyboard-response","170","519798","0.0-170.0","339ANSOTR6OOYC5V6Y36EG4GZ6RIKD","A2D28BVEFUUTMO","368IUKXGA5U7UZ9GQNUNOB4MGE4P6M","","","img/flower3.png","75","649","2","0","3","0.8,0.8,0.2,0.2,0.8,0.8,0.8,0.2,0.8",""
"null","","html-keyboard-response","171","520103","0.0-171.0","339ANSOTR6OOYC5V6Y36EG4GZ6RIKD","A2D28BVEFUUTMO","368IUKXGA5U7UZ9GQNUNOB4MGE4P6M","","","<img src=""img/flower3.png"" style=""width:200px;border:14px solid red;"">","null","","","","","",""
"722","","image-keyboard-response","172","520832","0.0-172.0","339ANSOTR6OOYC5V6Y36EG4GZ6RIKD","A2D28BVEFUUTMO","368IUKXGA5U7UZ9GQNUNOB4MGE4P6M","","","img/flower3.png","75","728","2","0","3","0.8,0.8,0.2,0.2,0.8,0.8,0.8,0.2,0.8",""
"null","","html-keyboard-response","173","521137","0.0-173.0","339ANSOTR6OOYC5V6Y36EG4GZ6RIKD","A2D28BVEFUUTMO","368IUKXGA5U7UZ9GQNUNOB4MGE4P6M","","","<img src=""img/flower3.png"" style=""width:200px;border:14px solid red;"">","null","","","","","",""
"946","","image-keyboard-response","174","522089","0.0-174.0","339ANSOTR6OOYC5V6Y36EG4GZ6RIKD","A2D28BVEFUUTMO","368IUKXGA5U7UZ9GQNUNOB4MGE4P6M","","","img/flower2.png","76","950","3","1","2","0.8,0.8,0.2,0.2,0.8,0.8,0.8,0.2,0.8",""
"null","","html-keyboard-response","175","522394","0.0-175.0","339ANSOTR6OOYC5V6Y36EG4GZ6RIKD","A2D28BVEFUUTMO","368IUKXGA5U7UZ9GQNUNOB4MGE4P6M","","","<img src=""img/flower2.png"" style=""width:200px; border:14px solid green;"">","null","","","","","",""
"993","","image-keyboard-response","176","523392","0.0-176.0","339ANSOTR6OOYC5V6Y36EG4GZ6RIKD","A2D28BVEFUUTMO","368IUKXGA5U7UZ9GQNUNOB4MGE4P6M","","","img/flower2.png","76","997","3","1","2","0.8,0.8,0.2,0.2,0.8,0.8,0.8,0.2,0.8",""
"null","","html-keyboard-response","177","523698","0.0-177.0","339ANSOTR6OOYC5V6Y36EG4GZ6RIKD","A2D28BVEFUUTMO","368IUKXGA5U7UZ9GQNUNOB4MGE4P6M","","","<img src=""img/flower2.png"" style=""width:200px; border:14px solid green;"">","null","","","","","",""
"527","","image-keyboard-response","178","524231","0.0-178.0","339ANSOTR6OOYC5V6Y36EG4GZ6RIKD","A2D28BVEFUUTMO","368IUKXGA5U7UZ9GQNUNOB4MGE4P6M","","","img/flower2.png","76","531","3","1","2","0.8,0.8,0.2,0.2,0.8,0.8,0.8,0.2,0.8",""
"null","","html-keyboard-response","179","524536","0.0-179.0","339ANSOTR6OOYC5V6Y36EG4GZ6RIKD","A2D28BVEFUUTMO","368IUKXGA5U7UZ9GQNUNOB4MGE4P6M","","","<img src=""img/flower2.png"" style=""width:200px; border:14px solid green;"">","null","","","","","",""
"470","","image-keyboard-response","180","525009","0.0-180.0","339ANSOTR6OOYC5V6Y36EG4GZ6RIKD","A2D28BVEFUUTMO","368IUKXGA5U7UZ9GQNUNOB4MGE4P6M","","","img/flower2.png","76","473","3","1","2","0.8,0.8,0.2,0.2,0.8,0.8,0.8,0.2,0.8",""
"null","","html-keyboard-response","181","525313","0.0-181.0","339ANSOTR6OOYC5V6Y36EG4GZ6RIKD","A2D28BVEFUUTMO","368IUKXGA5U7UZ9GQNUNOB4MGE4P6M","","","<img src=""img/flower2.png"" style=""width:200px; border:14px solid green;"">","null","","","","","",""
"1146","","image-keyboard-response","182","526463","0.0-182.0","339ANSOTR6OOYC5V6Y36EG4GZ6RIKD","A2D28BVEFUUTMO","368IUKXGA5U7UZ9GQNUNOB4MGE4P6M","","","img/flower3.png","75","1149","2","0","3","0.8,0.8,0.2,0.2,0.8,0.8,0.8,0.2,0.8",""
"null","","html-keyboard-response","183","526769","0.0-183.0","339ANSOTR6OOYC5V6Y36EG4GZ6RIKD","A2D28BVEFUUTMO","368IUKXGA5U7UZ9GQNUNOB4MGE4P6M","","","<img src=""img/flower3.png"" style=""width:200px;border:14px solid red;"">","null","","","","","",""
"1026","","image-keyboard-response","184","527799","0.0-184.0","339ANSOTR6OOYC5V6Y36EG4GZ6RIKD","A2D28BVEFUUTMO","368IUKXGA5U7UZ9GQNUNOB4MGE4P6M","","","img/flower5.png","74","1030","1","1","1","0.8,0.8,0.2,0.2,0.8,0.8,0.8,0.2,0.8",""
"null","","html-keyboard-response","185","528106","0.0-185.0","339ANSOTR6OOYC5V6Y36EG4GZ6RIKD","A2D28BVEFUUTMO","368IUKXGA5U7UZ9GQNUNOB4MGE4P6M","","","<img src=""img/flower5.png"" style=""width:200px; border:14px solid green;"">","null","","","","","",""
"1075","","image-keyboard-response","186","529187","0.0-186.0","339ANSOTR6OOYC5V6Y36EG4GZ6RIKD","A2D28BVEFUUTMO","368IUKXGA5U7UZ9GQNUNOB4MGE4P6M","","","img/flower2.png","75","1079","2","0","2","0.8,0.8,0.2,0.2,0.8,0.8,0.8,0.2,0.8",""
"null","","html-keyboard-response","187","529495","0.0-187.0","339ANSOTR6OOYC5V6Y36EG4GZ6RIKD","A2D28BVEFUUTMO","368IUKXGA5U7UZ9GQNUNOB4MGE4P6M","","","<img src=""img/flower2.png"" style=""width:200px;border:14px solid red;"">","null","","","","","",""
"513","","image-keyboard-response","188","530015","0.0-188.0","339ANSOTR6OOYC5V6Y36EG4GZ6RIKD","A2D28BVEFUUTMO","368IUKXGA5U7UZ9GQNUNOB4MGE4P6M","","","img/flower2.png","75","518","2","1","2","0.8,0.8,0.2,0.2,0.8,0.8,0.8,0.2,0.8",""
"null","","html-keyboard-response","189","530324","0.0-189.0","339ANSOTR6OOYC5V6Y36EG4GZ6RIKD","A2D28BVEFUUTMO","368IUKXGA5U7UZ9GQNUNOB4MGE4P6M","","","<img src=""img/flower2.png"" style=""width:200px; border:14px solid green;"">","null","","","","","",""
"524","","image-keyboard-response","190","530858","0.0-190.0","339ANSOTR6OOYC5V6Y36EG4GZ6RIKD","A2D28BVEFUUTMO","368IUKXGA5U7UZ9GQNUNOB4MGE4P6M","","","img/flower2.png","75","533","2","1","2","0.8,0.8,0.2,0.2,0.8,0.8,0.8,0.2,0.8",""
"null","","html-keyboard-response","191","531167","0.0-191.0","339ANSOTR6OOYC5V6Y36EG4GZ6RIKD","A2D28BVEFUUTMO","368IUKXGA5U7UZ9GQNUNOB4MGE4P6M","","","<img src=""img/flower2.png"" style=""width:200px; border:14px solid green;"">","null","","","","","",""
"1026","","image-keyboard-response","192","532200","0.0-192.0","339ANSOTR6OOYC5V6Y36EG4GZ6RIKD","A2D28BVEFUUTMO","368IUKXGA5U7UZ9GQNUNOB4MGE4P6M","","","img/flower5.png","74","1032","1","0","1","0.8,0.8,0.2,0.2,0.8,0.8,0.8,0.2,0.8",""
"null","","html-keyboard-response","193","532506","0.0-193.0","339ANSOTR6OOYC5V6Y36EG4GZ6RIKD","A2D28BVEFUUTMO","368IUKXGA5U7UZ9GQNUNOB4MGE4P6M","","","<img src=""img/flower5.png"" style=""width:200px;border:14px solid red;"">","null","","","","","",""
"1194","","image-keyboard-response","194","533707","0.0-194.0","339ANSOTR6OOYC5V6Y36EG4GZ6RIKD","A2D28BVEFUUTMO","368IUKXGA5U7UZ9GQNUNOB4MGE4P6M","","","img/flower3.png","75","1200","2","0","3","0.8,0.8,0.2,0.2,0.8,0.8,0.8,0.2,0.8",""
"null","","html-keyboard-response","195","534012","0.0-195.0","339ANSOTR6OOYC5V6Y36EG4GZ6RIKD","A2D28BVEFUUTMO","368IUKXGA5U7UZ9GQNUNOB4MGE4P6M","","","<img src=""img/flower3.png"" style=""width:200px;border:14px solid red;"">","null","","","","","",""
"1014","","image-keyboard-response","196","535036","0.0-196.0","339ANSOTR6OOYC5V6Y36EG4GZ6RIKD","A2D28BVEFUUTMO","368IUKXGA5U7UZ9GQNUNOB4MGE4P6M","","","img/flower5.png","74","1023","1","1","1","0.8,0.8,0.2,0.2,0.8,0.8,0.8,0.2,0.8",""
"null","","html-keyboard-response","197","535342","0.0-197.0","339ANSOTR6OOYC5V6Y36EG4GZ6RIKD","A2D28BVEFUUTMO","368IUKXGA5U7UZ9GQNUNOB4MGE4P6M","","","<img src=""img/flower5.png"" style=""width:200px; border:14px solid green;"">","null","","","","","",""
"531","","image-keyboard-response","198","535879","0.0-198.0","339ANSOTR6OOYC5V6Y36EG4GZ6RIKD","A2D28BVEFUUTMO","368IUKXGA5U7UZ9GQNUNOB4MGE4P6M","","","img/flower5.png","75","536","2","1","1","0.8,0.8,0.2,0.2,0.8,0.8,0.8,0.2,0.8",""
"null","","html-keyboard-response","199","536185","0.0-199.0","339ANSOTR6OOYC5V6Y36EG4GZ6RIKD","A2D28BVEFUUTMO","368IUKXGA5U7UZ9GQNUNOB4MGE4P6M","","","<img src=""img/flower5.png"" style=""width:200px; border:14px solid green;"">","null","","","","","",""
"511","","image-keyboard-response","200","536702","0.0-200.0","339ANSOTR6OOYC5V6Y36EG4GZ6RIKD","A2D28BVEFUUTMO","368IUKXGA5U7UZ9GQNUNOB4MGE4P6M","","","img/flower5.png","75","516","2","1","1","0.8,0.8,0.2,0.2,0.8,0.8,0.8,0.2,0.8",""
"null","","html-keyboard-response","201","537006","0.0-201.0","339ANSOTR6OOYC5V6Y36EG4GZ6RIKD","A2D28BVEFUUTMO","368IUKXGA5U7UZ9GQNUNOB4MGE4P6M","","","<img src=""img/flower5.png"" style=""width:200px; border:14px solid green;"">","null","","","","","",""
"1713","","image-keyboard-response","202","538725","0.0-202.0","339ANSOTR6OOYC5V6Y36EG4GZ6RIKD","A2D28BVEFUUTMO","368IUKXGA5U7UZ9GQNUNOB4MGE4P6M","","","img/flower2.png","75","1718","2","0","2","0.8,0.8,0.2,0.2,0.8,0.8,0.8,0.2,0.8",""
"null","","html-keyboard-response","203","539029","0.0-203.0","339ANSOTR6OOYC5V6Y36EG4GZ6RIKD","A2D28BVEFUUTMO","368IUKXGA5U7UZ9GQNUNOB4MGE4P6M","","","<img src=""img/flower2.png"" style=""width:200px;border:14px solid red;"">","null","","","","","",""
"245","","image-keyboard-response","204","539281","0.0-204.0","339ANSOTR6OOYC5V6Y36EG4GZ6RIKD","A2D28BVEFUUTMO","368IUKXGA5U7UZ9GQNUNOB4MGE4P6M","","","img/flower3.png","76","249","3","1","3","0.8,0.8,0.2,0.2,0.8,0.8,0.8,0.2,0.8",""
"null","","html-keyboard-response","205","539585","0.0-205.0","339ANSOTR6OOYC5V6Y36EG4GZ6RIKD","A2D28BVEFUUTMO","368IUKXGA5U7UZ9GQNUNOB4MGE4P6M","","","<img src=""img/flower3.png"" style=""width:200px; border:14px solid green;"">","null","","","","","",""
"1051","","image-keyboard-response","206","540640","0.0-206.0","339ANSOTR6OOYC5V6Y36EG4GZ6RIKD","A2D28BVEFUUTMO","368IUKXGA5U7UZ9GQNUNOB4MGE4P6M","","","img/flower2.png","76","1054","3","0","2","0.8,0.8,0.2,0.2,0.8,0.8,0.8,0.2,0.8",""
"null","","html-keyboard-response","207","540945","0.0-207.0","339ANSOTR6OOYC5V6Y36EG4GZ6RIKD","A2D28BVEFUUTMO","368IUKXGA5U7UZ9GQNUNOB4MGE4P6M","","","<img src=""img/flower2.png"" style=""width:200px;border:14px solid red;"">","null","","","","","",""
"608","","image-keyboard-response","208","541560","0.0-208.0","339ANSOTR6OOYC5V6Y36EG4GZ6RIKD","A2D28BVEFUUTMO","368IUKXGA5U7UZ9GQNUNOB4MGE4P6M","","","img/flower2.png","76","614","3","1","2","0.8,0.8,0.2,0.2,0.8,0.8,0.8,0.2,0.8",""
"null","","html-keyboard-response","209","541866","0.0-209.0","339ANSOTR6OOYC5V6Y36EG4GZ6RIKD","A2D28BVEFUUTMO","368IUKXGA5U7UZ9GQNUNOB4MGE4P6M","","","<img src=""img/flower2.png"" style=""width:200px; border:14px solid green;"">","null","","","","","",""
"850","","image-keyboard-response","210","542723","0.0-210.0","339ANSOTR6OOYC5V6Y36EG4GZ6RIKD","A2D28BVEFUUTMO","368IUKXGA5U7UZ9GQNUNOB4MGE4P6M","","","img/flower3.png","75","856","2","1","3","0.8,0.8,0.2,0.2,0.8,0.8,0.8,0.2,0.8",""
"null","","html-keyboard-response","211","543029","0.0-211.0","339ANSOTR6OOYC5V6Y36EG4GZ6RIKD","A2D28BVEFUUTMO","368IUKXGA5U7UZ9GQNUNOB4MGE4P6M","","","<img src=""img/flower3.png"" style=""width:200px; border:14px solid green;"">","null","","","","","",""
"1012","","image-keyboard-response","212","544048","0.0-212.0","339ANSOTR6OOYC5V6Y36EG4GZ6RIKD","A2D28BVEFUUTMO","368IUKXGA5U7UZ9GQNUNOB4MGE4P6M","","","img/flower5.png","74","1019","1","1","1","0.8,0.8,0.2,0.2,0.8,0.8,0.8,0.2,0.8",""
"null","","html-keyboard-response","213","544360","0.0-213.0","339ANSOTR6OOYC5V6Y36EG4GZ6RIKD","A2D28BVEFUUTMO","368IUKXGA5U7UZ9GQNUNOB4MGE4P6M","","","<img src=""img/flower5.png"" style=""width:200px; border:14px solid green;"">","null","","","","","",""
"1580","","image-keyboard-response","214","545948","0.0-214.0","339ANSOTR6OOYC5V6Y36EG4GZ6RIKD","A2D28BVEFUUTMO","368IUKXGA5U7UZ9GQNUNOB4MGE4P6M","","","img/flower3.png","75","1586","2","0","3","0.8,0.8,0.2,0.2,0.8,0.8,0.8,0.2,0.8",""
"null","","html-keyboard-response","215","546255","0.0-215.0","339ANSOTR6OOYC5V6Y36EG4GZ6RIKD","A2D28BVEFUUTMO","368IUKXGA5U7UZ9GQNUNOB4MGE4P6M","","","<img src=""img/flower3.png"" style=""width:200px;border:14px solid red;"">","null","","","","","",""
"823","","image-keyboard-response","216","547082","0.0-216.0","339ANSOTR6OOYC5V6Y36EG4GZ6RIKD","A2D28BVEFUUTMO","368IUKXGA5U7UZ9GQNUNOB4MGE4P6M","","","img/flower2.png","74","826","1","0","2","0.8,0.8,0.2,0.2,0.8,0.8,0.8,0.2,0.8",""
"null","","html-keyboard-response","217","547388","0.0-217.0","339ANSOTR6OOYC5V6Y36EG4GZ6RIKD","A2D28BVEFUUTMO","368IUKXGA5U7UZ9GQNUNOB4MGE4P6M","","","<img src=""img/flower2.png"" style=""width:200px;border:14px solid red;"">","null","","","","","",""
"901","","image-keyboard-response","218","548297","0.0-218.0","339ANSOTR6OOYC5V6Y36EG4GZ6RIKD","A2D28BVEFUUTMO","368IUKXGA5U7UZ9GQNUNOB4MGE4P6M","","","img/flower5.png","75","908","2","0","1","0.8,0.8,0.2,0.2,0.8,0.8,0.8,0.2,0.8",""
"null","","html-keyboard-response","219","548603","0.0-219.0","339ANSOTR6OOYC5V6Y36EG4GZ6RIKD","A2D28BVEFUUTMO","368IUKXGA5U7UZ9GQNUNOB4MGE4P6M","","","<img src=""img/flower5.png"" style=""width:200px;border:14px solid red;"">","null","","","","","",""
"537","","image-keyboard-response","220","549148","0.0-220.0","339ANSOTR6OOYC5V6Y36EG4GZ6RIKD","A2D28BVEFUUTMO","368IUKXGA5U7UZ9GQNUNOB4MGE4P6M","","","img/flower5.png","75","543","2","0","1","0.8,0.8,0.2,0.2,0.8,0.8,0.8,0.2,0.8",""
"null","","html-keyboard-response","221","549453","0.0-221.0","339ANSOTR6OOYC5V6Y36EG4GZ6RIKD","A2D28BVEFUUTMO","368IUKXGA5U7UZ9GQNUNOB4MGE4P6M","","","<img src=""img/flower5.png"" style=""width:200px;border:14px solid red;"">","null","","","","","",""
"633","","image-keyboard-response","222","550092","0.0-222.0","339ANSOTR6OOYC5V6Y36EG4GZ6RIKD","A2D28BVEFUUTMO","368IUKXGA5U7UZ9GQNUNOB4MGE4P6M","","","img/flower3.png","75","637","2","0","3","0.8,0.8,0.2,0.2,0.8,0.8,0.8,0.2,0.8",""
"null","","html-keyboard-response","223","550395","0.0-223.0","339ANSOTR6OOYC5V6Y36EG4GZ6RIKD","A2D28BVEFUUTMO","368IUKXGA5U7UZ9GQNUNOB4MGE4P6M","","","<img src=""img/flower3.png"" style=""width:200px;border:14px solid red;"">","null","","","","","",""
"710","","image-keyboard-response","224","551111","0.0-224.0","339ANSOTR6OOYC5V6Y36EG4GZ6RIKD","A2D28BVEFUUTMO","368IUKXGA5U7UZ9GQNUNOB4MGE4P6M","","","img/flower5.png","75","716","2","1","1","0.8,0.8,0.2,0.2,0.8,0.8,0.8,0.2,0.8",""
"null","","html-keyboard-response","225","551416","0.0-225.0","339ANSOTR6OOYC5V6Y36EG4GZ6RIKD","A2D28BVEFUUTMO","368IUKXGA5U7UZ9GQNUNOB4MGE4P6M","","","<img src=""img/flower5.png"" style=""width:200px; border:14px solid green;"">","null","","","","","",""
"589","","image-keyboard-response","226","552015","0.0-226.0","339ANSOTR6OOYC5V6Y36EG4GZ6RIKD","A2D28BVEFUUTMO","368IUKXGA5U7UZ9GQNUNOB4MGE4P6M","","","img/flower3.png","75","598","2","0","3","0.8,0.8,0.2,0.2,0.8,0.8,0.8,0.2,0.8",""
"null","","html-keyboard-response","227","552324","0.0-227.0","339ANSOTR6OOYC5V6Y36EG4GZ6RIKD","A2D28BVEFUUTMO","368IUKXGA5U7UZ9GQNUNOB4MGE4P6M","","","<img src=""img/flower3.png"" style=""width:200px;border:14px solid red;"">","null","","","","","",""
"638","","image-keyboard-response","228","552966","0.0-228.0","339ANSOTR6OOYC5V6Y36EG4GZ6RIKD","A2D28BVEFUUTMO","368IUKXGA5U7UZ9GQNUNOB4MGE4P6M","","","img/flower5.png","75","642","2","0","1","0.8,0.8,0.2,0.2,0.8,0.8,0.8,0.2,0.8",""
"null","","html-keyboard-response","229","553271","0.0-229.0","339ANSOTR6OOYC5V6Y36EG4GZ6RIKD","A2D28BVEFUUTMO","368IUKXGA5U7UZ9GQNUNOB4MGE4P6M","","","<img src=""img/flower5.png"" style=""width:200px;border:14px solid red;"">","null","","","","","",""
"1148","","image-keyboard-response","230","554423","0.0-230.0","339ANSOTR6OOYC5V6Y36EG4GZ6RIKD","A2D28BVEFUUTMO","368IUKXGA5U7UZ9GQNUNOB4MGE4P6M","","","img/flower5.png","74","1151","1","1","1","0.8,0.8,0.2,0.2,0.8,0.8,0.8,0.2,0.8",""
"null","","html-keyboard-response","231","554730","0.0-231.0","339ANSOTR6OOYC5V6Y36EG4GZ6RIKD","A2D28BVEFUUTMO","368IUKXGA5U7UZ9GQNUNOB4MGE4P6M","","","<img src=""img/flower5.png"" style=""width:200px; border:14px solid green;"">","null","","","","","",""
"789","","image-keyboard-response","232","555527","0.0-232.0","339ANSOTR6OOYC5V6Y36EG4GZ6RIKD","A2D28BVEFUUTMO","368IUKXGA5U7UZ9GQNUNOB4MGE4P6M","","","img/flower3.png","75","794","2","0","3","0.8,0.8,0.2,0.2,0.8,0.8,0.8,0.2,0.8",""
"null","","html-keyboard-response","233","555831","0.0-233.0","339ANSOTR6OOYC5V6Y36EG4GZ6RIKD","A2D28BVEFUUTMO","368IUKXGA5U7UZ9GQNUNOB4MGE4P6M","","","<img src=""img/flower3.png"" style=""width:200px;border:14px solid red;"">","null","","","","","",""
"1051","","image-keyboard-response","234","556889","0.0-234.0","339ANSOTR6OOYC5V6Y36EG4GZ6RIKD","A2D28BVEFUUTMO","368IUKXGA5U7UZ9GQNUNOB4MGE4P6M","","","img/flower5.png","74","1056","1","1","1","0.8,0.8,0.2,0.2,0.8,0.8,0.8,0.2,0.8",""
"null","","html-keyboard-response","235","557194","0.0-235.0","339ANSOTR6OOYC5V6Y36EG4GZ6RIKD","A2D28BVEFUUTMO","368IUKXGA5U7UZ9GQNUNOB4MGE4P6M","","","<img src=""img/flower5.png"" style=""width:200px; border:14px solid green;"">","null","","","","","",""
"1238","","image-keyboard-response","236","558442","0.0-236.0","339ANSOTR6OOYC5V6Y36EG4GZ6RIKD","A2D28BVEFUUTMO","368IUKXGA5U7UZ9GQNUNOB4MGE4P6M","","","img/flower2.png","76","1246","3","1","2","0.8,0.8,0.2,0.2,0.8,0.8,0.8,0.2,0.8",""
"null","","html-keyboard-response","237","558750","0.0-237.0","339ANSOTR6OOYC5V6Y36EG4GZ6RIKD","A2D28BVEFUUTMO","368IUKXGA5U7UZ9GQNUNOB4MGE4P6M","","","<img src=""img/flower2.png"" style=""width:200px; border:14px solid green;"">","null","","","","","",""
"634","","image-keyboard-response","238","559391","0.0-238.0","339ANSOTR6OOYC5V6Y36EG4GZ6RIKD","A2D28BVEFUUTMO","368IUKXGA5U7UZ9GQNUNOB4MGE4P6M","","","img/flower3.png","76","639","3","0","3","0.8,0.8,0.2,0.2,0.8,0.8,0.8,0.2,0.8",""
"null","","html-keyboard-response","239","559700","0.0-239.0","339ANSOTR6OOYC5V6Y36EG4GZ6RIKD","A2D28BVEFUUTMO","368IUKXGA5U7UZ9GQNUNOB4MGE4P6M","","","<img src=""img/flower3.png"" style=""width:200px;border:14px solid red;"">","null","","","","","",""
"274","","image-keyboard-response","240","559980","0.0-240.0","339ANSOTR6OOYC5V6Y36EG4GZ6RIKD","A2D28BVEFUUTMO","368IUKXGA5U7UZ9GQNUNOB4MGE4P6M","","","img/flower3.png","75","279","2","0","3","0.8,0.8,0.2,0.2,0.8,0.8,0.8,0.2,0.8",""
"null","","html-keyboard-response","241","560288","0.0-241.0","339ANSOTR6OOYC5V6Y36EG4GZ6RIKD","A2D28BVEFUUTMO","368IUKXGA5U7UZ9GQNUNOB4MGE4P6M","","","<img src=""img/flower3.png"" style=""width:200px;border:14px solid red;"">","null","","","","","",""
"870","","image-keyboard-response","242","561165","0.0-242.0","339ANSOTR6OOYC5V6Y36EG4GZ6RIKD","A2D28BVEFUUTMO","368IUKXGA5U7UZ9GQNUNOB4MGE4P6M","","","img/flower2.png","74","876","1","1","2","0.8,0.8,0.2,0.2,0.8,0.8,0.8,0.2,0.8",""
"null","","html-keyboard-response","243","561471","0.0-243.0","339ANSOTR6OOYC5V6Y36EG4GZ6RIKD","A2D28BVEFUUTMO","368IUKXGA5U7UZ9GQNUNOB4MGE4P6M","","","<img src=""img/flower2.png"" style=""width:200px; border:14px solid green;"">","null","","","","","",""
"549","","image-keyboard-response","244","562027","0.0-244.0","339ANSOTR6OOYC5V6Y36EG4GZ6RIKD","A2D28BVEFUUTMO","368IUKXGA5U7UZ9GQNUNOB4MGE4P6M","","","img/flower2.png","74","555","1","0","2","0.8,0.8,0.2,0.2,0.8,0.8,0.8,0.2,0.8",""
"null","","html-keyboard-response","245","562332","0.0-245.0","339ANSOTR6OOYC5V6Y36EG4GZ6RIKD","A2D28BVEFUUTMO","368IUKXGA5U7UZ9GQNUNOB4MGE4P6M","","","<img src=""img/flower2.png"" style=""width:200px;border:14px solid red;"">","null","","","","","",""
"1116","","image-keyboard-response","246","563455","0.0-246.0","339ANSOTR6OOYC5V6Y36EG4GZ6RIKD","A2D28BVEFUUTMO","368IUKXGA5U7UZ9GQNUNOB4MGE4P6M","","","img/flower5.png","74","1122","1","1","1","0.8,0.8,0.2,0.2,0.8,0.8,0.8,0.2,0.8",""
"null","","html-keyboard-response","247","563762","0.0-247.0","339ANSOTR6OOYC5V6Y36EG4GZ6RIKD","A2D28BVEFUUTMO","368IUKXGA5U7UZ9GQNUNOB4MGE4P6M","","","<img src=""img/flower5.png"" style=""width:200px; border:14px solid green;"">","null","","","","","",""
"929","","image-keyboard-response","248","564700","0.0-248.0","339ANSOTR6OOYC5V6Y36EG4GZ6RIKD","A2D28BVEFUUTMO","368IUKXGA5U7UZ9GQNUNOB4MGE4P6M","","","img/flower3.png","75","936","2","0","3","0.8,0.8,0.2,0.2,0.8,0.8,0.8,0.2,0.8",""
"null","","html-keyboard-response","249","565009","0.0-249.0","339ANSOTR6OOYC5V6Y36EG4GZ6RIKD","A2D28BVEFUUTMO","368IUKXGA5U7UZ9GQNUNOB4MGE4P6M","","","<img src=""img/flower3.png"" style=""width:200px;border:14px solid red;"">","null","","","","","",""
"2214","","image-keyboard-response","250","567238","0.0-250.0","339ANSOTR6OOYC5V6Y36EG4GZ6RIKD","A2D28BVEFUUTMO","368IUKXGA5U7UZ9GQNUNOB4MGE4P6M","","","img/flower5.png","76","2219","3","0","1","0.8,0.8,0.2,0.2,0.8,0.8,0.8,0.2,0.8",""
"null","","html-keyboard-response","251","567543","0.0-251.0","339ANSOTR6OOYC5V6Y36EG4GZ6RIKD","A2D28BVEFUUTMO","368IUKXGA5U7UZ9GQNUNOB4MGE4P6M","","","<img src=""img/flower5.png"" style=""width:200px;border:14px solid red;"">","null","","","","","",""
"855","","image-keyboard-response","252","568406","0.0-252.0","339ANSOTR6OOYC5V6Y36EG4GZ6RIKD","A2D28BVEFUUTMO","368IUKXGA5U7UZ9GQNUNOB4MGE4P6M","","","img/flower2.png","76","861","3","1","2","0.8,0.8,0.2,0.2,0.8,0.8,0.8,0.2,0.8",""
"null","","html-keyboard-response","253","568710","0.0-253.0","339ANSOTR6OOYC5V6Y36EG4GZ6RIKD","A2D28BVEFUUTMO","368IUKXGA5U7UZ9GQNUNOB4MGE4P6M","","","<img src=""img/flower2.png"" style=""width:200px; border:14px solid green;"">","null","","","","","",""
"1008","","image-keyboard-response","254","569724","0.0-254.0","339ANSOTR6OOYC5V6Y36EG4GZ6RIKD","A2D28BVEFUUTMO","368IUKXGA5U7UZ9GQNUNOB4MGE4P6M","","","img/flower3.png","75","1012","2","1","3","0.8,0.8,0.2,0.2,0.8,0.8,0.8,0.2,0.8",""
"null","","html-keyboard-response","255","570030","0.0-255.0","339ANSOTR6OOYC5V6Y36EG4GZ6RIKD","A2D28BVEFUUTMO","368IUKXGA5U7UZ9GQNUNOB4MGE4P6M","","","<img src=""img/flower3.png"" style=""width:200px; border:14px solid green;"">","null","","","","","",""
"1173","","image-keyboard-response","256","571208","0.0-256.0","339ANSOTR6OOYC5V6Y36EG4GZ6RIKD","A2D28BVEFUUTMO","368IUKXGA5U7UZ9GQNUNOB4MGE4P6M","","","img/flower5.png","74","1177","1","1","1","0.8,0.8,0.2,0.2,0.8,0.8,0.8,0.2,0.8",""
"null","","html-keyboard-response","257","571514","0.0-257.0","339ANSOTR6OOYC5V6Y36EG4GZ6RIKD","A2D28BVEFUUTMO","368IUKXGA5U7UZ9GQNUNOB4MGE4P6M","","","<img src=""img/flower5.png"" style=""width:200px; border:14px solid green;"">","null","","","","","",""
"960","","image-keyboard-response","258","572480","0.0-258.0","339ANSOTR6OOYC5V6Y36EG4GZ6RIKD","A2D28BVEFUUTMO","368IUKXGA5U7UZ9GQNUNOB4MGE4P6M","","","img/flower3.png","74","965","1","1","3","0.8,0.8,0.2,0.2,0.8,0.8,0.8,0.2,0.8",""
"null","","html-keyboard-response","259","572785","0.0-259.0","339ANSOTR6OOYC5V6Y36EG4GZ6RIKD","A2D28BVEFUUTMO","368IUKXGA5U7UZ9GQNUNOB4MGE4P6M","","","<img src=""img/flower3.png"" style=""width:200px; border:14px solid green;"">","null","","","","","",""
"1098","","image-keyboard-response","260","573887","0.0-260.0","339ANSOTR6OOYC5V6Y36EG4GZ6RIKD","A2D28BVEFUUTMO","368IUKXGA5U7UZ9GQNUNOB4MGE4P6M","","","img/flower2.png","75","1101","2","1","2","0.8,0.8,0.2,0.2,0.8,0.8,0.8,0.2,0.8",""
"null","","html-keyboard-response","261","574192","0.0-261.0","339ANSOTR6OOYC5V6Y36EG4GZ6RIKD","A2D28BVEFUUTMO","368IUKXGA5U7UZ9GQNUNOB4MGE4P6M","","","<img src=""img/flower2.png"" style=""width:200px; border:14px solid green;"">","null","","","","","",""
"1005","","image-keyboard-response","262","575206","0.0-262.0","339ANSOTR6OOYC5V6Y36EG4GZ6RIKD","A2D28BVEFUUTMO","368IUKXGA5U7UZ9GQNUNOB4MGE4P6M","","","img/flower3.png","74","1012","1","0","3","0.8,0.8,0.2,0.2,0.8,0.8,0.8,0.2,0.8",""
"null","","html-keyboard-response","263","575512","0.0-263.0","339ANSOTR6OOYC5V6Y36EG4GZ6RIKD","A2D28BVEFUUTMO","368IUKXGA5U7UZ9GQNUNOB4MGE4P6M","","","<img src=""img/flower3.png"" style=""width:200px;border:14px solid red;"">","null","","","","","",""
"810","","image-keyboard-response","264","576328","0.0-264.0","339ANSOTR6OOYC5V6Y36EG4GZ6RIKD","A2D28BVEFUUTMO","368IUKXGA5U7UZ9GQNUNOB4MGE4P6M","","","img/flower3.png","74","814","1","1","3","0.8,0.8,0.2,0.2,0.8,0.8,0.8,0.2,0.8",""
"null","","html-keyboard-response","265","576632","0.0-265.0","339ANSOTR6OOYC5V6Y36EG4GZ6RIKD","A2D28BVEFUUTMO","368IUKXGA5U7UZ9GQNUNOB4MGE4P6M","","","<img src=""img/flower3.png"" style=""width:200px; border:14px solid green;"">","null","","","","","",""
"952","","image-keyboard-response","266","577592","0.0-266.0","339ANSOTR6OOYC5V6Y36EG4GZ6RIKD","A2D28BVEFUUTMO","368IUKXGA5U7UZ9GQNUNOB4MGE4P6M","","","img/flower2.png","76","959","3","1","2","0.8,0.8,0.2,0.2,0.8,0.8,0.8,0.2,0.8",""
"null","","html-keyboard-response","267","577901","0.0-267.0","339ANSOTR6OOYC5V6Y36EG4GZ6RIKD","A2D28BVEFUUTMO","368IUKXGA5U7UZ9GQNUNOB4MGE4P6M","","","<img src=""img/flower2.png"" style=""width:200px; border:14px solid green;"">","null","","","","","",""
"1026","","image-keyboard-response","268","578934","0.0-268.0","339ANSOTR6OOYC5V6Y36EG4GZ6RIKD","A2D28BVEFUUTMO","368IUKXGA5U7UZ9GQNUNOB4MGE4P6M","","","img/flower5.png","74","1031","1","0","1","0.8,0.8,0.2,0.2,0.8,0.8,0.8,0.2,0.8",""
"null","","html-keyboard-response","269","579239","0.0-269.0","339ANSOTR6OOYC5V6Y36EG4GZ6RIKD","A2D28BVEFUUTMO","368IUKXGA5U7UZ9GQNUNOB4MGE4P6M","","","<img src=""img/flower5.png"" style=""width:200px;border:14px solid red;"">","null","","","","","",""
"49618","","image-keyboard-response","270","628873","0.0-270.0","339ANSOTR6OOYC5V6Y36EG4GZ6RIKD","A2D28BVEFUUTMO","368IUKXGA5U7UZ9GQNUNOB4MGE4P6M","","","img/flower5.png","74","49640","1","1","1","0.8,0.8,0.2,0.2,0.8,0.8,0.8,0.2,0.8",""
"null","","html-keyboard-response","271","629205","0.0-271.0","339ANSOTR6OOYC5V6Y36EG4GZ6RIKD","A2D28BVEFUUTMO","368IUKXGA5U7UZ9GQNUNOB4MGE4P6M","","","<img src=""img/flower5.png"" style=""width:200px; border:14px solid green;"">","null","","","","","",""
"986","","image-keyboard-response","272","630203","0.0-272.0","339ANSOTR6OOYC5V6Y36EG4GZ6RIKD","A2D28BVEFUUTMO","368IUKXGA5U7UZ9GQNUNOB4MGE4P6M","","","img/flower2.png","76","992","3","1","2","0.8,0.8,0.2,0.2,0.8,0.8,0.8,0.2,0.8",""
"null","","html-keyboard-response","273","630524","0.0-273.0","339ANSOTR6OOYC5V6Y36EG4GZ6RIKD","A2D28BVEFUUTMO","368IUKXGA5U7UZ9GQNUNOB4MGE4P6M","","","<img src=""img/flower2.png"" style=""width:200px; border:14px solid green;"">","null","","","","","",""
"921","","image-keyboard-response","274","631453","0.0-274.0","339ANSOTR6OOYC5V6Y36EG4GZ6RIKD","A2D28BVEFUUTMO","368IUKXGA5U7UZ9GQNUNOB4MGE4P6M","","","img/flower5.png","75","929","2","1","1","0.8,0.8,0.2,0.2,0.8,0.8,0.8,0.2,0.8",""
"null","","html-keyboard-response","275","631779","0.0-275.0","339ANSOTR6OOYC5V6Y36EG4GZ6RIKD","A2D28BVEFUUTMO","368IUKXGA5U7UZ9GQNUNOB4MGE4P6M","","","<img src=""img/flower5.png"" style=""width:200px; border:14px solid green;"">","null","","","","","",""
"1100","","image-keyboard-response","276","632887","0.0-276.0","339ANSOTR6OOYC5V6Y36EG4GZ6RIKD","A2D28BVEFUUTMO","368IUKXGA5U7UZ9GQNUNOB4MGE4P6M","","","img/flower2.png","76","1107","3","1","2","0.8,0.8,0.2,0.2,0.8,0.8,0.8,0.2,0.8",""
"null","","html-keyboard-response","277","633209","0.0-277.0","339ANSOTR6OOYC5V6Y36EG4GZ6RIKD","A2D28BVEFUUTMO","368IUKXGA5U7UZ9GQNUNOB4MGE4P6M","","","<img src=""img/flower2.png"" style=""width:200px; border:14px solid green;"">","null","","","","","",""
"536","","image-keyboard-response","278","633748","0.0-278.0","339ANSOTR6OOYC5V6Y36EG4GZ6RIKD","A2D28BVEFUUTMO","368IUKXGA5U7UZ9GQNUNOB4MGE4P6M","","","img/flower2.png","76","538","3","1","2","0.8,0.8,0.2,0.2,0.8,0.8,0.8,0.2,0.8",""
"null","","html-keyboard-response","279","634055","0.0-279.0","339ANSOTR6OOYC5V6Y36EG4GZ6RIKD","A2D28BVEFUUTMO","368IUKXGA5U7UZ9GQNUNOB4MGE4P6M","","","<img src=""img/flower2.png"" style=""width:200px; border:14px solid green;"">","null","","","","","",""
"903","","image-keyboard-response","280","634961","0.0-280.0","339ANSOTR6OOYC5V6Y36EG4GZ6RIKD","A2D28BVEFUUTMO","368IUKXGA5U7UZ9GQNUNOB4MGE4P6M","","","img/flower5.png","74","905","1","0","1","0.8,0.8,0.2,0.2,0.8,0.8,0.8,0.2,0.8",""
"null","","html-keyboard-response","281","635278","0.0-281.0","339ANSOTR6OOYC5V6Y36EG4GZ6RIKD","A2D28BVEFUUTMO","368IUKXGA5U7UZ9GQNUNOB4MGE4P6M","","","<img src=""img/flower5.png"" style=""width:200px;border:14px solid red;"">","null","","","","","",""
"22885","","image-keyboard-response","282","658172","0.0-282.0","339ANSOTR6OOYC5V6Y36EG4GZ6RIKD","A2D28BVEFUUTMO","368IUKXGA5U7UZ9GQNUNOB4MGE4P6M","","","img/flower3.png","75","22894","2","0","3","0.8,0.8,0.2,0.2,0.8,0.8,0.8,0.2,0.8",""
"null","","html-keyboard-response","283","658491","0.0-283.0","339ANSOTR6OOYC5V6Y36EG4GZ6RIKD","A2D28BVEFUUTMO","368IUKXGA5U7UZ9GQNUNOB4MGE4P6M","","","<img src=""img/flower3.png"" style=""width:200px;border:14px solid red;"">","null","","","","","",""
"932","","image-keyboard-response","284","659433","0.0-284.0","339ANSOTR6OOYC5V6Y36EG4GZ6RIKD","A2D28BVEFUUTMO","368IUKXGA5U7UZ9GQNUNOB4MGE4P6M","","","img/flower2.png","76","940","3","1","2","0.8,0.8,0.2,0.2,0.8,0.8,0.8,0.2,0.8",""
"null","","html-keyboard-response","285","659743","0.0-285.0","339ANSOTR6OOYC5V6Y36EG4GZ6RIKD","A2D28BVEFUUTMO","368IUKXGA5U7UZ9GQNUNOB4MGE4P6M","","","<img src=""img/flower2.png"" style=""width:200px; border:14px solid green;"">","null","","","","","",""
"537","","image-keyboard-response","286","660287","0.0-286.0","339ANSOTR6OOYC5V6Y36EG4GZ6RIKD","A2D28BVEFUUTMO","368IUKXGA5U7UZ9GQNUNOB4MGE4P6M","","","img/flower2.png","76","542","3","1","2","0.8,0.8,0.2,0.2,0.8,0.8,0.8,0.2,0.8",""
"null","","html-keyboard-response","287","660600","0.0-287.0","339ANSOTR6OOYC5V6Y36EG4GZ6RIKD","A2D28BVEFUUTMO","368IUKXGA5U7UZ9GQNUNOB4MGE4P6M","","","<img src=""img/flower2.png"" style=""width:200px; border:14px solid green;"">","null","","","","","",""
"1012","","image-keyboard-response","288","661618","0.0-288.0","339ANSOTR6OOYC5V6Y36EG4GZ6RIKD","A2D28BVEFUUTMO","368IUKXGA5U7UZ9GQNUNOB4MGE4P6M","","","img/flower5.png","75","1017","2","1","1","0.8,0.8,0.2,0.2,0.8,0.8,0.8,0.2,0.8",""
"null","","html-keyboard-response","289","661939","0.0-289.0","339ANSOTR6OOYC5V6Y36EG4GZ6RIKD","A2D28BVEFUUTMO","368IUKXGA5U7UZ9GQNUNOB4MGE4P6M","","","<img src=""img/flower5.png"" style=""width:200px; border:14px solid green;"">","null","","","","","",""
"166","","image-keyboard-response","290","662112","0.0-290.0","339ANSOTR6OOYC5V6Y36EG4GZ6RIKD","A2D28BVEFUUTMO","368IUKXGA5U7UZ9GQNUNOB4MGE4P6M","","","img/flower2.png","74","171","1","0","2","0.8,0.8,0.2,0.2,0.8,0.8,0.8,0.2,0.8",""
"null","","html-keyboard-response","291","662419","0.0-291.0","339ANSOTR6OOYC5V6Y36EG4GZ6RIKD","A2D28BVEFUUTMO","368IUKXGA5U7UZ9GQNUNOB4MGE4P6M","","","<img src=""img/flower2.png"" style=""width:200px;border:14px solid red;"">","null","","","","","",""
"364","","image-keyboard-response","292","662786","0.0-292.0","339ANSOTR6OOYC5V6Y36EG4GZ6RIKD","A2D28BVEFUUTMO","368IUKXGA5U7UZ9GQNUNOB4MGE4P6M","","","img/flower3.png","75","367","2","0","3","0.8,0.8,0.2,0.2,0.8,0.8,0.8,0.2,0.8",""
"null","","html-keyboard-response","293","663099","0.0-293.0","339ANSOTR6OOYC5V6Y36EG4GZ6RIKD","A2D28BVEFUUTMO","368IUKXGA5U7UZ9GQNUNOB4MGE4P6M","","","<img src=""img/flower3.png"" style=""width:200px;border:14px solid red;"">","null","","","","","",""
"83","","image-keyboard-response","294","663190","0.0-294.0","339ANSOTR6OOYC5V6Y36EG4GZ6RIKD","A2D28BVEFUUTMO","368IUKXGA5U7UZ9GQNUNOB4MGE4P6M","","","img/flower3.png","76","87","3","1","3","0.8,0.8,0.2,0.2,0.8,0.8,0.8,0.2,0.8",""
"null","","html-keyboard-response","295","663498","0.0-295.0","339ANSOTR6OOYC5V6Y36EG4GZ6RIKD","A2D28BVEFUUTMO","368IUKXGA5U7UZ9GQNUNOB4MGE4P6M","","","<img src=""img/flower3.png"" style=""width:200px; border:14px solid green;"">","null","","","","","",""
"47045","","image-keyboard-response","296","710549","0.0-296.0","339ANSOTR6OOYC5V6Y36EG4GZ6RIKD","A2D28BVEFUUTMO","368IUKXGA5U7UZ9GQNUNOB4MGE4P6M","","","img/flower3.png","75","47052","2","0","3","0.8,0.8,0.2,0.2,0.8,0.8,0.8,0.2,0.8",""
"null","","html-keyboard-response","297","710869","0.0-297.0","339ANSOTR6OOYC5V6Y36EG4GZ6RIKD","A2D28BVEFUUTMO","368IUKXGA5U7UZ9GQNUNOB4MGE4P6M","","","<img src=""img/flower3.png"" style=""width:200px;border:14px solid red;"">","null","","","","","",""
"1031","","image-keyboard-response","298","711909","0.0-298.0","339ANSOTR6OOYC5V6Y36EG4GZ6RIKD","A2D28BVEFUUTMO","368IUKXGA5U7UZ9GQNUNOB4MGE4P6M","","","img/flower5.png","74","1038","1","1","1","0.8,0.8,0.2,0.2,0.8,0.8,0.8,0.2,0.8",""
"null","","html-keyboard-response","299","712225","0.0-299.0","339ANSOTR6OOYC5V6Y36EG4GZ6RIKD","A2D28BVEFUUTMO","368IUKXGA5U7UZ9GQNUNOB4MGE4P6M","","","<img src=""img/flower5.png"" style=""width:200px; border:14px solid green;"">","null","","","","","",""
"1131","","image-keyboard-response","300","713361","0.0-300.0","339ANSOTR6OOYC5V6Y36EG4GZ6RIKD","A2D28BVEFUUTMO","368IUKXGA5U7UZ9GQNUNOB4MGE4P6M","","","img/flower3.png","75","1136","2","0","3","0.8,0.8,0.2,0.2,0.8,0.8,0.8,0.2,0.8",""
"null","","html-keyboard-response","301","713665","0.0-301.0","339ANSOTR6OOYC5V6Y36EG4GZ6RIKD","A2D28BVEFUUTMO","368IUKXGA5U7UZ9GQNUNOB4MGE4P6M","","","<img src=""img/flower3.png"" style=""width:200px;border:14px solid red;"">","null","","","","","",""
"621","","image-keyboard-response","302","714294","0.0-302.0","339ANSOTR6OOYC5V6Y36EG4GZ6RIKD","A2D28BVEFUUTMO","368IUKXGA5U7UZ9GQNUNOB4MGE4P6M","","","img/flower3.png","75","627","2","0","3","0.8,0.8,0.2,0.2,0.8,0.8,0.8,0.2,0.8",""
"null","","html-keyboard-response","303","714611","0.0-303.0","339ANSOTR6OOYC5V6Y36EG4GZ6RIKD","A2D28BVEFUUTMO","368IUKXGA5U7UZ9GQNUNOB4MGE4P6M","","","<img src=""img/flower3.png"" style=""width:200px;border:14px solid red;"">","null","","","","","",""
"512","","image-keyboard-response","304","715128","0.0-304.0","339ANSOTR6OOYC5V6Y36EG4GZ6RIKD","A2D28BVEFUUTMO","368IUKXGA5U7UZ9GQNUNOB4MGE4P6M","","","img/flower3.png","75","518","2","0","3","0.8,0.8,0.2,0.2,0.8,0.8,0.8,0.2,0.8",""
"null","","html-keyboard-response","305","715449","0.0-305.0","339ANSOTR6OOYC5V6Y36EG4GZ6RIKD","A2D28BVEFUUTMO","368IUKXGA5U7UZ9GQNUNOB4MGE4P6M","","","<img src=""img/flower3.png"" style=""width:200px;border:14px solid red;"">","null","","","","","",""
"","","html-keyboard-response","306","722291","0.0-306.0","339ANSOTR6OOYC5V6Y36EG4GZ6RIKD","A2D28BVEFUUTMO","368IUKXGA5U7UZ9GQNUNOB4MGE4P6M","","","","","","","","","",""
"3165","","image-keyboard-response","307","725463","0.0-307.0","339ANSOTR6OOYC5V6Y36EG4GZ6RIKD","A2D28BVEFUUTMO","368IUKXGA5U7UZ9GQNUNOB4MGE4P6M","","","img/flower4.png","74","3172","1","1","1","0.6,0.6,0,0,0.6,0.6,0.6,0,0.6",""
"null","","html-keyboard-response","308","725783","0.0-308.0","339ANSOTR6OOYC5V6Y36EG4GZ6RIKD","A2D28BVEFUUTMO","368IUKXGA5U7UZ9GQNUNOB4MGE4P6M","","","<img src=""img/flower4.png"" style=""width:200px; border:14px solid green;"">","null","","","","","",""
"1181","","image-keyboard-response","309","726975","0.0-309.0","339ANSOTR6OOYC5V6Y36EG4GZ6RIKD","A2D28BVEFUUTMO","368IUKXGA5U7UZ9GQNUNOB4MGE4P6M","","","img/flower6.png","76","1191","3","1","2","0.6,0.6,0,0,0.6,0.6,0.6,0,0.6",""
"null","","html-keyboard-response","310","727954","0.0-310.0","339ANSOTR6OOYC5V6Y36EG4GZ6RIKD","A2D28BVEFUUTMO","368IUKXGA5U7UZ9GQNUNOB4MGE4P6M","","","<img src=""img/flower6.png"" style=""width:200px; border:14px solid green;"">","null","","","","","",""
"1456","","image-keyboard-response","311","729417","0.0-311.0","339ANSOTR6OOYC5V6Y36EG4GZ6RIKD","A2D28BVEFUUTMO","368IUKXGA5U7UZ9GQNUNOB4MGE4P6M","","","img/flower4.png","74","1461","1","0","1","0.6,0.6,0,0,0.6,0.6,0.6,0,0.6",""
"null","","html-keyboard-response","312","729724","0.0-312.0","339ANSOTR6OOYC5V6Y36EG4GZ6RIKD","A2D28BVEFUUTMO","368IUKXGA5U7UZ9GQNUNOB4MGE4P6M","","","<img src=""img/flower4.png"" style=""width:200px;border:14px solid red;"">","null","","","","","",""
"1072","","image-keyboard-response","313","730800","0.0-313.0","339ANSOTR6OOYC5V6Y36EG4GZ6RIKD","A2D28BVEFUUTMO","368IUKXGA5U7UZ9GQNUNOB4MGE4P6M","","","img/flower4.png","75","1077","2","0","1","0.6,0.6,0,0,0.6,0.6,0.6,0,0.6",""
"null","","html-keyboard-response","314","731112","0.0-314.0","339ANSOTR6OOYC5V6Y36EG4GZ6RIKD","A2D28BVEFUUTMO","368IUKXGA5U7UZ9GQNUNOB4MGE4P6M","","","<img src=""img/flower4.png"" style=""width:200px;border:14px solid red;"">","null","","","","","",""
"964","","image-keyboard-response","315","732083","0.0-315.0","339ANSOTR6OOYC5V6Y36EG4GZ6RIKD","A2D28BVEFUUTMO","368IUKXGA5U7UZ9GQNUNOB4MGE4P6M","","","img/flower4.png","74","969","1","1","1","0.6,0.6,0,0,0.6,0.6,0.6,0,0.6",""
"null","","html-keyboard-response","316","732393","0.0-316.0","339ANSOTR6OOYC5V6Y36EG4GZ6RIKD","A2D28BVEFUUTMO","368IUKXGA5U7UZ9GQNUNOB4MGE4P6M","","","<img src=""img/flower4.png"" style=""width:200px; border:14px solid green;"">","null","","","","","",""
"1454","","image-keyboard-response","317","733854","0.0-317.0","339ANSOTR6OOYC5V6Y36EG4GZ6RIKD","A2D28BVEFUUTMO","368IUKXGA5U7UZ9GQNUNOB4MGE4P6M","","","img/flower7.png","76","1460","3","1","3","0.6,0.6,0,0,0.6,0.6,0.6,0,0.6",""
"null","","html-keyboard-response","318","734160","0.0-318.0","339ANSOTR6OOYC5V6Y36EG4GZ6RIKD","A2D28BVEFUUTMO","368IUKXGA5U7UZ9GQNUNOB4MGE4P6M","","","<img src=""img/flower7.png"" style=""width:200px; border:14px solid green;"">","null","","","","","",""
"792","","image-keyboard-response","319","734958","0.0-319.0","339ANSOTR6OOYC5V6Y36EG4GZ6RIKD","A2D28BVEFUUTMO","368IUKXGA5U7UZ9GQNUNOB4MGE4P6M","","","img/flower6.png","76","796","3","1","2","0.6,0.6,0,0,0.6,0.6,0.6,0,0.6",""
"null","","html-keyboard-response","320","735279","0.0-320.0","339ANSOTR6OOYC5V6Y36EG4GZ6RIKD","A2D28BVEFUUTMO","368IUKXGA5U7UZ9GQNUNOB4MGE4P6M","","","<img src=""img/flower6.png"" style=""width:200px; border:14px solid green;"">","null","","","","","",""
"556","","image-keyboard-response","321","735843","0.0-321.0","339ANSOTR6OOYC5V6Y36EG4GZ6RIKD","A2D28BVEFUUTMO","368IUKXGA5U7UZ9GQNUNOB4MGE4P6M","","","img/flower6.png","76","561","3","0","2","0.6,0.6,0,0,0.6,0.6,0.6,0,0.6",""
"null","","html-keyboard-response","322","736163","0.0-322.0","339ANSOTR6OOYC5V6Y36EG4GZ6RIKD","A2D28BVEFUUTMO","368IUKXGA5U7UZ9GQNUNOB4MGE4P6M","","","<img src=""img/flower6.png"" style=""width:200px;border:14px solid red;"">","null","","","","","",""
"944","","image-keyboard-response","323","737113","0.0-323.0","339ANSOTR6OOYC5V6Y36EG4GZ6RIKD","A2D28BVEFUUTMO","368IUKXGA5U7UZ9GQNUNOB4MGE4P6M","","","img/flower7.png","75","949","2","0","3","0.6,0.6,0,0,0.6,0.6,0.6,0,0.6",""
"null","","html-keyboard-response","324","737436","0.0-324.0","339ANSOTR6OOYC5V6Y36EG4GZ6RIKD","A2D28BVEFUUTMO","368IUKXGA5U7UZ9GQNUNOB4MGE4P6M","","","<img src=""img/flower7.png"" style=""width:200px;border:14px solid red;"">","null","","","","","",""
"611","","image-keyboard-response","325","738053","0.0-325.0","339ANSOTR6OOYC5V6Y36EG4GZ6RIKD","A2D28BVEFUUTMO","368IUKXGA5U7UZ9GQNUNOB4MGE4P6M","","","img/flower4.png","76","616","3","0","1","0.6,0.6,0,0,0.6,0.6,0.6,0,0.6",""
"null","","html-keyboard-response","326","738369","0.0-326.0","339ANSOTR6OOYC5V6Y36EG4GZ6RIKD","A2D28BVEFUUTMO","368IUKXGA5U7UZ9GQNUNOB4MGE4P6M","","","<img src=""img/flower4.png"" style=""width:200px;border:14px solid red;"">","null","","","","","",""
"116","","image-keyboard-response","327","738492","0.0-327.0","339ANSOTR6OOYC5V6Y36EG4GZ6RIKD","A2D28BVEFUUTMO","368IUKXGA5U7UZ9GQNUNOB4MGE4P6M","","","img/flower6.png","74","123","1","0","2","0.6,0.6,0,0,0.6,0.6,0.6,0,0.6",""
"null","","html-keyboard-response","328","738809","0.0-328.0","339ANSOTR6OOYC5V6Y36EG4GZ6RIKD","A2D28BVEFUUTMO","368IUKXGA5U7UZ9GQNUNOB4MGE4P6M","","","<img src=""img/flower6.png"" style=""width:200px;border:14px solid red;"">","null","","","","","",""
"769","","image-keyboard-response","329","739585","0.0-329.0","339ANSOTR6OOYC5V6Y36EG4GZ6RIKD","A2D28BVEFUUTMO","368IUKXGA5U7UZ9GQNUNOB4MGE4P6M","","","img/flower7.png","74","775","1","0","3","0.6,0.6,0,0,0.6,0.6,0.6,0,0.6",""
"null","","html-keyboard-response","330","739890","0.0-330.0","339ANSOTR6OOYC5V6Y36EG4GZ6RIKD","A2D28BVEFUUTMO","368IUKXGA5U7UZ9GQNUNOB4MGE4P6M","","","<img src=""img/flower7.png"" style=""width:200px;border:14px solid red;"">","null","","","","","",""
"1051","","image-keyboard-response","331","740948","0.0-331.0","339ANSOTR6OOYC5V6Y36EG4GZ6RIKD","A2D28BVEFUUTMO","368IUKXGA5U7UZ9GQNUNOB4MGE4P6M","","","img/flower6.png","76","1056","3","0","2","0.6,0.6,0,0,0.6,0.6,0.6,0,0.6",""
"null","","html-keyboard-response","332","741261","0.0-332.0","339ANSOTR6OOYC5V6Y36EG4GZ6RIKD","A2D28BVEFUUTMO","368IUKXGA5U7UZ9GQNUNOB4MGE4P6M","","","<img src=""img/flower6.png"" style=""width:200px;border:14px solid red;"">","null","","","","","",""
"762","","image-keyboard-response","333","742032","0.0-333.0","339ANSOTR6OOYC5V6Y36EG4GZ6RIKD","A2D28BVEFUUTMO","368IUKXGA5U7UZ9GQNUNOB4MGE4P6M","","","img/flower7.png","76","768","3","1","3","0.6,0.6,0,0,0.6,0.6,0.6,0,0.6",""
"null","","html-keyboard-response","334","742345","0.0-334.0","339ANSOTR6OOYC5V6Y36EG4GZ6RIKD","A2D28BVEFUUTMO","368IUKXGA5U7UZ9GQNUNOB4MGE4P6M","","","<img src=""img/flower7.png"" style=""width:200px; border:14px solid green;"">","null","","","","","",""
"1604","","image-keyboard-response","335","743956","0.0-335.0","339ANSOTR6OOYC5V6Y36EG4GZ6RIKD","A2D28BVEFUUTMO","368IUKXGA5U7UZ9GQNUNOB4MGE4P6M","","","img/flower4.png","75","1610","2","1","1","0.6,0.6,0,0,0.6,0.6,0.6,0,0.6",""
"null","","html-keyboard-response","336","744268","0.0-336.0","339ANSOTR6OOYC5V6Y36EG4GZ6RIKD","A2D28BVEFUUTMO","368IUKXGA5U7UZ9GQNUNOB4MGE4P6M","","","<img src=""img/flower4.png"" style=""width:200px; border:14px solid green;"">","null","","","","","",""
"1246","","image-keyboard-response","337","745517","0.0-337.0","339ANSOTR6OOYC5V6Y36EG4GZ6RIKD","A2D28BVEFUUTMO","368IUKXGA5U7UZ9GQNUNOB4MGE4P6M","","","img/flower7.png","76","1249","3","1","3","0.6,0.6,0,0,0.6,0.6,0.6,0,0.6",""
"null","","html-keyboard-response","338","745828","0.0-338.0","339ANSOTR6OOYC5V6Y36EG4GZ6RIKD","A2D28BVEFUUTMO","368IUKXGA5U7UZ9GQNUNOB4MGE4P6M","","","<img src=""img/flower7.png"" style=""width:200px; border:14px solid green;"">","null","","","","","",""
"826","","image-keyboard-response","339","746659","0.0-339.0","339ANSOTR6OOYC5V6Y36EG4GZ6RIKD","A2D28BVEFUUTMO","368IUKXGA5U7UZ9GQNUNOB4MGE4P6M","","","img/flower6.png","76","830","3","1","2","0.6,0.6,0,0,0.6,0.6,0.6,0,0.6",""
"null","","html-keyboard-response","340","746982","0.0-340.0","339ANSOTR6OOYC5V6Y36EG4GZ6RIKD","A2D28BVEFUUTMO","368IUKXGA5U7UZ9GQNUNOB4MGE4P6M","","","<img src=""img/flower6.png"" style=""width:200px; border:14px solid green;"">","null","","","","","",""
"552","","image-keyboard-response","341","747537","0.0-341.0","339ANSOTR6OOYC5V6Y36EG4GZ6RIKD","A2D28BVEFUUTMO","368IUKXGA5U7UZ9GQNUNOB4MGE4P6M","","","img/flower6.png","76","555","3","1","2","0.6,0.6,0,0,0.6,0.6,0.6,0,0.6",""
"null","","html-keyboard-response","342","747848","0.0-342.0","339ANSOTR6OOYC5V6Y36EG4GZ6RIKD","A2D28BVEFUUTMO","368IUKXGA5U7UZ9GQNUNOB4MGE4P6M","","","<img src=""img/flower6.png"" style=""width:200px; border:14px solid green;"">","null","","","","","",""
"1723","","image-keyboard-response","343","749575","0.0-343.0","339ANSOTR6OOYC5V6Y36EG4GZ6RIKD","A2D28BVEFUUTMO","368IUKXGA5U7UZ9GQNUNOB4MGE4P6M","","","img/flower7.png","76","1725","3","0","3","0.6,0.6,0,0,0.6,0.6,0.6,0,0.6",""
"null","","html-keyboard-response","344","749886","0.0-344.0","339ANSOTR6OOYC5V6Y36EG4GZ6RIKD","A2D28BVEFUUTMO","368IUKXGA5U7UZ9GQNUNOB4MGE4P6M","","","<img src=""img/flower7.png"" style=""width:200px;border:14px solid red;"">","null","","","","","",""
"1137","","image-keyboard-response","345","751028","0.0-345.0","339ANSOTR6OOYC5V6Y36EG4GZ6RIKD","A2D28BVEFUUTMO","368IUKXGA5U7UZ9GQNUNOB4MGE4P6M","","","img/flower4.png","74","1141","1","1","1","0.6,0.6,0,0,0.6,0.6,0.6,0,0.6",""
"null","","html-keyboard-response","346","751334","0.0-346.0","339ANSOTR6OOYC5V6Y36EG4GZ6RIKD","A2D28BVEFUUTMO","368IUKXGA5U7UZ9GQNUNOB4MGE4P6M","","","<img src=""img/flower4.png"" style=""width:200px; border:14px solid green;"">","null","","","","","",""
"586","","image-keyboard-response","347","751930","0.0-347.0","339ANSOTR6OOYC5V6Y36EG4GZ6RIKD","A2D28BVEFUUTMO","368IUKXGA5U7UZ9GQNUNOB4MGE4P6M","","","img/flower4.png","74","594","1","1","1","0.6,0.6,0,0,0.6,0.6,0.6,0,0.6",""
"null","","html-keyboard-response","348","752242","0.0-348.0","339ANSOTR6OOYC5V6Y36EG4GZ6RIKD","A2D28BVEFUUTMO","368IUKXGA5U7UZ9GQNUNOB4MGE4P6M","","","<img src=""img/flower4.png"" style=""width:200px; border:14px solid green;"">","null","","","","","",""
"1025","","image-keyboard-response","349","753274","0.0-349.0","339ANSOTR6OOYC5V6Y36EG4GZ6RIKD","A2D28BVEFUUTMO","368IUKXGA5U7UZ9GQNUNOB4MGE4P6M","","","img/flower6.png","76","1030","3","1","2","0.6,0.6,0,0,0.6,0.6,0.6,0,0.6",""
"null","","html-keyboard-response","350","753581","0.0-350.0","339ANSOTR6OOYC5V6Y36EG4GZ6RIKD","A2D28BVEFUUTMO","368IUKXGA5U7UZ9GQNUNOB4MGE4P6M","","","<img src=""img/flower6.png"" style=""width:200px; border:14px solid green;"">","null","","","","","",""
"1051","","image-keyboard-response","351","754638","0.0-351.0","339ANSOTR6OOYC5V6Y36EG4GZ6RIKD","A2D28BVEFUUTMO","368IUKXGA5U7UZ9GQNUNOB4MGE4P6M","","","img/flower4.png","75","1055","2","1","1","0.6,0.6,0,0,0.6,0.6,0.6,0,0.6",""
"null","","html-keyboard-response","352","754955","0.0-352.0","339ANSOTR6OOYC5V6Y36EG4GZ6RIKD","A2D28BVEFUUTMO","368IUKXGA5U7UZ9GQNUNOB4MGE4P6M","","","<img src=""img/flower4.png"" style=""width:200px; border:14px solid green;"">","null","","","","","",""
"955","","image-keyboard-response","353","755917","0.0-353.0","339ANSOTR6OOYC5V6Y36EG4GZ6RIKD","A2D28BVEFUUTMO","368IUKXGA5U7UZ9GQNUNOB4MGE4P6M","","","img/flower6.png","74","963","1","0","2","0.6,0.6,0,0,0.6,0.6,0.6,0,0.6",""
"null","","html-keyboard-response","354","756228","0.0-354.0","339ANSOTR6OOYC5V6Y36EG4GZ6RIKD","A2D28BVEFUUTMO","368IUKXGA5U7UZ9GQNUNOB4MGE4P6M","","","<img src=""img/flower6.png"" style=""width:200px;border:14px solid red;"">","null","","","","","",""
"922","","image-keyboard-response","355","757154","0.0-355.0","339ANSOTR6OOYC5V6Y36EG4GZ6RIKD","A2D28BVEFUUTMO","368IUKXGA5U7UZ9GQNUNOB4MGE4P6M","","","img/flower7.png","75","927","2","0","3","0.6,0.6,0,0,0.6,0.6,0.6,0,0.6",""
"null","","html-keyboard-response","356","757469","0.0-356.0","339ANSOTR6OOYC5V6Y36EG4GZ6RIKD","A2D28BVEFUUTMO","368IUKXGA5U7UZ9GQNUNOB4MGE4P6M","","","<img src=""img/flower7.png"" style=""width:200px;border:14px solid red;"">","null","","","","","",""
"1048","","image-keyboard-response","357","758525","0.0-357.0","339ANSOTR6OOYC5V6Y36EG4GZ6RIKD","A2D28BVEFUUTMO","368IUKXGA5U7UZ9GQNUNOB4MGE4P6M","","","img/flower4.png","74","1054","1","1","1","0.6,0.6,0,0,0.6,0.6,0.6,0,0.6",""
"null","","html-keyboard-response","358","758841","0.0-358.0","339ANSOTR6OOYC5V6Y36EG4GZ6RIKD","A2D28BVEFUUTMO","368IUKXGA5U7UZ9GQNUNOB4MGE4P6M","","","<img src=""img/flower4.png"" style=""width:200px; border:14px solid green;"">","null","","","","","",""
"569","","image-keyboard-response","359","759416","0.0-359.0","339ANSOTR6OOYC5V6Y36EG4GZ6RIKD","A2D28BVEFUUTMO","368IUKXGA5U7UZ9GQNUNOB4MGE4P6M","","","img/flower4.png","75","574","2","0","1","0.6,0.6,0,0,0.6,0.6,0.6,0,0.6",""
"null","","html-keyboard-response","360","759730","0.0-360.0","339ANSOTR6OOYC5V6Y36EG4GZ6RIKD","A2D28BVEFUUTMO","368IUKXGA5U7UZ9GQNUNOB4MGE4P6M","","","<img src=""img/flower4.png"" style=""width:200px;border:14px solid red;"">","null","","","","","",""
"1269","","image-keyboard-response","361","761003","0.0-361.0","339ANSOTR6OOYC5V6Y36EG4GZ6RIKD","A2D28BVEFUUTMO","368IUKXGA5U7UZ9GQNUNOB4MGE4P6M","","","img/flower6.png","76","1273","3","0","2","0.6,0.6,0,0,0.6,0.6,0.6,0,0.6",""
"null","","html-keyboard-response","362","761324","0.0-362.0","339ANSOTR6OOYC5V6Y36EG4GZ6RIKD","A2D28BVEFUUTMO","368IUKXGA5U7UZ9GQNUNOB4MGE4P6M","","","<img src=""img/flower6.png"" style=""width:200px;border:14px solid red;"">","null","","","","","",""
"546","","image-keyboard-response","363","761881","0.0-363.0","339ANSOTR6OOYC5V6Y36EG4GZ6RIKD","A2D28BVEFUUTMO","368IUKXGA5U7UZ9GQNUNOB4MGE4P6M","","","img/flower6.png","76","555","3","0","2","0.6,0.6,0,0,0.6,0.6,0.6,0,0.6",""
"null","","html-keyboard-response","364","762191","0.0-364.0","339ANSOTR6OOYC5V6Y36EG4GZ6RIKD","A2D28BVEFUUTMO","368IUKXGA5U7UZ9GQNUNOB4MGE4P6M","","","<img src=""img/flower6.png"" style=""width:200px;border:14px solid red;"">","null","","","","","",""
"1053","","image-keyboard-response","365","763252","0.0-365.0","339ANSOTR6OOYC5V6Y36EG4GZ6RIKD","A2D28BVEFUUTMO","368IUKXGA5U7UZ9GQNUNOB4MGE4P6M","","","img/flower7.png","75","1060","2","0","3","0.6,0.6,0,0,0.6,0.6,0.6,0,0.6",""
"null","","html-keyboard-response","366","763574","0.0-366.0","339ANSOTR6OOYC5V6Y36EG4GZ6RIKD","A2D28BVEFUUTMO","368IUKXGA5U7UZ9GQNUNOB4MGE4P6M","","","<img src=""img/flower7.png"" style=""width:200px;border:14px solid red;"">","null","","","","","",""
"1064","","image-keyboard-response","367","764642","0.0-367.0","339ANSOTR6OOYC5V6Y36EG4GZ6RIKD","A2D28BVEFUUTMO","368IUKXGA5U7UZ9GQNUNOB4MGE4P6M","","","img/flower6.png","74","1068","1","0","2","0.6,0.6,0,0,0.6,0.6,0.6,0,0.6",""
"null","","html-keyboard-response","368","764964","0.0-368.0","339ANSOTR6OOYC5V6Y36EG4GZ6RIKD","A2D28BVEFUUTMO","368IUKXGA5U7UZ9GQNUNOB4MGE4P6M","","","<img src=""img/flower6.png"" style=""width:200px;border:14px solid red;"">","null","","","","","",""
"568","","image-keyboard-response","369","765542","0.0-369.0","339ANSOTR6OOYC5V6Y36EG4GZ6RIKD","A2D28BVEFUUTMO","368IUKXGA5U7UZ9GQNUNOB4MGE4P6M","","","img/flower6.png","75","576","2","1","2","0.6,0.6,0,0,0.6,0.6,0.6,0,0.6",""
"null","","html-keyboard-response","370","765849","0.0-370.0","339ANSOTR6OOYC5V6Y36EG4GZ6RIKD","A2D28BVEFUUTMO","368IUKXGA5U7UZ9GQNUNOB4MGE4P6M","","","<img src=""img/flower6.png"" style=""width:200px; border:14px solid green;"">","null","","","","","",""
"570","","image-keyboard-response","371","766424","0.0-371.0","339ANSOTR6OOYC5V6Y36EG4GZ6RIKD","A2D28BVEFUUTMO","368IUKXGA5U7UZ9GQNUNOB4MGE4P6M","","","img/flower6.png","75","574","2","1","2","0.6,0.6,0,0,0.6,0.6,0.6,0,0.6",""
"null","","html-keyboard-response","372","766738","0.0-372.0","339ANSOTR6OOYC5V6Y36EG4GZ6RIKD","A2D28BVEFUUTMO","368IUKXGA5U7UZ9GQNUNOB4MGE4P6M","","","<img src=""img/flower6.png"" style=""width:200px; border:14px solid green;"">","null","","","","","",""
"1771","","image-keyboard-response","373","768513","0.0-373.0","339ANSOTR6OOYC5V6Y36EG4GZ6RIKD","A2D28BVEFUUTMO","368IUKXGA5U7UZ9GQNUNOB4MGE4P6M","","","img/flower7.png","75","1775","2","0","3","0.6,0.6,0,0,0.6,0.6,0.6,0,0.6",""
"null","","html-keyboard-response","374","768822","0.0-374.0","339ANSOTR6OOYC5V6Y36EG4GZ6RIKD","A2D28BVEFUUTMO","368IUKXGA5U7UZ9GQNUNOB4MGE4P6M","","","<img src=""img/flower7.png"" style=""width:200px;border:14px solid red;"">","null","","","","","",""
"398","","image-keyboard-response","375","769227","0.0-375.0","339ANSOTR6OOYC5V6Y36EG4GZ6RIKD","A2D28BVEFUUTMO","368IUKXGA5U7UZ9GQNUNOB4MGE4P6M","","","img/flower6.png","76","402","3","0","2","0.6,0.6,0,0,0.6,0.6,0.6,0,0.6",""
"null","","html-keyboard-response","376","769539","0.0-376.0","339ANSOTR6OOYC5V6Y36EG4GZ6RIKD","A2D28BVEFUUTMO","368IUKXGA5U7UZ9GQNUNOB4MGE4P6M","","","<img src=""img/flower6.png"" style=""width:200px;border:14px solid red;"">","null","","","","","",""
"459","","image-keyboard-response","377","770006","0.0-377.0","339ANSOTR6OOYC5V6Y36EG4GZ6RIKD","A2D28BVEFUUTMO","368IUKXGA5U7UZ9GQNUNOB4MGE4P6M","","","img/flower6.png","76","465","3","1","2","0.6,0.6,0,0,0.6,0.6,0.6,0,0.6",""
"null","","html-keyboard-response","378","770316","0.0-378.0","339ANSOTR6OOYC5V6Y36EG4GZ6RIKD","A2D28BVEFUUTMO","368IUKXGA5U7UZ9GQNUNOB4MGE4P6M","","","<img src=""img/flower6.png"" style=""width:200px; border:14px solid green;"">","null","","","","","",""
"881","","image-keyboard-response","379","771207","0.0-379.0","339ANSOTR6OOYC5V6Y36EG4GZ6RIKD","A2D28BVEFUUTMO","368IUKXGA5U7UZ9GQNUNOB4MGE4P6M","","","img/flower7.png","75","888","2","0","3","0.6,0.6,0,0,0.6,0.6,0.6,0,0.6",""
"null","","html-keyboard-response","380","771516","0.0-380.0","339ANSOTR6OOYC5V6Y36EG4GZ6RIKD","A2D28BVEFUUTMO","368IUKXGA5U7UZ9GQNUNOB4MGE4P6M","","","<img src=""img/flower7.png"" style=""width:200px;border:14px solid red;"">","null","","","","","",""
"982","","image-keyboard-response","381","772505","0.0-381.0","339ANSOTR6OOYC5V6Y36EG4GZ6RIKD","A2D28BVEFUUTMO","368IUKXGA5U7UZ9GQNUNOB4MGE4P6M","","","img/flower6.png","76","988","3","1","2","0.6,0.6,0,0,0.6,0.6,0.6,0,0.6",""
"null","","html-keyboard-response","382","772823","0.0-382.0","339ANSOTR6OOYC5V6Y36EG4GZ6RIKD","A2D28BVEFUUTMO","368IUKXGA5U7UZ9GQNUNOB4MGE4P6M","","","<img src=""img/flower6.png"" style=""width:200px; border:14px solid green;"">","null","","","","","",""
"845","","image-keyboard-response","383","773674","0.0-383.0","339ANSOTR6OOYC5V6Y36EG4GZ6RIKD","A2D28BVEFUUTMO","368IUKXGA5U7UZ9GQNUNOB4MGE4P6M","","","img/flower7.png","76","850","3","1","3","0.6,0.6,0,0,0.6,0.6,0.6,0,0.6",""
"null","","html-keyboard-response","384","773981","0.0-384.0","339ANSOTR6OOYC5V6Y36EG4GZ6RIKD","A2D28BVEFUUTMO","368IUKXGA5U7UZ9GQNUNOB4MGE4P6M","","","<img src=""img/flower7.png"" style=""width:200px; border:14px solid green;"">","null","","","","","",""
"499","","image-keyboard-response","385","774483","0.0-385.0","339ANSOTR6OOYC5V6Y36EG4GZ6RIKD","A2D28BVEFUUTMO","368IUKXGA5U7UZ9GQNUNOB4MGE4P6M","","","img/flower7.png","76","502","3","0","3","0.6,0.6,0,0,0.6,0.6,0.6,0,0.6",""
"null","","html-keyboard-response","386","774790","0.0-386.0","339ANSOTR6OOYC5V6Y36EG4GZ6RIKD","A2D28BVEFUUTMO","368IUKXGA5U7UZ9GQNUNOB4MGE4P6M","","","<img src=""img/flower7.png"" style=""width:200px;border:14px solid red;"">","null","","","","","",""
"1065","","image-keyboard-response","387","775863","0.0-387.0","339ANSOTR6OOYC5V6Y36EG4GZ6RIKD","A2D28BVEFUUTMO","368IUKXGA5U7UZ9GQNUNOB4MGE4P6M","","","img/flower4.png","75","1071","2","1","1","0.6,0.6,0,0,0.6,0.6,0.6,0,0.6",""
"null","","html-keyboard-response","388","776168","0.0-388.0","339ANSOTR6OOYC5V6Y36EG4GZ6RIKD","A2D28BVEFUUTMO","368IUKXGA5U7UZ9GQNUNOB4MGE4P6M","","","<img src=""img/flower4.png"" style=""width:200px; border:14px solid green;"">","null","","","","","",""
"526","","image-keyboard-response","389","776702","0.0-389.0","339ANSOTR6OOYC5V6Y36EG4GZ6RIKD","A2D28BVEFUUTMO","368IUKXGA5U7UZ9GQNUNOB4MGE4P6M","","","img/flower4.png","75","533","2","1","1","0.6,0.6,0,0,0.6,0.6,0.6,0,0.6",""
"null","","html-keyboard-response","390","777014","0.0-390.0","339ANSOTR6OOYC5V6Y36EG4GZ6RIKD","A2D28BVEFUUTMO","368IUKXGA5U7UZ9GQNUNOB4MGE4P6M","","","<img src=""img/flower4.png"" style=""width:200px; border:14px solid green;"">","null","","","","","",""
"502","","image-keyboard-response","391","777523","0.0-391.0","339ANSOTR6OOYC5V6Y36EG4GZ6RIKD","A2D28BVEFUUTMO","368IUKXGA5U7UZ9GQNUNOB4MGE4P6M","","","img/flower4.png","75","506","2","0","1","0.6,0.6,0,0,0.6,0.6,0.6,0,0.6",""
"null","","html-keyboard-response","392","777832","0.0-392.0","339ANSOTR6OOYC5V6Y36EG4GZ6RIKD","A2D28BVEFUUTMO","368IUKXGA5U7UZ9GQNUNOB4MGE4P6M","","","<img src=""img/flower4.png"" style=""width:200px;border:14px solid red;"">","null","","","","","",""
"802","","image-keyboard-response","393","778640","0.0-393.0","339ANSOTR6OOYC5V6Y36EG4GZ6RIKD","A2D28BVEFUUTMO","368IUKXGA5U7UZ9GQNUNOB4MGE4P6M","","","img/flower7.png","75","807","2","0","3","0.6,0.6,0,0,0.6,0.6,0.6,0,0.6",""
"null","","html-keyboard-response","394","778955","0.0-394.0","339ANSOTR6OOYC5V6Y36EG4GZ6RIKD","A2D28BVEFUUTMO","368IUKXGA5U7UZ9GQNUNOB4MGE4P6M","","","<img src=""img/flower7.png"" style=""width:200px;border:14px solid red;"">","null","","","","","",""
"688","","image-keyboard-response","395","779650","0.0-395.0","339ANSOTR6OOYC5V6Y36EG4GZ6RIKD","A2D28BVEFUUTMO","368IUKXGA5U7UZ9GQNUNOB4MGE4P6M","","","img/flower7.png","76","694","3","1","3","0.6,0.6,0,0,0.6,0.6,0.6,0,0.6",""
"null","","html-keyboard-response","396","779966","0.0-396.0","339ANSOTR6OOYC5V6Y36EG4GZ6RIKD","A2D28BVEFUUTMO","368IUKXGA5U7UZ9GQNUNOB4MGE4P6M","","","<img src=""img/flower7.png"" style=""width:200px; border:14px solid green;"">","null","","","","","",""
"994","","image-keyboard-response","397","780967","0.0-397.0","339ANSOTR6OOYC5V6Y36EG4GZ6RIKD","A2D28BVEFUUTMO","368IUKXGA5U7UZ9GQNUNOB4MGE4P6M","","","img/flower6.png","76","1000","3","0","2","0.6,0.6,0,0,0.6,0.6,0.6,0,0.6",""
"null","","html-keyboard-response","398","781286","0.0-398.0","339ANSOTR6OOYC5V6Y36EG4GZ6RIKD","A2D28BVEFUUTMO","368IUKXGA5U7UZ9GQNUNOB4MGE4P6M","","","<img src=""img/flower6.png"" style=""width:200px;border:14px solid red;"">","null","","","","","",""
"473","","image-keyboard-response","399","781767","0.0-399.0","339ANSOTR6OOYC5V6Y36EG4GZ6RIKD","A2D28BVEFUUTMO","368IUKXGA5U7UZ9GQNUNOB4MGE4P6M","","","img/flower6.png","76","479","3","1","2","0.6,0.6,0,0,0.6,0.6,0.6,0,0.6",""
"null","","html-keyboard-response","400","782084","0.0-400.0","339ANSOTR6OOYC5V6Y36EG4GZ6RIKD","A2D28BVEFUUTMO","368IUKXGA5U7UZ9GQNUNOB4MGE4P6M","","","<img src=""img/flower6.png"" style=""width:200px; border:14px solid green;"">","null","","","","","",""
"465","","image-keyboard-response","401","782555","0.0-401.0","339ANSOTR6OOYC5V6Y36EG4GZ6RIKD","A2D28BVEFUUTMO","368IUKXGA5U7UZ9GQNUNOB4MGE4P6M","","","img/flower6.png","76","470","3","1","2","0.6,0.6,0,0,0.6,0.6,0.6,0,0.6",""
"null","","html-keyboard-response","402","782865","0.0-402.0","339ANSOTR6OOYC5V6Y36EG4GZ6RIKD","A2D28BVEFUUTMO","368IUKXGA5U7UZ9GQNUNOB4MGE4P6M","","","<img src=""img/flower6.png"" style=""width:200px; border:14px solid green;"">","null","","","","","",""
"830","","image-keyboard-response","403","783702","0.0-403.0","339ANSOTR6OOYC5V6Y36EG4GZ6RIKD","A2D28BVEFUUTMO","368IUKXGA5U7UZ9GQNUNOB4MGE4P6M","","","img/flower7.png","76","837","3","1","3","0.6,0.6,0,0,0.6,0.6,0.6,0,0.6",""
"null","","html-keyboard-response","404","784016","0.0-404.0","339ANSOTR6OOYC5V6Y36EG4GZ6RIKD","A2D28BVEFUUTMO","368IUKXGA5U7UZ9GQNUNOB4MGE4P6M","","","<img src=""img/flower7.png"" style=""width:200px; border:14px solid green;"">","null","","","","","",""
"614","","image-keyboard-response","405","784639","0.0-405.0","339ANSOTR6OOYC5V6Y36EG4GZ6RIKD","A2D28BVEFUUTMO","368IUKXGA5U7UZ9GQNUNOB4MGE4P6M","","","img/flower6.png","76","621","3","0","2","0.6,0.6,0,0,0.6,0.6,0.6,0,0.6",""
"null","","html-keyboard-response","406","784945","0.0-406.0","339ANSOTR6OOYC5V6Y36EG4GZ6RIKD","A2D28BVEFUUTMO","368IUKXGA5U7UZ9GQNUNOB4MGE4P6M","","","<img src=""img/flower6.png"" style=""width:200px;border:14px solid red;"">","null","","","","","",""
"1231","","image-keyboard-response","407","786183","0.0-407.0","339ANSOTR6OOYC5V6Y36EG4GZ6RIKD","A2D28BVEFUUTMO","368IUKXGA5U7UZ9GQNUNOB4MGE4P6M","","","img/flower7.png","75","1236","2","0","3","0.6,0.6,0,0,0.6,0.6,0.6,0,0.6",""
"null","","html-keyboard-response","408","786493","0.0-408.0","339ANSOTR6OOYC5V6Y36EG4GZ6RIKD","A2D28BVEFUUTMO","368IUKXGA5U7UZ9GQNUNOB4MGE4P6M","","","<img src=""img/flower7.png"" style=""width:200px;border:14px solid red;"">","null","","","","","",""
"730","","image-keyboard-response","409","787228","0.0-409.0","339ANSOTR6OOYC5V6Y36EG4GZ6RIKD","A2D28BVEFUUTMO","368IUKXGA5U7UZ9GQNUNOB4MGE4P6M","","","img/flower7.png","75","735","2","0","3","0.6,0.6,0,0,0.6,0.6,0.6,0,0.6",""
"null","","html-keyboard-response","410","787538","0.0-410.0","339ANSOTR6OOYC5V6Y36EG4GZ6RIKD","A2D28BVEFUUTMO","368IUKXGA5U7UZ9GQNUNOB4MGE4P6M","","","<img src=""img/flower7.png"" style=""width:200px;border:14px solid red;"">","null","","","","","",""
"1205","","image-keyboard-response","411","788750","0.0-411.0","339ANSOTR6OOYC5V6Y36EG4GZ6RIKD","A2D28BVEFUUTMO","368IUKXGA5U7UZ9GQNUNOB4MGE4P6M","","","img/flower4.png","74","1212","1","1","1","0.6,0.6,0,0,0.6,0.6,0.6,0,0.6",""
"null","","html-keyboard-response","412","789071","0.0-412.0","339ANSOTR6OOYC5V6Y36EG4GZ6RIKD","A2D28BVEFUUTMO","368IUKXGA5U7UZ9GQNUNOB4MGE4P6M","","","<img src=""img/flower4.png"" style=""width:200px; border:14px solid green;"">","null","","","","","",""
"1108","","image-keyboard-response","413","790186","0.0-413.0","339ANSOTR6OOYC5V6Y36EG4GZ6RIKD","A2D28BVEFUUTMO","368IUKXGA5U7UZ9GQNUNOB4MGE4P6M","","","img/flower7.png","76","1114","3","1","3","0.6,0.6,0,0,0.6,0.6,0.6,0,0.6",""
"null","","html-keyboard-response","414","790498","0.0-414.0","339ANSOTR6OOYC5V6Y36EG4GZ6RIKD","A2D28BVEFUUTMO","368IUKXGA5U7UZ9GQNUNOB4MGE4P6M","","","<img src=""img/flower7.png"" style=""width:200px; border:14px solid green;"">","null","","","","","",""
"560","","image-keyboard-response","415","791064","0.0-415.0","339ANSOTR6OOYC5V6Y36EG4GZ6RIKD","A2D28BVEFUUTMO","368IUKXGA5U7UZ9GQNUNOB4MGE4P6M","","","img/flower6.png","76","565","3","1","2","0.6,0.6,0,0,0.6,0.6,0.6,0,0.6",""
"null","","html-keyboard-response","416","791382","0.0-416.0","339ANSOTR6OOYC5V6Y36EG4GZ6RIKD","A2D28BVEFUUTMO","368IUKXGA5U7UZ9GQNUNOB4MGE4P6M","","","<img src=""img/flower6.png"" style=""width:200px; border:14px solid green;"">","null","","","","","",""
"482","","image-keyboard-response","417","791869","0.0-417.0","339ANSOTR6OOYC5V6Y36EG4GZ6RIKD","A2D28BVEFUUTMO","368IUKXGA5U7UZ9GQNUNOB4MGE4P6M","","","img/flower6.png","76","486","3","0","2","0.6,0.6,0,0,0.6,0.6,0.6,0,0.6",""
"null","","html-keyboard-response","418","792191","0.0-418.0","339ANSOTR6OOYC5V6Y36EG4GZ6RIKD","A2D28BVEFUUTMO","368IUKXGA5U7UZ9GQNUNOB4MGE4P6M","","","<img src=""img/flower6.png"" style=""width:200px;border:14px solid red;"">","null","","","","","",""
