"rt","url","trial_type","trial_index","time_elapsed","internal_node_id","assignmentID","mturkID","hitID","success","view_history","stimulus","key_press","reactionTime","a","r","s","reward_cond","responses"
"6041.899999976158","consent.html","external-html","0","6096","0.0-0.0","3E7TUJ2EGD8N956IANB6XAANXNRD9T","A2DLV3WN24WTDS","3A3KKYU7P33Z3BR9PPFZ5194ZCQMWU","","","","","","","","","",""
"","","fullscreen","1","9883","0.0-1.0","3E7TUJ2EGD8N956IANB6XAANXNRD9T","A2DLV3WN24WTDS","3A3KKYU7P33Z3BR9PPFZ5194ZCQMWU","true","","","","","","","","",""
"92493.80000001192","","instructions","2","102378","0.0-2.0","3E7TUJ2EGD8N956IANB6XAANXNRD9T","A2DLV3WN24WTDS","3A3KKYU7P33Z3BR9PPFZ5194ZCQMWU","","[{""page_index"":0,""viewing_time"":13576.900000035763},{""page_index"":1,""viewing_time"":15313.599999964237},{""page_index"":2,""viewing_time"":11515.800000011921},{""page_index"":3,""viewing_time"":12404},{""page_index"":4,""viewing_time"":8238},{""page_index"":5,""viewing_time"":24598.100000023842},{""page_index"":6,""viewing_time"":6845.899999976158}]","","","","","","","",""
"24972.19999998808","","instructions","3","127351","0.0-3.0","3E7TUJ2EGD8N956IANB6XAANXNRD9T","A2DLV3WN24WTDS","3A3KKYU7P33Z3BR9PPFZ5194ZCQMWU","","[{""page_index"":0,""viewing_time"":24971.399999976158}]","","","","","","","",""
"2574.300000011921","","image-keyboard-response","4","129928","0.0-4.0","3E7TUJ2EGD8N956IANB6XAANXNRD9T","A2DLV3WN24WTDS","3A3KKYU7P33Z3BR9PPFZ5194ZCQMWU","","","img/flower5.png","75","2576.100000023842","2","1","2","",""
"null","","html-keyboard-response","5","130238","0.0-5.0","3E7TUJ2EGD8N956IANB6XAANXNRD9T","A2DLV3WN24WTDS","3A3KKYU7P33Z3BR9PPFZ5194ZCQMWU","","","<img src=""img/flower5.png"" style=""width:200px; border:14px solid green;"">","null","","","","","",""
"1324.5","","image-keyboard-response","6","131564","0.0-6.0","3E7TUJ2EGD8N956IANB6XAANXNRD9T","A2DLV3WN24WTDS","3A3KKYU7P33Z3BR9PPFZ5194ZCQMWU","","","img/flower5.png","75","1325.3999999761581","2","1","2","",""
"null","","html-keyboard-response","7","131880","0.0-7.0","3E7TUJ2EGD8N956IANB6XAANXNRD9T","A2DLV3WN24WTDS","3A3KKYU7P33Z3BR9PPFZ5194ZCQMWU","","","<img src=""img/flower5.png"" style=""width:200px; border:14px solid green;"">","null","","","","","",""
"741.6999999880791","","image-keyboard-response","8","132624","0.0-8.0","3E7TUJ2EGD8N956IANB6XAANXNRD9T","A2DLV3WN24WTDS","3A3KKYU7P33Z3BR9PPFZ5194ZCQMWU","","","img/flower6.png","76","743","3","0","3","",""
"null","","html-keyboard-response","9","132928","0.0-9.0","3E7TUJ2EGD8N956IANB6XAANXNRD9T","A2DLV3WN24WTDS","3A3KKYU7P33Z3BR9PPFZ5194ZCQMWU","","","<img src=""img/flower6.png"" style=""width:200px;border:14px solid red;"">","null","","","","","",""
"932.4000000357628","","image-keyboard-response","10","133862","0.0-10.0","3E7TUJ2EGD8N956IANB6XAANXNRD9T","A2DLV3WN24WTDS","3A3KKYU7P33Z3BR9PPFZ5194ZCQMWU","","","img/flower4.png","74","933","1","1","1","",""
"null","","html-keyboard-response","11","134167","0.0-11.0","3E7TUJ2EGD8N956IANB6XAANXNRD9T","A2DLV3WN24WTDS","3A3KKYU7P33Z3BR9PPFZ5194ZCQMWU","","","<img src=""img/flower4.png"" style=""width:200px; border:14px solid green;"">","null","","","","","",""
"791","","image-keyboard-response","12","134959","0.0-12.0","3E7TUJ2EGD8N956IANB6XAANXNRD9T","A2DLV3WN24WTDS","3A3KKYU7P33Z3BR9PPFZ5194ZCQMWU","","","img/flower5.png","75","792","2","0","2","",""
"null","","html-keyboard-response","13","135266","0.0-13.0","3E7TUJ2EGD8N956IANB6XAANXNRD9T","A2DLV3WN24WTDS","3A3KKYU7P33Z3BR9PPFZ5194ZCQMWU","","","<img src=""img/flower5.png"" style=""width:200px;border:14px solid red;"">","null","","","","","",""
"991.6000000238419","","image-keyboard-response","14","136259","0.0-14.0","3E7TUJ2EGD8N956IANB6XAANXNRD9T","A2DLV3WN24WTDS","3A3KKYU7P33Z3BR9PPFZ5194ZCQMWU","","","img/flower5.png","75","992.5999999642372","2","1","2","",""
"null","","html-keyboard-response","15","136562","0.0-15.0","3E7TUJ2EGD8N956IANB6XAANXNRD9T","A2DLV3WN24WTDS","3A3KKYU7P33Z3BR9PPFZ5194ZCQMWU","","","<img src=""img/flower5.png"" style=""width:200px; border:14px solid green;"">","null","","","","","",""
"1009.0999999642372","","image-keyboard-response","16","137572","0.0-16.0","3E7TUJ2EGD8N956IANB6XAANXNRD9T","A2DLV3WN24WTDS","3A3KKYU7P33Z3BR9PPFZ5194ZCQMWU","","","img/flower4.png","74","1010.1999999880791","1","1","1","",""
"null","","html-keyboard-response","17","137888","0.0-17.0","3E7TUJ2EGD8N956IANB6XAANXNRD9T","A2DLV3WN24WTDS","3A3KKYU7P33Z3BR9PPFZ5194ZCQMWU","","","<img src=""img/flower4.png"" style=""width:200px; border:14px solid green;"">","null","","","","","",""
"792.1999999880791","","image-keyboard-response","18","138682","0.0-18.0","3E7TUJ2EGD8N956IANB6XAANXNRD9T","A2DLV3WN24WTDS","3A3KKYU7P33Z3BR9PPFZ5194ZCQMWU","","","img/flower6.png","76","793.0999999642372","3","0","3","",""
"null","","html-keyboard-response","19","138990","0.0-19.0","3E7TUJ2EGD8N956IANB6XAANXNRD9T","A2DLV3WN24WTDS","3A3KKYU7P33Z3BR9PPFZ5194ZCQMWU","","","<img src=""img/flower6.png"" style=""width:200px;border:14px solid red;"">","null","","","","","",""
"675.6999999880791","","image-keyboard-response","20","139667","0.0-20.0","3E7TUJ2EGD8N956IANB6XAANXNRD9T","A2DLV3WN24WTDS","3A3KKYU7P33Z3BR9PPFZ5194ZCQMWU","","","img/flower6.png","76","676.5","3","1","3","",""
"null","","html-keyboard-response","21","139975","0.0-21.0","3E7TUJ2EGD8N956IANB6XAANXNRD9T","A2DLV3WN24WTDS","3A3KKYU7P33Z3BR9PPFZ5194ZCQMWU","","","<img src=""img/flower6.png"" style=""width:200px; border:14px solid green;"">","null","","","","","",""
"690.8999999761581","","image-keyboard-response","22","140667","0.0-22.0","3E7TUJ2EGD8N956IANB6XAANXNRD9T","A2DLV3WN24WTDS","3A3KKYU7P33Z3BR9PPFZ5194ZCQMWU","","","img/flower6.png","76","692.1999999880791","3","1","3","",""
"null","","html-keyboard-response","23","140978","0.0-23.0","3E7TUJ2EGD8N956IANB6XAANXNRD9T","A2DLV3WN24WTDS","3A3KKYU7P33Z3BR9PPFZ5194ZCQMWU","","","<img src=""img/flower6.png"" style=""width:200px; border:14px solid green;"">","null","","","","","",""
"637","","image-keyboard-response","24","141616","0.0-24.0","3E7TUJ2EGD8N956IANB6XAANXNRD9T","A2DLV3WN24WTDS","3A3KKYU7P33Z3BR9PPFZ5194ZCQMWU","","","img/flower5.png","75","638","2","1","2","",""
"null","","html-keyboard-response","25","141932","0.0-25.0","3E7TUJ2EGD8N956IANB6XAANXNRD9T","A2DLV3WN24WTDS","3A3KKYU7P33Z3BR9PPFZ5194ZCQMWU","","","<img src=""img/flower5.png"" style=""width:200px; border:14px solid green;"">","null","","","","","",""
"641.4000000357628","","image-keyboard-response","26","142575","0.0-26.0","3E7TUJ2EGD8N956IANB6XAANXNRD9T","A2DLV3WN24WTDS","3A3KKYU7P33Z3BR9PPFZ5194ZCQMWU","","","img/flower6.png","76","642.2000000476837","3","0","3","",""
"null","","html-keyboard-response","27","142889","0.0-27.0","3E7TUJ2EGD8N956IANB6XAANXNRD9T","A2DLV3WN24WTDS","3A3KKYU7P33Z3BR9PPFZ5194ZCQMWU","","","<img src=""img/flower6.png"" style=""width:200px;border:14px solid red;"">","null","","","","","",""
"1018","","image-keyboard-response","28","143908","0.0-28.0","3E7TUJ2EGD8N956IANB6XAANXNRD9T","A2DLV3WN24WTDS","3A3KKYU7P33Z3BR9PPFZ5194ZCQMWU","","","img/flower6.png","76","1019","3","0","3","",""
"null","","html-keyboard-response","29","144214","0.0-29.0","3E7TUJ2EGD8N956IANB6XAANXNRD9T","A2DLV3WN24WTDS","3A3KKYU7P33Z3BR9PPFZ5194ZCQMWU","","","<img src=""img/flower6.png"" style=""width:200px;border:14px solid red;"">","null","","","","","",""
"725.6999999880791","","image-keyboard-response","30","144941","0.0-30.0","3E7TUJ2EGD8N956IANB6XAANXNRD9T","A2DLV3WN24WTDS","3A3KKYU7P33Z3BR9PPFZ5194ZCQMWU","","","img/flower4.png","74","726.6999999880791","1","1","1","",""
"null","","html-keyboard-response","31","145246","0.0-31.0","3E7TUJ2EGD8N956IANB6XAANXNRD9T","A2DLV3WN24WTDS","3A3KKYU7P33Z3BR9PPFZ5194ZCQMWU","","","<img src=""img/flower4.png"" style=""width:200px; border:14px solid green;"">","null","","","","","",""
"630.6000000238419","","image-keyboard-response","32","145878","0.0-32.0","3E7TUJ2EGD8N956IANB6XAANXNRD9T","A2DLV3WN24WTDS","3A3KKYU7P33Z3BR9PPFZ5194ZCQMWU","","","img/flower6.png","76","631.6999999880791","3","1","3","",""
"null","","html-keyboard-response","33","146186","0.0-33.0","3E7TUJ2EGD8N956IANB6XAANXNRD9T","A2DLV3WN24WTDS","3A3KKYU7P33Z3BR9PPFZ5194ZCQMWU","","","<img src=""img/flower6.png"" style=""width:200px; border:14px solid green;"">","null","","","","","",""
"826.5","","image-keyboard-response","34","147014","0.0-34.0","3E7TUJ2EGD8N956IANB6XAANXNRD9T","A2DLV3WN24WTDS","3A3KKYU7P33Z3BR9PPFZ5194ZCQMWU","","","img/flower5.png","75","827.4000000357628","2","1","2","",""
"null","","html-keyboard-response","35","147330","0.0-35.0","3E7TUJ2EGD8N956IANB6XAANXNRD9T","A2DLV3WN24WTDS","3A3KKYU7P33Z3BR9PPFZ5194ZCQMWU","","","<img src=""img/flower5.png"" style=""width:200px; border:14px solid green;"">","null","","","","","",""
"718.1000000238419","","image-keyboard-response","36","148050","0.0-36.0","3E7TUJ2EGD8N956IANB6XAANXNRD9T","A2DLV3WN24WTDS","3A3KKYU7P33Z3BR9PPFZ5194ZCQMWU","","","img/flower4.png","74","719.3000000119209","1","1","1","",""
"null","","html-keyboard-response","37","148366","0.0-37.0","3E7TUJ2EGD8N956IANB6XAANXNRD9T","A2DLV3WN24WTDS","3A3KKYU7P33Z3BR9PPFZ5194ZCQMWU","","","<img src=""img/flower4.png"" style=""width:200px; border:14px solid green;"">","null","","","","","",""
"657.9000000357628","","image-keyboard-response","38","149026","0.0-38.0","3E7TUJ2EGD8N956IANB6XAANXNRD9T","A2DLV3WN24WTDS","3A3KKYU7P33Z3BR9PPFZ5194ZCQMWU","","","img/flower4.png","74","659","1","0","1","",""
"null","","html-keyboard-response","39","149329","0.0-39.0","3E7TUJ2EGD8N956IANB6XAANXNRD9T","A2DLV3WN24WTDS","3A3KKYU7P33Z3BR9PPFZ5194ZCQMWU","","","<img src=""img/flower4.png"" style=""width:200px;border:14px solid red;"">","null","","","","","",""
"673.3000000119209","","image-keyboard-response","40","150004","0.0-40.0","3E7TUJ2EGD8N956IANB6XAANXNRD9T","A2DLV3WN24WTDS","3A3KKYU7P33Z3BR9PPFZ5194ZCQMWU","","","img/flower5.png","75","674.3000000119209","2","1","2","",""
"null","","html-keyboard-response","41","150321","0.0-41.0","3E7TUJ2EGD8N956IANB6XAANXNRD9T","A2DLV3WN24WTDS","3A3KKYU7P33Z3BR9PPFZ5194ZCQMWU","","","<img src=""img/flower5.png"" style=""width:200px; border:14px solid green;"">","null","","","","","",""
"756","","image-keyboard-response","42","151078","0.0-42.0","3E7TUJ2EGD8N956IANB6XAANXNRD9T","A2DLV3WN24WTDS","3A3KKYU7P33Z3BR9PPFZ5194ZCQMWU","","","img/flower4.png","74","756.9000000357628","1","0","1","",""
"null","","html-keyboard-response","43","151382","0.0-43.0","3E7TUJ2EGD8N956IANB6XAANXNRD9T","A2DLV3WN24WTDS","3A3KKYU7P33Z3BR9PPFZ5194ZCQMWU","","","<img src=""img/flower4.png"" style=""width:200px;border:14px solid red;"">","null","","","","","",""
"638.6999999880791","","image-keyboard-response","44","152023","0.0-44.0","3E7TUJ2EGD8N956IANB6XAANXNRD9T","A2DLV3WN24WTDS","3A3KKYU7P33Z3BR9PPFZ5194ZCQMWU","","","img/flower4.png","74","639.7000000476837","1","1","1","",""
"null","","html-keyboard-response","45","152325","0.0-45.0","3E7TUJ2EGD8N956IANB6XAANXNRD9T","A2DLV3WN24WTDS","3A3KKYU7P33Z3BR9PPFZ5194ZCQMWU","","","<img src=""img/flower4.png"" style=""width:200px; border:14px solid green;"">","null","","","","","",""
"530","","image-keyboard-response","46","152857","0.0-46.0","3E7TUJ2EGD8N956IANB6XAANXNRD9T","A2DLV3WN24WTDS","3A3KKYU7P33Z3BR9PPFZ5194ZCQMWU","","","img/flower5.png","75","531","2","1","2","",""
"null","","html-keyboard-response","47","153162","0.0-47.0","3E7TUJ2EGD8N956IANB6XAANXNRD9T","A2DLV3WN24WTDS","3A3KKYU7P33Z3BR9PPFZ5194ZCQMWU","","","<img src=""img/flower5.png"" style=""width:200px; border:14px solid green;"">","null","","","","","",""
"555.2000000476837","","image-keyboard-response","48","153718","0.0-48.0","3E7TUJ2EGD8N956IANB6XAANXNRD9T","A2DLV3WN24WTDS","3A3KKYU7P33Z3BR9PPFZ5194ZCQMWU","","","img/flower6.png","76","556.1999999880791","3","1","3","",""
"null","","html-keyboard-response","49","154030","0.0-49.0","3E7TUJ2EGD8N956IANB6XAANXNRD9T","A2DLV3WN24WTDS","3A3KKYU7P33Z3BR9PPFZ5194ZCQMWU","","","<img src=""img/flower6.png"" style=""width:200px; border:14px solid green;"">","null","","","","","",""
"756.5","","image-keyboard-response","50","154787","0.0-50.0","3E7TUJ2EGD8N956IANB6XAANXNRD9T","A2DLV3WN24WTDS","3A3KKYU7P33Z3BR9PPFZ5194ZCQMWU","","","img/flower4.png","74","757.3000000119209","1","1","1","",""
"null","","html-keyboard-response","51","155097","0.0-51.0","3E7TUJ2EGD8N956IANB6XAANXNRD9T","A2DLV3WN24WTDS","3A3KKYU7P33Z3BR9PPFZ5194ZCQMWU","","","<img src=""img/flower4.png"" style=""width:200px; border:14px solid green;"">","null","","","","","",""
"592.6000000238419","","image-keyboard-response","52","155692","0.0-52.0","3E7TUJ2EGD8N956IANB6XAANXNRD9T","A2DLV3WN24WTDS","3A3KKYU7P33Z3BR9PPFZ5194ZCQMWU","","","img/flower5.png","75","593.6000000238419","2","1","2","",""
"null","","html-keyboard-response","53","155995","0.0-53.0","3E7TUJ2EGD8N956IANB6XAANXNRD9T","A2DLV3WN24WTDS","3A3KKYU7P33Z3BR9PPFZ5194ZCQMWU","","","<img src=""img/flower5.png"" style=""width:200px; border:14px solid green;"">","null","","","","","",""
"602.1999999880791","","image-keyboard-response","54","156598","0.0-54.0","3E7TUJ2EGD8N956IANB6XAANXNRD9T","A2DLV3WN24WTDS","3A3KKYU7P33Z3BR9PPFZ5194ZCQMWU","","","img/flower4.png","74","602.9000000357628","1","1","1","",""
"null","","html-keyboard-response","55","156904","0.0-55.0","3E7TUJ2EGD8N956IANB6XAANXNRD9T","A2DLV3WN24WTDS","3A3KKYU7P33Z3BR9PPFZ5194ZCQMWU","","","<img src=""img/flower4.png"" style=""width:200px; border:14px solid green;"">","null","","","","","",""
"640.3999999761581","","image-keyboard-response","56","157546","0.0-56.0","3E7TUJ2EGD8N956IANB6XAANXNRD9T","A2DLV3WN24WTDS","3A3KKYU7P33Z3BR9PPFZ5194ZCQMWU","","","img/flower6.png","76","641.1999999880791","3","1","3","",""
"null","","html-keyboard-response","57","157860","0.0-57.0","3E7TUJ2EGD8N956IANB6XAANXNRD9T","A2DLV3WN24WTDS","3A3KKYU7P33Z3BR9PPFZ5194ZCQMWU","","","<img src=""img/flower6.png"" style=""width:200px; border:14px solid green;"">","null","","","","","",""
"458.10000002384186","","image-keyboard-response","58","158319","0.0-58.0","3E7TUJ2EGD8N956IANB6XAANXNRD9T","A2DLV3WN24WTDS","3A3KKYU7P33Z3BR9PPFZ5194ZCQMWU","","","img/flower6.png","76","459.19999998807907","3","1","3","",""
"null","","html-keyboard-response","59","158634","0.0-59.0","3E7TUJ2EGD8N956IANB6XAANXNRD9T","A2DLV3WN24WTDS","3A3KKYU7P33Z3BR9PPFZ5194ZCQMWU","","","<img src=""img/flower6.png"" style=""width:200px; border:14px solid green;"">","null","","","","","",""
"671.5","","image-keyboard-response","60","159307","0.0-60.0","3E7TUJ2EGD8N956IANB6XAANXNRD9T","A2DLV3WN24WTDS","3A3KKYU7P33Z3BR9PPFZ5194ZCQMWU","","","img/flower4.png","75","672.8000000119209","2","1","1","",""
"null","","html-keyboard-response","61","159623","0.0-61.0","3E7TUJ2EGD8N956IANB6XAANXNRD9T","A2DLV3WN24WTDS","3A3KKYU7P33Z3BR9PPFZ5194ZCQMWU","","","<img src=""img/flower4.png"" style=""width:200px; border:14px solid green;"">","null","","","","","",""
"1352.800000011921","","image-keyboard-response","62","160977","0.0-62.0","3E7TUJ2EGD8N956IANB6XAANXNRD9T","A2DLV3WN24WTDS","3A3KKYU7P33Z3BR9PPFZ5194ZCQMWU","","","img/flower5.png","75","1354.1000000238419","2","1","2","",""
"null","","html-keyboard-response","63","161279","0.0-63.0","3E7TUJ2EGD8N956IANB6XAANXNRD9T","A2DLV3WN24WTDS","3A3KKYU7P33Z3BR9PPFZ5194ZCQMWU","","","<img src=""img/flower5.png"" style=""width:200px; border:14px solid green;"">","null","","","","","",""
"20292.200000047684","","instructions","64","181572","0.0-64.0","3E7TUJ2EGD8N956IANB6XAANXNRD9T","A2DLV3WN24WTDS","3A3KKYU7P33Z3BR9PPFZ5194ZCQMWU","","[{""page_index"":0,""viewing_time"":9034.700000047684},{""page_index"":1,""viewing_time"":11256.5}]","","","","","","","",""
"2140.699999988079","","image-keyboard-response","65","183715","0.0-65.0","3E7TUJ2EGD8N956IANB6XAANXNRD9T","A2DLV3WN24WTDS","3A3KKYU7P33Z3BR9PPFZ5194ZCQMWU","","","img/flower5.png","75","2142.300000011921","2","1","2","",""
"null","","html-keyboard-response","66","184030","0.0-66.0","3E7TUJ2EGD8N956IANB6XAANXNRD9T","A2DLV3WN24WTDS","3A3KKYU7P33Z3BR9PPFZ5194ZCQMWU","","","<img src=""img/flower5.png"" style=""width:200px; border:14px solid green;"">","null","","","","","",""
"554.8999999761581","","image-keyboard-response","67","184586","0.0-67.0","3E7TUJ2EGD8N956IANB6XAANXNRD9T","A2DLV3WN24WTDS","3A3KKYU7P33Z3BR9PPFZ5194ZCQMWU","","","img/flower5.png","75","556","2","1","2","",""
"null","","html-keyboard-response","68","184897","0.0-68.0","3E7TUJ2EGD8N956IANB6XAANXNRD9T","A2DLV3WN24WTDS","3A3KKYU7P33Z3BR9PPFZ5194ZCQMWU","","","<img src=""img/flower5.png"" style=""width:200px; border:14px solid green;"">","null","","","","","",""
"725.1999999880791","","image-keyboard-response","69","185624","0.0-69.0","3E7TUJ2EGD8N956IANB6XAANXNRD9T","A2DLV3WN24WTDS","3A3KKYU7P33Z3BR9PPFZ5194ZCQMWU","","","img/flower6.png","76","726.2999999523163","3","1","3","",""
"null","","html-keyboard-response","70","185933","0.0-70.0","3E7TUJ2EGD8N956IANB6XAANXNRD9T","A2DLV3WN24WTDS","3A3KKYU7P33Z3BR9PPFZ5194ZCQMWU","","","<img src=""img/flower6.png"" style=""width:200px; border:14px solid green;"">","null","","","","","",""
"810.4000000357628","","image-keyboard-response","71","186745","0.0-71.0","3E7TUJ2EGD8N956IANB6XAANXNRD9T","A2DLV3WN24WTDS","3A3KKYU7P33Z3BR9PPFZ5194ZCQMWU","","","img/flower4.png","74","811.3999999761581","1","1","1","",""
"null","","html-keyboard-response","72","187057","0.0-72.0","3E7TUJ2EGD8N956IANB6XAANXNRD9T","A2DLV3WN24WTDS","3A3KKYU7P33Z3BR9PPFZ5194ZCQMWU","","","<img src=""img/flower4.png"" style=""width:200px; border:14px solid green;"">","null","","","","","",""
"641.8000000119209","","image-keyboard-response","73","187700","0.0-73.0","3E7TUJ2EGD8N956IANB6XAANXNRD9T","A2DLV3WN24WTDS","3A3KKYU7P33Z3BR9PPFZ5194ZCQMWU","","","img/flower6.png","76","643","3","1","3","",""
"null","","html-keyboard-response","74","188015","0.0-74.0","3E7TUJ2EGD8N956IANB6XAANXNRD9T","A2DLV3WN24WTDS","3A3KKYU7P33Z3BR9PPFZ5194ZCQMWU","","","<img src=""img/flower6.png"" style=""width:200px; border:14px solid green;"">","null","","","","","",""
"483.4000000357628","","image-keyboard-response","75","188500","0.0-75.0","3E7TUJ2EGD8N956IANB6XAANXNRD9T","A2DLV3WN24WTDS","3A3KKYU7P33Z3BR9PPFZ5194ZCQMWU","","","img/flower6.png","76","484.5999999642372","3","1","3","",""
"null","","html-keyboard-response","76","188815","0.0-76.0","3E7TUJ2EGD8N956IANB6XAANXNRD9T","A2DLV3WN24WTDS","3A3KKYU7P33Z3BR9PPFZ5194ZCQMWU","","","<img src=""img/flower6.png"" style=""width:200px; border:14px solid green;"">","null","","","","","",""
"623.8000000119209","","image-keyboard-response","77","189440","0.0-77.0","3E7TUJ2EGD8N956IANB6XAANXNRD9T","A2DLV3WN24WTDS","3A3KKYU7P33Z3BR9PPFZ5194ZCQMWU","","","img/flower5.png","75","624.9000000357628","2","0","2","",""
"null","","html-keyboard-response","78","189756","0.0-78.0","3E7TUJ2EGD8N956IANB6XAANXNRD9T","A2DLV3WN24WTDS","3A3KKYU7P33Z3BR9PPFZ5194ZCQMWU","","","<img src=""img/flower5.png"" style=""width:200px;border:14px solid red;"">","null","","","","","",""
"570.5999999642372","","image-keyboard-response","79","190328","0.0-79.0","3E7TUJ2EGD8N956IANB6XAANXNRD9T","A2DLV3WN24WTDS","3A3KKYU7P33Z3BR9PPFZ5194ZCQMWU","","","img/flower4.png","74","572.1999999880791","1","1","1","",""
"null","","html-keyboard-response","80","190639","0.0-80.0","3E7TUJ2EGD8N956IANB6XAANXNRD9T","A2DLV3WN24WTDS","3A3KKYU7P33Z3BR9PPFZ5194ZCQMWU","","","<img src=""img/flower4.png"" style=""width:200px; border:14px solid green;"">","null","","","","","",""
"646","","image-keyboard-response","81","191286","0.0-81.0","3E7TUJ2EGD8N956IANB6XAANXNRD9T","A2DLV3WN24WTDS","3A3KKYU7P33Z3BR9PPFZ5194ZCQMWU","","","img/flower5.png","75","647","2","1","2","",""
"null","","html-keyboard-response","82","191593","0.0-82.0","3E7TUJ2EGD8N956IANB6XAANXNRD9T","A2DLV3WN24WTDS","3A3KKYU7P33Z3BR9PPFZ5194ZCQMWU","","","<img src=""img/flower5.png"" style=""width:200px; border:14px solid green;"">","null","","","","","",""
"564","","image-keyboard-response","83","192158","0.0-83.0","3E7TUJ2EGD8N956IANB6XAANXNRD9T","A2DLV3WN24WTDS","3A3KKYU7P33Z3BR9PPFZ5194ZCQMWU","","","img/flower5.png","75","564.8000000119209","2","1","2","",""
"null","","html-keyboard-response","84","192467","0.0-84.0","3E7TUJ2EGD8N956IANB6XAANXNRD9T","A2DLV3WN24WTDS","3A3KKYU7P33Z3BR9PPFZ5194ZCQMWU","","","<img src=""img/flower5.png"" style=""width:200px; border:14px solid green;"">","null","","","","","",""
"819.3999999761581","","image-keyboard-response","85","193289","0.0-85.0","3E7TUJ2EGD8N956IANB6XAANXNRD9T","A2DLV3WN24WTDS","3A3KKYU7P33Z3BR9PPFZ5194ZCQMWU","","","img/flower5.png","75","820.6999999880791","2","1","2","",""
"null","","html-keyboard-response","86","193595","0.0-86.0","3E7TUJ2EGD8N956IANB6XAANXNRD9T","A2DLV3WN24WTDS","3A3KKYU7P33Z3BR9PPFZ5194ZCQMWU","","","<img src=""img/flower5.png"" style=""width:200px; border:14px solid green;"">","null","","","","","",""
"579.5","","image-keyboard-response","87","194176","0.0-87.0","3E7TUJ2EGD8N956IANB6XAANXNRD9T","A2DLV3WN24WTDS","3A3KKYU7P33Z3BR9PPFZ5194ZCQMWU","","","img/flower4.png","74","580.4000000357628","1","0","1","",""
"null","","html-keyboard-response","88","194491","0.0-88.0","3E7TUJ2EGD8N956IANB6XAANXNRD9T","A2DLV3WN24WTDS","3A3KKYU7P33Z3BR9PPFZ5194ZCQMWU","","","<img src=""img/flower4.png"" style=""width:200px;border:14px solid red;"">","null","","","","","",""
"410.60000002384186","","image-keyboard-response","89","194903","0.0-89.0","3E7TUJ2EGD8N956IANB6XAANXNRD9T","A2DLV3WN24WTDS","3A3KKYU7P33Z3BR9PPFZ5194ZCQMWU","","","img/flower4.png","74","411.30000001192093","1","1","1","",""
"null","","html-keyboard-response","90","195215","0.0-90.0","3E7TUJ2EGD8N956IANB6XAANXNRD9T","A2DLV3WN24WTDS","3A3KKYU7P33Z3BR9PPFZ5194ZCQMWU","","","<img src=""img/flower4.png"" style=""width:200px; border:14px solid green;"">","null","","","","","",""
"657.1999999880791","","image-keyboard-response","91","195874","0.0-91.0","3E7TUJ2EGD8N956IANB6XAANXNRD9T","A2DLV3WN24WTDS","3A3KKYU7P33Z3BR9PPFZ5194ZCQMWU","","","img/flower5.png","75","658.0999999642372","2","1","2","",""
"null","","html-keyboard-response","92","196188","0.0-92.0","3E7TUJ2EGD8N956IANB6XAANXNRD9T","A2DLV3WN24WTDS","3A3KKYU7P33Z3BR9PPFZ5194ZCQMWU","","","<img src=""img/flower5.png"" style=""width:200px; border:14px solid green;"">","null","","","","","",""
"588.3000000119209","","image-keyboard-response","93","196778","0.0-93.0","3E7TUJ2EGD8N956IANB6XAANXNRD9T","A2DLV3WN24WTDS","3A3KKYU7P33Z3BR9PPFZ5194ZCQMWU","","","img/flower4.png","74","589.5","1","1","1","",""
"null","","html-keyboard-response","94","197083","0.0-94.0","3E7TUJ2EGD8N956IANB6XAANXNRD9T","A2DLV3WN24WTDS","3A3KKYU7P33Z3BR9PPFZ5194ZCQMWU","","","<img src=""img/flower4.png"" style=""width:200px; border:14px solid green;"">","null","","","","","",""
"480.80000001192093","","image-keyboard-response","95","197565","0.0-95.0","3E7TUJ2EGD8N956IANB6XAANXNRD9T","A2DLV3WN24WTDS","3A3KKYU7P33Z3BR9PPFZ5194ZCQMWU","","","img/flower4.png","74","481.80000001192093","1","1","1","",""
"null","","html-keyboard-response","96","197870","0.0-96.0","3E7TUJ2EGD8N956IANB6XAANXNRD9T","A2DLV3WN24WTDS","3A3KKYU7P33Z3BR9PPFZ5194ZCQMWU","","","<img src=""img/flower4.png"" style=""width:200px; border:14px solid green;"">","null","","","","","",""
"509.30000001192093","","image-keyboard-response","97","198380","0.0-97.0","3E7TUJ2EGD8N956IANB6XAANXNRD9T","A2DLV3WN24WTDS","3A3KKYU7P33Z3BR9PPFZ5194ZCQMWU","","","img/flower4.png","74","510.4000000357628","1","1","1","",""
"null","","html-keyboard-response","98","198693","0.0-98.0","3E7TUJ2EGD8N956IANB6XAANXNRD9T","A2DLV3WN24WTDS","3A3KKYU7P33Z3BR9PPFZ5194ZCQMWU","","","<img src=""img/flower4.png"" style=""width:200px; border:14px solid green;"">","null","","","","","",""
"627","","image-keyboard-response","99","199321","0.0-99.0","3E7TUJ2EGD8N956IANB6XAANXNRD9T","A2DLV3WN24WTDS","3A3KKYU7P33Z3BR9PPFZ5194ZCQMWU","","","img/flower6.png","76","628.0999999642372","3","1","3","",""
"null","","html-keyboard-response","100","199634","0.0-100.0","3E7TUJ2EGD8N956IANB6XAANXNRD9T","A2DLV3WN24WTDS","3A3KKYU7P33Z3BR9PPFZ5194ZCQMWU","","","<img src=""img/flower6.png"" style=""width:200px; border:14px solid green;"">","null","","","","","",""
"640.5","","image-keyboard-response","101","200276","0.0-101.0","3E7TUJ2EGD8N956IANB6XAANXNRD9T","A2DLV3WN24WTDS","3A3KKYU7P33Z3BR9PPFZ5194ZCQMWU","","","img/flower5.png","75","641.5","2","0","2","",""
"null","","html-keyboard-response","102","200585","0.0-102.0","3E7TUJ2EGD8N956IANB6XAANXNRD9T","A2DLV3WN24WTDS","3A3KKYU7P33Z3BR9PPFZ5194ZCQMWU","","","<img src=""img/flower5.png"" style=""width:200px;border:14px solid red;"">","null","","","","","",""
"692.8999999761581","","image-keyboard-response","103","201280","0.0-103.0","3E7TUJ2EGD8N956IANB6XAANXNRD9T","A2DLV3WN24WTDS","3A3KKYU7P33Z3BR9PPFZ5194ZCQMWU","","","img/flower4.png","74","694.1999999880791","1","0","1","",""
"null","","html-keyboard-response","104","201586","0.0-104.0","3E7TUJ2EGD8N956IANB6XAANXNRD9T","A2DLV3WN24WTDS","3A3KKYU7P33Z3BR9PPFZ5194ZCQMWU","","","<img src=""img/flower4.png"" style=""width:200px;border:14px solid red;"">","null","","","","","",""
"621.1000000238419","","image-keyboard-response","105","202209","0.0-105.0","3E7TUJ2EGD8N956IANB6XAANXNRD9T","A2DLV3WN24WTDS","3A3KKYU7P33Z3BR9PPFZ5194ZCQMWU","","","img/flower5.png","75","622.1000000238419","2","1","2","",""
"null","","html-keyboard-response","106","202513","0.0-106.0","3E7TUJ2EGD8N956IANB6XAANXNRD9T","A2DLV3WN24WTDS","3A3KKYU7P33Z3BR9PPFZ5194ZCQMWU","","","<img src=""img/flower5.png"" style=""width:200px; border:14px solid green;"">","null","","","","","",""
"586.4000000357628","","image-keyboard-response","107","203101","0.0-107.0","3E7TUJ2EGD8N956IANB6XAANXNRD9T","A2DLV3WN24WTDS","3A3KKYU7P33Z3BR9PPFZ5194ZCQMWU","","","img/flower6.png","76","587.6000000238419","3","0","3","",""
"null","","html-keyboard-response","108","203412","0.0-108.0","3E7TUJ2EGD8N956IANB6XAANXNRD9T","A2DLV3WN24WTDS","3A3KKYU7P33Z3BR9PPFZ5194ZCQMWU","","","<img src=""img/flower6.png"" style=""width:200px;border:14px solid red;"">","null","","","","","",""
"579.1999999880791","","image-keyboard-response","109","203993","0.0-109.0","3E7TUJ2EGD8N956IANB6XAANXNRD9T","A2DLV3WN24WTDS","3A3KKYU7P33Z3BR9PPFZ5194ZCQMWU","","","img/flower6.png","76","580.5","3","0","3","",""
"null","","html-keyboard-response","110","204304","0.0-110.0","3E7TUJ2EGD8N956IANB6XAANXNRD9T","A2DLV3WN24WTDS","3A3KKYU7P33Z3BR9PPFZ5194ZCQMWU","","","<img src=""img/flower6.png"" style=""width:200px;border:14px solid red;"">","null","","","","","",""
"438.60000002384186","","image-keyboard-response","111","204744","0.0-111.0","3E7TUJ2EGD8N956IANB6XAANXNRD9T","A2DLV3WN24WTDS","3A3KKYU7P33Z3BR9PPFZ5194ZCQMWU","","","img/flower6.png","76","439.69999998807907","3","1","3","",""
"null","","html-keyboard-response","112","205046","0.0-112.0","3E7TUJ2EGD8N956IANB6XAANXNRD9T","A2DLV3WN24WTDS","3A3KKYU7P33Z3BR9PPFZ5194ZCQMWU","","","<img src=""img/flower6.png"" style=""width:200px; border:14px solid green;"">","null","","","","","",""
"1025.4000000357628","","image-keyboard-response","113","206073","0.0-113.0","3E7TUJ2EGD8N956IANB6XAANXNRD9T","A2DLV3WN24WTDS","3A3KKYU7P33Z3BR9PPFZ5194ZCQMWU","","","img/flower6.png","76","1026.300000011921","3","1","3","",""
"null","","html-keyboard-response","114","206387","0.0-114.0","3E7TUJ2EGD8N956IANB6XAANXNRD9T","A2DLV3WN24WTDS","3A3KKYU7P33Z3BR9PPFZ5194ZCQMWU","","","<img src=""img/flower6.png"" style=""width:200px; border:14px solid green;"">","null","","","","","",""
"515.1999999880791","","image-keyboard-response","115","206904","0.0-115.0","3E7TUJ2EGD8N956IANB6XAANXNRD9T","A2DLV3WN24WTDS","3A3KKYU7P33Z3BR9PPFZ5194ZCQMWU","","","img/flower6.png","76","516.1000000238419","3","1","3","",""
"null","","html-keyboard-response","116","207208","0.0-116.0","3E7TUJ2EGD8N956IANB6XAANXNRD9T","A2DLV3WN24WTDS","3A3KKYU7P33Z3BR9PPFZ5194ZCQMWU","","","<img src=""img/flower6.png"" style=""width:200px; border:14px solid green;"">","null","","","","","",""
"571.4000000357628","","image-keyboard-response","117","207780","0.0-117.0","3E7TUJ2EGD8N956IANB6XAANXNRD9T","A2DLV3WN24WTDS","3A3KKYU7P33Z3BR9PPFZ5194ZCQMWU","","","img/flower6.png","76","572.2999999523163","3","1","3","",""
"null","","html-keyboard-response","118","208084","0.0-118.0","3E7TUJ2EGD8N956IANB6XAANXNRD9T","A2DLV3WN24WTDS","3A3KKYU7P33Z3BR9PPFZ5194ZCQMWU","","","<img src=""img/flower6.png"" style=""width:200px; border:14px solid green;"">","null","","","","","",""
"638.3000000119209","","image-keyboard-response","119","208723","0.0-119.0","3E7TUJ2EGD8N956IANB6XAANXNRD9T","A2DLV3WN24WTDS","3A3KKYU7P33Z3BR9PPFZ5194ZCQMWU","","","img/flower4.png","75","639.2999999523163","2","1","1","",""
"null","","html-keyboard-response","120","209030","0.0-120.0","3E7TUJ2EGD8N956IANB6XAANXNRD9T","A2DLV3WN24WTDS","3A3KKYU7P33Z3BR9PPFZ5194ZCQMWU","","","<img src=""img/flower4.png"" style=""width:200px; border:14px solid green;"">","null","","","","","",""
"833.1999999880791","","image-keyboard-response","121","209865","0.0-121.0","3E7TUJ2EGD8N956IANB6XAANXNRD9T","A2DLV3WN24WTDS","3A3KKYU7P33Z3BR9PPFZ5194ZCQMWU","","","img/flower5.png","75","834.2999999523163","2","1","2","",""
"null","","html-keyboard-response","122","210171","0.0-122.0","3E7TUJ2EGD8N956IANB6XAANXNRD9T","A2DLV3WN24WTDS","3A3KKYU7P33Z3BR9PPFZ5194ZCQMWU","","","<img src=""img/flower5.png"" style=""width:200px; border:14px solid green;"">","null","","","","","",""
"486.0999999642372","","image-keyboard-response","123","210658","0.0-123.0","3E7TUJ2EGD8N956IANB6XAANXNRD9T","A2DLV3WN24WTDS","3A3KKYU7P33Z3BR9PPFZ5194ZCQMWU","","","img/flower4.png","74","487","1","0","1","",""
"null","","html-keyboard-response","124","210972","0.0-124.0","3E7TUJ2EGD8N956IANB6XAANXNRD9T","A2DLV3WN24WTDS","3A3KKYU7P33Z3BR9PPFZ5194ZCQMWU","","","<img src=""img/flower4.png"" style=""width:200px;border:14px solid red;"">","null","","","","","",""
"16700","","instructions","125","227673","0.0-125.0","3E7TUJ2EGD8N956IANB6XAANXNRD9T","A2DLV3WN24WTDS","3A3KKYU7P33Z3BR9PPFZ5194ZCQMWU","","[{""page_index"":0,""viewing_time"":16699.399999976158}]","","","","","","","",""
"4026.100000023842","","image-keyboard-response","126","231701","0.0-126.0","3E7TUJ2EGD8N956IANB6XAANXNRD9T","A2DLV3WN24WTDS","3A3KKYU7P33Z3BR9PPFZ5194ZCQMWU","","","img/flower3.png","74","4027.7000000476837","1","0","3","1,0.5,0.5,0.5,1,0.5,0.5,0.5,1",""
"null","","html-keyboard-response","127","232007","0.0-127.0","3E7TUJ2EGD8N956IANB6XAANXNRD9T","A2DLV3WN24WTDS","3A3KKYU7P33Z3BR9PPFZ5194ZCQMWU","","","<img src=""img/flower3.png"" style=""width:200px;border:14px solid red;"">","null","","","","","",""
"922.3000000119209","","image-keyboard-response","128","232930","0.0-128.0","3E7TUJ2EGD8N956IANB6XAANXNRD9T","A2DLV3WN24WTDS","3A3KKYU7P33Z3BR9PPFZ5194ZCQMWU","","","img/flower3.png","75","923.3000000119209","2","0","3","1,0.5,0.5,0.5,1,0.5,0.5,0.5,1",""
"null","","html-keyboard-response","129","233241","0.0-129.0","3E7TUJ2EGD8N956IANB6XAANXNRD9T","A2DLV3WN24WTDS","3A3KKYU7P33Z3BR9PPFZ5194ZCQMWU","","","<img src=""img/flower3.png"" style=""width:200px;border:14px solid red;"">","null","","","","","",""
"865.8000000119209","","image-keyboard-response","130","234108","0.0-130.0","3E7TUJ2EGD8N956IANB6XAANXNRD9T","A2DLV3WN24WTDS","3A3KKYU7P33Z3BR9PPFZ5194ZCQMWU","","","img/flower5.png","75","866.8000000119209","2","1","1","1,0.5,0.5,0.5,1,0.5,0.5,0.5,1",""
"null","","html-keyboard-response","131","234414","0.0-131.0","3E7TUJ2EGD8N956IANB6XAANXNRD9T","A2DLV3WN24WTDS","3A3KKYU7P33Z3BR9PPFZ5194ZCQMWU","","","<img src=""img/flower5.png"" style=""width:200px; border:14px solid green;"">","null","","","","","",""
"924.9000000357628","","image-keyboard-response","132","235340","0.0-132.0","3E7TUJ2EGD8N956IANB6XAANXNRD9T","A2DLV3WN24WTDS","3A3KKYU7P33Z3BR9PPFZ5194ZCQMWU","","","img/flower3.png","76","926.1999999880791","3","1","3","1,0.5,0.5,0.5,1,0.5,0.5,0.5,1",""
"null","","html-keyboard-response","133","235653","0.0-133.0","3E7TUJ2EGD8N956IANB6XAANXNRD9T","A2DLV3WN24WTDS","3A3KKYU7P33Z3BR9PPFZ5194ZCQMWU","","","<img src=""img/flower3.png"" style=""width:200px; border:14px solid green;"">","null","","","","","",""
"1140.8999999761581","","image-keyboard-response","134","236795","0.0-134.0","3E7TUJ2EGD8N956IANB6XAANXNRD9T","A2DLV3WN24WTDS","3A3KKYU7P33Z3BR9PPFZ5194ZCQMWU","","","img/flower3.png","76","1141.800000011921","3","1","3","1,0.5,0.5,0.5,1,0.5,0.5,0.5,1",""
"null","","html-keyboard-response","135","237105","0.0-135.0","3E7TUJ2EGD8N956IANB6XAANXNRD9T","A2DLV3WN24WTDS","3A3KKYU7P33Z3BR9PPFZ5194ZCQMWU","","","<img src=""img/flower3.png"" style=""width:200px; border:14px solid green;"">","null","","","","","",""
"621.6999999880791","","image-keyboard-response","136","237729","0.0-136.0","3E7TUJ2EGD8N956IANB6XAANXNRD9T","A2DLV3WN24WTDS","3A3KKYU7P33Z3BR9PPFZ5194ZCQMWU","","","img/flower5.png","75","623","2","1","1","1,0.5,0.5,0.5,1,0.5,0.5,0.5,1",""
"null","","html-keyboard-response","137","238032","0.0-137.0","3E7TUJ2EGD8N956IANB6XAANXNRD9T","A2DLV3WN24WTDS","3A3KKYU7P33Z3BR9PPFZ5194ZCQMWU","","","<img src=""img/flower5.png"" style=""width:200px; border:14px solid green;"">","null","","","","","",""
"501.39999997615814","","image-keyboard-response","138","238534","0.0-138.0","3E7TUJ2EGD8N956IANB6XAANXNRD9T","A2DLV3WN24WTDS","3A3KKYU7P33Z3BR9PPFZ5194ZCQMWU","","","img/flower5.png","75","502.30000001192093","2","0","1","1,0.5,0.5,0.5,1,0.5,0.5,0.5,1",""
"null","","html-keyboard-response","139","238847","0.0-139.0","3E7TUJ2EGD8N956IANB6XAANXNRD9T","A2DLV3WN24WTDS","3A3KKYU7P33Z3BR9PPFZ5194ZCQMWU","","","<img src=""img/flower5.png"" style=""width:200px;border:14px solid red;"">","null","","","","","",""
"502.2000000476837","","image-keyboard-response","140","239351","0.0-140.0","3E7TUJ2EGD8N956IANB6XAANXNRD9T","A2DLV3WN24WTDS","3A3KKYU7P33Z3BR9PPFZ5194ZCQMWU","","","img/flower3.png","76","503.0999999642372","3","1","3","1,0.5,0.5,0.5,1,0.5,0.5,0.5,1",""
"null","","html-keyboard-response","141","239656","0.0-141.0","3E7TUJ2EGD8N956IANB6XAANXNRD9T","A2DLV3WN24WTDS","3A3KKYU7P33Z3BR9PPFZ5194ZCQMWU","","","<img src=""img/flower3.png"" style=""width:200px; border:14px solid green;"">","null","","","","","",""
"534.8999999761581","","image-keyboard-response","142","240192","0.0-142.0","3E7TUJ2EGD8N956IANB6XAANXNRD9T","A2DLV3WN24WTDS","3A3KKYU7P33Z3BR9PPFZ5194ZCQMWU","","","img/flower5.png","75","536.1000000238419","2","1","1","1,0.5,0.5,0.5,1,0.5,0.5,0.5,1",""
"null","","html-keyboard-response","143","240506","0.0-143.0","3E7TUJ2EGD8N956IANB6XAANXNRD9T","A2DLV3WN24WTDS","3A3KKYU7P33Z3BR9PPFZ5194ZCQMWU","","","<img src=""img/flower5.png"" style=""width:200px; border:14px solid green;"">","null","","","","","",""
"496.7000000476837","","image-keyboard-response","144","241005","0.0-144.0","3E7TUJ2EGD8N956IANB6XAANXNRD9T","A2DLV3WN24WTDS","3A3KKYU7P33Z3BR9PPFZ5194ZCQMWU","","","img/flower3.png","76","497.60000002384186","3","1","3","1,0.5,0.5,0.5,1,0.5,0.5,0.5,1",""
"null","","html-keyboard-response","145","241310","0.0-145.0","3E7TUJ2EGD8N956IANB6XAANXNRD9T","A2DLV3WN24WTDS","3A3KKYU7P33Z3BR9PPFZ5194ZCQMWU","","","<img src=""img/flower3.png"" style=""width:200px; border:14px solid green;"">","null","","","","","",""
"410.80000001192093","","image-keyboard-response","146","241722","0.0-146.0","3E7TUJ2EGD8N956IANB6XAANXNRD9T","A2DLV3WN24WTDS","3A3KKYU7P33Z3BR9PPFZ5194ZCQMWU","","","img/flower3.png","76","412.0999999642372","3","1","3","1,0.5,0.5,0.5,1,0.5,0.5,0.5,1",""
"null","","html-keyboard-response","147","242033","0.0-147.0","3E7TUJ2EGD8N956IANB6XAANXNRD9T","A2DLV3WN24WTDS","3A3KKYU7P33Z3BR9PPFZ5194ZCQMWU","","","<img src=""img/flower3.png"" style=""width:200px; border:14px solid green;"">","null","","","","","",""
"518.0999999642372","","image-keyboard-response","148","242552","0.0-148.0","3E7TUJ2EGD8N956IANB6XAANXNRD9T","A2DLV3WN24WTDS","3A3KKYU7P33Z3BR9PPFZ5194ZCQMWU","","","img/flower5.png","75","519.2000000476837","2","0","1","1,0.5,0.5,0.5,1,0.5,0.5,0.5,1",""
"null","","html-keyboard-response","149","242870","0.0-149.0","3E7TUJ2EGD8N956IANB6XAANXNRD9T","A2DLV3WN24WTDS","3A3KKYU7P33Z3BR9PPFZ5194ZCQMWU","","","<img src=""img/flower5.png"" style=""width:200px;border:14px solid red;"">","null","","","","","",""
"627.5","","image-keyboard-response","150","243498","0.0-150.0","3E7TUJ2EGD8N956IANB6XAANXNRD9T","A2DLV3WN24WTDS","3A3KKYU7P33Z3BR9PPFZ5194ZCQMWU","","","img/flower5.png","75","628.4000000357628","2","0","1","1,0.5,0.5,0.5,1,0.5,0.5,0.5,1",""
"null","","html-keyboard-response","151","243810","0.0-151.0","3E7TUJ2EGD8N956IANB6XAANXNRD9T","A2DLV3WN24WTDS","3A3KKYU7P33Z3BR9PPFZ5194ZCQMWU","","","<img src=""img/flower5.png"" style=""width:200px;border:14px solid red;"">","null","","","","","",""
"517.3999999761581","","image-keyboard-response","152","244329","0.0-152.0","3E7TUJ2EGD8N956IANB6XAANXNRD9T","A2DLV3WN24WTDS","3A3KKYU7P33Z3BR9PPFZ5194ZCQMWU","","","img/flower3.png","76","518.5","3","1","3","1,0.5,0.5,0.5,1,0.5,0.5,0.5,1",""
"null","","html-keyboard-response","153","244631","0.0-153.0","3E7TUJ2EGD8N956IANB6XAANXNRD9T","A2DLV3WN24WTDS","3A3KKYU7P33Z3BR9PPFZ5194ZCQMWU","","","<img src=""img/flower3.png"" style=""width:200px; border:14px solid green;"">","null","","","","","",""
"572.3999999761581","","image-keyboard-response","154","245205","0.0-154.0","3E7TUJ2EGD8N956IANB6XAANXNRD9T","A2DLV3WN24WTDS","3A3KKYU7P33Z3BR9PPFZ5194ZCQMWU","","","img/flower5.png","75","573.2000000476837","2","1","1","1,0.5,0.5,0.5,1,0.5,0.5,0.5,1",""
"null","","html-keyboard-response","155","245516","0.0-155.0","3E7TUJ2EGD8N956IANB6XAANXNRD9T","A2DLV3WN24WTDS","3A3KKYU7P33Z3BR9PPFZ5194ZCQMWU","","","<img src=""img/flower5.png"" style=""width:200px; border:14px solid green;"">","null","","","","","",""
"461.60000002384186","","image-keyboard-response","156","245978","0.0-156.0","3E7TUJ2EGD8N956IANB6XAANXNRD9T","A2DLV3WN24WTDS","3A3KKYU7P33Z3BR9PPFZ5194ZCQMWU","","","img/flower5.png","75","462.30000001192093","2","0","1","1,0.5,0.5,0.5,1,0.5,0.5,0.5,1",""
"null","","html-keyboard-response","157","246293","0.0-157.0","3E7TUJ2EGD8N956IANB6XAANXNRD9T","A2DLV3WN24WTDS","3A3KKYU7P33Z3BR9PPFZ5194ZCQMWU","","","<img src=""img/flower5.png"" style=""width:200px;border:14px solid red;"">","null","","","","","",""
"856","","image-keyboard-response","158","247150","0.0-158.0","3E7TUJ2EGD8N956IANB6XAANXNRD9T","A2DLV3WN24WTDS","3A3KKYU7P33Z3BR9PPFZ5194ZCQMWU","","","img/flower1.png","74","856.8000000119209","1","0","2","1,0.5,0.5,0.5,1,0.5,0.5,0.5,1",""
"null","","html-keyboard-response","159","247453","0.0-159.0","3E7TUJ2EGD8N956IANB6XAANXNRD9T","A2DLV3WN24WTDS","3A3KKYU7P33Z3BR9PPFZ5194ZCQMWU","","","<img src=""img/flower1.png"" style=""width:200px;border:14px solid red;"">","null","","","","","",""
"407","","image-keyboard-response","160","247862","0.0-160.0","3E7TUJ2EGD8N956IANB6XAANXNRD9T","A2DLV3WN24WTDS","3A3KKYU7P33Z3BR9PPFZ5194ZCQMWU","","","img/flower1.png","74","408.19999998807907","1","1","2","1,0.5,0.5,0.5,1,0.5,0.5,0.5,1",""
"null","","html-keyboard-response","161","248166","0.0-161.0","3E7TUJ2EGD8N956IANB6XAANXNRD9T","A2DLV3WN24WTDS","3A3KKYU7P33Z3BR9PPFZ5194ZCQMWU","","","<img src=""img/flower1.png"" style=""width:200px; border:14px solid green;"">","null","","","","","",""
"684.1999999880791","","image-keyboard-response","162","248852","0.0-162.0","3E7TUJ2EGD8N956IANB6XAANXNRD9T","A2DLV3WN24WTDS","3A3KKYU7P33Z3BR9PPFZ5194ZCQMWU","","","img/flower3.png","76","685.4000000357628","3","1","3","1,0.5,0.5,0.5,1,0.5,0.5,0.5,1",""
"null","","html-keyboard-response","163","249168","0.0-163.0","3E7TUJ2EGD8N956IANB6XAANXNRD9T","A2DLV3WN24WTDS","3A3KKYU7P33Z3BR9PPFZ5194ZCQMWU","","","<img src=""img/flower3.png"" style=""width:200px; border:14px solid green;"">","null","","","","","",""
"699.0999999642372","","image-keyboard-response","164","249869","0.0-164.0","3E7TUJ2EGD8N956IANB6XAANXNRD9T","A2DLV3WN24WTDS","3A3KKYU7P33Z3BR9PPFZ5194ZCQMWU","","","img/flower1.png","74","699.9000000357628","1","1","2","1,0.5,0.5,0.5,1,0.5,0.5,0.5,1",""
"null","","html-keyboard-response","165","250172","0.0-165.0","3E7TUJ2EGD8N956IANB6XAANXNRD9T","A2DLV3WN24WTDS","3A3KKYU7P33Z3BR9PPFZ5194ZCQMWU","","","<img src=""img/flower1.png"" style=""width:200px; border:14px solid green;"">","null","","","","","",""
"631.1999999880791","","image-keyboard-response","166","250805","0.0-166.0","3E7TUJ2EGD8N956IANB6XAANXNRD9T","A2DLV3WN24WTDS","3A3KKYU7P33Z3BR9PPFZ5194ZCQMWU","","","img/flower1.png","74","632.3000000119209","1","0","2","1,0.5,0.5,0.5,1,0.5,0.5,0.5,1",""
"null","","html-keyboard-response","167","251120","0.0-167.0","3E7TUJ2EGD8N956IANB6XAANXNRD9T","A2DLV3WN24WTDS","3A3KKYU7P33Z3BR9PPFZ5194ZCQMWU","","","<img src=""img/flower1.png"" style=""width:200px;border:14px solid red;"">","null","","","","","",""
"1341","","image-keyboard-response","168","252462","0.0-168.0","3E7TUJ2EGD8N956IANB6XAANXNRD9T","A2DLV3WN24WTDS","3A3KKYU7P33Z3BR9PPFZ5194ZCQMWU","","","img/flower1.png","75","1342","2","1","2","1,0.5,0.5,0.5,1,0.5,0.5,0.5,1",""
"null","","html-keyboard-response","169","252777","0.0-169.0","3E7TUJ2EGD8N956IANB6XAANXNRD9T","A2DLV3WN24WTDS","3A3KKYU7P33Z3BR9PPFZ5194ZCQMWU","","","<img src=""img/flower1.png"" style=""width:200px; border:14px solid green;"">","null","","","","","",""
"789","","image-keyboard-response","170","253568","0.0-170.0","3E7TUJ2EGD8N956IANB6XAANXNRD9T","A2DLV3WN24WTDS","3A3KKYU7P33Z3BR9PPFZ5194ZCQMWU","","","img/flower3.png","76","790.1000000238419","3","1","3","1,0.5,0.5,0.5,1,0.5,0.5,0.5,1",""
"null","","html-keyboard-response","171","253875","0.0-171.0","3E7TUJ2EGD8N956IANB6XAANXNRD9T","A2DLV3WN24WTDS","3A3KKYU7P33Z3BR9PPFZ5194ZCQMWU","","","<img src=""img/flower3.png"" style=""width:200px; border:14px solid green;"">","null","","","","","",""
"680.1999999880791","","image-keyboard-response","172","254557","0.0-172.0","3E7TUJ2EGD8N956IANB6XAANXNRD9T","A2DLV3WN24WTDS","3A3KKYU7P33Z3BR9PPFZ5194ZCQMWU","","","img/flower5.png","75","681.1000000238419","2","1","1","1,0.5,0.5,0.5,1,0.5,0.5,0.5,1",""
"null","","html-keyboard-response","173","254867","0.0-173.0","3E7TUJ2EGD8N956IANB6XAANXNRD9T","A2DLV3WN24WTDS","3A3KKYU7P33Z3BR9PPFZ5194ZCQMWU","","","<img src=""img/flower5.png"" style=""width:200px; border:14px solid green;"">","null","","","","","",""
"1033.699999988079","","image-keyboard-response","174","255902","0.0-174.0","3E7TUJ2EGD8N956IANB6XAANXNRD9T","A2DLV3WN24WTDS","3A3KKYU7P33Z3BR9PPFZ5194ZCQMWU","","","img/flower1.png","74","1034.699999988079","1","1","2","1,0.5,0.5,0.5,1,0.5,0.5,0.5,1",""
"null","","html-keyboard-response","175","256212","0.0-175.0","3E7TUJ2EGD8N956IANB6XAANXNRD9T","A2DLV3WN24WTDS","3A3KKYU7P33Z3BR9PPFZ5194ZCQMWU","","","<img src=""img/flower1.png"" style=""width:200px; border:14px solid green;"">","null","","","","","",""
"387.2000000476837","","image-keyboard-response","176","256601","0.0-176.0","3E7TUJ2EGD8N956IANB6XAANXNRD9T","A2DLV3WN24WTDS","3A3KKYU7P33Z3BR9PPFZ5194ZCQMWU","","","img/flower1.png","74","388.19999998807907","1","1","2","1,0.5,0.5,0.5,1,0.5,0.5,0.5,1",""
"null","","html-keyboard-response","177","256907","0.0-177.0","3E7TUJ2EGD8N956IANB6XAANXNRD9T","A2DLV3WN24WTDS","3A3KKYU7P33Z3BR9PPFZ5194ZCQMWU","","","<img src=""img/flower1.png"" style=""width:200px; border:14px solid green;"">","null","","","","","",""
"656.9000000357628","","image-keyboard-response","178","257566","0.0-178.0","3E7TUJ2EGD8N956IANB6XAANXNRD9T","A2DLV3WN24WTDS","3A3KKYU7P33Z3BR9PPFZ5194ZCQMWU","","","img/flower5.png","75","657.9000000357628","2","1","1","1,0.5,0.5,0.5,1,0.5,0.5,0.5,1",""
"null","","html-keyboard-response","179","257882","0.0-179.0","3E7TUJ2EGD8N956IANB6XAANXNRD9T","A2DLV3WN24WTDS","3A3KKYU7P33Z3BR9PPFZ5194ZCQMWU","","","<img src=""img/flower5.png"" style=""width:200px; border:14px solid green;"">","null","","","","","",""
"368.30000001192093","","image-keyboard-response","180","258252","0.0-180.0","3E7TUJ2EGD8N956IANB6XAANXNRD9T","A2DLV3WN24WTDS","3A3KKYU7P33Z3BR9PPFZ5194ZCQMWU","","","img/flower5.png","75","369.69999998807907","2","0","1","1,0.5,0.5,0.5,1,0.5,0.5,0.5,1",""
"null","","html-keyboard-response","181","258558","0.0-181.0","3E7TUJ2EGD8N956IANB6XAANXNRD9T","A2DLV3WN24WTDS","3A3KKYU7P33Z3BR9PPFZ5194ZCQMWU","","","<img src=""img/flower5.png"" style=""width:200px;border:14px solid red;"">","null","","","","","",""
"584.7000000476837","","image-keyboard-response","182","259145","0.0-182.0","3E7TUJ2EGD8N956IANB6XAANXNRD9T","A2DLV3WN24WTDS","3A3KKYU7P33Z3BR9PPFZ5194ZCQMWU","","","img/flower3.png","76","585.5999999642372","3","1","3","1,0.5,0.5,0.5,1,0.5,0.5,0.5,1",""
"null","","html-keyboard-response","183","259453","0.0-183.0","3E7TUJ2EGD8N956IANB6XAANXNRD9T","A2DLV3WN24WTDS","3A3KKYU7P33Z3BR9PPFZ5194ZCQMWU","","","<img src=""img/flower3.png"" style=""width:200px; border:14px solid green;"">","null","","","","","",""
"518.6000000238419","","image-keyboard-response","184","259973","0.0-184.0","3E7TUJ2EGD8N956IANB6XAANXNRD9T","A2DLV3WN24WTDS","3A3KKYU7P33Z3BR9PPFZ5194ZCQMWU","","","img/flower3.png","76","519.8000000119209","3","1","3","1,0.5,0.5,0.5,1,0.5,0.5,0.5,1",""
"null","","html-keyboard-response","185","260290","0.0-185.0","3E7TUJ2EGD8N956IANB6XAANXNRD9T","A2DLV3WN24WTDS","3A3KKYU7P33Z3BR9PPFZ5194ZCQMWU","","","<img src=""img/flower3.png"" style=""width:200px; border:14px solid green;"">","null","","","","","",""
"681.1999999880791","","image-keyboard-response","186","260972","0.0-186.0","3E7TUJ2EGD8N956IANB6XAANXNRD9T","A2DLV3WN24WTDS","3A3KKYU7P33Z3BR9PPFZ5194ZCQMWU","","","img/flower5.png","75","682.0999999642372","2","0","1","1,0.5,0.5,0.5,1,0.5,0.5,0.5,1",""
"null","","html-keyboard-response","187","261278","0.0-187.0","3E7TUJ2EGD8N956IANB6XAANXNRD9T","A2DLV3WN24WTDS","3A3KKYU7P33Z3BR9PPFZ5194ZCQMWU","","","<img src=""img/flower5.png"" style=""width:200px;border:14px solid red;"">","null","","","","","",""
"678.0999999642372","","image-keyboard-response","188","261957","0.0-188.0","3E7TUJ2EGD8N956IANB6XAANXNRD9T","A2DLV3WN24WTDS","3A3KKYU7P33Z3BR9PPFZ5194ZCQMWU","","","img/flower1.png","74","679.1000000238419","1","0","2","1,0.5,0.5,0.5,1,0.5,0.5,0.5,1",""
"null","","html-keyboard-response","189","262261","0.0-189.0","3E7TUJ2EGD8N956IANB6XAANXNRD9T","A2DLV3WN24WTDS","3A3KKYU7P33Z3BR9PPFZ5194ZCQMWU","","","<img src=""img/flower1.png"" style=""width:200px;border:14px solid red;"">","null","","","","","",""
"637.1999999880791","","image-keyboard-response","190","262900","0.0-190.0","3E7TUJ2EGD8N956IANB6XAANXNRD9T","A2DLV3WN24WTDS","3A3KKYU7P33Z3BR9PPFZ5194ZCQMWU","","","img/flower3.png","76","638.6999999880791","3","1","3","1,0.5,0.5,0.5,1,0.5,0.5,0.5,1",""
"null","","html-keyboard-response","191","263205","0.0-191.0","3E7TUJ2EGD8N956IANB6XAANXNRD9T","A2DLV3WN24WTDS","3A3KKYU7P33Z3BR9PPFZ5194ZCQMWU","","","<img src=""img/flower3.png"" style=""width:200px; border:14px solid green;"">","null","","","","","",""
"430.4000000357628","","image-keyboard-response","192","263637","0.0-192.0","3E7TUJ2EGD8N956IANB6XAANXNRD9T","A2DLV3WN24WTDS","3A3KKYU7P33Z3BR9PPFZ5194ZCQMWU","","","img/flower3.png","76","431.39999997615814","3","1","3","1,0.5,0.5,0.5,1,0.5,0.5,0.5,1",""
"null","","html-keyboard-response","193","263947","0.0-193.0","3E7TUJ2EGD8N956IANB6XAANXNRD9T","A2DLV3WN24WTDS","3A3KKYU7P33Z3BR9PPFZ5194ZCQMWU","","","<img src=""img/flower3.png"" style=""width:200px; border:14px solid green;"">","null","","","","","",""
"586.8000000119209","","image-keyboard-response","194","264536","0.0-194.0","3E7TUJ2EGD8N956IANB6XAANXNRD9T","A2DLV3WN24WTDS","3A3KKYU7P33Z3BR9PPFZ5194ZCQMWU","","","img/flower5.png","75","587.8999999761581","2","1","1","1,0.5,0.5,0.5,1,0.5,0.5,0.5,1",""
"null","","html-keyboard-response","195","264844","0.0-195.0","3E7TUJ2EGD8N956IANB6XAANXNRD9T","A2DLV3WN24WTDS","3A3KKYU7P33Z3BR9PPFZ5194ZCQMWU","","","<img src=""img/flower5.png"" style=""width:200px; border:14px solid green;"">","null","","","","","",""
"485","","image-keyboard-response","196","265331","0.0-196.0","3E7TUJ2EGD8N956IANB6XAANXNRD9T","A2DLV3WN24WTDS","3A3KKYU7P33Z3BR9PPFZ5194ZCQMWU","","","img/flower1.png","76","486.7000000476837","3","1","2","1,0.5,0.5,0.5,1,0.5,0.5,0.5,1",""
"null","","html-keyboard-response","197","265633","0.0-197.0","3E7TUJ2EGD8N956IANB6XAANXNRD9T","A2DLV3WN24WTDS","3A3KKYU7P33Z3BR9PPFZ5194ZCQMWU","","","<img src=""img/flower1.png"" style=""width:200px; border:14px solid green;"">","null","","","","","",""
"795.5","","image-keyboard-response","198","266430","0.0-198.0","3E7TUJ2EGD8N956IANB6XAANXNRD9T","A2DLV3WN24WTDS","3A3KKYU7P33Z3BR9PPFZ5194ZCQMWU","","","img/flower5.png","75","796.6000000238419","2","1","1","1,0.5,0.5,0.5,1,0.5,0.5,0.5,1",""
"null","","html-keyboard-response","199","266745","0.0-199.0","3E7TUJ2EGD8N956IANB6XAANXNRD9T","A2DLV3WN24WTDS","3A3KKYU7P33Z3BR9PPFZ5194ZCQMWU","","","<img src=""img/flower5.png"" style=""width:200px; border:14px solid green;"">","null","","","","","",""
"520.1000000238419","","image-keyboard-response","200","267267","0.0-200.0","3E7TUJ2EGD8N956IANB6XAANXNRD9T","A2DLV3WN24WTDS","3A3KKYU7P33Z3BR9PPFZ5194ZCQMWU","","","img/flower5.png","75","521","2","0","1","1,0.5,0.5,0.5,1,0.5,0.5,0.5,1",""
"null","","html-keyboard-response","201","267579","0.0-201.0","3E7TUJ2EGD8N956IANB6XAANXNRD9T","A2DLV3WN24WTDS","3A3KKYU7P33Z3BR9PPFZ5194ZCQMWU","","","<img src=""img/flower5.png"" style=""width:200px;border:14px solid red;"">","null","","","","","",""
"910","","image-keyboard-response","202","268491","0.0-202.0","3E7TUJ2EGD8N956IANB6XAANXNRD9T","A2DLV3WN24WTDS","3A3KKYU7P33Z3BR9PPFZ5194ZCQMWU","","","img/flower1.png","76","911","3","1","2","1,0.5,0.5,0.5,1,0.5,0.5,0.5,1",""
"null","","html-keyboard-response","203","268795","0.0-203.0","3E7TUJ2EGD8N956IANB6XAANXNRD9T","A2DLV3WN24WTDS","3A3KKYU7P33Z3BR9PPFZ5194ZCQMWU","","","<img src=""img/flower1.png"" style=""width:200px; border:14px solid green;"">","null","","","","","",""
"1003.9000000357628","","image-keyboard-response","204","269801","0.0-204.0","3E7TUJ2EGD8N956IANB6XAANXNRD9T","A2DLV3WN24WTDS","3A3KKYU7P33Z3BR9PPFZ5194ZCQMWU","","","img/flower1.png","74","1004.8000000119209","1","0","2","1,0.5,0.5,0.5,1,0.5,0.5,0.5,1",""
"null","","html-keyboard-response","205","270105","0.0-205.0","3E7TUJ2EGD8N956IANB6XAANXNRD9T","A2DLV3WN24WTDS","3A3KKYU7P33Z3BR9PPFZ5194ZCQMWU","","","<img src=""img/flower1.png"" style=""width:200px;border:14px solid red;"">","null","","","","","",""
"633.8999999761581","","image-keyboard-response","206","270740","0.0-206.0","3E7TUJ2EGD8N956IANB6XAANXNRD9T","A2DLV3WN24WTDS","3A3KKYU7P33Z3BR9PPFZ5194ZCQMWU","","","img/flower5.png","75","634.9000000357628","2","0","1","1,0.5,0.5,0.5,1,0.5,0.5,0.5,1",""
"null","","html-keyboard-response","207","271048","0.0-207.0","3E7TUJ2EGD8N956IANB6XAANXNRD9T","A2DLV3WN24WTDS","3A3KKYU7P33Z3BR9PPFZ5194ZCQMWU","","","<img src=""img/flower5.png"" style=""width:200px;border:14px solid red;"">","null","","","","","",""
"400.19999998807907","","image-keyboard-response","208","271450","0.0-208.0","3E7TUJ2EGD8N956IANB6XAANXNRD9T","A2DLV3WN24WTDS","3A3KKYU7P33Z3BR9PPFZ5194ZCQMWU","","","img/flower5.png","75","401.30000001192093","2","1","1","1,0.5,0.5,0.5,1,0.5,0.5,0.5,1",""
"null","","html-keyboard-response","209","271761","0.0-209.0","3E7TUJ2EGD8N956IANB6XAANXNRD9T","A2DLV3WN24WTDS","3A3KKYU7P33Z3BR9PPFZ5194ZCQMWU","","","<img src=""img/flower5.png"" style=""width:200px; border:14px solid green;"">","null","","","","","",""
"548.5","","image-keyboard-response","210","272311","0.0-210.0","3E7TUJ2EGD8N956IANB6XAANXNRD9T","A2DLV3WN24WTDS","3A3KKYU7P33Z3BR9PPFZ5194ZCQMWU","","","img/flower5.png","75","549.5","2","1","1","1,0.5,0.5,0.5,1,0.5,0.5,0.5,1",""
"null","","html-keyboard-response","211","272613","0.0-211.0","3E7TUJ2EGD8N956IANB6XAANXNRD9T","A2DLV3WN24WTDS","3A3KKYU7P33Z3BR9PPFZ5194ZCQMWU","","","<img src=""img/flower5.png"" style=""width:200px; border:14px solid green;"">","null","","","","","",""
"771.1999999880791","","image-keyboard-response","212","273386","0.0-212.0","3E7TUJ2EGD8N956IANB6XAANXNRD9T","A2DLV3WN24WTDS","3A3KKYU7P33Z3BR9PPFZ5194ZCQMWU","","","img/flower1.png","76","772.3000000119209","3","1","2","1,0.5,0.5,0.5,1,0.5,0.5,0.5,1",""
"null","","html-keyboard-response","213","273691","0.0-213.0","3E7TUJ2EGD8N956IANB6XAANXNRD9T","A2DLV3WN24WTDS","3A3KKYU7P33Z3BR9PPFZ5194ZCQMWU","","","<img src=""img/flower1.png"" style=""width:200px; border:14px solid green;"">","null","","","","","",""
"796.7000000476837","","image-keyboard-response","214","274489","0.0-214.0","3E7TUJ2EGD8N956IANB6XAANXNRD9T","A2DLV3WN24WTDS","3A3KKYU7P33Z3BR9PPFZ5194ZCQMWU","","","img/flower3.png","76","797.6999999880791","3","1","3","1,0.5,0.5,0.5,1,0.5,0.5,0.5,1",""
"null","","html-keyboard-response","215","274800","0.0-215.0","3E7TUJ2EGD8N956IANB6XAANXNRD9T","A2DLV3WN24WTDS","3A3KKYU7P33Z3BR9PPFZ5194ZCQMWU","","","<img src=""img/flower3.png"" style=""width:200px; border:14px solid green;"">","null","","","","","",""
"860.3999999761581","","image-keyboard-response","216","275662","0.0-216.0","3E7TUJ2EGD8N956IANB6XAANXNRD9T","A2DLV3WN24WTDS","3A3KKYU7P33Z3BR9PPFZ5194ZCQMWU","","","img/flower5.png","75","861.6000000238419","2","1","1","1,0.5,0.5,0.5,1,0.5,0.5,0.5,1",""
"null","","html-keyboard-response","217","275976","0.0-217.0","3E7TUJ2EGD8N956IANB6XAANXNRD9T","A2DLV3WN24WTDS","3A3KKYU7P33Z3BR9PPFZ5194ZCQMWU","","","<img src=""img/flower5.png"" style=""width:200px; border:14px solid green;"">","null","","","","","",""
"602.1999999880791","","image-keyboard-response","218","276580","0.0-218.0","3E7TUJ2EGD8N956IANB6XAANXNRD9T","A2DLV3WN24WTDS","3A3KKYU7P33Z3BR9PPFZ5194ZCQMWU","","","img/flower3.png","76","603.5","3","1","3","1,0.5,0.5,0.5,1,0.5,0.5,0.5,1",""
"null","","html-keyboard-response","219","276885","0.0-219.0","3E7TUJ2EGD8N956IANB6XAANXNRD9T","A2DLV3WN24WTDS","3A3KKYU7P33Z3BR9PPFZ5194ZCQMWU","","","<img src=""img/flower3.png"" style=""width:200px; border:14px solid green;"">","null","","","","","",""
"462.7999999523163","","image-keyboard-response","220","277350","0.0-220.0","3E7TUJ2EGD8N956IANB6XAANXNRD9T","A2DLV3WN24WTDS","3A3KKYU7P33Z3BR9PPFZ5194ZCQMWU","","","img/flower3.png","76","464.0999999642372","3","1","3","1,0.5,0.5,0.5,1,0.5,0.5,0.5,1",""
"null","","html-keyboard-response","221","277660","0.0-221.0","3E7TUJ2EGD8N956IANB6XAANXNRD9T","A2DLV3WN24WTDS","3A3KKYU7P33Z3BR9PPFZ5194ZCQMWU","","","<img src=""img/flower3.png"" style=""width:200px; border:14px solid green;"">","null","","","","","",""
"783.6999999880791","","image-keyboard-response","222","278445","0.0-222.0","3E7TUJ2EGD8N956IANB6XAANXNRD9T","A2DLV3WN24WTDS","3A3KKYU7P33Z3BR9PPFZ5194ZCQMWU","","","img/flower3.png","76","784.6000000238419","3","1","3","1,0.5,0.5,0.5,1,0.5,0.5,0.5,1",""
"null","","html-keyboard-response","223","278756","0.0-223.0","3E7TUJ2EGD8N956IANB6XAANXNRD9T","A2DLV3WN24WTDS","3A3KKYU7P33Z3BR9PPFZ5194ZCQMWU","","","<img src=""img/flower3.png"" style=""width:200px; border:14px solid green;"">","null","","","","","",""
"680","","image-keyboard-response","224","279438","0.0-224.0","3E7TUJ2EGD8N956IANB6XAANXNRD9T","A2DLV3WN24WTDS","3A3KKYU7P33Z3BR9PPFZ5194ZCQMWU","","","img/flower5.png","75","681.6000000238419","2","0","1","1,0.5,0.5,0.5,1,0.5,0.5,0.5,1",""
"null","","html-keyboard-response","225","279747","0.0-225.0","3E7TUJ2EGD8N956IANB6XAANXNRD9T","A2DLV3WN24WTDS","3A3KKYU7P33Z3BR9PPFZ5194ZCQMWU","","","<img src=""img/flower5.png"" style=""width:200px;border:14px solid red;"">","null","","","","","",""
"1047.0999999642372","","image-keyboard-response","226","280796","0.0-226.0","3E7TUJ2EGD8N956IANB6XAANXNRD9T","A2DLV3WN24WTDS","3A3KKYU7P33Z3BR9PPFZ5194ZCQMWU","","","img/flower1.png","76","1048.199999988079","3","0","2","1,0.5,0.5,0.5,1,0.5,0.5,0.5,1",""
"null","","html-keyboard-response","227","281107","0.0-227.0","3E7TUJ2EGD8N956IANB6XAANXNRD9T","A2DLV3WN24WTDS","3A3KKYU7P33Z3BR9PPFZ5194ZCQMWU","","","<img src=""img/flower1.png"" style=""width:200px;border:14px solid red;"">","null","","","","","",""
"515.0999999642372","","image-keyboard-response","228","281624","0.0-228.0","3E7TUJ2EGD8N956IANB6XAANXNRD9T","A2DLV3WN24WTDS","3A3KKYU7P33Z3BR9PPFZ5194ZCQMWU","","","img/flower3.png","74","516.1000000238419","1","0","3","1,0.5,0.5,0.5,1,0.5,0.5,0.5,1",""
"null","","html-keyboard-response","229","281936","0.0-229.0","3E7TUJ2EGD8N956IANB6XAANXNRD9T","A2DLV3WN24WTDS","3A3KKYU7P33Z3BR9PPFZ5194ZCQMWU","","","<img src=""img/flower3.png"" style=""width:200px;border:14px solid red;"">","null","","","","","",""
"410.69999998807907","","image-keyboard-response","230","282348","0.0-230.0","3E7TUJ2EGD8N956IANB6XAANXNRD9T","A2DLV3WN24WTDS","3A3KKYU7P33Z3BR9PPFZ5194ZCQMWU","","","img/flower1.png","76","411.69999998807907","3","1","2","1,0.5,0.5,0.5,1,0.5,0.5,0.5,1",""
"null","","html-keyboard-response","231","282663","0.0-231.0","3E7TUJ2EGD8N956IANB6XAANXNRD9T","A2DLV3WN24WTDS","3A3KKYU7P33Z3BR9PPFZ5194ZCQMWU","","","<img src=""img/flower1.png"" style=""width:200px; border:14px solid green;"">","null","","","","","",""
"745.4000000357628","","image-keyboard-response","232","283410","0.0-232.0","3E7TUJ2EGD8N956IANB6XAANXNRD9T","A2DLV3WN24WTDS","3A3KKYU7P33Z3BR9PPFZ5194ZCQMWU","","","img/flower5.png","75","747.4000000357628","2","1","1","1,0.5,0.5,0.5,1,0.5,0.5,0.5,1",""
"null","","html-keyboard-response","233","283715","0.0-233.0","3E7TUJ2EGD8N956IANB6XAANXNRD9T","A2DLV3WN24WTDS","3A3KKYU7P33Z3BR9PPFZ5194ZCQMWU","","","<img src=""img/flower5.png"" style=""width:200px; border:14px solid green;"">","null","","","","","",""
"782.1000000238419","","image-keyboard-response","234","284498","0.0-234.0","3E7TUJ2EGD8N956IANB6XAANXNRD9T","A2DLV3WN24WTDS","3A3KKYU7P33Z3BR9PPFZ5194ZCQMWU","","","img/flower5.png","75","783.1000000238419","2","0","1","1,0.5,0.5,0.5,1,0.5,0.5,0.5,1",""
"null","","html-keyboard-response","235","284814","0.0-235.0","3E7TUJ2EGD8N956IANB6XAANXNRD9T","A2DLV3WN24WTDS","3A3KKYU7P33Z3BR9PPFZ5194ZCQMWU","","","<img src=""img/flower5.png"" style=""width:200px;border:14px solid red;"">","null","","","","","",""
"926.1999999880791","","image-keyboard-response","236","285742","0.0-236.0","3E7TUJ2EGD8N956IANB6XAANXNRD9T","A2DLV3WN24WTDS","3A3KKYU7P33Z3BR9PPFZ5194ZCQMWU","","","img/flower1.png","74","927.0999999642372","1","1","2","1,0.5,0.5,0.5,1,0.5,0.5,0.5,1",""
"null","","html-keyboard-response","237","286057","0.0-237.0","3E7TUJ2EGD8N956IANB6XAANXNRD9T","A2DLV3WN24WTDS","3A3KKYU7P33Z3BR9PPFZ5194ZCQMWU","","","<img src=""img/flower1.png"" style=""width:200px; border:14px solid green;"">","null","","","","","",""
"498.9000000357628","","image-keyboard-response","238","286557","0.0-238.0","3E7TUJ2EGD8N956IANB6XAANXNRD9T","A2DLV3WN24WTDS","3A3KKYU7P33Z3BR9PPFZ5194ZCQMWU","","","img/flower3.png","76","499.80000001192093","3","1","3","1,0.5,0.5,0.5,1,0.5,0.5,0.5,1",""
"null","","html-keyboard-response","239","286867","0.0-239.0","3E7TUJ2EGD8N956IANB6XAANXNRD9T","A2DLV3WN24WTDS","3A3KKYU7P33Z3BR9PPFZ5194ZCQMWU","","","<img src=""img/flower3.png"" style=""width:200px; border:14px solid green;"">","null","","","","","",""
"714.5","","image-keyboard-response","240","287583","0.0-240.0","3E7TUJ2EGD8N956IANB6XAANXNRD9T","A2DLV3WN24WTDS","3A3KKYU7P33Z3BR9PPFZ5194ZCQMWU","","","img/flower3.png","76","715.1000000238419","3","1","3","1,0.5,0.5,0.5,1,0.5,0.5,0.5,1",""
"null","","html-keyboard-response","241","287899","0.0-241.0","3E7TUJ2EGD8N956IANB6XAANXNRD9T","A2DLV3WN24WTDS","3A3KKYU7P33Z3BR9PPFZ5194ZCQMWU","","","<img src=""img/flower3.png"" style=""width:200px; border:14px solid green;"">","null","","","","","",""
"612","","image-keyboard-response","242","288512","0.0-242.0","3E7TUJ2EGD8N956IANB6XAANXNRD9T","A2DLV3WN24WTDS","3A3KKYU7P33Z3BR9PPFZ5194ZCQMWU","","","img/flower1.png","74","612.6000000238419","1","1","2","1,0.5,0.5,0.5,1,0.5,0.5,0.5,1",""
"null","","html-keyboard-response","243","288828","0.0-243.0","3E7TUJ2EGD8N956IANB6XAANXNRD9T","A2DLV3WN24WTDS","3A3KKYU7P33Z3BR9PPFZ5194ZCQMWU","","","<img src=""img/flower1.png"" style=""width:200px; border:14px solid green;"">","null","","","","","",""
"658.6999999880791","","image-keyboard-response","244","289488","0.0-244.0","3E7TUJ2EGD8N956IANB6XAANXNRD9T","A2DLV3WN24WTDS","3A3KKYU7P33Z3BR9PPFZ5194ZCQMWU","","","img/flower5.png","75","659.6999999880791","2","0","1","1,0.5,0.5,0.5,1,0.5,0.5,0.5,1",""
"null","","html-keyboard-response","245","289801","0.0-245.0","3E7TUJ2EGD8N956IANB6XAANXNRD9T","A2DLV3WN24WTDS","3A3KKYU7P33Z3BR9PPFZ5194ZCQMWU","","","<img src=""img/flower5.png"" style=""width:200px;border:14px solid red;"">","null","","","","","",""
"781.3000000119209","","image-keyboard-response","246","290584","0.0-246.0","3E7TUJ2EGD8N956IANB6XAANXNRD9T","A2DLV3WN24WTDS","3A3KKYU7P33Z3BR9PPFZ5194ZCQMWU","","","img/flower5.png","76","782.3000000119209","3","1","1","1,0.5,0.5,0.5,1,0.5,0.5,0.5,1",""
"null","","html-keyboard-response","247","290887","0.0-247.0","3E7TUJ2EGD8N956IANB6XAANXNRD9T","A2DLV3WN24WTDS","3A3KKYU7P33Z3BR9PPFZ5194ZCQMWU","","","<img src=""img/flower5.png"" style=""width:200px; border:14px solid green;"">","null","","","","","",""
"717.2999999523163","","image-keyboard-response","248","291606","0.0-248.0","3E7TUJ2EGD8N956IANB6XAANXNRD9T","A2DLV3WN24WTDS","3A3KKYU7P33Z3BR9PPFZ5194ZCQMWU","","","img/flower1.png","74","718.8000000119209","1","1","2","1,0.5,0.5,0.5,1,0.5,0.5,0.5,1",""
"null","","html-keyboard-response","249","291920","0.0-249.0","3E7TUJ2EGD8N956IANB6XAANXNRD9T","A2DLV3WN24WTDS","3A3KKYU7P33Z3BR9PPFZ5194ZCQMWU","","","<img src=""img/flower1.png"" style=""width:200px; border:14px solid green;"">","null","","","","","",""
"703.1999999880791","","image-keyboard-response","250","292624","0.0-250.0","3E7TUJ2EGD8N956IANB6XAANXNRD9T","A2DLV3WN24WTDS","3A3KKYU7P33Z3BR9PPFZ5194ZCQMWU","","","img/flower3.png","76","704","3","1","3","1,0.5,0.5,0.5,1,0.5,0.5,0.5,1",""
"null","","html-keyboard-response","251","292940","0.0-251.0","3E7TUJ2EGD8N956IANB6XAANXNRD9T","A2DLV3WN24WTDS","3A3KKYU7P33Z3BR9PPFZ5194ZCQMWU","","","<img src=""img/flower3.png"" style=""width:200px; border:14px solid green;"">","null","","","","","",""
"1065.2999999523163","","image-keyboard-response","252","294006","0.0-252.0","3E7TUJ2EGD8N956IANB6XAANXNRD9T","A2DLV3WN24WTDS","3A3KKYU7P33Z3BR9PPFZ5194ZCQMWU","","","img/flower5.png","74","1066.199999988079","1","1","1","1,0.5,0.5,0.5,1,0.5,0.5,0.5,1",""
"null","","html-keyboard-response","253","294315","0.0-253.0","3E7TUJ2EGD8N956IANB6XAANXNRD9T","A2DLV3WN24WTDS","3A3KKYU7P33Z3BR9PPFZ5194ZCQMWU","","","<img src=""img/flower5.png"" style=""width:200px; border:14px solid green;"">","null","","","","","",""
"874.5999999642372","","image-keyboard-response","254","295191","0.0-254.0","3E7TUJ2EGD8N956IANB6XAANXNRD9T","A2DLV3WN24WTDS","3A3KKYU7P33Z3BR9PPFZ5194ZCQMWU","","","img/flower1.png","74","875.6999999880791","1","1","2","1,0.5,0.5,0.5,1,0.5,0.5,0.5,1",""
"null","","html-keyboard-response","255","295505","0.0-255.0","3E7TUJ2EGD8N956IANB6XAANXNRD9T","A2DLV3WN24WTDS","3A3KKYU7P33Z3BR9PPFZ5194ZCQMWU","","","<img src=""img/flower1.png"" style=""width:200px; border:14px solid green;"">","null","","","","","",""
"1571.5","","image-keyboard-response","256","297078","0.0-256.0","3E7TUJ2EGD8N956IANB6XAANXNRD9T","A2DLV3WN24WTDS","3A3KKYU7P33Z3BR9PPFZ5194ZCQMWU","","","img/flower5.png","75","1572.5999999642372","2","0","1","1,0.5,0.5,0.5,1,0.5,0.5,0.5,1",""
"null","","html-keyboard-response","257","297385","0.0-257.0","3E7TUJ2EGD8N956IANB6XAANXNRD9T","A2DLV3WN24WTDS","3A3KKYU7P33Z3BR9PPFZ5194ZCQMWU","","","<img src=""img/flower5.png"" style=""width:200px;border:14px solid red;"">","null","","","","","",""
"689.6999999880791","","image-keyboard-response","258","298076","0.0-258.0","3E7TUJ2EGD8N956IANB6XAANXNRD9T","A2DLV3WN24WTDS","3A3KKYU7P33Z3BR9PPFZ5194ZCQMWU","","","img/flower1.png","74","690.9000000357628","1","1","2","1,0.5,0.5,0.5,1,0.5,0.5,0.5,1",""
"null","","html-keyboard-response","259","298389","0.0-259.0","3E7TUJ2EGD8N956IANB6XAANXNRD9T","A2DLV3WN24WTDS","3A3KKYU7P33Z3BR9PPFZ5194ZCQMWU","","","<img src=""img/flower1.png"" style=""width:200px; border:14px solid green;"">","null","","","","","",""
"556.5","","image-keyboard-response","260","298948","0.0-260.0","3E7TUJ2EGD8N956IANB6XAANXNRD9T","A2DLV3WN24WTDS","3A3KKYU7P33Z3BR9PPFZ5194ZCQMWU","","","img/flower1.png","74","557.8000000119209","1","1","2","1,0.5,0.5,0.5,1,0.5,0.5,0.5,1",""
"null","","html-keyboard-response","261","299255","0.0-261.0","3E7TUJ2EGD8N956IANB6XAANXNRD9T","A2DLV3WN24WTDS","3A3KKYU7P33Z3BR9PPFZ5194ZCQMWU","","","<img src=""img/flower1.png"" style=""width:200px; border:14px solid green;"">","null","","","","","",""
"579","","image-keyboard-response","262","299836","0.0-262.0","3E7TUJ2EGD8N956IANB6XAANXNRD9T","A2DLV3WN24WTDS","3A3KKYU7P33Z3BR9PPFZ5194ZCQMWU","","","img/flower3.png","76","580.5","3","1","3","1,0.5,0.5,0.5,1,0.5,0.5,0.5,1",""
"null","","html-keyboard-response","263","300150","0.0-263.0","3E7TUJ2EGD8N956IANB6XAANXNRD9T","A2DLV3WN24WTDS","3A3KKYU7P33Z3BR9PPFZ5194ZCQMWU","","","<img src=""img/flower3.png"" style=""width:200px; border:14px solid green;"">","null","","","","","",""
"725","","image-keyboard-response","264","300877","0.0-264.0","3E7TUJ2EGD8N956IANB6XAANXNRD9T","A2DLV3WN24WTDS","3A3KKYU7P33Z3BR9PPFZ5194ZCQMWU","","","img/flower5.png","74","726.1999999880791","1","1","1","1,0.5,0.5,0.5,1,0.5,0.5,0.5,1",""
"null","","html-keyboard-response","265","301183","0.0-265.0","3E7TUJ2EGD8N956IANB6XAANXNRD9T","A2DLV3WN24WTDS","3A3KKYU7P33Z3BR9PPFZ5194ZCQMWU","","","<img src=""img/flower5.png"" style=""width:200px; border:14px solid green;"">","null","","","","","",""
"606.3999999761581","","image-keyboard-response","266","301791","0.0-266.0","3E7TUJ2EGD8N956IANB6XAANXNRD9T","A2DLV3WN24WTDS","3A3KKYU7P33Z3BR9PPFZ5194ZCQMWU","","","img/flower3.png","76","607.5","3","1","3","1,0.5,0.5,0.5,1,0.5,0.5,0.5,1",""
"null","","html-keyboard-response","267","302097","0.0-267.0","3E7TUJ2EGD8N956IANB6XAANXNRD9T","A2DLV3WN24WTDS","3A3KKYU7P33Z3BR9PPFZ5194ZCQMWU","","","<img src=""img/flower3.png"" style=""width:200px; border:14px solid green;"">","null","","","","","",""
"501.69999998807907","","image-keyboard-response","268","302600","0.0-268.0","3E7TUJ2EGD8N956IANB6XAANXNRD9T","A2DLV3WN24WTDS","3A3KKYU7P33Z3BR9PPFZ5194ZCQMWU","","","img/flower5.png","74","502.80000001192093","1","1","1","1,0.5,0.5,0.5,1,0.5,0.5,0.5,1",""
"null","","html-keyboard-response","269","302913","0.0-269.0","3E7TUJ2EGD8N956IANB6XAANXNRD9T","A2DLV3WN24WTDS","3A3KKYU7P33Z3BR9PPFZ5194ZCQMWU","","","<img src=""img/flower5.png"" style=""width:200px; border:14px solid green;"">","null","","","","","",""
"552.9000000357628","","image-keyboard-response","270","303467","0.0-270.0","3E7TUJ2EGD8N956IANB6XAANXNRD9T","A2DLV3WN24WTDS","3A3KKYU7P33Z3BR9PPFZ5194ZCQMWU","","","img/flower1.png","76","553.8999999761581","3","1","2","1,0.5,0.5,0.5,1,0.5,0.5,0.5,1",""
"null","","html-keyboard-response","271","303776","0.0-271.0","3E7TUJ2EGD8N956IANB6XAANXNRD9T","A2DLV3WN24WTDS","3A3KKYU7P33Z3BR9PPFZ5194ZCQMWU","","","<img src=""img/flower1.png"" style=""width:200px; border:14px solid green;"">","null","","","","","",""
"1441.6000000238419","","image-keyboard-response","272","305219","0.0-272.0","3E7TUJ2EGD8N956IANB6XAANXNRD9T","A2DLV3WN24WTDS","3A3KKYU7P33Z3BR9PPFZ5194ZCQMWU","","","img/flower5.png","74","1442.5","1","1","1","1,0.5,0.5,0.5,1,0.5,0.5,0.5,1",""
"null","","html-keyboard-response","273","305532","0.0-273.0","3E7TUJ2EGD8N956IANB6XAANXNRD9T","A2DLV3WN24WTDS","3A3KKYU7P33Z3BR9PPFZ5194ZCQMWU","","","<img src=""img/flower5.png"" style=""width:200px; border:14px solid green;"">","null","","","","","",""
"730.1999999880791","","image-keyboard-response","274","306264","0.0-274.0","3E7TUJ2EGD8N956IANB6XAANXNRD9T","A2DLV3WN24WTDS","3A3KKYU7P33Z3BR9PPFZ5194ZCQMWU","","","img/flower1.png","74","731.4000000357628","1","0","2","1,0.5,0.5,0.5,1,0.5,0.5,0.5,1",""
"null","","html-keyboard-response","275","306566","0.0-275.0","3E7TUJ2EGD8N956IANB6XAANXNRD9T","A2DLV3WN24WTDS","3A3KKYU7P33Z3BR9PPFZ5194ZCQMWU","","","<img src=""img/flower1.png"" style=""width:200px;border:14px solid red;"">","null","","","","","",""
"748.1000000238419","","image-keyboard-response","276","307316","0.0-276.0","3E7TUJ2EGD8N956IANB6XAANXNRD9T","A2DLV3WN24WTDS","3A3KKYU7P33Z3BR9PPFZ5194ZCQMWU","","","img/flower1.png","76","749.1999999880791","3","0","2","1,0.5,0.5,0.5,1,0.5,0.5,0.5,1",""
"null","","html-keyboard-response","277","307620","0.0-277.0","3E7TUJ2EGD8N956IANB6XAANXNRD9T","A2DLV3WN24WTDS","3A3KKYU7P33Z3BR9PPFZ5194ZCQMWU","","","<img src=""img/flower1.png"" style=""width:200px;border:14px solid red;"">","null","","","","","",""
"1137.1000000238419","","image-keyboard-response","278","308759","0.0-278.0","3E7TUJ2EGD8N956IANB6XAANXNRD9T","A2DLV3WN24WTDS","3A3KKYU7P33Z3BR9PPFZ5194ZCQMWU","","","img/flower5.png","75","1138","2","1","1","1,0.5,0.5,0.5,1,0.5,0.5,0.5,1",""
"null","","html-keyboard-response","279","309071","0.0-279.0","3E7TUJ2EGD8N956IANB6XAANXNRD9T","A2DLV3WN24WTDS","3A3KKYU7P33Z3BR9PPFZ5194ZCQMWU","","","<img src=""img/flower5.png"" style=""width:200px; border:14px solid green;"">","null","","","","","",""
"877.6999999880791","","image-keyboard-response","280","309950","0.0-280.0","3E7TUJ2EGD8N956IANB6XAANXNRD9T","A2DLV3WN24WTDS","3A3KKYU7P33Z3BR9PPFZ5194ZCQMWU","","","img/flower1.png","74","878.5","1","0","2","1,0.5,0.5,0.5,1,0.5,0.5,0.5,1",""
"null","","html-keyboard-response","281","310255","0.0-281.0","3E7TUJ2EGD8N956IANB6XAANXNRD9T","A2DLV3WN24WTDS","3A3KKYU7P33Z3BR9PPFZ5194ZCQMWU","","","<img src=""img/flower1.png"" style=""width:200px;border:14px solid red;"">","null","","","","","",""
"765.1000000238419","","image-keyboard-response","282","311022","0.0-282.0","3E7TUJ2EGD8N956IANB6XAANXNRD9T","A2DLV3WN24WTDS","3A3KKYU7P33Z3BR9PPFZ5194ZCQMWU","","","img/flower1.png","76","766.1999999880791","3","0","2","1,0.5,0.5,0.5,1,0.5,0.5,0.5,1",""
"null","","html-keyboard-response","283","311327","0.0-283.0","3E7TUJ2EGD8N956IANB6XAANXNRD9T","A2DLV3WN24WTDS","3A3KKYU7P33Z3BR9PPFZ5194ZCQMWU","","","<img src=""img/flower1.png"" style=""width:200px;border:14px solid red;"">","null","","","","","",""
"539.3999999761581","","image-keyboard-response","284","311867","0.0-284.0","3E7TUJ2EGD8N956IANB6XAANXNRD9T","A2DLV3WN24WTDS","3A3KKYU7P33Z3BR9PPFZ5194ZCQMWU","","","img/flower1.png","75","540.3999999761581","2","1","2","1,0.5,0.5,0.5,1,0.5,0.5,0.5,1",""
"null","","html-keyboard-response","285","312174","0.0-285.0","3E7TUJ2EGD8N956IANB6XAANXNRD9T","A2DLV3WN24WTDS","3A3KKYU7P33Z3BR9PPFZ5194ZCQMWU","","","<img src=""img/flower1.png"" style=""width:200px; border:14px solid green;"">","null","","","","","",""
"769.2999999523163","","image-keyboard-response","286","312945","0.0-286.0","3E7TUJ2EGD8N956IANB6XAANXNRD9T","A2DLV3WN24WTDS","3A3KKYU7P33Z3BR9PPFZ5194ZCQMWU","","","img/flower3.png","76","770.1999999880791","3","1","3","1,0.5,0.5,0.5,1,0.5,0.5,0.5,1",""
"null","","html-keyboard-response","287","313257","0.0-287.0","3E7TUJ2EGD8N956IANB6XAANXNRD9T","A2DLV3WN24WTDS","3A3KKYU7P33Z3BR9PPFZ5194ZCQMWU","","","<img src=""img/flower3.png"" style=""width:200px; border:14px solid green;"">","null","","","","","",""
"766.8999999761581","","image-keyboard-response","288","314026","0.0-288.0","3E7TUJ2EGD8N956IANB6XAANXNRD9T","A2DLV3WN24WTDS","3A3KKYU7P33Z3BR9PPFZ5194ZCQMWU","","","img/flower1.png","74","767.8000000119209","1","0","2","1,0.5,0.5,0.5,1,0.5,0.5,0.5,1",""
"null","","html-keyboard-response","289","314340","0.0-289.0","3E7TUJ2EGD8N956IANB6XAANXNRD9T","A2DLV3WN24WTDS","3A3KKYU7P33Z3BR9PPFZ5194ZCQMWU","","","<img src=""img/flower1.png"" style=""width:200px;border:14px solid red;"">","null","","","","","",""
"770.8000000119209","","image-keyboard-response","290","315112","0.0-290.0","3E7TUJ2EGD8N956IANB6XAANXNRD9T","A2DLV3WN24WTDS","3A3KKYU7P33Z3BR9PPFZ5194ZCQMWU","","","img/flower1.png","75","771.9000000357628","2","1","2","1,0.5,0.5,0.5,1,0.5,0.5,0.5,1",""
"null","","html-keyboard-response","291","315415","0.0-291.0","3E7TUJ2EGD8N956IANB6XAANXNRD9T","A2DLV3WN24WTDS","3A3KKYU7P33Z3BR9PPFZ5194ZCQMWU","","","<img src=""img/flower1.png"" style=""width:200px; border:14px solid green;"">","null","","","","","",""
"758.8000000119209","","image-keyboard-response","292","316175","0.0-292.0","3E7TUJ2EGD8N956IANB6XAANXNRD9T","A2DLV3WN24WTDS","3A3KKYU7P33Z3BR9PPFZ5194ZCQMWU","","","img/flower3.png","76","760","3","1","3","1,0.5,0.5,0.5,1,0.5,0.5,0.5,1",""
"null","","html-keyboard-response","293","316478","0.0-293.0","3E7TUJ2EGD8N956IANB6XAANXNRD9T","A2DLV3WN24WTDS","3A3KKYU7P33Z3BR9PPFZ5194ZCQMWU","","","<img src=""img/flower3.png"" style=""width:200px; border:14px solid green;"">","null","","","","","",""
"567.8999999761581","","image-keyboard-response","294","317048","0.0-294.0","3E7TUJ2EGD8N956IANB6XAANXNRD9T","A2DLV3WN24WTDS","3A3KKYU7P33Z3BR9PPFZ5194ZCQMWU","","","img/flower3.png","76","569.3000000119209","3","1","3","1,0.5,0.5,0.5,1,0.5,0.5,0.5,1",""
"null","","html-keyboard-response","295","317357","0.0-295.0","3E7TUJ2EGD8N956IANB6XAANXNRD9T","A2DLV3WN24WTDS","3A3KKYU7P33Z3BR9PPFZ5194ZCQMWU","","","<img src=""img/flower3.png"" style=""width:200px; border:14px solid green;"">","null","","","","","",""
"872.1999999880791","","image-keyboard-response","296","318231","0.0-296.0","3E7TUJ2EGD8N956IANB6XAANXNRD9T","A2DLV3WN24WTDS","3A3KKYU7P33Z3BR9PPFZ5194ZCQMWU","","","img/flower1.png","76","873.3000000119209","3","0","2","1,0.5,0.5,0.5,1,0.5,0.5,0.5,1",""
"null","","html-keyboard-response","297","318546","0.0-297.0","3E7TUJ2EGD8N956IANB6XAANXNRD9T","A2DLV3WN24WTDS","3A3KKYU7P33Z3BR9PPFZ5194ZCQMWU","","","<img src=""img/flower1.png"" style=""width:200px;border:14px solid red;"">","null","","","","","",""
"426.60000002384186","","image-keyboard-response","298","318974","0.0-298.0","3E7TUJ2EGD8N956IANB6XAANXNRD9T","A2DLV3WN24WTDS","3A3KKYU7P33Z3BR9PPFZ5194ZCQMWU","","","img/flower1.png","75","427.80000001192093","2","1","2","1,0.5,0.5,0.5,1,0.5,0.5,0.5,1",""
"null","","html-keyboard-response","299","319286","0.0-299.0","3E7TUJ2EGD8N956IANB6XAANXNRD9T","A2DLV3WN24WTDS","3A3KKYU7P33Z3BR9PPFZ5194ZCQMWU","","","<img src=""img/flower1.png"" style=""width:200px; border:14px solid green;"">","null","","","","","",""
"629.6999999880791","","image-keyboard-response","300","319917","0.0-300.0","3E7TUJ2EGD8N956IANB6XAANXNRD9T","A2DLV3WN24WTDS","3A3KKYU7P33Z3BR9PPFZ5194ZCQMWU","","","img/flower3.png","76","630.6000000238419","3","1","3","1,0.5,0.5,0.5,1,0.5,0.5,0.5,1",""
"null","","html-keyboard-response","301","320226","0.0-301.0","3E7TUJ2EGD8N956IANB6XAANXNRD9T","A2DLV3WN24WTDS","3A3KKYU7P33Z3BR9PPFZ5194ZCQMWU","","","<img src=""img/flower3.png"" style=""width:200px; border:14px solid green;"">","null","","","","","",""
"473.89999997615814","","image-keyboard-response","302","320702","0.0-302.0","3E7TUJ2EGD8N956IANB6XAANXNRD9T","A2DLV3WN24WTDS","3A3KKYU7P33Z3BR9PPFZ5194ZCQMWU","","","img/flower3.png","76","474.9000000357628","3","1","3","1,0.5,0.5,0.5,1,0.5,0.5,0.5,1",""
"null","","html-keyboard-response","303","321015","0.0-303.0","3E7TUJ2EGD8N956IANB6XAANXNRD9T","A2DLV3WN24WTDS","3A3KKYU7P33Z3BR9PPFZ5194ZCQMWU","","","<img src=""img/flower3.png"" style=""width:200px; border:14px solid green;"">","null","","","","","",""
"434.80000001192093","","image-keyboard-response","304","321452","0.0-304.0","3E7TUJ2EGD8N956IANB6XAANXNRD9T","A2DLV3WN24WTDS","3A3KKYU7P33Z3BR9PPFZ5194ZCQMWU","","","img/flower3.png","76","435.80000001192093","3","1","3","1,0.5,0.5,0.5,1,0.5,0.5,0.5,1",""
"null","","html-keyboard-response","305","321757","0.0-305.0","3E7TUJ2EGD8N956IANB6XAANXNRD9T","A2DLV3WN24WTDS","3A3KKYU7P33Z3BR9PPFZ5194ZCQMWU","","","<img src=""img/flower3.png"" style=""width:200px; border:14px solid green;"">","null","","","","","",""
"","","html-keyboard-response","306","325527","0.0-306.0","3E7TUJ2EGD8N956IANB6XAANXNRD9T","A2DLV3WN24WTDS","3A3KKYU7P33Z3BR9PPFZ5194ZCQMWU","","","","","","","","","",""
"2620.5","","image-keyboard-response","307","328149","0.0-307.0","3E7TUJ2EGD8N956IANB6XAANXNRD9T","A2DLV3WN24WTDS","3A3KKYU7P33Z3BR9PPFZ5194ZCQMWU","","","img/flower6.png","76","2621.800000011921","3","0","1","1,1,0,0,1,1,1,0,1",""
"null","","html-keyboard-response","308","328453","0.0-308.0","3E7TUJ2EGD8N956IANB6XAANXNRD9T","A2DLV3WN24WTDS","3A3KKYU7P33Z3BR9PPFZ5194ZCQMWU","","","<img src=""img/flower6.png"" style=""width:200px;border:14px solid red;"">","null","","","","","",""
"768.8999999761581","","image-keyboard-response","309","329224","0.0-309.0","3E7TUJ2EGD8N956IANB6XAANXNRD9T","A2DLV3WN24WTDS","3A3KKYU7P33Z3BR9PPFZ5194ZCQMWU","","","img/flower6.png","75","769.9000000357628","2","1","1","1,1,0,0,1,1,1,0,1",""
"null","","html-keyboard-response","310","329534","0.0-310.0","3E7TUJ2EGD8N956IANB6XAANXNRD9T","A2DLV3WN24WTDS","3A3KKYU7P33Z3BR9PPFZ5194ZCQMWU","","","<img src=""img/flower6.png"" style=""width:200px; border:14px solid green;"">","null","","","","","",""
"722.5999999642372","","image-keyboard-response","311","330259","0.0-311.0","3E7TUJ2EGD8N956IANB6XAANXNRD9T","A2DLV3WN24WTDS","3A3KKYU7P33Z3BR9PPFZ5194ZCQMWU","","","img/flower2.png","74","723.8000000119209","1","1","3","1,1,0,0,1,1,1,0,1",""
"null","","html-keyboard-response","312","330571","0.0-312.0","3E7TUJ2EGD8N956IANB6XAANXNRD9T","A2DLV3WN24WTDS","3A3KKYU7P33Z3BR9PPFZ5194ZCQMWU","","","<img src=""img/flower2.png"" style=""width:200px; border:14px solid green;"">","null","","","","","",""
"1947.8999999761581","","image-keyboard-response","313","332521","0.0-313.0","3E7TUJ2EGD8N956IANB6XAANXNRD9T","A2DLV3WN24WTDS","3A3KKYU7P33Z3BR9PPFZ5194ZCQMWU","","","img/flower2.png","75","1949.5","2","0","3","1,1,0,0,1,1,1,0,1",""
"null","","html-keyboard-response","314","332837","0.0-314.0","3E7TUJ2EGD8N956IANB6XAANXNRD9T","A2DLV3WN24WTDS","3A3KKYU7P33Z3BR9PPFZ5194ZCQMWU","","","<img src=""img/flower2.png"" style=""width:200px;border:14px solid red;"">","null","","","","","",""
"801","","image-keyboard-response","315","333640","0.0-315.0","3E7TUJ2EGD8N956IANB6XAANXNRD9T","A2DLV3WN24WTDS","3A3KKYU7P33Z3BR9PPFZ5194ZCQMWU","","","img/flower6.png","75","802","2","1","1","1,1,0,0,1,1,1,0,1",""
"null","","html-keyboard-response","316","333952","0.0-316.0","3E7TUJ2EGD8N956IANB6XAANXNRD9T","A2DLV3WN24WTDS","3A3KKYU7P33Z3BR9PPFZ5194ZCQMWU","","","<img src=""img/flower6.png"" style=""width:200px; border:14px solid green;"">","null","","","","","",""
"756.1000000238419","","image-keyboard-response","317","334710","0.0-317.0","3E7TUJ2EGD8N956IANB6XAANXNRD9T","A2DLV3WN24WTDS","3A3KKYU7P33Z3BR9PPFZ5194ZCQMWU","","","img/flower6.png","75","757.6000000238419","2","1","1","1,1,0,0,1,1,1,0,1",""
"null","","html-keyboard-response","318","335021","0.0-318.0","3E7TUJ2EGD8N956IANB6XAANXNRD9T","A2DLV3WN24WTDS","3A3KKYU7P33Z3BR9PPFZ5194ZCQMWU","","","<img src=""img/flower6.png"" style=""width:200px; border:14px solid green;"">","null","","","","","",""
"756","","image-keyboard-response","319","335779","0.0-319.0","3E7TUJ2EGD8N956IANB6XAANXNRD9T","A2DLV3WN24WTDS","3A3KKYU7P33Z3BR9PPFZ5194ZCQMWU","","","img/flower4.png","76","757.1999999880791","3","1","2","1,1,0,0,1,1,1,0,1",""
"null","","html-keyboard-response","320","336090","0.0-320.0","3E7TUJ2EGD8N956IANB6XAANXNRD9T","A2DLV3WN24WTDS","3A3KKYU7P33Z3BR9PPFZ5194ZCQMWU","","","<img src=""img/flower4.png"" style=""width:200px; border:14px solid green;"">","null","","","","","",""
"828.7999999523163","","image-keyboard-response","321","336920","0.0-321.0","3E7TUJ2EGD8N956IANB6XAANXNRD9T","A2DLV3WN24WTDS","3A3KKYU7P33Z3BR9PPFZ5194ZCQMWU","","","img/flower6.png","75","829.8000000119209","2","1","1","1,1,0,0,1,1,1,0,1",""
"null","","html-keyboard-response","322","337237","0.0-322.0","3E7TUJ2EGD8N956IANB6XAANXNRD9T","A2DLV3WN24WTDS","3A3KKYU7P33Z3BR9PPFZ5194ZCQMWU","","","<img src=""img/flower6.png"" style=""width:200px; border:14px solid green;"">","null","","","","","",""
"697.8000000119209","","image-keyboard-response","323","337936","0.0-323.0","3E7TUJ2EGD8N956IANB6XAANXNRD9T","A2DLV3WN24WTDS","3A3KKYU7P33Z3BR9PPFZ5194ZCQMWU","","","img/flower2.png","74","698.8999999761581","1","1","3","1,1,0,0,1,1,1,0,1",""
"null","","html-keyboard-response","324","338241","0.0-324.0","3E7TUJ2EGD8N956IANB6XAANXNRD9T","A2DLV3WN24WTDS","3A3KKYU7P33Z3BR9PPFZ5194ZCQMWU","","","<img src=""img/flower2.png"" style=""width:200px; border:14px solid green;"">","null","","","","","",""
"699.5999999642372","","image-keyboard-response","325","338942","0.0-325.0","3E7TUJ2EGD8N956IANB6XAANXNRD9T","A2DLV3WN24WTDS","3A3KKYU7P33Z3BR9PPFZ5194ZCQMWU","","","img/flower4.png","76","700.5","3","1","2","1,1,0,0,1,1,1,0,1",""
"null","","html-keyboard-response","326","339249","0.0-326.0","3E7TUJ2EGD8N956IANB6XAANXNRD9T","A2DLV3WN24WTDS","3A3KKYU7P33Z3BR9PPFZ5194ZCQMWU","","","<img src=""img/flower4.png"" style=""width:200px; border:14px solid green;"">","null","","","","","",""
"468","","image-keyboard-response","327","339718","0.0-327.0","3E7TUJ2EGD8N956IANB6XAANXNRD9T","A2DLV3WN24WTDS","3A3KKYU7P33Z3BR9PPFZ5194ZCQMWU","","","img/flower4.png","76","469.19999998807907","3","1","2","1,1,0,0,1,1,1,0,1",""
"null","","html-keyboard-response","328","340023","0.0-328.0","3E7TUJ2EGD8N956IANB6XAANXNRD9T","A2DLV3WN24WTDS","3A3KKYU7P33Z3BR9PPFZ5194ZCQMWU","","","<img src=""img/flower4.png"" style=""width:200px; border:14px solid green;"">","null","","","","","",""
"385.10000002384186","","image-keyboard-response","329","340410","0.0-329.0","3E7TUJ2EGD8N956IANB6XAANXNRD9T","A2DLV3WN24WTDS","3A3KKYU7P33Z3BR9PPFZ5194ZCQMWU","","","img/flower4.png","76","386","3","1","2","1,1,0,0,1,1,1,0,1",""
"null","","html-keyboard-response","330","340720","0.0-330.0","3E7TUJ2EGD8N956IANB6XAANXNRD9T","A2DLV3WN24WTDS","3A3KKYU7P33Z3BR9PPFZ5194ZCQMWU","","","<img src=""img/flower4.png"" style=""width:200px; border:14px solid green;"">","null","","","","","",""
"661.8999999761581","","image-keyboard-response","331","341383","0.0-331.0","3E7TUJ2EGD8N956IANB6XAANXNRD9T","A2DLV3WN24WTDS","3A3KKYU7P33Z3BR9PPFZ5194ZCQMWU","","","img/flower2.png","75","663","2","0","3","1,1,0,0,1,1,1,0,1",""
"null","","html-keyboard-response","332","341688","0.0-332.0","3E7TUJ2EGD8N956IANB6XAANXNRD9T","A2DLV3WN24WTDS","3A3KKYU7P33Z3BR9PPFZ5194ZCQMWU","","","<img src=""img/flower2.png"" style=""width:200px;border:14px solid red;"">","null","","","","","",""
"1172.3999999761581","","image-keyboard-response","333","342862","0.0-333.0","3E7TUJ2EGD8N956IANB6XAANXNRD9T","A2DLV3WN24WTDS","3A3KKYU7P33Z3BR9PPFZ5194ZCQMWU","","","img/flower4.png","76","1173.5","3","1","2","1,1,0,0,1,1,1,0,1",""
"null","","html-keyboard-response","334","343175","0.0-334.0","3E7TUJ2EGD8N956IANB6XAANXNRD9T","A2DLV3WN24WTDS","3A3KKYU7P33Z3BR9PPFZ5194ZCQMWU","","","<img src=""img/flower4.png"" style=""width:200px; border:14px solid green;"">","null","","","","","",""
"539.6999999880791","","image-keyboard-response","335","343716","0.0-335.0","3E7TUJ2EGD8N956IANB6XAANXNRD9T","A2DLV3WN24WTDS","3A3KKYU7P33Z3BR9PPFZ5194ZCQMWU","","","img/flower2.png","74","540.8000000119209","1","1","3","1,1,0,0,1,1,1,0,1",""
"null","","html-keyboard-response","336","344024","0.0-336.0","3E7TUJ2EGD8N956IANB6XAANXNRD9T","A2DLV3WN24WTDS","3A3KKYU7P33Z3BR9PPFZ5194ZCQMWU","","","<img src=""img/flower2.png"" style=""width:200px; border:14px solid green;"">","null","","","","","",""
"682.6000000238419","","image-keyboard-response","337","344708","0.0-337.0","3E7TUJ2EGD8N956IANB6XAANXNRD9T","A2DLV3WN24WTDS","3A3KKYU7P33Z3BR9PPFZ5194ZCQMWU","","","img/flower6.png","75","683.5999999642372","2","1","1","1,1,0,0,1,1,1,0,1",""
"null","","html-keyboard-response","338","345012","0.0-338.0","3E7TUJ2EGD8N956IANB6XAANXNRD9T","A2DLV3WN24WTDS","3A3KKYU7P33Z3BR9PPFZ5194ZCQMWU","","","<img src=""img/flower6.png"" style=""width:200px; border:14px solid green;"">","null","","","","","",""
"599.9000000357628","","image-keyboard-response","339","345613","0.0-339.0","3E7TUJ2EGD8N956IANB6XAANXNRD9T","A2DLV3WN24WTDS","3A3KKYU7P33Z3BR9PPFZ5194ZCQMWU","","","img/flower2.png","74","600.8999999761581","1","1","3","1,1,0,0,1,1,1,0,1",""
"null","","html-keyboard-response","340","345926","0.0-340.0","3E7TUJ2EGD8N956IANB6XAANXNRD9T","A2DLV3WN24WTDS","3A3KKYU7P33Z3BR9PPFZ5194ZCQMWU","","","<img src=""img/flower2.png"" style=""width:200px; border:14px solid green;"">","null","","","","","",""
"599.1999999880791","","image-keyboard-response","341","346527","0.0-341.0","3E7TUJ2EGD8N956IANB6XAANXNRD9T","A2DLV3WN24WTDS","3A3KKYU7P33Z3BR9PPFZ5194ZCQMWU","","","img/flower4.png","76","600.1999999880791","3","1","2","1,1,0,0,1,1,1,0,1",""
"null","","html-keyboard-response","342","346842","0.0-342.0","3E7TUJ2EGD8N956IANB6XAANXNRD9T","A2DLV3WN24WTDS","3A3KKYU7P33Z3BR9PPFZ5194ZCQMWU","","","<img src=""img/flower4.png"" style=""width:200px; border:14px solid green;"">","null","","","","","",""
"595.5","","image-keyboard-response","343","347439","0.0-343.0","3E7TUJ2EGD8N956IANB6XAANXNRD9T","A2DLV3WN24WTDS","3A3KKYU7P33Z3BR9PPFZ5194ZCQMWU","","","img/flower4.png","76","596.6000000238419","3","1","2","1,1,0,0,1,1,1,0,1",""
"null","","html-keyboard-response","344","347741","0.0-344.0","3E7TUJ2EGD8N956IANB6XAANXNRD9T","A2DLV3WN24WTDS","3A3KKYU7P33Z3BR9PPFZ5194ZCQMWU","","","<img src=""img/flower4.png"" style=""width:200px; border:14px solid green;"">","null","","","","","",""
"760.9000000357628","","image-keyboard-response","345","348504","0.0-345.0","3E7TUJ2EGD8N956IANB6XAANXNRD9T","A2DLV3WN24WTDS","3A3KKYU7P33Z3BR9PPFZ5194ZCQMWU","","","img/flower6.png","75","761.9000000357628","2","1","1","1,1,0,0,1,1,1,0,1",""
"null","","html-keyboard-response","346","348810","0.0-346.0","3E7TUJ2EGD8N956IANB6XAANXNRD9T","A2DLV3WN24WTDS","3A3KKYU7P33Z3BR9PPFZ5194ZCQMWU","","","<img src=""img/flower6.png"" style=""width:200px; border:14px solid green;"">","null","","","","","",""
"868.3000000119209","","image-keyboard-response","347","349680","0.0-347.0","3E7TUJ2EGD8N956IANB6XAANXNRD9T","A2DLV3WN24WTDS","3A3KKYU7P33Z3BR9PPFZ5194ZCQMWU","","","img/flower4.png","76","869.4000000357628","3","1","2","1,1,0,0,1,1,1,0,1",""
"null","","html-keyboard-response","348","349986","0.0-348.0","3E7TUJ2EGD8N956IANB6XAANXNRD9T","A2DLV3WN24WTDS","3A3KKYU7P33Z3BR9PPFZ5194ZCQMWU","","","<img src=""img/flower4.png"" style=""width:200px; border:14px solid green;"">","null","","","","","",""
"688.2000000476837","","image-keyboard-response","349","350676","0.0-349.0","3E7TUJ2EGD8N956IANB6XAANXNRD9T","A2DLV3WN24WTDS","3A3KKYU7P33Z3BR9PPFZ5194ZCQMWU","","","img/flower6.png","75","689.1999999880791","2","1","1","1,1,0,0,1,1,1,0,1",""
"null","","html-keyboard-response","350","350985","0.0-350.0","3E7TUJ2EGD8N956IANB6XAANXNRD9T","A2DLV3WN24WTDS","3A3KKYU7P33Z3BR9PPFZ5194ZCQMWU","","","<img src=""img/flower6.png"" style=""width:200px; border:14px solid green;"">","null","","","","","",""
"565.6999999880791","","image-keyboard-response","351","351553","0.0-351.0","3E7TUJ2EGD8N956IANB6XAANXNRD9T","A2DLV3WN24WTDS","3A3KKYU7P33Z3BR9PPFZ5194ZCQMWU","","","img/flower2.png","74","567","1","1","3","1,1,0,0,1,1,1,0,1",""
"null","","html-keyboard-response","352","351863","0.0-352.0","3E7TUJ2EGD8N956IANB6XAANXNRD9T","A2DLV3WN24WTDS","3A3KKYU7P33Z3BR9PPFZ5194ZCQMWU","","","<img src=""img/flower2.png"" style=""width:200px; border:14px solid green;"">","null","","","","","",""
"579.8999999761581","","image-keyboard-response","353","352444","0.0-353.0","3E7TUJ2EGD8N956IANB6XAANXNRD9T","A2DLV3WN24WTDS","3A3KKYU7P33Z3BR9PPFZ5194ZCQMWU","","","img/flower4.png","76","581","3","1","2","1,1,0,0,1,1,1,0,1",""
"null","","html-keyboard-response","354","352759","0.0-354.0","3E7TUJ2EGD8N956IANB6XAANXNRD9T","A2DLV3WN24WTDS","3A3KKYU7P33Z3BR9PPFZ5194ZCQMWU","","","<img src=""img/flower4.png"" style=""width:200px; border:14px solid green;"">","null","","","","","",""
"762.3999999761581","","image-keyboard-response","355","353523","0.0-355.0","3E7TUJ2EGD8N956IANB6XAANXNRD9T","A2DLV3WN24WTDS","3A3KKYU7P33Z3BR9PPFZ5194ZCQMWU","","","img/flower2.png","74","763.5","1","1","3","1,1,0,0,1,1,1,0,1",""
"null","","html-keyboard-response","356","353827","0.0-356.0","3E7TUJ2EGD8N956IANB6XAANXNRD9T","A2DLV3WN24WTDS","3A3KKYU7P33Z3BR9PPFZ5194ZCQMWU","","","<img src=""img/flower2.png"" style=""width:200px; border:14px solid green;"">","null","","","","","",""
"673.8000000119209","","image-keyboard-response","357","354502","0.0-357.0","3E7TUJ2EGD8N956IANB6XAANXNRD9T","A2DLV3WN24WTDS","3A3KKYU7P33Z3BR9PPFZ5194ZCQMWU","","","img/flower2.png","74","675","1","1","3","1,1,0,0,1,1,1,0,1",""
"null","","html-keyboard-response","358","354818","0.0-358.0","3E7TUJ2EGD8N956IANB6XAANXNRD9T","A2DLV3WN24WTDS","3A3KKYU7P33Z3BR9PPFZ5194ZCQMWU","","","<img src=""img/flower2.png"" style=""width:200px; border:14px solid green;"">","null","","","","","",""
"705.1999999880791","","image-keyboard-response","359","355525","0.0-359.0","3E7TUJ2EGD8N956IANB6XAANXNRD9T","A2DLV3WN24WTDS","3A3KKYU7P33Z3BR9PPFZ5194ZCQMWU","","","img/flower4.png","76","706.3999999761581","3","1","2","1,1,0,0,1,1,1,0,1",""
"null","","html-keyboard-response","360","355839","0.0-360.0","3E7TUJ2EGD8N956IANB6XAANXNRD9T","A2DLV3WN24WTDS","3A3KKYU7P33Z3BR9PPFZ5194ZCQMWU","","","<img src=""img/flower4.png"" style=""width:200px; border:14px solid green;"">","null","","","","","",""
"611.9000000357628","","image-keyboard-response","361","356452","0.0-361.0","3E7TUJ2EGD8N956IANB6XAANXNRD9T","A2DLV3WN24WTDS","3A3KKYU7P33Z3BR9PPFZ5194ZCQMWU","","","img/flower6.png","75","612.6999999880791","2","1","1","1,1,0,0,1,1,1,0,1",""
"null","","html-keyboard-response","362","356763","0.0-362.0","3E7TUJ2EGD8N956IANB6XAANXNRD9T","A2DLV3WN24WTDS","3A3KKYU7P33Z3BR9PPFZ5194ZCQMWU","","","<img src=""img/flower6.png"" style=""width:200px; border:14px solid green;"">","null","","","","","",""
"909.6000000238419","","image-keyboard-response","363","357674","0.0-363.0","3E7TUJ2EGD8N956IANB6XAANXNRD9T","A2DLV3WN24WTDS","3A3KKYU7P33Z3BR9PPFZ5194ZCQMWU","","","img/flower4.png","76","910.6999999880791","3","1","2","1,1,0,0,1,1,1,0,1",""
"null","","html-keyboard-response","364","357985","0.0-364.0","3E7TUJ2EGD8N956IANB6XAANXNRD9T","A2DLV3WN24WTDS","3A3KKYU7P33Z3BR9PPFZ5194ZCQMWU","","","<img src=""img/flower4.png"" style=""width:200px; border:14px solid green;"">","null","","","","","",""
"515.3999999761581","","image-keyboard-response","365","358502","0.0-365.0","3E7TUJ2EGD8N956IANB6XAANXNRD9T","A2DLV3WN24WTDS","3A3KKYU7P33Z3BR9PPFZ5194ZCQMWU","","","img/flower4.png","76","516.6000000238419","3","1","2","1,1,0,0,1,1,1,0,1",""
"null","","html-keyboard-response","366","358804","0.0-366.0","3E7TUJ2EGD8N956IANB6XAANXNRD9T","A2DLV3WN24WTDS","3A3KKYU7P33Z3BR9PPFZ5194ZCQMWU","","","<img src=""img/flower4.png"" style=""width:200px; border:14px solid green;"">","null","","","","","",""
"520.1999999880791","","image-keyboard-response","367","359326","0.0-367.0","3E7TUJ2EGD8N956IANB6XAANXNRD9T","A2DLV3WN24WTDS","3A3KKYU7P33Z3BR9PPFZ5194ZCQMWU","","","img/flower2.png","74","521.1999999880791","1","1","3","1,1,0,0,1,1,1,0,1",""
"null","","html-keyboard-response","368","359641","0.0-368.0","3E7TUJ2EGD8N956IANB6XAANXNRD9T","A2DLV3WN24WTDS","3A3KKYU7P33Z3BR9PPFZ5194ZCQMWU","","","<img src=""img/flower2.png"" style=""width:200px; border:14px solid green;"">","null","","","","","",""
"638.5","","image-keyboard-response","369","360281","0.0-369.0","3E7TUJ2EGD8N956IANB6XAANXNRD9T","A2DLV3WN24WTDS","3A3KKYU7P33Z3BR9PPFZ5194ZCQMWU","","","img/flower6.png","75","639.7999999523163","2","1","1","1,1,0,0,1,1,1,0,1",""
"null","","html-keyboard-response","370","360595","0.0-370.0","3E7TUJ2EGD8N956IANB6XAANXNRD9T","A2DLV3WN24WTDS","3A3KKYU7P33Z3BR9PPFZ5194ZCQMWU","","","<img src=""img/flower6.png"" style=""width:200px; border:14px solid green;"">","null","","","","","",""
"588.6000000238419","","image-keyboard-response","371","361185","0.0-371.0","3E7TUJ2EGD8N956IANB6XAANXNRD9T","A2DLV3WN24WTDS","3A3KKYU7P33Z3BR9PPFZ5194ZCQMWU","","","img/flower2.png","74","589.5999999642372","1","1","3","1,1,0,0,1,1,1,0,1",""
"null","","html-keyboard-response","372","361493","0.0-372.0","3E7TUJ2EGD8N956IANB6XAANXNRD9T","A2DLV3WN24WTDS","3A3KKYU7P33Z3BR9PPFZ5194ZCQMWU","","","<img src=""img/flower2.png"" style=""width:200px; border:14px solid green;"">","null","","","","","",""
"464.60000002384186","","image-keyboard-response","373","361959","0.0-373.0","3E7TUJ2EGD8N956IANB6XAANXNRD9T","A2DLV3WN24WTDS","3A3KKYU7P33Z3BR9PPFZ5194ZCQMWU","","","img/flower2.png","74","465.69999998807907","1","1","3","1,1,0,0,1,1,1,0,1",""
"null","","html-keyboard-response","374","362262","0.0-374.0","3E7TUJ2EGD8N956IANB6XAANXNRD9T","A2DLV3WN24WTDS","3A3KKYU7P33Z3BR9PPFZ5194ZCQMWU","","","<img src=""img/flower2.png"" style=""width:200px; border:14px solid green;"">","null","","","","","",""
"500.60000002384186","","image-keyboard-response","375","362764","0.0-375.0","3E7TUJ2EGD8N956IANB6XAANXNRD9T","A2DLV3WN24WTDS","3A3KKYU7P33Z3BR9PPFZ5194ZCQMWU","","","img/flower2.png","74","501.89999997615814","1","1","3","1,1,0,0,1,1,1,0,1",""
"null","","html-keyboard-response","376","363078","0.0-376.0","3E7TUJ2EGD8N956IANB6XAANXNRD9T","A2DLV3WN24WTDS","3A3KKYU7P33Z3BR9PPFZ5194ZCQMWU","","","<img src=""img/flower2.png"" style=""width:200px; border:14px solid green;"">","null","","","","","",""
"546.0999999642372","","image-keyboard-response","377","363626","0.0-377.0","3E7TUJ2EGD8N956IANB6XAANXNRD9T","A2DLV3WN24WTDS","3A3KKYU7P33Z3BR9PPFZ5194ZCQMWU","","","img/flower6.png","76","547.5999999642372","3","0","1","1,1,0,0,1,1,1,0,1",""
"null","","html-keyboard-response","378","363943","0.0-378.0","3E7TUJ2EGD8N956IANB6XAANXNRD9T","A2DLV3WN24WTDS","3A3KKYU7P33Z3BR9PPFZ5194ZCQMWU","","","<img src=""img/flower6.png"" style=""width:200px;border:14px solid red;"">","null","","","","","",""
"375.7000000476837","","image-keyboard-response","379","364320","0.0-379.0","3E7TUJ2EGD8N956IANB6XAANXNRD9T","A2DLV3WN24WTDS","3A3KKYU7P33Z3BR9PPFZ5194ZCQMWU","","","img/flower6.png","75","376.80000001192093","2","1","1","1,1,0,0,1,1,1,0,1",""
"null","","html-keyboard-response","380","364625","0.0-380.0","3E7TUJ2EGD8N956IANB6XAANXNRD9T","A2DLV3WN24WTDS","3A3KKYU7P33Z3BR9PPFZ5194ZCQMWU","","","<img src=""img/flower6.png"" style=""width:200px; border:14px solid green;"">","null","","","","","",""
"557","","image-keyboard-response","381","365184","0.0-381.0","3E7TUJ2EGD8N956IANB6XAANXNRD9T","A2DLV3WN24WTDS","3A3KKYU7P33Z3BR9PPFZ5194ZCQMWU","","","img/flower6.png","75","558","2","1","1","1,1,0,0,1,1,1,0,1",""
"null","","html-keyboard-response","382","365488","0.0-382.0","3E7TUJ2EGD8N956IANB6XAANXNRD9T","A2DLV3WN24WTDS","3A3KKYU7P33Z3BR9PPFZ5194ZCQMWU","","","<img src=""img/flower6.png"" style=""width:200px; border:14px solid green;"">","null","","","","","",""
"781.8999999761581","","image-keyboard-response","383","366272","0.0-383.0","3E7TUJ2EGD8N956IANB6XAANXNRD9T","A2DLV3WN24WTDS","3A3KKYU7P33Z3BR9PPFZ5194ZCQMWU","","","img/flower4.png","76","783","3","1","2","1,1,0,0,1,1,1,0,1",""
"null","","html-keyboard-response","384","366577","0.0-384.0","3E7TUJ2EGD8N956IANB6XAANXNRD9T","A2DLV3WN24WTDS","3A3KKYU7P33Z3BR9PPFZ5194ZCQMWU","","","<img src=""img/flower4.png"" style=""width:200px; border:14px solid green;"">","null","","","","","",""
"625.3999999761581","","image-keyboard-response","385","367203","0.0-385.0","3E7TUJ2EGD8N956IANB6XAANXNRD9T","A2DLV3WN24WTDS","3A3KKYU7P33Z3BR9PPFZ5194ZCQMWU","","","img/flower6.png","75","626.6999999880791","2","1","1","1,1,0,0,1,1,1,0,1",""
"null","","html-keyboard-response","386","367521","0.0-386.0","3E7TUJ2EGD8N956IANB6XAANXNRD9T","A2DLV3WN24WTDS","3A3KKYU7P33Z3BR9PPFZ5194ZCQMWU","","","<img src=""img/flower6.png"" style=""width:200px; border:14px solid green;"">","null","","","","","",""
"690","","image-keyboard-response","387","368212","0.0-387.0","3E7TUJ2EGD8N956IANB6XAANXNRD9T","A2DLV3WN24WTDS","3A3KKYU7P33Z3BR9PPFZ5194ZCQMWU","","","img/flower4.png","76","691","3","1","2","1,1,0,0,1,1,1,0,1",""
"null","","html-keyboard-response","388","368523","0.0-388.0","3E7TUJ2EGD8N956IANB6XAANXNRD9T","A2DLV3WN24WTDS","3A3KKYU7P33Z3BR9PPFZ5194ZCQMWU","","","<img src=""img/flower4.png"" style=""width:200px; border:14px solid green;"">","null","","","","","",""
"539.3000000119209","","image-keyboard-response","389","369064","0.0-389.0","3E7TUJ2EGD8N956IANB6XAANXNRD9T","A2DLV3WN24WTDS","3A3KKYU7P33Z3BR9PPFZ5194ZCQMWU","","","img/flower6.png","75","540.3999999761581","2","1","1","1,1,0,0,1,1,1,0,1",""
"null","","html-keyboard-response","390","369370","0.0-390.0","3E7TUJ2EGD8N956IANB6XAANXNRD9T","A2DLV3WN24WTDS","3A3KKYU7P33Z3BR9PPFZ5194ZCQMWU","","","<img src=""img/flower6.png"" style=""width:200px; border:14px solid green;"">","null","","","","","",""
"812.6999999880791","","image-keyboard-response","391","370184","0.0-391.0","3E7TUJ2EGD8N956IANB6XAANXNRD9T","A2DLV3WN24WTDS","3A3KKYU7P33Z3BR9PPFZ5194ZCQMWU","","","img/flower4.png","76","813.8000000119209","3","1","2","1,1,0,0,1,1,1,0,1",""
"null","","html-keyboard-response","392","370498","0.0-392.0","3E7TUJ2EGD8N956IANB6XAANXNRD9T","A2DLV3WN24WTDS","3A3KKYU7P33Z3BR9PPFZ5194ZCQMWU","","","<img src=""img/flower4.png"" style=""width:200px; border:14px solid green;"">","null","","","","","",""
"813.3999999761581","","image-keyboard-response","393","371313","0.0-393.0","3E7TUJ2EGD8N956IANB6XAANXNRD9T","A2DLV3WN24WTDS","3A3KKYU7P33Z3BR9PPFZ5194ZCQMWU","","","img/flower2.png","74","814.3999999761581","1","1","3","1,1,0,0,1,1,1,0,1",""
"null","","html-keyboard-response","394","371623","0.0-394.0","3E7TUJ2EGD8N956IANB6XAANXNRD9T","A2DLV3WN24WTDS","3A3KKYU7P33Z3BR9PPFZ5194ZCQMWU","","","<img src=""img/flower2.png"" style=""width:200px; border:14px solid green;"">","null","","","","","",""
"414.5","","image-keyboard-response","395","372039","0.0-395.0","3E7TUJ2EGD8N956IANB6XAANXNRD9T","A2DLV3WN24WTDS","3A3KKYU7P33Z3BR9PPFZ5194ZCQMWU","","","img/flower2.png","74","415.60000002384186","1","1","3","1,1,0,0,1,1,1,0,1",""
"null","","html-keyboard-response","396","372345","0.0-396.0","3E7TUJ2EGD8N956IANB6XAANXNRD9T","A2DLV3WN24WTDS","3A3KKYU7P33Z3BR9PPFZ5194ZCQMWU","","","<img src=""img/flower2.png"" style=""width:200px; border:14px solid green;"">","null","","","","","",""
"693.5","","image-keyboard-response","397","373040","0.0-397.0","3E7TUJ2EGD8N956IANB6XAANXNRD9T","A2DLV3WN24WTDS","3A3KKYU7P33Z3BR9PPFZ5194ZCQMWU","","","img/flower6.png","75","694.6000000238419","2","1","1","1,1,0,0,1,1,1,0,1",""
"null","","html-keyboard-response","398","373346","0.0-398.0","3E7TUJ2EGD8N956IANB6XAANXNRD9T","A2DLV3WN24WTDS","3A3KKYU7P33Z3BR9PPFZ5194ZCQMWU","","","<img src=""img/flower6.png"" style=""width:200px; border:14px solid green;"">","null","","","","","",""
"433.19999998807907","","image-keyboard-response","399","373781","0.0-399.0","3E7TUJ2EGD8N956IANB6XAANXNRD9T","A2DLV3WN24WTDS","3A3KKYU7P33Z3BR9PPFZ5194ZCQMWU","","","img/flower6.png","75","434.5","2","1","1","1,1,0,0,1,1,1,0,1",""
"null","","html-keyboard-response","400","374085","0.0-400.0","3E7TUJ2EGD8N956IANB6XAANXNRD9T","A2DLV3WN24WTDS","3A3KKYU7P33Z3BR9PPFZ5194ZCQMWU","","","<img src=""img/flower6.png"" style=""width:200px; border:14px solid green;"">","null","","","","","",""
"663.8000000119209","","image-keyboard-response","401","374750","0.0-401.0","3E7TUJ2EGD8N956IANB6XAANXNRD9T","A2DLV3WN24WTDS","3A3KKYU7P33Z3BR9PPFZ5194ZCQMWU","","","img/flower2.png","74","664.8000000119209","1","1","3","1,1,0,0,1,1,1,0,1",""
"null","","html-keyboard-response","402","375059","0.0-402.0","3E7TUJ2EGD8N956IANB6XAANXNRD9T","A2DLV3WN24WTDS","3A3KKYU7P33Z3BR9PPFZ5194ZCQMWU","","","<img src=""img/flower2.png"" style=""width:200px; border:14px solid green;"">","null","","","","","",""
"516.8000000119209","","image-keyboard-response","403","375577","0.0-403.0","3E7TUJ2EGD8N956IANB6XAANXNRD9T","A2DLV3WN24WTDS","3A3KKYU7P33Z3BR9PPFZ5194ZCQMWU","","","img/flower2.png","74","517.8999999761581","1","1","3","1,1,0,0,1,1,1,0,1",""
"null","","html-keyboard-response","404","375891","0.0-404.0","3E7TUJ2EGD8N956IANB6XAANXNRD9T","A2DLV3WN24WTDS","3A3KKYU7P33Z3BR9PPFZ5194ZCQMWU","","","<img src=""img/flower2.png"" style=""width:200px; border:14px solid green;"">","null","","","","","",""
