"rt","url","trial_type","trial_index","time_elapsed","internal_node_id","assignmentID","mturkID","hitID","success","view_history","stimulus","key_press","reactionTime","a","r","s","reward_cond","responses"
"10232.5","consent.html","external-html","0","10292","0.0-0.0","3QUO65DNQVACXULAY7KD4090EM8OUS","A2DVV59R1CQU6T","3UAU495MIIEABANG75FBFHDC9WUUOI","","","","","","","","","",""
"","","fullscreen","1","12943","0.0-1.0","3QUO65DNQVACXULAY7KD4090EM8OUS","A2DVV59R1CQU6T","3UAU495MIIEABANG75FBFHDC9WUUOI","true","","","","","","","","",""
"59570.700000047684","","instructions","2","72515","0.0-2.0","3QUO65DNQVACXULAY7KD4090EM8OUS","A2DVV59R1CQU6T","3UAU495MIIEABANG75FBFHDC9WUUOI","","[{""page_index"":0,""viewing_time"":9314.200000047684},{""page_index"":1,""viewing_time"":14684.100000023842},{""page_index"":2,""viewing_time"":9291.299999952316},{""page_index"":3,""viewing_time"":5553.200000047684},{""page_index"":4,""viewing_time"":6562.5},{""page_index"":5,""viewing_time"":10039.5},{""page_index"":6,""viewing_time"":4124.699999928474}]","","","","","","","",""
"12259.100000023842","","instructions","3","84775","0.0-3.0","3QUO65DNQVACXULAY7KD4090EM8OUS","A2DVV59R1CQU6T","3UAU495MIIEABANG75FBFHDC9WUUOI","","[{""page_index"":0,""viewing_time"":12258.700000047684}]","","","","","","","",""
"1827.5","","image-keyboard-response","4","86604","0.0-4.0","3QUO65DNQVACXULAY7KD4090EM8OUS","A2DVV59R1CQU6T","3UAU495MIIEABANG75FBFHDC9WUUOI","","","img/flower5.png","75","1829","2","1","2","",""
"null","","html-keyboard-response","5","86915","0.0-5.0","3QUO65DNQVACXULAY7KD4090EM8OUS","A2DVV59R1CQU6T","3UAU495MIIEABANG75FBFHDC9WUUOI","","","<img src=""img/flower5.png"" style=""width:200px; border:14px solid green;"">","null","","","","","",""
"721.3999999761581","","image-keyboard-response","6","87638","0.0-6.0","3QUO65DNQVACXULAY7KD4090EM8OUS","A2DVV59R1CQU6T","3UAU495MIIEABANG75FBFHDC9WUUOI","","","img/flower4.png","74","722.7000000476837","1","1","1","",""
"null","","html-keyboard-response","7","87941","0.0-7.0","3QUO65DNQVACXULAY7KD4090EM8OUS","A2DVV59R1CQU6T","3UAU495MIIEABANG75FBFHDC9WUUOI","","","<img src=""img/flower4.png"" style=""width:200px; border:14px solid green;"">","null","","","","","",""
"585.2000000476837","","image-keyboard-response","8","88528","0.0-8.0","3QUO65DNQVACXULAY7KD4090EM8OUS","A2DVV59R1CQU6T","3UAU495MIIEABANG75FBFHDC9WUUOI","","","img/flower6.png","76","586.2999999523163","3","1","3","",""
"null","","html-keyboard-response","9","88843","0.0-9.0","3QUO65DNQVACXULAY7KD4090EM8OUS","A2DVV59R1CQU6T","3UAU495MIIEABANG75FBFHDC9WUUOI","","","<img src=""img/flower6.png"" style=""width:200px; border:14px solid green;"">","null","","","","","",""
"940.8000000715256","","image-keyboard-response","10","89785","0.0-10.0","3QUO65DNQVACXULAY7KD4090EM8OUS","A2DVV59R1CQU6T","3UAU495MIIEABANG75FBFHDC9WUUOI","","","img/flower6.png","76","942","3","1","3","",""
"null","","html-keyboard-response","11","90093","0.0-11.0","3QUO65DNQVACXULAY7KD4090EM8OUS","A2DVV59R1CQU6T","3UAU495MIIEABANG75FBFHDC9WUUOI","","","<img src=""img/flower6.png"" style=""width:200px; border:14px solid green;"">","null","","","","","",""
"801.3999999761581","","image-keyboard-response","12","90896","0.0-12.0","3QUO65DNQVACXULAY7KD4090EM8OUS","A2DVV59R1CQU6T","3UAU495MIIEABANG75FBFHDC9WUUOI","","","img/flower4.png","74","802.3999999761581","1","1","1","",""
"null","","html-keyboard-response","13","91199","0.0-13.0","3QUO65DNQVACXULAY7KD4090EM8OUS","A2DVV59R1CQU6T","3UAU495MIIEABANG75FBFHDC9WUUOI","","","<img src=""img/flower4.png"" style=""width:200px; border:14px solid green;"">","null","","","","","",""
"592.6999999284744","","image-keyboard-response","14","91792","0.0-14.0","3QUO65DNQVACXULAY7KD4090EM8OUS","A2DVV59R1CQU6T","3UAU495MIIEABANG75FBFHDC9WUUOI","","","img/flower6.png","76","593.5","3","0","3","",""
"null","","html-keyboard-response","15","92105","0.0-15.0","3QUO65DNQVACXULAY7KD4090EM8OUS","A2DVV59R1CQU6T","3UAU495MIIEABANG75FBFHDC9WUUOI","","","<img src=""img/flower6.png"" style=""width:200px;border:14px solid red;"">","null","","","","","",""
"994.2999999523163","","image-keyboard-response","16","93100","0.0-16.0","3QUO65DNQVACXULAY7KD4090EM8OUS","A2DVV59R1CQU6T","3UAU495MIIEABANG75FBFHDC9WUUOI","","","img/flower5.png","75","995.2999999523163","2","1","2","",""
"null","","html-keyboard-response","17","93417","0.0-17.0","3QUO65DNQVACXULAY7KD4090EM8OUS","A2DVV59R1CQU6T","3UAU495MIIEABANG75FBFHDC9WUUOI","","","<img src=""img/flower5.png"" style=""width:200px; border:14px solid green;"">","null","","","","","",""
"710.7000000476837","","image-keyboard-response","18","94129","0.0-18.0","3QUO65DNQVACXULAY7KD4090EM8OUS","A2DVV59R1CQU6T","3UAU495MIIEABANG75FBFHDC9WUUOI","","","img/flower4.png","74","711.7000000476837","1","0","1","",""
"null","","html-keyboard-response","19","94432","0.0-19.0","3QUO65DNQVACXULAY7KD4090EM8OUS","A2DVV59R1CQU6T","3UAU495MIIEABANG75FBFHDC9WUUOI","","","<img src=""img/flower4.png"" style=""width:200px;border:14px solid red;"">","null","","","","","",""
"720.7000000476837","","image-keyboard-response","20","95154","0.0-20.0","3QUO65DNQVACXULAY7KD4090EM8OUS","A2DVV59R1CQU6T","3UAU495MIIEABANG75FBFHDC9WUUOI","","","img/flower6.png","76","721.7999999523163","3","1","3","",""
"null","","html-keyboard-response","21","95458","0.0-21.0","3QUO65DNQVACXULAY7KD4090EM8OUS","A2DVV59R1CQU6T","3UAU495MIIEABANG75FBFHDC9WUUOI","","","<img src=""img/flower6.png"" style=""width:200px; border:14px solid green;"">","null","","","","","",""
"682.4000000953674","","image-keyboard-response","22","96143","0.0-22.0","3QUO65DNQVACXULAY7KD4090EM8OUS","A2DVV59R1CQU6T","3UAU495MIIEABANG75FBFHDC9WUUOI","","","img/flower5.png","75","683.9000000953674","2","1","2","",""
"null","","html-keyboard-response","23","96457","0.0-23.0","3QUO65DNQVACXULAY7KD4090EM8OUS","A2DVV59R1CQU6T","3UAU495MIIEABANG75FBFHDC9WUUOI","","","<img src=""img/flower5.png"" style=""width:200px; border:14px solid green;"">","null","","","","","",""
"511.40000009536743","","image-keyboard-response","24","96970","0.0-24.0","3QUO65DNQVACXULAY7KD4090EM8OUS","A2DVV59R1CQU6T","3UAU495MIIEABANG75FBFHDC9WUUOI","","","img/flower4.png","74","512.6999999284744","1","0","1","",""
"null","","html-keyboard-response","25","97284","0.0-25.0","3QUO65DNQVACXULAY7KD4090EM8OUS","A2DVV59R1CQU6T","3UAU495MIIEABANG75FBFHDC9WUUOI","","","<img src=""img/flower4.png"" style=""width:200px;border:14px solid red;"">","null","","","","","",""
"613","","image-keyboard-response","26","97898","0.0-26.0","3QUO65DNQVACXULAY7KD4090EM8OUS","A2DVV59R1CQU6T","3UAU495MIIEABANG75FBFHDC9WUUOI","","","img/flower5.png","75","614.2999999523163","2","1","2","",""
"null","","html-keyboard-response","27","98206","0.0-27.0","3QUO65DNQVACXULAY7KD4090EM8OUS","A2DVV59R1CQU6T","3UAU495MIIEABANG75FBFHDC9WUUOI","","","<img src=""img/flower5.png"" style=""width:200px; border:14px solid green;"">","null","","","","","",""
"642.3999999761581","","image-keyboard-response","28","98850","0.0-28.0","3QUO65DNQVACXULAY7KD4090EM8OUS","A2DVV59R1CQU6T","3UAU495MIIEABANG75FBFHDC9WUUOI","","","img/flower4.png","74","643.3999999761581","1","1","1","",""
"null","","html-keyboard-response","29","99158","0.0-29.0","3QUO65DNQVACXULAY7KD4090EM8OUS","A2DVV59R1CQU6T","3UAU495MIIEABANG75FBFHDC9WUUOI","","","<img src=""img/flower4.png"" style=""width:200px; border:14px solid green;"">","null","","","","","",""
"626.6999999284744","","image-keyboard-response","30","99786","0.0-30.0","3QUO65DNQVACXULAY7KD4090EM8OUS","A2DVV59R1CQU6T","3UAU495MIIEABANG75FBFHDC9WUUOI","","","img/flower6.png","76","627.7999999523163","3","1","3","",""
"null","","html-keyboard-response","31","100091","0.0-31.0","3QUO65DNQVACXULAY7KD4090EM8OUS","A2DVV59R1CQU6T","3UAU495MIIEABANG75FBFHDC9WUUOI","","","<img src=""img/flower6.png"" style=""width:200px; border:14px solid green;"">","null","","","","","",""
"803.7000000476837","","image-keyboard-response","32","100896","0.0-32.0","3QUO65DNQVACXULAY7KD4090EM8OUS","A2DVV59R1CQU6T","3UAU495MIIEABANG75FBFHDC9WUUOI","","","img/flower6.png","76","804.6999999284744","3","1","3","",""
"null","","html-keyboard-response","33","101200","0.0-33.0","3QUO65DNQVACXULAY7KD4090EM8OUS","A2DVV59R1CQU6T","3UAU495MIIEABANG75FBFHDC9WUUOI","","","<img src=""img/flower6.png"" style=""width:200px; border:14px solid green;"">","null","","","","","",""
"537.8999999761581","","image-keyboard-response","34","101740","0.0-34.0","3QUO65DNQVACXULAY7KD4090EM8OUS","A2DVV59R1CQU6T","3UAU495MIIEABANG75FBFHDC9WUUOI","","","img/flower5.png","75","538.9000000953674","2","1","2","",""
"null","","html-keyboard-response","35","102057","0.0-35.0","3QUO65DNQVACXULAY7KD4090EM8OUS","A2DVV59R1CQU6T","3UAU495MIIEABANG75FBFHDC9WUUOI","","","<img src=""img/flower5.png"" style=""width:200px; border:14px solid green;"">","null","","","","","",""
"556.3999999761581","","image-keyboard-response","36","102615","0.0-36.0","3QUO65DNQVACXULAY7KD4090EM8OUS","A2DVV59R1CQU6T","3UAU495MIIEABANG75FBFHDC9WUUOI","","","img/flower6.png","75","557.5","2","0","3","",""
"null","","html-keyboard-response","37","102917","0.0-37.0","3QUO65DNQVACXULAY7KD4090EM8OUS","A2DVV59R1CQU6T","3UAU495MIIEABANG75FBFHDC9WUUOI","","","<img src=""img/flower6.png"" style=""width:200px;border:14px solid red;"">","null","","","","","",""
"650.7000000476837","","image-keyboard-response","38","103569","0.0-38.0","3QUO65DNQVACXULAY7KD4090EM8OUS","A2DVV59R1CQU6T","3UAU495MIIEABANG75FBFHDC9WUUOI","","","img/flower6.png","76","651.7999999523163","3","1","3","",""
"null","","html-keyboard-response","39","103885","0.0-39.0","3QUO65DNQVACXULAY7KD4090EM8OUS","A2DVV59R1CQU6T","3UAU495MIIEABANG75FBFHDC9WUUOI","","","<img src=""img/flower6.png"" style=""width:200px; border:14px solid green;"">","null","","","","","",""
"699.6000000238419","","image-keyboard-response","40","104586","0.0-40.0","3QUO65DNQVACXULAY7KD4090EM8OUS","A2DVV59R1CQU6T","3UAU495MIIEABANG75FBFHDC9WUUOI","","","img/flower4.png","74","700.7000000476837","1","1","1","",""
"null","","html-keyboard-response","41","104898","0.0-41.0","3QUO65DNQVACXULAY7KD4090EM8OUS","A2DVV59R1CQU6T","3UAU495MIIEABANG75FBFHDC9WUUOI","","","<img src=""img/flower4.png"" style=""width:200px; border:14px solid green;"">","null","","","","","",""
"590.5","","image-keyboard-response","42","105490","0.0-42.0","3QUO65DNQVACXULAY7KD4090EM8OUS","A2DVV59R1CQU6T","3UAU495MIIEABANG75FBFHDC9WUUOI","","","img/flower6.png","76","592","3","1","3","",""
"null","","html-keyboard-response","43","105794","0.0-43.0","3QUO65DNQVACXULAY7KD4090EM8OUS","A2DVV59R1CQU6T","3UAU495MIIEABANG75FBFHDC9WUUOI","","","<img src=""img/flower6.png"" style=""width:200px; border:14px solid green;"">","null","","","","","",""
"503.8000000715256","","image-keyboard-response","44","106299","0.0-44.0","3QUO65DNQVACXULAY7KD4090EM8OUS","A2DVV59R1CQU6T","3UAU495MIIEABANG75FBFHDC9WUUOI","","","img/flower5.png","75","505","2","0","2","",""
"null","","html-keyboard-response","45","106602","0.0-45.0","3QUO65DNQVACXULAY7KD4090EM8OUS","A2DVV59R1CQU6T","3UAU495MIIEABANG75FBFHDC9WUUOI","","","<img src=""img/flower5.png"" style=""width:200px;border:14px solid red;"">","null","","","","","",""
"750.5","","image-keyboard-response","46","107355","0.0-46.0","3QUO65DNQVACXULAY7KD4090EM8OUS","A2DVV59R1CQU6T","3UAU495MIIEABANG75FBFHDC9WUUOI","","","img/flower4.png","74","751.8000000715256","1","0","1","",""
"null","","html-keyboard-response","47","107664","0.0-47.0","3QUO65DNQVACXULAY7KD4090EM8OUS","A2DVV59R1CQU6T","3UAU495MIIEABANG75FBFHDC9WUUOI","","","<img src=""img/flower4.png"" style=""width:200px;border:14px solid red;"">","null","","","","","",""
"625.5","","image-keyboard-response","48","108290","0.0-48.0","3QUO65DNQVACXULAY7KD4090EM8OUS","A2DVV59R1CQU6T","3UAU495MIIEABANG75FBFHDC9WUUOI","","","img/flower4.png","74","626.3000000715256","1","1","1","",""
"null","","html-keyboard-response","49","108598","0.0-49.0","3QUO65DNQVACXULAY7KD4090EM8OUS","A2DVV59R1CQU6T","3UAU495MIIEABANG75FBFHDC9WUUOI","","","<img src=""img/flower4.png"" style=""width:200px; border:14px solid green;"">","null","","","","","",""
"472.10000002384186","","image-keyboard-response","50","109071","0.0-50.0","3QUO65DNQVACXULAY7KD4090EM8OUS","A2DVV59R1CQU6T","3UAU495MIIEABANG75FBFHDC9WUUOI","","","img/flower4.png","74","473.10000002384186","1","1","1","",""
"null","","html-keyboard-response","51","109380","0.0-51.0","3QUO65DNQVACXULAY7KD4090EM8OUS","A2DVV59R1CQU6T","3UAU495MIIEABANG75FBFHDC9WUUOI","","","<img src=""img/flower4.png"" style=""width:200px; border:14px solid green;"">","null","","","","","",""
"634.5999999046326","","image-keyboard-response","52","110016","0.0-52.0","3QUO65DNQVACXULAY7KD4090EM8OUS","A2DVV59R1CQU6T","3UAU495MIIEABANG75FBFHDC9WUUOI","","","img/flower5.png","75","635.7000000476837","2","0","2","",""
"null","","html-keyboard-response","53","110332","0.0-53.0","3QUO65DNQVACXULAY7KD4090EM8OUS","A2DVV59R1CQU6T","3UAU495MIIEABANG75FBFHDC9WUUOI","","","<img src=""img/flower5.png"" style=""width:200px;border:14px solid red;"">","null","","","","","",""
"594","","image-keyboard-response","54","110927","0.0-54.0","3QUO65DNQVACXULAY7KD4090EM8OUS","A2DVV59R1CQU6T","3UAU495MIIEABANG75FBFHDC9WUUOI","","","img/flower5.png","75","594.7999999523163","2","1","2","",""
"null","","html-keyboard-response","55","111231","0.0-55.0","3QUO65DNQVACXULAY7KD4090EM8OUS","A2DVV59R1CQU6T","3UAU495MIIEABANG75FBFHDC9WUUOI","","","<img src=""img/flower5.png"" style=""width:200px; border:14px solid green;"">","null","","","","","",""
"569.8000000715256","","image-keyboard-response","56","111802","0.0-56.0","3QUO65DNQVACXULAY7KD4090EM8OUS","A2DVV59R1CQU6T","3UAU495MIIEABANG75FBFHDC9WUUOI","","","img/flower5.png","75","570.7999999523163","2","1","2","",""
"null","","html-keyboard-response","57","112105","0.0-57.0","3QUO65DNQVACXULAY7KD4090EM8OUS","A2DVV59R1CQU6T","3UAU495MIIEABANG75FBFHDC9WUUOI","","","<img src=""img/flower5.png"" style=""width:200px; border:14px solid green;"">","null","","","","","",""
"896.6000000238419","","image-keyboard-response","58","113003","0.0-58.0","3QUO65DNQVACXULAY7KD4090EM8OUS","A2DVV59R1CQU6T","3UAU495MIIEABANG75FBFHDC9WUUOI","","","img/flower4.png","74","897.3000000715256","1","1","1","",""
"null","","html-keyboard-response","59","113308","0.0-59.0","3QUO65DNQVACXULAY7KD4090EM8OUS","A2DVV59R1CQU6T","3UAU495MIIEABANG75FBFHDC9WUUOI","","","<img src=""img/flower4.png"" style=""width:200px; border:14px solid green;"">","null","","","","","",""
"622.3999999761581","","image-keyboard-response","60","113932","0.0-60.0","3QUO65DNQVACXULAY7KD4090EM8OUS","A2DVV59R1CQU6T","3UAU495MIIEABANG75FBFHDC9WUUOI","","","img/flower5.png","75","623.3000000715256","2","1","2","",""
"null","","html-keyboard-response","61","114238","0.0-61.0","3QUO65DNQVACXULAY7KD4090EM8OUS","A2DVV59R1CQU6T","3UAU495MIIEABANG75FBFHDC9WUUOI","","","<img src=""img/flower5.png"" style=""width:200px; border:14px solid green;"">","null","","","","","",""
"628.2999999523163","","image-keyboard-response","62","114868","0.0-62.0","3QUO65DNQVACXULAY7KD4090EM8OUS","A2DVV59R1CQU6T","3UAU495MIIEABANG75FBFHDC9WUUOI","","","img/flower6.png","76","629.3999999761581","3","1","3","",""
"null","","html-keyboard-response","63","115184","0.0-63.0","3QUO65DNQVACXULAY7KD4090EM8OUS","A2DVV59R1CQU6T","3UAU495MIIEABANG75FBFHDC9WUUOI","","","<img src=""img/flower6.png"" style=""width:200px; border:14px solid green;"">","null","","","","","",""
"12647","","instructions","64","127831","0.0-64.0","3QUO65DNQVACXULAY7KD4090EM8OUS","A2DVV59R1CQU6T","3UAU495MIIEABANG75FBFHDC9WUUOI","","[{""page_index"":0,""viewing_time"":3743.9000000953674},{""page_index"":1,""viewing_time"":8902.599999904633}]","","","","","","","",""
"1542.1000000238419","","image-keyboard-response","65","129375","0.0-65.0","3QUO65DNQVACXULAY7KD4090EM8OUS","A2DVV59R1CQU6T","3UAU495MIIEABANG75FBFHDC9WUUOI","","","img/flower6.png","74","1543.2999999523163","1","1","3","",""
"null","","html-keyboard-response","66","129684","0.0-66.0","3QUO65DNQVACXULAY7KD4090EM8OUS","A2DVV59R1CQU6T","3UAU495MIIEABANG75FBFHDC9WUUOI","","","<img src=""img/flower6.png"" style=""width:200px; border:14px solid green;"">","null","","","","","",""
"997.7000000476837","","image-keyboard-response","67","130682","0.0-67.0","3QUO65DNQVACXULAY7KD4090EM8OUS","A2DVV59R1CQU6T","3UAU495MIIEABANG75FBFHDC9WUUOI","","","img/flower5.png","75","998.3000000715256","2","1","2","",""
"null","","html-keyboard-response","68","130999","0.0-68.0","3QUO65DNQVACXULAY7KD4090EM8OUS","A2DVV59R1CQU6T","3UAU495MIIEABANG75FBFHDC9WUUOI","","","<img src=""img/flower5.png"" style=""width:200px; border:14px solid green;"">","null","","","","","",""
"1031","","image-keyboard-response","69","132031","0.0-69.0","3QUO65DNQVACXULAY7KD4090EM8OUS","A2DVV59R1CQU6T","3UAU495MIIEABANG75FBFHDC9WUUOI","","","img/flower6.png","76","1032","3","1","3","",""
"null","","html-keyboard-response","70","132342","0.0-70.0","3QUO65DNQVACXULAY7KD4090EM8OUS","A2DVV59R1CQU6T","3UAU495MIIEABANG75FBFHDC9WUUOI","","","<img src=""img/flower6.png"" style=""width:200px; border:14px solid green;"">","null","","","","","",""
"1120.3000000715256","","image-keyboard-response","71","133464","0.0-71.0","3QUO65DNQVACXULAY7KD4090EM8OUS","A2DVV59R1CQU6T","3UAU495MIIEABANG75FBFHDC9WUUOI","","","img/flower5.png","75","1121.1000000238419","2","1","2","",""
"null","","html-keyboard-response","72","133777","0.0-72.0","3QUO65DNQVACXULAY7KD4090EM8OUS","A2DVV59R1CQU6T","3UAU495MIIEABANG75FBFHDC9WUUOI","","","<img src=""img/flower5.png"" style=""width:200px; border:14px solid green;"">","null","","","","","",""
"941.6000000238419","","image-keyboard-response","73","134719","0.0-73.0","3QUO65DNQVACXULAY7KD4090EM8OUS","A2DVV59R1CQU6T","3UAU495MIIEABANG75FBFHDC9WUUOI","","","img/flower4.png","74","942.2999999523163","1","1","1","",""
"null","","html-keyboard-response","74","135027","0.0-74.0","3QUO65DNQVACXULAY7KD4090EM8OUS","A2DVV59R1CQU6T","3UAU495MIIEABANG75FBFHDC9WUUOI","","","<img src=""img/flower4.png"" style=""width:200px; border:14px solid green;"">","null","","","","","",""
"714.2999999523163","","image-keyboard-response","75","135743","0.0-75.0","3QUO65DNQVACXULAY7KD4090EM8OUS","A2DVV59R1CQU6T","3UAU495MIIEABANG75FBFHDC9WUUOI","","","img/flower4.png","74","715.4000000953674","1","1","1","",""
"null","","html-keyboard-response","76","136052","0.0-76.0","3QUO65DNQVACXULAY7KD4090EM8OUS","A2DVV59R1CQU6T","3UAU495MIIEABANG75FBFHDC9WUUOI","","","<img src=""img/flower4.png"" style=""width:200px; border:14px solid green;"">","null","","","","","",""
"669.3999999761581","","image-keyboard-response","77","136723","0.0-77.0","3QUO65DNQVACXULAY7KD4090EM8OUS","A2DVV59R1CQU6T","3UAU495MIIEABANG75FBFHDC9WUUOI","","","img/flower4.png","74","670.3999999761581","1","1","1","",""
"null","","html-keyboard-response","78","137036","0.0-78.0","3QUO65DNQVACXULAY7KD4090EM8OUS","A2DVV59R1CQU6T","3UAU495MIIEABANG75FBFHDC9WUUOI","","","<img src=""img/flower4.png"" style=""width:200px; border:14px solid green;"">","null","","","","","",""
"925.6999999284744","","image-keyboard-response","79","137963","0.0-79.0","3QUO65DNQVACXULAY7KD4090EM8OUS","A2DVV59R1CQU6T","3UAU495MIIEABANG75FBFHDC9WUUOI","","","img/flower5.png","75","926.8000000715256","2","1","2","",""
"null","","html-keyboard-response","80","138270","0.0-80.0","3QUO65DNQVACXULAY7KD4090EM8OUS","A2DVV59R1CQU6T","3UAU495MIIEABANG75FBFHDC9WUUOI","","","<img src=""img/flower5.png"" style=""width:200px; border:14px solid green;"">","null","","","","","",""
"623.5","","image-keyboard-response","81","138895","0.0-81.0","3QUO65DNQVACXULAY7KD4090EM8OUS","A2DVV59R1CQU6T","3UAU495MIIEABANG75FBFHDC9WUUOI","","","img/flower6.png","76","624.5","3","1","3","",""
"null","","html-keyboard-response","82","139204","0.0-82.0","3QUO65DNQVACXULAY7KD4090EM8OUS","A2DVV59R1CQU6T","3UAU495MIIEABANG75FBFHDC9WUUOI","","","<img src=""img/flower6.png"" style=""width:200px; border:14px solid green;"">","null","","","","","",""
"433.59999990463257","","image-keyboard-response","83","139639","0.0-83.0","3QUO65DNQVACXULAY7KD4090EM8OUS","A2DVV59R1CQU6T","3UAU495MIIEABANG75FBFHDC9WUUOI","","","img/flower6.png","76","434.7000000476837","3","1","3","",""
"null","","html-keyboard-response","84","139950","0.0-84.0","3QUO65DNQVACXULAY7KD4090EM8OUS","A2DVV59R1CQU6T","3UAU495MIIEABANG75FBFHDC9WUUOI","","","<img src=""img/flower6.png"" style=""width:200px; border:14px solid green;"">","null","","","","","",""
"406.8000000715256","","image-keyboard-response","85","140359","0.0-85.0","3QUO65DNQVACXULAY7KD4090EM8OUS","A2DVV59R1CQU6T","3UAU495MIIEABANG75FBFHDC9WUUOI","","","img/flower6.png","76","408.10000002384186","3","0","3","",""
"null","","html-keyboard-response","86","140667","0.0-86.0","3QUO65DNQVACXULAY7KD4090EM8OUS","A2DVV59R1CQU6T","3UAU495MIIEABANG75FBFHDC9WUUOI","","","<img src=""img/flower6.png"" style=""width:200px;border:14px solid red;"">","null","","","","","",""
"665.8000000715256","","image-keyboard-response","87","141334","0.0-87.0","3QUO65DNQVACXULAY7KD4090EM8OUS","A2DVV59R1CQU6T","3UAU495MIIEABANG75FBFHDC9WUUOI","","","img/flower5.png","75","666.8999999761581","2","1","2","",""
"null","","html-keyboard-response","88","141639","0.0-88.0","3QUO65DNQVACXULAY7KD4090EM8OUS","A2DVV59R1CQU6T","3UAU495MIIEABANG75FBFHDC9WUUOI","","","<img src=""img/flower5.png"" style=""width:200px; border:14px solid green;"">","null","","","","","",""
"539.8999999761581","","image-keyboard-response","89","142180","0.0-89.0","3QUO65DNQVACXULAY7KD4090EM8OUS","A2DVV59R1CQU6T","3UAU495MIIEABANG75FBFHDC9WUUOI","","","img/flower5.png","75","540.7000000476837","2","1","2","",""
"null","","html-keyboard-response","90","142484","0.0-90.0","3QUO65DNQVACXULAY7KD4090EM8OUS","A2DVV59R1CQU6T","3UAU495MIIEABANG75FBFHDC9WUUOI","","","<img src=""img/flower5.png"" style=""width:200px; border:14px solid green;"">","null","","","","","",""
"675.8999999761581","","image-keyboard-response","91","143161","0.0-91.0","3QUO65DNQVACXULAY7KD4090EM8OUS","A2DVV59R1CQU6T","3UAU495MIIEABANG75FBFHDC9WUUOI","","","img/flower5.png","75","676.7000000476837","2","1","2","",""
"null","","html-keyboard-response","92","143470","0.0-92.0","3QUO65DNQVACXULAY7KD4090EM8OUS","A2DVV59R1CQU6T","3UAU495MIIEABANG75FBFHDC9WUUOI","","","<img src=""img/flower5.png"" style=""width:200px; border:14px solid green;"">","null","","","","","",""
"1122.8000000715256","","image-keyboard-response","93","144595","0.0-93.0","3QUO65DNQVACXULAY7KD4090EM8OUS","A2DVV59R1CQU6T","3UAU495MIIEABANG75FBFHDC9WUUOI","","","img/flower6.png","76","1124.2000000476837","3","1","3","",""
"null","","html-keyboard-response","94","144906","0.0-94.0","3QUO65DNQVACXULAY7KD4090EM8OUS","A2DVV59R1CQU6T","3UAU495MIIEABANG75FBFHDC9WUUOI","","","<img src=""img/flower6.png"" style=""width:200px; border:14px solid green;"">","null","","","","","",""
"611.5999999046326","","image-keyboard-response","95","145519","0.0-95.0","3QUO65DNQVACXULAY7KD4090EM8OUS","A2DVV59R1CQU6T","3UAU495MIIEABANG75FBFHDC9WUUOI","","","img/flower4.png","74","612.7000000476837","1","1","1","",""
"null","","html-keyboard-response","96","145829","0.0-96.0","3QUO65DNQVACXULAY7KD4090EM8OUS","A2DVV59R1CQU6T","3UAU495MIIEABANG75FBFHDC9WUUOI","","","<img src=""img/flower4.png"" style=""width:200px; border:14px solid green;"">","null","","","","","",""
"464.5","","image-keyboard-response","97","146295","0.0-97.0","3QUO65DNQVACXULAY7KD4090EM8OUS","A2DVV59R1CQU6T","3UAU495MIIEABANG75FBFHDC9WUUOI","","","img/flower4.png","74","465.39999997615814","1","1","1","",""
"null","","html-keyboard-response","98","146607","0.0-98.0","3QUO65DNQVACXULAY7KD4090EM8OUS","A2DVV59R1CQU6T","3UAU495MIIEABANG75FBFHDC9WUUOI","","","<img src=""img/flower4.png"" style=""width:200px; border:14px solid green;"">","null","","","","","",""
"570.8999999761581","","image-keyboard-response","99","147179","0.0-99.0","3QUO65DNQVACXULAY7KD4090EM8OUS","A2DVV59R1CQU6T","3UAU495MIIEABANG75FBFHDC9WUUOI","","","img/flower4.png","74","571.7999999523163","1","1","1","",""
"null","","html-keyboard-response","100","147486","0.0-100.0","3QUO65DNQVACXULAY7KD4090EM8OUS","A2DVV59R1CQU6T","3UAU495MIIEABANG75FBFHDC9WUUOI","","","<img src=""img/flower4.png"" style=""width:200px; border:14px solid green;"">","null","","","","","",""
"592.6000000238419","","image-keyboard-response","101","148080","0.0-101.0","3QUO65DNQVACXULAY7KD4090EM8OUS","A2DVV59R1CQU6T","3UAU495MIIEABANG75FBFHDC9WUUOI","","","img/flower6.png","75","593.5","2","0","3","",""
"null","","html-keyboard-response","102","148389","0.0-102.0","3QUO65DNQVACXULAY7KD4090EM8OUS","A2DVV59R1CQU6T","3UAU495MIIEABANG75FBFHDC9WUUOI","","","<img src=""img/flower6.png"" style=""width:200px;border:14px solid red;"">","null","","","","","",""
"544.2999999523163","","image-keyboard-response","103","148935","0.0-103.0","3QUO65DNQVACXULAY7KD4090EM8OUS","A2DVV59R1CQU6T","3UAU495MIIEABANG75FBFHDC9WUUOI","","","img/flower5.png","75","545.5","2","0","2","",""
"null","","html-keyboard-response","104","149248","0.0-104.0","3QUO65DNQVACXULAY7KD4090EM8OUS","A2DVV59R1CQU6T","3UAU495MIIEABANG75FBFHDC9WUUOI","","","<img src=""img/flower5.png"" style=""width:200px;border:14px solid red;"">","null","","","","","",""
"694.2999999523163","","image-keyboard-response","105","149943","0.0-105.0","3QUO65DNQVACXULAY7KD4090EM8OUS","A2DVV59R1CQU6T","3UAU495MIIEABANG75FBFHDC9WUUOI","","","img/flower5.png","75","695.3000000715256","2","1","2","",""
"null","","html-keyboard-response","106","150251","0.0-106.0","3QUO65DNQVACXULAY7KD4090EM8OUS","A2DVV59R1CQU6T","3UAU495MIIEABANG75FBFHDC9WUUOI","","","<img src=""img/flower5.png"" style=""width:200px; border:14px solid green;"">","null","","","","","",""
"658.6000000238419","","image-keyboard-response","107","150911","0.0-107.0","3QUO65DNQVACXULAY7KD4090EM8OUS","A2DVV59R1CQU6T","3UAU495MIIEABANG75FBFHDC9WUUOI","","","img/flower4.png","74","659.7000000476837","1","1","1","",""
"null","","html-keyboard-response","108","151223","0.0-108.0","3QUO65DNQVACXULAY7KD4090EM8OUS","A2DVV59R1CQU6T","3UAU495MIIEABANG75FBFHDC9WUUOI","","","<img src=""img/flower4.png"" style=""width:200px; border:14px solid green;"">","null","","","","","",""
"538.0999999046326","","image-keyboard-response","109","151762","0.0-109.0","3QUO65DNQVACXULAY7KD4090EM8OUS","A2DVV59R1CQU6T","3UAU495MIIEABANG75FBFHDC9WUUOI","","","img/flower6.png","76","538.8999999761581","3","1","3","",""
"null","","html-keyboard-response","110","152066","0.0-110.0","3QUO65DNQVACXULAY7KD4090EM8OUS","A2DVV59R1CQU6T","3UAU495MIIEABANG75FBFHDC9WUUOI","","","<img src=""img/flower6.png"" style=""width:200px; border:14px solid green;"">","null","","","","","",""
"671.3999999761581","","image-keyboard-response","111","152738","0.0-111.0","3QUO65DNQVACXULAY7KD4090EM8OUS","A2DVV59R1CQU6T","3UAU495MIIEABANG75FBFHDC9WUUOI","","","img/flower5.png","75","672.1000000238419","2","1","2","",""
"null","","html-keyboard-response","112","153053","0.0-112.0","3QUO65DNQVACXULAY7KD4090EM8OUS","A2DVV59R1CQU6T","3UAU495MIIEABANG75FBFHDC9WUUOI","","","<img src=""img/flower5.png"" style=""width:200px; border:14px solid green;"">","null","","","","","",""
"601.5","","image-keyboard-response","113","153655","0.0-113.0","3QUO65DNQVACXULAY7KD4090EM8OUS","A2DVV59R1CQU6T","3UAU495MIIEABANG75FBFHDC9WUUOI","","","img/flower4.png","74","602.2999999523163","1","0","1","",""
"null","","html-keyboard-response","114","153973","0.0-114.0","3QUO65DNQVACXULAY7KD4090EM8OUS","A2DVV59R1CQU6T","3UAU495MIIEABANG75FBFHDC9WUUOI","","","<img src=""img/flower4.png"" style=""width:200px;border:14px solid red;"">","null","","","","","",""
"553.5","","image-keyboard-response","115","154527","0.0-115.0","3QUO65DNQVACXULAY7KD4090EM8OUS","A2DVV59R1CQU6T","3UAU495MIIEABANG75FBFHDC9WUUOI","","","img/flower4.png","74","554.1999999284744","1","1","1","",""
"null","","html-keyboard-response","116","154830","0.0-116.0","3QUO65DNQVACXULAY7KD4090EM8OUS","A2DVV59R1CQU6T","3UAU495MIIEABANG75FBFHDC9WUUOI","","","<img src=""img/flower4.png"" style=""width:200px; border:14px solid green;"">","null","","","","","",""
"517.6000000238419","","image-keyboard-response","117","155349","0.0-117.0","3QUO65DNQVACXULAY7KD4090EM8OUS","A2DVV59R1CQU6T","3UAU495MIIEABANG75FBFHDC9WUUOI","","","img/flower6.png","76","518.8999999761581","3","1","3","",""
"null","","html-keyboard-response","118","155651","0.0-118.0","3QUO65DNQVACXULAY7KD4090EM8OUS","A2DVV59R1CQU6T","3UAU495MIIEABANG75FBFHDC9WUUOI","","","<img src=""img/flower6.png"" style=""width:200px; border:14px solid green;"">","null","","","","","",""
"467.7999999523163","","image-keyboard-response","119","156120","0.0-119.0","3QUO65DNQVACXULAY7KD4090EM8OUS","A2DVV59R1CQU6T","3UAU495MIIEABANG75FBFHDC9WUUOI","","","img/flower6.png","76","468.7000000476837","3","1","3","",""
"null","","html-keyboard-response","120","156431","0.0-120.0","3QUO65DNQVACXULAY7KD4090EM8OUS","A2DVV59R1CQU6T","3UAU495MIIEABANG75FBFHDC9WUUOI","","","<img src=""img/flower6.png"" style=""width:200px; border:14px solid green;"">","null","","","","","",""
"579","","image-keyboard-response","121","157011","0.0-121.0","3QUO65DNQVACXULAY7KD4090EM8OUS","A2DVV59R1CQU6T","3UAU495MIIEABANG75FBFHDC9WUUOI","","","img/flower5.png","74","579.8000000715256","1","0","2","",""
"null","","html-keyboard-response","122","157315","0.0-122.0","3QUO65DNQVACXULAY7KD4090EM8OUS","A2DVV59R1CQU6T","3UAU495MIIEABANG75FBFHDC9WUUOI","","","<img src=""img/flower5.png"" style=""width:200px;border:14px solid red;"">","null","","","","","",""
"559.3000000715256","","image-keyboard-response","123","157876","0.0-123.0","3QUO65DNQVACXULAY7KD4090EM8OUS","A2DVV59R1CQU6T","3UAU495MIIEABANG75FBFHDC9WUUOI","","","img/flower4.png","74","560.5","1","1","1","",""
"null","","html-keyboard-response","124","158189","0.0-124.0","3QUO65DNQVACXULAY7KD4090EM8OUS","A2DVV59R1CQU6T","3UAU495MIIEABANG75FBFHDC9WUUOI","","","<img src=""img/flower4.png"" style=""width:200px; border:14px solid green;"">","null","","","","","",""
"2794.7000000476837","","instructions","125","160985","0.0-125.0","3QUO65DNQVACXULAY7KD4090EM8OUS","A2DVV59R1CQU6T","3UAU495MIIEABANG75FBFHDC9WUUOI","","[{""page_index"":0,""viewing_time"":2794.4000000953674}]","","","","","","","",""
"1289.1000000238419","","image-keyboard-response","126","162275","0.0-126.0","3QUO65DNQVACXULAY7KD4090EM8OUS","A2DVV59R1CQU6T","3UAU495MIIEABANG75FBFHDC9WUUOI","","","img/flower3.png","74","1290.1000000238419","1","1","3","1,0.5,0.5,0.5,1,0.5,0.5,0.5,1",""
"null","","html-keyboard-response","127","162583","0.0-127.0","3QUO65DNQVACXULAY7KD4090EM8OUS","A2DVV59R1CQU6T","3UAU495MIIEABANG75FBFHDC9WUUOI","","","<img src=""img/flower3.png"" style=""width:200px; border:14px solid green;"">","null","","","","","",""
"634.6000000238419","","image-keyboard-response","128","163218","0.0-128.0","3QUO65DNQVACXULAY7KD4090EM8OUS","A2DVV59R1CQU6T","3UAU495MIIEABANG75FBFHDC9WUUOI","","","img/flower2.png","75","635.5","2","1","2","1,0.5,0.5,0.5,1,0.5,0.5,0.5,1",""
"null","","html-keyboard-response","129","163531","0.0-129.0","3QUO65DNQVACXULAY7KD4090EM8OUS","A2DVV59R1CQU6T","3UAU495MIIEABANG75FBFHDC9WUUOI","","","<img src=""img/flower2.png"" style=""width:200px; border:14px solid green;"">","null","","","","","",""
"546.9000000953674","","image-keyboard-response","130","164080","0.0-130.0","3QUO65DNQVACXULAY7KD4090EM8OUS","A2DVV59R1CQU6T","3UAU495MIIEABANG75FBFHDC9WUUOI","","","img/flower5.png","76","548.2000000476837","3","1","1","1,0.5,0.5,0.5,1,0.5,0.5,0.5,1",""
"null","","html-keyboard-response","131","164386","0.0-131.0","3QUO65DNQVACXULAY7KD4090EM8OUS","A2DVV59R1CQU6T","3UAU495MIIEABANG75FBFHDC9WUUOI","","","<img src=""img/flower5.png"" style=""width:200px; border:14px solid green;"">","null","","","","","",""
"606.3999999761581","","image-keyboard-response","132","164994","0.0-132.0","3QUO65DNQVACXULAY7KD4090EM8OUS","A2DVV59R1CQU6T","3UAU495MIIEABANG75FBFHDC9WUUOI","","","img/flower5.png","76","607.5999999046326","3","0","1","1,0.5,0.5,0.5,1,0.5,0.5,0.5,1",""
"null","","html-keyboard-response","133","165305","0.0-133.0","3QUO65DNQVACXULAY7KD4090EM8OUS","A2DVV59R1CQU6T","3UAU495MIIEABANG75FBFHDC9WUUOI","","","<img src=""img/flower5.png"" style=""width:200px;border:14px solid red;"">","null","","","","","",""
"590.1000000238419","","image-keyboard-response","134","165897","0.0-134.0","3QUO65DNQVACXULAY7KD4090EM8OUS","A2DVV59R1CQU6T","3UAU495MIIEABANG75FBFHDC9WUUOI","","","img/flower5.png","76","591","3","1","1","1,0.5,0.5,0.5,1,0.5,0.5,0.5,1",""
"null","","html-keyboard-response","135","166212","0.0-135.0","3QUO65DNQVACXULAY7KD4090EM8OUS","A2DVV59R1CQU6T","3UAU495MIIEABANG75FBFHDC9WUUOI","","","<img src=""img/flower5.png"" style=""width:200px; border:14px solid green;"">","null","","","","","",""
"607.2999999523163","","image-keyboard-response","136","166821","0.0-136.0","3QUO65DNQVACXULAY7KD4090EM8OUS","A2DVV59R1CQU6T","3UAU495MIIEABANG75FBFHDC9WUUOI","","","img/flower5.png","76","608.2000000476837","3","0","1","1,0.5,0.5,0.5,1,0.5,0.5,0.5,1",""
"null","","html-keyboard-response","137","167132","0.0-137.0","3QUO65DNQVACXULAY7KD4090EM8OUS","A2DVV59R1CQU6T","3UAU495MIIEABANG75FBFHDC9WUUOI","","","<img src=""img/flower5.png"" style=""width:200px;border:14px solid red;"">","null","","","","","",""
"551.2999999523163","","image-keyboard-response","138","167685","0.0-138.0","3QUO65DNQVACXULAY7KD4090EM8OUS","A2DVV59R1CQU6T","3UAU495MIIEABANG75FBFHDC9WUUOI","","","img/flower5.png","76","552.5","3","1","1","1,0.5,0.5,0.5,1,0.5,0.5,0.5,1",""
"null","","html-keyboard-response","139","167989","0.0-139.0","3QUO65DNQVACXULAY7KD4090EM8OUS","A2DVV59R1CQU6T","3UAU495MIIEABANG75FBFHDC9WUUOI","","","<img src=""img/flower5.png"" style=""width:200px; border:14px solid green;"">","null","","","","","",""
"1506.5","","image-keyboard-response","140","169496","0.0-140.0","3QUO65DNQVACXULAY7KD4090EM8OUS","A2DVV59R1CQU6T","3UAU495MIIEABANG75FBFHDC9WUUOI","","","img/flower3.png","74","1507.3999999761581","1","0","3","1,0.5,0.5,0.5,1,0.5,0.5,0.5,1",""
"null","","html-keyboard-response","141","169799","0.0-141.0","3QUO65DNQVACXULAY7KD4090EM8OUS","A2DVV59R1CQU6T","3UAU495MIIEABANG75FBFHDC9WUUOI","","","<img src=""img/flower3.png"" style=""width:200px;border:14px solid red;"">","null","","","","","",""
"795.6000000238419","","image-keyboard-response","142","170596","0.0-142.0","3QUO65DNQVACXULAY7KD4090EM8OUS","A2DVV59R1CQU6T","3UAU495MIIEABANG75FBFHDC9WUUOI","","","img/flower5.png","76","796.7000000476837","3","0","1","1,0.5,0.5,0.5,1,0.5,0.5,0.5,1",""
"null","","html-keyboard-response","143","170906","0.0-143.0","3QUO65DNQVACXULAY7KD4090EM8OUS","A2DVV59R1CQU6T","3UAU495MIIEABANG75FBFHDC9WUUOI","","","<img src=""img/flower5.png"" style=""width:200px;border:14px solid red;"">","null","","","","","",""
"458.90000009536743","","image-keyboard-response","144","171366","0.0-144.0","3QUO65DNQVACXULAY7KD4090EM8OUS","A2DVV59R1CQU6T","3UAU495MIIEABANG75FBFHDC9WUUOI","","","img/flower5.png","76","459.89999997615814","3","0","1","1,0.5,0.5,0.5,1,0.5,0.5,0.5,1",""
"null","","html-keyboard-response","145","171671","0.0-145.0","3QUO65DNQVACXULAY7KD4090EM8OUS","A2DVV59R1CQU6T","3UAU495MIIEABANG75FBFHDC9WUUOI","","","<img src=""img/flower5.png"" style=""width:200px;border:14px solid red;"">","null","","","","","",""
"951.8000000715256","","image-keyboard-response","146","172624","0.0-146.0","3QUO65DNQVACXULAY7KD4090EM8OUS","A2DVV59R1CQU6T","3UAU495MIIEABANG75FBFHDC9WUUOI","","","img/flower2.png","75","953.2999999523163","2","1","2","1,0.5,0.5,0.5,1,0.5,0.5,0.5,1",""
"null","","html-keyboard-response","147","172934","0.0-147.0","3QUO65DNQVACXULAY7KD4090EM8OUS","A2DVV59R1CQU6T","3UAU495MIIEABANG75FBFHDC9WUUOI","","","<img src=""img/flower2.png"" style=""width:200px; border:14px solid green;"">","null","","","","","",""
"1113.8999999761581","","image-keyboard-response","148","174049","0.0-148.0","3QUO65DNQVACXULAY7KD4090EM8OUS","A2DVV59R1CQU6T","3UAU495MIIEABANG75FBFHDC9WUUOI","","","img/flower2.png","75","1114.9000000953674","2","1","2","1,0.5,0.5,0.5,1,0.5,0.5,0.5,1",""
"null","","html-keyboard-response","149","174352","0.0-149.0","3QUO65DNQVACXULAY7KD4090EM8OUS","A2DVV59R1CQU6T","3UAU495MIIEABANG75FBFHDC9WUUOI","","","<img src=""img/flower2.png"" style=""width:200px; border:14px solid green;"">","null","","","","","",""
"550.8999999761581","","image-keyboard-response","150","174905","0.0-150.0","3QUO65DNQVACXULAY7KD4090EM8OUS","A2DVV59R1CQU6T","3UAU495MIIEABANG75FBFHDC9WUUOI","","","img/flower2.png","75","552.1999999284744","2","1","2","1,0.5,0.5,0.5,1,0.5,0.5,0.5,1",""
"null","","html-keyboard-response","151","175214","0.0-151.0","3QUO65DNQVACXULAY7KD4090EM8OUS","A2DVV59R1CQU6T","3UAU495MIIEABANG75FBFHDC9WUUOI","","","<img src=""img/flower2.png"" style=""width:200px; border:14px solid green;"">","null","","","","","",""
"604.2999999523163","","image-keyboard-response","152","175820","0.0-152.0","3QUO65DNQVACXULAY7KD4090EM8OUS","A2DVV59R1CQU6T","3UAU495MIIEABANG75FBFHDC9WUUOI","","","img/flower3.png","74","605.2999999523163","1","1","3","1,0.5,0.5,0.5,1,0.5,0.5,0.5,1",""
"null","","html-keyboard-response","153","176122","0.0-153.0","3QUO65DNQVACXULAY7KD4090EM8OUS","A2DVV59R1CQU6T","3UAU495MIIEABANG75FBFHDC9WUUOI","","","<img src=""img/flower3.png"" style=""width:200px; border:14px solid green;"">","null","","","","","",""
"467.6999999284744","","image-keyboard-response","154","176591","0.0-154.0","3QUO65DNQVACXULAY7KD4090EM8OUS","A2DVV59R1CQU6T","3UAU495MIIEABANG75FBFHDC9WUUOI","","","img/flower3.png","74","468.39999997615814","1","0","3","1,0.5,0.5,0.5,1,0.5,0.5,0.5,1",""
"null","","html-keyboard-response","155","176906","0.0-155.0","3QUO65DNQVACXULAY7KD4090EM8OUS","A2DVV59R1CQU6T","3UAU495MIIEABANG75FBFHDC9WUUOI","","","<img src=""img/flower3.png"" style=""width:200px;border:14px solid red;"">","null","","","","","",""
"616.2000000476837","","image-keyboard-response","156","177524","0.0-156.0","3QUO65DNQVACXULAY7KD4090EM8OUS","A2DVV59R1CQU6T","3UAU495MIIEABANG75FBFHDC9WUUOI","","","img/flower2.png","76","617.2999999523163","3","0","2","1,0.5,0.5,0.5,1,0.5,0.5,0.5,1",""
"null","","html-keyboard-response","157","177828","0.0-157.0","3QUO65DNQVACXULAY7KD4090EM8OUS","A2DVV59R1CQU6T","3UAU495MIIEABANG75FBFHDC9WUUOI","","","<img src=""img/flower2.png"" style=""width:200px;border:14px solid red;"">","null","","","","","",""
"470","","image-keyboard-response","158","178299","0.0-158.0","3QUO65DNQVACXULAY7KD4090EM8OUS","A2DVV59R1CQU6T","3UAU495MIIEABANG75FBFHDC9WUUOI","","","img/flower2.png","75","470.6999999284744","2","1","2","1,0.5,0.5,0.5,1,0.5,0.5,0.5,1",""
"null","","html-keyboard-response","159","178609","0.0-159.0","3QUO65DNQVACXULAY7KD4090EM8OUS","A2DVV59R1CQU6T","3UAU495MIIEABANG75FBFHDC9WUUOI","","","<img src=""img/flower2.png"" style=""width:200px; border:14px solid green;"">","null","","","","","",""
"469.89999997615814","","image-keyboard-response","160","179080","0.0-160.0","3QUO65DNQVACXULAY7KD4090EM8OUS","A2DVV59R1CQU6T","3UAU495MIIEABANG75FBFHDC9WUUOI","","","img/flower2.png","75","470.7999999523163","2","1","2","1,0.5,0.5,0.5,1,0.5,0.5,0.5,1",""
"null","","html-keyboard-response","161","179389","0.0-161.0","3QUO65DNQVACXULAY7KD4090EM8OUS","A2DVV59R1CQU6T","3UAU495MIIEABANG75FBFHDC9WUUOI","","","<img src=""img/flower2.png"" style=""width:200px; border:14px solid green;"">","null","","","","","",""
"469.10000002384186","","image-keyboard-response","162","179860","0.0-162.0","3QUO65DNQVACXULAY7KD4090EM8OUS","A2DVV59R1CQU6T","3UAU495MIIEABANG75FBFHDC9WUUOI","","","img/flower2.png","75","470","2","1","2","1,0.5,0.5,0.5,1,0.5,0.5,0.5,1",""
"null","","html-keyboard-response","163","180166","0.0-163.0","3QUO65DNQVACXULAY7KD4090EM8OUS","A2DVV59R1CQU6T","3UAU495MIIEABANG75FBFHDC9WUUOI","","","<img src=""img/flower2.png"" style=""width:200px; border:14px solid green;"">","null","","","","","",""
"585.6000000238419","","image-keyboard-response","164","180753","0.0-164.0","3QUO65DNQVACXULAY7KD4090EM8OUS","A2DVV59R1CQU6T","3UAU495MIIEABANG75FBFHDC9WUUOI","","","img/flower3.png","76","586.6999999284744","3","1","3","1,0.5,0.5,0.5,1,0.5,0.5,0.5,1",""
"null","","html-keyboard-response","165","181056","0.0-165.0","3QUO65DNQVACXULAY7KD4090EM8OUS","A2DVV59R1CQU6T","3UAU495MIIEABANG75FBFHDC9WUUOI","","","<img src=""img/flower3.png"" style=""width:200px; border:14px solid green;"">","null","","","","","",""
"1197.6000000238419","","image-keyboard-response","166","182255","0.0-166.0","3QUO65DNQVACXULAY7KD4090EM8OUS","A2DVV59R1CQU6T","3UAU495MIIEABANG75FBFHDC9WUUOI","","","img/flower5.png","74","1198.6999999284744","1","1","1","1,0.5,0.5,0.5,1,0.5,0.5,0.5,1",""
"null","","html-keyboard-response","167","182571","0.0-167.0","3QUO65DNQVACXULAY7KD4090EM8OUS","A2DVV59R1CQU6T","3UAU495MIIEABANG75FBFHDC9WUUOI","","","<img src=""img/flower5.png"" style=""width:200px; border:14px solid green;"">","null","","","","","",""
"448.59999990463257","","image-keyboard-response","168","183021","0.0-168.0","3QUO65DNQVACXULAY7KD4090EM8OUS","A2DVV59R1CQU6T","3UAU495MIIEABANG75FBFHDC9WUUOI","","","img/flower5.png","74","449.7000000476837","1","1","1","1,0.5,0.5,0.5,1,0.5,0.5,0.5,1",""
"null","","html-keyboard-response","169","183336","0.0-169.0","3QUO65DNQVACXULAY7KD4090EM8OUS","A2DVV59R1CQU6T","3UAU495MIIEABANG75FBFHDC9WUUOI","","","<img src=""img/flower5.png"" style=""width:200px; border:14px solid green;"">","null","","","","","",""
"750","","image-keyboard-response","170","184088","0.0-170.0","3QUO65DNQVACXULAY7KD4090EM8OUS","A2DVV59R1CQU6T","3UAU495MIIEABANG75FBFHDC9WUUOI","","","img/flower2.png","75","751","2","1","2","1,0.5,0.5,0.5,1,0.5,0.5,0.5,1",""
"null","","html-keyboard-response","171","184402","0.0-171.0","3QUO65DNQVACXULAY7KD4090EM8OUS","A2DVV59R1CQU6T","3UAU495MIIEABANG75FBFHDC9WUUOI","","","<img src=""img/flower2.png"" style=""width:200px; border:14px solid green;"">","null","","","","","",""
"449.7999999523163","","image-keyboard-response","172","184854","0.0-172.0","3QUO65DNQVACXULAY7KD4090EM8OUS","A2DVV59R1CQU6T","3UAU495MIIEABANG75FBFHDC9WUUOI","","","img/flower2.png","75","451.09999990463257","2","1","2","1,0.5,0.5,0.5,1,0.5,0.5,0.5,1",""
"null","","html-keyboard-response","173","185163","0.0-173.0","3QUO65DNQVACXULAY7KD4090EM8OUS","A2DVV59R1CQU6T","3UAU495MIIEABANG75FBFHDC9WUUOI","","","<img src=""img/flower2.png"" style=""width:200px; border:14px solid green;"">","null","","","","","",""
"566.1000000238419","","image-keyboard-response","174","185731","0.0-174.0","3QUO65DNQVACXULAY7KD4090EM8OUS","A2DVV59R1CQU6T","3UAU495MIIEABANG75FBFHDC9WUUOI","","","img/flower2.png","75","567.2000000476837","2","1","2","1,0.5,0.5,0.5,1,0.5,0.5,0.5,1",""
"null","","html-keyboard-response","175","186034","0.0-175.0","3QUO65DNQVACXULAY7KD4090EM8OUS","A2DVV59R1CQU6T","3UAU495MIIEABANG75FBFHDC9WUUOI","","","<img src=""img/flower2.png"" style=""width:200px; border:14px solid green;"">","null","","","","","",""
"1493.8999999761581","","image-keyboard-response","176","187529","0.0-176.0","3QUO65DNQVACXULAY7KD4090EM8OUS","A2DVV59R1CQU6T","3UAU495MIIEABANG75FBFHDC9WUUOI","","","img/flower5.png","76","1494.7000000476837","3","0","1","1,0.5,0.5,0.5,1,0.5,0.5,0.5,1",""
"null","","html-keyboard-response","177","187845","0.0-177.0","3QUO65DNQVACXULAY7KD4090EM8OUS","A2DVV59R1CQU6T","3UAU495MIIEABANG75FBFHDC9WUUOI","","","<img src=""img/flower5.png"" style=""width:200px;border:14px solid red;"">","null","","","","","",""
"452.40000009536743","","image-keyboard-response","178","188299","0.0-178.0","3QUO65DNQVACXULAY7KD4090EM8OUS","A2DVV59R1CQU6T","3UAU495MIIEABANG75FBFHDC9WUUOI","","","img/flower5.png","74","453.2999999523163","1","1","1","1,0.5,0.5,0.5,1,0.5,0.5,0.5,1",""
"null","","html-keyboard-response","179","188612","0.0-179.0","3QUO65DNQVACXULAY7KD4090EM8OUS","A2DVV59R1CQU6T","3UAU495MIIEABANG75FBFHDC9WUUOI","","","<img src=""img/flower5.png"" style=""width:200px; border:14px solid green;"">","null","","","","","",""
"1097.3999999761581","","image-keyboard-response","180","189711","0.0-180.0","3QUO65DNQVACXULAY7KD4090EM8OUS","A2DVV59R1CQU6T","3UAU495MIIEABANG75FBFHDC9WUUOI","","","img/flower3.png","76","1098.2999999523163","3","1","3","1,0.5,0.5,0.5,1,0.5,0.5,0.5,1",""
"null","","html-keyboard-response","181","190018","0.0-181.0","3QUO65DNQVACXULAY7KD4090EM8OUS","A2DVV59R1CQU6T","3UAU495MIIEABANG75FBFHDC9WUUOI","","","<img src=""img/flower3.png"" style=""width:200px; border:14px solid green;"">","null","","","","","",""
"362.5","","image-keyboard-response","182","190381","0.0-182.0","3QUO65DNQVACXULAY7KD4090EM8OUS","A2DVV59R1CQU6T","3UAU495MIIEABANG75FBFHDC9WUUOI","","","img/flower3.png","76","363.1999999284744","3","1","3","1,0.5,0.5,0.5,1,0.5,0.5,0.5,1",""
"null","","html-keyboard-response","183","190689","0.0-183.0","3QUO65DNQVACXULAY7KD4090EM8OUS","A2DVV59R1CQU6T","3UAU495MIIEABANG75FBFHDC9WUUOI","","","<img src=""img/flower3.png"" style=""width:200px; border:14px solid green;"">","null","","","","","",""
"459.60000002384186","","image-keyboard-response","184","191150","0.0-184.0","3QUO65DNQVACXULAY7KD4090EM8OUS","A2DVV59R1CQU6T","3UAU495MIIEABANG75FBFHDC9WUUOI","","","img/flower3.png","76","460.6999999284744","3","1","3","1,0.5,0.5,0.5,1,0.5,0.5,0.5,1",""
"null","","html-keyboard-response","185","191453","0.0-185.0","3QUO65DNQVACXULAY7KD4090EM8OUS","A2DVV59R1CQU6T","3UAU495MIIEABANG75FBFHDC9WUUOI","","","<img src=""img/flower3.png"" style=""width:200px; border:14px solid green;"">","null","","","","","",""
"867","","image-keyboard-response","186","192321","0.0-186.0","3QUO65DNQVACXULAY7KD4090EM8OUS","A2DVV59R1CQU6T","3UAU495MIIEABANG75FBFHDC9WUUOI","","","img/flower5.png","74","868.2999999523163","1","1","1","1,0.5,0.5,0.5,1,0.5,0.5,0.5,1",""
"null","","html-keyboard-response","187","192638","0.0-187.0","3QUO65DNQVACXULAY7KD4090EM8OUS","A2DVV59R1CQU6T","3UAU495MIIEABANG75FBFHDC9WUUOI","","","<img src=""img/flower5.png"" style=""width:200px; border:14px solid green;"">","null","","","","","",""
"716.2000000476837","","image-keyboard-response","188","193355","0.0-188.0","3QUO65DNQVACXULAY7KD4090EM8OUS","A2DVV59R1CQU6T","3UAU495MIIEABANG75FBFHDC9WUUOI","","","img/flower2.png","75","717.3999999761581","2","1","2","1,0.5,0.5,0.5,1,0.5,0.5,0.5,1",""
"null","","html-keyboard-response","189","193670","0.0-189.0","3QUO65DNQVACXULAY7KD4090EM8OUS","A2DVV59R1CQU6T","3UAU495MIIEABANG75FBFHDC9WUUOI","","","<img src=""img/flower2.png"" style=""width:200px; border:14px solid green;"">","null","","","","","",""
"694.5","","image-keyboard-response","190","194365","0.0-190.0","3QUO65DNQVACXULAY7KD4090EM8OUS","A2DVV59R1CQU6T","3UAU495MIIEABANG75FBFHDC9WUUOI","","","img/flower5.png","74","695.2999999523163","1","1","1","1,0.5,0.5,0.5,1,0.5,0.5,0.5,1",""
"null","","html-keyboard-response","191","194671","0.0-191.0","3QUO65DNQVACXULAY7KD4090EM8OUS","A2DVV59R1CQU6T","3UAU495MIIEABANG75FBFHDC9WUUOI","","","<img src=""img/flower5.png"" style=""width:200px; border:14px solid green;"">","null","","","","","",""
"657","","image-keyboard-response","192","195329","0.0-192.0","3QUO65DNQVACXULAY7KD4090EM8OUS","A2DVV59R1CQU6T","3UAU495MIIEABANG75FBFHDC9WUUOI","","","img/flower3.png","76","657.8999999761581","3","1","3","1,0.5,0.5,0.5,1,0.5,0.5,0.5,1",""
"null","","html-keyboard-response","193","195637","0.0-193.0","3QUO65DNQVACXULAY7KD4090EM8OUS","A2DVV59R1CQU6T","3UAU495MIIEABANG75FBFHDC9WUUOI","","","<img src=""img/flower3.png"" style=""width:200px; border:14px solid green;"">","null","","","","","",""
"734.5","","image-keyboard-response","194","196373","0.0-194.0","3QUO65DNQVACXULAY7KD4090EM8OUS","A2DVV59R1CQU6T","3UAU495MIIEABANG75FBFHDC9WUUOI","","","img/flower2.png","75","735.6000000238419","2","1","2","1,0.5,0.5,0.5,1,0.5,0.5,0.5,1",""
"null","","html-keyboard-response","195","196687","0.0-195.0","3QUO65DNQVACXULAY7KD4090EM8OUS","A2DVV59R1CQU6T","3UAU495MIIEABANG75FBFHDC9WUUOI","","","<img src=""img/flower2.png"" style=""width:200px; border:14px solid green;"">","null","","","","","",""
"767.7000000476837","","image-keyboard-response","196","197455","0.0-196.0","3QUO65DNQVACXULAY7KD4090EM8OUS","A2DVV59R1CQU6T","3UAU495MIIEABANG75FBFHDC9WUUOI","","","img/flower3.png","76","768.5","3","1","3","1,0.5,0.5,0.5,1,0.5,0.5,0.5,1",""
"null","","html-keyboard-response","197","197758","0.0-197.0","3QUO65DNQVACXULAY7KD4090EM8OUS","A2DVV59R1CQU6T","3UAU495MIIEABANG75FBFHDC9WUUOI","","","<img src=""img/flower3.png"" style=""width:200px; border:14px solid green;"">","null","","","","","",""
"530.7000000476837","","image-keyboard-response","198","198289","0.0-198.0","3QUO65DNQVACXULAY7KD4090EM8OUS","A2DVV59R1CQU6T","3UAU495MIIEABANG75FBFHDC9WUUOI","","","img/flower2.png","75","531.6000000238419","2","1","2","1,0.5,0.5,0.5,1,0.5,0.5,0.5,1",""
"null","","html-keyboard-response","199","198601","0.0-199.0","3QUO65DNQVACXULAY7KD4090EM8OUS","A2DVV59R1CQU6T","3UAU495MIIEABANG75FBFHDC9WUUOI","","","<img src=""img/flower2.png"" style=""width:200px; border:14px solid green;"">","null","","","","","",""
"537.3000000715256","","image-keyboard-response","200","199140","0.0-200.0","3QUO65DNQVACXULAY7KD4090EM8OUS","A2DVV59R1CQU6T","3UAU495MIIEABANG75FBFHDC9WUUOI","","","img/flower5.png","74","538.6000000238419","1","1","1","1,0.5,0.5,0.5,1,0.5,0.5,0.5,1",""
"null","","html-keyboard-response","201","199444","0.0-201.0","3QUO65DNQVACXULAY7KD4090EM8OUS","A2DVV59R1CQU6T","3UAU495MIIEABANG75FBFHDC9WUUOI","","","<img src=""img/flower5.png"" style=""width:200px; border:14px solid green;"">","null","","","","","",""
"698.7999999523163","","image-keyboard-response","202","200144","0.0-202.0","3QUO65DNQVACXULAY7KD4090EM8OUS","A2DVV59R1CQU6T","3UAU495MIIEABANG75FBFHDC9WUUOI","","","img/flower2.png","75","700.2000000476837","2","1","2","1,0.5,0.5,0.5,1,0.5,0.5,0.5,1",""
"null","","html-keyboard-response","203","200455","0.0-203.0","3QUO65DNQVACXULAY7KD4090EM8OUS","A2DVV59R1CQU6T","3UAU495MIIEABANG75FBFHDC9WUUOI","","","<img src=""img/flower2.png"" style=""width:200px; border:14px solid green;"">","null","","","","","",""
"434.5","","image-keyboard-response","204","200891","0.0-204.0","3QUO65DNQVACXULAY7KD4090EM8OUS","A2DVV59R1CQU6T","3UAU495MIIEABANG75FBFHDC9WUUOI","","","img/flower2.png","75","435.5","2","1","2","1,0.5,0.5,0.5,1,0.5,0.5,0.5,1",""
"null","","html-keyboard-response","205","201204","0.0-205.0","3QUO65DNQVACXULAY7KD4090EM8OUS","A2DVV59R1CQU6T","3UAU495MIIEABANG75FBFHDC9WUUOI","","","<img src=""img/flower2.png"" style=""width:200px; border:14px solid green;"">","null","","","","","",""
"556.1000000238419","","image-keyboard-response","206","201761","0.0-206.0","3QUO65DNQVACXULAY7KD4090EM8OUS","A2DVV59R1CQU6T","3UAU495MIIEABANG75FBFHDC9WUUOI","","","img/flower2.png","75","556.8000000715256","2","1","2","1,0.5,0.5,0.5,1,0.5,0.5,0.5,1",""
"null","","html-keyboard-response","207","202063","0.0-207.0","3QUO65DNQVACXULAY7KD4090EM8OUS","A2DVV59R1CQU6T","3UAU495MIIEABANG75FBFHDC9WUUOI","","","<img src=""img/flower2.png"" style=""width:200px; border:14px solid green;"">","null","","","","","",""
"488.2999999523163","","image-keyboard-response","208","202553","0.0-208.0","3QUO65DNQVACXULAY7KD4090EM8OUS","A2DVV59R1CQU6T","3UAU495MIIEABANG75FBFHDC9WUUOI","","","img/flower3.png","76","489.1999999284744","3","1","3","1,0.5,0.5,0.5,1,0.5,0.5,0.5,1",""
"null","","html-keyboard-response","209","202857","0.0-209.0","3QUO65DNQVACXULAY7KD4090EM8OUS","A2DVV59R1CQU6T","3UAU495MIIEABANG75FBFHDC9WUUOI","","","<img src=""img/flower3.png"" style=""width:200px; border:14px solid green;"">","null","","","","","",""
"756.9000000953674","","image-keyboard-response","210","203615","0.0-210.0","3QUO65DNQVACXULAY7KD4090EM8OUS","A2DVV59R1CQU6T","3UAU495MIIEABANG75FBFHDC9WUUOI","","","img/flower5.png","75","758.1000000238419","2","1","1","1,0.5,0.5,0.5,1,0.5,0.5,0.5,1",""
"null","","html-keyboard-response","211","203918","0.0-211.0","3QUO65DNQVACXULAY7KD4090EM8OUS","A2DVV59R1CQU6T","3UAU495MIIEABANG75FBFHDC9WUUOI","","","<img src=""img/flower5.png"" style=""width:200px; border:14px solid green;"">","null","","","","","",""
"439.6999999284744","","image-keyboard-response","212","204359","0.0-212.0","3QUO65DNQVACXULAY7KD4090EM8OUS","A2DVV59R1CQU6T","3UAU495MIIEABANG75FBFHDC9WUUOI","","","img/flower5.png","75","440.60000002384186","2","0","1","1,0.5,0.5,0.5,1,0.5,0.5,0.5,1",""
"null","","html-keyboard-response","213","204670","0.0-213.0","3QUO65DNQVACXULAY7KD4090EM8OUS","A2DVV59R1CQU6T","3UAU495MIIEABANG75FBFHDC9WUUOI","","","<img src=""img/flower5.png"" style=""width:200px;border:14px solid red;"">","null","","","","","",""
"805","","image-keyboard-response","214","205477","0.0-214.0","3QUO65DNQVACXULAY7KD4090EM8OUS","A2DVV59R1CQU6T","3UAU495MIIEABANG75FBFHDC9WUUOI","","","img/flower3.png","76","806.1000000238419","3","1","3","1,0.5,0.5,0.5,1,0.5,0.5,0.5,1",""
"null","","html-keyboard-response","215","205793","0.0-215.0","3QUO65DNQVACXULAY7KD4090EM8OUS","A2DVV59R1CQU6T","3UAU495MIIEABANG75FBFHDC9WUUOI","","","<img src=""img/flower3.png"" style=""width:200px; border:14px solid green;"">","null","","","","","",""
"478.60000002384186","","image-keyboard-response","216","206273","0.0-216.0","3QUO65DNQVACXULAY7KD4090EM8OUS","A2DVV59R1CQU6T","3UAU495MIIEABANG75FBFHDC9WUUOI","","","img/flower3.png","76","479.6999999284744","3","1","3","1,0.5,0.5,0.5,1,0.5,0.5,0.5,1",""
"null","","html-keyboard-response","217","206589","0.0-217.0","3QUO65DNQVACXULAY7KD4090EM8OUS","A2DVV59R1CQU6T","3UAU495MIIEABANG75FBFHDC9WUUOI","","","<img src=""img/flower3.png"" style=""width:200px; border:14px solid green;"">","null","","","","","",""
"469.7999999523163","","image-keyboard-response","218","207060","0.0-218.0","3QUO65DNQVACXULAY7KD4090EM8OUS","A2DVV59R1CQU6T","3UAU495MIIEABANG75FBFHDC9WUUOI","","","img/flower3.png","76","470.5","3","1","3","1,0.5,0.5,0.5,1,0.5,0.5,0.5,1",""
"null","","html-keyboard-response","219","207372","0.0-219.0","3QUO65DNQVACXULAY7KD4090EM8OUS","A2DVV59R1CQU6T","3UAU495MIIEABANG75FBFHDC9WUUOI","","","<img src=""img/flower3.png"" style=""width:200px; border:14px solid green;"">","null","","","","","",""
"494","","image-keyboard-response","220","207868","0.0-220.0","3QUO65DNQVACXULAY7KD4090EM8OUS","A2DVV59R1CQU6T","3UAU495MIIEABANG75FBFHDC9WUUOI","","","img/flower3.png","76","495.10000002384186","3","1","3","1,0.5,0.5,0.5,1,0.5,0.5,0.5,1",""
"null","","html-keyboard-response","221","208182","0.0-221.0","3QUO65DNQVACXULAY7KD4090EM8OUS","A2DVV59R1CQU6T","3UAU495MIIEABANG75FBFHDC9WUUOI","","","<img src=""img/flower3.png"" style=""width:200px; border:14px solid green;"">","null","","","","","",""
"668.7999999523163","","image-keyboard-response","222","208852","0.0-222.0","3QUO65DNQVACXULAY7KD4090EM8OUS","A2DVV59R1CQU6T","3UAU495MIIEABANG75FBFHDC9WUUOI","","","img/flower5.png","74","669.5999999046326","1","1","1","1,0.5,0.5,0.5,1,0.5,0.5,0.5,1",""
"null","","html-keyboard-response","223","209164","0.0-223.0","3QUO65DNQVACXULAY7KD4090EM8OUS","A2DVV59R1CQU6T","3UAU495MIIEABANG75FBFHDC9WUUOI","","","<img src=""img/flower5.png"" style=""width:200px; border:14px solid green;"">","null","","","","","",""
"832.3000000715256","","image-keyboard-response","224","209997","0.0-224.0","3QUO65DNQVACXULAY7KD4090EM8OUS","A2DVV59R1CQU6T","3UAU495MIIEABANG75FBFHDC9WUUOI","","","img/flower2.png","75","833.3000000715256","2","1","2","1,0.5,0.5,0.5,1,0.5,0.5,0.5,1",""
"null","","html-keyboard-response","225","210312","0.0-225.0","3QUO65DNQVACXULAY7KD4090EM8OUS","A2DVV59R1CQU6T","3UAU495MIIEABANG75FBFHDC9WUUOI","","","<img src=""img/flower2.png"" style=""width:200px; border:14px solid green;"">","null","","","","","",""
"592.7999999523163","","image-keyboard-response","226","210906","0.0-226.0","3QUO65DNQVACXULAY7KD4090EM8OUS","A2DVV59R1CQU6T","3UAU495MIIEABANG75FBFHDC9WUUOI","","","img/flower3.png","76","593.6999999284744","3","1","3","1,0.5,0.5,0.5,1,0.5,0.5,0.5,1",""
"null","","html-keyboard-response","227","211220","0.0-227.0","3QUO65DNQVACXULAY7KD4090EM8OUS","A2DVV59R1CQU6T","3UAU495MIIEABANG75FBFHDC9WUUOI","","","<img src=""img/flower3.png"" style=""width:200px; border:14px solid green;"">","null","","","","","",""
"742.2999999523163","","image-keyboard-response","228","211964","0.0-228.0","3QUO65DNQVACXULAY7KD4090EM8OUS","A2DVV59R1CQU6T","3UAU495MIIEABANG75FBFHDC9WUUOI","","","img/flower2.png","75","743.2000000476837","2","1","2","1,0.5,0.5,0.5,1,0.5,0.5,0.5,1",""
"null","","html-keyboard-response","229","212274","0.0-229.0","3QUO65DNQVACXULAY7KD4090EM8OUS","A2DVV59R1CQU6T","3UAU495MIIEABANG75FBFHDC9WUUOI","","","<img src=""img/flower2.png"" style=""width:200px; border:14px solid green;"">","null","","","","","",""
"585.1999999284744","","image-keyboard-response","230","212860","0.0-230.0","3QUO65DNQVACXULAY7KD4090EM8OUS","A2DVV59R1CQU6T","3UAU495MIIEABANG75FBFHDC9WUUOI","","","img/flower3.png","76","586.3999999761581","3","1","3","1,0.5,0.5,0.5,1,0.5,0.5,0.5,1",""
"null","","html-keyboard-response","231","213162","0.0-231.0","3QUO65DNQVACXULAY7KD4090EM8OUS","A2DVV59R1CQU6T","3UAU495MIIEABANG75FBFHDC9WUUOI","","","<img src=""img/flower3.png"" style=""width:200px; border:14px solid green;"">","null","","","","","",""
"883.8999999761581","","image-keyboard-response","232","214048","0.0-232.0","3QUO65DNQVACXULAY7KD4090EM8OUS","A2DVV59R1CQU6T","3UAU495MIIEABANG75FBFHDC9WUUOI","","","img/flower2.png","75","885.1000000238419","2","1","2","1,0.5,0.5,0.5,1,0.5,0.5,0.5,1",""
"null","","html-keyboard-response","233","214364","0.0-233.0","3QUO65DNQVACXULAY7KD4090EM8OUS","A2DVV59R1CQU6T","3UAU495MIIEABANG75FBFHDC9WUUOI","","","<img src=""img/flower2.png"" style=""width:200px; border:14px solid green;"">","null","","","","","",""
"1169.6999999284744","","image-keyboard-response","234","215535","0.0-234.0","3QUO65DNQVACXULAY7KD4090EM8OUS","A2DVV59R1CQU6T","3UAU495MIIEABANG75FBFHDC9WUUOI","","","img/flower5.png","74","1170.7000000476837","1","1","1","1,0.5,0.5,0.5,1,0.5,0.5,0.5,1",""
"null","","html-keyboard-response","235","215850","0.0-235.0","3QUO65DNQVACXULAY7KD4090EM8OUS","A2DVV59R1CQU6T","3UAU495MIIEABANG75FBFHDC9WUUOI","","","<img src=""img/flower5.png"" style=""width:200px; border:14px solid green;"">","null","","","","","",""
"714.2000000476837","","image-keyboard-response","236","216566","0.0-236.0","3QUO65DNQVACXULAY7KD4090EM8OUS","A2DVV59R1CQU6T","3UAU495MIIEABANG75FBFHDC9WUUOI","","","img/flower2.png","75","715.3999999761581","2","1","2","1,0.5,0.5,0.5,1,0.5,0.5,0.5,1",""
"null","","html-keyboard-response","237","216941","0.0-237.0","3QUO65DNQVACXULAY7KD4090EM8OUS","A2DVV59R1CQU6T","3UAU495MIIEABANG75FBFHDC9WUUOI","","","<img src=""img/flower2.png"" style=""width:200px; border:14px solid green;"">","null","","","","","",""
"1337.2000000476837","","image-keyboard-response","238","218279","0.0-238.0","3QUO65DNQVACXULAY7KD4090EM8OUS","A2DVV59R1CQU6T","3UAU495MIIEABANG75FBFHDC9WUUOI","","","img/flower5.png","74","1338.2000000476837","1","1","1","1,0.5,0.5,0.5,1,0.5,0.5,0.5,1",""
"null","","html-keyboard-response","239","218593","0.0-239.0","3QUO65DNQVACXULAY7KD4090EM8OUS","A2DVV59R1CQU6T","3UAU495MIIEABANG75FBFHDC9WUUOI","","","<img src=""img/flower5.png"" style=""width:200px; border:14px solid green;"">","null","","","","","",""
"672.2999999523163","","image-keyboard-response","240","219266","0.0-240.0","3QUO65DNQVACXULAY7KD4090EM8OUS","A2DVV59R1CQU6T","3UAU495MIIEABANG75FBFHDC9WUUOI","","","img/flower2.png","75","673.1000000238419","2","1","2","1,0.5,0.5,0.5,1,0.5,0.5,0.5,1",""
"null","","html-keyboard-response","241","219573","0.0-241.0","3QUO65DNQVACXULAY7KD4090EM8OUS","A2DVV59R1CQU6T","3UAU495MIIEABANG75FBFHDC9WUUOI","","","<img src=""img/flower2.png"" style=""width:200px; border:14px solid green;"">","null","","","","","",""
"488.90000009536743","","image-keyboard-response","242","220063","0.0-242.0","3QUO65DNQVACXULAY7KD4090EM8OUS","A2DVV59R1CQU6T","3UAU495MIIEABANG75FBFHDC9WUUOI","","","img/flower3.png","76","489.89999997615814","3","1","3","1,0.5,0.5,0.5,1,0.5,0.5,0.5,1",""
"null","","html-keyboard-response","243","220368","0.0-243.0","3QUO65DNQVACXULAY7KD4090EM8OUS","A2DVV59R1CQU6T","3UAU495MIIEABANG75FBFHDC9WUUOI","","","<img src=""img/flower3.png"" style=""width:200px; border:14px solid green;"">","null","","","","","",""
"652.8999999761581","","image-keyboard-response","244","221022","0.0-244.0","3QUO65DNQVACXULAY7KD4090EM8OUS","A2DVV59R1CQU6T","3UAU495MIIEABANG75FBFHDC9WUUOI","","","img/flower5.png","74","653.8999999761581","1","1","1","1,0.5,0.5,0.5,1,0.5,0.5,0.5,1",""
"null","","html-keyboard-response","245","221339","0.0-245.0","3QUO65DNQVACXULAY7KD4090EM8OUS","A2DVV59R1CQU6T","3UAU495MIIEABANG75FBFHDC9WUUOI","","","<img src=""img/flower5.png"" style=""width:200px; border:14px solid green;"">","null","","","","","",""
"659.9000000953674","","image-keyboard-response","246","222000","0.0-246.0","3QUO65DNQVACXULAY7KD4090EM8OUS","A2DVV59R1CQU6T","3UAU495MIIEABANG75FBFHDC9WUUOI","","","img/flower3.png","76","661.2000000476837","3","1","3","1,0.5,0.5,0.5,1,0.5,0.5,0.5,1",""
"null","","html-keyboard-response","247","222309","0.0-247.0","3QUO65DNQVACXULAY7KD4090EM8OUS","A2DVV59R1CQU6T","3UAU495MIIEABANG75FBFHDC9WUUOI","","","<img src=""img/flower3.png"" style=""width:200px; border:14px solid green;"">","null","","","","","",""
"541.7999999523163","","image-keyboard-response","248","222852","0.0-248.0","3QUO65DNQVACXULAY7KD4090EM8OUS","A2DVV59R1CQU6T","3UAU495MIIEABANG75FBFHDC9WUUOI","","","img/flower5.png","75","542.6000000238419","2","1","1","1,0.5,0.5,0.5,1,0.5,0.5,0.5,1",""
"null","","html-keyboard-response","249","223168","0.0-249.0","3QUO65DNQVACXULAY7KD4090EM8OUS","A2DVV59R1CQU6T","3UAU495MIIEABANG75FBFHDC9WUUOI","","","<img src=""img/flower5.png"" style=""width:200px; border:14px solid green;"">","null","","","","","",""
"895.8999999761581","","image-keyboard-response","250","224065","0.0-250.0","3QUO65DNQVACXULAY7KD4090EM8OUS","A2DVV59R1CQU6T","3UAU495MIIEABANG75FBFHDC9WUUOI","","","img/flower2.png","75","896.7000000476837","2","1","2","1,0.5,0.5,0.5,1,0.5,0.5,0.5,1",""
"null","","html-keyboard-response","251","224372","0.0-251.0","3QUO65DNQVACXULAY7KD4090EM8OUS","A2DVV59R1CQU6T","3UAU495MIIEABANG75FBFHDC9WUUOI","","","<img src=""img/flower2.png"" style=""width:200px; border:14px solid green;"">","null","","","","","",""
"906.2000000476837","","image-keyboard-response","252","225280","0.0-252.0","3QUO65DNQVACXULAY7KD4090EM8OUS","A2DVV59R1CQU6T","3UAU495MIIEABANG75FBFHDC9WUUOI","","","img/flower5.png","74","907.2000000476837","1","1","1","1,0.5,0.5,0.5,1,0.5,0.5,0.5,1",""
"null","","html-keyboard-response","253","225586","0.0-253.0","3QUO65DNQVACXULAY7KD4090EM8OUS","A2DVV59R1CQU6T","3UAU495MIIEABANG75FBFHDC9WUUOI","","","<img src=""img/flower5.png"" style=""width:200px; border:14px solid green;"">","null","","","","","",""
"550.3000000715256","","image-keyboard-response","254","226138","0.0-254.0","3QUO65DNQVACXULAY7KD4090EM8OUS","A2DVV59R1CQU6T","3UAU495MIIEABANG75FBFHDC9WUUOI","","","img/flower5.png","74","551.2000000476837","1","1","1","1,0.5,0.5,0.5,1,0.5,0.5,0.5,1",""
"null","","html-keyboard-response","255","226444","0.0-255.0","3QUO65DNQVACXULAY7KD4090EM8OUS","A2DVV59R1CQU6T","3UAU495MIIEABANG75FBFHDC9WUUOI","","","<img src=""img/flower5.png"" style=""width:200px; border:14px solid green;"">","null","","","","","",""
"731.2999999523163","","image-keyboard-response","256","227176","0.0-256.0","3QUO65DNQVACXULAY7KD4090EM8OUS","A2DVV59R1CQU6T","3UAU495MIIEABANG75FBFHDC9WUUOI","","","img/flower3.png","76","732.1000000238419","3","1","3","1,0.5,0.5,0.5,1,0.5,0.5,0.5,1",""
"null","","html-keyboard-response","257","227488","0.0-257.0","3QUO65DNQVACXULAY7KD4090EM8OUS","A2DVV59R1CQU6T","3UAU495MIIEABANG75FBFHDC9WUUOI","","","<img src=""img/flower3.png"" style=""width:200px; border:14px solid green;"">","null","","","","","",""
"470.7000000476837","","image-keyboard-response","258","227960","0.0-258.0","3QUO65DNQVACXULAY7KD4090EM8OUS","A2DVV59R1CQU6T","3UAU495MIIEABANG75FBFHDC9WUUOI","","","img/flower3.png","76","471.6999999284744","3","1","3","1,0.5,0.5,0.5,1,0.5,0.5,0.5,1",""
"null","","html-keyboard-response","259","228266","0.0-259.0","3QUO65DNQVACXULAY7KD4090EM8OUS","A2DVV59R1CQU6T","3UAU495MIIEABANG75FBFHDC9WUUOI","","","<img src=""img/flower3.png"" style=""width:200px; border:14px solid green;"">","null","","","","","",""
"468.7999999523163","","image-keyboard-response","260","228736","0.0-260.0","3QUO65DNQVACXULAY7KD4090EM8OUS","A2DVV59R1CQU6T","3UAU495MIIEABANG75FBFHDC9WUUOI","","","img/flower3.png","76","469.7000000476837","3","1","3","1,0.5,0.5,0.5,1,0.5,0.5,0.5,1",""
"null","","html-keyboard-response","261","229049","0.0-261.0","3QUO65DNQVACXULAY7KD4090EM8OUS","A2DVV59R1CQU6T","3UAU495MIIEABANG75FBFHDC9WUUOI","","","<img src=""img/flower3.png"" style=""width:200px; border:14px solid green;"">","null","","","","","",""
"618.2000000476837","","image-keyboard-response","262","229668","0.0-262.0","3QUO65DNQVACXULAY7KD4090EM8OUS","A2DVV59R1CQU6T","3UAU495MIIEABANG75FBFHDC9WUUOI","","","img/flower3.png","76","619","3","1","3","1,0.5,0.5,0.5,1,0.5,0.5,0.5,1",""
"null","","html-keyboard-response","263","229972","0.0-263.0","3QUO65DNQVACXULAY7KD4090EM8OUS","A2DVV59R1CQU6T","3UAU495MIIEABANG75FBFHDC9WUUOI","","","<img src=""img/flower3.png"" style=""width:200px; border:14px solid green;"">","null","","","","","",""
"482.10000002384186","","image-keyboard-response","264","230455","0.0-264.0","3QUO65DNQVACXULAY7KD4090EM8OUS","A2DVV59R1CQU6T","3UAU495MIIEABANG75FBFHDC9WUUOI","","","img/flower3.png","76","482.89999997615814","3","1","3","1,0.5,0.5,0.5,1,0.5,0.5,0.5,1",""
"null","","html-keyboard-response","265","230768","0.0-265.0","3QUO65DNQVACXULAY7KD4090EM8OUS","A2DVV59R1CQU6T","3UAU495MIIEABANG75FBFHDC9WUUOI","","","<img src=""img/flower3.png"" style=""width:200px; border:14px solid green;"">","null","","","","","",""
"474.2999999523163","","image-keyboard-response","266","231243","0.0-266.0","3QUO65DNQVACXULAY7KD4090EM8OUS","A2DVV59R1CQU6T","3UAU495MIIEABANG75FBFHDC9WUUOI","","","img/flower3.png","76","475.10000002384186","3","1","3","1,0.5,0.5,0.5,1,0.5,0.5,0.5,1",""
"null","","html-keyboard-response","267","231550","0.0-267.0","3QUO65DNQVACXULAY7KD4090EM8OUS","A2DVV59R1CQU6T","3UAU495MIIEABANG75FBFHDC9WUUOI","","","<img src=""img/flower3.png"" style=""width:200px; border:14px solid green;"">","null","","","","","",""
"969.5","","image-keyboard-response","268","232521","0.0-268.0","3QUO65DNQVACXULAY7KD4090EM8OUS","A2DVV59R1CQU6T","3UAU495MIIEABANG75FBFHDC9WUUOI","","","img/flower2.png","74","970.2000000476837","1","0","2","1,0.5,0.5,0.5,1,0.5,0.5,0.5,1",""
"null","","html-keyboard-response","269","232827","0.0-269.0","3QUO65DNQVACXULAY7KD4090EM8OUS","A2DVV59R1CQU6T","3UAU495MIIEABANG75FBFHDC9WUUOI","","","<img src=""img/flower2.png"" style=""width:200px;border:14px solid red;"">","null","","","","","",""
"935.8999999761581","","image-keyboard-response","270","233764","0.0-270.0","3QUO65DNQVACXULAY7KD4090EM8OUS","A2DVV59R1CQU6T","3UAU495MIIEABANG75FBFHDC9WUUOI","","","img/flower5.png","74","937","1","1","1","1,0.5,0.5,0.5,1,0.5,0.5,0.5,1",""
"null","","html-keyboard-response","271","234078","0.0-271.0","3QUO65DNQVACXULAY7KD4090EM8OUS","A2DVV59R1CQU6T","3UAU495MIIEABANG75FBFHDC9WUUOI","","","<img src=""img/flower5.png"" style=""width:200px; border:14px solid green;"">","null","","","","","",""
"433.8000000715256","","image-keyboard-response","272","234512","0.0-272.0","3QUO65DNQVACXULAY7KD4090EM8OUS","A2DVV59R1CQU6T","3UAU495MIIEABANG75FBFHDC9WUUOI","","","img/flower2.png","75","434.8000000715256","2","1","2","1,0.5,0.5,0.5,1,0.5,0.5,0.5,1",""
"null","","html-keyboard-response","273","234822","0.0-273.0","3QUO65DNQVACXULAY7KD4090EM8OUS","A2DVV59R1CQU6T","3UAU495MIIEABANG75FBFHDC9WUUOI","","","<img src=""img/flower2.png"" style=""width:200px; border:14px solid green;"">","null","","","","","",""
"644.8000000715256","","image-keyboard-response","274","235468","0.0-274.0","3QUO65DNQVACXULAY7KD4090EM8OUS","A2DVV59R1CQU6T","3UAU495MIIEABANG75FBFHDC9WUUOI","","","img/flower5.png","74","645.5999999046326","1","1","1","1,0.5,0.5,0.5,1,0.5,0.5,0.5,1",""
"null","","html-keyboard-response","275","235773","0.0-275.0","3QUO65DNQVACXULAY7KD4090EM8OUS","A2DVV59R1CQU6T","3UAU495MIIEABANG75FBFHDC9WUUOI","","","<img src=""img/flower5.png"" style=""width:200px; border:14px solid green;"">","null","","","","","",""
"501","","image-keyboard-response","276","236275","0.0-276.0","3QUO65DNQVACXULAY7KD4090EM8OUS","A2DVV59R1CQU6T","3UAU495MIIEABANG75FBFHDC9WUUOI","","","img/flower5.png","74","502.10000002384186","1","1","1","1,0.5,0.5,0.5,1,0.5,0.5,0.5,1",""
"null","","html-keyboard-response","277","236592","0.0-277.0","3QUO65DNQVACXULAY7KD4090EM8OUS","A2DVV59R1CQU6T","3UAU495MIIEABANG75FBFHDC9WUUOI","","","<img src=""img/flower5.png"" style=""width:200px; border:14px solid green;"">","null","","","","","",""
"531.3999999761581","","image-keyboard-response","278","237125","0.0-278.0","3QUO65DNQVACXULAY7KD4090EM8OUS","A2DVV59R1CQU6T","3UAU495MIIEABANG75FBFHDC9WUUOI","","","img/flower2.png","75","532.5","2","1","2","1,0.5,0.5,0.5,1,0.5,0.5,0.5,1",""
"null","","html-keyboard-response","279","237435","0.0-279.0","3QUO65DNQVACXULAY7KD4090EM8OUS","A2DVV59R1CQU6T","3UAU495MIIEABANG75FBFHDC9WUUOI","","","<img src=""img/flower2.png"" style=""width:200px; border:14px solid green;"">","null","","","","","",""
"601.1999999284744","","image-keyboard-response","280","238037","0.0-280.0","3QUO65DNQVACXULAY7KD4090EM8OUS","A2DVV59R1CQU6T","3UAU495MIIEABANG75FBFHDC9WUUOI","","","img/flower3.png","76","602","3","1","3","1,0.5,0.5,0.5,1,0.5,0.5,0.5,1",""
"null","","html-keyboard-response","281","238340","0.0-281.0","3QUO65DNQVACXULAY7KD4090EM8OUS","A2DVV59R1CQU6T","3UAU495MIIEABANG75FBFHDC9WUUOI","","","<img src=""img/flower3.png"" style=""width:200px; border:14px solid green;"">","null","","","","","",""
"1802.1999999284744","","image-keyboard-response","282","240143","0.0-282.0","3QUO65DNQVACXULAY7KD4090EM8OUS","A2DVV59R1CQU6T","3UAU495MIIEABANG75FBFHDC9WUUOI","","","img/flower5.png","74","1803.1000000238419","1","1","1","1,0.5,0.5,0.5,1,0.5,0.5,0.5,1",""
"null","","html-keyboard-response","283","240447","0.0-283.0","3QUO65DNQVACXULAY7KD4090EM8OUS","A2DVV59R1CQU6T","3UAU495MIIEABANG75FBFHDC9WUUOI","","","<img src=""img/flower5.png"" style=""width:200px; border:14px solid green;"">","null","","","","","",""
"415.2999999523163","","image-keyboard-response","284","240863","0.0-284.0","3QUO65DNQVACXULAY7KD4090EM8OUS","A2DVV59R1CQU6T","3UAU495MIIEABANG75FBFHDC9WUUOI","","","img/flower5.png","74","415.89999997615814","1","1","1","1,0.5,0.5,0.5,1,0.5,0.5,0.5,1",""
"null","","html-keyboard-response","285","241179","0.0-285.0","3QUO65DNQVACXULAY7KD4090EM8OUS","A2DVV59R1CQU6T","3UAU495MIIEABANG75FBFHDC9WUUOI","","","<img src=""img/flower5.png"" style=""width:200px; border:14px solid green;"">","null","","","","","",""
"652.7000000476837","","image-keyboard-response","286","241833","0.0-286.0","3QUO65DNQVACXULAY7KD4090EM8OUS","A2DVV59R1CQU6T","3UAU495MIIEABANG75FBFHDC9WUUOI","","","img/flower3.png","76","653.6000000238419","3","1","3","1,0.5,0.5,0.5,1,0.5,0.5,0.5,1",""
"null","","html-keyboard-response","287","242150","0.0-287.0","3QUO65DNQVACXULAY7KD4090EM8OUS","A2DVV59R1CQU6T","3UAU495MIIEABANG75FBFHDC9WUUOI","","","<img src=""img/flower3.png"" style=""width:200px; border:14px solid green;"">","null","","","","","",""
"568.5","","image-keyboard-response","288","242719","0.0-288.0","3QUO65DNQVACXULAY7KD4090EM8OUS","A2DVV59R1CQU6T","3UAU495MIIEABANG75FBFHDC9WUUOI","","","img/flower2.png","75","569.3999999761581","2","1","2","1,0.5,0.5,0.5,1,0.5,0.5,0.5,1",""
"null","","html-keyboard-response","289","243028","0.0-289.0","3QUO65DNQVACXULAY7KD4090EM8OUS","A2DVV59R1CQU6T","3UAU495MIIEABANG75FBFHDC9WUUOI","","","<img src=""img/flower2.png"" style=""width:200px; border:14px solid green;"">","null","","","","","",""
"451.40000009536743","","image-keyboard-response","290","243480","0.0-290.0","3QUO65DNQVACXULAY7KD4090EM8OUS","A2DVV59R1CQU6T","3UAU495MIIEABANG75FBFHDC9WUUOI","","","img/flower2.png","75","452.2000000476837","2","1","2","1,0.5,0.5,0.5,1,0.5,0.5,0.5,1",""
"null","","html-keyboard-response","291","243794","0.0-291.0","3QUO65DNQVACXULAY7KD4090EM8OUS","A2DVV59R1CQU6T","3UAU495MIIEABANG75FBFHDC9WUUOI","","","<img src=""img/flower2.png"" style=""width:200px; border:14px solid green;"">","null","","","","","",""
"462","","image-keyboard-response","292","244257","0.0-292.0","3QUO65DNQVACXULAY7KD4090EM8OUS","A2DVV59R1CQU6T","3UAU495MIIEABANG75FBFHDC9WUUOI","","","img/flower5.png","74","462.7999999523163","1","1","1","1,0.5,0.5,0.5,1,0.5,0.5,0.5,1",""
"null","","html-keyboard-response","293","244562","0.0-293.0","3QUO65DNQVACXULAY7KD4090EM8OUS","A2DVV59R1CQU6T","3UAU495MIIEABANG75FBFHDC9WUUOI","","","<img src=""img/flower5.png"" style=""width:200px; border:14px solid green;"">","null","","","","","",""
"532.8999999761581","","image-keyboard-response","294","245096","0.0-294.0","3QUO65DNQVACXULAY7KD4090EM8OUS","A2DVV59R1CQU6T","3UAU495MIIEABANG75FBFHDC9WUUOI","","","img/flower2.png","75","533.8999999761581","2","1","2","1,0.5,0.5,0.5,1,0.5,0.5,0.5,1",""
"null","","html-keyboard-response","295","245405","0.0-295.0","3QUO65DNQVACXULAY7KD4090EM8OUS","A2DVV59R1CQU6T","3UAU495MIIEABANG75FBFHDC9WUUOI","","","<img src=""img/flower2.png"" style=""width:200px; border:14px solid green;"">","null","","","","","",""
"457.09999990463257","","image-keyboard-response","296","245863","0.0-296.0","3QUO65DNQVACXULAY7KD4090EM8OUS","A2DVV59R1CQU6T","3UAU495MIIEABANG75FBFHDC9WUUOI","","","img/flower2.png","75","458","2","1","2","1,0.5,0.5,0.5,1,0.5,0.5,0.5,1",""
"null","","html-keyboard-response","297","246168","0.0-297.0","3QUO65DNQVACXULAY7KD4090EM8OUS","A2DVV59R1CQU6T","3UAU495MIIEABANG75FBFHDC9WUUOI","","","<img src=""img/flower2.png"" style=""width:200px; border:14px solid green;"">","null","","","","","",""
"587.6000000238419","","image-keyboard-response","298","246757","0.0-298.0","3QUO65DNQVACXULAY7KD4090EM8OUS","A2DVV59R1CQU6T","3UAU495MIIEABANG75FBFHDC9WUUOI","","","img/flower5.png","74","588.7999999523163","1","1","1","1,0.5,0.5,0.5,1,0.5,0.5,0.5,1",""
"null","","html-keyboard-response","299","247069","0.0-299.0","3QUO65DNQVACXULAY7KD4090EM8OUS","A2DVV59R1CQU6T","3UAU495MIIEABANG75FBFHDC9WUUOI","","","<img src=""img/flower5.png"" style=""width:200px; border:14px solid green;"">","null","","","","","",""
"631.5","","image-keyboard-response","300","247702","0.0-300.0","3QUO65DNQVACXULAY7KD4090EM8OUS","A2DVV59R1CQU6T","3UAU495MIIEABANG75FBFHDC9WUUOI","","","img/flower3.png","76","632.6000000238419","3","1","3","1,0.5,0.5,0.5,1,0.5,0.5,0.5,1",""
"null","","html-keyboard-response","301","248009","0.0-301.0","3QUO65DNQVACXULAY7KD4090EM8OUS","A2DVV59R1CQU6T","3UAU495MIIEABANG75FBFHDC9WUUOI","","","<img src=""img/flower3.png"" style=""width:200px; border:14px solid green;"">","null","","","","","",""
"474.2000000476837","","image-keyboard-response","302","248484","0.0-302.0","3QUO65DNQVACXULAY7KD4090EM8OUS","A2DVV59R1CQU6T","3UAU495MIIEABANG75FBFHDC9WUUOI","","","img/flower3.png","76","475.39999997615814","3","1","3","1,0.5,0.5,0.5,1,0.5,0.5,0.5,1",""
"null","","html-keyboard-response","303","248796","0.0-303.0","3QUO65DNQVACXULAY7KD4090EM8OUS","A2DVV59R1CQU6T","3UAU495MIIEABANG75FBFHDC9WUUOI","","","<img src=""img/flower3.png"" style=""width:200px; border:14px solid green;"">","null","","","","","",""
"535.5","","image-keyboard-response","304","249333","0.0-304.0","3QUO65DNQVACXULAY7KD4090EM8OUS","A2DVV59R1CQU6T","3UAU495MIIEABANG75FBFHDC9WUUOI","","","img/flower3.png","76","536.3999999761581","3","1","3","1,0.5,0.5,0.5,1,0.5,0.5,0.5,1",""
"null","","html-keyboard-response","305","249640","0.0-305.0","3QUO65DNQVACXULAY7KD4090EM8OUS","A2DVV59R1CQU6T","3UAU495MIIEABANG75FBFHDC9WUUOI","","","<img src=""img/flower3.png"" style=""width:200px; border:14px solid green;"">","null","","","","","",""
"","","html-keyboard-response","306","274027","0.0-306.0","3QUO65DNQVACXULAY7KD4090EM8OUS","A2DVV59R1CQU6T","3UAU495MIIEABANG75FBFHDC9WUUOI","","","","","","","","","",""
"2212.399999976158","","image-keyboard-response","307","276241","0.0-307.0","3QUO65DNQVACXULAY7KD4090EM8OUS","A2DVV59R1CQU6T","3UAU495MIIEABANG75FBFHDC9WUUOI","","","img/flower1.png","75","2213.6999999284744","2","0","3","1,1,0,0,1,1,1,0,1",""
"null","","html-keyboard-response","308","276544","0.0-308.0","3QUO65DNQVACXULAY7KD4090EM8OUS","A2DVV59R1CQU6T","3UAU495MIIEABANG75FBFHDC9WUUOI","","","<img src=""img/flower1.png"" style=""width:200px;border:14px solid red;"">","null","","","","","",""
"832.8999999761581","","image-keyboard-response","309","277378","0.0-309.0","3QUO65DNQVACXULAY7KD4090EM8OUS","A2DVV59R1CQU6T","3UAU495MIIEABANG75FBFHDC9WUUOI","","","img/flower6.png","76","833.7999999523163","3","0","1","1,1,0,0,1,1,1,0,1",""
"null","","html-keyboard-response","310","277690","0.0-310.0","3QUO65DNQVACXULAY7KD4090EM8OUS","A2DVV59R1CQU6T","3UAU495MIIEABANG75FBFHDC9WUUOI","","","<img src=""img/flower6.png"" style=""width:200px;border:14px solid red;"">","null","","","","","",""
"870","","image-keyboard-response","311","278561","0.0-311.0","3QUO65DNQVACXULAY7KD4090EM8OUS","A2DVV59R1CQU6T","3UAU495MIIEABANG75FBFHDC9WUUOI","","","img/flower4.png","74","870.8000000715256","1","0","2","1,1,0,0,1,1,1,0,1",""
"null","","html-keyboard-response","312","278865","0.0-312.0","3QUO65DNQVACXULAY7KD4090EM8OUS","A2DVV59R1CQU6T","3UAU495MIIEABANG75FBFHDC9WUUOI","","","<img src=""img/flower4.png"" style=""width:200px;border:14px solid red;"">","null","","","","","",""
"791.5999999046326","","image-keyboard-response","313","279658","0.0-313.0","3QUO65DNQVACXULAY7KD4090EM8OUS","A2DVV59R1CQU6T","3UAU495MIIEABANG75FBFHDC9WUUOI","","","img/flower4.png","76","792.6000000238419","3","1","2","1,1,0,0,1,1,1,0,1",""
"null","","html-keyboard-response","314","279970","0.0-314.0","3QUO65DNQVACXULAY7KD4090EM8OUS","A2DVV59R1CQU6T","3UAU495MIIEABANG75FBFHDC9WUUOI","","","<img src=""img/flower4.png"" style=""width:200px; border:14px solid green;"">","null","","","","","",""
"451.8000000715256","","image-keyboard-response","315","280423","0.0-315.0","3QUO65DNQVACXULAY7KD4090EM8OUS","A2DVV59R1CQU6T","3UAU495MIIEABANG75FBFHDC9WUUOI","","","img/flower4.png","76","452.7999999523163","3","1","2","1,1,0,0,1,1,1,0,1",""
"null","","html-keyboard-response","316","280738","0.0-316.0","3QUO65DNQVACXULAY7KD4090EM8OUS","A2DVV59R1CQU6T","3UAU495MIIEABANG75FBFHDC9WUUOI","","","<img src=""img/flower4.png"" style=""width:200px; border:14px solid green;"">","null","","","","","",""
"821.5","","image-keyboard-response","317","281561","0.0-317.0","3QUO65DNQVACXULAY7KD4090EM8OUS","A2DVV59R1CQU6T","3UAU495MIIEABANG75FBFHDC9WUUOI","","","img/flower6.png","75","822.5999999046326","2","1","1","1,1,0,0,1,1,1,0,1",""
"null","","html-keyboard-response","318","281876","0.0-318.0","3QUO65DNQVACXULAY7KD4090EM8OUS","A2DVV59R1CQU6T","3UAU495MIIEABANG75FBFHDC9WUUOI","","","<img src=""img/flower6.png"" style=""width:200px; border:14px solid green;"">","null","","","","","",""
"756.8999999761581","","image-keyboard-response","319","282633","0.0-319.0","3QUO65DNQVACXULAY7KD4090EM8OUS","A2DVV59R1CQU6T","3UAU495MIIEABANG75FBFHDC9WUUOI","","","img/flower1.png","74","757.7999999523163","1","1","3","1,1,0,0,1,1,1,0,1",""
"null","","html-keyboard-response","320","282939","0.0-320.0","3QUO65DNQVACXULAY7KD4090EM8OUS","A2DVV59R1CQU6T","3UAU495MIIEABANG75FBFHDC9WUUOI","","","<img src=""img/flower1.png"" style=""width:200px; border:14px solid green;"">","null","","","","","",""
"415.39999997615814","","image-keyboard-response","321","283355","0.0-321.0","3QUO65DNQVACXULAY7KD4090EM8OUS","A2DVV59R1CQU6T","3UAU495MIIEABANG75FBFHDC9WUUOI","","","img/flower1.png","74","416.40000009536743","1","1","3","1,1,0,0,1,1,1,0,1",""
"null","","html-keyboard-response","322","283671","0.0-322.0","3QUO65DNQVACXULAY7KD4090EM8OUS","A2DVV59R1CQU6T","3UAU495MIIEABANG75FBFHDC9WUUOI","","","<img src=""img/flower1.png"" style=""width:200px; border:14px solid green;"">","null","","","","","",""
"765.9000000953674","","image-keyboard-response","323","284439","0.0-323.0","3QUO65DNQVACXULAY7KD4090EM8OUS","A2DVV59R1CQU6T","3UAU495MIIEABANG75FBFHDC9WUUOI","","","img/flower6.png","75","767","2","1","1","1,1,0,0,1,1,1,0,1",""
"null","","html-keyboard-response","324","284748","0.0-324.0","3QUO65DNQVACXULAY7KD4090EM8OUS","A2DVV59R1CQU6T","3UAU495MIIEABANG75FBFHDC9WUUOI","","","<img src=""img/flower6.png"" style=""width:200px; border:14px solid green;"">","null","","","","","",""
"456.5","","image-keyboard-response","325","285206","0.0-325.0","3QUO65DNQVACXULAY7KD4090EM8OUS","A2DVV59R1CQU6T","3UAU495MIIEABANG75FBFHDC9WUUOI","","","img/flower6.png","75","457.60000002384186","2","1","1","1,1,0,0,1,1,1,0,1",""
"null","","html-keyboard-response","326","285512","0.0-326.0","3QUO65DNQVACXULAY7KD4090EM8OUS","A2DVV59R1CQU6T","3UAU495MIIEABANG75FBFHDC9WUUOI","","","<img src=""img/flower6.png"" style=""width:200px; border:14px solid green;"">","null","","","","","",""
"517.2999999523163","","image-keyboard-response","327","286031","0.0-327.0","3QUO65DNQVACXULAY7KD4090EM8OUS","A2DVV59R1CQU6T","3UAU495MIIEABANG75FBFHDC9WUUOI","","","img/flower4.png","76","518.2000000476837","3","1","2","1,1,0,0,1,1,1,0,1",""
"null","","html-keyboard-response","328","286342","0.0-328.0","3QUO65DNQVACXULAY7KD4090EM8OUS","A2DVV59R1CQU6T","3UAU495MIIEABANG75FBFHDC9WUUOI","","","<img src=""img/flower4.png"" style=""width:200px; border:14px solid green;"">","null","","","","","",""
"845.1999999284744","","image-keyboard-response","329","287189","0.0-329.0","3QUO65DNQVACXULAY7KD4090EM8OUS","A2DVV59R1CQU6T","3UAU495MIIEABANG75FBFHDC9WUUOI","","","img/flower1.png","74","846.3000000715256","1","1","3","1,1,0,0,1,1,1,0,1",""
"null","","html-keyboard-response","330","287499","0.0-330.0","3QUO65DNQVACXULAY7KD4090EM8OUS","A2DVV59R1CQU6T","3UAU495MIIEABANG75FBFHDC9WUUOI","","","<img src=""img/flower1.png"" style=""width:200px; border:14px solid green;"">","null","","","","","",""
"493.5","","image-keyboard-response","331","287993","0.0-331.0","3QUO65DNQVACXULAY7KD4090EM8OUS","A2DVV59R1CQU6T","3UAU495MIIEABANG75FBFHDC9WUUOI","","","img/flower6.png","75","494.59999990463257","2","1","1","1,1,0,0,1,1,1,0,1",""
"null","","html-keyboard-response","332","288295","0.0-332.0","3QUO65DNQVACXULAY7KD4090EM8OUS","A2DVV59R1CQU6T","3UAU495MIIEABANG75FBFHDC9WUUOI","","","<img src=""img/flower6.png"" style=""width:200px; border:14px solid green;"">","null","","","","","",""
"548.2000000476837","","image-keyboard-response","333","288845","0.0-333.0","3QUO65DNQVACXULAY7KD4090EM8OUS","A2DVV59R1CQU6T","3UAU495MIIEABANG75FBFHDC9WUUOI","","","img/flower4.png","76","549.3999999761581","3","1","2","1,1,0,0,1,1,1,0,1",""
"null","","html-keyboard-response","334","289156","0.0-334.0","3QUO65DNQVACXULAY7KD4090EM8OUS","A2DVV59R1CQU6T","3UAU495MIIEABANG75FBFHDC9WUUOI","","","<img src=""img/flower4.png"" style=""width:200px; border:14px solid green;"">","null","","","","","",""
"975.6000000238419","","image-keyboard-response","335","290133","0.0-335.0","3QUO65DNQVACXULAY7KD4090EM8OUS","A2DVV59R1CQU6T","3UAU495MIIEABANG75FBFHDC9WUUOI","","","img/flower1.png","74","976.9000000953674","1","1","3","1,1,0,0,1,1,1,0,1",""
"null","","html-keyboard-response","336","290449","0.0-336.0","3QUO65DNQVACXULAY7KD4090EM8OUS","A2DVV59R1CQU6T","3UAU495MIIEABANG75FBFHDC9WUUOI","","","<img src=""img/flower1.png"" style=""width:200px; border:14px solid green;"">","null","","","","","",""
"495.5","","image-keyboard-response","337","290946","0.0-337.0","3QUO65DNQVACXULAY7KD4090EM8OUS","A2DVV59R1CQU6T","3UAU495MIIEABANG75FBFHDC9WUUOI","","","img/flower1.png","74","497.10000002384186","1","1","3","1,1,0,0,1,1,1,0,1",""
"null","","html-keyboard-response","338","291261","0.0-338.0","3QUO65DNQVACXULAY7KD4090EM8OUS","A2DVV59R1CQU6T","3UAU495MIIEABANG75FBFHDC9WUUOI","","","<img src=""img/flower1.png"" style=""width:200px; border:14px solid green;"">","null","","","","","",""
"602.6000000238419","","image-keyboard-response","339","291865","0.0-339.0","3QUO65DNQVACXULAY7KD4090EM8OUS","A2DVV59R1CQU6T","3UAU495MIIEABANG75FBFHDC9WUUOI","","","img/flower6.png","75","603.9000000953674","2","1","1","1,1,0,0,1,1,1,0,1",""
"null","","html-keyboard-response","340","292180","0.0-340.0","3QUO65DNQVACXULAY7KD4090EM8OUS","A2DVV59R1CQU6T","3UAU495MIIEABANG75FBFHDC9WUUOI","","","<img src=""img/flower6.png"" style=""width:200px; border:14px solid green;"">","null","","","","","",""
"466.2000000476837","","image-keyboard-response","341","292648","0.0-341.0","3QUO65DNQVACXULAY7KD4090EM8OUS","A2DVV59R1CQU6T","3UAU495MIIEABANG75FBFHDC9WUUOI","","","img/flower6.png","75","467.5","2","1","1","1,1,0,0,1,1,1,0,1",""
"null","","html-keyboard-response","342","292957","0.0-342.0","3QUO65DNQVACXULAY7KD4090EM8OUS","A2DVV59R1CQU6T","3UAU495MIIEABANG75FBFHDC9WUUOI","","","<img src=""img/flower6.png"" style=""width:200px; border:14px solid green;"">","null","","","","","",""
"605.8999999761581","","image-keyboard-response","343","293564","0.0-343.0","3QUO65DNQVACXULAY7KD4090EM8OUS","A2DVV59R1CQU6T","3UAU495MIIEABANG75FBFHDC9WUUOI","","","img/flower4.png","76","606.8999999761581","3","1","2","1,1,0,0,1,1,1,0,1",""
"null","","html-keyboard-response","344","293876","0.0-344.0","3QUO65DNQVACXULAY7KD4090EM8OUS","A2DVV59R1CQU6T","3UAU495MIIEABANG75FBFHDC9WUUOI","","","<img src=""img/flower4.png"" style=""width:200px; border:14px solid green;"">","null","","","","","",""
"397.39999997615814","","image-keyboard-response","345","294275","0.0-345.0","3QUO65DNQVACXULAY7KD4090EM8OUS","A2DVV59R1CQU6T","3UAU495MIIEABANG75FBFHDC9WUUOI","","","img/flower4.png","76","398.90000009536743","3","1","2","1,1,0,0,1,1,1,0,1",""
"null","","html-keyboard-response","346","294578","0.0-346.0","3QUO65DNQVACXULAY7KD4090EM8OUS","A2DVV59R1CQU6T","3UAU495MIIEABANG75FBFHDC9WUUOI","","","<img src=""img/flower4.png"" style=""width:200px; border:14px solid green;"">","null","","","","","",""
"446.2999999523163","","image-keyboard-response","347","295025","0.0-347.0","3QUO65DNQVACXULAY7KD4090EM8OUS","A2DVV59R1CQU6T","3UAU495MIIEABANG75FBFHDC9WUUOI","","","img/flower4.png","76","447.2999999523163","3","1","2","1,1,0,0,1,1,1,0,1",""
"null","","html-keyboard-response","348","295343","0.0-348.0","3QUO65DNQVACXULAY7KD4090EM8OUS","A2DVV59R1CQU6T","3UAU495MIIEABANG75FBFHDC9WUUOI","","","<img src=""img/flower4.png"" style=""width:200px; border:14px solid green;"">","null","","","","","",""
"440.10000002384186","","image-keyboard-response","349","295785","0.0-349.0","3QUO65DNQVACXULAY7KD4090EM8OUS","A2DVV59R1CQU6T","3UAU495MIIEABANG75FBFHDC9WUUOI","","","img/flower4.png","76","441.40000009536743","3","1","2","1,1,0,0,1,1,1,0,1",""
"null","","html-keyboard-response","350","296092","0.0-350.0","3QUO65DNQVACXULAY7KD4090EM8OUS","A2DVV59R1CQU6T","3UAU495MIIEABANG75FBFHDC9WUUOI","","","<img src=""img/flower4.png"" style=""width:200px; border:14px solid green;"">","null","","","","","",""
"704.1999999284744","","image-keyboard-response","351","296797","0.0-351.0","3QUO65DNQVACXULAY7KD4090EM8OUS","A2DVV59R1CQU6T","3UAU495MIIEABANG75FBFHDC9WUUOI","","","img/flower6.png","75","705.1000000238419","2","1","1","1,1,0,0,1,1,1,0,1",""
"null","","html-keyboard-response","352","297108","0.0-352.0","3QUO65DNQVACXULAY7KD4090EM8OUS","A2DVV59R1CQU6T","3UAU495MIIEABANG75FBFHDC9WUUOI","","","<img src=""img/flower6.png"" style=""width:200px; border:14px solid green;"">","null","","","","","",""
"716","","image-keyboard-response","353","297825","0.0-353.0","3QUO65DNQVACXULAY7KD4090EM8OUS","A2DVV59R1CQU6T","3UAU495MIIEABANG75FBFHDC9WUUOI","","","img/flower1.png","74","716.9000000953674","1","1","3","1,1,0,0,1,1,1,0,1",""
"null","","html-keyboard-response","354","298141","0.0-354.0","3QUO65DNQVACXULAY7KD4090EM8OUS","A2DVV59R1CQU6T","3UAU495MIIEABANG75FBFHDC9WUUOI","","","<img src=""img/flower1.png"" style=""width:200px; border:14px solid green;"">","null","","","","","",""
"513.2999999523163","","image-keyboard-response","355","298656","0.0-355.0","3QUO65DNQVACXULAY7KD4090EM8OUS","A2DVV59R1CQU6T","3UAU495MIIEABANG75FBFHDC9WUUOI","","","img/flower6.png","75","514.0999999046326","2","1","1","1,1,0,0,1,1,1,0,1",""
"null","","html-keyboard-response","356","298965","0.0-356.0","3QUO65DNQVACXULAY7KD4090EM8OUS","A2DVV59R1CQU6T","3UAU495MIIEABANG75FBFHDC9WUUOI","","","<img src=""img/flower6.png"" style=""width:200px; border:14px solid green;"">","null","","","","","",""
"651.7000000476837","","image-keyboard-response","357","299618","0.0-357.0","3QUO65DNQVACXULAY7KD4090EM8OUS","A2DVV59R1CQU6T","3UAU495MIIEABANG75FBFHDC9WUUOI","","","img/flower4.png","74","652.8999999761581","1","0","2","1,1,0,0,1,1,1,0,1",""
"null","","html-keyboard-response","358","299934","0.0-358.0","3QUO65DNQVACXULAY7KD4090EM8OUS","A2DVV59R1CQU6T","3UAU495MIIEABANG75FBFHDC9WUUOI","","","<img src=""img/flower4.png"" style=""width:200px;border:14px solid red;"">","null","","","","","",""
"452.39999997615814","","image-keyboard-response","359","300388","0.0-359.0","3QUO65DNQVACXULAY7KD4090EM8OUS","A2DVV59R1CQU6T","3UAU495MIIEABANG75FBFHDC9WUUOI","","","img/flower4.png","76","453.3000000715256","3","1","2","1,1,0,0,1,1,1,0,1",""
"null","","html-keyboard-response","360","300699","0.0-360.0","3QUO65DNQVACXULAY7KD4090EM8OUS","A2DVV59R1CQU6T","3UAU495MIIEABANG75FBFHDC9WUUOI","","","<img src=""img/flower4.png"" style=""width:200px; border:14px solid green;"">","null","","","","","",""
"581.3999999761581","","image-keyboard-response","361","301282","0.0-361.0","3QUO65DNQVACXULAY7KD4090EM8OUS","A2DVV59R1CQU6T","3UAU495MIIEABANG75FBFHDC9WUUOI","","","img/flower6.png","75","582.6999999284744","2","1","1","1,1,0,0,1,1,1,0,1",""
"null","","html-keyboard-response","362","301589","0.0-362.0","3QUO65DNQVACXULAY7KD4090EM8OUS","A2DVV59R1CQU6T","3UAU495MIIEABANG75FBFHDC9WUUOI","","","<img src=""img/flower6.png"" style=""width:200px; border:14px solid green;"">","null","","","","","",""
"448.90000009536743","","image-keyboard-response","363","302039","0.0-363.0","3QUO65DNQVACXULAY7KD4090EM8OUS","A2DVV59R1CQU6T","3UAU495MIIEABANG75FBFHDC9WUUOI","","","img/flower6.png","76","450","3","0","1","1,1,0,0,1,1,1,0,1",""
"null","","html-keyboard-response","364","302353","0.0-364.0","3QUO65DNQVACXULAY7KD4090EM8OUS","A2DVV59R1CQU6T","3UAU495MIIEABANG75FBFHDC9WUUOI","","","<img src=""img/flower6.png"" style=""width:200px;border:14px solid red;"">","null","","","","","",""
"529.9000000953674","","image-keyboard-response","365","302884","0.0-365.0","3QUO65DNQVACXULAY7KD4090EM8OUS","A2DVV59R1CQU6T","3UAU495MIIEABANG75FBFHDC9WUUOI","","","img/flower4.png","75","530.7999999523163","2","1","2","1,1,0,0,1,1,1,0,1",""
"null","","html-keyboard-response","366","303201","0.0-366.0","3QUO65DNQVACXULAY7KD4090EM8OUS","A2DVV59R1CQU6T","3UAU495MIIEABANG75FBFHDC9WUUOI","","","<img src=""img/flower4.png"" style=""width:200px; border:14px solid green;"">","null","","","","","",""
"42.199999928474426","","image-keyboard-response","367","303244","0.0-367.0","3QUO65DNQVACXULAY7KD4090EM8OUS","A2DVV59R1CQU6T","3UAU495MIIEABANG75FBFHDC9WUUOI","","","img/flower6.png","76","43.199999928474426","3","0","1","1,1,0,0,1,1,1,0,1",""
"null","","html-keyboard-response","368","303560","0.0-368.0","3QUO65DNQVACXULAY7KD4090EM8OUS","A2DVV59R1CQU6T","3UAU495MIIEABANG75FBFHDC9WUUOI","","","<img src=""img/flower6.png"" style=""width:200px;border:14px solid red;"">","null","","","","","",""
"649.5","","image-keyboard-response","369","304211","0.0-369.0","3QUO65DNQVACXULAY7KD4090EM8OUS","A2DVV59R1CQU6T","3UAU495MIIEABANG75FBFHDC9WUUOI","","","img/flower6.png","75","650.2999999523163","2","1","1","1,1,0,0,1,1,1,0,1",""
"null","","html-keyboard-response","370","304526","0.0-370.0","3QUO65DNQVACXULAY7KD4090EM8OUS","A2DVV59R1CQU6T","3UAU495MIIEABANG75FBFHDC9WUUOI","","","<img src=""img/flower6.png"" style=""width:200px; border:14px solid green;"">","null","","","","","",""
"448","","image-keyboard-response","371","304976","0.0-371.0","3QUO65DNQVACXULAY7KD4090EM8OUS","A2DVV59R1CQU6T","3UAU495MIIEABANG75FBFHDC9WUUOI","","","img/flower6.png","75","449.10000002384186","2","1","1","1,1,0,0,1,1,1,0,1",""
"null","","html-keyboard-response","372","305290","0.0-372.0","3QUO65DNQVACXULAY7KD4090EM8OUS","A2DVV59R1CQU6T","3UAU495MIIEABANG75FBFHDC9WUUOI","","","<img src=""img/flower6.png"" style=""width:200px; border:14px solid green;"">","null","","","","","",""
"680.8999999761581","","image-keyboard-response","373","305972","0.0-373.0","3QUO65DNQVACXULAY7KD4090EM8OUS","A2DVV59R1CQU6T","3UAU495MIIEABANG75FBFHDC9WUUOI","","","img/flower4.png","76","682.2000000476837","3","1","2","1,1,0,0,1,1,1,0,1",""
"null","","html-keyboard-response","374","306276","0.0-374.0","3QUO65DNQVACXULAY7KD4090EM8OUS","A2DVV59R1CQU6T","3UAU495MIIEABANG75FBFHDC9WUUOI","","","<img src=""img/flower4.png"" style=""width:200px; border:14px solid green;"">","null","","","","","",""
"638.6999999284744","","image-keyboard-response","375","306916","0.0-375.0","3QUO65DNQVACXULAY7KD4090EM8OUS","A2DVV59R1CQU6T","3UAU495MIIEABANG75FBFHDC9WUUOI","","","img/flower6.png","75","639.5","2","1","1","1,1,0,0,1,1,1,0,1",""
"null","","html-keyboard-response","376","307233","0.0-376.0","3QUO65DNQVACXULAY7KD4090EM8OUS","A2DVV59R1CQU6T","3UAU495MIIEABANG75FBFHDC9WUUOI","","","<img src=""img/flower6.png"" style=""width:200px; border:14px solid green;"">","null","","","","","",""
"601.6999999284744","","image-keyboard-response","377","307836","0.0-377.0","3QUO65DNQVACXULAY7KD4090EM8OUS","A2DVV59R1CQU6T","3UAU495MIIEABANG75FBFHDC9WUUOI","","","img/flower1.png","74","602.8000000715256","1","1","3","1,1,0,0,1,1,1,0,1",""
"null","","html-keyboard-response","378","308143","0.0-378.0","3QUO65DNQVACXULAY7KD4090EM8OUS","A2DVV59R1CQU6T","3UAU495MIIEABANG75FBFHDC9WUUOI","","","<img src=""img/flower1.png"" style=""width:200px; border:14px solid green;"">","null","","","","","",""
"775.7000000476837","","image-keyboard-response","379","308919","0.0-379.0","3QUO65DNQVACXULAY7KD4090EM8OUS","A2DVV59R1CQU6T","3UAU495MIIEABANG75FBFHDC9WUUOI","","","img/flower4.png","76","776.3999999761581","3","1","2","1,1,0,0,1,1,1,0,1",""
"null","","html-keyboard-response","380","309233","0.0-380.0","3QUO65DNQVACXULAY7KD4090EM8OUS","A2DVV59R1CQU6T","3UAU495MIIEABANG75FBFHDC9WUUOI","","","<img src=""img/flower4.png"" style=""width:200px; border:14px solid green;"">","null","","","","","",""
"633.5","","image-keyboard-response","381","309867","0.0-381.0","3QUO65DNQVACXULAY7KD4090EM8OUS","A2DVV59R1CQU6T","3UAU495MIIEABANG75FBFHDC9WUUOI","","","img/flower6.png","75","634.5","2","1","1","1,1,0,0,1,1,1,0,1",""
"null","","html-keyboard-response","382","310171","0.0-382.0","3QUO65DNQVACXULAY7KD4090EM8OUS","A2DVV59R1CQU6T","3UAU495MIIEABANG75FBFHDC9WUUOI","","","<img src=""img/flower6.png"" style=""width:200px; border:14px solid green;"">","null","","","","","",""
"560","","image-keyboard-response","383","310733","0.0-383.0","3QUO65DNQVACXULAY7KD4090EM8OUS","A2DVV59R1CQU6T","3UAU495MIIEABANG75FBFHDC9WUUOI","","","img/flower1.png","74","561","1","1","3","1,1,0,0,1,1,1,0,1",""
"null","","html-keyboard-response","384","311045","0.0-384.0","3QUO65DNQVACXULAY7KD4090EM8OUS","A2DVV59R1CQU6T","3UAU495MIIEABANG75FBFHDC9WUUOI","","","<img src=""img/flower1.png"" style=""width:200px; border:14px solid green;"">","null","","","","","",""
"803.7000000476837","","image-keyboard-response","385","311850","0.0-385.0","3QUO65DNQVACXULAY7KD4090EM8OUS","A2DVV59R1CQU6T","3UAU495MIIEABANG75FBFHDC9WUUOI","","","img/flower6.png","75","805","2","1","1","1,1,0,0,1,1,1,0,1",""
"null","","html-keyboard-response","386","312165","0.0-386.0","3QUO65DNQVACXULAY7KD4090EM8OUS","A2DVV59R1CQU6T","3UAU495MIIEABANG75FBFHDC9WUUOI","","","<img src=""img/flower6.png"" style=""width:200px; border:14px solid green;"">","null","","","","","",""
"852.7000000476837","","image-keyboard-response","387","313019","0.0-387.0","3QUO65DNQVACXULAY7KD4090EM8OUS","A2DVV59R1CQU6T","3UAU495MIIEABANG75FBFHDC9WUUOI","","","img/flower1.png","74","853.6000000238419","1","1","3","1,1,0,0,1,1,1,0,1",""
"null","","html-keyboard-response","388","313323","0.0-388.0","3QUO65DNQVACXULAY7KD4090EM8OUS","A2DVV59R1CQU6T","3UAU495MIIEABANG75FBFHDC9WUUOI","","","<img src=""img/flower1.png"" style=""width:200px; border:14px solid green;"">","null","","","","","",""
"558.1000000238419","","image-keyboard-response","389","313883","0.0-389.0","3QUO65DNQVACXULAY7KD4090EM8OUS","A2DVV59R1CQU6T","3UAU495MIIEABANG75FBFHDC9WUUOI","","","img/flower1.png","74","559.0999999046326","1","1","3","1,1,0,0,1,1,1,0,1",""
"null","","html-keyboard-response","390","314198","0.0-390.0","3QUO65DNQVACXULAY7KD4090EM8OUS","A2DVV59R1CQU6T","3UAU495MIIEABANG75FBFHDC9WUUOI","","","<img src=""img/flower1.png"" style=""width:200px; border:14px solid green;"">","null","","","","","",""
"449.5","","image-keyboard-response","391","314649","0.0-391.0","3QUO65DNQVACXULAY7KD4090EM8OUS","A2DVV59R1CQU6T","3UAU495MIIEABANG75FBFHDC9WUUOI","","","img/flower1.png","74","450.39999997615814","1","1","3","1,1,0,0,1,1,1,0,1",""
"null","","html-keyboard-response","392","314963","0.0-392.0","3QUO65DNQVACXULAY7KD4090EM8OUS","A2DVV59R1CQU6T","3UAU495MIIEABANG75FBFHDC9WUUOI","","","<img src=""img/flower1.png"" style=""width:200px; border:14px solid green;"">","null","","","","","",""
"785.9000000953674","","image-keyboard-response","393","315751","0.0-393.0","3QUO65DNQVACXULAY7KD4090EM8OUS","A2DVV59R1CQU6T","3UAU495MIIEABANG75FBFHDC9WUUOI","","","img/flower6.png","75","786.7999999523163","2","1","1","1,1,0,0,1,1,1,0,1",""
"null","","html-keyboard-response","394","316061","0.0-394.0","3QUO65DNQVACXULAY7KD4090EM8OUS","A2DVV59R1CQU6T","3UAU495MIIEABANG75FBFHDC9WUUOI","","","<img src=""img/flower6.png"" style=""width:200px; border:14px solid green;"">","null","","","","","",""
"453.10000002384186","","image-keyboard-response","395","316516","0.0-395.0","3QUO65DNQVACXULAY7KD4090EM8OUS","A2DVV59R1CQU6T","3UAU495MIIEABANG75FBFHDC9WUUOI","","","img/flower6.png","75","454.5","2","1","1","1,1,0,0,1,1,1,0,1",""
"null","","html-keyboard-response","396","316823","0.0-396.0","3QUO65DNQVACXULAY7KD4090EM8OUS","A2DVV59R1CQU6T","3UAU495MIIEABANG75FBFHDC9WUUOI","","","<img src=""img/flower6.png"" style=""width:200px; border:14px solid green;"">","null","","","","","",""
"570.6999999284744","","image-keyboard-response","397","317395","0.0-397.0","3QUO65DNQVACXULAY7KD4090EM8OUS","A2DVV59R1CQU6T","3UAU495MIIEABANG75FBFHDC9WUUOI","","","img/flower4.png","76","571.5","3","1","2","1,1,0,0,1,1,1,0,1",""
"null","","html-keyboard-response","398","317701","0.0-398.0","3QUO65DNQVACXULAY7KD4090EM8OUS","A2DVV59R1CQU6T","3UAU495MIIEABANG75FBFHDC9WUUOI","","","<img src=""img/flower4.png"" style=""width:200px; border:14px solid green;"">","null","","","","","",""
"669.8000000715256","","image-keyboard-response","399","318371","0.0-399.0","3QUO65DNQVACXULAY7KD4090EM8OUS","A2DVV59R1CQU6T","3UAU495MIIEABANG75FBFHDC9WUUOI","","","img/flower6.png","74","670.3999999761581","1","1","1","1,1,0,0,1,1,1,0,1",""
"null","","html-keyboard-response","400","318687","0.0-400.0","3QUO65DNQVACXULAY7KD4090EM8OUS","A2DVV59R1CQU6T","3UAU495MIIEABANG75FBFHDC9WUUOI","","","<img src=""img/flower6.png"" style=""width:200px; border:14px solid green;"">","null","","","","","",""
"603.1000000238419","","image-keyboard-response","401","319292","0.0-401.0","3QUO65DNQVACXULAY7KD4090EM8OUS","A2DVV59R1CQU6T","3UAU495MIIEABANG75FBFHDC9WUUOI","","","img/flower6.png","75","604.1999999284744","2","1","1","1,1,0,0,1,1,1,0,1",""
"null","","html-keyboard-response","402","319595","0.0-402.0","3QUO65DNQVACXULAY7KD4090EM8OUS","A2DVV59R1CQU6T","3UAU495MIIEABANG75FBFHDC9WUUOI","","","<img src=""img/flower6.png"" style=""width:200px; border:14px solid green;"">","null","","","","","",""
"731.6000000238419","","image-keyboard-response","403","320328","0.0-403.0","3QUO65DNQVACXULAY7KD4090EM8OUS","A2DVV59R1CQU6T","3UAU495MIIEABANG75FBFHDC9WUUOI","","","img/flower1.png","74","732.6000000238419","1","1","3","1,1,0,0,1,1,1,0,1",""
