"success","trial_type","trial_index","time_elapsed","internal_node_id","assignmentID","mturkID","hitID","view_history","rt","stimulus","key_press","reactionTime","a","r","s","cond","reward_cond","reward_cond_actual","reward_matrix_idx","responses"
"true","fullscreen","0","435996","0.0-0.0","3SNVL38CI5EXL9JVEO7K3D6LQGVCKR","A2FP41BSPG0Y4A","3I7KR83SNAZT1REYB2SRC49PCEEK9H","","","","","","","","","","","","",""
"","instructions","1","555603","0.0-1.0","3SNVL38CI5EXL9JVEO7K3D6LQGVCKR","A2FP41BSPG0Y4A","3I7KR83SNAZT1REYB2SRC49PCEEK9H","[{""page_index"":0,""viewing_time"":76544.20000004768},{""page_index"":1,""viewing_time"":1093.7999999523163},{""page_index"":2,""viewing_time"":1032.0999999046326},{""page_index"":3,""viewing_time"":840.2000000476837},{""page_index"":4,""viewing_time"":36189.799999952316},{""page_index"":5,""viewing_time"":1102.7000000476837},{""page_index"":6,""viewing_time"":1163.7000000476837},{""page_index"":7,""viewing_time"":1636.0999999046326}]","119603.20000004768","","","","","","","","","","",""
"","image-keyboard-response","2","556804","0.0-2.0","3SNVL38CI5EXL9JVEO7K3D6LQGVCKR","A2FP41BSPG0Y4A","3I7KR83SNAZT1REYB2SRC49PCEEK9H","","1198.4000000953674","img/flower6.png","75","1200.6999998092651","2","1","2","1","1,0.333,0.333,0.333,1,0.333,0.333,0.333,1","1,0.333,0.333,0.333,1,0.333,0.333,0.333,1","1",""
"","html-keyboard-response","3","557111","0.0-3.0","3SNVL38CI5EXL9JVEO7K3D6LQGVCKR","A2FP41BSPG0Y4A","3I7KR83SNAZT1REYB2SRC49PCEEK9H","","null","<img src=""img/flower6.png"" style=""width:200px; border:14px solid green;"">","null","","","","","","","","",""
"","image-keyboard-response","4","557521","0.0-4.0","3SNVL38CI5EXL9JVEO7K3D6LQGVCKR","A2FP41BSPG0Y4A","3I7KR83SNAZT1REYB2SRC49PCEEK9H","","408.39999985694885","img/flower2.png","75","410","2","1","1","1","1,0.333,0.333,0.333,1,0.333,0.333,0.333,1","1,0.333,0.333,0.333,1,0.333,0.333,0.333,1","1",""
"","html-keyboard-response","5","557833","0.0-5.0","3SNVL38CI5EXL9JVEO7K3D6LQGVCKR","A2FP41BSPG0Y4A","3I7KR83SNAZT1REYB2SRC49PCEEK9H","","null","<img src=""img/flower2.png"" style=""width:200px; border:14px solid green;"">","null","","","","","","","","",""
"","image-keyboard-response","6","558196","0.0-6.0","3SNVL38CI5EXL9JVEO7K3D6LQGVCKR","A2FP41BSPG0Y4A","3I7KR83SNAZT1REYB2SRC49PCEEK9H","","360.7000000476837","img/flower3.png","75","362.59999990463257","2","0","3","1","1,0.333,0.333,0.333,1,0.333,0.333,0.333,1","1,0.333,0.333,0.333,1,0.333,0.333,0.333,1","1",""
"","html-keyboard-response","7","558501","0.0-7.0","3SNVL38CI5EXL9JVEO7K3D6LQGVCKR","A2FP41BSPG0Y4A","3I7KR83SNAZT1REYB2SRC49PCEEK9H","","null","<img src=""img/flower3.png"" style=""width:200px;border:14px solid red;"">","null","","","","","","","","",""
"","image-keyboard-response","8","559303","0.0-8.0","3SNVL38CI5EXL9JVEO7K3D6LQGVCKR","A2FP41BSPG0Y4A","3I7KR83SNAZT1REYB2SRC49PCEEK9H","","800.0999999046326","img/flower6.png","74","801.6999998092651","1","1","2","1","1,0.333,0.333,0.333,1,0.333,0.333,0.333,1","1,0.333,0.333,0.333,1,0.333,0.333,0.333,1","1",""
"","html-keyboard-response","9","559610","0.0-9.0","3SNVL38CI5EXL9JVEO7K3D6LQGVCKR","A2FP41BSPG0Y4A","3I7KR83SNAZT1REYB2SRC49PCEEK9H","","null","<img src=""img/flower6.png"" style=""width:200px; border:14px solid green;"">","null","","","","","","","","",""
"","image-keyboard-response","10","560003","0.0-10.0","3SNVL38CI5EXL9JVEO7K3D6LQGVCKR","A2FP41BSPG0Y4A","3I7KR83SNAZT1REYB2SRC49PCEEK9H","","390.60000014305115","img/flower6.png","75","392.30000019073486","2","1","2","1","1,0.333,0.333,0.333,1,0.333,0.333,0.333,1","1,0.333,0.333,0.333,1,0.333,0.333,0.333,1","1",""
"","html-keyboard-response","11","560309","0.0-11.0","3SNVL38CI5EXL9JVEO7K3D6LQGVCKR","A2FP41BSPG0Y4A","3I7KR83SNAZT1REYB2SRC49PCEEK9H","","null","<img src=""img/flower6.png"" style=""width:200px; border:14px solid green;"">","null","","","","","","","","",""
"","image-keyboard-response","12","560731","0.0-12.0","3SNVL38CI5EXL9JVEO7K3D6LQGVCKR","A2FP41BSPG0Y4A","3I7KR83SNAZT1REYB2SRC49PCEEK9H","","419.59999990463257","img/flower6.png","75","421.40000009536743","2","1","2","1","1,0.333,0.333,0.333,1,0.333,0.333,0.333,1","1,0.333,0.333,0.333,1,0.333,0.333,0.333,1","1",""
"","html-keyboard-response","13","561037","0.0-13.0","3SNVL38CI5EXL9JVEO7K3D6LQGVCKR","A2FP41BSPG0Y4A","3I7KR83SNAZT1REYB2SRC49PCEEK9H","","null","<img src=""img/flower6.png"" style=""width:200px; border:14px solid green;"">","null","","","","","","","","",""
"","image-keyboard-response","14","561324","0.0-14.0","3SNVL38CI5EXL9JVEO7K3D6LQGVCKR","A2FP41BSPG0Y4A","3I7KR83SNAZT1REYB2SRC49PCEEK9H","","284.5","img/flower3.png","75","286.2000000476837","2","0","3","1","1,0.333,0.333,0.333,1,0.333,0.333,0.333,1","1,0.333,0.333,0.333,1,0.333,0.333,0.333,1","1",""
"","html-keyboard-response","15","561631","0.0-15.0","3SNVL38CI5EXL9JVEO7K3D6LQGVCKR","A2FP41BSPG0Y4A","3I7KR83SNAZT1REYB2SRC49PCEEK9H","","null","<img src=""img/flower3.png"" style=""width:200px;border:14px solid red;"">","null","","","","","","","","",""
"","image-keyboard-response","16","561717","0.0-16.0","3SNVL38CI5EXL9JVEO7K3D6LQGVCKR","A2FP41BSPG0Y4A","3I7KR83SNAZT1REYB2SRC49PCEEK9H","","84.20000004768372","img/flower3.png","74","86","1","0","3","1","1,0.333,0.333,0.333,1,0.333,0.333,0.333,1","1,0.333,0.333,0.333,1,0.333,0.333,0.333,1","1",""
"","html-keyboard-response","17","562021","0.0-17.0","3SNVL38CI5EXL9JVEO7K3D6LQGVCKR","A2FP41BSPG0Y4A","3I7KR83SNAZT1REYB2SRC49PCEEK9H","","null","<img src=""img/flower3.png"" style=""width:200px;border:14px solid red;"">","null","","","","","","","","",""
"","image-keyboard-response","18","562219","0.0-18.0","3SNVL38CI5EXL9JVEO7K3D6LQGVCKR","A2FP41BSPG0Y4A","3I7KR83SNAZT1REYB2SRC49PCEEK9H","","195.89999985694885","img/flower3.png","76","197.59999990463257","3","1","3","1","1,0.333,0.333,0.333,1,0.333,0.333,0.333,1","1,0.333,0.333,0.333,1,0.333,0.333,0.333,1","1",""
"","html-keyboard-response","19","562531","0.0-19.0","3SNVL38CI5EXL9JVEO7K3D6LQGVCKR","A2FP41BSPG0Y4A","3I7KR83SNAZT1REYB2SRC49PCEEK9H","","null","<img src=""img/flower3.png"" style=""width:200px; border:14px solid green;"">","null","","","","","","","","",""
"","image-keyboard-response","20","562913","0.0-20.0","3SNVL38CI5EXL9JVEO7K3D6LQGVCKR","A2FP41BSPG0Y4A","3I7KR83SNAZT1REYB2SRC49PCEEK9H","","379.7999999523163","img/flower3.png","76","381.60000014305115","3","1","3","1","1,0.333,0.333,0.333,1,0.333,0.333,0.333,1","1,0.333,0.333,0.333,1,0.333,0.333,0.333,1","1",""
"","html-keyboard-response","21","563217","0.0-21.0","3SNVL38CI5EXL9JVEO7K3D6LQGVCKR","A2FP41BSPG0Y4A","3I7KR83SNAZT1REYB2SRC49PCEEK9H","","null","<img src=""img/flower3.png"" style=""width:200px; border:14px solid green;"">","null","","","","","","","","",""
"","image-keyboard-response","22","563634","0.0-22.0","3SNVL38CI5EXL9JVEO7K3D6LQGVCKR","A2FP41BSPG0Y4A","3I7KR83SNAZT1REYB2SRC49PCEEK9H","","414.59999990463257","img/flower2.png","76","416.59999990463257","3","0","1","1","1,0.333,0.333,0.333,1,0.333,0.333,0.333,1","1,0.333,0.333,0.333,1,0.333,0.333,0.333,1","1",""
"","html-keyboard-response","23","563941","0.0-23.0","3SNVL38CI5EXL9JVEO7K3D6LQGVCKR","A2FP41BSPG0Y4A","3I7KR83SNAZT1REYB2SRC49PCEEK9H","","null","<img src=""img/flower2.png"" style=""width:200px;border:14px solid red;"">","null","","","","","","","","",""
"","image-keyboard-response","24","564155","0.0-24.0","3SNVL38CI5EXL9JVEO7K3D6LQGVCKR","A2FP41BSPG0Y4A","3I7KR83SNAZT1REYB2SRC49PCEEK9H","","212.19999980926514","img/flower2.png","75","213.59999990463257","2","0","1","1","1,0.333,0.333,0.333,1,0.333,0.333,0.333,1","1,0.333,0.333,0.333,1,0.333,0.333,0.333,1","1",""
"","html-keyboard-response","25","564467","0.0-25.0","3SNVL38CI5EXL9JVEO7K3D6LQGVCKR","A2FP41BSPG0Y4A","3I7KR83SNAZT1REYB2SRC49PCEEK9H","","null","<img src=""img/flower2.png"" style=""width:200px;border:14px solid red;"">","null","","","","","","","","",""
"","image-keyboard-response","26","564732","0.0-26.0","3SNVL38CI5EXL9JVEO7K3D6LQGVCKR","A2FP41BSPG0Y4A","3I7KR83SNAZT1REYB2SRC49PCEEK9H","","263.09999990463257","img/flower3.png","74","264.59999990463257","1","0","3","1","1,0.333,0.333,0.333,1,0.333,0.333,0.333,1","1,0.333,0.333,0.333,1,0.333,0.333,0.333,1","1",""
"","html-keyboard-response","27","565039","0.0-27.0","3SNVL38CI5EXL9JVEO7K3D6LQGVCKR","A2FP41BSPG0Y4A","3I7KR83SNAZT1REYB2SRC49PCEEK9H","","null","<img src=""img/flower3.png"" style=""width:200px;border:14px solid red;"">","null","","","","","","","","",""
"","image-keyboard-response","28","565472","0.0-28.0","3SNVL38CI5EXL9JVEO7K3D6LQGVCKR","A2FP41BSPG0Y4A","3I7KR83SNAZT1REYB2SRC49PCEEK9H","","431.2000000476837","img/flower3.png","76","432.7999999523163","3","1","3","1","1,0.333,0.333,0.333,1,0.333,0.333,0.333,1","1,0.333,0.333,0.333,1,0.333,0.333,0.333,1","1",""
"","html-keyboard-response","29","565778","0.0-29.0","3SNVL38CI5EXL9JVEO7K3D6LQGVCKR","A2FP41BSPG0Y4A","3I7KR83SNAZT1REYB2SRC49PCEEK9H","","null","<img src=""img/flower3.png"" style=""width:200px; border:14px solid green;"">","null","","","","","","","","",""
"","image-keyboard-response","30","566362","0.0-30.0","3SNVL38CI5EXL9JVEO7K3D6LQGVCKR","A2FP41BSPG0Y4A","3I7KR83SNAZT1REYB2SRC49PCEEK9H","","581.1000001430511","img/flower2.png","76","582.8000001907349","3","1","1","1","1,0.333,0.333,0.333,1,0.333,0.333,0.333,1","1,0.333,0.333,0.333,1,0.333,0.333,0.333,1","1",""
"","html-keyboard-response","31","566671","0.0-31.0","3SNVL38CI5EXL9JVEO7K3D6LQGVCKR","A2FP41BSPG0Y4A","3I7KR83SNAZT1REYB2SRC49PCEEK9H","","null","<img src=""img/flower2.png"" style=""width:200px; border:14px solid green;"">","null","","","","","","","","",""
"","image-keyboard-response","32","566969","0.0-32.0","3SNVL38CI5EXL9JVEO7K3D6LQGVCKR","A2FP41BSPG0Y4A","3I7KR83SNAZT1REYB2SRC49PCEEK9H","","296.7999999523163","img/flower3.png","76","297.89999985694885","3","1","3","1","1,0.333,0.333,0.333,1,0.333,0.333,0.333,1","1,0.333,0.333,0.333,1,0.333,0.333,0.333,1","1",""
"","html-keyboard-response","33","567276","0.0-33.0","3SNVL38CI5EXL9JVEO7K3D6LQGVCKR","A2FP41BSPG0Y4A","3I7KR83SNAZT1REYB2SRC49PCEEK9H","","null","<img src=""img/flower3.png"" style=""width:200px; border:14px solid green;"">","null","","","","","","","","",""
"","image-keyboard-response","34","567562","0.0-34.0","3SNVL38CI5EXL9JVEO7K3D6LQGVCKR","A2FP41BSPG0Y4A","3I7KR83SNAZT1REYB2SRC49PCEEK9H","","284.10000014305115","img/flower2.png","76","285.60000014305115","3","1","1","1","1,0.333,0.333,0.333,1,0.333,0.333,0.333,1","1,0.333,0.333,0.333,1,0.333,0.333,0.333,1","1",""
"","html-keyboard-response","35","567871","0.0-35.0","3SNVL38CI5EXL9JVEO7K3D6LQGVCKR","A2FP41BSPG0Y4A","3I7KR83SNAZT1REYB2SRC49PCEEK9H","","null","<img src=""img/flower2.png"" style=""width:200px; border:14px solid green;"">","null","","","","","","","","",""
"","image-keyboard-response","36","568170","0.0-36.0","3SNVL38CI5EXL9JVEO7K3D6LQGVCKR","A2FP41BSPG0Y4A","3I7KR83SNAZT1REYB2SRC49PCEEK9H","","297.19999980926514","img/flower2.png","76","298.7999999523163","3","0","1","1","1,0.333,0.333,0.333,1,0.333,0.333,0.333,1","1,0.333,0.333,0.333,1,0.333,0.333,0.333,1","1",""
"","html-keyboard-response","37","568480","0.0-37.0","3SNVL38CI5EXL9JVEO7K3D6LQGVCKR","A2FP41BSPG0Y4A","3I7KR83SNAZT1REYB2SRC49PCEEK9H","","null","<img src=""img/flower2.png"" style=""width:200px;border:14px solid red;"">","null","","","","","","","","",""
"","image-keyboard-response","38","568676","0.0-38.0","3SNVL38CI5EXL9JVEO7K3D6LQGVCKR","A2FP41BSPG0Y4A","3I7KR83SNAZT1REYB2SRC49PCEEK9H","","194.20000004768372","img/flower2.png","75","195.89999985694885","2","0","1","1","1,0.333,0.333,0.333,1,0.333,0.333,0.333,1","1,0.333,0.333,0.333,1,0.333,0.333,0.333,1","1",""
"","html-keyboard-response","39","568985","0.0-39.0","3SNVL38CI5EXL9JVEO7K3D6LQGVCKR","A2FP41BSPG0Y4A","3I7KR83SNAZT1REYB2SRC49PCEEK9H","","null","<img src=""img/flower2.png"" style=""width:200px;border:14px solid red;"">","null","","","","","","","","",""
"","image-keyboard-response","40","569237","0.0-40.0","3SNVL38CI5EXL9JVEO7K3D6LQGVCKR","A2FP41BSPG0Y4A","3I7KR83SNAZT1REYB2SRC49PCEEK9H","","249.29999995231628","img/flower6.png","76","251.40000009536743","3","1","2","1","1,0.333,0.333,0.333,1,0.333,0.333,0.333,1","1,0.333,0.333,0.333,1,0.333,0.333,0.333,1","1",""
"","html-keyboard-response","41","569541","0.0-41.0","3SNVL38CI5EXL9JVEO7K3D6LQGVCKR","A2FP41BSPG0Y4A","3I7KR83SNAZT1REYB2SRC49PCEEK9H","","null","<img src=""img/flower6.png"" style=""width:200px; border:14px solid green;"">","null","","","","","","","","",""
"","image-keyboard-response","42","569973","0.0-42.0","3SNVL38CI5EXL9JVEO7K3D6LQGVCKR","A2FP41BSPG0Y4A","3I7KR83SNAZT1REYB2SRC49PCEEK9H","","430","img/flower3.png","74","431.5","1","1","3","1","1,0.333,0.333,0.333,1,0.333,0.333,0.333,1","1,0.333,0.333,0.333,1,0.333,0.333,0.333,1","1",""
"","html-keyboard-response","43","570278","0.0-43.0","3SNVL38CI5EXL9JVEO7K3D6LQGVCKR","A2FP41BSPG0Y4A","3I7KR83SNAZT1REYB2SRC49PCEEK9H","","null","<img src=""img/flower3.png"" style=""width:200px; border:14px solid green;"">","null","","","","","","","","",""
"","image-keyboard-response","44","570622","0.0-44.0","3SNVL38CI5EXL9JVEO7K3D6LQGVCKR","A2FP41BSPG0Y4A","3I7KR83SNAZT1REYB2SRC49PCEEK9H","","342.09999990463257","img/flower2.png","76","343.59999990463257","3","0","1","1","1,0.333,0.333,0.333,1,0.333,0.333,0.333,1","1,0.333,0.333,0.333,1,0.333,0.333,0.333,1","1",""
"","html-keyboard-response","45","570929","0.0-45.0","3SNVL38CI5EXL9JVEO7K3D6LQGVCKR","A2FP41BSPG0Y4A","3I7KR83SNAZT1REYB2SRC49PCEEK9H","","null","<img src=""img/flower2.png"" style=""width:200px;border:14px solid red;"">","null","","","","","","","","",""
"","image-keyboard-response","46","571424","0.0-46.0","3SNVL38CI5EXL9JVEO7K3D6LQGVCKR","A2FP41BSPG0Y4A","3I7KR83SNAZT1REYB2SRC49PCEEK9H","","493.7000000476837","img/flower2.png","76","495.10000014305115","3","1","1","1","1,0.333,0.333,0.333,1,0.333,0.333,0.333,1","1,0.333,0.333,0.333,1,0.333,0.333,0.333,1","1",""
"","html-keyboard-response","47","571730","0.0-47.0","3SNVL38CI5EXL9JVEO7K3D6LQGVCKR","A2FP41BSPG0Y4A","3I7KR83SNAZT1REYB2SRC49PCEEK9H","","null","<img src=""img/flower2.png"" style=""width:200px; border:14px solid green;"">","null","","","","","","","","",""
"","image-keyboard-response","48","572148","0.0-48.0","3SNVL38CI5EXL9JVEO7K3D6LQGVCKR","A2FP41BSPG0Y4A","3I7KR83SNAZT1REYB2SRC49PCEEK9H","","416.40000009536743","img/flower2.png","76","418.2999999523163","3","1","1","1","1,0.333,0.333,0.333,1,0.333,0.333,0.333,1","1,0.333,0.333,0.333,1,0.333,0.333,0.333,1","1",""
"","html-keyboard-response","49","572452","0.0-49.0","3SNVL38CI5EXL9JVEO7K3D6LQGVCKR","A2FP41BSPG0Y4A","3I7KR83SNAZT1REYB2SRC49PCEEK9H","","null","<img src=""img/flower2.png"" style=""width:200px; border:14px solid green;"">","null","","","","","","","","",""
"","image-keyboard-response","50","572703","0.0-50.0","3SNVL38CI5EXL9JVEO7K3D6LQGVCKR","A2FP41BSPG0Y4A","3I7KR83SNAZT1REYB2SRC49PCEEK9H","","249.09999990463257","img/flower6.png","76","250.70000004768372","3","0","2","1","1,0.333,0.333,0.333,1,0.333,0.333,0.333,1","1,0.333,0.333,0.333,1,0.333,0.333,0.333,1","1",""
"","html-keyboard-response","51","573009","0.0-51.0","3SNVL38CI5EXL9JVEO7K3D6LQGVCKR","A2FP41BSPG0Y4A","3I7KR83SNAZT1REYB2SRC49PCEEK9H","","null","<img src=""img/flower6.png"" style=""width:200px;border:14px solid red;"">","null","","","","","","","","",""
"","image-keyboard-response","52","573405","0.0-52.0","3SNVL38CI5EXL9JVEO7K3D6LQGVCKR","A2FP41BSPG0Y4A","3I7KR83SNAZT1REYB2SRC49PCEEK9H","","394.7000000476837","img/flower6.png","74","396.2999999523163","1","0","2","1","1,0.333,0.333,0.333,1,0.333,0.333,0.333,1","1,0.333,0.333,0.333,1,0.333,0.333,0.333,1","1",""
"","html-keyboard-response","53","573709","0.0-53.0","3SNVL38CI5EXL9JVEO7K3D6LQGVCKR","A2FP41BSPG0Y4A","3I7KR83SNAZT1REYB2SRC49PCEEK9H","","null","<img src=""img/flower6.png"" style=""width:200px;border:14px solid red;"">","null","","","","","","","","",""
"","image-keyboard-response","54","573876","0.0-54.0","3SNVL38CI5EXL9JVEO7K3D6LQGVCKR","A2FP41BSPG0Y4A","3I7KR83SNAZT1REYB2SRC49PCEEK9H","","164.70000004768372","img/flower2.png","75","166.5","2","0","1","1","1,0.333,0.333,0.333,1,0.333,0.333,0.333,1","1,0.333,0.333,0.333,1,0.333,0.333,0.333,1","1",""
"","html-keyboard-response","55","574188","0.0-55.0","3SNVL38CI5EXL9JVEO7K3D6LQGVCKR","A2FP41BSPG0Y4A","3I7KR83SNAZT1REYB2SRC49PCEEK9H","","null","<img src=""img/flower2.png"" style=""width:200px;border:14px solid red;"">","null","","","","","","","","",""
"","image-keyboard-response","56","574465","0.0-56.0","3SNVL38CI5EXL9JVEO7K3D6LQGVCKR","A2FP41BSPG0Y4A","3I7KR83SNAZT1REYB2SRC49PCEEK9H","","274.40000009536743","img/flower2.png","76","280","3","0","1","1","1,0.333,0.333,0.333,1,0.333,0.333,0.333,1","1,0.333,0.333,0.333,1,0.333,0.333,0.333,1","1",""
"","html-keyboard-response","57","574775","0.0-57.0","3SNVL38CI5EXL9JVEO7K3D6LQGVCKR","A2FP41BSPG0Y4A","3I7KR83SNAZT1REYB2SRC49PCEEK9H","","null","<img src=""img/flower2.png"" style=""width:200px;border:14px solid red;"">","null","","","","","","","","",""
"","image-keyboard-response","58","575282","0.0-58.0","3SNVL38CI5EXL9JVEO7K3D6LQGVCKR","A2FP41BSPG0Y4A","3I7KR83SNAZT1REYB2SRC49PCEEK9H","","505.2000000476837","img/flower6.png","75","506.60000014305115","2","1","2","1","1,0.333,0.333,0.333,1,0.333,0.333,0.333,1","1,0.333,0.333,0.333,1,0.333,0.333,0.333,1","1",""
"","html-keyboard-response","59","575585","0.0-59.0","3SNVL38CI5EXL9JVEO7K3D6LQGVCKR","A2FP41BSPG0Y4A","3I7KR83SNAZT1REYB2SRC49PCEEK9H","","null","<img src=""img/flower6.png"" style=""width:200px; border:14px solid green;"">","null","","","","","","","","",""
"","image-keyboard-response","60","576275","0.0-60.0","3SNVL38CI5EXL9JVEO7K3D6LQGVCKR","A2FP41BSPG0Y4A","3I7KR83SNAZT1REYB2SRC49PCEEK9H","","687.6000001430511","img/flower3.png","74","689.0999999046326","1","1","3","1","1,0.333,0.333,0.333,1,0.333,0.333,0.333,1","1,0.333,0.333,0.333,1,0.333,0.333,0.333,1","1",""
"","html-keyboard-response","61","576582","0.0-61.0","3SNVL38CI5EXL9JVEO7K3D6LQGVCKR","A2FP41BSPG0Y4A","3I7KR83SNAZT1REYB2SRC49PCEEK9H","","null","<img src=""img/flower3.png"" style=""width:200px; border:14px solid green;"">","null","","","","","","","","",""
"","image-keyboard-response","62","577023","0.0-62.0","3SNVL38CI5EXL9JVEO7K3D6LQGVCKR","A2FP41BSPG0Y4A","3I7KR83SNAZT1REYB2SRC49PCEEK9H","","438.39999985694885","img/flower6.png","75","440.09999990463257","2","1","2","1","1,0.333,0.333,0.333,1,0.333,0.333,0.333,1","1,0.333,0.333,0.333,1,0.333,0.333,0.333,1","1",""
"","html-keyboard-response","63","577334","0.0-63.0","3SNVL38CI5EXL9JVEO7K3D6LQGVCKR","A2FP41BSPG0Y4A","3I7KR83SNAZT1REYB2SRC49PCEEK9H","","null","<img src=""img/flower6.png"" style=""width:200px; border:14px solid green;"">","null","","","","","","","","",""
"","image-keyboard-response","64","577791","0.0-64.0","3SNVL38CI5EXL9JVEO7K3D6LQGVCKR","A2FP41BSPG0Y4A","3I7KR83SNAZT1REYB2SRC49PCEEK9H","","454.60000014305115","img/flower6.png","74","456.09999990463257","1","0","2","1","1,0.333,0.333,0.333,1,0.333,0.333,0.333,1","1,0.333,0.333,0.333,1,0.333,0.333,0.333,1","1",""
"","html-keyboard-response","65","578108","0.0-65.0","3SNVL38CI5EXL9JVEO7K3D6LQGVCKR","A2FP41BSPG0Y4A","3I7KR83SNAZT1REYB2SRC49PCEEK9H","","null","<img src=""img/flower6.png"" style=""width:200px;border:14px solid red;"">","null","","","","","","","","",""
"","image-keyboard-response","66","578165","0.0-66.0","3SNVL38CI5EXL9JVEO7K3D6LQGVCKR","A2FP41BSPG0Y4A","3I7KR83SNAZT1REYB2SRC49PCEEK9H","","55.40000009536743","img/flower6.png","75","56.90000009536743","2","1","2","1","1,0.333,0.333,0.333,1,0.333,0.333,0.333,1","1,0.333,0.333,0.333,1,0.333,0.333,0.333,1","1",""
"","html-keyboard-response","67","578468","0.0-67.0","3SNVL38CI5EXL9JVEO7K3D6LQGVCKR","A2FP41BSPG0Y4A","3I7KR83SNAZT1REYB2SRC49PCEEK9H","","null","<img src=""img/flower6.png"" style=""width:200px; border:14px solid green;"">","null","","","","","","","","",""
"","image-keyboard-response","68","578776","0.0-68.0","3SNVL38CI5EXL9JVEO7K3D6LQGVCKR","A2FP41BSPG0Y4A","3I7KR83SNAZT1REYB2SRC49PCEEK9H","","305.59999990463257","img/flower3.png","75","307.09999990463257","2","0","3","1","1,0.333,0.333,0.333,1,0.333,0.333,0.333,1","1,0.333,0.333,0.333,1,0.333,0.333,0.333,1","1",""
"","html-keyboard-response","69","579079","0.0-69.0","3SNVL38CI5EXL9JVEO7K3D6LQGVCKR","A2FP41BSPG0Y4A","3I7KR83SNAZT1REYB2SRC49PCEEK9H","","null","<img src=""img/flower3.png"" style=""width:200px;border:14px solid red;"">","null","","","","","","","","",""
"","image-keyboard-response","70","579318","0.0-70.0","3SNVL38CI5EXL9JVEO7K3D6LQGVCKR","A2FP41BSPG0Y4A","3I7KR83SNAZT1REYB2SRC49PCEEK9H","","236.79999995231628","img/flower3.png","76","238.5","3","1","3","1","1,0.333,0.333,0.333,1,0.333,0.333,0.333,1","1,0.333,0.333,0.333,1,0.333,0.333,0.333,1","1",""
"","html-keyboard-response","71","579629","0.0-71.0","3SNVL38CI5EXL9JVEO7K3D6LQGVCKR","A2FP41BSPG0Y4A","3I7KR83SNAZT1REYB2SRC49PCEEK9H","","null","<img src=""img/flower3.png"" style=""width:200px; border:14px solid green;"">","null","","","","","","","","",""
"","image-keyboard-response","72","580011","0.0-72.0","3SNVL38CI5EXL9JVEO7K3D6LQGVCKR","A2FP41BSPG0Y4A","3I7KR83SNAZT1REYB2SRC49PCEEK9H","","380.59999990463257","img/flower6.png","76","382","3","0","2","1","1,0.333,0.333,0.333,1,0.333,0.333,0.333,1","1,0.333,0.333,0.333,1,0.333,0.333,0.333,1","1",""
"","html-keyboard-response","73","580326","0.0-73.0","3SNVL38CI5EXL9JVEO7K3D6LQGVCKR","A2FP41BSPG0Y4A","3I7KR83SNAZT1REYB2SRC49PCEEK9H","","null","<img src=""img/flower6.png"" style=""width:200px;border:14px solid red;"">","null","","","","","","","","",""
"","image-keyboard-response","74","580409","0.0-74.0","3SNVL38CI5EXL9JVEO7K3D6LQGVCKR","A2FP41BSPG0Y4A","3I7KR83SNAZT1REYB2SRC49PCEEK9H","","80.29999995231628","img/flower2.png","75","82.09999990463257","2","1","1","1","1,0.333,0.333,0.333,1,0.333,0.333,0.333,1","1,0.333,0.333,0.333,1,0.333,0.333,0.333,1","1",""
"","html-keyboard-response","75","580713","0.0-75.0","3SNVL38CI5EXL9JVEO7K3D6LQGVCKR","A2FP41BSPG0Y4A","3I7KR83SNAZT1REYB2SRC49PCEEK9H","","null","<img src=""img/flower2.png"" style=""width:200px; border:14px solid green;"">","null","","","","","","","","",""
"","image-keyboard-response","76","581077","0.0-76.0","3SNVL38CI5EXL9JVEO7K3D6LQGVCKR","A2FP41BSPG0Y4A","3I7KR83SNAZT1REYB2SRC49PCEEK9H","","362.39999985694885","img/flower2.png","74","363.7999999523163","1","1","1","1","1,0.333,0.333,0.333,1,0.333,0.333,0.333,1","1,0.333,0.333,0.333,1,0.333,0.333,0.333,1","1",""
"","html-keyboard-response","77","581387","0.0-77.0","3SNVL38CI5EXL9JVEO7K3D6LQGVCKR","A2FP41BSPG0Y4A","3I7KR83SNAZT1REYB2SRC49PCEEK9H","","null","<img src=""img/flower2.png"" style=""width:200px; border:14px solid green;"">","null","","","","","","","","",""
"","image-keyboard-response","78","581943","0.0-78.0","3SNVL38CI5EXL9JVEO7K3D6LQGVCKR","A2FP41BSPG0Y4A","3I7KR83SNAZT1REYB2SRC49PCEEK9H","","554","img/flower6.png","75","555.3999998569489","2","1","2","1","1,0.333,0.333,0.333,1,0.333,0.333,0.333,1","1,0.333,0.333,0.333,1,0.333,0.333,0.333,1","1",""
"","html-keyboard-response","79","582249","0.0-79.0","3SNVL38CI5EXL9JVEO7K3D6LQGVCKR","A2FP41BSPG0Y4A","3I7KR83SNAZT1REYB2SRC49PCEEK9H","","null","<img src=""img/flower6.png"" style=""width:200px; border:14px solid green;"">","null","","","","","","","","",""
"","image-keyboard-response","80","582687","0.0-80.0","3SNVL38CI5EXL9JVEO7K3D6LQGVCKR","A2FP41BSPG0Y4A","3I7KR83SNAZT1REYB2SRC49PCEEK9H","","435.90000009536743","img/flower6.png","75","437.7999999523163","2","1","2","1","1,0.333,0.333,0.333,1,0.333,0.333,0.333,1","1,0.333,0.333,0.333,1,0.333,0.333,0.333,1","1",""
"","html-keyboard-response","81","582992","0.0-81.0","3SNVL38CI5EXL9JVEO7K3D6LQGVCKR","A2FP41BSPG0Y4A","3I7KR83SNAZT1REYB2SRC49PCEEK9H","","null","<img src=""img/flower6.png"" style=""width:200px; border:14px solid green;"">","null","","","","","","","","",""
"","image-keyboard-response","82","583412","0.0-82.0","3SNVL38CI5EXL9JVEO7K3D6LQGVCKR","A2FP41BSPG0Y4A","3I7KR83SNAZT1REYB2SRC49PCEEK9H","","417.90000009536743","img/flower3.png","74","419.90000009536743","1","0","3","1","1,0.333,0.333,0.333,1,0.333,0.333,0.333,1","1,0.333,0.333,0.333,1,0.333,0.333,0.333,1","1",""
"","html-keyboard-response","83","583718","0.0-83.0","3SNVL38CI5EXL9JVEO7K3D6LQGVCKR","A2FP41BSPG0Y4A","3I7KR83SNAZT1REYB2SRC49PCEEK9H","","null","<img src=""img/flower3.png"" style=""width:200px;border:14px solid red;"">","null","","","","","","","","",""
"","image-keyboard-response","84","584316","0.0-84.0","3SNVL38CI5EXL9JVEO7K3D6LQGVCKR","A2FP41BSPG0Y4A","3I7KR83SNAZT1REYB2SRC49PCEEK9H","","595.7000000476837","img/flower2.png","75","597.4000000953674","2","0","1","1","1,0.333,0.333,0.333,1,0.333,0.333,0.333,1","1,0.333,0.333,0.333,1,0.333,0.333,0.333,1","1",""
"","html-keyboard-response","85","584623","0.0-85.0","3SNVL38CI5EXL9JVEO7K3D6LQGVCKR","A2FP41BSPG0Y4A","3I7KR83SNAZT1REYB2SRC49PCEEK9H","","null","<img src=""img/flower2.png"" style=""width:200px;border:14px solid red;"">","null","","","","","","","","",""
"","image-keyboard-response","86","585093","0.0-86.0","3SNVL38CI5EXL9JVEO7K3D6LQGVCKR","A2FP41BSPG0Y4A","3I7KR83SNAZT1REYB2SRC49PCEEK9H","","467.80000019073486","img/flower3.png","76","469.40000009536743","3","1","3","1","1,0.333,0.333,0.333,1,0.333,0.333,0.333,1","1,0.333,0.333,0.333,1,0.333,0.333,0.333,1","1",""
"","html-keyboard-response","87","585405","0.0-87.0","3SNVL38CI5EXL9JVEO7K3D6LQGVCKR","A2FP41BSPG0Y4A","3I7KR83SNAZT1REYB2SRC49PCEEK9H","","null","<img src=""img/flower3.png"" style=""width:200px; border:14px solid green;"">","null","","","","","","","","",""
"","image-keyboard-response","88","586091","0.0-88.0","3SNVL38CI5EXL9JVEO7K3D6LQGVCKR","A2FP41BSPG0Y4A","3I7KR83SNAZT1REYB2SRC49PCEEK9H","","683.9000000953674","img/flower2.png","74","685.8000001907349","1","1","1","1","1,0.333,0.333,0.333,1,0.333,0.333,0.333,1","1,0.333,0.333,0.333,1,0.333,0.333,0.333,1","1",""
"","html-keyboard-response","89","586400","0.0-89.0","3SNVL38CI5EXL9JVEO7K3D6LQGVCKR","A2FP41BSPG0Y4A","3I7KR83SNAZT1REYB2SRC49PCEEK9H","","null","<img src=""img/flower2.png"" style=""width:200px; border:14px solid green;"">","null","","","","","","","","",""
"","image-keyboard-response","90","587063","0.0-90.0","3SNVL38CI5EXL9JVEO7K3D6LQGVCKR","A2FP41BSPG0Y4A","3I7KR83SNAZT1REYB2SRC49PCEEK9H","","660.9000000953674","img/flower2.png","74","662.5","1","1","1","1","1,0.333,0.333,0.333,1,0.333,0.333,0.333,1","1,0.333,0.333,0.333,1,0.333,0.333,0.333,1","1",""
"","html-keyboard-response","91","587370","0.0-91.0","3SNVL38CI5EXL9JVEO7K3D6LQGVCKR","A2FP41BSPG0Y4A","3I7KR83SNAZT1REYB2SRC49PCEEK9H","","null","<img src=""img/flower2.png"" style=""width:200px; border:14px solid green;"">","null","","","","","","","","",""
"","image-keyboard-response","92","587759","0.0-92.0","3SNVL38CI5EXL9JVEO7K3D6LQGVCKR","A2FP41BSPG0Y4A","3I7KR83SNAZT1REYB2SRC49PCEEK9H","","387","img/flower2.png","74","388.39999985694885","1","1","1","1","1,0.333,0.333,0.333,1,0.333,0.333,0.333,1","1,0.333,0.333,0.333,1,0.333,0.333,0.333,1","1",""
"","html-keyboard-response","93","588070","0.0-93.0","3SNVL38CI5EXL9JVEO7K3D6LQGVCKR","A2FP41BSPG0Y4A","3I7KR83SNAZT1REYB2SRC49PCEEK9H","","null","<img src=""img/flower2.png"" style=""width:200px; border:14px solid green;"">","null","","","","","","","","",""
"","image-keyboard-response","94","588488","0.0-94.0","3SNVL38CI5EXL9JVEO7K3D6LQGVCKR","A2FP41BSPG0Y4A","3I7KR83SNAZT1REYB2SRC49PCEEK9H","","416.09999990463257","img/flower2.png","74","417.89999985694885","1","1","1","1","1,0.333,0.333,0.333,1,0.333,0.333,0.333,1","1,0.333,0.333,0.333,1,0.333,0.333,0.333,1","1",""
"","html-keyboard-response","95","588795","0.0-95.0","3SNVL38CI5EXL9JVEO7K3D6LQGVCKR","A2FP41BSPG0Y4A","3I7KR83SNAZT1REYB2SRC49PCEEK9H","","null","<img src=""img/flower2.png"" style=""width:200px; border:14px solid green;"">","null","","","","","","","","",""
"","image-keyboard-response","96","589338","0.0-96.0","3SNVL38CI5EXL9JVEO7K3D6LQGVCKR","A2FP41BSPG0Y4A","3I7KR83SNAZT1REYB2SRC49PCEEK9H","","540.8999998569489","img/flower3.png","76","542.7999999523163","3","1","3","1","1,0.333,0.333,0.333,1,0.333,0.333,0.333,1","1,0.333,0.333,0.333,1,0.333,0.333,0.333,1","1",""
"","html-keyboard-response","97","589646","0.0-97.0","3SNVL38CI5EXL9JVEO7K3D6LQGVCKR","A2FP41BSPG0Y4A","3I7KR83SNAZT1REYB2SRC49PCEEK9H","","null","<img src=""img/flower3.png"" style=""width:200px; border:14px solid green;"">","null","","","","","","","","",""
"","image-keyboard-response","98","590166","0.0-98.0","3SNVL38CI5EXL9JVEO7K3D6LQGVCKR","A2FP41BSPG0Y4A","3I7KR83SNAZT1REYB2SRC49PCEEK9H","","518","img/flower2.png","74","519.3999998569489","1","1","1","1","1,0.333,0.333,0.333,1,0.333,0.333,0.333,1","1,0.333,0.333,0.333,1,0.333,0.333,0.333,1","1",""
"","html-keyboard-response","99","590488","0.0-99.0","3SNVL38CI5EXL9JVEO7K3D6LQGVCKR","A2FP41BSPG0Y4A","3I7KR83SNAZT1REYB2SRC49PCEEK9H","","null","<img src=""img/flower2.png"" style=""width:200px; border:14px solid green;"">","null","","","","","","","","",""
"","image-keyboard-response","100","591030","0.0-100.0","3SNVL38CI5EXL9JVEO7K3D6LQGVCKR","A2FP41BSPG0Y4A","3I7KR83SNAZT1REYB2SRC49PCEEK9H","","539.9000000953674","img/flower3.png","76","541.2999999523163","3","1","3","1","1,0.333,0.333,0.333,1,0.333,0.333,0.333,1","1,0.333,0.333,0.333,1,0.333,0.333,0.333,1","1",""
"","html-keyboard-response","101","591332","0.0-101.0","3SNVL38CI5EXL9JVEO7K3D6LQGVCKR","A2FP41BSPG0Y4A","3I7KR83SNAZT1REYB2SRC49PCEEK9H","","null","<img src=""img/flower3.png"" style=""width:200px; border:14px solid green;"">","null","","","","","","","","",""
"","image-keyboard-response","102","591848","0.0-102.0","3SNVL38CI5EXL9JVEO7K3D6LQGVCKR","A2FP41BSPG0Y4A","3I7KR83SNAZT1REYB2SRC49PCEEK9H","","514.3999998569489","img/flower6.png","75","516.1000001430511","2","1","2","1","1,0.333,0.333,0.333,1,0.333,0.333,0.333,1","1,0.333,0.333,0.333,1,0.333,0.333,0.333,1","1",""
"","html-keyboard-response","103","592158","0.0-103.0","3SNVL38CI5EXL9JVEO7K3D6LQGVCKR","A2FP41BSPG0Y4A","3I7KR83SNAZT1REYB2SRC49PCEEK9H","","null","<img src=""img/flower6.png"" style=""width:200px; border:14px solid green;"">","null","","","","","","","","",""
"","image-keyboard-response","104","592824","0.0-104.0","3SNVL38CI5EXL9JVEO7K3D6LQGVCKR","A2FP41BSPG0Y4A","3I7KR83SNAZT1REYB2SRC49PCEEK9H","","664.0999999046326","img/flower3.png","76","665.5999999046326","3","1","3","1","1,0.333,0.333,0.333,1,0.333,0.333,0.333,1","1,0.333,0.333,0.333,1,0.333,0.333,0.333,1","1",""
"","html-keyboard-response","105","593127","0.0-105.0","3SNVL38CI5EXL9JVEO7K3D6LQGVCKR","A2FP41BSPG0Y4A","3I7KR83SNAZT1REYB2SRC49PCEEK9H","","null","<img src=""img/flower3.png"" style=""width:200px; border:14px solid green;"">","null","","","","","","","","",""
"","image-keyboard-response","106","593664","0.0-106.0","3SNVL38CI5EXL9JVEO7K3D6LQGVCKR","A2FP41BSPG0Y4A","3I7KR83SNAZT1REYB2SRC49PCEEK9H","","534.8000001907349","img/flower2.png","75","536.5","2","0","1","1","1,0.333,0.333,0.333,1,0.333,0.333,0.333,1","1,0.333,0.333,0.333,1,0.333,0.333,0.333,1","1",""
"","html-keyboard-response","107","593968","0.0-107.0","3SNVL38CI5EXL9JVEO7K3D6LQGVCKR","A2FP41BSPG0Y4A","3I7KR83SNAZT1REYB2SRC49PCEEK9H","","null","<img src=""img/flower2.png"" style=""width:200px;border:14px solid red;"">","null","","","","","","","","",""
"","image-keyboard-response","108","594523","0.0-108.0","3SNVL38CI5EXL9JVEO7K3D6LQGVCKR","A2FP41BSPG0Y4A","3I7KR83SNAZT1REYB2SRC49PCEEK9H","","553","img/flower3.png","76","554.5","3","1","3","1","1,0.333,0.333,0.333,1,0.333,0.333,0.333,1","1,0.333,0.333,0.333,1,0.333,0.333,0.333,1","1",""
"","html-keyboard-response","109","594829","0.0-109.0","3SNVL38CI5EXL9JVEO7K3D6LQGVCKR","A2FP41BSPG0Y4A","3I7KR83SNAZT1REYB2SRC49PCEEK9H","","null","<img src=""img/flower3.png"" style=""width:200px; border:14px solid green;"">","null","","","","","","","","",""
"","image-keyboard-response","110","595247","0.0-110.0","3SNVL38CI5EXL9JVEO7K3D6LQGVCKR","A2FP41BSPG0Y4A","3I7KR83SNAZT1REYB2SRC49PCEEK9H","","415.59999990463257","img/flower3.png","76","417.2999999523163","3","1","3","1","1,0.333,0.333,0.333,1,0.333,0.333,0.333,1","1,0.333,0.333,0.333,1,0.333,0.333,0.333,1","1",""
"","html-keyboard-response","111","595558","0.0-111.0","3SNVL38CI5EXL9JVEO7K3D6LQGVCKR","A2FP41BSPG0Y4A","3I7KR83SNAZT1REYB2SRC49PCEEK9H","","null","<img src=""img/flower3.png"" style=""width:200px; border:14px solid green;"">","null","","","","","","","","",""
"","image-keyboard-response","112","595995","0.0-112.0","3SNVL38CI5EXL9JVEO7K3D6LQGVCKR","A2FP41BSPG0Y4A","3I7KR83SNAZT1REYB2SRC49PCEEK9H","","434.2000000476837","img/flower2.png","74","435.7999999523163","1","1","1","1","1,0.333,0.333,0.333,1,0.333,0.333,0.333,1","1,0.333,0.333,0.333,1,0.333,0.333,0.333,1","1",""
"","html-keyboard-response","113","596300","0.0-113.0","3SNVL38CI5EXL9JVEO7K3D6LQGVCKR","A2FP41BSPG0Y4A","3I7KR83SNAZT1REYB2SRC49PCEEK9H","","null","<img src=""img/flower2.png"" style=""width:200px; border:14px solid green;"">","null","","","","","","","","",""
"","image-keyboard-response","114","596733","0.0-114.0","3SNVL38CI5EXL9JVEO7K3D6LQGVCKR","A2FP41BSPG0Y4A","3I7KR83SNAZT1REYB2SRC49PCEEK9H","","431.39999985694885","img/flower6.png","76","432.59999990463257","3","0","2","1","1,0.333,0.333,0.333,1,0.333,0.333,0.333,1","1,0.333,0.333,0.333,1,0.333,0.333,0.333,1","1",""
"","html-keyboard-response","115","597040","0.0-115.0","3SNVL38CI5EXL9JVEO7K3D6LQGVCKR","A2FP41BSPG0Y4A","3I7KR83SNAZT1REYB2SRC49PCEEK9H","","null","<img src=""img/flower6.png"" style=""width:200px;border:14px solid red;"">","null","","","","","","","","",""
"","image-keyboard-response","116","597250","0.0-116.0","3SNVL38CI5EXL9JVEO7K3D6LQGVCKR","A2FP41BSPG0Y4A","3I7KR83SNAZT1REYB2SRC49PCEEK9H","","207.80000019073486","img/flower3.png","75","209.5","2","0","3","1","1,0.333,0.333,0.333,1,0.333,0.333,0.333,1","1,0.333,0.333,0.333,1,0.333,0.333,0.333,1","1",""
"","html-keyboard-response","117","597556","0.0-117.0","3SNVL38CI5EXL9JVEO7K3D6LQGVCKR","A2FP41BSPG0Y4A","3I7KR83SNAZT1REYB2SRC49PCEEK9H","","null","<img src=""img/flower3.png"" style=""width:200px;border:14px solid red;"">","null","","","","","","","","",""
"","image-keyboard-response","118","597743","0.0-118.0","3SNVL38CI5EXL9JVEO7K3D6LQGVCKR","A2FP41BSPG0Y4A","3I7KR83SNAZT1REYB2SRC49PCEEK9H","","185.20000004768372","img/flower6.png","76","186.59999990463257","3","0","2","1","1,0.333,0.333,0.333,1,0.333,0.333,0.333,1","1,0.333,0.333,0.333,1,0.333,0.333,0.333,1","1",""
"","html-keyboard-response","119","598058","0.0-119.0","3SNVL38CI5EXL9JVEO7K3D6LQGVCKR","A2FP41BSPG0Y4A","3I7KR83SNAZT1REYB2SRC49PCEEK9H","","null","<img src=""img/flower6.png"" style=""width:200px;border:14px solid red;"">","null","","","","","","","","",""
"","image-keyboard-response","120","598549","0.0-120.0","3SNVL38CI5EXL9JVEO7K3D6LQGVCKR","A2FP41BSPG0Y4A","3I7KR83SNAZT1REYB2SRC49PCEEK9H","","488.89999985694885","img/flower3.png","75","490.40000009536743","2","0","3","1","1,0.333,0.333,0.333,1,0.333,0.333,0.333,1","1,0.333,0.333,0.333,1,0.333,0.333,0.333,1","1",""
"","html-keyboard-response","121","598852","0.0-121.0","3SNVL38CI5EXL9JVEO7K3D6LQGVCKR","A2FP41BSPG0Y4A","3I7KR83SNAZT1REYB2SRC49PCEEK9H","","null","<img src=""img/flower3.png"" style=""width:200px;border:14px solid red;"">","null","","","","","","","","",""
"","image-keyboard-response","122","599292","0.0-122.0","3SNVL38CI5EXL9JVEO7K3D6LQGVCKR","A2FP41BSPG0Y4A","3I7KR83SNAZT1REYB2SRC49PCEEK9H","","439.09999990463257","img/flower2.png","76","440.39999985694885","3","1","1","1","1,0.333,0.333,0.333,1,0.333,0.333,0.333,1","1,0.333,0.333,0.333,1,0.333,0.333,0.333,1","1",""
"","html-keyboard-response","123","599609","0.0-123.0","3SNVL38CI5EXL9JVEO7K3D6LQGVCKR","A2FP41BSPG0Y4A","3I7KR83SNAZT1REYB2SRC49PCEEK9H","","null","<img src=""img/flower2.png"" style=""width:200px; border:14px solid green;"">","null","","","","","","","","",""
"","image-keyboard-response","124","600323","0.0-124.0","3SNVL38CI5EXL9JVEO7K3D6LQGVCKR","A2FP41BSPG0Y4A","3I7KR83SNAZT1REYB2SRC49PCEEK9H","","713.0999999046326","img/flower3.png","74","714.5","1","0","3","1","1,0.333,0.333,0.333,1,0.333,0.333,0.333,1","1,0.333,0.333,0.333,1,0.333,0.333,0.333,1","1",""
"","html-keyboard-response","125","600639","0.0-125.0","3SNVL38CI5EXL9JVEO7K3D6LQGVCKR","A2FP41BSPG0Y4A","3I7KR83SNAZT1REYB2SRC49PCEEK9H","","null","<img src=""img/flower3.png"" style=""width:200px;border:14px solid red;"">","null","","","","","","","","",""
"","image-keyboard-response","126","600876","0.0-126.0","3SNVL38CI5EXL9JVEO7K3D6LQGVCKR","A2FP41BSPG0Y4A","3I7KR83SNAZT1REYB2SRC49PCEEK9H","","236","img/flower2.png","76","237.39999985694885","3","0","1","1","1,0.333,0.333,0.333,1,0.333,0.333,0.333,1","1,0.333,0.333,0.333,1,0.333,0.333,0.333,1","1",""
"","html-keyboard-response","127","601188","0.0-127.0","3SNVL38CI5EXL9JVEO7K3D6LQGVCKR","A2FP41BSPG0Y4A","3I7KR83SNAZT1REYB2SRC49PCEEK9H","","null","<img src=""img/flower2.png"" style=""width:200px;border:14px solid red;"">","null","","","","","","","","",""
"","image-keyboard-response","128","601811","0.0-128.0","3SNVL38CI5EXL9JVEO7K3D6LQGVCKR","A2FP41BSPG0Y4A","3I7KR83SNAZT1REYB2SRC49PCEEK9H","","621.2999999523163","img/flower2.png","75","623.3000001907349","2","1","1","1","1,0.333,0.333,0.333,1,0.333,0.333,0.333,1","1,0.333,0.333,0.333,1,0.333,0.333,0.333,1","1",""
"","html-keyboard-response","129","602116","0.0-129.0","3SNVL38CI5EXL9JVEO7K3D6LQGVCKR","A2FP41BSPG0Y4A","3I7KR83SNAZT1REYB2SRC49PCEEK9H","","null","<img src=""img/flower2.png"" style=""width:200px; border:14px solid green;"">","null","","","","","","","","",""
"","image-keyboard-response","130","602609","0.0-130.0","3SNVL38CI5EXL9JVEO7K3D6LQGVCKR","A2FP41BSPG0Y4A","3I7KR83SNAZT1REYB2SRC49PCEEK9H","","491.30000019073486","img/flower6.png","76","492.7000000476837","3","0","2","1","1,0.333,0.333,0.333,1,0.333,0.333,0.333,1","1,0.333,0.333,0.333,1,0.333,0.333,0.333,1","1",""
"","html-keyboard-response","131","602921","0.0-131.0","3SNVL38CI5EXL9JVEO7K3D6LQGVCKR","A2FP41BSPG0Y4A","3I7KR83SNAZT1REYB2SRC49PCEEK9H","","null","<img src=""img/flower6.png"" style=""width:200px;border:14px solid red;"">","null","","","","","","","","",""
"","image-keyboard-response","132","603689","0.0-132.0","3SNVL38CI5EXL9JVEO7K3D6LQGVCKR","A2FP41BSPG0Y4A","3I7KR83SNAZT1REYB2SRC49PCEEK9H","","764.9000000953674","img/flower6.png","74","766.8999998569489","1","0","2","1","1,0.333,0.333,0.333,1,0.333,0.333,0.333,1","1,0.333,0.333,0.333,1,0.333,0.333,0.333,1","1",""
"","html-keyboard-response","133","604000","0.0-133.0","3SNVL38CI5EXL9JVEO7K3D6LQGVCKR","A2FP41BSPG0Y4A","3I7KR83SNAZT1REYB2SRC49PCEEK9H","","null","<img src=""img/flower6.png"" style=""width:200px;border:14px solid red;"">","null","","","","","","","","",""
"","image-keyboard-response","134","604281","0.0-134.0","3SNVL38CI5EXL9JVEO7K3D6LQGVCKR","A2FP41BSPG0Y4A","3I7KR83SNAZT1REYB2SRC49PCEEK9H","","279.5","img/flower6.png","75","281.09999990463257","2","1","2","1","1,0.333,0.333,0.333,1,0.333,0.333,0.333,1","1,0.333,0.333,0.333,1,0.333,0.333,0.333,1","1",""
"","html-keyboard-response","135","604586","0.0-135.0","3SNVL38CI5EXL9JVEO7K3D6LQGVCKR","A2FP41BSPG0Y4A","3I7KR83SNAZT1REYB2SRC49PCEEK9H","","null","<img src=""img/flower6.png"" style=""width:200px; border:14px solid green;"">","null","","","","","","","","",""
"","image-keyboard-response","136","604979","0.0-136.0","3SNVL38CI5EXL9JVEO7K3D6LQGVCKR","A2FP41BSPG0Y4A","3I7KR83SNAZT1REYB2SRC49PCEEK9H","","391.10000014305115","img/flower6.png","75","392.90000009536743","2","1","2","1","1,0.333,0.333,0.333,1,0.333,0.333,0.333,1","1,0.333,0.333,0.333,1,0.333,0.333,0.333,1","1",""
"","html-keyboard-response","137","605302","0.0-137.0","3SNVL38CI5EXL9JVEO7K3D6LQGVCKR","A2FP41BSPG0Y4A","3I7KR83SNAZT1REYB2SRC49PCEEK9H","","null","<img src=""img/flower6.png"" style=""width:200px; border:14px solid green;"">","null","","","","","","","","",""
"","image-keyboard-response","138","605842","0.0-138.0","3SNVL38CI5EXL9JVEO7K3D6LQGVCKR","A2FP41BSPG0Y4A","3I7KR83SNAZT1REYB2SRC49PCEEK9H","","538.5","img/flower3.png","76","540.2000000476837","3","1","3","1","1,0.333,0.333,0.333,1,0.333,0.333,0.333,1","1,0.333,0.333,0.333,1,0.333,0.333,0.333,1","1",""
"","html-keyboard-response","139","606152","0.0-139.0","3SNVL38CI5EXL9JVEO7K3D6LQGVCKR","A2FP41BSPG0Y4A","3I7KR83SNAZT1REYB2SRC49PCEEK9H","","null","<img src=""img/flower3.png"" style=""width:200px; border:14px solid green;"">","null","","","","","","","","",""
"","image-keyboard-response","140","606772","0.0-140.0","3SNVL38CI5EXL9JVEO7K3D6LQGVCKR","A2FP41BSPG0Y4A","3I7KR83SNAZT1REYB2SRC49PCEEK9H","","617.3999998569489","img/flower2.png","75","619","2","0","1","1","1,0.333,0.333,0.333,1,0.333,0.333,0.333,1","1,0.333,0.333,0.333,1,0.333,0.333,0.333,1","1",""
"","html-keyboard-response","141","607081","0.0-141.0","3SNVL38CI5EXL9JVEO7K3D6LQGVCKR","A2FP41BSPG0Y4A","3I7KR83SNAZT1REYB2SRC49PCEEK9H","","null","<img src=""img/flower2.png"" style=""width:200px;border:14px solid red;"">","null","","","","","","","","",""
"","image-keyboard-response","142","607363","0.0-142.0","3SNVL38CI5EXL9JVEO7K3D6LQGVCKR","A2FP41BSPG0Y4A","3I7KR83SNAZT1REYB2SRC49PCEEK9H","","279.2999999523163","img/flower3.png","74","281","1","0","3","1","1,0.333,0.333,0.333,1,0.333,0.333,0.333,1","1,0.333,0.333,0.333,1,0.333,0.333,0.333,1","1",""
"","html-keyboard-response","143","607670","0.0-143.0","3SNVL38CI5EXL9JVEO7K3D6LQGVCKR","A2FP41BSPG0Y4A","3I7KR83SNAZT1REYB2SRC49PCEEK9H","","null","<img src=""img/flower3.png"" style=""width:200px;border:14px solid red;"">","null","","","","","","","","",""
"","image-keyboard-response","144","607834","0.0-144.0","3SNVL38CI5EXL9JVEO7K3D6LQGVCKR","A2FP41BSPG0Y4A","3I7KR83SNAZT1REYB2SRC49PCEEK9H","","161.79999995231628","img/flower3.png","76","163.20000004768372","3","1","3","1","1,0.333,0.333,0.333,1,0.333,0.333,0.333,1","1,0.333,0.333,0.333,1,0.333,0.333,0.333,1","1",""
"","html-keyboard-response","145","608138","0.0-145.0","3SNVL38CI5EXL9JVEO7K3D6LQGVCKR","A2FP41BSPG0Y4A","3I7KR83SNAZT1REYB2SRC49PCEEK9H","","null","<img src=""img/flower3.png"" style=""width:200px; border:14px solid green;"">","null","","","","","","","","",""
"","image-keyboard-response","146","608779","0.0-146.0","3SNVL38CI5EXL9JVEO7K3D6LQGVCKR","A2FP41BSPG0Y4A","3I7KR83SNAZT1REYB2SRC49PCEEK9H","","638.5","img/flower6.png","75","640.5","2","1","2","1","1,0.333,0.333,0.333,1,0.333,0.333,0.333,1","1,0.333,0.333,0.333,1,0.333,0.333,0.333,1","1",""
"","html-keyboard-response","147","609088","0.0-147.0","3SNVL38CI5EXL9JVEO7K3D6LQGVCKR","A2FP41BSPG0Y4A","3I7KR83SNAZT1REYB2SRC49PCEEK9H","","null","<img src=""img/flower6.png"" style=""width:200px; border:14px solid green;"">","null","","","","","","","","",""
"","image-keyboard-response","148","609779","0.0-148.0","3SNVL38CI5EXL9JVEO7K3D6LQGVCKR","A2FP41BSPG0Y4A","3I7KR83SNAZT1REYB2SRC49PCEEK9H","","688.1000001430511","img/flower3.png","76","690","3","1","3","1","1,0.333,0.333,0.333,1,0.333,0.333,0.333,1","1,0.333,0.333,0.333,1,0.333,0.333,0.333,1","1",""
"","html-keyboard-response","149","610088","0.0-149.0","3SNVL38CI5EXL9JVEO7K3D6LQGVCKR","A2FP41BSPG0Y4A","3I7KR83SNAZT1REYB2SRC49PCEEK9H","","null","<img src=""img/flower3.png"" style=""width:200px; border:14px solid green;"">","null","","","","","","","","",""
"","image-keyboard-response","150","610838","0.0-150.0","3SNVL38CI5EXL9JVEO7K3D6LQGVCKR","A2FP41BSPG0Y4A","3I7KR83SNAZT1REYB2SRC49PCEEK9H","","747.4000000953674","img/flower2.png","74","749.2000000476837","1","1","1","1","1,0.333,0.333,0.333,1,0.333,0.333,0.333,1","1,0.333,0.333,0.333,1,0.333,0.333,0.333,1","1",""
"","html-keyboard-response","151","611146","0.0-151.0","3SNVL38CI5EXL9JVEO7K3D6LQGVCKR","A2FP41BSPG0Y4A","3I7KR83SNAZT1REYB2SRC49PCEEK9H","","null","<img src=""img/flower2.png"" style=""width:200px; border:14px solid green;"">","null","","","","","","","","",""
"","image-keyboard-response","152","611907","0.0-152.0","3SNVL38CI5EXL9JVEO7K3D6LQGVCKR","A2FP41BSPG0Y4A","3I7KR83SNAZT1REYB2SRC49PCEEK9H","","758.1999998092651","img/flower6.png","75","760.0999999046326","2","1","2","1","1,0.333,0.333,0.333,1,0.333,0.333,0.333,1","1,0.333,0.333,0.333,1,0.333,0.333,0.333,1","1",""
"","html-keyboard-response","153","612212","0.0-153.0","3SNVL38CI5EXL9JVEO7K3D6LQGVCKR","A2FP41BSPG0Y4A","3I7KR83SNAZT1REYB2SRC49PCEEK9H","","null","<img src=""img/flower6.png"" style=""width:200px; border:14px solid green;"">","null","","","","","","","","",""
"","image-keyboard-response","154","612869","0.0-154.0","3SNVL38CI5EXL9JVEO7K3D6LQGVCKR","A2FP41BSPG0Y4A","3I7KR83SNAZT1REYB2SRC49PCEEK9H","","654.4000000953674","img/flower2.png","74","656","1","1","1","1","1,0.333,0.333,0.333,1,0.333,0.333,0.333,1","1,0.333,0.333,0.333,1,0.333,0.333,0.333,1","1",""
"","html-keyboard-response","155","613180","0.0-155.0","3SNVL38CI5EXL9JVEO7K3D6LQGVCKR","A2FP41BSPG0Y4A","3I7KR83SNAZT1REYB2SRC49PCEEK9H","","null","<img src=""img/flower2.png"" style=""width:200px; border:14px solid green;"">","null","","","","","","","","",""
"","image-keyboard-response","156","613814","0.0-156.0","3SNVL38CI5EXL9JVEO7K3D6LQGVCKR","A2FP41BSPG0Y4A","3I7KR83SNAZT1REYB2SRC49PCEEK9H","","631.7999999523163","img/flower6.png","75","633.6999998092651","2","1","2","1","1,0.333,0.333,0.333,1,0.333,0.333,0.333,1","1,0.333,0.333,0.333,1,0.333,0.333,0.333,1","1",""
"","html-keyboard-response","157","614121","0.0-157.0","3SNVL38CI5EXL9JVEO7K3D6LQGVCKR","A2FP41BSPG0Y4A","3I7KR83SNAZT1REYB2SRC49PCEEK9H","","null","<img src=""img/flower6.png"" style=""width:200px; border:14px solid green;"">","null","","","","","","","","",""
"","image-keyboard-response","158","614558","0.0-158.0","3SNVL38CI5EXL9JVEO7K3D6LQGVCKR","A2FP41BSPG0Y4A","3I7KR83SNAZT1REYB2SRC49PCEEK9H","","435.2999999523163","img/flower6.png","75","437.10000014305115","2","1","2","1","1,0.333,0.333,0.333,1,0.333,0.333,0.333,1","1,0.333,0.333,0.333,1,0.333,0.333,0.333,1","1",""
"","html-keyboard-response","159","614870","0.0-159.0","3SNVL38CI5EXL9JVEO7K3D6LQGVCKR","A2FP41BSPG0Y4A","3I7KR83SNAZT1REYB2SRC49PCEEK9H","","null","<img src=""img/flower6.png"" style=""width:200px; border:14px solid green;"">","null","","","","","","","","",""
"","image-keyboard-response","160","615438","0.0-160.0","3SNVL38CI5EXL9JVEO7K3D6LQGVCKR","A2FP41BSPG0Y4A","3I7KR83SNAZT1REYB2SRC49PCEEK9H","","566.2000000476837","img/flower2.png","74","567.8000001907349","1","1","1","1","1,0.333,0.333,0.333,1,0.333,0.333,0.333,1","1,0.333,0.333,0.333,1,0.333,0.333,0.333,1","1",""
"","html-keyboard-response","161","615752","0.0-161.0","3SNVL38CI5EXL9JVEO7K3D6LQGVCKR","A2FP41BSPG0Y4A","3I7KR83SNAZT1REYB2SRC49PCEEK9H","","null","<img src=""img/flower2.png"" style=""width:200px; border:14px solid green;"">","null","","","","","","","","",""
"","image-keyboard-response","162","616245","0.0-162.0","3SNVL38CI5EXL9JVEO7K3D6LQGVCKR","A2FP41BSPG0Y4A","3I7KR83SNAZT1REYB2SRC49PCEEK9H","","490.7000000476837","img/flower6.png","75","492.5","2","1","2","1","1,0.333,0.333,0.333,1,0.333,0.333,0.333,1","1,0.333,0.333,0.333,1,0.333,0.333,0.333,1","1",""
"","html-keyboard-response","163","616554","0.0-163.0","3SNVL38CI5EXL9JVEO7K3D6LQGVCKR","A2FP41BSPG0Y4A","3I7KR83SNAZT1REYB2SRC49PCEEK9H","","null","<img src=""img/flower6.png"" style=""width:200px; border:14px solid green;"">","null","","","","","","","","",""
"","image-keyboard-response","164","617166","0.0-164.0","3SNVL38CI5EXL9JVEO7K3D6LQGVCKR","A2FP41BSPG0Y4A","3I7KR83SNAZT1REYB2SRC49PCEEK9H","","610.5","img/flower3.png","76","611.8999998569489","3","1","3","1","1,0.333,0.333,0.333,1,0.333,0.333,0.333,1","1,0.333,0.333,0.333,1,0.333,0.333,0.333,1","1",""
"","html-keyboard-response","165","617473","0.0-165.0","3SNVL38CI5EXL9JVEO7K3D6LQGVCKR","A2FP41BSPG0Y4A","3I7KR83SNAZT1REYB2SRC49PCEEK9H","","null","<img src=""img/flower3.png"" style=""width:200px; border:14px solid green;"">","null","","","","","","","","",""
"","image-keyboard-response","166","618131","0.0-166.0","3SNVL38CI5EXL9JVEO7K3D6LQGVCKR","A2FP41BSPG0Y4A","3I7KR83SNAZT1REYB2SRC49PCEEK9H","","656.7000000476837","img/flower2.png","75","658.2999999523163","2","0","1","1","1,0.333,0.333,0.333,1,0.333,0.333,0.333,1","1,0.333,0.333,0.333,1,0.333,0.333,0.333,1","1",""
"","html-keyboard-response","167","618441","0.0-167.0","3SNVL38CI5EXL9JVEO7K3D6LQGVCKR","A2FP41BSPG0Y4A","3I7KR83SNAZT1REYB2SRC49PCEEK9H","","null","<img src=""img/flower2.png"" style=""width:200px;border:14px solid red;"">","null","","","","","","","","",""
"","image-keyboard-response","168","618892","0.0-168.0","3SNVL38CI5EXL9JVEO7K3D6LQGVCKR","A2FP41BSPG0Y4A","3I7KR83SNAZT1REYB2SRC49PCEEK9H","","449.40000009536743","img/flower6.png","76","451","3","0","2","1","1,0.333,0.333,0.333,1,0.333,0.333,0.333,1","1,0.333,0.333,0.333,1,0.333,0.333,0.333,1","1",""
"","html-keyboard-response","169","619196","0.0-169.0","3SNVL38CI5EXL9JVEO7K3D6LQGVCKR","A2FP41BSPG0Y4A","3I7KR83SNAZT1REYB2SRC49PCEEK9H","","null","<img src=""img/flower6.png"" style=""width:200px;border:14px solid red;"">","null","","","","","","","","",""
"","image-keyboard-response","170","620050","0.0-170.0","3SNVL38CI5EXL9JVEO7K3D6LQGVCKR","A2FP41BSPG0Y4A","3I7KR83SNAZT1REYB2SRC49PCEEK9H","","850.5999999046326","img/flower3.png","74","853.2000000476837","1","0","3","1","1,0.333,0.333,0.333,1,0.333,0.333,0.333,1","1,0.333,0.333,0.333,1,0.333,0.333,0.333,1","1",""
"","html-keyboard-response","171","620356","0.0-171.0","3SNVL38CI5EXL9JVEO7K3D6LQGVCKR","A2FP41BSPG0Y4A","3I7KR83SNAZT1REYB2SRC49PCEEK9H","","null","<img src=""img/flower3.png"" style=""width:200px;border:14px solid red;"">","null","","","","","","","","",""
"","image-keyboard-response","172","620756","0.0-172.0","3SNVL38CI5EXL9JVEO7K3D6LQGVCKR","A2FP41BSPG0Y4A","3I7KR83SNAZT1REYB2SRC49PCEEK9H","","398.09999990463257","img/flower3.png","76","399.5","3","1","3","1","1,0.333,0.333,0.333,1,0.333,0.333,0.333,1","1,0.333,0.333,0.333,1,0.333,0.333,0.333,1","1",""
"","html-keyboard-response","173","621067","0.0-173.0","3SNVL38CI5EXL9JVEO7K3D6LQGVCKR","A2FP41BSPG0Y4A","3I7KR83SNAZT1REYB2SRC49PCEEK9H","","null","<img src=""img/flower3.png"" style=""width:200px; border:14px solid green;"">","null","","","","","","","","",""
"","image-keyboard-response","174","621681","0.0-174.0","3SNVL38CI5EXL9JVEO7K3D6LQGVCKR","A2FP41BSPG0Y4A","3I7KR83SNAZT1REYB2SRC49PCEEK9H","","612.0999999046326","img/flower6.png","75","613.7999999523163","2","1","2","1","1,0.333,0.333,0.333,1,0.333,0.333,0.333,1","1,0.333,0.333,0.333,1,0.333,0.333,0.333,1","1",""
"","html-keyboard-response","175","621990","0.0-175.0","3SNVL38CI5EXL9JVEO7K3D6LQGVCKR","A2FP41BSPG0Y4A","3I7KR83SNAZT1REYB2SRC49PCEEK9H","","null","<img src=""img/flower6.png"" style=""width:200px; border:14px solid green;"">","null","","","","","","","","",""
"","image-keyboard-response","176","622407","0.0-176.0","3SNVL38CI5EXL9JVEO7K3D6LQGVCKR","A2FP41BSPG0Y4A","3I7KR83SNAZT1REYB2SRC49PCEEK9H","","414.80000019073486","img/flower6.png","75","416.2000000476837","2","1","2","1","1,0.333,0.333,0.333,1,0.333,0.333,0.333,1","1,0.333,0.333,0.333,1,0.333,0.333,0.333,1","1",""
"","html-keyboard-response","177","622718","0.0-177.0","3SNVL38CI5EXL9JVEO7K3D6LQGVCKR","A2FP41BSPG0Y4A","3I7KR83SNAZT1REYB2SRC49PCEEK9H","","null","<img src=""img/flower6.png"" style=""width:200px; border:14px solid green;"">","null","","","","","","","","",""
"","image-keyboard-response","178","623120","0.0-178.0","3SNVL38CI5EXL9JVEO7K3D6LQGVCKR","A2FP41BSPG0Y4A","3I7KR83SNAZT1REYB2SRC49PCEEK9H","","399.7000000476837","img/flower6.png","75","401.2999999523163","2","1","2","1","1,0.333,0.333,0.333,1,0.333,0.333,0.333,1","1,0.333,0.333,0.333,1,0.333,0.333,0.333,1","1",""
"","html-keyboard-response","179","623427","0.0-179.0","3SNVL38CI5EXL9JVEO7K3D6LQGVCKR","A2FP41BSPG0Y4A","3I7KR83SNAZT1REYB2SRC49PCEEK9H","","null","<img src=""img/flower6.png"" style=""width:200px; border:14px solid green;"">","null","","","","","","","","",""
"","image-keyboard-response","180","624015","0.0-180.0","3SNVL38CI5EXL9JVEO7K3D6LQGVCKR","A2FP41BSPG0Y4A","3I7KR83SNAZT1REYB2SRC49PCEEK9H","","586.2999999523163","img/flower3.png","74","587.7999999523163","1","0","3","1","1,0.333,0.333,0.333,1,0.333,0.333,0.333,1","1,0.333,0.333,0.333,1,0.333,0.333,0.333,1","1",""
"","html-keyboard-response","181","624331","0.0-181.0","3SNVL38CI5EXL9JVEO7K3D6LQGVCKR","A2FP41BSPG0Y4A","3I7KR83SNAZT1REYB2SRC49PCEEK9H","","null","<img src=""img/flower3.png"" style=""width:200px;border:14px solid red;"">","null","","","","","","","","",""
"","html-keyboard-response","182","627032","0.0-182.0","3SNVL38CI5EXL9JVEO7K3D6LQGVCKR","A2FP41BSPG0Y4A","3I7KR83SNAZT1REYB2SRC49PCEEK9H","","","","","","","","","","","","",""
"","image-keyboard-response","183","628084","0.0-183.0","3SNVL38CI5EXL9JVEO7K3D6LQGVCKR","A2FP41BSPG0Y4A","3I7KR83SNAZT1REYB2SRC49PCEEK9H","","1050.7000000476837","img/flower4.png","75","1052.1000001430511","2","1","1","2","1,0,0,1,1,0,1,0,1","0,1,0,0,1,1,1,1,0","3",""
"","html-keyboard-response","184","628389","0.0-184.0","3SNVL38CI5EXL9JVEO7K3D6LQGVCKR","A2FP41BSPG0Y4A","3I7KR83SNAZT1REYB2SRC49PCEEK9H","","null","<img src=""img/flower4.png"" style=""width:200px; border:14px solid green;"">","null","","","","","","","","",""
"","image-keyboard-response","185","628842","0.0-185.0","3SNVL38CI5EXL9JVEO7K3D6LQGVCKR","A2FP41BSPG0Y4A","3I7KR83SNAZT1REYB2SRC49PCEEK9H","","450.80000019073486","img/flower1.png","75","452.7000000476837","2","1","3","2","1,0,0,1,1,0,1,0,1","0,1,0,0,1,1,1,1,0","3",""
"","html-keyboard-response","186","629145","0.0-186.0","3SNVL38CI5EXL9JVEO7K3D6LQGVCKR","A2FP41BSPG0Y4A","3I7KR83SNAZT1REYB2SRC49PCEEK9H","","null","<img src=""img/flower1.png"" style=""width:200px; border:14px solid green;"">","null","","","","","","","","",""
"","image-keyboard-response","187","629540","0.0-187.0","3SNVL38CI5EXL9JVEO7K3D6LQGVCKR","A2FP41BSPG0Y4A","3I7KR83SNAZT1REYB2SRC49PCEEK9H","","393.09999990463257","img/flower4.png","75","394.69999980926514","2","1","1","2","1,0,0,1,1,0,1,0,1","0,1,0,0,1,1,1,1,0","3",""
"","html-keyboard-response","188","629847","0.0-188.0","3SNVL38CI5EXL9JVEO7K3D6LQGVCKR","A2FP41BSPG0Y4A","3I7KR83SNAZT1REYB2SRC49PCEEK9H","","null","<img src=""img/flower4.png"" style=""width:200px; border:14px solid green;"">","null","","","","","","","","",""
"","image-keyboard-response","189","630193","0.0-189.0","3SNVL38CI5EXL9JVEO7K3D6LQGVCKR","A2FP41BSPG0Y4A","3I7KR83SNAZT1REYB2SRC49PCEEK9H","","343.90000009536743","img/flower5.png","75","345.7000000476837","2","1","2","2","1,0,0,1,1,0,1,0,1","0,1,0,0,1,1,1,1,0","3",""
"","html-keyboard-response","190","630499","0.0-190.0","3SNVL38CI5EXL9JVEO7K3D6LQGVCKR","A2FP41BSPG0Y4A","3I7KR83SNAZT1REYB2SRC49PCEEK9H","","null","<img src=""img/flower5.png"" style=""width:200px; border:14px solid green;"">","null","","","","","","","","",""
"","image-keyboard-response","191","630782","0.0-191.0","3SNVL38CI5EXL9JVEO7K3D6LQGVCKR","A2FP41BSPG0Y4A","3I7KR83SNAZT1REYB2SRC49PCEEK9H","","281.5","img/flower5.png","75","283","2","1","2","2","1,0,0,1,1,0,1,0,1","0,1,0,0,1,1,1,1,0","3",""
"","html-keyboard-response","192","631091","0.0-192.0","3SNVL38CI5EXL9JVEO7K3D6LQGVCKR","A2FP41BSPG0Y4A","3I7KR83SNAZT1REYB2SRC49PCEEK9H","","null","<img src=""img/flower5.png"" style=""width:200px; border:14px solid green;"">","null","","","","","","","","",""
"","image-keyboard-response","193","631374","0.0-193.0","3SNVL38CI5EXL9JVEO7K3D6LQGVCKR","A2FP41BSPG0Y4A","3I7KR83SNAZT1REYB2SRC49PCEEK9H","","280.7000000476837","img/flower5.png","75","282.2000000476837","2","1","2","2","1,0,0,1,1,0,1,0,1","0,1,0,0,1,1,1,1,0","3",""
"","html-keyboard-response","194","631684","0.0-194.0","3SNVL38CI5EXL9JVEO7K3D6LQGVCKR","A2FP41BSPG0Y4A","3I7KR83SNAZT1REYB2SRC49PCEEK9H","","null","<img src=""img/flower5.png"" style=""width:200px; border:14px solid green;"">","null","","","","","","","","",""
"","image-keyboard-response","195","632160","0.0-195.0","3SNVL38CI5EXL9JVEO7K3D6LQGVCKR","A2FP41BSPG0Y4A","3I7KR83SNAZT1REYB2SRC49PCEEK9H","","473.7000000476837","img/flower4.png","75","475.2000000476837","2","1","1","2","1,0,0,1,1,0,1,0,1","0,1,0,0,1,1,1,1,0","3",""
"","html-keyboard-response","196","632468","0.0-196.0","3SNVL38CI5EXL9JVEO7K3D6LQGVCKR","A2FP41BSPG0Y4A","3I7KR83SNAZT1REYB2SRC49PCEEK9H","","null","<img src=""img/flower4.png"" style=""width:200px; border:14px solid green;"">","null","","","","","","","","",""
"","image-keyboard-response","197","632901","0.0-197.0","3SNVL38CI5EXL9JVEO7K3D6LQGVCKR","A2FP41BSPG0Y4A","3I7KR83SNAZT1REYB2SRC49PCEEK9H","","431.40000009536743","img/flower5.png","75","433.09999990463257","2","1","2","2","1,0,0,1,1,0,1,0,1","0,1,0,0,1,1,1,1,0","3",""
"","html-keyboard-response","198","633214","0.0-198.0","3SNVL38CI5EXL9JVEO7K3D6LQGVCKR","A2FP41BSPG0Y4A","3I7KR83SNAZT1REYB2SRC49PCEEK9H","","null","<img src=""img/flower5.png"" style=""width:200px; border:14px solid green;"">","null","","","","","","","","",""
"","image-keyboard-response","199","633535","0.0-199.0","3SNVL38CI5EXL9JVEO7K3D6LQGVCKR","A2FP41BSPG0Y4A","3I7KR83SNAZT1REYB2SRC49PCEEK9H","","318.5","img/flower5.png","75","320.09999990463257","2","1","2","2","1,0,0,1,1,0,1,0,1","0,1,0,0,1,1,1,1,0","3",""
"","html-keyboard-response","200","633843","0.0-200.0","3SNVL38CI5EXL9JVEO7K3D6LQGVCKR","A2FP41BSPG0Y4A","3I7KR83SNAZT1REYB2SRC49PCEEK9H","","null","<img src=""img/flower5.png"" style=""width:200px; border:14px solid green;"">","null","","","","","","","","",""
"","image-keyboard-response","201","634077","0.0-201.0","3SNVL38CI5EXL9JVEO7K3D6LQGVCKR","A2FP41BSPG0Y4A","3I7KR83SNAZT1REYB2SRC49PCEEK9H","","232.59999990463257","img/flower5.png","75","234.29999995231628","2","1","2","2","1,0,0,1,1,0,1,0,1","0,1,0,0,1,1,1,1,0","3",""
"","html-keyboard-response","202","634386","0.0-202.0","3SNVL38CI5EXL9JVEO7K3D6LQGVCKR","A2FP41BSPG0Y4A","3I7KR83SNAZT1REYB2SRC49PCEEK9H","","null","<img src=""img/flower5.png"" style=""width:200px; border:14px solid green;"">","null","","","","","","","","",""
"","image-keyboard-response","203","634753","0.0-203.0","3SNVL38CI5EXL9JVEO7K3D6LQGVCKR","A2FP41BSPG0Y4A","3I7KR83SNAZT1REYB2SRC49PCEEK9H","","364.69999980926514","img/flower5.png","75","366.19999980926514","2","1","2","2","1,0,0,1,1,0,1,0,1","0,1,0,0,1,1,1,1,0","3",""
"","html-keyboard-response","204","635059","0.0-204.0","3SNVL38CI5EXL9JVEO7K3D6LQGVCKR","A2FP41BSPG0Y4A","3I7KR83SNAZT1REYB2SRC49PCEEK9H","","null","<img src=""img/flower5.png"" style=""width:200px; border:14px solid green;"">","null","","","","","","","","",""
"","image-keyboard-response","205","636158","0.0-205.0","3SNVL38CI5EXL9JVEO7K3D6LQGVCKR","A2FP41BSPG0Y4A","3I7KR83SNAZT1REYB2SRC49PCEEK9H","","1096","img/flower1.png","75","1097.7000000476837","2","1","3","2","1,0,0,1,1,0,1,0,1","0,1,0,0,1,1,1,1,0","3",""
"","html-keyboard-response","206","636471","0.0-206.0","3SNVL38CI5EXL9JVEO7K3D6LQGVCKR","A2FP41BSPG0Y4A","3I7KR83SNAZT1REYB2SRC49PCEEK9H","","null","<img src=""img/flower1.png"" style=""width:200px; border:14px solid green;"">","null","","","","","","","","",""
"","image-keyboard-response","207","636663","0.0-207.0","3SNVL38CI5EXL9JVEO7K3D6LQGVCKR","A2FP41BSPG0Y4A","3I7KR83SNAZT1REYB2SRC49PCEEK9H","","190.09999990463257","img/flower5.png","75","192","2","1","2","2","1,0,0,1,1,0,1,0,1","0,1,0,0,1,1,1,1,0","3",""
"","html-keyboard-response","208","636969","0.0-208.0","3SNVL38CI5EXL9JVEO7K3D6LQGVCKR","A2FP41BSPG0Y4A","3I7KR83SNAZT1REYB2SRC49PCEEK9H","","null","<img src=""img/flower5.png"" style=""width:200px; border:14px solid green;"">","null","","","","","","","","",""
"","image-keyboard-response","209","637219","0.0-209.0","3SNVL38CI5EXL9JVEO7K3D6LQGVCKR","A2FP41BSPG0Y4A","3I7KR83SNAZT1REYB2SRC49PCEEK9H","","248.40000009536743","img/flower1.png","75","249.89999985694885","2","1","3","2","1,0,0,1,1,0,1,0,1","0,1,0,0,1,1,1,1,0","3",""
"","html-keyboard-response","210","637524","0.0-210.0","3SNVL38CI5EXL9JVEO7K3D6LQGVCKR","A2FP41BSPG0Y4A","3I7KR83SNAZT1REYB2SRC49PCEEK9H","","null","<img src=""img/flower1.png"" style=""width:200px; border:14px solid green;"">","null","","","","","","","","",""
"","image-keyboard-response","211","637730","0.0-211.0","3SNVL38CI5EXL9JVEO7K3D6LQGVCKR","A2FP41BSPG0Y4A","3I7KR83SNAZT1REYB2SRC49PCEEK9H","","204.10000014305115","img/flower5.png","75","205.70000004768372","2","1","2","2","1,0,0,1,1,0,1,0,1","0,1,0,0,1,1,1,1,0","3",""
"","html-keyboard-response","212","638039","0.0-212.0","3SNVL38CI5EXL9JVEO7K3D6LQGVCKR","A2FP41BSPG0Y4A","3I7KR83SNAZT1REYB2SRC49PCEEK9H","","null","<img src=""img/flower5.png"" style=""width:200px; border:14px solid green;"">","null","","","","","","","","",""
"","image-keyboard-response","213","638924","0.0-213.0","3SNVL38CI5EXL9JVEO7K3D6LQGVCKR","A2FP41BSPG0Y4A","3I7KR83SNAZT1REYB2SRC49PCEEK9H","","882.7000000476837","img/flower1.png","75","884.2000000476837","2","1","3","2","1,0,0,1,1,0,1,0,1","0,1,0,0,1,1,1,1,0","3",""
"","html-keyboard-response","214","639230","0.0-214.0","3SNVL38CI5EXL9JVEO7K3D6LQGVCKR","A2FP41BSPG0Y4A","3I7KR83SNAZT1REYB2SRC49PCEEK9H","","null","<img src=""img/flower1.png"" style=""width:200px; border:14px solid green;"">","null","","","","","","","","",""
"","image-keyboard-response","215","639491","0.0-215.0","3SNVL38CI5EXL9JVEO7K3D6LQGVCKR","A2FP41BSPG0Y4A","3I7KR83SNAZT1REYB2SRC49PCEEK9H","","258.90000009536743","img/flower1.png","75","260.7000000476837","2","1","3","2","1,0,0,1,1,0,1,0,1","0,1,0,0,1,1,1,1,0","3",""
"","html-keyboard-response","216","639808","0.0-216.0","3SNVL38CI5EXL9JVEO7K3D6LQGVCKR","A2FP41BSPG0Y4A","3I7KR83SNAZT1REYB2SRC49PCEEK9H","","null","<img src=""img/flower1.png"" style=""width:200px; border:14px solid green;"">","null","","","","","","","","",""
"","image-keyboard-response","217","640177","0.0-217.0","3SNVL38CI5EXL9JVEO7K3D6LQGVCKR","A2FP41BSPG0Y4A","3I7KR83SNAZT1REYB2SRC49PCEEK9H","","367.40000009536743","img/flower1.png","75","369.2000000476837","2","1","3","2","1,0,0,1,1,0,1,0,1","0,1,0,0,1,1,1,1,0","3",""
"","html-keyboard-response","218","640487","0.0-218.0","3SNVL38CI5EXL9JVEO7K3D6LQGVCKR","A2FP41BSPG0Y4A","3I7KR83SNAZT1REYB2SRC49PCEEK9H","","null","<img src=""img/flower1.png"" style=""width:200px; border:14px solid green;"">","null","","","","","","","","",""
"","image-keyboard-response","219","641290","0.0-219.0","3SNVL38CI5EXL9JVEO7K3D6LQGVCKR","A2FP41BSPG0Y4A","3I7KR83SNAZT1REYB2SRC49PCEEK9H","","800","img/flower1.png","75","801.7999999523163","2","1","3","2","1,0,0,1,1,0,1,0,1","0,1,0,0,1,1,1,1,0","3",""
"","html-keyboard-response","220","641597","0.0-220.0","3SNVL38CI5EXL9JVEO7K3D6LQGVCKR","A2FP41BSPG0Y4A","3I7KR83SNAZT1REYB2SRC49PCEEK9H","","null","<img src=""img/flower1.png"" style=""width:200px; border:14px solid green;"">","null","","","","","","","","",""
"","image-keyboard-response","221","641856","0.0-221.0","3SNVL38CI5EXL9JVEO7K3D6LQGVCKR","A2FP41BSPG0Y4A","3I7KR83SNAZT1REYB2SRC49PCEEK9H","","257.5","img/flower1.png","75","259.09999990463257","2","1","3","2","1,0,0,1,1,0,1,0,1","0,1,0,0,1,1,1,1,0","3",""
"","html-keyboard-response","222","642165","0.0-222.0","3SNVL38CI5EXL9JVEO7K3D6LQGVCKR","A2FP41BSPG0Y4A","3I7KR83SNAZT1REYB2SRC49PCEEK9H","","null","<img src=""img/flower1.png"" style=""width:200px; border:14px solid green;"">","null","","","","","","","","",""
"","image-keyboard-response","223","642492","0.0-223.0","3SNVL38CI5EXL9JVEO7K3D6LQGVCKR","A2FP41BSPG0Y4A","3I7KR83SNAZT1REYB2SRC49PCEEK9H","","325.30000019073486","img/flower5.png","75","326.89999985694885","2","1","2","2","1,0,0,1,1,0,1,0,1","0,1,0,0,1,1,1,1,0","3",""
"","html-keyboard-response","224","642804","0.0-224.0","3SNVL38CI5EXL9JVEO7K3D6LQGVCKR","A2FP41BSPG0Y4A","3I7KR83SNAZT1REYB2SRC49PCEEK9H","","null","<img src=""img/flower5.png"" style=""width:200px; border:14px solid green;"">","null","","","","","","","","",""
"","image-keyboard-response","225","642986","0.0-225.0","3SNVL38CI5EXL9JVEO7K3D6LQGVCKR","A2FP41BSPG0Y4A","3I7KR83SNAZT1REYB2SRC49PCEEK9H","","180.09999990463257","img/flower4.png","75","181.5","2","1","1","2","1,0,0,1,1,0,1,0,1","0,1,0,0,1,1,1,1,0","3",""
"","html-keyboard-response","226","643294","0.0-226.0","3SNVL38CI5EXL9JVEO7K3D6LQGVCKR","A2FP41BSPG0Y4A","3I7KR83SNAZT1REYB2SRC49PCEEK9H","","null","<img src=""img/flower4.png"" style=""width:200px; border:14px solid green;"">","null","","","","","","","","",""
"","image-keyboard-response","227","643593","0.0-227.0","3SNVL38CI5EXL9JVEO7K3D6LQGVCKR","A2FP41BSPG0Y4A","3I7KR83SNAZT1REYB2SRC49PCEEK9H","","296.30000019073486","img/flower1.png","75","298","2","1","3","2","1,0,0,1,1,0,1,0,1","0,1,0,0,1,1,1,1,0","3",""
"","html-keyboard-response","228","643897","0.0-228.0","3SNVL38CI5EXL9JVEO7K3D6LQGVCKR","A2FP41BSPG0Y4A","3I7KR83SNAZT1REYB2SRC49PCEEK9H","","null","<img src=""img/flower1.png"" style=""width:200px; border:14px solid green;"">","null","","","","","","","","",""
"","image-keyboard-response","229","644509","0.0-229.0","3SNVL38CI5EXL9JVEO7K3D6LQGVCKR","A2FP41BSPG0Y4A","3I7KR83SNAZT1REYB2SRC49PCEEK9H","","610.2000000476837","img/flower1.png","75","611.7999999523163","2","1","3","2","1,0,0,1,1,0,1,0,1","0,1,0,0,1,1,1,1,0","3",""
"","html-keyboard-response","230","644815","0.0-230.0","3SNVL38CI5EXL9JVEO7K3D6LQGVCKR","A2FP41BSPG0Y4A","3I7KR83SNAZT1REYB2SRC49PCEEK9H","","null","<img src=""img/flower1.png"" style=""width:200px; border:14px solid green;"">","null","","","","","","","","",""
"","image-keyboard-response","231","645099","0.0-231.0","3SNVL38CI5EXL9JVEO7K3D6LQGVCKR","A2FP41BSPG0Y4A","3I7KR83SNAZT1REYB2SRC49PCEEK9H","","282.09999990463257","img/flower1.png","75","283.69999980926514","2","1","3","2","1,0,0,1,1,0,1,0,1","0,1,0,0,1,1,1,1,0","3",""
"","html-keyboard-response","232","645405","0.0-232.0","3SNVL38CI5EXL9JVEO7K3D6LQGVCKR","A2FP41BSPG0Y4A","3I7KR83SNAZT1REYB2SRC49PCEEK9H","","null","<img src=""img/flower1.png"" style=""width:200px; border:14px solid green;"">","null","","","","","","","","",""
"","image-keyboard-response","233","645808","0.0-233.0","3SNVL38CI5EXL9JVEO7K3D6LQGVCKR","A2FP41BSPG0Y4A","3I7KR83SNAZT1REYB2SRC49PCEEK9H","","400.7000000476837","img/flower5.png","75","402.40000009536743","2","1","2","2","1,0,0,1,1,0,1,0,1","0,1,0,0,1,1,1,1,0","3",""
"","html-keyboard-response","234","646120","0.0-234.0","3SNVL38CI5EXL9JVEO7K3D6LQGVCKR","A2FP41BSPG0Y4A","3I7KR83SNAZT1REYB2SRC49PCEEK9H","","null","<img src=""img/flower5.png"" style=""width:200px; border:14px solid green;"">","null","","","","","","","","",""
"","image-keyboard-response","235","646360","0.0-235.0","3SNVL38CI5EXL9JVEO7K3D6LQGVCKR","A2FP41BSPG0Y4A","3I7KR83SNAZT1REYB2SRC49PCEEK9H","","238.79999995231628","img/flower4.png","75","239.90000009536743","2","1","1","2","1,0,0,1,1,0,1,0,1","0,1,0,0,1,1,1,1,0","3",""
"","html-keyboard-response","236","646666","0.0-236.0","3SNVL38CI5EXL9JVEO7K3D6LQGVCKR","A2FP41BSPG0Y4A","3I7KR83SNAZT1REYB2SRC49PCEEK9H","","null","<img src=""img/flower4.png"" style=""width:200px; border:14px solid green;"">","null","","","","","","","","",""
"","image-keyboard-response","237","646867","0.0-237.0","3SNVL38CI5EXL9JVEO7K3D6LQGVCKR","A2FP41BSPG0Y4A","3I7KR83SNAZT1REYB2SRC49PCEEK9H","","199.20000004768372","img/flower4.png","75","200.69999980926514","2","1","1","2","1,0,0,1,1,0,1,0,1","0,1,0,0,1,1,1,1,0","3",""
"","html-keyboard-response","238","647178","0.0-238.0","3SNVL38CI5EXL9JVEO7K3D6LQGVCKR","A2FP41BSPG0Y4A","3I7KR83SNAZT1REYB2SRC49PCEEK9H","","null","<img src=""img/flower4.png"" style=""width:200px; border:14px solid green;"">","null","","","","","","","","",""
"","image-keyboard-response","239","647446","0.0-239.0","3SNVL38CI5EXL9JVEO7K3D6LQGVCKR","A2FP41BSPG0Y4A","3I7KR83SNAZT1REYB2SRC49PCEEK9H","","265.7000000476837","img/flower1.png","75","267.40000009536743","2","1","3","2","1,0,0,1,1,0,1,0,1","0,1,0,0,1,1,1,1,0","3",""
"","html-keyboard-response","240","647750","0.0-240.0","3SNVL38CI5EXL9JVEO7K3D6LQGVCKR","A2FP41BSPG0Y4A","3I7KR83SNAZT1REYB2SRC49PCEEK9H","","null","<img src=""img/flower1.png"" style=""width:200px; border:14px solid green;"">","null","","","","","","","","",""
"","image-keyboard-response","241","648528","0.0-241.0","3SNVL38CI5EXL9JVEO7K3D6LQGVCKR","A2FP41BSPG0Y4A","3I7KR83SNAZT1REYB2SRC49PCEEK9H","","776.2000000476837","img/flower4.png","75","777.7000000476837","2","1","1","2","1,0,0,1,1,0,1,0,1","0,1,0,0,1,1,1,1,0","3",""
"","html-keyboard-response","242","648833","0.0-242.0","3SNVL38CI5EXL9JVEO7K3D6LQGVCKR","A2FP41BSPG0Y4A","3I7KR83SNAZT1REYB2SRC49PCEEK9H","","null","<img src=""img/flower4.png"" style=""width:200px; border:14px solid green;"">","null","","","","","","","","",""
"","image-keyboard-response","243","649067","0.0-243.0","3SNVL38CI5EXL9JVEO7K3D6LQGVCKR","A2FP41BSPG0Y4A","3I7KR83SNAZT1REYB2SRC49PCEEK9H","","231.89999985694885","img/flower4.png","75","233.30000019073486","2","1","1","2","1,0,0,1,1,0,1,0,1","0,1,0,0,1,1,1,1,0","3",""
"","html-keyboard-response","244","649369","0.0-244.0","3SNVL38CI5EXL9JVEO7K3D6LQGVCKR","A2FP41BSPG0Y4A","3I7KR83SNAZT1REYB2SRC49PCEEK9H","","null","<img src=""img/flower4.png"" style=""width:200px; border:14px solid green;"">","null","","","","","","","","",""
"","image-keyboard-response","245","649542","0.0-245.0","3SNVL38CI5EXL9JVEO7K3D6LQGVCKR","A2FP41BSPG0Y4A","3I7KR83SNAZT1REYB2SRC49PCEEK9H","","171.10000014305115","img/flower4.png","75","172.59999990463257","2","1","1","2","1,0,0,1,1,0,1,0,1","0,1,0,0,1,1,1,1,0","3",""
"","html-keyboard-response","246","649865","0.0-246.0","3SNVL38CI5EXL9JVEO7K3D6LQGVCKR","A2FP41BSPG0Y4A","3I7KR83SNAZT1REYB2SRC49PCEEK9H","","null","<img src=""img/flower4.png"" style=""width:200px; border:14px solid green;"">","null","","","","","","","","",""
"","image-keyboard-response","247","650002","0.0-247.0","3SNVL38CI5EXL9JVEO7K3D6LQGVCKR","A2FP41BSPG0Y4A","3I7KR83SNAZT1REYB2SRC49PCEEK9H","","134.5","img/flower4.png","75","136","2","1","1","2","1,0,0,1,1,0,1,0,1","0,1,0,0,1,1,1,1,0","3",""
"","html-keyboard-response","248","650315","0.0-248.0","3SNVL38CI5EXL9JVEO7K3D6LQGVCKR","A2FP41BSPG0Y4A","3I7KR83SNAZT1REYB2SRC49PCEEK9H","","null","<img src=""img/flower4.png"" style=""width:200px; border:14px solid green;"">","null","","","","","","","","",""
"","image-keyboard-response","249","650498","0.0-249.0","3SNVL38CI5EXL9JVEO7K3D6LQGVCKR","A2FP41BSPG0Y4A","3I7KR83SNAZT1REYB2SRC49PCEEK9H","","180.5","img/flower4.png","75","182.70000004768372","2","1","1","2","1,0,0,1,1,0,1,0,1","0,1,0,0,1,1,1,1,0","3",""
"","html-keyboard-response","250","650807","0.0-250.0","3SNVL38CI5EXL9JVEO7K3D6LQGVCKR","A2FP41BSPG0Y4A","3I7KR83SNAZT1REYB2SRC49PCEEK9H","","null","<img src=""img/flower4.png"" style=""width:200px; border:14px solid green;"">","null","","","","","","","","",""
"","image-keyboard-response","251","650938","0.0-251.0","3SNVL38CI5EXL9JVEO7K3D6LQGVCKR","A2FP41BSPG0Y4A","3I7KR83SNAZT1REYB2SRC49PCEEK9H","","129","img/flower4.png","75","130.90000009536743","2","1","1","2","1,0,0,1,1,0,1,0,1","0,1,0,0,1,1,1,1,0","3",""
"","html-keyboard-response","252","651243","0.0-252.0","3SNVL38CI5EXL9JVEO7K3D6LQGVCKR","A2FP41BSPG0Y4A","3I7KR83SNAZT1REYB2SRC49PCEEK9H","","null","<img src=""img/flower4.png"" style=""width:200px; border:14px solid green;"">","null","","","","","","","","",""
"","image-keyboard-response","253","651499","0.0-253.0","3SNVL38CI5EXL9JVEO7K3D6LQGVCKR","A2FP41BSPG0Y4A","3I7KR83SNAZT1REYB2SRC49PCEEK9H","","253.20000004768372","img/flower1.png","75","254.89999985694885","2","1","3","2","1,0,0,1,1,0,1,0,1","0,1,0,0,1,1,1,1,0","3",""
"","html-keyboard-response","254","651804","0.0-254.0","3SNVL38CI5EXL9JVEO7K3D6LQGVCKR","A2FP41BSPG0Y4A","3I7KR83SNAZT1REYB2SRC49PCEEK9H","","null","<img src=""img/flower1.png"" style=""width:200px; border:14px solid green;"">","null","","","","","","","","",""
"","image-keyboard-response","255","651936","0.0-255.0","3SNVL38CI5EXL9JVEO7K3D6LQGVCKR","A2FP41BSPG0Y4A","3I7KR83SNAZT1REYB2SRC49PCEEK9H","","128.90000009536743","img/flower5.png","75","130.79999995231628","2","1","2","2","1,0,0,1,1,0,1,0,1","0,1,0,0,1,1,1,1,0","3",""
"","html-keyboard-response","256","652240","0.0-256.0","3SNVL38CI5EXL9JVEO7K3D6LQGVCKR","A2FP41BSPG0Y4A","3I7KR83SNAZT1REYB2SRC49PCEEK9H","","null","<img src=""img/flower5.png"" style=""width:200px; border:14px solid green;"">","null","","","","","","","","",""
"","image-keyboard-response","257","652486","0.0-257.0","3SNVL38CI5EXL9JVEO7K3D6LQGVCKR","A2FP41BSPG0Y4A","3I7KR83SNAZT1REYB2SRC49PCEEK9H","","242","img/flower1.png","75","244.5","2","1","3","2","1,0,0,1,1,0,1,0,1","0,1,0,0,1,1,1,1,0","3",""
"","html-keyboard-response","258","652790","0.0-258.0","3SNVL38CI5EXL9JVEO7K3D6LQGVCKR","A2FP41BSPG0Y4A","3I7KR83SNAZT1REYB2SRC49PCEEK9H","","null","<img src=""img/flower1.png"" style=""width:200px; border:14px solid green;"">","null","","","","","","","","",""
"","image-keyboard-response","259","652960","0.0-259.0","3SNVL38CI5EXL9JVEO7K3D6LQGVCKR","A2FP41BSPG0Y4A","3I7KR83SNAZT1REYB2SRC49PCEEK9H","","168","img/flower4.png","75","169.60000014305115","2","1","1","2","1,0,0,1,1,0,1,0,1","0,1,0,0,1,1,1,1,0","3",""
"","html-keyboard-response","260","653264","0.0-260.0","3SNVL38CI5EXL9JVEO7K3D6LQGVCKR","A2FP41BSPG0Y4A","3I7KR83SNAZT1REYB2SRC49PCEEK9H","","null","<img src=""img/flower4.png"" style=""width:200px; border:14px solid green;"">","null","","","","","","","","",""
"","image-keyboard-response","261","653462","0.0-261.0","3SNVL38CI5EXL9JVEO7K3D6LQGVCKR","A2FP41BSPG0Y4A","3I7KR83SNAZT1REYB2SRC49PCEEK9H","","195.89999985694885","img/flower5.png","75","197.60000014305115","2","1","2","2","1,0,0,1,1,0,1,0,1","0,1,0,0,1,1,1,1,0","3",""
"","html-keyboard-response","262","653770","0.0-262.0","3SNVL38CI5EXL9JVEO7K3D6LQGVCKR","A2FP41BSPG0Y4A","3I7KR83SNAZT1REYB2SRC49PCEEK9H","","null","<img src=""img/flower5.png"" style=""width:200px; border:14px solid green;"">","null","","","","","","","","",""
"","image-keyboard-response","263","653984","0.0-263.0","3SNVL38CI5EXL9JVEO7K3D6LQGVCKR","A2FP41BSPG0Y4A","3I7KR83SNAZT1REYB2SRC49PCEEK9H","","211.70000004768372","img/flower1.png","75","213.29999995231628","2","1","3","2","1,0,0,1,1,0,1,0,1","0,1,0,0,1,1,1,1,0","3",""
"","html-keyboard-response","264","654290","0.0-264.0","3SNVL38CI5EXL9JVEO7K3D6LQGVCKR","A2FP41BSPG0Y4A","3I7KR83SNAZT1REYB2SRC49PCEEK9H","","null","<img src=""img/flower1.png"" style=""width:200px; border:14px solid green;"">","null","","","","","","","","",""
"","image-keyboard-response","265","654530","0.0-265.0","3SNVL38CI5EXL9JVEO7K3D6LQGVCKR","A2FP41BSPG0Y4A","3I7KR83SNAZT1REYB2SRC49PCEEK9H","","237.20000004768372","img/flower4.png","75","238.90000009536743","2","1","1","2","1,0,0,1,1,0,1,0,1","0,1,0,0,1,1,1,1,0","3",""
"","html-keyboard-response","266","654844","0.0-266.0","3SNVL38CI5EXL9JVEO7K3D6LQGVCKR","A2FP41BSPG0Y4A","3I7KR83SNAZT1REYB2SRC49PCEEK9H","","null","<img src=""img/flower4.png"" style=""width:200px; border:14px solid green;"">","null","","","","","","","","",""
"","image-keyboard-response","267","655014","0.0-267.0","3SNVL38CI5EXL9JVEO7K3D6LQGVCKR","A2FP41BSPG0Y4A","3I7KR83SNAZT1REYB2SRC49PCEEK9H","","167.59999990463257","img/flower5.png","75","169.09999990463257","2","1","2","2","1,0,0,1,1,0,1,0,1","0,1,0,0,1,1,1,1,0","3",""
"","html-keyboard-response","268","655322","0.0-268.0","3SNVL38CI5EXL9JVEO7K3D6LQGVCKR","A2FP41BSPG0Y4A","3I7KR83SNAZT1REYB2SRC49PCEEK9H","","null","<img src=""img/flower5.png"" style=""width:200px; border:14px solid green;"">","null","","","","","","","","",""
"","image-keyboard-response","269","655505","0.0-269.0","3SNVL38CI5EXL9JVEO7K3D6LQGVCKR","A2FP41BSPG0Y4A","3I7KR83SNAZT1REYB2SRC49PCEEK9H","","178.89999985694885","img/flower4.png","75","180.59999990463257","2","1","1","2","1,0,0,1,1,0,1,0,1","0,1,0,0,1,1,1,1,0","3",""
"","html-keyboard-response","270","655815","0.0-270.0","3SNVL38CI5EXL9JVEO7K3D6LQGVCKR","A2FP41BSPG0Y4A","3I7KR83SNAZT1REYB2SRC49PCEEK9H","","null","<img src=""img/flower4.png"" style=""width:200px; border:14px solid green;"">","null","","","","","","","","",""
"","image-keyboard-response","271","655908","0.0-271.0","3SNVL38CI5EXL9JVEO7K3D6LQGVCKR","A2FP41BSPG0Y4A","3I7KR83SNAZT1REYB2SRC49PCEEK9H","","90.79999995231628","img/flower1.png","75","92.19999980926514","2","1","3","2","1,0,0,1,1,0,1,0,1","0,1,0,0,1,1,1,1,0","3",""
"","html-keyboard-response","272","656222","0.0-272.0","3SNVL38CI5EXL9JVEO7K3D6LQGVCKR","A2FP41BSPG0Y4A","3I7KR83SNAZT1REYB2SRC49PCEEK9H","","null","<img src=""img/flower1.png"" style=""width:200px; border:14px solid green;"">","null","","","","","","","","",""
"","image-keyboard-response","273","656367","0.0-273.0","3SNVL38CI5EXL9JVEO7K3D6LQGVCKR","A2FP41BSPG0Y4A","3I7KR83SNAZT1REYB2SRC49PCEEK9H","","142.79999995231628","img/flower4.png","75","144.80000019073486","2","1","1","2","1,0,0,1,1,0,1,0,1","0,1,0,0,1,1,1,1,0","3",""
"","html-keyboard-response","274","656678","0.0-274.0","3SNVL38CI5EXL9JVEO7K3D6LQGVCKR","A2FP41BSPG0Y4A","3I7KR83SNAZT1REYB2SRC49PCEEK9H","","null","<img src=""img/flower4.png"" style=""width:200px; border:14px solid green;"">","null","","","","","","","","",""
"","image-keyboard-response","275","656725","0.0-275.0","3SNVL38CI5EXL9JVEO7K3D6LQGVCKR","A2FP41BSPG0Y4A","3I7KR83SNAZT1REYB2SRC49PCEEK9H","","44.90000009536743","img/flower1.png","75","46.5","2","1","3","2","1,0,0,1,1,0,1,0,1","0,1,0,0,1,1,1,1,0","3",""
"","html-keyboard-response","276","657049","0.0-276.0","3SNVL38CI5EXL9JVEO7K3D6LQGVCKR","A2FP41BSPG0Y4A","3I7KR83SNAZT1REYB2SRC49PCEEK9H","","null","<img src=""img/flower1.png"" style=""width:200px; border:14px solid green;"">","null","","","","","","","","",""
"","image-keyboard-response","277","657068","0.0-277.0","3SNVL38CI5EXL9JVEO7K3D6LQGVCKR","A2FP41BSPG0Y4A","3I7KR83SNAZT1REYB2SRC49PCEEK9H","","18","img/flower4.png","75","19","2","1","1","2","1,0,0,1,1,0,1,0,1","0,1,0,0,1,1,1,1,0","3",""
"","html-keyboard-response","278","657376","0.0-278.0","3SNVL38CI5EXL9JVEO7K3D6LQGVCKR","A2FP41BSPG0Y4A","3I7KR83SNAZT1REYB2SRC49PCEEK9H","","null","<img src=""img/flower4.png"" style=""width:200px; border:14px solid green;"">","null","","","","","","","","",""
"","image-keyboard-response","279","657409","0.0-279.0","3SNVL38CI5EXL9JVEO7K3D6LQGVCKR","A2FP41BSPG0Y4A","3I7KR83SNAZT1REYB2SRC49PCEEK9H","","31.299999952316284","img/flower4.png","75","33","2","1","1","2","1,0,0,1,1,0,1,0,1","0,1,0,0,1,1,1,1,0","3",""
"","html-keyboard-response","280","657715","0.0-280.0","3SNVL38CI5EXL9JVEO7K3D6LQGVCKR","A2FP41BSPG0Y4A","3I7KR83SNAZT1REYB2SRC49PCEEK9H","","null","<img src=""img/flower4.png"" style=""width:200px; border:14px solid green;"">","null","","","","","","","","",""
"","image-keyboard-response","281","657748","0.0-281.0","3SNVL38CI5EXL9JVEO7K3D6LQGVCKR","A2FP41BSPG0Y4A","3I7KR83SNAZT1REYB2SRC49PCEEK9H","","30.799999952316284","img/flower5.png","75","33","2","1","2","2","1,0,0,1,1,0,1,0,1","0,1,0,0,1,1,1,1,0","3",""
"","html-keyboard-response","282","658051","0.0-282.0","3SNVL38CI5EXL9JVEO7K3D6LQGVCKR","A2FP41BSPG0Y4A","3I7KR83SNAZT1REYB2SRC49PCEEK9H","","null","<img src=""img/flower5.png"" style=""width:200px; border:14px solid green;"">","null","","","","","","","","",""
"","image-keyboard-response","283","658063","0.0-283.0","3SNVL38CI5EXL9JVEO7K3D6LQGVCKR","A2FP41BSPG0Y4A","3I7KR83SNAZT1REYB2SRC49PCEEK9H","","10","img/flower4.png","75","11.399999856948853","2","1","1","2","1,0,0,1,1,0,1,0,1","0,1,0,0,1,1,1,1,0","3",""
"","html-keyboard-response","284","658372","0.0-284.0","3SNVL38CI5EXL9JVEO7K3D6LQGVCKR","A2FP41BSPG0Y4A","3I7KR83SNAZT1REYB2SRC49PCEEK9H","","null","<img src=""img/flower4.png"" style=""width:200px; border:14px solid green;"">","null","","","","","","","","",""
"","image-keyboard-response","285","658375","0.0-285.0","3SNVL38CI5EXL9JVEO7K3D6LQGVCKR","A2FP41BSPG0Y4A","3I7KR83SNAZT1REYB2SRC49PCEEK9H","","1.2000000476837158","img/flower4.png","75","2.799999952316284","2","1","1","2","1,0,0,1,1,0,1,0,1","0,1,0,0,1,1,1,1,0","3",""
"","html-keyboard-response","286","658678","0.0-286.0","3SNVL38CI5EXL9JVEO7K3D6LQGVCKR","A2FP41BSPG0Y4A","3I7KR83SNAZT1REYB2SRC49PCEEK9H","","null","<img src=""img/flower4.png"" style=""width:200px; border:14px solid green;"">","null","","","","","","","","",""
"","image-keyboard-response","287","658707","0.0-287.0","3SNVL38CI5EXL9JVEO7K3D6LQGVCKR","A2FP41BSPG0Y4A","3I7KR83SNAZT1REYB2SRC49PCEEK9H","","26.59999990463257","img/flower4.png","75","28","2","1","1","2","1,0,0,1,1,0,1,0,1","0,1,0,0,1,1,1,1,0","3",""
"","html-keyboard-response","288","659016","0.0-288.0","3SNVL38CI5EXL9JVEO7K3D6LQGVCKR","A2FP41BSPG0Y4A","3I7KR83SNAZT1REYB2SRC49PCEEK9H","","null","<img src=""img/flower4.png"" style=""width:200px; border:14px solid green;"">","null","","","","","","","","",""
"","image-keyboard-response","289","659310","0.0-289.0","3SNVL38CI5EXL9JVEO7K3D6LQGVCKR","A2FP41BSPG0Y4A","3I7KR83SNAZT1REYB2SRC49PCEEK9H","","292.7000000476837","img/flower4.png","75","294.40000009536743","2","1","1","2","1,0,0,1,1,0,1,0,1","0,1,0,0,1,1,1,1,0","3",""
"","html-keyboard-response","290","659618","0.0-290.0","3SNVL38CI5EXL9JVEO7K3D6LQGVCKR","A2FP41BSPG0Y4A","3I7KR83SNAZT1REYB2SRC49PCEEK9H","","null","<img src=""img/flower4.png"" style=""width:200px; border:14px solid green;"">","null","","","","","","","","",""
"","image-keyboard-response","291","659899","0.0-291.0","3SNVL38CI5EXL9JVEO7K3D6LQGVCKR","A2FP41BSPG0Y4A","3I7KR83SNAZT1REYB2SRC49PCEEK9H","","279.7999999523163","img/flower1.png","75","281.2999999523163","2","1","3","2","1,0,0,1,1,0,1,0,1","0,1,0,0,1,1,1,1,0","3",""
"","html-keyboard-response","292","660204","0.0-292.0","3SNVL38CI5EXL9JVEO7K3D6LQGVCKR","A2FP41BSPG0Y4A","3I7KR83SNAZT1REYB2SRC49PCEEK9H","","null","<img src=""img/flower1.png"" style=""width:200px; border:14px solid green;"">","null","","","","","","","","",""
"","image-keyboard-response","293","660235","0.0-293.0","3SNVL38CI5EXL9JVEO7K3D6LQGVCKR","A2FP41BSPG0Y4A","3I7KR83SNAZT1REYB2SRC49PCEEK9H","","29","img/flower4.png","75","31.40000009536743","2","1","1","2","1,0,0,1,1,0,1,0,1","0,1,0,0,1,1,1,1,0","3",""
"","html-keyboard-response","294","660541","0.0-294.0","3SNVL38CI5EXL9JVEO7K3D6LQGVCKR","A2FP41BSPG0Y4A","3I7KR83SNAZT1REYB2SRC49PCEEK9H","","null","<img src=""img/flower4.png"" style=""width:200px; border:14px solid green;"">","null","","","","","","","","",""
"","image-keyboard-response","295","660858","0.0-295.0","3SNVL38CI5EXL9JVEO7K3D6LQGVCKR","A2FP41BSPG0Y4A","3I7KR83SNAZT1REYB2SRC49PCEEK9H","","315","img/flower4.png","75","316.60000014305115","2","1","1","2","1,0,0,1,1,0,1,0,1","0,1,0,0,1,1,1,1,0","3",""
"","html-keyboard-response","296","661166","0.0-296.0","3SNVL38CI5EXL9JVEO7K3D6LQGVCKR","A2FP41BSPG0Y4A","3I7KR83SNAZT1REYB2SRC49PCEEK9H","","null","<img src=""img/flower4.png"" style=""width:200px; border:14px solid green;"">","null","","","","","","","","",""
"","image-keyboard-response","297","661228","0.0-297.0","3SNVL38CI5EXL9JVEO7K3D6LQGVCKR","A2FP41BSPG0Y4A","3I7KR83SNAZT1REYB2SRC49PCEEK9H","","59.39999985694885","img/flower1.png","75","61.200000047683716","2","1","3","2","1,0,0,1,1,0,1,0,1","0,1,0,0,1,1,1,1,0","3",""
"","html-keyboard-response","298","661535","0.0-298.0","3SNVL38CI5EXL9JVEO7K3D6LQGVCKR","A2FP41BSPG0Y4A","3I7KR83SNAZT1REYB2SRC49PCEEK9H","","null","<img src=""img/flower1.png"" style=""width:200px; border:14px solid green;"">","null","","","","","","","","",""
"","image-keyboard-response","299","661538","0.0-299.0","3SNVL38CI5EXL9JVEO7K3D6LQGVCKR","A2FP41BSPG0Y4A","3I7KR83SNAZT1REYB2SRC49PCEEK9H","","0.7999999523162842","img/flower5.png","75","2.3000001907348633","2","1","2","2","1,0,0,1,1,0,1,0,1","0,1,0,0,1,1,1,1,0","3",""
"","html-keyboard-response","300","661841","0.0-300.0","3SNVL38CI5EXL9JVEO7K3D6LQGVCKR","A2FP41BSPG0Y4A","3I7KR83SNAZT1REYB2SRC49PCEEK9H","","null","<img src=""img/flower5.png"" style=""width:200px; border:14px solid green;"">","null","","","","","","","","",""
"","image-keyboard-response","301","662186","0.0-301.0","3SNVL38CI5EXL9JVEO7K3D6LQGVCKR","A2FP41BSPG0Y4A","3I7KR83SNAZT1REYB2SRC49PCEEK9H","","342.2000000476837","img/flower4.png","75","343.7000000476837","2","1","1","2","1,0,0,1,1,0,1,0,1","0,1,0,0,1,1,1,1,0","3",""
"","html-keyboard-response","302","662492","0.0-302.0","3SNVL38CI5EXL9JVEO7K3D6LQGVCKR","A2FP41BSPG0Y4A","3I7KR83SNAZT1REYB2SRC49PCEEK9H","","null","<img src=""img/flower4.png"" style=""width:200px; border:14px solid green;"">","null","","","","","","","","",""
"","image-keyboard-response","303","662809","0.0-303.0","3SNVL38CI5EXL9JVEO7K3D6LQGVCKR","A2FP41BSPG0Y4A","3I7KR83SNAZT1REYB2SRC49PCEEK9H","","315.2999999523163","img/flower4.png","75","316.80000019073486","2","1","1","2","1,0,0,1,1,0,1,0,1","0,1,0,0,1,1,1,1,0","3",""
"","html-keyboard-response","304","663112","0.0-304.0","3SNVL38CI5EXL9JVEO7K3D6LQGVCKR","A2FP41BSPG0Y4A","3I7KR83SNAZT1REYB2SRC49PCEEK9H","","null","<img src=""img/flower4.png"" style=""width:200px; border:14px solid green;"">","null","","","","","","","","",""
"","image-keyboard-response","305","663115","0.0-305.0","3SNVL38CI5EXL9JVEO7K3D6LQGVCKR","A2FP41BSPG0Y4A","3I7KR83SNAZT1REYB2SRC49PCEEK9H","","0.7999999523162842","img/flower5.png","75","2.700000047683716","2","1","2","2","1,0,0,1,1,0,1,0,1","0,1,0,0,1,1,1,1,0","3",""
"","html-keyboard-response","306","663418","0.0-306.0","3SNVL38CI5EXL9JVEO7K3D6LQGVCKR","A2FP41BSPG0Y4A","3I7KR83SNAZT1REYB2SRC49PCEEK9H","","null","<img src=""img/flower5.png"" style=""width:200px; border:14px solid green;"">","null","","","","","","","","",""
"","image-keyboard-response","307","663465","0.0-307.0","3SNVL38CI5EXL9JVEO7K3D6LQGVCKR","A2FP41BSPG0Y4A","3I7KR83SNAZT1REYB2SRC49PCEEK9H","","44.700000047683716","img/flower1.png","75","46","2","1","3","2","1,0,0,1,1,0,1,0,1","0,1,0,0,1,1,1,1,0","3",""
"","html-keyboard-response","308","663767","0.0-308.0","3SNVL38CI5EXL9JVEO7K3D6LQGVCKR","A2FP41BSPG0Y4A","3I7KR83SNAZT1REYB2SRC49PCEEK9H","","null","<img src=""img/flower1.png"" style=""width:200px; border:14px solid green;"">","null","","","","","","","","",""
"","image-keyboard-response","309","663811","0.0-309.0","3SNVL38CI5EXL9JVEO7K3D6LQGVCKR","A2FP41BSPG0Y4A","3I7KR83SNAZT1REYB2SRC49PCEEK9H","","42.89999985694885","img/flower5.png","75","44.200000047683716","2","1","2","2","1,0,0,1,1,0,1,0,1","0,1,0,0,1,1,1,1,0","3",""
"","html-keyboard-response","310","664119","0.0-310.0","3SNVL38CI5EXL9JVEO7K3D6LQGVCKR","A2FP41BSPG0Y4A","3I7KR83SNAZT1REYB2SRC49PCEEK9H","","null","<img src=""img/flower5.png"" style=""width:200px; border:14px solid green;"">","null","","","","","","","","",""
"","image-keyboard-response","311","664121","0.0-311.0","3SNVL38CI5EXL9JVEO7K3D6LQGVCKR","A2FP41BSPG0Y4A","3I7KR83SNAZT1REYB2SRC49PCEEK9H","","0.8999998569488525","img/flower4.png","75","2.299999952316284","2","1","1","2","1,0,0,1,1,0,1,0,1","0,1,0,0,1,1,1,1,0","3",""
"","html-keyboard-response","312","664428","0.0-312.0","3SNVL38CI5EXL9JVEO7K3D6LQGVCKR","A2FP41BSPG0Y4A","3I7KR83SNAZT1REYB2SRC49PCEEK9H","","null","<img src=""img/flower4.png"" style=""width:200px; border:14px solid green;"">","null","","","","","","","","",""
"","image-keyboard-response","313","664432","0.0-313.0","3SNVL38CI5EXL9JVEO7K3D6LQGVCKR","A2FP41BSPG0Y4A","3I7KR83SNAZT1REYB2SRC49PCEEK9H","","1.0999999046325684","img/flower4.png","75","2.8999998569488525","2","1","1","2","1,0,0,1,1,0,1,0,1","0,1,0,0,1,1,1,1,0","3",""
"","html-keyboard-response","314","664745","0.0-314.0","3SNVL38CI5EXL9JVEO7K3D6LQGVCKR","A2FP41BSPG0Y4A","3I7KR83SNAZT1REYB2SRC49PCEEK9H","","null","<img src=""img/flower4.png"" style=""width:200px; border:14px solid green;"">","null","","","","","","","","",""
"","image-keyboard-response","315","664787","0.0-315.0","3SNVL38CI5EXL9JVEO7K3D6LQGVCKR","A2FP41BSPG0Y4A","3I7KR83SNAZT1REYB2SRC49PCEEK9H","","40.59999990463257","img/flower5.png","75","41.799999952316284","2","1","2","2","1,0,0,1,1,0,1,0,1","0,1,0,0,1,1,1,1,0","3",""
"","html-keyboard-response","316","665096","0.0-316.0","3SNVL38CI5EXL9JVEO7K3D6LQGVCKR","A2FP41BSPG0Y4A","3I7KR83SNAZT1REYB2SRC49PCEEK9H","","null","<img src=""img/flower5.png"" style=""width:200px; border:14px solid green;"">","null","","","","","","","","",""
"","image-keyboard-response","317","665166","0.0-317.0","3SNVL38CI5EXL9JVEO7K3D6LQGVCKR","A2FP41BSPG0Y4A","3I7KR83SNAZT1REYB2SRC49PCEEK9H","","67.89999985694885","img/flower1.png","75","69.5","2","1","3","2","1,0,0,1,1,0,1,0,1","0,1,0,0,1,1,1,1,0","3",""
"","html-keyboard-response","318","665467","0.0-318.0","3SNVL38CI5EXL9JVEO7K3D6LQGVCKR","A2FP41BSPG0Y4A","3I7KR83SNAZT1REYB2SRC49PCEEK9H","","null","<img src=""img/flower1.png"" style=""width:200px; border:14px solid green;"">","null","","","","","","","","",""
"","image-keyboard-response","319","665817","0.0-319.0","3SNVL38CI5EXL9JVEO7K3D6LQGVCKR","A2FP41BSPG0Y4A","3I7KR83SNAZT1REYB2SRC49PCEEK9H","","347.5","img/flower5.png","75","349.10000014305115","2","1","2","2","1,0,0,1,1,0,1,0,1","0,1,0,0,1,1,1,1,0","3",""
"","html-keyboard-response","320","666129","0.0-320.0","3SNVL38CI5EXL9JVEO7K3D6LQGVCKR","A2FP41BSPG0Y4A","3I7KR83SNAZT1REYB2SRC49PCEEK9H","","null","<img src=""img/flower5.png"" style=""width:200px; border:14px solid green;"">","null","","","","","","","","",""
"","image-keyboard-response","321","666169","0.0-321.0","3SNVL38CI5EXL9JVEO7K3D6LQGVCKR","A2FP41BSPG0Y4A","3I7KR83SNAZT1REYB2SRC49PCEEK9H","","37.5","img/flower1.png","75","38.90000009536743","2","1","3","2","1,0,0,1,1,0,1,0,1","0,1,0,0,1,1,1,1,0","3",""
"","html-keyboard-response","322","666477","0.0-322.0","3SNVL38CI5EXL9JVEO7K3D6LQGVCKR","A2FP41BSPG0Y4A","3I7KR83SNAZT1REYB2SRC49PCEEK9H","","null","<img src=""img/flower1.png"" style=""width:200px; border:14px solid green;"">","null","","","","","","","","",""
"","image-keyboard-response","323","666549","0.0-323.0","3SNVL38CI5EXL9JVEO7K3D6LQGVCKR","A2FP41BSPG0Y4A","3I7KR83SNAZT1REYB2SRC49PCEEK9H","","70.20000004768372","img/flower1.png","75","72","2","1","3","2","1,0,0,1,1,0,1,0,1","0,1,0,0,1,1,1,1,0","3",""
"","html-keyboard-response","324","666856","0.0-324.0","3SNVL38CI5EXL9JVEO7K3D6LQGVCKR","A2FP41BSPG0Y4A","3I7KR83SNAZT1REYB2SRC49PCEEK9H","","null","<img src=""img/flower1.png"" style=""width:200px; border:14px solid green;"">","null","","","","","","","","",""
"","image-keyboard-response","325","666897","0.0-325.0","3SNVL38CI5EXL9JVEO7K3D6LQGVCKR","A2FP41BSPG0Y4A","3I7KR83SNAZT1REYB2SRC49PCEEK9H","","38.5","img/flower5.png","75","40.10000014305115","2","1","2","2","1,0,0,1,1,0,1,0,1","0,1,0,0,1,1,1,1,0","3",""
"","html-keyboard-response","326","667201","0.0-326.0","3SNVL38CI5EXL9JVEO7K3D6LQGVCKR","A2FP41BSPG0Y4A","3I7KR83SNAZT1REYB2SRC49PCEEK9H","","null","<img src=""img/flower5.png"" style=""width:200px; border:14px solid green;"">","null","","","","","","","","",""
"","image-keyboard-response","327","667276","0.0-327.0","3SNVL38CI5EXL9JVEO7K3D6LQGVCKR","A2FP41BSPG0Y4A","3I7KR83SNAZT1REYB2SRC49PCEEK9H","","72.59999990463257","img/flower1.png","75","74.29999995231628","2","1","3","2","1,0,0,1,1,0,1,0,1","0,1,0,0,1,1,1,1,0","3",""
"","html-keyboard-response","328","667580","0.0-328.0","3SNVL38CI5EXL9JVEO7K3D6LQGVCKR","A2FP41BSPG0Y4A","3I7KR83SNAZT1REYB2SRC49PCEEK9H","","null","<img src=""img/flower1.png"" style=""width:200px; border:14px solid green;"">","null","","","","","","","","",""
"","image-keyboard-response","329","667656","0.0-329.0","3SNVL38CI5EXL9JVEO7K3D6LQGVCKR","A2FP41BSPG0Y4A","3I7KR83SNAZT1REYB2SRC49PCEEK9H","","74.60000014305115","img/flower5.png","75","76.10000014305115","2","1","2","2","1,0,0,1,1,0,1,0,1","0,1,0,0,1,1,1,1,0","3",""
"","html-keyboard-response","330","667965","0.0-330.0","3SNVL38CI5EXL9JVEO7K3D6LQGVCKR","A2FP41BSPG0Y4A","3I7KR83SNAZT1REYB2SRC49PCEEK9H","","null","<img src=""img/flower5.png"" style=""width:200px; border:14px solid green;"">","null","","","","","","","","",""
"","image-keyboard-response","331","668061","0.0-331.0","3SNVL38CI5EXL9JVEO7K3D6LQGVCKR","A2FP41BSPG0Y4A","3I7KR83SNAZT1REYB2SRC49PCEEK9H","","94","img/flower1.png","75","95.59999990463257","2","1","3","2","1,0,0,1,1,0,1,0,1","0,1,0,0,1,1,1,1,0","3",""
"","html-keyboard-response","332","668368","0.0-332.0","3SNVL38CI5EXL9JVEO7K3D6LQGVCKR","A2FP41BSPG0Y4A","3I7KR83SNAZT1REYB2SRC49PCEEK9H","","null","<img src=""img/flower1.png"" style=""width:200px; border:14px solid green;"">","null","","","","","","","","",""
"","image-keyboard-response","333","668412","0.0-333.0","3SNVL38CI5EXL9JVEO7K3D6LQGVCKR","A2FP41BSPG0Y4A","3I7KR83SNAZT1REYB2SRC49PCEEK9H","","42.299999952316284","img/flower4.png","75","43.799999952316284","2","1","1","2","1,0,0,1,1,0,1,0,1","0,1,0,0,1,1,1,1,0","3",""
"","html-keyboard-response","334","668716","0.0-334.0","3SNVL38CI5EXL9JVEO7K3D6LQGVCKR","A2FP41BSPG0Y4A","3I7KR83SNAZT1REYB2SRC49PCEEK9H","","null","<img src=""img/flower4.png"" style=""width:200px; border:14px solid green;"">","null","","","","","","","","",""
"","image-keyboard-response","335","668772","0.0-335.0","3SNVL38CI5EXL9JVEO7K3D6LQGVCKR","A2FP41BSPG0Y4A","3I7KR83SNAZT1REYB2SRC49PCEEK9H","","54.59999990463257","img/flower4.png","75","56","2","1","1","2","1,0,0,1,1,0,1,0,1","0,1,0,0,1,1,1,1,0","3",""
"","html-keyboard-response","336","669082","0.0-336.0","3SNVL38CI5EXL9JVEO7K3D6LQGVCKR","A2FP41BSPG0Y4A","3I7KR83SNAZT1REYB2SRC49PCEEK9H","","null","<img src=""img/flower4.png"" style=""width:200px; border:14px solid green;"">","null","","","","","","","","",""
"","image-keyboard-response","337","669244","0.0-337.0","3SNVL38CI5EXL9JVEO7K3D6LQGVCKR","A2FP41BSPG0Y4A","3I7KR83SNAZT1REYB2SRC49PCEEK9H","","160","img/flower1.png","75","161.59999990463257","2","1","3","2","1,0,0,1,1,0,1,0,1","0,1,0,0,1,1,1,1,0","3",""
"","html-keyboard-response","338","669555","0.0-338.0","3SNVL38CI5EXL9JVEO7K3D6LQGVCKR","A2FP41BSPG0Y4A","3I7KR83SNAZT1REYB2SRC49PCEEK9H","","null","<img src=""img/flower1.png"" style=""width:200px; border:14px solid green;"">","null","","","","","","","","",""
"","image-keyboard-response","339","669665","0.0-339.0","3SNVL38CI5EXL9JVEO7K3D6LQGVCKR","A2FP41BSPG0Y4A","3I7KR83SNAZT1REYB2SRC49PCEEK9H","","108","img/flower5.png","75","109.70000004768372","2","1","2","2","1,0,0,1,1,0,1,0,1","0,1,0,0,1,1,1,1,0","3",""
"","html-keyboard-response","340","669971","0.0-340.0","3SNVL38CI5EXL9JVEO7K3D6LQGVCKR","A2FP41BSPG0Y4A","3I7KR83SNAZT1REYB2SRC49PCEEK9H","","null","<img src=""img/flower5.png"" style=""width:200px; border:14px solid green;"">","null","","","","","","","","",""
"","image-keyboard-response","341","670141","0.0-341.0","3SNVL38CI5EXL9JVEO7K3D6LQGVCKR","A2FP41BSPG0Y4A","3I7KR83SNAZT1REYB2SRC49PCEEK9H","","168.29999995231628","img/flower5.png","75","169.90000009536743","2","1","2","2","1,0,0,1,1,0,1,0,1","0,1,0,0,1,1,1,1,0","3",""
"","html-keyboard-response","342","670448","0.0-342.0","3SNVL38CI5EXL9JVEO7K3D6LQGVCKR","A2FP41BSPG0Y4A","3I7KR83SNAZT1REYB2SRC49PCEEK9H","","null","<img src=""img/flower5.png"" style=""width:200px; border:14px solid green;"">","null","","","","","","","","",""
"","image-keyboard-response","343","670570","0.0-343.0","3SNVL38CI5EXL9JVEO7K3D6LQGVCKR","A2FP41BSPG0Y4A","3I7KR83SNAZT1REYB2SRC49PCEEK9H","","120","img/flower1.png","75","121.5","2","1","3","2","1,0,0,1,1,0,1,0,1","0,1,0,0,1,1,1,1,0","3",""
"","html-keyboard-response","344","670879","0.0-344.0","3SNVL38CI5EXL9JVEO7K3D6LQGVCKR","A2FP41BSPG0Y4A","3I7KR83SNAZT1REYB2SRC49PCEEK9H","","null","<img src=""img/flower1.png"" style=""width:200px; border:14px solid green;"">","null","","","","","","","","",""
"","image-keyboard-response","345","671042","0.0-345.0","3SNVL38CI5EXL9JVEO7K3D6LQGVCKR","A2FP41BSPG0Y4A","3I7KR83SNAZT1REYB2SRC49PCEEK9H","","160.70000004768372","img/flower5.png","75","162.20000004768372","2","1","2","2","1,0,0,1,1,0,1,0,1","0,1,0,0,1,1,1,1,0","3",""
"","html-keyboard-response","346","671351","0.0-346.0","3SNVL38CI5EXL9JVEO7K3D6LQGVCKR","A2FP41BSPG0Y4A","3I7KR83SNAZT1REYB2SRC49PCEEK9H","","null","<img src=""img/flower5.png"" style=""width:200px; border:14px solid green;"">","null","","","","","","","","",""
"","image-keyboard-response","347","671525","0.0-347.0","3SNVL38CI5EXL9JVEO7K3D6LQGVCKR","A2FP41BSPG0Y4A","3I7KR83SNAZT1REYB2SRC49PCEEK9H","","171.70000004768372","img/flower1.png","75","173.39999985694885","2","1","3","2","1,0,0,1,1,0,1,0,1","0,1,0,0,1,1,1,1,0","3",""
"","html-keyboard-response","348","671833","0.0-348.0","3SNVL38CI5EXL9JVEO7K3D6LQGVCKR","A2FP41BSPG0Y4A","3I7KR83SNAZT1REYB2SRC49PCEEK9H","","null","<img src=""img/flower1.png"" style=""width:200px; border:14px solid green;"">","null","","","","","","","","",""
"","image-keyboard-response","349","671949","0.0-349.0","3SNVL38CI5EXL9JVEO7K3D6LQGVCKR","A2FP41BSPG0Y4A","3I7KR83SNAZT1REYB2SRC49PCEEK9H","","114.30000019073486","img/flower5.png","75","116.20000004768372","2","1","2","2","1,0,0,1,1,0,1,0,1","0,1,0,0,1,1,1,1,0","3",""
"","html-keyboard-response","350","672255","0.0-350.0","3SNVL38CI5EXL9JVEO7K3D6LQGVCKR","A2FP41BSPG0Y4A","3I7KR83SNAZT1REYB2SRC49PCEEK9H","","null","<img src=""img/flower5.png"" style=""width:200px; border:14px solid green;"">","null","","","","","","","","",""
"","image-keyboard-response","351","672481","0.0-351.0","3SNVL38CI5EXL9JVEO7K3D6LQGVCKR","A2FP41BSPG0Y4A","3I7KR83SNAZT1REYB2SRC49PCEEK9H","","223.69999980926514","img/flower5.png","75","225.39999985694885","2","1","2","2","1,0,0,1,1,0,1,0,1","0,1,0,0,1,1,1,1,0","3",""
"","html-keyboard-response","352","672795","0.0-352.0","3SNVL38CI5EXL9JVEO7K3D6LQGVCKR","A2FP41BSPG0Y4A","3I7KR83SNAZT1REYB2SRC49PCEEK9H","","null","<img src=""img/flower5.png"" style=""width:200px; border:14px solid green;"">","null","","","","","","","","",""
"","image-keyboard-response","353","672968","0.0-353.0","3SNVL38CI5EXL9JVEO7K3D6LQGVCKR","A2FP41BSPG0Y4A","3I7KR83SNAZT1REYB2SRC49PCEEK9H","","170.79999995231628","img/flower5.png","75","172.20000004768372","2","1","2","2","1,0,0,1,1,0,1,0,1","0,1,0,0,1,1,1,1,0","3",""
"","html-keyboard-response","354","673286","0.0-354.0","3SNVL38CI5EXL9JVEO7K3D6LQGVCKR","A2FP41BSPG0Y4A","3I7KR83SNAZT1REYB2SRC49PCEEK9H","","null","<img src=""img/flower5.png"" style=""width:200px; border:14px solid green;"">","null","","","","","","","","",""
"","image-keyboard-response","355","673466","0.0-355.0","3SNVL38CI5EXL9JVEO7K3D6LQGVCKR","A2FP41BSPG0Y4A","3I7KR83SNAZT1REYB2SRC49PCEEK9H","","177.79999995231628","img/flower1.png","75","179.5","2","1","3","2","1,0,0,1,1,0,1,0,1","0,1,0,0,1,1,1,1,0","3",""
"","html-keyboard-response","356","673769","0.0-356.0","3SNVL38CI5EXL9JVEO7K3D6LQGVCKR","A2FP41BSPG0Y4A","3I7KR83SNAZT1REYB2SRC49PCEEK9H","","null","<img src=""img/flower1.png"" style=""width:200px; border:14px solid green;"">","null","","","","","","","","",""
"","image-keyboard-response","357","673871","0.0-357.0","3SNVL38CI5EXL9JVEO7K3D6LQGVCKR","A2FP41BSPG0Y4A","3I7KR83SNAZT1REYB2SRC49PCEEK9H","","100.69999980926514","img/flower5.png","75","102.20000004768372","2","1","2","2","1,0,0,1,1,0,1,0,1","0,1,0,0,1,1,1,1,0","3",""
"","html-keyboard-response","358","674181","0.0-358.0","3SNVL38CI5EXL9JVEO7K3D6LQGVCKR","A2FP41BSPG0Y4A","3I7KR83SNAZT1REYB2SRC49PCEEK9H","","null","<img src=""img/flower5.png"" style=""width:200px; border:14px solid green;"">","null","","","","","","","","",""
"","image-keyboard-response","359","674461","0.0-359.0","3SNVL38CI5EXL9JVEO7K3D6LQGVCKR","A2FP41BSPG0Y4A","3I7KR83SNAZT1REYB2SRC49PCEEK9H","","277","img/flower5.png","75","278.7999999523163","2","1","2","2","1,0,0,1,1,0,1,0,1","0,1,0,0,1,1,1,1,0","3",""
"","html-keyboard-response","360","674769","0.0-360.0","3SNVL38CI5EXL9JVEO7K3D6LQGVCKR","A2FP41BSPG0Y4A","3I7KR83SNAZT1REYB2SRC49PCEEK9H","","null","<img src=""img/flower5.png"" style=""width:200px; border:14px solid green;"">","null","","","","","","","","",""
"","image-keyboard-response","361","674953","0.0-361.0","3SNVL38CI5EXL9JVEO7K3D6LQGVCKR","A2FP41BSPG0Y4A","3I7KR83SNAZT1REYB2SRC49PCEEK9H","","182","img/flower1.png","75","183.59999990463257","2","1","3","2","1,0,0,1,1,0,1,0,1","0,1,0,0,1,1,1,1,0","3",""
"","html-keyboard-response","362","675261","0.0-362.0","3SNVL38CI5EXL9JVEO7K3D6LQGVCKR","A2FP41BSPG0Y4A","3I7KR83SNAZT1REYB2SRC49PCEEK9H","","null","<img src=""img/flower1.png"" style=""width:200px; border:14px solid green;"">","null","","","","","","","","",""
