"success","trial_type","trial_index","time_elapsed","internal_node_id","assignmentID","mturkID","hitID","view_history","rt","stimulus","key_press","reactionTime","a","r","s","cond","reward_cond","reward_cond_actual","reward_matrix_idx","responses"
"true","fullscreen","0","1878","0.0-0.0","3K772S5NP9XLGH214UAIG9QWIMVHEX","A2FYFCD16Z3PCC","3VAOOVPI3ZEZMZXPLZ7IWDDZ15LLLX","","","","","","","","","","","","",""
"","instructions","1","70085","0.0-1.0","3K772S5NP9XLGH214UAIG9QWIMVHEX","A2FYFCD16Z3PCC","3VAOOVPI3ZEZMZXPLZ7IWDDZ15LLLX","[{""page_index"":0,""viewing_time"":609},{""page_index"":1,""viewing_time"":2399},{""page_index"":0,""viewing_time"":1055},{""page_index"":1,""viewing_time"":605},{""page_index"":2,""viewing_time"":1174},{""page_index"":1,""viewing_time"":556},{""page_index"":2,""viewing_time"":401},{""page_index"":3,""viewing_time"":1023},{""page_index"":4,""viewing_time"":847},{""page_index"":5,""viewing_time"":53147},{""page_index"":6,""viewing_time"":4162},{""page_index"":7,""viewing_time"":2228}]","68207","","","","","","","","","","",""
"","image-keyboard-response","2","70733","0.0-2.0","3K772S5NP9XLGH214UAIG9QWIMVHEX","A2FYFCD16Z3PCC","3VAOOVPI3ZEZMZXPLZ7IWDDZ15LLLX","","647","img/flower6.png","74","647","1","0","2","1","1,0.333,0.333,0.333,1,0.333,0.333,0.333,1","1,0.333,0.333,0.333,1,0.333,0.333,0.333,1","1",""
"","html-keyboard-response","3","71049","0.0-3.0","3K772S5NP9XLGH214UAIG9QWIMVHEX","A2FYFCD16Z3PCC","3VAOOVPI3ZEZMZXPLZ7IWDDZ15LLLX","","null","<img src=""img/flower6.png"" style=""width:200px;border:14px solid red;"">","null","","","","","","","","",""
"","image-keyboard-response","4","71524","0.0-4.0","3K772S5NP9XLGH214UAIG9QWIMVHEX","A2FYFCD16Z3PCC","3VAOOVPI3ZEZMZXPLZ7IWDDZ15LLLX","","475","img/flower4.png","74","475","1","0","3","1","1,0.333,0.333,0.333,1,0.333,0.333,0.333,1","1,0.333,0.333,0.333,1,0.333,0.333,0.333,1","1",""
"","html-keyboard-response","5","71827","0.0-5.0","3K772S5NP9XLGH214UAIG9QWIMVHEX","A2FYFCD16Z3PCC","3VAOOVPI3ZEZMZXPLZ7IWDDZ15LLLX","","null","<img src=""img/flower4.png"" style=""width:200px;border:14px solid red;"">","null","","","","","","","","",""
"","image-keyboard-response","6","72060","0.0-6.0","3K772S5NP9XLGH214UAIG9QWIMVHEX","A2FYFCD16Z3PCC","3VAOOVPI3ZEZMZXPLZ7IWDDZ15LLLX","","234","img/flower6.png","74","234","1","0","2","1","1,0.333,0.333,0.333,1,0.333,0.333,0.333,1","1,0.333,0.333,0.333,1,0.333,0.333,0.333,1","1",""
"","html-keyboard-response","7","72362","0.0-7.0","3K772S5NP9XLGH214UAIG9QWIMVHEX","A2FYFCD16Z3PCC","3VAOOVPI3ZEZMZXPLZ7IWDDZ15LLLX","","null","<img src=""img/flower6.png"" style=""width:200px;border:14px solid red;"">","null","","","","","","","","",""
"","image-keyboard-response","8","72564","0.0-8.0","3K772S5NP9XLGH214UAIG9QWIMVHEX","A2FYFCD16Z3PCC","3VAOOVPI3ZEZMZXPLZ7IWDDZ15LLLX","","201","img/flower6.png","74","202","1","0","2","1","1,0.333,0.333,0.333,1,0.333,0.333,0.333,1","1,0.333,0.333,0.333,1,0.333,0.333,0.333,1","1",""
"","html-keyboard-response","9","72866","0.0-9.0","3K772S5NP9XLGH214UAIG9QWIMVHEX","A2FYFCD16Z3PCC","3VAOOVPI3ZEZMZXPLZ7IWDDZ15LLLX","","null","<img src=""img/flower6.png"" style=""width:200px;border:14px solid red;"">","null","","","","","","","","",""
"","image-keyboard-response","10","73364","0.0-10.0","3K772S5NP9XLGH214UAIG9QWIMVHEX","A2FYFCD16Z3PCC","3VAOOVPI3ZEZMZXPLZ7IWDDZ15LLLX","","498","img/flower5.png","74","499","1","1","1","1","1,0.333,0.333,0.333,1,0.333,0.333,0.333,1","1,0.333,0.333,0.333,1,0.333,0.333,0.333,1","1",""
"","html-keyboard-response","11","73666","0.0-11.0","3K772S5NP9XLGH214UAIG9QWIMVHEX","A2FYFCD16Z3PCC","3VAOOVPI3ZEZMZXPLZ7IWDDZ15LLLX","","null","<img src=""img/flower5.png"" style=""width:200px; border:14px solid green;"">","null","","","","","","","","",""
"","image-keyboard-response","12","74373","0.0-12.0","3K772S5NP9XLGH214UAIG9QWIMVHEX","A2FYFCD16Z3PCC","3VAOOVPI3ZEZMZXPLZ7IWDDZ15LLLX","","706","img/flower4.png","74","707","1","0","3","1","1,0.333,0.333,0.333,1,0.333,0.333,0.333,1","1,0.333,0.333,0.333,1,0.333,0.333,0.333,1","1",""
"","html-keyboard-response","13","74674","0.0-13.0","3K772S5NP9XLGH214UAIG9QWIMVHEX","A2FYFCD16Z3PCC","3VAOOVPI3ZEZMZXPLZ7IWDDZ15LLLX","","null","<img src=""img/flower4.png"" style=""width:200px;border:14px solid red;"">","null","","","","","","","","",""
"","image-keyboard-response","14","75012","0.0-14.0","3K772S5NP9XLGH214UAIG9QWIMVHEX","A2FYFCD16Z3PCC","3VAOOVPI3ZEZMZXPLZ7IWDDZ15LLLX","","338","img/flower6.png","75","338","2","1","2","1","1,0.333,0.333,0.333,1,0.333,0.333,0.333,1","1,0.333,0.333,0.333,1,0.333,0.333,0.333,1","1",""
"","html-keyboard-response","15","75314","0.0-15.0","3K772S5NP9XLGH214UAIG9QWIMVHEX","A2FYFCD16Z3PCC","3VAOOVPI3ZEZMZXPLZ7IWDDZ15LLLX","","null","<img src=""img/flower6.png"" style=""width:200px; border:14px solid green;"">","null","","","","","","","","",""
"","image-keyboard-response","16","75484","0.0-16.0","3K772S5NP9XLGH214UAIG9QWIMVHEX","A2FYFCD16Z3PCC","3VAOOVPI3ZEZMZXPLZ7IWDDZ15LLLX","","170","img/flower4.png","75","170","2","1","3","1","1,0.333,0.333,0.333,1,0.333,0.333,0.333,1","1,0.333,0.333,0.333,1,0.333,0.333,0.333,1","1",""
"","html-keyboard-response","17","75785","0.0-17.0","3K772S5NP9XLGH214UAIG9QWIMVHEX","A2FYFCD16Z3PCC","3VAOOVPI3ZEZMZXPLZ7IWDDZ15LLLX","","null","<img src=""img/flower4.png"" style=""width:200px; border:14px solid green;"">","null","","","","","","","","",""
"","image-keyboard-response","18","75916","0.0-18.0","3K772S5NP9XLGH214UAIG9QWIMVHEX","A2FYFCD16Z3PCC","3VAOOVPI3ZEZMZXPLZ7IWDDZ15LLLX","","131","img/flower6.png","75","131","2","1","2","1","1,0.333,0.333,0.333,1,0.333,0.333,0.333,1","1,0.333,0.333,0.333,1,0.333,0.333,0.333,1","1",""
"","html-keyboard-response","19","76218","0.0-19.0","3K772S5NP9XLGH214UAIG9QWIMVHEX","A2FYFCD16Z3PCC","3VAOOVPI3ZEZMZXPLZ7IWDDZ15LLLX","","null","<img src=""img/flower6.png"" style=""width:200px; border:14px solid green;"">","null","","","","","","","","",""
"","image-keyboard-response","20","76380","0.0-20.0","3K772S5NP9XLGH214UAIG9QWIMVHEX","A2FYFCD16Z3PCC","3VAOOVPI3ZEZMZXPLZ7IWDDZ15LLLX","","162","img/flower4.png","75","163","2","0","3","1","1,0.333,0.333,0.333,1,0.333,0.333,0.333,1","1,0.333,0.333,0.333,1,0.333,0.333,0.333,1","1",""
"","html-keyboard-response","21","76681","0.0-21.0","3K772S5NP9XLGH214UAIG9QWIMVHEX","A2FYFCD16Z3PCC","3VAOOVPI3ZEZMZXPLZ7IWDDZ15LLLX","","null","<img src=""img/flower4.png"" style=""width:200px;border:14px solid red;"">","null","","","","","","","","",""
"","image-keyboard-response","22","76860","0.0-22.0","3K772S5NP9XLGH214UAIG9QWIMVHEX","A2FYFCD16Z3PCC","3VAOOVPI3ZEZMZXPLZ7IWDDZ15LLLX","","178","img/flower5.png","75","179","2","1","1","1","1,0.333,0.333,0.333,1,0.333,0.333,0.333,1","1,0.333,0.333,0.333,1,0.333,0.333,0.333,1","1",""
"","html-keyboard-response","23","77162","0.0-23.0","3K772S5NP9XLGH214UAIG9QWIMVHEX","A2FYFCD16Z3PCC","3VAOOVPI3ZEZMZXPLZ7IWDDZ15LLLX","","null","<img src=""img/flower5.png"" style=""width:200px; border:14px solid green;"">","null","","","","","","","","",""
"","image-keyboard-response","24","77268","0.0-24.0","3K772S5NP9XLGH214UAIG9QWIMVHEX","A2FYFCD16Z3PCC","3VAOOVPI3ZEZMZXPLZ7IWDDZ15LLLX","","106","img/flower4.png","75","107","2","0","3","1","1,0.333,0.333,0.333,1,0.333,0.333,0.333,1","1,0.333,0.333,0.333,1,0.333,0.333,0.333,1","1",""
"","html-keyboard-response","25","77570","0.0-25.0","3K772S5NP9XLGH214UAIG9QWIMVHEX","A2FYFCD16Z3PCC","3VAOOVPI3ZEZMZXPLZ7IWDDZ15LLLX","","null","<img src=""img/flower4.png"" style=""width:200px;border:14px solid red;"">","null","","","","","","","","",""
"","image-keyboard-response","26","77652","0.0-26.0","3K772S5NP9XLGH214UAIG9QWIMVHEX","A2FYFCD16Z3PCC","3VAOOVPI3ZEZMZXPLZ7IWDDZ15LLLX","","82","img/flower4.png","75","82","2","1","3","1","1,0.333,0.333,0.333,1,0.333,0.333,0.333,1","1,0.333,0.333,0.333,1,0.333,0.333,0.333,1","1",""
"","html-keyboard-response","27","77954","0.0-27.0","3K772S5NP9XLGH214UAIG9QWIMVHEX","A2FYFCD16Z3PCC","3VAOOVPI3ZEZMZXPLZ7IWDDZ15LLLX","","null","<img src=""img/flower4.png"" style=""width:200px; border:14px solid green;"">","null","","","","","","","","",""
"","image-keyboard-response","28","78004","0.0-28.0","3K772S5NP9XLGH214UAIG9QWIMVHEX","A2FYFCD16Z3PCC","3VAOOVPI3ZEZMZXPLZ7IWDDZ15LLLX","","49","img/flower5.png","75","50","2","1","1","1","1,0.333,0.333,0.333,1,0.333,0.333,0.333,1","1,0.333,0.333,0.333,1,0.333,0.333,0.333,1","1",""
"","html-keyboard-response","29","78306","0.0-29.0","3K772S5NP9XLGH214UAIG9QWIMVHEX","A2FYFCD16Z3PCC","3VAOOVPI3ZEZMZXPLZ7IWDDZ15LLLX","","null","<img src=""img/flower5.png"" style=""width:200px; border:14px solid green;"">","null","","","","","","","","",""
"","image-keyboard-response","30","78348","0.0-30.0","3K772S5NP9XLGH214UAIG9QWIMVHEX","A2FYFCD16Z3PCC","3VAOOVPI3ZEZMZXPLZ7IWDDZ15LLLX","","41","img/flower6.png","75","42","2","1","2","1","1,0.333,0.333,0.333,1,0.333,0.333,0.333,1","1,0.333,0.333,0.333,1,0.333,0.333,0.333,1","1",""
"","html-keyboard-response","31","78649","0.0-31.0","3K772S5NP9XLGH214UAIG9QWIMVHEX","A2FYFCD16Z3PCC","3VAOOVPI3ZEZMZXPLZ7IWDDZ15LLLX","","null","<img src=""img/flower6.png"" style=""width:200px; border:14px solid green;"">","null","","","","","","","","",""
"","image-keyboard-response","32","78692","0.0-32.0","3K772S5NP9XLGH214UAIG9QWIMVHEX","A2FYFCD16Z3PCC","3VAOOVPI3ZEZMZXPLZ7IWDDZ15LLLX","","42","img/flower6.png","75","43","2","1","2","1","1,0.333,0.333,0.333,1,0.333,0.333,0.333,1","1,0.333,0.333,0.333,1,0.333,0.333,0.333,1","1",""
"","html-keyboard-response","33","78994","0.0-33.0","3K772S5NP9XLGH214UAIG9QWIMVHEX","A2FYFCD16Z3PCC","3VAOOVPI3ZEZMZXPLZ7IWDDZ15LLLX","","null","<img src=""img/flower6.png"" style=""width:200px; border:14px solid green;"">","null","","","","","","","","",""
"","image-keyboard-response","34","79004","0.0-34.0","3K772S5NP9XLGH214UAIG9QWIMVHEX","A2FYFCD16Z3PCC","3VAOOVPI3ZEZMZXPLZ7IWDDZ15LLLX","","9","img/flower4.png","75","10","2","0","3","1","1,0.333,0.333,0.333,1,0.333,0.333,0.333,1","1,0.333,0.333,0.333,1,0.333,0.333,0.333,1","1",""
"","html-keyboard-response","35","79306","0.0-35.0","3K772S5NP9XLGH214UAIG9QWIMVHEX","A2FYFCD16Z3PCC","3VAOOVPI3ZEZMZXPLZ7IWDDZ15LLLX","","null","<img src=""img/flower4.png"" style=""width:200px;border:14px solid red;"">","null","","","","","","","","",""
"","image-keyboard-response","36","79436","0.0-36.0","3K772S5NP9XLGH214UAIG9QWIMVHEX","A2FYFCD16Z3PCC","3VAOOVPI3ZEZMZXPLZ7IWDDZ15LLLX","","130","img/flower4.png","76","131","3","1","3","1","1,0.333,0.333,0.333,1,0.333,0.333,0.333,1","1,0.333,0.333,0.333,1,0.333,0.333,0.333,1","1",""
"","html-keyboard-response","37","79739","0.0-37.0","3K772S5NP9XLGH214UAIG9QWIMVHEX","A2FYFCD16Z3PCC","3VAOOVPI3ZEZMZXPLZ7IWDDZ15LLLX","","null","<img src=""img/flower4.png"" style=""width:200px; border:14px solid green;"">","null","","","","","","","","",""
"","image-keyboard-response","38","79804","0.0-38.0","3K772S5NP9XLGH214UAIG9QWIMVHEX","A2FYFCD16Z3PCC","3VAOOVPI3ZEZMZXPLZ7IWDDZ15LLLX","","65","img/flower5.png","76","65","3","0","1","1","1,0.333,0.333,0.333,1,0.333,0.333,0.333,1","1,0.333,0.333,0.333,1,0.333,0.333,0.333,1","1",""
"","html-keyboard-response","39","80105","0.0-39.0","3K772S5NP9XLGH214UAIG9QWIMVHEX","A2FYFCD16Z3PCC","3VAOOVPI3ZEZMZXPLZ7IWDDZ15LLLX","","null","<img src=""img/flower5.png"" style=""width:200px;border:14px solid red;"">","null","","","","","","","","",""
"","image-keyboard-response","40","80404","0.0-40.0","3K772S5NP9XLGH214UAIG9QWIMVHEX","A2FYFCD16Z3PCC","3VAOOVPI3ZEZMZXPLZ7IWDDZ15LLLX","","298","img/flower6.png","76","298","3","0","2","1","1,0.333,0.333,0.333,1,0.333,0.333,0.333,1","1,0.333,0.333,0.333,1,0.333,0.333,0.333,1","1",""
"","html-keyboard-response","41","80705","0.0-41.0","3K772S5NP9XLGH214UAIG9QWIMVHEX","A2FYFCD16Z3PCC","3VAOOVPI3ZEZMZXPLZ7IWDDZ15LLLX","","null","<img src=""img/flower6.png"" style=""width:200px;border:14px solid red;"">","null","","","","","","","","",""
"","image-keyboard-response","42","80757","0.0-42.0","3K772S5NP9XLGH214UAIG9QWIMVHEX","A2FYFCD16Z3PCC","3VAOOVPI3ZEZMZXPLZ7IWDDZ15LLLX","","51","img/flower5.png","76","51","3","1","1","1","1,0.333,0.333,0.333,1,0.333,0.333,0.333,1","1,0.333,0.333,0.333,1,0.333,0.333,0.333,1","1",""
"","html-keyboard-response","43","81058","0.0-43.0","3K772S5NP9XLGH214UAIG9QWIMVHEX","A2FYFCD16Z3PCC","3VAOOVPI3ZEZMZXPLZ7IWDDZ15LLLX","","null","<img src=""img/flower5.png"" style=""width:200px; border:14px solid green;"">","null","","","","","","","","",""
"","image-keyboard-response","44","81700","0.0-44.0","3K772S5NP9XLGH214UAIG9QWIMVHEX","A2FYFCD16Z3PCC","3VAOOVPI3ZEZMZXPLZ7IWDDZ15LLLX","","642","img/flower4.png","76","643","3","1","3","1","1,0.333,0.333,0.333,1,0.333,0.333,0.333,1","1,0.333,0.333,0.333,1,0.333,0.333,0.333,1","1",""
"","html-keyboard-response","45","82002","0.0-45.0","3K772S5NP9XLGH214UAIG9QWIMVHEX","A2FYFCD16Z3PCC","3VAOOVPI3ZEZMZXPLZ7IWDDZ15LLLX","","null","<img src=""img/flower4.png"" style=""width:200px; border:14px solid green;"">","null","","","","","","","","",""
"","image-keyboard-response","46","82276","0.0-46.0","3K772S5NP9XLGH214UAIG9QWIMVHEX","A2FYFCD16Z3PCC","3VAOOVPI3ZEZMZXPLZ7IWDDZ15LLLX","","274","img/flower4.png","76","276","3","1","3","1","1,0.333,0.333,0.333,1,0.333,0.333,0.333,1","1,0.333,0.333,0.333,1,0.333,0.333,0.333,1","1",""
"","html-keyboard-response","47","82578","0.0-47.0","3K772S5NP9XLGH214UAIG9QWIMVHEX","A2FYFCD16Z3PCC","3VAOOVPI3ZEZMZXPLZ7IWDDZ15LLLX","","null","<img src=""img/flower4.png"" style=""width:200px; border:14px solid green;"">","null","","","","","","","","",""
"","image-keyboard-response","48","82684","0.0-48.0","3K772S5NP9XLGH214UAIG9QWIMVHEX","A2FYFCD16Z3PCC","3VAOOVPI3ZEZMZXPLZ7IWDDZ15LLLX","","105","img/flower4.png","76","105","3","1","3","1","1,0.333,0.333,0.333,1,0.333,0.333,0.333,1","1,0.333,0.333,0.333,1,0.333,0.333,0.333,1","1",""
"","html-keyboard-response","49","82986","0.0-49.0","3K772S5NP9XLGH214UAIG9QWIMVHEX","A2FYFCD16Z3PCC","3VAOOVPI3ZEZMZXPLZ7IWDDZ15LLLX","","null","<img src=""img/flower4.png"" style=""width:200px; border:14px solid green;"">","null","","","","","","","","",""
"","image-keyboard-response","50","83076","0.0-50.0","3K772S5NP9XLGH214UAIG9QWIMVHEX","A2FYFCD16Z3PCC","3VAOOVPI3ZEZMZXPLZ7IWDDZ15LLLX","","91","img/flower6.png","76","91","3","0","2","1","1,0.333,0.333,0.333,1,0.333,0.333,0.333,1","1,0.333,0.333,0.333,1,0.333,0.333,0.333,1","1",""
"","html-keyboard-response","51","83379","0.0-51.0","3K772S5NP9XLGH214UAIG9QWIMVHEX","A2FYFCD16Z3PCC","3VAOOVPI3ZEZMZXPLZ7IWDDZ15LLLX","","null","<img src=""img/flower6.png"" style=""width:200px;border:14px solid red;"">","null","","","","","","","","",""
"","image-keyboard-response","52","83685","0.0-52.0","3K772S5NP9XLGH214UAIG9QWIMVHEX","A2FYFCD16Z3PCC","3VAOOVPI3ZEZMZXPLZ7IWDDZ15LLLX","","305","img/flower6.png","75","305","2","1","2","1","1,0.333,0.333,0.333,1,0.333,0.333,0.333,1","1,0.333,0.333,0.333,1,0.333,0.333,0.333,1","1",""
"","html-keyboard-response","53","83987","0.0-53.0","3K772S5NP9XLGH214UAIG9QWIMVHEX","A2FYFCD16Z3PCC","3VAOOVPI3ZEZMZXPLZ7IWDDZ15LLLX","","null","<img src=""img/flower6.png"" style=""width:200px; border:14px solid green;"">","null","","","","","","","","",""
"","image-keyboard-response","54","84268","0.0-54.0","3K772S5NP9XLGH214UAIG9QWIMVHEX","A2FYFCD16Z3PCC","3VAOOVPI3ZEZMZXPLZ7IWDDZ15LLLX","","281","img/flower6.png","75","282","2","1","2","1","1,0.333,0.333,0.333,1,0.333,0.333,0.333,1","1,0.333,0.333,0.333,1,0.333,0.333,0.333,1","1",""
"","html-keyboard-response","55","84569","0.0-55.0","3K772S5NP9XLGH214UAIG9QWIMVHEX","A2FYFCD16Z3PCC","3VAOOVPI3ZEZMZXPLZ7IWDDZ15LLLX","","null","<img src=""img/flower6.png"" style=""width:200px; border:14px solid green;"">","null","","","","","","","","",""
"","image-keyboard-response","56","84733","0.0-56.0","3K772S5NP9XLGH214UAIG9QWIMVHEX","A2FYFCD16Z3PCC","3VAOOVPI3ZEZMZXPLZ7IWDDZ15LLLX","","163","img/flower5.png","75","163","2","0","1","1","1,0.333,0.333,0.333,1,0.333,0.333,0.333,1","1,0.333,0.333,0.333,1,0.333,0.333,0.333,1","1",""
"","html-keyboard-response","57","85034","0.0-57.0","3K772S5NP9XLGH214UAIG9QWIMVHEX","A2FYFCD16Z3PCC","3VAOOVPI3ZEZMZXPLZ7IWDDZ15LLLX","","null","<img src=""img/flower5.png"" style=""width:200px;border:14px solid red;"">","null","","","","","","","","",""
"","image-keyboard-response","58","85292","0.0-58.0","3K772S5NP9XLGH214UAIG9QWIMVHEX","A2FYFCD16Z3PCC","3VAOOVPI3ZEZMZXPLZ7IWDDZ15LLLX","","258","img/flower5.png","75","259","2","1","1","1","1,0.333,0.333,0.333,1,0.333,0.333,0.333,1","1,0.333,0.333,0.333,1,0.333,0.333,0.333,1","1",""
"","html-keyboard-response","59","85593","0.0-59.0","3K772S5NP9XLGH214UAIG9QWIMVHEX","A2FYFCD16Z3PCC","3VAOOVPI3ZEZMZXPLZ7IWDDZ15LLLX","","null","<img src=""img/flower5.png"" style=""width:200px; border:14px solid green;"">","null","","","","","","","","",""
"","image-keyboard-response","60","85748","0.0-60.0","3K772S5NP9XLGH214UAIG9QWIMVHEX","A2FYFCD16Z3PCC","3VAOOVPI3ZEZMZXPLZ7IWDDZ15LLLX","","155","img/flower6.png","75","155","2","1","2","1","1,0.333,0.333,0.333,1,0.333,0.333,0.333,1","1,0.333,0.333,0.333,1,0.333,0.333,0.333,1","1",""
"","html-keyboard-response","61","86050","0.0-61.0","3K772S5NP9XLGH214UAIG9QWIMVHEX","A2FYFCD16Z3PCC","3VAOOVPI3ZEZMZXPLZ7IWDDZ15LLLX","","null","<img src=""img/flower6.png"" style=""width:200px; border:14px solid green;"">","null","","","","","","","","",""
"","image-keyboard-response","62","86228","0.0-62.0","3K772S5NP9XLGH214UAIG9QWIMVHEX","A2FYFCD16Z3PCC","3VAOOVPI3ZEZMZXPLZ7IWDDZ15LLLX","","177","img/flower5.png","75","179","2","0","1","1","1,0.333,0.333,0.333,1,0.333,0.333,0.333,1","1,0.333,0.333,0.333,1,0.333,0.333,0.333,1","1",""
"","html-keyboard-response","63","86530","0.0-63.0","3K772S5NP9XLGH214UAIG9QWIMVHEX","A2FYFCD16Z3PCC","3VAOOVPI3ZEZMZXPLZ7IWDDZ15LLLX","","null","<img src=""img/flower5.png"" style=""width:200px;border:14px solid red;"">","null","","","","","","","","",""
"","image-keyboard-response","64","87109","0.0-64.0","3K772S5NP9XLGH214UAIG9QWIMVHEX","A2FYFCD16Z3PCC","3VAOOVPI3ZEZMZXPLZ7IWDDZ15LLLX","","579","img/flower6.png","75","580","2","1","2","1","1,0.333,0.333,0.333,1,0.333,0.333,0.333,1","1,0.333,0.333,0.333,1,0.333,0.333,0.333,1","1",""
"","html-keyboard-response","65","87410","0.0-65.0","3K772S5NP9XLGH214UAIG9QWIMVHEX","A2FYFCD16Z3PCC","3VAOOVPI3ZEZMZXPLZ7IWDDZ15LLLX","","null","<img src=""img/flower6.png"" style=""width:200px; border:14px solid green;"">","null","","","","","","","","",""
"","image-keyboard-response","66","87844","0.0-66.0","3K772S5NP9XLGH214UAIG9QWIMVHEX","A2FYFCD16Z3PCC","3VAOOVPI3ZEZMZXPLZ7IWDDZ15LLLX","","434","img/flower5.png","76","434","3","1","1","1","1,0.333,0.333,0.333,1,0.333,0.333,0.333,1","1,0.333,0.333,0.333,1,0.333,0.333,0.333,1","1",""
"","html-keyboard-response","67","88145","0.0-67.0","3K772S5NP9XLGH214UAIG9QWIMVHEX","A2FYFCD16Z3PCC","3VAOOVPI3ZEZMZXPLZ7IWDDZ15LLLX","","null","<img src=""img/flower5.png"" style=""width:200px; border:14px solid green;"">","null","","","","","","","","",""
"","image-keyboard-response","68","88308","0.0-68.0","3K772S5NP9XLGH214UAIG9QWIMVHEX","A2FYFCD16Z3PCC","3VAOOVPI3ZEZMZXPLZ7IWDDZ15LLLX","","162","img/flower5.png","76","163","3","1","1","1","1,0.333,0.333,0.333,1,0.333,0.333,0.333,1","1,0.333,0.333,0.333,1,0.333,0.333,0.333,1","1",""
"","html-keyboard-response","69","88611","0.0-69.0","3K772S5NP9XLGH214UAIG9QWIMVHEX","A2FYFCD16Z3PCC","3VAOOVPI3ZEZMZXPLZ7IWDDZ15LLLX","","null","<img src=""img/flower5.png"" style=""width:200px; border:14px solid green;"">","null","","","","","","","","",""
"","image-keyboard-response","70","88756","0.0-70.0","3K772S5NP9XLGH214UAIG9QWIMVHEX","A2FYFCD16Z3PCC","3VAOOVPI3ZEZMZXPLZ7IWDDZ15LLLX","","146","img/flower6.png","76","146","3","1","2","1","1,0.333,0.333,0.333,1,0.333,0.333,0.333,1","1,0.333,0.333,0.333,1,0.333,0.333,0.333,1","1",""
"","html-keyboard-response","71","89058","0.0-71.0","3K772S5NP9XLGH214UAIG9QWIMVHEX","A2FYFCD16Z3PCC","3VAOOVPI3ZEZMZXPLZ7IWDDZ15LLLX","","null","<img src=""img/flower6.png"" style=""width:200px; border:14px solid green;"">","null","","","","","","","","",""
"","image-keyboard-response","72","89132","0.0-72.0","3K772S5NP9XLGH214UAIG9QWIMVHEX","A2FYFCD16Z3PCC","3VAOOVPI3ZEZMZXPLZ7IWDDZ15LLLX","","75","img/flower4.png","76","75","3","1","3","1","1,0.333,0.333,0.333,1,0.333,0.333,0.333,1","1,0.333,0.333,0.333,1,0.333,0.333,0.333,1","1",""
"","html-keyboard-response","73","89434","0.0-73.0","3K772S5NP9XLGH214UAIG9QWIMVHEX","A2FYFCD16Z3PCC","3VAOOVPI3ZEZMZXPLZ7IWDDZ15LLLX","","null","<img src=""img/flower4.png"" style=""width:200px; border:14px solid green;"">","null","","","","","","","","",""
"","image-keyboard-response","74","89524","0.0-74.0","3K772S5NP9XLGH214UAIG9QWIMVHEX","A2FYFCD16Z3PCC","3VAOOVPI3ZEZMZXPLZ7IWDDZ15LLLX","","90","img/flower5.png","76","91","3","1","1","1","1,0.333,0.333,0.333,1,0.333,0.333,0.333,1","1,0.333,0.333,0.333,1,0.333,0.333,0.333,1","1",""
"","html-keyboard-response","75","89826","0.0-75.0","3K772S5NP9XLGH214UAIG9QWIMVHEX","A2FYFCD16Z3PCC","3VAOOVPI3ZEZMZXPLZ7IWDDZ15LLLX","","null","<img src=""img/flower5.png"" style=""width:200px; border:14px solid green;"">","null","","","","","","","","",""
"","image-keyboard-response","76","89988","0.0-76.0","3K772S5NP9XLGH214UAIG9QWIMVHEX","A2FYFCD16Z3PCC","3VAOOVPI3ZEZMZXPLZ7IWDDZ15LLLX","","162","img/flower6.png","76","162","3","0","2","1","1,0.333,0.333,0.333,1,0.333,0.333,0.333,1","1,0.333,0.333,0.333,1,0.333,0.333,0.333,1","1",""
"","html-keyboard-response","77","90290","0.0-77.0","3K772S5NP9XLGH214UAIG9QWIMVHEX","A2FYFCD16Z3PCC","3VAOOVPI3ZEZMZXPLZ7IWDDZ15LLLX","","null","<img src=""img/flower6.png"" style=""width:200px;border:14px solid red;"">","null","","","","","","","","",""
"","image-keyboard-response","78","90412","0.0-78.0","3K772S5NP9XLGH214UAIG9QWIMVHEX","A2FYFCD16Z3PCC","3VAOOVPI3ZEZMZXPLZ7IWDDZ15LLLX","","121","img/flower4.png","76","122","3","1","3","1","1,0.333,0.333,0.333,1,0.333,0.333,0.333,1","1,0.333,0.333,0.333,1,0.333,0.333,0.333,1","1",""
"","html-keyboard-response","79","90714","0.0-79.0","3K772S5NP9XLGH214UAIG9QWIMVHEX","A2FYFCD16Z3PCC","3VAOOVPI3ZEZMZXPLZ7IWDDZ15LLLX","","null","<img src=""img/flower4.png"" style=""width:200px; border:14px solid green;"">","null","","","","","","","","",""
"","image-keyboard-response","80","90812","0.0-80.0","3K772S5NP9XLGH214UAIG9QWIMVHEX","A2FYFCD16Z3PCC","3VAOOVPI3ZEZMZXPLZ7IWDDZ15LLLX","","99","img/flower6.png","76","99","3","0","2","1","1,0.333,0.333,0.333,1,0.333,0.333,0.333,1","1,0.333,0.333,0.333,1,0.333,0.333,0.333,1","1",""
"","html-keyboard-response","81","91114","0.0-81.0","3K772S5NP9XLGH214UAIG9QWIMVHEX","A2FYFCD16Z3PCC","3VAOOVPI3ZEZMZXPLZ7IWDDZ15LLLX","","null","<img src=""img/flower6.png"" style=""width:200px;border:14px solid red;"">","null","","","","","","","","",""
"","image-keyboard-response","82","91180","0.0-82.0","3K772S5NP9XLGH214UAIG9QWIMVHEX","A2FYFCD16Z3PCC","3VAOOVPI3ZEZMZXPLZ7IWDDZ15LLLX","","66","img/flower6.png","76","66","3","1","2","1","1,0.333,0.333,0.333,1,0.333,0.333,0.333,1","1,0.333,0.333,0.333,1,0.333,0.333,0.333,1","1",""
"","html-keyboard-response","83","91483","0.0-83.0","3K772S5NP9XLGH214UAIG9QWIMVHEX","A2FYFCD16Z3PCC","3VAOOVPI3ZEZMZXPLZ7IWDDZ15LLLX","","null","<img src=""img/flower6.png"" style=""width:200px; border:14px solid green;"">","null","","","","","","","","",""
"","image-keyboard-response","84","91556","0.0-84.0","3K772S5NP9XLGH214UAIG9QWIMVHEX","A2FYFCD16Z3PCC","3VAOOVPI3ZEZMZXPLZ7IWDDZ15LLLX","","73","img/flower4.png","76","73","3","1","3","1","1,0.333,0.333,0.333,1,0.333,0.333,0.333,1","1,0.333,0.333,0.333,1,0.333,0.333,0.333,1","1",""
"","html-keyboard-response","85","91858","0.0-85.0","3K772S5NP9XLGH214UAIG9QWIMVHEX","A2FYFCD16Z3PCC","3VAOOVPI3ZEZMZXPLZ7IWDDZ15LLLX","","null","<img src=""img/flower4.png"" style=""width:200px; border:14px solid green;"">","null","","","","","","","","",""
"","image-keyboard-response","86","91948","0.0-86.0","3K772S5NP9XLGH214UAIG9QWIMVHEX","A2FYFCD16Z3PCC","3VAOOVPI3ZEZMZXPLZ7IWDDZ15LLLX","","90","img/flower6.png","76","91","3","1","2","1","1,0.333,0.333,0.333,1,0.333,0.333,0.333,1","1,0.333,0.333,0.333,1,0.333,0.333,0.333,1","1",""
"","html-keyboard-response","87","92249","0.0-87.0","3K772S5NP9XLGH214UAIG9QWIMVHEX","A2FYFCD16Z3PCC","3VAOOVPI3ZEZMZXPLZ7IWDDZ15LLLX","","null","<img src=""img/flower6.png"" style=""width:200px; border:14px solid green;"">","null","","","","","","","","",""
"","image-keyboard-response","88","92308","0.0-88.0","3K772S5NP9XLGH214UAIG9QWIMVHEX","A2FYFCD16Z3PCC","3VAOOVPI3ZEZMZXPLZ7IWDDZ15LLLX","","58","img/flower6.png","76","59","3","0","2","1","1,0.333,0.333,0.333,1,0.333,0.333,0.333,1","1,0.333,0.333,0.333,1,0.333,0.333,0.333,1","1",""
"","html-keyboard-response","89","92618","0.0-89.0","3K772S5NP9XLGH214UAIG9QWIMVHEX","A2FYFCD16Z3PCC","3VAOOVPI3ZEZMZXPLZ7IWDDZ15LLLX","","null","<img src=""img/flower6.png"" style=""width:200px;border:14px solid red;"">","null","","","","","","","","",""
"","image-keyboard-response","90","92676","0.0-90.0","3K772S5NP9XLGH214UAIG9QWIMVHEX","A2FYFCD16Z3PCC","3VAOOVPI3ZEZMZXPLZ7IWDDZ15LLLX","","58","img/flower4.png","76","59","3","1","3","1","1,0.333,0.333,0.333,1,0.333,0.333,0.333,1","1,0.333,0.333,0.333,1,0.333,0.333,0.333,1","1",""
"","html-keyboard-response","91","92978","0.0-91.0","3K772S5NP9XLGH214UAIG9QWIMVHEX","A2FYFCD16Z3PCC","3VAOOVPI3ZEZMZXPLZ7IWDDZ15LLLX","","null","<img src=""img/flower4.png"" style=""width:200px; border:14px solid green;"">","null","","","","","","","","",""
"","image-keyboard-response","92","93044","0.0-92.0","3K772S5NP9XLGH214UAIG9QWIMVHEX","A2FYFCD16Z3PCC","3VAOOVPI3ZEZMZXPLZ7IWDDZ15LLLX","","66","img/flower4.png","76","66","3","1","3","1","1,0.333,0.333,0.333,1,0.333,0.333,0.333,1","1,0.333,0.333,0.333,1,0.333,0.333,0.333,1","1",""
"","html-keyboard-response","93","93346","0.0-93.0","3K772S5NP9XLGH214UAIG9QWIMVHEX","A2FYFCD16Z3PCC","3VAOOVPI3ZEZMZXPLZ7IWDDZ15LLLX","","null","<img src=""img/flower4.png"" style=""width:200px; border:14px solid green;"">","null","","","","","","","","",""
"","image-keyboard-response","94","93428","0.0-94.0","3K772S5NP9XLGH214UAIG9QWIMVHEX","A2FYFCD16Z3PCC","3VAOOVPI3ZEZMZXPLZ7IWDDZ15LLLX","","82","img/flower6.png","76","82","3","0","2","1","1,0.333,0.333,0.333,1,0.333,0.333,0.333,1","1,0.333,0.333,0.333,1,0.333,0.333,0.333,1","1",""
"","html-keyboard-response","95","93730","0.0-95.0","3K772S5NP9XLGH214UAIG9QWIMVHEX","A2FYFCD16Z3PCC","3VAOOVPI3ZEZMZXPLZ7IWDDZ15LLLX","","null","<img src=""img/flower6.png"" style=""width:200px;border:14px solid red;"">","null","","","","","","","","",""
"","image-keyboard-response","96","93788","0.0-96.0","3K772S5NP9XLGH214UAIG9QWIMVHEX","A2FYFCD16Z3PCC","3VAOOVPI3ZEZMZXPLZ7IWDDZ15LLLX","","58","img/flower4.png","76","58","3","1","3","1","1,0.333,0.333,0.333,1,0.333,0.333,0.333,1","1,0.333,0.333,0.333,1,0.333,0.333,0.333,1","1",""
"","html-keyboard-response","97","94089","0.0-97.0","3K772S5NP9XLGH214UAIG9QWIMVHEX","A2FYFCD16Z3PCC","3VAOOVPI3ZEZMZXPLZ7IWDDZ15LLLX","","null","<img src=""img/flower4.png"" style=""width:200px; border:14px solid green;"">","null","","","","","","","","",""
"","image-keyboard-response","98","94164","0.0-98.0","3K772S5NP9XLGH214UAIG9QWIMVHEX","A2FYFCD16Z3PCC","3VAOOVPI3ZEZMZXPLZ7IWDDZ15LLLX","","74","img/flower6.png","76","74","3","1","2","1","1,0.333,0.333,0.333,1,0.333,0.333,0.333,1","1,0.333,0.333,0.333,1,0.333,0.333,0.333,1","1",""
"","html-keyboard-response","99","94466","0.0-99.0","3K772S5NP9XLGH214UAIG9QWIMVHEX","A2FYFCD16Z3PCC","3VAOOVPI3ZEZMZXPLZ7IWDDZ15LLLX","","null","<img src=""img/flower6.png"" style=""width:200px; border:14px solid green;"">","null","","","","","","","","",""
"","image-keyboard-response","100","94524","0.0-100.0","3K772S5NP9XLGH214UAIG9QWIMVHEX","A2FYFCD16Z3PCC","3VAOOVPI3ZEZMZXPLZ7IWDDZ15LLLX","","58","img/flower5.png","76","59","3","1","1","1","1,0.333,0.333,0.333,1,0.333,0.333,0.333,1","1,0.333,0.333,0.333,1,0.333,0.333,0.333,1","1",""
"","html-keyboard-response","101","94826","0.0-101.0","3K772S5NP9XLGH214UAIG9QWIMVHEX","A2FYFCD16Z3PCC","3VAOOVPI3ZEZMZXPLZ7IWDDZ15LLLX","","null","<img src=""img/flower5.png"" style=""width:200px; border:14px solid green;"">","null","","","","","","","","",""
"","image-keyboard-response","102","95141","0.0-102.0","3K772S5NP9XLGH214UAIG9QWIMVHEX","A2FYFCD16Z3PCC","3VAOOVPI3ZEZMZXPLZ7IWDDZ15LLLX","","314","img/flower5.png","76","315","3","0","1","1","1,0.333,0.333,0.333,1,0.333,0.333,0.333,1","1,0.333,0.333,0.333,1,0.333,0.333,0.333,1","1",""
"","html-keyboard-response","103","95450","0.0-103.0","3K772S5NP9XLGH214UAIG9QWIMVHEX","A2FYFCD16Z3PCC","3VAOOVPI3ZEZMZXPLZ7IWDDZ15LLLX","","null","<img src=""img/flower5.png"" style=""width:200px;border:14px solid red;"">","null","","","","","","","","",""
"","image-keyboard-response","104","95548","0.0-104.0","3K772S5NP9XLGH214UAIG9QWIMVHEX","A2FYFCD16Z3PCC","3VAOOVPI3ZEZMZXPLZ7IWDDZ15LLLX","","98","img/flower4.png","76","98","3","1","3","1","1,0.333,0.333,0.333,1,0.333,0.333,0.333,1","1,0.333,0.333,0.333,1,0.333,0.333,0.333,1","1",""
"","html-keyboard-response","105","95850","0.0-105.0","3K772S5NP9XLGH214UAIG9QWIMVHEX","A2FYFCD16Z3PCC","3VAOOVPI3ZEZMZXPLZ7IWDDZ15LLLX","","null","<img src=""img/flower4.png"" style=""width:200px; border:14px solid green;"">","null","","","","","","","","",""
"","image-keyboard-response","106","96012","0.0-106.0","3K772S5NP9XLGH214UAIG9QWIMVHEX","A2FYFCD16Z3PCC","3VAOOVPI3ZEZMZXPLZ7IWDDZ15LLLX","","162","img/flower6.png","76","162","3","0","2","1","1,0.333,0.333,0.333,1,0.333,0.333,0.333,1","1,0.333,0.333,0.333,1,0.333,0.333,0.333,1","1",""
"","html-keyboard-response","107","96314","0.0-107.0","3K772S5NP9XLGH214UAIG9QWIMVHEX","A2FYFCD16Z3PCC","3VAOOVPI3ZEZMZXPLZ7IWDDZ15LLLX","","null","<img src=""img/flower6.png"" style=""width:200px;border:14px solid red;"">","null","","","","","","","","",""
"","image-keyboard-response","108","96428","0.0-108.0","3K772S5NP9XLGH214UAIG9QWIMVHEX","A2FYFCD16Z3PCC","3VAOOVPI3ZEZMZXPLZ7IWDDZ15LLLX","","114","img/flower5.png","76","114","3","1","1","1","1,0.333,0.333,0.333,1,0.333,0.333,0.333,1","1,0.333,0.333,0.333,1,0.333,0.333,0.333,1","1",""
"","html-keyboard-response","109","96729","0.0-109.0","3K772S5NP9XLGH214UAIG9QWIMVHEX","A2FYFCD16Z3PCC","3VAOOVPI3ZEZMZXPLZ7IWDDZ15LLLX","","null","<img src=""img/flower5.png"" style=""width:200px; border:14px solid green;"">","null","","","","","","","","",""
"","image-keyboard-response","110","96812","0.0-110.0","3K772S5NP9XLGH214UAIG9QWIMVHEX","A2FYFCD16Z3PCC","3VAOOVPI3ZEZMZXPLZ7IWDDZ15LLLX","","81","img/flower5.png","76","82","3","0","1","1","1,0.333,0.333,0.333,1,0.333,0.333,0.333,1","1,0.333,0.333,0.333,1,0.333,0.333,0.333,1","1",""
"","html-keyboard-response","111","97113","0.0-111.0","3K772S5NP9XLGH214UAIG9QWIMVHEX","A2FYFCD16Z3PCC","3VAOOVPI3ZEZMZXPLZ7IWDDZ15LLLX","","null","<img src=""img/flower5.png"" style=""width:200px;border:14px solid red;"">","null","","","","","","","","",""
"","image-keyboard-response","112","97300","0.0-112.0","3K772S5NP9XLGH214UAIG9QWIMVHEX","A2FYFCD16Z3PCC","3VAOOVPI3ZEZMZXPLZ7IWDDZ15LLLX","","186","img/flower5.png","76","187","3","0","1","1","1,0.333,0.333,0.333,1,0.333,0.333,0.333,1","1,0.333,0.333,0.333,1,0.333,0.333,0.333,1","1",""
"","html-keyboard-response","113","97602","0.0-113.0","3K772S5NP9XLGH214UAIG9QWIMVHEX","A2FYFCD16Z3PCC","3VAOOVPI3ZEZMZXPLZ7IWDDZ15LLLX","","null","<img src=""img/flower5.png"" style=""width:200px;border:14px solid red;"">","null","","","","","","","","",""
"","image-keyboard-response","114","97965","0.0-114.0","3K772S5NP9XLGH214UAIG9QWIMVHEX","A2FYFCD16Z3PCC","3VAOOVPI3ZEZMZXPLZ7IWDDZ15LLLX","","362","img/flower5.png","75","363","2","0","1","1","1,0.333,0.333,0.333,1,0.333,0.333,0.333,1","1,0.333,0.333,0.333,1,0.333,0.333,0.333,1","1",""
"","html-keyboard-response","115","98266","0.0-115.0","3K772S5NP9XLGH214UAIG9QWIMVHEX","A2FYFCD16Z3PCC","3VAOOVPI3ZEZMZXPLZ7IWDDZ15LLLX","","null","<img src=""img/flower5.png"" style=""width:200px;border:14px solid red;"">","null","","","","","","","","",""
"","image-keyboard-response","116","98396","0.0-116.0","3K772S5NP9XLGH214UAIG9QWIMVHEX","A2FYFCD16Z3PCC","3VAOOVPI3ZEZMZXPLZ7IWDDZ15LLLX","","130","img/flower4.png","75","130","2","0","3","1","1,0.333,0.333,0.333,1,0.333,0.333,0.333,1","1,0.333,0.333,0.333,1,0.333,0.333,0.333,1","1",""
"","html-keyboard-response","117","98698","0.0-117.0","3K772S5NP9XLGH214UAIG9QWIMVHEX","A2FYFCD16Z3PCC","3VAOOVPI3ZEZMZXPLZ7IWDDZ15LLLX","","null","<img src=""img/flower4.png"" style=""width:200px;border:14px solid red;"">","null","","","","","","","","",""
"","image-keyboard-response","118","98764","0.0-118.0","3K772S5NP9XLGH214UAIG9QWIMVHEX","A2FYFCD16Z3PCC","3VAOOVPI3ZEZMZXPLZ7IWDDZ15LLLX","","67","img/flower5.png","75","67","2","0","1","1","1,0.333,0.333,0.333,1,0.333,0.333,0.333,1","1,0.333,0.333,0.333,1,0.333,0.333,0.333,1","1",""
"","html-keyboard-response","119","99066","0.0-119.0","3K772S5NP9XLGH214UAIG9QWIMVHEX","A2FYFCD16Z3PCC","3VAOOVPI3ZEZMZXPLZ7IWDDZ15LLLX","","null","<img src=""img/flower5.png"" style=""width:200px;border:14px solid red;"">","null","","","","","","","","",""
"","image-keyboard-response","120","99396","0.0-120.0","3K772S5NP9XLGH214UAIG9QWIMVHEX","A2FYFCD16Z3PCC","3VAOOVPI3ZEZMZXPLZ7IWDDZ15LLLX","","330","img/flower5.png","74","331","1","1","1","1","1,0.333,0.333,0.333,1,0.333,0.333,0.333,1","1,0.333,0.333,0.333,1,0.333,0.333,0.333,1","1",""
"","html-keyboard-response","121","99698","0.0-121.0","3K772S5NP9XLGH214UAIG9QWIMVHEX","A2FYFCD16Z3PCC","3VAOOVPI3ZEZMZXPLZ7IWDDZ15LLLX","","null","<img src=""img/flower5.png"" style=""width:200px; border:14px solid green;"">","null","","","","","","","","",""
"","image-keyboard-response","122","99940","0.0-122.0","3K772S5NP9XLGH214UAIG9QWIMVHEX","A2FYFCD16Z3PCC","3VAOOVPI3ZEZMZXPLZ7IWDDZ15LLLX","","241","img/flower4.png","74","242","1","0","3","1","1,0.333,0.333,0.333,1,0.333,0.333,0.333,1","1,0.333,0.333,0.333,1,0.333,0.333,0.333,1","1",""
"","html-keyboard-response","123","100242","0.0-123.0","3K772S5NP9XLGH214UAIG9QWIMVHEX","A2FYFCD16Z3PCC","3VAOOVPI3ZEZMZXPLZ7IWDDZ15LLLX","","null","<img src=""img/flower4.png"" style=""width:200px;border:14px solid red;"">","null","","","","","","","","",""
"","image-keyboard-response","124","100644","0.0-124.0","3K772S5NP9XLGH214UAIG9QWIMVHEX","A2FYFCD16Z3PCC","3VAOOVPI3ZEZMZXPLZ7IWDDZ15LLLX","","403","img/flower4.png","74","403","1","1","3","1","1,0.333,0.333,0.333,1,0.333,0.333,0.333,1","1,0.333,0.333,0.333,1,0.333,0.333,0.333,1","1",""
"","html-keyboard-response","125","100946","0.0-125.0","3K772S5NP9XLGH214UAIG9QWIMVHEX","A2FYFCD16Z3PCC","3VAOOVPI3ZEZMZXPLZ7IWDDZ15LLLX","","null","<img src=""img/flower4.png"" style=""width:200px; border:14px solid green;"">","null","","","","","","","","",""
"","image-keyboard-response","126","101532","0.0-126.0","3K772S5NP9XLGH214UAIG9QWIMVHEX","A2FYFCD16Z3PCC","3VAOOVPI3ZEZMZXPLZ7IWDDZ15LLLX","","586","img/flower4.png","76","586","3","1","3","1","1,0.333,0.333,0.333,1,0.333,0.333,0.333,1","1,0.333,0.333,0.333,1,0.333,0.333,0.333,1","1",""
"","html-keyboard-response","127","101834","0.0-127.0","3K772S5NP9XLGH214UAIG9QWIMVHEX","A2FYFCD16Z3PCC","3VAOOVPI3ZEZMZXPLZ7IWDDZ15LLLX","","null","<img src=""img/flower4.png"" style=""width:200px; border:14px solid green;"">","null","","","","","","","","",""
"","image-keyboard-response","128","101972","0.0-128.0","3K772S5NP9XLGH214UAIG9QWIMVHEX","A2FYFCD16Z3PCC","3VAOOVPI3ZEZMZXPLZ7IWDDZ15LLLX","","138","img/flower5.png","75","138","2","0","1","1","1,0.333,0.333,0.333,1,0.333,0.333,0.333,1","1,0.333,0.333,0.333,1,0.333,0.333,0.333,1","1",""
"","html-keyboard-response","129","102273","0.0-129.0","3K772S5NP9XLGH214UAIG9QWIMVHEX","A2FYFCD16Z3PCC","3VAOOVPI3ZEZMZXPLZ7IWDDZ15LLLX","","null","<img src=""img/flower5.png"" style=""width:200px;border:14px solid red;"">","null","","","","","","","","",""
"","image-keyboard-response","130","102580","0.0-130.0","3K772S5NP9XLGH214UAIG9QWIMVHEX","A2FYFCD16Z3PCC","3VAOOVPI3ZEZMZXPLZ7IWDDZ15LLLX","","307","img/flower5.png","74","307","1","1","1","1","1,0.333,0.333,0.333,1,0.333,0.333,0.333,1","1,0.333,0.333,0.333,1,0.333,0.333,0.333,1","1",""
"","html-keyboard-response","131","102882","0.0-131.0","3K772S5NP9XLGH214UAIG9QWIMVHEX","A2FYFCD16Z3PCC","3VAOOVPI3ZEZMZXPLZ7IWDDZ15LLLX","","null","<img src=""img/flower5.png"" style=""width:200px; border:14px solid green;"">","null","","","","","","","","",""
"","image-keyboard-response","132","103492","0.0-132.0","3K772S5NP9XLGH214UAIG9QWIMVHEX","A2FYFCD16Z3PCC","3VAOOVPI3ZEZMZXPLZ7IWDDZ15LLLX","","610","img/flower4.png","75","610","2","0","3","1","1,0.333,0.333,0.333,1,0.333,0.333,0.333,1","1,0.333,0.333,0.333,1,0.333,0.333,0.333,1","1",""
"","html-keyboard-response","133","103794","0.0-133.0","3K772S5NP9XLGH214UAIG9QWIMVHEX","A2FYFCD16Z3PCC","3VAOOVPI3ZEZMZXPLZ7IWDDZ15LLLX","","null","<img src=""img/flower4.png"" style=""width:200px;border:14px solid red;"">","null","","","","","","","","",""
"","image-keyboard-response","134","103940","0.0-134.0","3K772S5NP9XLGH214UAIG9QWIMVHEX","A2FYFCD16Z3PCC","3VAOOVPI3ZEZMZXPLZ7IWDDZ15LLLX","","147","img/flower4.png","76","147","3","1","3","1","1,0.333,0.333,0.333,1,0.333,0.333,0.333,1","1,0.333,0.333,0.333,1,0.333,0.333,0.333,1","1",""
"","html-keyboard-response","135","104248","0.0-135.0","3K772S5NP9XLGH214UAIG9QWIMVHEX","A2FYFCD16Z3PCC","3VAOOVPI3ZEZMZXPLZ7IWDDZ15LLLX","","null","<img src=""img/flower4.png"" style=""width:200px; border:14px solid green;"">","null","","","","","","","","",""
"","image-keyboard-response","136","104508","0.0-136.0","3K772S5NP9XLGH214UAIG9QWIMVHEX","A2FYFCD16Z3PCC","3VAOOVPI3ZEZMZXPLZ7IWDDZ15LLLX","","260","img/flower4.png","76","261","3","1","3","1","1,0.333,0.333,0.333,1,0.333,0.333,0.333,1","1,0.333,0.333,0.333,1,0.333,0.333,0.333,1","1",""
"","html-keyboard-response","137","104810","0.0-137.0","3K772S5NP9XLGH214UAIG9QWIMVHEX","A2FYFCD16Z3PCC","3VAOOVPI3ZEZMZXPLZ7IWDDZ15LLLX","","null","<img src=""img/flower4.png"" style=""width:200px; border:14px solid green;"">","null","","","","","","","","",""
"","image-keyboard-response","138","104980","0.0-138.0","3K772S5NP9XLGH214UAIG9QWIMVHEX","A2FYFCD16Z3PCC","3VAOOVPI3ZEZMZXPLZ7IWDDZ15LLLX","","170","img/flower5.png","76","171","3","1","1","1","1,0.333,0.333,0.333,1,0.333,0.333,0.333,1","1,0.333,0.333,0.333,1,0.333,0.333,0.333,1","1",""
"","html-keyboard-response","139","105283","0.0-139.0","3K772S5NP9XLGH214UAIG9QWIMVHEX","A2FYFCD16Z3PCC","3VAOOVPI3ZEZMZXPLZ7IWDDZ15LLLX","","null","<img src=""img/flower5.png"" style=""width:200px; border:14px solid green;"">","null","","","","","","","","",""
"","image-keyboard-response","140","105565","0.0-140.0","3K772S5NP9XLGH214UAIG9QWIMVHEX","A2FYFCD16Z3PCC","3VAOOVPI3ZEZMZXPLZ7IWDDZ15LLLX","","281","img/flower5.png","74","281","1","1","1","1","1,0.333,0.333,0.333,1,0.333,0.333,0.333,1","1,0.333,0.333,0.333,1,0.333,0.333,0.333,1","1",""
"","html-keyboard-response","141","105867","0.0-141.0","3K772S5NP9XLGH214UAIG9QWIMVHEX","A2FYFCD16Z3PCC","3VAOOVPI3ZEZMZXPLZ7IWDDZ15LLLX","","null","<img src=""img/flower5.png"" style=""width:200px; border:14px solid green;"">","null","","","","","","","","",""
"","image-keyboard-response","142","106356","0.0-142.0","3K772S5NP9XLGH214UAIG9QWIMVHEX","A2FYFCD16Z3PCC","3VAOOVPI3ZEZMZXPLZ7IWDDZ15LLLX","","489","img/flower4.png","76","489","3","1","3","1","1,0.333,0.333,0.333,1,0.333,0.333,0.333,1","1,0.333,0.333,0.333,1,0.333,0.333,0.333,1","1",""
"","html-keyboard-response","143","106658","0.0-143.0","3K772S5NP9XLGH214UAIG9QWIMVHEX","A2FYFCD16Z3PCC","3VAOOVPI3ZEZMZXPLZ7IWDDZ15LLLX","","null","<img src=""img/flower4.png"" style=""width:200px; border:14px solid green;"">","null","","","","","","","","",""
"","image-keyboard-response","144","107212","0.0-144.0","3K772S5NP9XLGH214UAIG9QWIMVHEX","A2FYFCD16Z3PCC","3VAOOVPI3ZEZMZXPLZ7IWDDZ15LLLX","","553","img/flower6.png","75","554","2","1","2","1","1,0.333,0.333,0.333,1,0.333,0.333,0.333,1","1,0.333,0.333,0.333,1,0.333,0.333,0.333,1","1",""
"","html-keyboard-response","145","107513","0.0-145.0","3K772S5NP9XLGH214UAIG9QWIMVHEX","A2FYFCD16Z3PCC","3VAOOVPI3ZEZMZXPLZ7IWDDZ15LLLX","","null","<img src=""img/flower6.png"" style=""width:200px; border:14px solid green;"">","null","","","","","","","","",""
"","image-keyboard-response","146","108124","0.0-146.0","3K772S5NP9XLGH214UAIG9QWIMVHEX","A2FYFCD16Z3PCC","3VAOOVPI3ZEZMZXPLZ7IWDDZ15LLLX","","611","img/flower4.png","74","611","1","1","3","1","1,0.333,0.333,0.333,1,0.333,0.333,0.333,1","1,0.333,0.333,0.333,1,0.333,0.333,0.333,1","1",""
"","html-keyboard-response","147","108425","0.0-147.0","3K772S5NP9XLGH214UAIG9QWIMVHEX","A2FYFCD16Z3PCC","3VAOOVPI3ZEZMZXPLZ7IWDDZ15LLLX","","null","<img src=""img/flower4.png"" style=""width:200px; border:14px solid green;"">","null","","","","","","","","",""
"","image-keyboard-response","148","109052","0.0-148.0","3K772S5NP9XLGH214UAIG9QWIMVHEX","A2FYFCD16Z3PCC","3VAOOVPI3ZEZMZXPLZ7IWDDZ15LLLX","","625","img/flower4.png","76","627","3","1","3","1","1,0.333,0.333,0.333,1,0.333,0.333,0.333,1","1,0.333,0.333,0.333,1,0.333,0.333,0.333,1","1",""
"","html-keyboard-response","149","109354","0.0-149.0","3K772S5NP9XLGH214UAIG9QWIMVHEX","A2FYFCD16Z3PCC","3VAOOVPI3ZEZMZXPLZ7IWDDZ15LLLX","","null","<img src=""img/flower4.png"" style=""width:200px; border:14px solid green;"">","null","","","","","","","","",""
"","image-keyboard-response","150","110428","0.0-150.0","3K772S5NP9XLGH214UAIG9QWIMVHEX","A2FYFCD16Z3PCC","3VAOOVPI3ZEZMZXPLZ7IWDDZ15LLLX","","1075","img/flower6.png","76","1075","3","0","2","1","1,0.333,0.333,0.333,1,0.333,0.333,0.333,1","1,0.333,0.333,0.333,1,0.333,0.333,0.333,1","1",""
"","html-keyboard-response","151","110730","0.0-151.0","3K772S5NP9XLGH214UAIG9QWIMVHEX","A2FYFCD16Z3PCC","3VAOOVPI3ZEZMZXPLZ7IWDDZ15LLLX","","null","<img src=""img/flower6.png"" style=""width:200px;border:14px solid red;"">","null","","","","","","","","",""
"","image-keyboard-response","152","111253","0.0-152.0","3K772S5NP9XLGH214UAIG9QWIMVHEX","A2FYFCD16Z3PCC","3VAOOVPI3ZEZMZXPLZ7IWDDZ15LLLX","","522","img/flower5.png","74","524","1","1","1","1","1,0.333,0.333,0.333,1,0.333,0.333,0.333,1","1,0.333,0.333,0.333,1,0.333,0.333,0.333,1","1",""
"","html-keyboard-response","153","111554","0.0-153.0","3K772S5NP9XLGH214UAIG9QWIMVHEX","A2FYFCD16Z3PCC","3VAOOVPI3ZEZMZXPLZ7IWDDZ15LLLX","","null","<img src=""img/flower5.png"" style=""width:200px; border:14px solid green;"">","null","","","","","","","","",""
"","image-keyboard-response","154","112011","0.0-154.0","3K772S5NP9XLGH214UAIG9QWIMVHEX","A2FYFCD16Z3PCC","3VAOOVPI3ZEZMZXPLZ7IWDDZ15LLLX","","457","img/flower5.png","74","457","1","1","1","1","1,0.333,0.333,0.333,1,0.333,0.333,0.333,1","1,0.333,0.333,0.333,1,0.333,0.333,0.333,1","1",""
"","html-keyboard-response","155","112312","0.0-155.0","3K772S5NP9XLGH214UAIG9QWIMVHEX","A2FYFCD16Z3PCC","3VAOOVPI3ZEZMZXPLZ7IWDDZ15LLLX","","null","<img src=""img/flower5.png"" style=""width:200px; border:14px solid green;"">","null","","","","","","","","",""
"","image-keyboard-response","156","112853","0.0-156.0","3K772S5NP9XLGH214UAIG9QWIMVHEX","A2FYFCD16Z3PCC","3VAOOVPI3ZEZMZXPLZ7IWDDZ15LLLX","","540","img/flower6.png","76","540","3","1","2","1","1,0.333,0.333,0.333,1,0.333,0.333,0.333,1","1,0.333,0.333,0.333,1,0.333,0.333,0.333,1","1",""
"","html-keyboard-response","157","113155","0.0-157.0","3K772S5NP9XLGH214UAIG9QWIMVHEX","A2FYFCD16Z3PCC","3VAOOVPI3ZEZMZXPLZ7IWDDZ15LLLX","","null","<img src=""img/flower6.png"" style=""width:200px; border:14px solid green;"">","null","","","","","","","","",""
"","image-keyboard-response","158","113820","0.0-158.0","3K772S5NP9XLGH214UAIG9QWIMVHEX","A2FYFCD16Z3PCC","3VAOOVPI3ZEZMZXPLZ7IWDDZ15LLLX","","666","img/flower5.png","74","666","1","1","1","1","1,0.333,0.333,0.333,1,0.333,0.333,0.333,1","1,0.333,0.333,0.333,1,0.333,0.333,0.333,1","1",""
"","html-keyboard-response","159","114122","0.0-159.0","3K772S5NP9XLGH214UAIG9QWIMVHEX","A2FYFCD16Z3PCC","3VAOOVPI3ZEZMZXPLZ7IWDDZ15LLLX","","null","<img src=""img/flower5.png"" style=""width:200px; border:14px solid green;"">","null","","","","","","","","",""
"","image-keyboard-response","160","114644","0.0-160.0","3K772S5NP9XLGH214UAIG9QWIMVHEX","A2FYFCD16Z3PCC","3VAOOVPI3ZEZMZXPLZ7IWDDZ15LLLX","","522","img/flower4.png","75","523","2","0","3","1","1,0.333,0.333,0.333,1,0.333,0.333,0.333,1","1,0.333,0.333,0.333,1,0.333,0.333,0.333,1","1",""
"","html-keyboard-response","161","114946","0.0-161.0","3K772S5NP9XLGH214UAIG9QWIMVHEX","A2FYFCD16Z3PCC","3VAOOVPI3ZEZMZXPLZ7IWDDZ15LLLX","","null","<img src=""img/flower4.png"" style=""width:200px;border:14px solid red;"">","null","","","","","","","","",""
"","image-keyboard-response","162","115581","0.0-162.0","3K772S5NP9XLGH214UAIG9QWIMVHEX","A2FYFCD16Z3PCC","3VAOOVPI3ZEZMZXPLZ7IWDDZ15LLLX","","634","img/flower5.png","76","634","3","0","1","1","1,0.333,0.333,0.333,1,0.333,0.333,0.333,1","1,0.333,0.333,0.333,1,0.333,0.333,0.333,1","1",""
"","html-keyboard-response","163","115888","0.0-163.0","3K772S5NP9XLGH214UAIG9QWIMVHEX","A2FYFCD16Z3PCC","3VAOOVPI3ZEZMZXPLZ7IWDDZ15LLLX","","null","<img src=""img/flower5.png"" style=""width:200px;border:14px solid red;"">","null","","","","","","","","",""
"","image-keyboard-response","164","116604","0.0-164.0","3K772S5NP9XLGH214UAIG9QWIMVHEX","A2FYFCD16Z3PCC","3VAOOVPI3ZEZMZXPLZ7IWDDZ15LLLX","","716","img/flower6.png","76","716","3","1","2","1","1,0.333,0.333,0.333,1,0.333,0.333,0.333,1","1,0.333,0.333,0.333,1,0.333,0.333,0.333,1","1",""
"","html-keyboard-response","165","116906","0.0-165.0","3K772S5NP9XLGH214UAIG9QWIMVHEX","A2FYFCD16Z3PCC","3VAOOVPI3ZEZMZXPLZ7IWDDZ15LLLX","","null","<img src=""img/flower6.png"" style=""width:200px; border:14px solid green;"">","null","","","","","","","","",""
"","image-keyboard-response","166","117212","0.0-166.0","3K772S5NP9XLGH214UAIG9QWIMVHEX","A2FYFCD16Z3PCC","3VAOOVPI3ZEZMZXPLZ7IWDDZ15LLLX","","306","img/flower6.png","76","306","3","1","2","1","1,0.333,0.333,0.333,1,0.333,0.333,0.333,1","1,0.333,0.333,0.333,1,0.333,0.333,0.333,1","1",""
"","html-keyboard-response","167","117514","0.0-167.0","3K772S5NP9XLGH214UAIG9QWIMVHEX","A2FYFCD16Z3PCC","3VAOOVPI3ZEZMZXPLZ7IWDDZ15LLLX","","null","<img src=""img/flower6.png"" style=""width:200px; border:14px solid green;"">","null","","","","","","","","",""
"","image-keyboard-response","168","117708","0.0-168.0","3K772S5NP9XLGH214UAIG9QWIMVHEX","A2FYFCD16Z3PCC","3VAOOVPI3ZEZMZXPLZ7IWDDZ15LLLX","","194","img/flower6.png","76","195","3","1","2","1","1,0.333,0.333,0.333,1,0.333,0.333,0.333,1","1,0.333,0.333,0.333,1,0.333,0.333,0.333,1","1",""
"","html-keyboard-response","169","118010","0.0-169.0","3K772S5NP9XLGH214UAIG9QWIMVHEX","A2FYFCD16Z3PCC","3VAOOVPI3ZEZMZXPLZ7IWDDZ15LLLX","","null","<img src=""img/flower6.png"" style=""width:200px; border:14px solid green;"">","null","","","","","","","","",""
"","image-keyboard-response","170","118524","0.0-170.0","3K772S5NP9XLGH214UAIG9QWIMVHEX","A2FYFCD16Z3PCC","3VAOOVPI3ZEZMZXPLZ7IWDDZ15LLLX","","515","img/flower5.png","74","515","1","1","1","1","1,0.333,0.333,0.333,1,0.333,0.333,0.333,1","1,0.333,0.333,0.333,1,0.333,0.333,0.333,1","1",""
"","html-keyboard-response","171","118826","0.0-171.0","3K772S5NP9XLGH214UAIG9QWIMVHEX","A2FYFCD16Z3PCC","3VAOOVPI3ZEZMZXPLZ7IWDDZ15LLLX","","null","<img src=""img/flower5.png"" style=""width:200px; border:14px solid green;"">","null","","","","","","","","",""
"","image-keyboard-response","172","119164","0.0-172.0","3K772S5NP9XLGH214UAIG9QWIMVHEX","A2FYFCD16Z3PCC","3VAOOVPI3ZEZMZXPLZ7IWDDZ15LLLX","","339","img/flower5.png","74","339","1","1","1","1","1,0.333,0.333,0.333,1,0.333,0.333,0.333,1","1,0.333,0.333,0.333,1,0.333,0.333,0.333,1","1",""
"","html-keyboard-response","173","119466","0.0-173.0","3K772S5NP9XLGH214UAIG9QWIMVHEX","A2FYFCD16Z3PCC","3VAOOVPI3ZEZMZXPLZ7IWDDZ15LLLX","","null","<img src=""img/flower5.png"" style=""width:200px; border:14px solid green;"">","null","","","","","","","","",""
"","image-keyboard-response","174","119972","0.0-174.0","3K772S5NP9XLGH214UAIG9QWIMVHEX","A2FYFCD16Z3PCC","3VAOOVPI3ZEZMZXPLZ7IWDDZ15LLLX","","507","img/flower4.png","75","507","2","1","3","1","1,0.333,0.333,0.333,1,0.333,0.333,0.333,1","1,0.333,0.333,0.333,1,0.333,0.333,0.333,1","1",""
"","html-keyboard-response","175","120275","0.0-175.0","3K772S5NP9XLGH214UAIG9QWIMVHEX","A2FYFCD16Z3PCC","3VAOOVPI3ZEZMZXPLZ7IWDDZ15LLLX","","null","<img src=""img/flower4.png"" style=""width:200px; border:14px solid green;"">","null","","","","","","","","",""
"","image-keyboard-response","176","120781","0.0-176.0","3K772S5NP9XLGH214UAIG9QWIMVHEX","A2FYFCD16Z3PCC","3VAOOVPI3ZEZMZXPLZ7IWDDZ15LLLX","","505","img/flower5.png","76","505","3","0","1","1","1,0.333,0.333,0.333,1,0.333,0.333,0.333,1","1,0.333,0.333,0.333,1,0.333,0.333,0.333,1","1",""
"","html-keyboard-response","177","121082","0.0-177.0","3K772S5NP9XLGH214UAIG9QWIMVHEX","A2FYFCD16Z3PCC","3VAOOVPI3ZEZMZXPLZ7IWDDZ15LLLX","","null","<img src=""img/flower5.png"" style=""width:200px;border:14px solid red;"">","null","","","","","","","","",""
"","image-keyboard-response","178","121148","0.0-178.0","3K772S5NP9XLGH214UAIG9QWIMVHEX","A2FYFCD16Z3PCC","3VAOOVPI3ZEZMZXPLZ7IWDDZ15LLLX","","66","img/flower6.png","74","66","1","1","2","1","1,0.333,0.333,0.333,1,0.333,0.333,0.333,1","1,0.333,0.333,0.333,1,0.333,0.333,0.333,1","1",""
"","html-keyboard-response","179","121450","0.0-179.0","3K772S5NP9XLGH214UAIG9QWIMVHEX","A2FYFCD16Z3PCC","3VAOOVPI3ZEZMZXPLZ7IWDDZ15LLLX","","null","<img src=""img/flower6.png"" style=""width:200px; border:14px solid green;"">","null","","","","","","","","",""
"","image-keyboard-response","180","122028","0.0-180.0","3K772S5NP9XLGH214UAIG9QWIMVHEX","A2FYFCD16Z3PCC","3VAOOVPI3ZEZMZXPLZ7IWDDZ15LLLX","","579","img/flower6.png","76","579","3","0","2","1","1,0.333,0.333,0.333,1,0.333,0.333,0.333,1","1,0.333,0.333,0.333,1,0.333,0.333,0.333,1","1",""
"","html-keyboard-response","181","122330","0.0-181.0","3K772S5NP9XLGH214UAIG9QWIMVHEX","A2FYFCD16Z3PCC","3VAOOVPI3ZEZMZXPLZ7IWDDZ15LLLX","","null","<img src=""img/flower6.png"" style=""width:200px;border:14px solid red;"">","null","","","","","","","","",""
"","html-keyboard-response","182","124394","0.0-182.0","3K772S5NP9XLGH214UAIG9QWIMVHEX","A2FYFCD16Z3PCC","3VAOOVPI3ZEZMZXPLZ7IWDDZ15LLLX","","","","","","","","","","","","",""
"","image-keyboard-response","183","125101","0.0-183.0","3K772S5NP9XLGH214UAIG9QWIMVHEX","A2FYFCD16Z3PCC","3VAOOVPI3ZEZMZXPLZ7IWDDZ15LLLX","","706","img/flower3.png","74","707","1","1","1","2","1,0,0,1,1,0,1,0,1","1,0,0,1,1,0,1,0,1","1",""
"","html-keyboard-response","184","125402","0.0-184.0","3K772S5NP9XLGH214UAIG9QWIMVHEX","A2FYFCD16Z3PCC","3VAOOVPI3ZEZMZXPLZ7IWDDZ15LLLX","","null","<img src=""img/flower3.png"" style=""width:200px; border:14px solid green;"">","null","","","","","","","","",""
"","image-keyboard-response","185","125709","0.0-185.0","3K772S5NP9XLGH214UAIG9QWIMVHEX","A2FYFCD16Z3PCC","3VAOOVPI3ZEZMZXPLZ7IWDDZ15LLLX","","307","img/flower2.png","74","307","1","1","2","2","1,0,0,1,1,0,1,0,1","1,0,0,1,1,0,1,0,1","1",""
"","html-keyboard-response","186","126011","0.0-186.0","3K772S5NP9XLGH214UAIG9QWIMVHEX","A2FYFCD16Z3PCC","3VAOOVPI3ZEZMZXPLZ7IWDDZ15LLLX","","null","<img src=""img/flower2.png"" style=""width:200px; border:14px solid green;"">","null","","","","","","","","",""
"","image-keyboard-response","187","126077","0.0-187.0","3K772S5NP9XLGH214UAIG9QWIMVHEX","A2FYFCD16Z3PCC","3VAOOVPI3ZEZMZXPLZ7IWDDZ15LLLX","","65","img/flower3.png","74","66","1","1","1","2","1,0,0,1,1,0,1,0,1","1,0,0,1,1,0,1,0,1","1",""
"","html-keyboard-response","188","126378","0.0-188.0","3K772S5NP9XLGH214UAIG9QWIMVHEX","A2FYFCD16Z3PCC","3VAOOVPI3ZEZMZXPLZ7IWDDZ15LLLX","","null","<img src=""img/flower3.png"" style=""width:200px; border:14px solid green;"">","null","","","","","","","","",""
"","image-keyboard-response","189","126453","0.0-189.0","3K772S5NP9XLGH214UAIG9QWIMVHEX","A2FYFCD16Z3PCC","3VAOOVPI3ZEZMZXPLZ7IWDDZ15LLLX","","74","img/flower1.png","74","75","1","1","3","2","1,0,0,1,1,0,1,0,1","1,0,0,1,1,0,1,0,1","1",""
"","html-keyboard-response","190","126754","0.0-190.0","3K772S5NP9XLGH214UAIG9QWIMVHEX","A2FYFCD16Z3PCC","3VAOOVPI3ZEZMZXPLZ7IWDDZ15LLLX","","null","<img src=""img/flower1.png"" style=""width:200px; border:14px solid green;"">","null","","","","","","","","",""
"","image-keyboard-response","191","126773","0.0-191.0","3K772S5NP9XLGH214UAIG9QWIMVHEX","A2FYFCD16Z3PCC","3VAOOVPI3ZEZMZXPLZ7IWDDZ15LLLX","","18","img/flower1.png","74","18","1","1","3","2","1,0,0,1,1,0,1,0,1","1,0,0,1,1,0,1,0,1","1",""
"","html-keyboard-response","192","127074","0.0-192.0","3K772S5NP9XLGH214UAIG9QWIMVHEX","A2FYFCD16Z3PCC","3VAOOVPI3ZEZMZXPLZ7IWDDZ15LLLX","","null","<img src=""img/flower1.png"" style=""width:200px; border:14px solid green;"">","null","","","","","","","","",""
"","image-keyboard-response","193","127093","0.0-193.0","3K772S5NP9XLGH214UAIG9QWIMVHEX","A2FYFCD16Z3PCC","3VAOOVPI3ZEZMZXPLZ7IWDDZ15LLLX","","19","img/flower3.png","74","19","1","1","1","2","1,0,0,1,1,0,1,0,1","1,0,0,1,1,0,1,0,1","1",""
"","html-keyboard-response","194","127394","0.0-194.0","3K772S5NP9XLGH214UAIG9QWIMVHEX","A2FYFCD16Z3PCC","3VAOOVPI3ZEZMZXPLZ7IWDDZ15LLLX","","null","<img src=""img/flower3.png"" style=""width:200px; border:14px solid green;"">","null","","","","","","","","",""
"","image-keyboard-response","195","127477","0.0-195.0","3K772S5NP9XLGH214UAIG9QWIMVHEX","A2FYFCD16Z3PCC","3VAOOVPI3ZEZMZXPLZ7IWDDZ15LLLX","","82","img/flower3.png","74","82","1","1","1","2","1,0,0,1,1,0,1,0,1","1,0,0,1,1,0,1,0,1","1",""
"","html-keyboard-response","196","127778","0.0-196.0","3K772S5NP9XLGH214UAIG9QWIMVHEX","A2FYFCD16Z3PCC","3VAOOVPI3ZEZMZXPLZ7IWDDZ15LLLX","","null","<img src=""img/flower3.png"" style=""width:200px; border:14px solid green;"">","null","","","","","","","","",""
"","image-keyboard-response","197","127837","0.0-197.0","3K772S5NP9XLGH214UAIG9QWIMVHEX","A2FYFCD16Z3PCC","3VAOOVPI3ZEZMZXPLZ7IWDDZ15LLLX","","58","img/flower2.png","74","58","1","1","2","2","1,0,0,1,1,0,1,0,1","1,0,0,1,1,0,1,0,1","1",""
"","html-keyboard-response","198","128138","0.0-198.0","3K772S5NP9XLGH214UAIG9QWIMVHEX","A2FYFCD16Z3PCC","3VAOOVPI3ZEZMZXPLZ7IWDDZ15LLLX","","null","<img src=""img/flower2.png"" style=""width:200px; border:14px solid green;"">","null","","","","","","","","",""
"","image-keyboard-response","199","128197","0.0-199.0","3K772S5NP9XLGH214UAIG9QWIMVHEX","A2FYFCD16Z3PCC","3VAOOVPI3ZEZMZXPLZ7IWDDZ15LLLX","","58","img/flower2.png","74","58","1","1","2","2","1,0,0,1,1,0,1,0,1","1,0,0,1,1,0,1,0,1","1",""
"","html-keyboard-response","200","128498","0.0-200.0","3K772S5NP9XLGH214UAIG9QWIMVHEX","A2FYFCD16Z3PCC","3VAOOVPI3ZEZMZXPLZ7IWDDZ15LLLX","","null","<img src=""img/flower2.png"" style=""width:200px; border:14px solid green;"">","null","","","","","","","","",""
"","image-keyboard-response","201","128549","0.0-201.0","3K772S5NP9XLGH214UAIG9QWIMVHEX","A2FYFCD16Z3PCC","3VAOOVPI3ZEZMZXPLZ7IWDDZ15LLLX","","50","img/flower1.png","74","50","1","1","3","2","1,0,0,1,1,0,1,0,1","1,0,0,1,1,0,1,0,1","1",""
"","html-keyboard-response","202","128850","0.0-202.0","3K772S5NP9XLGH214UAIG9QWIMVHEX","A2FYFCD16Z3PCC","3VAOOVPI3ZEZMZXPLZ7IWDDZ15LLLX","","null","<img src=""img/flower1.png"" style=""width:200px; border:14px solid green;"">","null","","","","","","","","",""
"","image-keyboard-response","203","128909","0.0-203.0","3K772S5NP9XLGH214UAIG9QWIMVHEX","A2FYFCD16Z3PCC","3VAOOVPI3ZEZMZXPLZ7IWDDZ15LLLX","","58","img/flower3.png","74","58","1","1","1","2","1,0,0,1,1,0,1,0,1","1,0,0,1,1,0,1,0,1","1",""
"","html-keyboard-response","204","129210","0.0-204.0","3K772S5NP9XLGH214UAIG9QWIMVHEX","A2FYFCD16Z3PCC","3VAOOVPI3ZEZMZXPLZ7IWDDZ15LLLX","","null","<img src=""img/flower3.png"" style=""width:200px; border:14px solid green;"">","null","","","","","","","","",""
"","image-keyboard-response","205","129245","0.0-205.0","3K772S5NP9XLGH214UAIG9QWIMVHEX","A2FYFCD16Z3PCC","3VAOOVPI3ZEZMZXPLZ7IWDDZ15LLLX","","34","img/flower2.png","74","35","1","1","2","2","1,0,0,1,1,0,1,0,1","1,0,0,1,1,0,1,0,1","1",""
"","html-keyboard-response","206","129547","0.0-206.0","3K772S5NP9XLGH214UAIG9QWIMVHEX","A2FYFCD16Z3PCC","3VAOOVPI3ZEZMZXPLZ7IWDDZ15LLLX","","null","<img src=""img/flower2.png"" style=""width:200px; border:14px solid green;"">","null","","","","","","","","",""
"","image-keyboard-response","207","129581","0.0-207.0","3K772S5NP9XLGH214UAIG9QWIMVHEX","A2FYFCD16Z3PCC","3VAOOVPI3ZEZMZXPLZ7IWDDZ15LLLX","","32","img/flower3.png","74","33","1","1","1","2","1,0,0,1,1,0,1,0,1","1,0,0,1,1,0,1,0,1","1",""
"","html-keyboard-response","208","129882","0.0-208.0","3K772S5NP9XLGH214UAIG9QWIMVHEX","A2FYFCD16Z3PCC","3VAOOVPI3ZEZMZXPLZ7IWDDZ15LLLX","","null","<img src=""img/flower3.png"" style=""width:200px; border:14px solid green;"">","null","","","","","","","","",""
"","image-keyboard-response","209","129909","0.0-209.0","3K772S5NP9XLGH214UAIG9QWIMVHEX","A2FYFCD16Z3PCC","3VAOOVPI3ZEZMZXPLZ7IWDDZ15LLLX","","27","img/flower1.png","74","27","1","1","3","2","1,0,0,1,1,0,1,0,1","1,0,0,1,1,0,1,0,1","1",""
"","html-keyboard-response","210","130210","0.0-210.0","3K772S5NP9XLGH214UAIG9QWIMVHEX","A2FYFCD16Z3PCC","3VAOOVPI3ZEZMZXPLZ7IWDDZ15LLLX","","null","<img src=""img/flower1.png"" style=""width:200px; border:14px solid green;"">","null","","","","","","","","",""
"","image-keyboard-response","211","130285","0.0-211.0","3K772S5NP9XLGH214UAIG9QWIMVHEX","A2FYFCD16Z3PCC","3VAOOVPI3ZEZMZXPLZ7IWDDZ15LLLX","","74","img/flower3.png","74","74","1","1","1","2","1,0,0,1,1,0,1,0,1","1,0,0,1,1,0,1,0,1","1",""
"","html-keyboard-response","212","130587","0.0-212.0","3K772S5NP9XLGH214UAIG9QWIMVHEX","A2FYFCD16Z3PCC","3VAOOVPI3ZEZMZXPLZ7IWDDZ15LLLX","","null","<img src=""img/flower3.png"" style=""width:200px; border:14px solid green;"">","null","","","","","","","","",""
"","image-keyboard-response","213","130637","0.0-213.0","3K772S5NP9XLGH214UAIG9QWIMVHEX","A2FYFCD16Z3PCC","3VAOOVPI3ZEZMZXPLZ7IWDDZ15LLLX","","49","img/flower3.png","74","50","1","1","1","2","1,0,0,1,1,0,1,0,1","1,0,0,1,1,0,1,0,1","1",""
"","html-keyboard-response","214","130951","0.0-214.0","3K772S5NP9XLGH214UAIG9QWIMVHEX","A2FYFCD16Z3PCC","3VAOOVPI3ZEZMZXPLZ7IWDDZ15LLLX","","null","<img src=""img/flower3.png"" style=""width:200px; border:14px solid green;"">","null","","","","","","","","",""
"","image-keyboard-response","215","131005","0.0-215.0","3K772S5NP9XLGH214UAIG9QWIMVHEX","A2FYFCD16Z3PCC","3VAOOVPI3ZEZMZXPLZ7IWDDZ15LLLX","","53","img/flower3.png","74","54","1","1","1","2","1,0,0,1,1,0,1,0,1","1,0,0,1,1,0,1,0,1","1",""
"","html-keyboard-response","216","131306","0.0-216.0","3K772S5NP9XLGH214UAIG9QWIMVHEX","A2FYFCD16Z3PCC","3VAOOVPI3ZEZMZXPLZ7IWDDZ15LLLX","","null","<img src=""img/flower3.png"" style=""width:200px; border:14px solid green;"">","null","","","","","","","","",""
"","image-keyboard-response","217","131348","0.0-217.0","3K772S5NP9XLGH214UAIG9QWIMVHEX","A2FYFCD16Z3PCC","3VAOOVPI3ZEZMZXPLZ7IWDDZ15LLLX","","43","img/flower2.png","74","43","1","1","2","2","1,0,0,1,1,0,1,0,1","1,0,0,1,1,0,1,0,1","1",""
"","html-keyboard-response","218","131650","0.0-218.0","3K772S5NP9XLGH214UAIG9QWIMVHEX","A2FYFCD16Z3PCC","3VAOOVPI3ZEZMZXPLZ7IWDDZ15LLLX","","null","<img src=""img/flower2.png"" style=""width:200px; border:14px solid green;"">","null","","","","","","","","",""
"","image-keyboard-response","219","131701","0.0-219.0","3K772S5NP9XLGH214UAIG9QWIMVHEX","A2FYFCD16Z3PCC","3VAOOVPI3ZEZMZXPLZ7IWDDZ15LLLX","","51","img/flower1.png","74","51","1","1","3","2","1,0,0,1,1,0,1,0,1","1,0,0,1,1,0,1,0,1","1",""
"","html-keyboard-response","220","132002","0.0-220.0","3K772S5NP9XLGH214UAIG9QWIMVHEX","A2FYFCD16Z3PCC","3VAOOVPI3ZEZMZXPLZ7IWDDZ15LLLX","","null","<img src=""img/flower1.png"" style=""width:200px; border:14px solid green;"">","null","","","","","","","","",""
"","image-keyboard-response","221","132053","0.0-221.0","3K772S5NP9XLGH214UAIG9QWIMVHEX","A2FYFCD16Z3PCC","3VAOOVPI3ZEZMZXPLZ7IWDDZ15LLLX","","51","img/flower2.png","74","51","1","1","2","2","1,0,0,1,1,0,1,0,1","1,0,0,1,1,0,1,0,1","1",""
"","html-keyboard-response","222","132353","0.0-222.0","3K772S5NP9XLGH214UAIG9QWIMVHEX","A2FYFCD16Z3PCC","3VAOOVPI3ZEZMZXPLZ7IWDDZ15LLLX","","null","<img src=""img/flower2.png"" style=""width:200px; border:14px solid green;"">","null","","","","","","","","",""
"","image-keyboard-response","223","132413","0.0-223.0","3K772S5NP9XLGH214UAIG9QWIMVHEX","A2FYFCD16Z3PCC","3VAOOVPI3ZEZMZXPLZ7IWDDZ15LLLX","","59","img/flower3.png","74","59","1","1","1","2","1,0,0,1,1,0,1,0,1","1,0,0,1,1,0,1,0,1","1",""
"","html-keyboard-response","224","132714","0.0-224.0","3K772S5NP9XLGH214UAIG9QWIMVHEX","A2FYFCD16Z3PCC","3VAOOVPI3ZEZMZXPLZ7IWDDZ15LLLX","","null","<img src=""img/flower3.png"" style=""width:200px; border:14px solid green;"">","null","","","","","","","","",""
"","image-keyboard-response","225","132781","0.0-225.0","3K772S5NP9XLGH214UAIG9QWIMVHEX","A2FYFCD16Z3PCC","3VAOOVPI3ZEZMZXPLZ7IWDDZ15LLLX","","65","img/flower3.png","74","66","1","1","1","2","1,0,0,1,1,0,1,0,1","1,0,0,1,1,0,1,0,1","1",""
"","html-keyboard-response","226","133083","0.0-226.0","3K772S5NP9XLGH214UAIG9QWIMVHEX","A2FYFCD16Z3PCC","3VAOOVPI3ZEZMZXPLZ7IWDDZ15LLLX","","null","<img src=""img/flower3.png"" style=""width:200px; border:14px solid green;"">","null","","","","","","","","",""
"","image-keyboard-response","227","133133","0.0-227.0","3K772S5NP9XLGH214UAIG9QWIMVHEX","A2FYFCD16Z3PCC","3VAOOVPI3ZEZMZXPLZ7IWDDZ15LLLX","","49","img/flower1.png","74","50","1","1","3","2","1,0,0,1,1,0,1,0,1","1,0,0,1,1,0,1,0,1","1",""
"","html-keyboard-response","228","133433","0.0-228.0","3K772S5NP9XLGH214UAIG9QWIMVHEX","A2FYFCD16Z3PCC","3VAOOVPI3ZEZMZXPLZ7IWDDZ15LLLX","","null","<img src=""img/flower1.png"" style=""width:200px; border:14px solid green;"">","null","","","","","","","","",""
"","image-keyboard-response","229","133485","0.0-229.0","3K772S5NP9XLGH214UAIG9QWIMVHEX","A2FYFCD16Z3PCC","3VAOOVPI3ZEZMZXPLZ7IWDDZ15LLLX","","50","img/flower1.png","74","51","1","1","3","2","1,0,0,1,1,0,1,0,1","1,0,0,1,1,0,1,0,1","1",""
"","html-keyboard-response","230","133786","0.0-230.0","3K772S5NP9XLGH214UAIG9QWIMVHEX","A2FYFCD16Z3PCC","3VAOOVPI3ZEZMZXPLZ7IWDDZ15LLLX","","null","<img src=""img/flower1.png"" style=""width:200px; border:14px solid green;"">","null","","","","","","","","",""
"","image-keyboard-response","231","133836","0.0-231.0","3K772S5NP9XLGH214UAIG9QWIMVHEX","A2FYFCD16Z3PCC","3VAOOVPI3ZEZMZXPLZ7IWDDZ15LLLX","","51","img/flower2.png","74","51","1","1","2","2","1,0,0,1,1,0,1,0,1","1,0,0,1,1,0,1,0,1","1",""
"","html-keyboard-response","232","134138","0.0-232.0","3K772S5NP9XLGH214UAIG9QWIMVHEX","A2FYFCD16Z3PCC","3VAOOVPI3ZEZMZXPLZ7IWDDZ15LLLX","","null","<img src=""img/flower2.png"" style=""width:200px; border:14px solid green;"">","null","","","","","","","","",""
"","image-keyboard-response","233","134173","0.0-233.0","3K772S5NP9XLGH214UAIG9QWIMVHEX","A2FYFCD16Z3PCC","3VAOOVPI3ZEZMZXPLZ7IWDDZ15LLLX","","33","img/flower3.png","74","33","1","1","1","2","1,0,0,1,1,0,1,0,1","1,0,0,1,1,0,1,0,1","1",""
"","html-keyboard-response","234","134475","0.0-234.0","3K772S5NP9XLGH214UAIG9QWIMVHEX","A2FYFCD16Z3PCC","3VAOOVPI3ZEZMZXPLZ7IWDDZ15LLLX","","null","<img src=""img/flower3.png"" style=""width:200px; border:14px solid green;"">","null","","","","","","","","",""
"","image-keyboard-response","235","134533","0.0-235.0","3K772S5NP9XLGH214UAIG9QWIMVHEX","A2FYFCD16Z3PCC","3VAOOVPI3ZEZMZXPLZ7IWDDZ15LLLX","","57","img/flower3.png","74","58","1","1","1","2","1,0,0,1,1,0,1,0,1","1,0,0,1,1,0,1,0,1","1",""
"","html-keyboard-response","236","134834","0.0-236.0","3K772S5NP9XLGH214UAIG9QWIMVHEX","A2FYFCD16Z3PCC","3VAOOVPI3ZEZMZXPLZ7IWDDZ15LLLX","","null","<img src=""img/flower3.png"" style=""width:200px; border:14px solid green;"">","null","","","","","","","","",""
"","image-keyboard-response","237","134869","0.0-237.0","3K772S5NP9XLGH214UAIG9QWIMVHEX","A2FYFCD16Z3PCC","3VAOOVPI3ZEZMZXPLZ7IWDDZ15LLLX","","35","img/flower1.png","74","35","1","1","3","2","1,0,0,1,1,0,1,0,1","1,0,0,1,1,0,1,0,1","1",""
"","html-keyboard-response","238","135170","0.0-238.0","3K772S5NP9XLGH214UAIG9QWIMVHEX","A2FYFCD16Z3PCC","3VAOOVPI3ZEZMZXPLZ7IWDDZ15LLLX","","null","<img src=""img/flower1.png"" style=""width:200px; border:14px solid green;"">","null","","","","","","","","",""
"","image-keyboard-response","239","135229","0.0-239.0","3K772S5NP9XLGH214UAIG9QWIMVHEX","A2FYFCD16Z3PCC","3VAOOVPI3ZEZMZXPLZ7IWDDZ15LLLX","","59","img/flower1.png","74","59","1","1","3","2","1,0,0,1,1,0,1,0,1","1,0,0,1,1,0,1,0,1","1",""
"","html-keyboard-response","240","135530","0.0-240.0","3K772S5NP9XLGH214UAIG9QWIMVHEX","A2FYFCD16Z3PCC","3VAOOVPI3ZEZMZXPLZ7IWDDZ15LLLX","","null","<img src=""img/flower1.png"" style=""width:200px; border:14px solid green;"">","null","","","","","","","","",""
"","image-keyboard-response","241","135573","0.0-241.0","3K772S5NP9XLGH214UAIG9QWIMVHEX","A2FYFCD16Z3PCC","3VAOOVPI3ZEZMZXPLZ7IWDDZ15LLLX","","42","img/flower1.png","74","42","1","1","3","2","1,0,0,1,1,0,1,0,1","1,0,0,1,1,0,1,0,1","1",""
"","html-keyboard-response","242","135875","0.0-242.0","3K772S5NP9XLGH214UAIG9QWIMVHEX","A2FYFCD16Z3PCC","3VAOOVPI3ZEZMZXPLZ7IWDDZ15LLLX","","null","<img src=""img/flower1.png"" style=""width:200px; border:14px solid green;"">","null","","","","","","","","",""
"","image-keyboard-response","243","135917","0.0-243.0","3K772S5NP9XLGH214UAIG9QWIMVHEX","A2FYFCD16Z3PCC","3VAOOVPI3ZEZMZXPLZ7IWDDZ15LLLX","","42","img/flower1.png","74","42","1","1","3","2","1,0,0,1,1,0,1,0,1","1,0,0,1,1,0,1,0,1","1",""
"","html-keyboard-response","244","136218","0.0-244.0","3K772S5NP9XLGH214UAIG9QWIMVHEX","A2FYFCD16Z3PCC","3VAOOVPI3ZEZMZXPLZ7IWDDZ15LLLX","","null","<img src=""img/flower1.png"" style=""width:200px; border:14px solid green;"">","null","","","","","","","","",""
"","image-keyboard-response","245","136244","0.0-245.0","3K772S5NP9XLGH214UAIG9QWIMVHEX","A2FYFCD16Z3PCC","3VAOOVPI3ZEZMZXPLZ7IWDDZ15LLLX","","27","img/flower3.png","74","27","1","1","1","2","1,0,0,1,1,0,1,0,1","1,0,0,1,1,0,1,0,1","1",""
"","html-keyboard-response","246","136557","0.0-246.0","3K772S5NP9XLGH214UAIG9QWIMVHEX","A2FYFCD16Z3PCC","3VAOOVPI3ZEZMZXPLZ7IWDDZ15LLLX","","null","<img src=""img/flower3.png"" style=""width:200px; border:14px solid green;"">","null","","","","","","","","",""
"","image-keyboard-response","247","136573","0.0-247.0","3K772S5NP9XLGH214UAIG9QWIMVHEX","A2FYFCD16Z3PCC","3VAOOVPI3ZEZMZXPLZ7IWDDZ15LLLX","","16","img/flower3.png","74","16","1","1","1","2","1,0,0,1,1,0,1,0,1","1,0,0,1,1,0,1,0,1","1",""
"","html-keyboard-response","248","136884","0.0-248.0","3K772S5NP9XLGH214UAIG9QWIMVHEX","A2FYFCD16Z3PCC","3VAOOVPI3ZEZMZXPLZ7IWDDZ15LLLX","","null","<img src=""img/flower3.png"" style=""width:200px; border:14px solid green;"">","null","","","","","","","","",""
"","image-keyboard-response","249","136949","0.0-249.0","3K772S5NP9XLGH214UAIG9QWIMVHEX","A2FYFCD16Z3PCC","3VAOOVPI3ZEZMZXPLZ7IWDDZ15LLLX","","65","img/flower2.png","74","65","1","1","2","2","1,0,0,1,1,0,1,0,1","1,0,0,1,1,0,1,0,1","1",""
"","html-keyboard-response","250","137250","0.0-250.0","3K772S5NP9XLGH214UAIG9QWIMVHEX","A2FYFCD16Z3PCC","3VAOOVPI3ZEZMZXPLZ7IWDDZ15LLLX","","null","<img src=""img/flower2.png"" style=""width:200px; border:14px solid green;"">","null","","","","","","","","",""
"","image-keyboard-response","251","137317","0.0-251.0","3K772S5NP9XLGH214UAIG9QWIMVHEX","A2FYFCD16Z3PCC","3VAOOVPI3ZEZMZXPLZ7IWDDZ15LLLX","","67","img/flower3.png","74","67","1","1","1","2","1,0,0,1,1,0,1,0,1","1,0,0,1,1,0,1,0,1","1",""
"","html-keyboard-response","252","137633","0.0-252.0","3K772S5NP9XLGH214UAIG9QWIMVHEX","A2FYFCD16Z3PCC","3VAOOVPI3ZEZMZXPLZ7IWDDZ15LLLX","","null","<img src=""img/flower3.png"" style=""width:200px; border:14px solid green;"">","null","","","","","","","","",""
"","image-keyboard-response","253","137685","0.0-253.0","3K772S5NP9XLGH214UAIG9QWIMVHEX","A2FYFCD16Z3PCC","3VAOOVPI3ZEZMZXPLZ7IWDDZ15LLLX","","51","img/flower2.png","74","52","1","1","2","2","1,0,0,1,1,0,1,0,1","1,0,0,1,1,0,1,0,1","1",""
"","html-keyboard-response","254","137987","0.0-254.0","3K772S5NP9XLGH214UAIG9QWIMVHEX","A2FYFCD16Z3PCC","3VAOOVPI3ZEZMZXPLZ7IWDDZ15LLLX","","null","<img src=""img/flower2.png"" style=""width:200px; border:14px solid green;"">","null","","","","","","","","",""
"","image-keyboard-response","255","138021","0.0-255.0","3K772S5NP9XLGH214UAIG9QWIMVHEX","A2FYFCD16Z3PCC","3VAOOVPI3ZEZMZXPLZ7IWDDZ15LLLX","","33","img/flower3.png","74","33","1","1","1","2","1,0,0,1,1,0,1,0,1","1,0,0,1,1,0,1,0,1","1",""
"","html-keyboard-response","256","138322","0.0-256.0","3K772S5NP9XLGH214UAIG9QWIMVHEX","A2FYFCD16Z3PCC","3VAOOVPI3ZEZMZXPLZ7IWDDZ15LLLX","","null","<img src=""img/flower3.png"" style=""width:200px; border:14px solid green;"">","null","","","","","","","","",""
"","image-keyboard-response","257","138365","0.0-257.0","3K772S5NP9XLGH214UAIG9QWIMVHEX","A2FYFCD16Z3PCC","3VAOOVPI3ZEZMZXPLZ7IWDDZ15LLLX","","42","img/flower2.png","74","43","1","1","2","2","1,0,0,1,1,0,1,0,1","1,0,0,1,1,0,1,0,1","1",""
"","html-keyboard-response","258","138676","0.0-258.0","3K772S5NP9XLGH214UAIG9QWIMVHEX","A2FYFCD16Z3PCC","3VAOOVPI3ZEZMZXPLZ7IWDDZ15LLLX","","null","<img src=""img/flower2.png"" style=""width:200px; border:14px solid green;"">","null","","","","","","","","",""
"","image-keyboard-response","259","138741","0.0-259.0","3K772S5NP9XLGH214UAIG9QWIMVHEX","A2FYFCD16Z3PCC","3VAOOVPI3ZEZMZXPLZ7IWDDZ15LLLX","","64","img/flower2.png","74","64","1","1","2","2","1,0,0,1,1,0,1,0,1","1,0,0,1,1,0,1,0,1","1",""
"","html-keyboard-response","260","139042","0.0-260.0","3K772S5NP9XLGH214UAIG9QWIMVHEX","A2FYFCD16Z3PCC","3VAOOVPI3ZEZMZXPLZ7IWDDZ15LLLX","","null","<img src=""img/flower2.png"" style=""width:200px; border:14px solid green;"">","null","","","","","","","","",""
"","image-keyboard-response","261","139117","0.0-261.0","3K772S5NP9XLGH214UAIG9QWIMVHEX","A2FYFCD16Z3PCC","3VAOOVPI3ZEZMZXPLZ7IWDDZ15LLLX","","75","img/flower3.png","74","75","1","1","1","2","1,0,0,1,1,0,1,0,1","1,0,0,1,1,0,1,0,1","1",""
"","html-keyboard-response","262","139418","0.0-262.0","3K772S5NP9XLGH214UAIG9QWIMVHEX","A2FYFCD16Z3PCC","3VAOOVPI3ZEZMZXPLZ7IWDDZ15LLLX","","null","<img src=""img/flower3.png"" style=""width:200px; border:14px solid green;"">","null","","","","","","","","",""
"","image-keyboard-response","263","139517","0.0-263.0","3K772S5NP9XLGH214UAIG9QWIMVHEX","A2FYFCD16Z3PCC","3VAOOVPI3ZEZMZXPLZ7IWDDZ15LLLX","","98","img/flower1.png","74","98","1","1","3","2","1,0,0,1,1,0,1,0,1","1,0,0,1,1,0,1,0,1","1",""
"","html-keyboard-response","264","139818","0.0-264.0","3K772S5NP9XLGH214UAIG9QWIMVHEX","A2FYFCD16Z3PCC","3VAOOVPI3ZEZMZXPLZ7IWDDZ15LLLX","","null","<img src=""img/flower1.png"" style=""width:200px; border:14px solid green;"">","null","","","","","","","","",""
"","image-keyboard-response","265","140150","0.0-265.0","3K772S5NP9XLGH214UAIG9QWIMVHEX","A2FYFCD16Z3PCC","3VAOOVPI3ZEZMZXPLZ7IWDDZ15LLLX","","332","img/flower3.png","74","332","1","1","1","2","1,0,0,1,1,0,1,0,1","1,0,0,1,1,0,1,0,1","1",""
"","html-keyboard-response","266","140452","0.0-266.0","3K772S5NP9XLGH214UAIG9QWIMVHEX","A2FYFCD16Z3PCC","3VAOOVPI3ZEZMZXPLZ7IWDDZ15LLLX","","null","<img src=""img/flower3.png"" style=""width:200px; border:14px solid green;"">","null","","","","","","","","",""
"","image-keyboard-response","267","140501","0.0-267.0","3K772S5NP9XLGH214UAIG9QWIMVHEX","A2FYFCD16Z3PCC","3VAOOVPI3ZEZMZXPLZ7IWDDZ15LLLX","","47","img/flower1.png","74","49","1","1","3","2","1,0,0,1,1,0,1,0,1","1,0,0,1,1,0,1,0,1","1",""
"","html-keyboard-response","268","140803","0.0-268.0","3K772S5NP9XLGH214UAIG9QWIMVHEX","A2FYFCD16Z3PCC","3VAOOVPI3ZEZMZXPLZ7IWDDZ15LLLX","","null","<img src=""img/flower1.png"" style=""width:200px; border:14px solid green;"">","null","","","","","","","","",""
"","image-keyboard-response","269","140877","0.0-269.0","3K772S5NP9XLGH214UAIG9QWIMVHEX","A2FYFCD16Z3PCC","3VAOOVPI3ZEZMZXPLZ7IWDDZ15LLLX","","73","img/flower3.png","74","73","1","1","1","2","1,0,0,1,1,0,1,0,1","1,0,0,1,1,0,1,0,1","1",""
"","html-keyboard-response","270","141178","0.0-270.0","3K772S5NP9XLGH214UAIG9QWIMVHEX","A2FYFCD16Z3PCC","3VAOOVPI3ZEZMZXPLZ7IWDDZ15LLLX","","null","<img src=""img/flower3.png"" style=""width:200px; border:14px solid green;"">","null","","","","","","","","",""
"","image-keyboard-response","271","141221","0.0-271.0","3K772S5NP9XLGH214UAIG9QWIMVHEX","A2FYFCD16Z3PCC","3VAOOVPI3ZEZMZXPLZ7IWDDZ15LLLX","","42","img/flower1.png","74","42","1","1","3","2","1,0,0,1,1,0,1,0,1","1,0,0,1,1,0,1,0,1","1",""
"","html-keyboard-response","272","141522","0.0-272.0","3K772S5NP9XLGH214UAIG9QWIMVHEX","A2FYFCD16Z3PCC","3VAOOVPI3ZEZMZXPLZ7IWDDZ15LLLX","","null","<img src=""img/flower1.png"" style=""width:200px; border:14px solid green;"">","null","","","","","","","","",""
"","image-keyboard-response","273","141605","0.0-273.0","3K772S5NP9XLGH214UAIG9QWIMVHEX","A2FYFCD16Z3PCC","3VAOOVPI3ZEZMZXPLZ7IWDDZ15LLLX","","82","img/flower2.png","74","83","1","1","2","2","1,0,0,1,1,0,1,0,1","1,0,0,1,1,0,1,0,1","1",""
"","html-keyboard-response","274","141906","0.0-274.0","3K772S5NP9XLGH214UAIG9QWIMVHEX","A2FYFCD16Z3PCC","3VAOOVPI3ZEZMZXPLZ7IWDDZ15LLLX","","null","<img src=""img/flower2.png"" style=""width:200px; border:14px solid green;"">","null","","","","","","","","",""
"","image-keyboard-response","275","141957","0.0-275.0","3K772S5NP9XLGH214UAIG9QWIMVHEX","A2FYFCD16Z3PCC","3VAOOVPI3ZEZMZXPLZ7IWDDZ15LLLX","","50","img/flower2.png","74","51","1","1","2","2","1,0,0,1,1,0,1,0,1","1,0,0,1,1,0,1,0,1","1",""
"","html-keyboard-response","276","142258","0.0-276.0","3K772S5NP9XLGH214UAIG9QWIMVHEX","A2FYFCD16Z3PCC","3VAOOVPI3ZEZMZXPLZ7IWDDZ15LLLX","","null","<img src=""img/flower2.png"" style=""width:200px; border:14px solid green;"">","null","","","","","","","","",""
"","image-keyboard-response","277","142309","0.0-277.0","3K772S5NP9XLGH214UAIG9QWIMVHEX","A2FYFCD16Z3PCC","3VAOOVPI3ZEZMZXPLZ7IWDDZ15LLLX","","49","img/flower1.png","74","51","1","1","3","2","1,0,0,1,1,0,1,0,1","1,0,0,1,1,0,1,0,1","1",""
"","html-keyboard-response","278","142610","0.0-278.0","3K772S5NP9XLGH214UAIG9QWIMVHEX","A2FYFCD16Z3PCC","3VAOOVPI3ZEZMZXPLZ7IWDDZ15LLLX","","null","<img src=""img/flower1.png"" style=""width:200px; border:14px solid green;"">","null","","","","","","","","",""
"","image-keyboard-response","279","142645","0.0-279.0","3K772S5NP9XLGH214UAIG9QWIMVHEX","A2FYFCD16Z3PCC","3VAOOVPI3ZEZMZXPLZ7IWDDZ15LLLX","","35","img/flower3.png","74","35","1","1","1","2","1,0,0,1,1,0,1,0,1","1,0,0,1,1,0,1,0,1","1",""
"","html-keyboard-response","280","142946","0.0-280.0","3K772S5NP9XLGH214UAIG9QWIMVHEX","A2FYFCD16Z3PCC","3VAOOVPI3ZEZMZXPLZ7IWDDZ15LLLX","","null","<img src=""img/flower3.png"" style=""width:200px; border:14px solid green;"">","null","","","","","","","","",""
"","image-keyboard-response","281","143037","0.0-281.0","3K772S5NP9XLGH214UAIG9QWIMVHEX","A2FYFCD16Z3PCC","3VAOOVPI3ZEZMZXPLZ7IWDDZ15LLLX","","90","img/flower1.png","74","91","1","1","3","2","1,0,0,1,1,0,1,0,1","1,0,0,1,1,0,1,0,1","1",""
"","html-keyboard-response","282","143338","0.0-282.0","3K772S5NP9XLGH214UAIG9QWIMVHEX","A2FYFCD16Z3PCC","3VAOOVPI3ZEZMZXPLZ7IWDDZ15LLLX","","null","<img src=""img/flower1.png"" style=""width:200px; border:14px solid green;"">","null","","","","","","","","",""
"","image-keyboard-response","283","143381","0.0-283.0","3K772S5NP9XLGH214UAIG9QWIMVHEX","A2FYFCD16Z3PCC","3VAOOVPI3ZEZMZXPLZ7IWDDZ15LLLX","","43","img/flower2.png","74","43","1","1","2","2","1,0,0,1,1,0,1,0,1","1,0,0,1,1,0,1,0,1","1",""
"","html-keyboard-response","284","143682","0.0-284.0","3K772S5NP9XLGH214UAIG9QWIMVHEX","A2FYFCD16Z3PCC","3VAOOVPI3ZEZMZXPLZ7IWDDZ15LLLX","","null","<img src=""img/flower2.png"" style=""width:200px; border:14px solid green;"">","null","","","","","","","","",""
"","image-keyboard-response","285","143733","0.0-285.0","3K772S5NP9XLGH214UAIG9QWIMVHEX","A2FYFCD16Z3PCC","3VAOOVPI3ZEZMZXPLZ7IWDDZ15LLLX","","51","img/flower2.png","74","51","1","1","2","2","1,0,0,1,1,0,1,0,1","1,0,0,1,1,0,1,0,1","1",""
"","html-keyboard-response","286","144034","0.0-286.0","3K772S5NP9XLGH214UAIG9QWIMVHEX","A2FYFCD16Z3PCC","3VAOOVPI3ZEZMZXPLZ7IWDDZ15LLLX","","null","<img src=""img/flower2.png"" style=""width:200px; border:14px solid green;"">","null","","","","","","","","",""
"","image-keyboard-response","287","144109","0.0-287.0","3K772S5NP9XLGH214UAIG9QWIMVHEX","A2FYFCD16Z3PCC","3VAOOVPI3ZEZMZXPLZ7IWDDZ15LLLX","","74","img/flower1.png","74","74","1","1","3","2","1,0,0,1,1,0,1,0,1","1,0,0,1,1,0,1,0,1","1",""
"","html-keyboard-response","288","144409","0.0-288.0","3K772S5NP9XLGH214UAIG9QWIMVHEX","A2FYFCD16Z3PCC","3VAOOVPI3ZEZMZXPLZ7IWDDZ15LLLX","","null","<img src=""img/flower1.png"" style=""width:200px; border:14px solid green;"">","null","","","","","","","","",""
"","image-keyboard-response","289","144493","0.0-289.0","3K772S5NP9XLGH214UAIG9QWIMVHEX","A2FYFCD16Z3PCC","3VAOOVPI3ZEZMZXPLZ7IWDDZ15LLLX","","83","img/flower2.png","74","83","1","1","2","2","1,0,0,1,1,0,1,0,1","1,0,0,1,1,0,1,0,1","1",""
"","html-keyboard-response","290","144794","0.0-290.0","3K772S5NP9XLGH214UAIG9QWIMVHEX","A2FYFCD16Z3PCC","3VAOOVPI3ZEZMZXPLZ7IWDDZ15LLLX","","null","<img src=""img/flower2.png"" style=""width:200px; border:14px solid green;"">","null","","","","","","","","",""
"","image-keyboard-response","291","144861","0.0-291.0","3K772S5NP9XLGH214UAIG9QWIMVHEX","A2FYFCD16Z3PCC","3VAOOVPI3ZEZMZXPLZ7IWDDZ15LLLX","","65","img/flower2.png","74","67","1","1","2","2","1,0,0,1,1,0,1,0,1","1,0,0,1,1,0,1,0,1","1",""
"","html-keyboard-response","292","145163","0.0-292.0","3K772S5NP9XLGH214UAIG9QWIMVHEX","A2FYFCD16Z3PCC","3VAOOVPI3ZEZMZXPLZ7IWDDZ15LLLX","","null","<img src=""img/flower2.png"" style=""width:200px; border:14px solid green;"">","null","","","","","","","","",""
"","image-keyboard-response","293","145229","0.0-293.0","3K772S5NP9XLGH214UAIG9QWIMVHEX","A2FYFCD16Z3PCC","3VAOOVPI3ZEZMZXPLZ7IWDDZ15LLLX","","66","img/flower1.png","74","66","1","1","3","2","1,0,0,1,1,0,1,0,1","1,0,0,1,1,0,1,0,1","1",""
"","html-keyboard-response","294","145540","0.0-294.0","3K772S5NP9XLGH214UAIG9QWIMVHEX","A2FYFCD16Z3PCC","3VAOOVPI3ZEZMZXPLZ7IWDDZ15LLLX","","null","<img src=""img/flower1.png"" style=""width:200px; border:14px solid green;"">","null","","","","","","","","",""
"","image-keyboard-response","295","145621","0.0-295.0","3K772S5NP9XLGH214UAIG9QWIMVHEX","A2FYFCD16Z3PCC","3VAOOVPI3ZEZMZXPLZ7IWDDZ15LLLX","","81","img/flower1.png","74","81","1","1","3","2","1,0,0,1,1,0,1,0,1","1,0,0,1,1,0,1,0,1","1",""
"","html-keyboard-response","296","145922","0.0-296.0","3K772S5NP9XLGH214UAIG9QWIMVHEX","A2FYFCD16Z3PCC","3VAOOVPI3ZEZMZXPLZ7IWDDZ15LLLX","","null","<img src=""img/flower1.png"" style=""width:200px; border:14px solid green;"">","null","","","","","","","","",""
"","image-keyboard-response","297","146005","0.0-297.0","3K772S5NP9XLGH214UAIG9QWIMVHEX","A2FYFCD16Z3PCC","3VAOOVPI3ZEZMZXPLZ7IWDDZ15LLLX","","82","img/flower2.png","74","82","1","1","2","2","1,0,0,1,1,0,1,0,1","1,0,0,1,1,0,1,0,1","1",""
"","html-keyboard-response","298","146306","0.0-298.0","3K772S5NP9XLGH214UAIG9QWIMVHEX","A2FYFCD16Z3PCC","3VAOOVPI3ZEZMZXPLZ7IWDDZ15LLLX","","null","<img src=""img/flower2.png"" style=""width:200px; border:14px solid green;"">","null","","","","","","","","",""
"","image-keyboard-response","299","146389","0.0-299.0","3K772S5NP9XLGH214UAIG9QWIMVHEX","A2FYFCD16Z3PCC","3VAOOVPI3ZEZMZXPLZ7IWDDZ15LLLX","","82","img/flower2.png","74","83","1","1","2","2","1,0,0,1,1,0,1,0,1","1,0,0,1,1,0,1,0,1","1",""
"","html-keyboard-response","300","146690","0.0-300.0","3K772S5NP9XLGH214UAIG9QWIMVHEX","A2FYFCD16Z3PCC","3VAOOVPI3ZEZMZXPLZ7IWDDZ15LLLX","","null","<img src=""img/flower2.png"" style=""width:200px; border:14px solid green;"">","null","","","","","","","","",""
"","image-keyboard-response","301","146749","0.0-301.0","3K772S5NP9XLGH214UAIG9QWIMVHEX","A2FYFCD16Z3PCC","3VAOOVPI3ZEZMZXPLZ7IWDDZ15LLLX","","58","img/flower3.png","74","59","1","1","1","2","1,0,0,1,1,0,1,0,1","1,0,0,1,1,0,1,0,1","1",""
"","html-keyboard-response","302","147050","0.0-302.0","3K772S5NP9XLGH214UAIG9QWIMVHEX","A2FYFCD16Z3PCC","3VAOOVPI3ZEZMZXPLZ7IWDDZ15LLLX","","null","<img src=""img/flower3.png"" style=""width:200px; border:14px solid green;"">","null","","","","","","","","",""
"","image-keyboard-response","303","147109","0.0-303.0","3K772S5NP9XLGH214UAIG9QWIMVHEX","A2FYFCD16Z3PCC","3VAOOVPI3ZEZMZXPLZ7IWDDZ15LLLX","","58","img/flower1.png","74","58","1","1","3","2","1,0,0,1,1,0,1,0,1","1,0,0,1,1,0,1,0,1","1",""
"","html-keyboard-response","304","147410","0.0-304.0","3K772S5NP9XLGH214UAIG9QWIMVHEX","A2FYFCD16Z3PCC","3VAOOVPI3ZEZMZXPLZ7IWDDZ15LLLX","","null","<img src=""img/flower1.png"" style=""width:200px; border:14px solid green;"">","null","","","","","","","","",""
"","image-keyboard-response","305","147461","0.0-305.0","3K772S5NP9XLGH214UAIG9QWIMVHEX","A2FYFCD16Z3PCC","3VAOOVPI3ZEZMZXPLZ7IWDDZ15LLLX","","50","img/flower1.png","74","52","1","1","3","2","1,0,0,1,1,0,1,0,1","1,0,0,1,1,0,1,0,1","1",""
"","html-keyboard-response","306","147762","0.0-306.0","3K772S5NP9XLGH214UAIG9QWIMVHEX","A2FYFCD16Z3PCC","3VAOOVPI3ZEZMZXPLZ7IWDDZ15LLLX","","null","<img src=""img/flower1.png"" style=""width:200px; border:14px solid green;"">","null","","","","","","","","",""
"","image-keyboard-response","307","147821","0.0-307.0","3K772S5NP9XLGH214UAIG9QWIMVHEX","A2FYFCD16Z3PCC","3VAOOVPI3ZEZMZXPLZ7IWDDZ15LLLX","","58","img/flower2.png","74","58","1","1","2","2","1,0,0,1,1,0,1,0,1","1,0,0,1,1,0,1,0,1","1",""
"","html-keyboard-response","308","148122","0.0-308.0","3K772S5NP9XLGH214UAIG9QWIMVHEX","A2FYFCD16Z3PCC","3VAOOVPI3ZEZMZXPLZ7IWDDZ15LLLX","","null","<img src=""img/flower2.png"" style=""width:200px; border:14px solid green;"">","null","","","","","","","","",""
"","image-keyboard-response","309","148205","0.0-309.0","3K772S5NP9XLGH214UAIG9QWIMVHEX","A2FYFCD16Z3PCC","3VAOOVPI3ZEZMZXPLZ7IWDDZ15LLLX","","82","img/flower2.png","74","82","1","1","2","2","1,0,0,1,1,0,1,0,1","1,0,0,1,1,0,1,0,1","1",""
"","html-keyboard-response","310","148512","0.0-310.0","3K772S5NP9XLGH214UAIG9QWIMVHEX","A2FYFCD16Z3PCC","3VAOOVPI3ZEZMZXPLZ7IWDDZ15LLLX","","null","<img src=""img/flower2.png"" style=""width:200px; border:14px solid green;"">","null","","","","","","","","",""
"","image-keyboard-response","311","148541","0.0-311.0","3K772S5NP9XLGH214UAIG9QWIMVHEX","A2FYFCD16Z3PCC","3VAOOVPI3ZEZMZXPLZ7IWDDZ15LLLX","","28","img/flower2.png","74","29","1","1","2","2","1,0,0,1,1,0,1,0,1","1,0,0,1,1,0,1,0,1","1",""
"","html-keyboard-response","312","148843","0.0-312.0","3K772S5NP9XLGH214UAIG9QWIMVHEX","A2FYFCD16Z3PCC","3VAOOVPI3ZEZMZXPLZ7IWDDZ15LLLX","","null","<img src=""img/flower2.png"" style=""width:200px; border:14px solid green;"">","null","","","","","","","","",""
"","image-keyboard-response","313","148893","0.0-313.0","3K772S5NP9XLGH214UAIG9QWIMVHEX","A2FYFCD16Z3PCC","3VAOOVPI3ZEZMZXPLZ7IWDDZ15LLLX","","49","img/flower2.png","74","50","1","1","2","2","1,0,0,1,1,0,1,0,1","1,0,0,1,1,0,1,0,1","1",""
"","html-keyboard-response","314","149194","0.0-314.0","3K772S5NP9XLGH214UAIG9QWIMVHEX","A2FYFCD16Z3PCC","3VAOOVPI3ZEZMZXPLZ7IWDDZ15LLLX","","null","<img src=""img/flower2.png"" style=""width:200px; border:14px solid green;"">","null","","","","","","","","",""
"","image-keyboard-response","315","149269","0.0-315.0","3K772S5NP9XLGH214UAIG9QWIMVHEX","A2FYFCD16Z3PCC","3VAOOVPI3ZEZMZXPLZ7IWDDZ15LLLX","","75","img/flower2.png","74","75","1","1","2","2","1,0,0,1,1,0,1,0,1","1,0,0,1,1,0,1,0,1","1",""
"","html-keyboard-response","316","149570","0.0-316.0","3K772S5NP9XLGH214UAIG9QWIMVHEX","A2FYFCD16Z3PCC","3VAOOVPI3ZEZMZXPLZ7IWDDZ15LLLX","","null","<img src=""img/flower2.png"" style=""width:200px; border:14px solid green;"">","null","","","","","","","","",""
"","image-keyboard-response","317","149605","0.0-317.0","3K772S5NP9XLGH214UAIG9QWIMVHEX","A2FYFCD16Z3PCC","3VAOOVPI3ZEZMZXPLZ7IWDDZ15LLLX","","34","img/flower3.png","74","35","1","1","1","2","1,0,0,1,1,0,1,0,1","1,0,0,1,1,0,1,0,1","1",""
"","html-keyboard-response","318","149906","0.0-318.0","3K772S5NP9XLGH214UAIG9QWIMVHEX","A2FYFCD16Z3PCC","3VAOOVPI3ZEZMZXPLZ7IWDDZ15LLLX","","null","<img src=""img/flower3.png"" style=""width:200px; border:14px solid green;"">","null","","","","","","","","",""
"","image-keyboard-response","319","149949","0.0-319.0","3K772S5NP9XLGH214UAIG9QWIMVHEX","A2FYFCD16Z3PCC","3VAOOVPI3ZEZMZXPLZ7IWDDZ15LLLX","","42","img/flower3.png","74","43","1","1","1","2","1,0,0,1,1,0,1,0,1","1,0,0,1,1,0,1,0,1","1",""
"","html-keyboard-response","320","150250","0.0-320.0","3K772S5NP9XLGH214UAIG9QWIMVHEX","A2FYFCD16Z3PCC","3VAOOVPI3ZEZMZXPLZ7IWDDZ15LLLX","","null","<img src=""img/flower3.png"" style=""width:200px; border:14px solid green;"">","null","","","","","","","","",""
"","image-keyboard-response","321","150341","0.0-321.0","3K772S5NP9XLGH214UAIG9QWIMVHEX","A2FYFCD16Z3PCC","3VAOOVPI3ZEZMZXPLZ7IWDDZ15LLLX","","90","img/flower2.png","74","91","1","1","2","2","1,0,0,1,1,0,1,0,1","1,0,0,1,1,0,1,0,1","1",""
"","html-keyboard-response","322","150642","0.0-322.0","3K772S5NP9XLGH214UAIG9QWIMVHEX","A2FYFCD16Z3PCC","3VAOOVPI3ZEZMZXPLZ7IWDDZ15LLLX","","null","<img src=""img/flower2.png"" style=""width:200px; border:14px solid green;"">","null","","","","","","","","",""
"","image-keyboard-response","323","150701","0.0-323.0","3K772S5NP9XLGH214UAIG9QWIMVHEX","A2FYFCD16Z3PCC","3VAOOVPI3ZEZMZXPLZ7IWDDZ15LLLX","","58","img/flower1.png","74","58","1","1","3","2","1,0,0,1,1,0,1,0,1","1,0,0,1,1,0,1,0,1","1",""
"","html-keyboard-response","324","151002","0.0-324.0","3K772S5NP9XLGH214UAIG9QWIMVHEX","A2FYFCD16Z3PCC","3VAOOVPI3ZEZMZXPLZ7IWDDZ15LLLX","","null","<img src=""img/flower1.png"" style=""width:200px; border:14px solid green;"">","null","","","","","","","","",""
"","image-keyboard-response","325","151061","0.0-325.0","3K772S5NP9XLGH214UAIG9QWIMVHEX","A2FYFCD16Z3PCC","3VAOOVPI3ZEZMZXPLZ7IWDDZ15LLLX","","58","img/flower1.png","74","59","1","1","3","2","1,0,0,1,1,0,1,0,1","1,0,0,1,1,0,1,0,1","1",""
"","html-keyboard-response","326","151376","0.0-326.0","3K772S5NP9XLGH214UAIG9QWIMVHEX","A2FYFCD16Z3PCC","3VAOOVPI3ZEZMZXPLZ7IWDDZ15LLLX","","null","<img src=""img/flower1.png"" style=""width:200px; border:14px solid green;"">","null","","","","","","","","",""
"","image-keyboard-response","327","151429","0.0-327.0","3K772S5NP9XLGH214UAIG9QWIMVHEX","A2FYFCD16Z3PCC","3VAOOVPI3ZEZMZXPLZ7IWDDZ15LLLX","","52","img/flower1.png","74","52","1","1","3","2","1,0,0,1,1,0,1,0,1","1,0,0,1,1,0,1,0,1","1",""
"","html-keyboard-response","328","151730","0.0-328.0","3K772S5NP9XLGH214UAIG9QWIMVHEX","A2FYFCD16Z3PCC","3VAOOVPI3ZEZMZXPLZ7IWDDZ15LLLX","","null","<img src=""img/flower1.png"" style=""width:200px; border:14px solid green;"">","null","","","","","","","","",""
"","image-keyboard-response","329","151773","0.0-329.0","3K772S5NP9XLGH214UAIG9QWIMVHEX","A2FYFCD16Z3PCC","3VAOOVPI3ZEZMZXPLZ7IWDDZ15LLLX","","42","img/flower2.png","74","42","1","1","2","2","1,0,0,1,1,0,1,0,1","1,0,0,1,1,0,1,0,1","1",""
"","html-keyboard-response","330","152074","0.0-330.0","3K772S5NP9XLGH214UAIG9QWIMVHEX","A2FYFCD16Z3PCC","3VAOOVPI3ZEZMZXPLZ7IWDDZ15LLLX","","null","<img src=""img/flower2.png"" style=""width:200px; border:14px solid green;"">","null","","","","","","","","",""
"","image-keyboard-response","331","152157","0.0-331.0","3K772S5NP9XLGH214UAIG9QWIMVHEX","A2FYFCD16Z3PCC","3VAOOVPI3ZEZMZXPLZ7IWDDZ15LLLX","","81","img/flower3.png","74","82","1","1","1","2","1,0,0,1,1,0,1,0,1","1,0,0,1,1,0,1,0,1","1",""
"","html-keyboard-response","332","152458","0.0-332.0","3K772S5NP9XLGH214UAIG9QWIMVHEX","A2FYFCD16Z3PCC","3VAOOVPI3ZEZMZXPLZ7IWDDZ15LLLX","","null","<img src=""img/flower3.png"" style=""width:200px; border:14px solid green;"">","null","","","","","","","","",""
"","image-keyboard-response","333","152533","0.0-333.0","3K772S5NP9XLGH214UAIG9QWIMVHEX","A2FYFCD16Z3PCC","3VAOOVPI3ZEZMZXPLZ7IWDDZ15LLLX","","73","img/flower1.png","74","74","1","1","3","2","1,0,0,1,1,0,1,0,1","1,0,0,1,1,0,1,0,1","1",""
"","html-keyboard-response","334","152834","0.0-334.0","3K772S5NP9XLGH214UAIG9QWIMVHEX","A2FYFCD16Z3PCC","3VAOOVPI3ZEZMZXPLZ7IWDDZ15LLLX","","null","<img src=""img/flower1.png"" style=""width:200px; border:14px solid green;"">","null","","","","","","","","",""
"","image-keyboard-response","335","152901","0.0-335.0","3K772S5NP9XLGH214UAIG9QWIMVHEX","A2FYFCD16Z3PCC","3VAOOVPI3ZEZMZXPLZ7IWDDZ15LLLX","","66","img/flower2.png","74","67","1","1","2","2","1,0,0,1,1,0,1,0,1","1,0,0,1,1,0,1,0,1","1",""
"","html-keyboard-response","336","153202","0.0-336.0","3K772S5NP9XLGH214UAIG9QWIMVHEX","A2FYFCD16Z3PCC","3VAOOVPI3ZEZMZXPLZ7IWDDZ15LLLX","","null","<img src=""img/flower2.png"" style=""width:200px; border:14px solid green;"">","null","","","","","","","","",""
"","image-keyboard-response","337","153253","0.0-337.0","3K772S5NP9XLGH214UAIG9QWIMVHEX","A2FYFCD16Z3PCC","3VAOOVPI3ZEZMZXPLZ7IWDDZ15LLLX","","50","img/flower2.png","74","52","1","1","2","2","1,0,0,1,1,0,1,0,1","1,0,0,1,1,0,1,0,1","1",""
"","html-keyboard-response","338","153554","0.0-338.0","3K772S5NP9XLGH214UAIG9QWIMVHEX","A2FYFCD16Z3PCC","3VAOOVPI3ZEZMZXPLZ7IWDDZ15LLLX","","null","<img src=""img/flower2.png"" style=""width:200px; border:14px solid green;"">","null","","","","","","","","",""
"","image-keyboard-response","339","153653","0.0-339.0","3K772S5NP9XLGH214UAIG9QWIMVHEX","A2FYFCD16Z3PCC","3VAOOVPI3ZEZMZXPLZ7IWDDZ15LLLX","","98","img/flower3.png","74","98","1","1","1","2","1,0,0,1,1,0,1,0,1","1,0,0,1,1,0,1,0,1","1",""
"","html-keyboard-response","340","153954","0.0-340.0","3K772S5NP9XLGH214UAIG9QWIMVHEX","A2FYFCD16Z3PCC","3VAOOVPI3ZEZMZXPLZ7IWDDZ15LLLX","","null","<img src=""img/flower3.png"" style=""width:200px; border:14px solid green;"">","null","","","","","","","","",""
"","image-keyboard-response","341","154037","0.0-341.0","3K772S5NP9XLGH214UAIG9QWIMVHEX","A2FYFCD16Z3PCC","3VAOOVPI3ZEZMZXPLZ7IWDDZ15LLLX","","81","img/flower3.png","74","82","1","1","1","2","1,0,0,1,1,0,1,0,1","1,0,0,1,1,0,1,0,1","1",""
"","html-keyboard-response","342","154338","0.0-342.0","3K772S5NP9XLGH214UAIG9QWIMVHEX","A2FYFCD16Z3PCC","3VAOOVPI3ZEZMZXPLZ7IWDDZ15LLLX","","null","<img src=""img/flower3.png"" style=""width:200px; border:14px solid green;"">","null","","","","","","","","",""
"","image-keyboard-response","343","154381","0.0-343.0","3K772S5NP9XLGH214UAIG9QWIMVHEX","A2FYFCD16Z3PCC","3VAOOVPI3ZEZMZXPLZ7IWDDZ15LLLX","","42","img/flower2.png","74","43","1","1","2","2","1,0,0,1,1,0,1,0,1","1,0,0,1,1,0,1,0,1","1",""
"","html-keyboard-response","344","154683","0.0-344.0","3K772S5NP9XLGH214UAIG9QWIMVHEX","A2FYFCD16Z3PCC","3VAOOVPI3ZEZMZXPLZ7IWDDZ15LLLX","","null","<img src=""img/flower2.png"" style=""width:200px; border:14px solid green;"">","null","","","","","","","","",""
"","image-keyboard-response","345","154733","0.0-345.0","3K772S5NP9XLGH214UAIG9QWIMVHEX","A2FYFCD16Z3PCC","3VAOOVPI3ZEZMZXPLZ7IWDDZ15LLLX","","50","img/flower1.png","74","50","1","1","3","2","1,0,0,1,1,0,1,0,1","1,0,0,1,1,0,1,0,1","1",""
"","html-keyboard-response","346","155035","0.0-346.0","3K772S5NP9XLGH214UAIG9QWIMVHEX","A2FYFCD16Z3PCC","3VAOOVPI3ZEZMZXPLZ7IWDDZ15LLLX","","null","<img src=""img/flower1.png"" style=""width:200px; border:14px solid green;"">","null","","","","","","","","",""
"","image-keyboard-response","347","155125","0.0-347.0","3K772S5NP9XLGH214UAIG9QWIMVHEX","A2FYFCD16Z3PCC","3VAOOVPI3ZEZMZXPLZ7IWDDZ15LLLX","","88","img/flower3.png","74","90","1","1","1","2","1,0,0,1,1,0,1,0,1","1,0,0,1,1,0,1,0,1","1",""
"","html-keyboard-response","348","155426","0.0-348.0","3K772S5NP9XLGH214UAIG9QWIMVHEX","A2FYFCD16Z3PCC","3VAOOVPI3ZEZMZXPLZ7IWDDZ15LLLX","","null","<img src=""img/flower3.png"" style=""width:200px; border:14px solid green;"">","null","","","","","","","","",""
"","image-keyboard-response","349","155501","0.0-349.0","3K772S5NP9XLGH214UAIG9QWIMVHEX","A2FYFCD16Z3PCC","3VAOOVPI3ZEZMZXPLZ7IWDDZ15LLLX","","73","img/flower1.png","74","76","1","1","3","2","1,0,0,1,1,0,1,0,1","1,0,0,1,1,0,1,0,1","1",""
"","html-keyboard-response","350","155802","0.0-350.0","3K772S5NP9XLGH214UAIG9QWIMVHEX","A2FYFCD16Z3PCC","3VAOOVPI3ZEZMZXPLZ7IWDDZ15LLLX","","null","<img src=""img/flower1.png"" style=""width:200px; border:14px solid green;"">","null","","","","","","","","",""
"","image-keyboard-response","351","155877","0.0-351.0","3K772S5NP9XLGH214UAIG9QWIMVHEX","A2FYFCD16Z3PCC","3VAOOVPI3ZEZMZXPLZ7IWDDZ15LLLX","","74","img/flower1.png","74","75","1","1","3","2","1,0,0,1,1,0,1,0,1","1,0,0,1,1,0,1,0,1","1",""
"","html-keyboard-response","352","156178","0.0-352.0","3K772S5NP9XLGH214UAIG9QWIMVHEX","A2FYFCD16Z3PCC","3VAOOVPI3ZEZMZXPLZ7IWDDZ15LLLX","","null","<img src=""img/flower1.png"" style=""width:200px; border:14px solid green;"">","null","","","","","","","","",""
"","image-keyboard-response","353","156261","0.0-353.0","3K772S5NP9XLGH214UAIG9QWIMVHEX","A2FYFCD16Z3PCC","3VAOOVPI3ZEZMZXPLZ7IWDDZ15LLLX","","82","img/flower3.png","74","82","1","1","1","2","1,0,0,1,1,0,1,0,1","1,0,0,1,1,0,1,0,1","1",""
"","html-keyboard-response","354","156562","0.0-354.0","3K772S5NP9XLGH214UAIG9QWIMVHEX","A2FYFCD16Z3PCC","3VAOOVPI3ZEZMZXPLZ7IWDDZ15LLLX","","null","<img src=""img/flower3.png"" style=""width:200px; border:14px solid green;"">","null","","","","","","","","",""
"","image-keyboard-response","355","156645","0.0-355.0","3K772S5NP9XLGH214UAIG9QWIMVHEX","A2FYFCD16Z3PCC","3VAOOVPI3ZEZMZXPLZ7IWDDZ15LLLX","","82","img/flower1.png","74","82","1","1","3","2","1,0,0,1,1,0,1,0,1","1,0,0,1,1,0,1,0,1","1",""
"","html-keyboard-response","356","156946","0.0-356.0","3K772S5NP9XLGH214UAIG9QWIMVHEX","A2FYFCD16Z3PCC","3VAOOVPI3ZEZMZXPLZ7IWDDZ15LLLX","","null","<img src=""img/flower1.png"" style=""width:200px; border:14px solid green;"">","null","","","","","","","","",""
"","image-keyboard-response","357","157013","0.0-357.0","3K772S5NP9XLGH214UAIG9QWIMVHEX","A2FYFCD16Z3PCC","3VAOOVPI3ZEZMZXPLZ7IWDDZ15LLLX","","65","img/flower3.png","74","66","1","1","1","2","1,0,0,1,1,0,1,0,1","1,0,0,1,1,0,1,0,1","1",""
"","html-keyboard-response","358","157314","0.0-358.0","3K772S5NP9XLGH214UAIG9QWIMVHEX","A2FYFCD16Z3PCC","3VAOOVPI3ZEZMZXPLZ7IWDDZ15LLLX","","null","<img src=""img/flower3.png"" style=""width:200px; border:14px solid green;"">","null","","","","","","","","",""
"","image-keyboard-response","359","157397","0.0-359.0","3K772S5NP9XLGH214UAIG9QWIMVHEX","A2FYFCD16Z3PCC","3VAOOVPI3ZEZMZXPLZ7IWDDZ15LLLX","","82","img/flower1.png","74","82","1","1","3","2","1,0,0,1,1,0,1,0,1","1,0,0,1,1,0,1,0,1","1",""
"","html-keyboard-response","360","157698","0.0-360.0","3K772S5NP9XLGH214UAIG9QWIMVHEX","A2FYFCD16Z3PCC","3VAOOVPI3ZEZMZXPLZ7IWDDZ15LLLX","","null","<img src=""img/flower1.png"" style=""width:200px; border:14px solid green;"">","null","","","","","","","","",""
"","image-keyboard-response","361","157949","0.0-361.0","3K772S5NP9XLGH214UAIG9QWIMVHEX","A2FYFCD16Z3PCC","3VAOOVPI3ZEZMZXPLZ7IWDDZ15LLLX","","250","img/flower2.png","74","251","1","1","2","2","1,0,0,1,1,0,1,0,1","1,0,0,1,1,0,1,0,1","1",""
"","html-keyboard-response","362","158250","0.0-362.0","3K772S5NP9XLGH214UAIG9QWIMVHEX","A2FYFCD16Z3PCC","3VAOOVPI3ZEZMZXPLZ7IWDDZ15LLLX","","null","<img src=""img/flower2.png"" style=""width:200px; border:14px solid green;"">","null","","","","","","","","",""
"","instructions","363","160257","0.0-363.0","3K772S5NP9XLGH214UAIG9QWIMVHEX","A2FYFCD16Z3PCC","3VAOOVPI3ZEZMZXPLZ7IWDDZ15LLLX","[{""page_index"":0,""viewing_time"":2006}]","2006","","","","","","","","","","",""
"","survey-text","364","164505","0.0-364.0","3K772S5NP9XLGH214UAIG9QWIMVHEX","A2FYFCD16Z3PCC","3VAOOVPI3ZEZMZXPLZ7IWDDZ15LLLX","","4246","","","","","","","","","","","{""Q0"":""A2FYFCD16Z3PCC""}"
