"success","trial_type","trial_index","time_elapsed","internal_node_id","assignmentID","mturkID","hitID","view_history","rt","stimulus","key_press","reactionTime","a","r","s","cond","reward_cond","reward_cond_actual","reward_matrix_idx","responses"
"true","fullscreen","0","3942","0.0-0.0","3EICBYG645I2APDDW3782Y68BWQCJX","A2HAP8SUY3WYKR","335VBRURDJMQFRMOFGHOE9WKSHX9E1","","","","","","","","","","","","",""
"","instructions","1","57406","0.0-1.0","3EICBYG645I2APDDW3782Y68BWQCJX","A2HAP8SUY3WYKR","335VBRURDJMQFRMOFGHOE9WKSHX9E1","[{""page_index"":0,""viewing_time"":7797.199999928474},{""page_index"":1,""viewing_time"":5719.700000047684},{""page_index"":2,""viewing_time"":1816.1000000238419},{""page_index"":3,""viewing_time"":3495.899999976158},{""page_index"":4,""viewing_time"":16159.799999952316},{""page_index"":5,""viewing_time"":8296},{""page_index"":6,""viewing_time"":6776},{""page_index"":7,""viewing_time"":3400.100000023842}]","53461.5","","","","","","","","","","",""
"","image-keyboard-response","2","59085","0.0-2.0","3EICBYG645I2APDDW3782Y68BWQCJX","A2HAP8SUY3WYKR","335VBRURDJMQFRMOFGHOE9WKSHX9E1","","1678","img/flower4.png","74","1679","1","1","2","2","1,0,0,1,1,0,1,0,1","0,0,1,1,0,1,0,1,1","2",""
"","html-keyboard-response","3","59388","0.0-3.0","3EICBYG645I2APDDW3782Y68BWQCJX","A2HAP8SUY3WYKR","335VBRURDJMQFRMOFGHOE9WKSHX9E1","","null","<img src=""img/flower4.png"" style=""width:200px; border:14px solid green;"">","null","","","","","","","","",""
"","image-keyboard-response","4","60188","0.0-4.0","3EICBYG645I2APDDW3782Y68BWQCJX","A2HAP8SUY3WYKR","335VBRURDJMQFRMOFGHOE9WKSHX9E1","","798.5","img/flower6.png","75","799.3999999761581","2","0","1","2","1,0,0,1,1,0,1,0,1","0,0,1,1,0,1,0,1,1","2",""
"","html-keyboard-response","5","60490","0.0-5.0","3EICBYG645I2APDDW3782Y68BWQCJX","A2HAP8SUY3WYKR","335VBRURDJMQFRMOFGHOE9WKSHX9E1","","null","<img src=""img/flower6.png"" style=""width:200px;border:14px solid red;"">","null","","","","","","","","",""
"","image-keyboard-response","6","61303","0.0-6.0","3EICBYG645I2APDDW3782Y68BWQCJX","A2HAP8SUY3WYKR","335VBRURDJMQFRMOFGHOE9WKSHX9E1","","812.5","img/flower6.png","76","813.1000000238419","3","1","1","2","1,0,0,1,1,0,1,0,1","0,0,1,1,0,1,0,1,1","2",""
"","html-keyboard-response","7","61605","0.0-7.0","3EICBYG645I2APDDW3782Y68BWQCJX","A2HAP8SUY3WYKR","335VBRURDJMQFRMOFGHOE9WKSHX9E1","","null","<img src=""img/flower6.png"" style=""width:200px; border:14px solid green;"">","null","","","","","","","","",""
"","image-keyboard-response","8","62528","0.0-8.0","3EICBYG645I2APDDW3782Y68BWQCJX","A2HAP8SUY3WYKR","335VBRURDJMQFRMOFGHOE9WKSHX9E1","","922","img/flower6.png","76","922.7999999523163","3","1","1","2","1,0,0,1,1,0,1,0,1","0,0,1,1,0,1,0,1,1","2",""
"","html-keyboard-response","9","62829","0.0-9.0","3EICBYG645I2APDDW3782Y68BWQCJX","A2HAP8SUY3WYKR","335VBRURDJMQFRMOFGHOE9WKSHX9E1","","null","<img src=""img/flower6.png"" style=""width:200px; border:14px solid green;"">","null","","","","","","","","",""
"","image-keyboard-response","10","63429","0.0-10.0","3EICBYG645I2APDDW3782Y68BWQCJX","A2HAP8SUY3WYKR","335VBRURDJMQFRMOFGHOE9WKSHX9E1","","598.3999999761581","img/flower6.png","76","599.0999999046326","3","1","1","2","1,0,0,1,1,0,1,0,1","0,0,1,1,0,1,0,1,1","2",""
"","html-keyboard-response","11","63731","0.0-11.0","3EICBYG645I2APDDW3782Y68BWQCJX","A2HAP8SUY3WYKR","335VBRURDJMQFRMOFGHOE9WKSHX9E1","","null","<img src=""img/flower6.png"" style=""width:200px; border:14px solid green;"">","null","","","","","","","","",""
"","image-keyboard-response","12","64366","0.0-12.0","3EICBYG645I2APDDW3782Y68BWQCJX","A2HAP8SUY3WYKR","335VBRURDJMQFRMOFGHOE9WKSHX9E1","","634.1999999284744","img/flower4.png","74","634.8000000715256","1","1","2","2","1,0,0,1,1,0,1,0,1","0,0,1,1,0,1,0,1,1","2",""
"","html-keyboard-response","13","64668","0.0-13.0","3EICBYG645I2APDDW3782Y68BWQCJX","A2HAP8SUY3WYKR","335VBRURDJMQFRMOFGHOE9WKSHX9E1","","null","<img src=""img/flower4.png"" style=""width:200px; border:14px solid green;"">","null","","","","","","","","",""
"","image-keyboard-response","14","65532","0.0-14.0","3EICBYG645I2APDDW3782Y68BWQCJX","A2HAP8SUY3WYKR","335VBRURDJMQFRMOFGHOE9WKSHX9E1","","862.8999999761581","img/flower1.png","75","863.6000000238419","2","1","3","2","1,0,0,1,1,0,1,0,1","0,0,1,1,0,1,0,1,1","2",""
"","html-keyboard-response","15","65834","0.0-15.0","3EICBYG645I2APDDW3782Y68BWQCJX","A2HAP8SUY3WYKR","335VBRURDJMQFRMOFGHOE9WKSHX9E1","","null","<img src=""img/flower1.png"" style=""width:200px; border:14px solid green;"">","null","","","","","","","","",""
"","image-keyboard-response","16","66636","0.0-16.0","3EICBYG645I2APDDW3782Y68BWQCJX","A2HAP8SUY3WYKR","335VBRURDJMQFRMOFGHOE9WKSHX9E1","","801","img/flower4.png","76","801.5","3","1","2","2","1,0,0,1,1,0,1,0,1","0,0,1,1,0,1,0,1,1","2",""
"","html-keyboard-response","17","66938","0.0-17.0","3EICBYG645I2APDDW3782Y68BWQCJX","A2HAP8SUY3WYKR","335VBRURDJMQFRMOFGHOE9WKSHX9E1","","null","<img src=""img/flower4.png"" style=""width:200px; border:14px solid green;"">","null","","","","","","","","",""
"","image-keyboard-response","18","67842","0.0-18.0","3EICBYG645I2APDDW3782Y68BWQCJX","A2HAP8SUY3WYKR","335VBRURDJMQFRMOFGHOE9WKSHX9E1","","903.1999999284744","img/flower6.png","75","903.8999999761581","2","0","1","2","1,0,0,1,1,0,1,0,1","0,0,1,1,0,1,0,1,1","2",""
"","html-keyboard-response","19","68144","0.0-19.0","3EICBYG645I2APDDW3782Y68BWQCJX","A2HAP8SUY3WYKR","335VBRURDJMQFRMOFGHOE9WKSHX9E1","","null","<img src=""img/flower6.png"" style=""width:200px;border:14px solid red;"">","null","","","","","","","","",""
"","image-keyboard-response","20","68695","0.0-20.0","3EICBYG645I2APDDW3782Y68BWQCJX","A2HAP8SUY3WYKR","335VBRURDJMQFRMOFGHOE9WKSHX9E1","","550.2000000476837","img/flower6.png","75","550.8999999761581","2","0","1","2","1,0,0,1,1,0,1,0,1","0,0,1,1,0,1,0,1,1","2",""
"","html-keyboard-response","21","68997","0.0-21.0","3EICBYG645I2APDDW3782Y68BWQCJX","A2HAP8SUY3WYKR","335VBRURDJMQFRMOFGHOE9WKSHX9E1","","null","<img src=""img/flower6.png"" style=""width:200px;border:14px solid red;"">","null","","","","","","","","",""
"","image-keyboard-response","22","69792","0.0-22.0","3EICBYG645I2APDDW3782Y68BWQCJX","A2HAP8SUY3WYKR","335VBRURDJMQFRMOFGHOE9WKSHX9E1","","794","img/flower4.png","74","794.5999999046326","1","1","2","2","1,0,0,1,1,0,1,0,1","0,0,1,1,0,1,0,1,1","2",""
"","html-keyboard-response","23","70094","0.0-23.0","3EICBYG645I2APDDW3782Y68BWQCJX","A2HAP8SUY3WYKR","335VBRURDJMQFRMOFGHOE9WKSHX9E1","","null","<img src=""img/flower4.png"" style=""width:200px; border:14px solid green;"">","null","","","","","","","","",""
"","image-keyboard-response","24","70763","0.0-24.0","3EICBYG645I2APDDW3782Y68BWQCJX","A2HAP8SUY3WYKR","335VBRURDJMQFRMOFGHOE9WKSHX9E1","","668.1000000238419","img/flower4.png","74","668.6000000238419","1","1","2","2","1,0,0,1,1,0,1,0,1","0,0,1,1,0,1,0,1,1","2",""
"","html-keyboard-response","25","71064","0.0-25.0","3EICBYG645I2APDDW3782Y68BWQCJX","A2HAP8SUY3WYKR","335VBRURDJMQFRMOFGHOE9WKSHX9E1","","null","<img src=""img/flower4.png"" style=""width:200px; border:14px solid green;"">","null","","","","","","","","",""
"","image-keyboard-response","26","72008","0.0-26.0","3EICBYG645I2APDDW3782Y68BWQCJX","A2HAP8SUY3WYKR","335VBRURDJMQFRMOFGHOE9WKSHX9E1","","942.7999999523163","img/flower1.png","75","943.2999999523163","2","1","3","2","1,0,0,1,1,0,1,0,1","0,0,1,1,0,1,0,1,1","2",""
"","html-keyboard-response","27","72310","0.0-27.0","3EICBYG645I2APDDW3782Y68BWQCJX","A2HAP8SUY3WYKR","335VBRURDJMQFRMOFGHOE9WKSHX9E1","","null","<img src=""img/flower1.png"" style=""width:200px; border:14px solid green;"">","null","","","","","","","","",""
"","image-keyboard-response","28","72987","0.0-28.0","3EICBYG645I2APDDW3782Y68BWQCJX","A2HAP8SUY3WYKR","335VBRURDJMQFRMOFGHOE9WKSHX9E1","","676.2999999523163","img/flower1.png","75","677","2","1","3","2","1,0,0,1,1,0,1,0,1","0,0,1,1,0,1,0,1,1","2",""
"","html-keyboard-response","29","73289","0.0-29.0","3EICBYG645I2APDDW3782Y68BWQCJX","A2HAP8SUY3WYKR","335VBRURDJMQFRMOFGHOE9WKSHX9E1","","null","<img src=""img/flower1.png"" style=""width:200px; border:14px solid green;"">","null","","","","","","","","",""
"","image-keyboard-response","30","73917","0.0-30.0","3EICBYG645I2APDDW3782Y68BWQCJX","A2HAP8SUY3WYKR","335VBRURDJMQFRMOFGHOE9WKSHX9E1","","626.3000000715256","img/flower6.png","76","627.1999999284744","3","1","1","2","1,0,0,1,1,0,1,0,1","0,0,1,1,0,1,0,1,1","2",""
"","html-keyboard-response","31","74218","0.0-31.0","3EICBYG645I2APDDW3782Y68BWQCJX","A2HAP8SUY3WYKR","335VBRURDJMQFRMOFGHOE9WKSHX9E1","","null","<img src=""img/flower6.png"" style=""width:200px; border:14px solid green;"">","null","","","","","","","","",""
"","image-keyboard-response","32","75081","0.0-32.0","3EICBYG645I2APDDW3782Y68BWQCJX","A2HAP8SUY3WYKR","335VBRURDJMQFRMOFGHOE9WKSHX9E1","","862.1000000238419","img/flower1.png","75","862.6999999284744","2","1","3","2","1,0,0,1,1,0,1,0,1","0,0,1,1,0,1,0,1,1","2",""
"","html-keyboard-response","33","75382","0.0-33.0","3EICBYG645I2APDDW3782Y68BWQCJX","A2HAP8SUY3WYKR","335VBRURDJMQFRMOFGHOE9WKSHX9E1","","null","<img src=""img/flower1.png"" style=""width:200px; border:14px solid green;"">","null","","","","","","","","",""
"","image-keyboard-response","34","75827","0.0-34.0","3EICBYG645I2APDDW3782Y68BWQCJX","A2HAP8SUY3WYKR","335VBRURDJMQFRMOFGHOE9WKSHX9E1","","444.40000009536743","img/flower1.png","75","445","2","1","3","2","1,0,0,1,1,0,1,0,1","0,0,1,1,0,1,0,1,1","2",""
"","html-keyboard-response","35","76130","0.0-35.0","3EICBYG645I2APDDW3782Y68BWQCJX","A2HAP8SUY3WYKR","335VBRURDJMQFRMOFGHOE9WKSHX9E1","","null","<img src=""img/flower1.png"" style=""width:200px; border:14px solid green;"">","null","","","","","","","","",""
"","image-keyboard-response","36","76567","0.0-36.0","3EICBYG645I2APDDW3782Y68BWQCJX","A2HAP8SUY3WYKR","335VBRURDJMQFRMOFGHOE9WKSHX9E1","","436.60000002384186","img/flower1.png","75","437.1999999284744","2","1","3","2","1,0,0,1,1,0,1,0,1","0,0,1,1,0,1,0,1,1","2",""
"","html-keyboard-response","37","76879","0.0-37.0","3EICBYG645I2APDDW3782Y68BWQCJX","A2HAP8SUY3WYKR","335VBRURDJMQFRMOFGHOE9WKSHX9E1","","null","<img src=""img/flower1.png"" style=""width:200px; border:14px solid green;"">","null","","","","","","","","",""
"","image-keyboard-response","38","77295","0.0-38.0","3EICBYG645I2APDDW3782Y68BWQCJX","A2HAP8SUY3WYKR","335VBRURDJMQFRMOFGHOE9WKSHX9E1","","415","img/flower1.png","75","415.59999990463257","2","1","3","2","1,0,0,1,1,0,1,0,1","0,0,1,1,0,1,0,1,1","2",""
"","html-keyboard-response","39","77596","0.0-39.0","3EICBYG645I2APDDW3782Y68BWQCJX","A2HAP8SUY3WYKR","335VBRURDJMQFRMOFGHOE9WKSHX9E1","","null","<img src=""img/flower1.png"" style=""width:200px; border:14px solid green;"">","null","","","","","","","","",""
"","image-keyboard-response","40","78287","0.0-40.0","3EICBYG645I2APDDW3782Y68BWQCJX","A2HAP8SUY3WYKR","335VBRURDJMQFRMOFGHOE9WKSHX9E1","","689.8999999761581","img/flower6.png","76","690.5","3","1","1","2","1,0,0,1,1,0,1,0,1","0,0,1,1,0,1,0,1,1","2",""
"","html-keyboard-response","41","78589","0.0-41.0","3EICBYG645I2APDDW3782Y68BWQCJX","A2HAP8SUY3WYKR","335VBRURDJMQFRMOFGHOE9WKSHX9E1","","null","<img src=""img/flower6.png"" style=""width:200px; border:14px solid green;"">","null","","","","","","","","",""
"","image-keyboard-response","42","79052","0.0-42.0","3EICBYG645I2APDDW3782Y68BWQCJX","A2HAP8SUY3WYKR","335VBRURDJMQFRMOFGHOE9WKSHX9E1","","463.1999999284744","img/flower6.png","76","463.8000000715256","3","1","1","2","1,0,0,1,1,0,1,0,1","0,0,1,1,0,1,0,1,1","2",""
"","html-keyboard-response","43","79354","0.0-43.0","3EICBYG645I2APDDW3782Y68BWQCJX","A2HAP8SUY3WYKR","335VBRURDJMQFRMOFGHOE9WKSHX9E1","","null","<img src=""img/flower6.png"" style=""width:200px; border:14px solid green;"">","null","","","","","","","","",""
"","image-keyboard-response","44","79988","0.0-44.0","3EICBYG645I2APDDW3782Y68BWQCJX","A2HAP8SUY3WYKR","335VBRURDJMQFRMOFGHOE9WKSHX9E1","","633.2000000476837","img/flower4.png","74","633.7999999523163","1","1","2","2","1,0,0,1,1,0,1,0,1","0,0,1,1,0,1,0,1,1","2",""
"","html-keyboard-response","45","80290","0.0-45.0","3EICBYG645I2APDDW3782Y68BWQCJX","A2HAP8SUY3WYKR","335VBRURDJMQFRMOFGHOE9WKSHX9E1","","null","<img src=""img/flower4.png"" style=""width:200px; border:14px solid green;"">","null","","","","","","","","",""
"","image-keyboard-response","46","80951","0.0-46.0","3EICBYG645I2APDDW3782Y68BWQCJX","A2HAP8SUY3WYKR","335VBRURDJMQFRMOFGHOE9WKSHX9E1","","660.3000000715256","img/flower6.png","76","660.7999999523163","3","1","1","2","1,0,0,1,1,0,1,0,1","0,0,1,1,0,1,0,1,1","2",""
"","html-keyboard-response","47","81253","0.0-47.0","3EICBYG645I2APDDW3782Y68BWQCJX","A2HAP8SUY3WYKR","335VBRURDJMQFRMOFGHOE9WKSHX9E1","","null","<img src=""img/flower6.png"" style=""width:200px; border:14px solid green;"">","null","","","","","","","","",""
"","image-keyboard-response","48","82010","0.0-48.0","3EICBYG645I2APDDW3782Y68BWQCJX","A2HAP8SUY3WYKR","335VBRURDJMQFRMOFGHOE9WKSHX9E1","","755.8000000715256","img/flower1.png","75","756.6999999284744","2","1","3","2","1,0,0,1,1,0,1,0,1","0,0,1,1,0,1,0,1,1","2",""
"","html-keyboard-response","49","82311","0.0-49.0","3EICBYG645I2APDDW3782Y68BWQCJX","A2HAP8SUY3WYKR","335VBRURDJMQFRMOFGHOE9WKSHX9E1","","null","<img src=""img/flower1.png"" style=""width:200px; border:14px solid green;"">","null","","","","","","","","",""
"","image-keyboard-response","50","82950","0.0-50.0","3EICBYG645I2APDDW3782Y68BWQCJX","A2HAP8SUY3WYKR","335VBRURDJMQFRMOFGHOE9WKSHX9E1","","638.7999999523163","img/flower4.png","74","639.6000000238419","1","1","2","2","1,0,0,1,1,0,1,0,1","0,0,1,1,0,1,0,1,1","2",""
"","html-keyboard-response","51","83253","0.0-51.0","3EICBYG645I2APDDW3782Y68BWQCJX","A2HAP8SUY3WYKR","335VBRURDJMQFRMOFGHOE9WKSHX9E1","","null","<img src=""img/flower4.png"" style=""width:200px; border:14px solid green;"">","null","","","","","","","","",""
"","image-keyboard-response","52","84112","0.0-52.0","3EICBYG645I2APDDW3782Y68BWQCJX","A2HAP8SUY3WYKR","335VBRURDJMQFRMOFGHOE9WKSHX9E1","","858","img/flower6.png","76","858.6999999284744","3","1","1","2","1,0,0,1,1,0,1,0,1","0,0,1,1,0,1,0,1,1","2",""
"","html-keyboard-response","53","84413","0.0-53.0","3EICBYG645I2APDDW3782Y68BWQCJX","A2HAP8SUY3WYKR","335VBRURDJMQFRMOFGHOE9WKSHX9E1","","null","<img src=""img/flower6.png"" style=""width:200px; border:14px solid green;"">","null","","","","","","","","",""
"","image-keyboard-response","54","84888","0.0-54.0","3EICBYG645I2APDDW3782Y68BWQCJX","A2HAP8SUY3WYKR","335VBRURDJMQFRMOFGHOE9WKSHX9E1","","474.5","img/flower6.png","76","475.3000000715256","3","1","1","2","1,0,0,1,1,0,1,0,1","0,0,1,1,0,1,0,1,1","2",""
"","html-keyboard-response","55","85191","0.0-55.0","3EICBYG645I2APDDW3782Y68BWQCJX","A2HAP8SUY3WYKR","335VBRURDJMQFRMOFGHOE9WKSHX9E1","","null","<img src=""img/flower6.png"" style=""width:200px; border:14px solid green;"">","null","","","","","","","","",""
"","image-keyboard-response","56","85899","0.0-56.0","3EICBYG645I2APDDW3782Y68BWQCJX","A2HAP8SUY3WYKR","335VBRURDJMQFRMOFGHOE9WKSHX9E1","","707.8999999761581","img/flower1.png","75","708.3999999761581","2","1","3","2","1,0,0,1,1,0,1,0,1","0,0,1,1,0,1,0,1,1","2",""
"","html-keyboard-response","57","86202","0.0-57.0","3EICBYG645I2APDDW3782Y68BWQCJX","A2HAP8SUY3WYKR","335VBRURDJMQFRMOFGHOE9WKSHX9E1","","null","<img src=""img/flower1.png"" style=""width:200px; border:14px solid green;"">","null","","","","","","","","",""
"","image-keyboard-response","58","86781","0.0-58.0","3EICBYG645I2APDDW3782Y68BWQCJX","A2HAP8SUY3WYKR","335VBRURDJMQFRMOFGHOE9WKSHX9E1","","578.3000000715256","img/flower4.png","74","579","1","1","2","2","1,0,0,1,1,0,1,0,1","0,0,1,1,0,1,0,1,1","2",""
"","html-keyboard-response","59","87083","0.0-59.0","3EICBYG645I2APDDW3782Y68BWQCJX","A2HAP8SUY3WYKR","335VBRURDJMQFRMOFGHOE9WKSHX9E1","","null","<img src=""img/flower4.png"" style=""width:200px; border:14px solid green;"">","null","","","","","","","","",""
"","image-keyboard-response","60","87721","0.0-60.0","3EICBYG645I2APDDW3782Y68BWQCJX","A2HAP8SUY3WYKR","335VBRURDJMQFRMOFGHOE9WKSHX9E1","","637.5","img/flower4.png","74","638","1","1","2","2","1,0,0,1,1,0,1,0,1","0,0,1,1,0,1,0,1,1","2",""
"","html-keyboard-response","61","88023","0.0-61.0","3EICBYG645I2APDDW3782Y68BWQCJX","A2HAP8SUY3WYKR","335VBRURDJMQFRMOFGHOE9WKSHX9E1","","null","<img src=""img/flower4.png"" style=""width:200px; border:14px solid green;"">","null","","","","","","","","",""
"","image-keyboard-response","62","88778","0.0-62.0","3EICBYG645I2APDDW3782Y68BWQCJX","A2HAP8SUY3WYKR","335VBRURDJMQFRMOFGHOE9WKSHX9E1","","754.6999999284744","img/flower6.png","76","755.3999999761581","3","1","1","2","1,0,0,1,1,0,1,0,1","0,0,1,1,0,1,0,1,1","2",""
"","html-keyboard-response","63","89080","0.0-63.0","3EICBYG645I2APDDW3782Y68BWQCJX","A2HAP8SUY3WYKR","335VBRURDJMQFRMOFGHOE9WKSHX9E1","","null","<img src=""img/flower6.png"" style=""width:200px; border:14px solid green;"">","null","","","","","","","","",""
"","image-keyboard-response","64","89709","0.0-64.0","3EICBYG645I2APDDW3782Y68BWQCJX","A2HAP8SUY3WYKR","335VBRURDJMQFRMOFGHOE9WKSHX9E1","","628.1000000238419","img/flower1.png","75","628.8000000715256","2","1","3","2","1,0,0,1,1,0,1,0,1","0,0,1,1,0,1,0,1,1","2",""
"","html-keyboard-response","65","90011","0.0-65.0","3EICBYG645I2APDDW3782Y68BWQCJX","A2HAP8SUY3WYKR","335VBRURDJMQFRMOFGHOE9WKSHX9E1","","null","<img src=""img/flower1.png"" style=""width:200px; border:14px solid green;"">","null","","","","","","","","",""
"","image-keyboard-response","66","90603","0.0-66.0","3EICBYG645I2APDDW3782Y68BWQCJX","A2HAP8SUY3WYKR","335VBRURDJMQFRMOFGHOE9WKSHX9E1","","591.3999999761581","img/flower4.png","74","592","1","1","2","2","1,0,0,1,1,0,1,0,1","0,0,1,1,0,1,0,1,1","2",""
"","html-keyboard-response","67","90906","0.0-67.0","3EICBYG645I2APDDW3782Y68BWQCJX","A2HAP8SUY3WYKR","335VBRURDJMQFRMOFGHOE9WKSHX9E1","","null","<img src=""img/flower4.png"" style=""width:200px; border:14px solid green;"">","null","","","","","","","","",""
"","image-keyboard-response","68","91390","0.0-68.0","3EICBYG645I2APDDW3782Y68BWQCJX","A2HAP8SUY3WYKR","335VBRURDJMQFRMOFGHOE9WKSHX9E1","","482.6999999284744","img/flower4.png","74","483.3000000715256","1","1","2","2","1,0,0,1,1,0,1,0,1","0,0,1,1,0,1,0,1,1","2",""
"","html-keyboard-response","69","91691","0.0-69.0","3EICBYG645I2APDDW3782Y68BWQCJX","A2HAP8SUY3WYKR","335VBRURDJMQFRMOFGHOE9WKSHX9E1","","null","<img src=""img/flower4.png"" style=""width:200px; border:14px solid green;"">","null","","","","","","","","",""
"","image-keyboard-response","70","92312","0.0-70.0","3EICBYG645I2APDDW3782Y68BWQCJX","A2HAP8SUY3WYKR","335VBRURDJMQFRMOFGHOE9WKSHX9E1","","620.3999999761581","img/flower4.png","74","620.8999999761581","1","1","2","2","1,0,0,1,1,0,1,0,1","0,0,1,1,0,1,0,1,1","2",""
"","html-keyboard-response","71","92614","0.0-71.0","3EICBYG645I2APDDW3782Y68BWQCJX","A2HAP8SUY3WYKR","335VBRURDJMQFRMOFGHOE9WKSHX9E1","","null","<img src=""img/flower4.png"" style=""width:200px; border:14px solid green;"">","null","","","","","","","","",""
"","image-keyboard-response","72","93285","0.0-72.0","3EICBYG645I2APDDW3782Y68BWQCJX","A2HAP8SUY3WYKR","335VBRURDJMQFRMOFGHOE9WKSHX9E1","","669.6999999284744","img/flower1.png","75","670.2000000476837","2","1","3","2","1,0,0,1,1,0,1,0,1","0,0,1,1,0,1,0,1,1","2",""
"","html-keyboard-response","73","93587","0.0-73.0","3EICBYG645I2APDDW3782Y68BWQCJX","A2HAP8SUY3WYKR","335VBRURDJMQFRMOFGHOE9WKSHX9E1","","null","<img src=""img/flower1.png"" style=""width:200px; border:14px solid green;"">","null","","","","","","","","",""
"","image-keyboard-response","74","94092","0.0-74.0","3EICBYG645I2APDDW3782Y68BWQCJX","A2HAP8SUY3WYKR","335VBRURDJMQFRMOFGHOE9WKSHX9E1","","504.7000000476837","img/flower1.png","75","505.2999999523163","2","1","3","2","1,0,0,1,1,0,1,0,1","0,0,1,1,0,1,0,1,1","2",""
"","html-keyboard-response","75","94395","0.0-75.0","3EICBYG645I2APDDW3782Y68BWQCJX","A2HAP8SUY3WYKR","335VBRURDJMQFRMOFGHOE9WKSHX9E1","","null","<img src=""img/flower1.png"" style=""width:200px; border:14px solid green;"">","null","","","","","","","","",""
"","image-keyboard-response","76","95200","0.0-76.0","3EICBYG645I2APDDW3782Y68BWQCJX","A2HAP8SUY3WYKR","335VBRURDJMQFRMOFGHOE9WKSHX9E1","","804.4000000953674","img/flower4.png","74","804.8999999761581","1","1","2","2","1,0,0,1,1,0,1,0,1","0,0,1,1,0,1,0,1,1","2",""
"","html-keyboard-response","77","95501","0.0-77.0","3EICBYG645I2APDDW3782Y68BWQCJX","A2HAP8SUY3WYKR","335VBRURDJMQFRMOFGHOE9WKSHX9E1","","null","<img src=""img/flower4.png"" style=""width:200px; border:14px solid green;"">","null","","","","","","","","",""
"","image-keyboard-response","78","96212","0.0-78.0","3EICBYG645I2APDDW3782Y68BWQCJX","A2HAP8SUY3WYKR","335VBRURDJMQFRMOFGHOE9WKSHX9E1","","710","img/flower1.png","75","710.6999999284744","2","1","3","2","1,0,0,1,1,0,1,0,1","0,0,1,1,0,1,0,1,1","2",""
"","html-keyboard-response","79","96514","0.0-79.0","3EICBYG645I2APDDW3782Y68BWQCJX","A2HAP8SUY3WYKR","335VBRURDJMQFRMOFGHOE9WKSHX9E1","","null","<img src=""img/flower1.png"" style=""width:200px; border:14px solid green;"">","null","","","","","","","","",""
"","image-keyboard-response","80","97187","0.0-80.0","3EICBYG645I2APDDW3782Y68BWQCJX","A2HAP8SUY3WYKR","335VBRURDJMQFRMOFGHOE9WKSHX9E1","","671.8000000715256","img/flower6.png","76","672.6000000238419","3","1","1","2","1,0,0,1,1,0,1,0,1","0,0,1,1,0,1,0,1,1","2",""
"","html-keyboard-response","81","97501","0.0-81.0","3EICBYG645I2APDDW3782Y68BWQCJX","A2HAP8SUY3WYKR","335VBRURDJMQFRMOFGHOE9WKSHX9E1","","null","<img src=""img/flower6.png"" style=""width:200px; border:14px solid green;"">","null","","","","","","","","",""
"","image-keyboard-response","82","98066","0.0-82.0","3EICBYG645I2APDDW3782Y68BWQCJX","A2HAP8SUY3WYKR","335VBRURDJMQFRMOFGHOE9WKSHX9E1","","564.1000000238419","img/flower6.png","76","564.6000000238419","3","1","1","2","1,0,0,1,1,0,1,0,1","0,0,1,1,0,1,0,1,1","2",""
"","html-keyboard-response","83","98368","0.0-83.0","3EICBYG645I2APDDW3782Y68BWQCJX","A2HAP8SUY3WYKR","335VBRURDJMQFRMOFGHOE9WKSHX9E1","","null","<img src=""img/flower6.png"" style=""width:200px; border:14px solid green;"">","null","","","","","","","","",""
"","image-keyboard-response","84","99065","0.0-84.0","3EICBYG645I2APDDW3782Y68BWQCJX","A2HAP8SUY3WYKR","335VBRURDJMQFRMOFGHOE9WKSHX9E1","","695.8999999761581","img/flower4.png","74","696.5","1","1","2","2","1,0,0,1,1,0,1,0,1","0,0,1,1,0,1,0,1,1","2",""
"","html-keyboard-response","85","99366","0.0-85.0","3EICBYG645I2APDDW3782Y68BWQCJX","A2HAP8SUY3WYKR","335VBRURDJMQFRMOFGHOE9WKSHX9E1","","null","<img src=""img/flower4.png"" style=""width:200px; border:14px solid green;"">","null","","","","","","","","",""
"","image-keyboard-response","86","99917","0.0-86.0","3EICBYG645I2APDDW3782Y68BWQCJX","A2HAP8SUY3WYKR","335VBRURDJMQFRMOFGHOE9WKSHX9E1","","549.8999999761581","img/flower4.png","74","550.4000000953674","1","1","2","2","1,0,0,1,1,0,1,0,1","0,0,1,1,0,1,0,1,1","2",""
"","html-keyboard-response","87","100219","0.0-87.0","3EICBYG645I2APDDW3782Y68BWQCJX","A2HAP8SUY3WYKR","335VBRURDJMQFRMOFGHOE9WKSHX9E1","","null","<img src=""img/flower4.png"" style=""width:200px; border:14px solid green;"">","null","","","","","","","","",""
"","image-keyboard-response","88","100879","0.0-88.0","3EICBYG645I2APDDW3782Y68BWQCJX","A2HAP8SUY3WYKR","335VBRURDJMQFRMOFGHOE9WKSHX9E1","","659.5","img/flower4.png","74","660","1","1","2","2","1,0,0,1,1,0,1,0,1","0,0,1,1,0,1,0,1,1","2",""
"","html-keyboard-response","89","101182","0.0-89.0","3EICBYG645I2APDDW3782Y68BWQCJX","A2HAP8SUY3WYKR","335VBRURDJMQFRMOFGHOE9WKSHX9E1","","null","<img src=""img/flower4.png"" style=""width:200px; border:14px solid green;"">","null","","","","","","","","",""
"","image-keyboard-response","90","101962","0.0-90.0","3EICBYG645I2APDDW3782Y68BWQCJX","A2HAP8SUY3WYKR","335VBRURDJMQFRMOFGHOE9WKSHX9E1","","779.6999999284744","img/flower6.png","76","780.3000000715256","3","1","1","2","1,0,0,1,1,0,1,0,1","0,0,1,1,0,1,0,1,1","2",""
"","html-keyboard-response","91","102264","0.0-91.0","3EICBYG645I2APDDW3782Y68BWQCJX","A2HAP8SUY3WYKR","335VBRURDJMQFRMOFGHOE9WKSHX9E1","","null","<img src=""img/flower6.png"" style=""width:200px; border:14px solid green;"">","null","","","","","","","","",""
"","image-keyboard-response","92","102909","0.0-92.0","3EICBYG645I2APDDW3782Y68BWQCJX","A2HAP8SUY3WYKR","335VBRURDJMQFRMOFGHOE9WKSHX9E1","","644.2000000476837","img/flower4.png","74","644.7999999523163","1","1","2","2","1,0,0,1,1,0,1,0,1","0,0,1,1,0,1,0,1,1","2",""
"","html-keyboard-response","93","103211","0.0-93.0","3EICBYG645I2APDDW3782Y68BWQCJX","A2HAP8SUY3WYKR","335VBRURDJMQFRMOFGHOE9WKSHX9E1","","null","<img src=""img/flower4.png"" style=""width:200px; border:14px solid green;"">","null","","","","","","","","",""
"","image-keyboard-response","94","104142","0.0-94.0","3EICBYG645I2APDDW3782Y68BWQCJX","A2HAP8SUY3WYKR","335VBRURDJMQFRMOFGHOE9WKSHX9E1","","930.6000000238419","img/flower6.png","76","931.1000000238419","3","1","1","2","1,0,0,1,1,0,1,0,1","0,0,1,1,0,1,0,1,1","2",""
"","html-keyboard-response","95","104445","0.0-95.0","3EICBYG645I2APDDW3782Y68BWQCJX","A2HAP8SUY3WYKR","335VBRURDJMQFRMOFGHOE9WKSHX9E1","","null","<img src=""img/flower6.png"" style=""width:200px; border:14px solid green;"">","null","","","","","","","","",""
"","image-keyboard-response","96","105117","0.0-96.0","3EICBYG645I2APDDW3782Y68BWQCJX","A2HAP8SUY3WYKR","335VBRURDJMQFRMOFGHOE9WKSHX9E1","","671.7000000476837","img/flower1.png","75","672.1999999284744","2","1","3","2","1,0,0,1,1,0,1,0,1","0,0,1,1,0,1,0,1,1","2",""
"","html-keyboard-response","97","105419","0.0-97.0","3EICBYG645I2APDDW3782Y68BWQCJX","A2HAP8SUY3WYKR","335VBRURDJMQFRMOFGHOE9WKSHX9E1","","null","<img src=""img/flower1.png"" style=""width:200px; border:14px solid green;"">","null","","","","","","","","",""
"","image-keyboard-response","98","106154","0.0-98.0","3EICBYG645I2APDDW3782Y68BWQCJX","A2HAP8SUY3WYKR","335VBRURDJMQFRMOFGHOE9WKSHX9E1","","734.1999999284744","img/flower6.png","76","734.8999999761581","3","1","1","2","1,0,0,1,1,0,1,0,1","0,0,1,1,0,1,0,1,1","2",""
"","html-keyboard-response","99","106457","0.0-99.0","3EICBYG645I2APDDW3782Y68BWQCJX","A2HAP8SUY3WYKR","335VBRURDJMQFRMOFGHOE9WKSHX9E1","","null","<img src=""img/flower6.png"" style=""width:200px; border:14px solid green;"">","null","","","","","","","","",""
"","image-keyboard-response","100","107094","0.0-100.0","3EICBYG645I2APDDW3782Y68BWQCJX","A2HAP8SUY3WYKR","335VBRURDJMQFRMOFGHOE9WKSHX9E1","","636.2999999523163","img/flower4.png","74","636.8999999761581","1","1","2","2","1,0,0,1,1,0,1,0,1","0,0,1,1,0,1,0,1,1","2",""
"","html-keyboard-response","101","107396","0.0-101.0","3EICBYG645I2APDDW3782Y68BWQCJX","A2HAP8SUY3WYKR","335VBRURDJMQFRMOFGHOE9WKSHX9E1","","null","<img src=""img/flower4.png"" style=""width:200px; border:14px solid green;"">","null","","","","","","","","",""
"","image-keyboard-response","102","108125","0.0-102.0","3EICBYG645I2APDDW3782Y68BWQCJX","A2HAP8SUY3WYKR","335VBRURDJMQFRMOFGHOE9WKSHX9E1","","728","img/flower6.png","76","728.7000000476837","3","1","1","2","1,0,0,1,1,0,1,0,1","0,0,1,1,0,1,0,1,1","2",""
"","html-keyboard-response","103","108427","0.0-103.0","3EICBYG645I2APDDW3782Y68BWQCJX","A2HAP8SUY3WYKR","335VBRURDJMQFRMOFGHOE9WKSHX9E1","","null","<img src=""img/flower6.png"" style=""width:200px; border:14px solid green;"">","null","","","","","","","","",""
"","image-keyboard-response","104","109083","0.0-104.0","3EICBYG645I2APDDW3782Y68BWQCJX","A2HAP8SUY3WYKR","335VBRURDJMQFRMOFGHOE9WKSHX9E1","","655.2000000476837","img/flower1.png","75","655.6000000238419","2","1","3","2","1,0,0,1,1,0,1,0,1","0,0,1,1,0,1,0,1,1","2",""
"","html-keyboard-response","105","109385","0.0-105.0","3EICBYG645I2APDDW3782Y68BWQCJX","A2HAP8SUY3WYKR","335VBRURDJMQFRMOFGHOE9WKSHX9E1","","null","<img src=""img/flower1.png"" style=""width:200px; border:14px solid green;"">","null","","","","","","","","",""
"","image-keyboard-response","106","109955","0.0-106.0","3EICBYG645I2APDDW3782Y68BWQCJX","A2HAP8SUY3WYKR","335VBRURDJMQFRMOFGHOE9WKSHX9E1","","569.6000000238419","img/flower1.png","75","570.1000000238419","2","1","3","2","1,0,0,1,1,0,1,0,1","0,0,1,1,0,1,0,1,1","2",""
"","html-keyboard-response","107","110257","0.0-107.0","3EICBYG645I2APDDW3782Y68BWQCJX","A2HAP8SUY3WYKR","335VBRURDJMQFRMOFGHOE9WKSHX9E1","","null","<img src=""img/flower1.png"" style=""width:200px; border:14px solid green;"">","null","","","","","","","","",""
"","image-keyboard-response","108","110686","0.0-108.0","3EICBYG645I2APDDW3782Y68BWQCJX","A2HAP8SUY3WYKR","335VBRURDJMQFRMOFGHOE9WKSHX9E1","","427.7000000476837","img/flower1.png","75","428.1999999284744","2","1","3","2","1,0,0,1,1,0,1,0,1","0,0,1,1,0,1,0,1,1","2",""
"","html-keyboard-response","109","110988","0.0-109.0","3EICBYG645I2APDDW3782Y68BWQCJX","A2HAP8SUY3WYKR","335VBRURDJMQFRMOFGHOE9WKSHX9E1","","null","<img src=""img/flower1.png"" style=""width:200px; border:14px solid green;"">","null","","","","","","","","",""
"","image-keyboard-response","110","111561","0.0-110.0","3EICBYG645I2APDDW3782Y68BWQCJX","A2HAP8SUY3WYKR","335VBRURDJMQFRMOFGHOE9WKSHX9E1","","572","img/flower4.png","74","572.5","1","1","2","2","1,0,0,1,1,0,1,0,1","0,0,1,1,0,1,0,1,1","2",""
"","html-keyboard-response","111","111863","0.0-111.0","3EICBYG645I2APDDW3782Y68BWQCJX","A2HAP8SUY3WYKR","335VBRURDJMQFRMOFGHOE9WKSHX9E1","","null","<img src=""img/flower4.png"" style=""width:200px; border:14px solid green;"">","null","","","","","","","","",""
"","image-keyboard-response","112","112463","0.0-112.0","3EICBYG645I2APDDW3782Y68BWQCJX","A2HAP8SUY3WYKR","335VBRURDJMQFRMOFGHOE9WKSHX9E1","","599.1000000238419","img/flower1.png","75","599.7000000476837","2","1","3","2","1,0,0,1,1,0,1,0,1","0,0,1,1,0,1,0,1,1","2",""
"","html-keyboard-response","113","112765","0.0-113.0","3EICBYG645I2APDDW3782Y68BWQCJX","A2HAP8SUY3WYKR","335VBRURDJMQFRMOFGHOE9WKSHX9E1","","null","<img src=""img/flower1.png"" style=""width:200px; border:14px solid green;"">","null","","","","","","","","",""
"","image-keyboard-response","114","113378","0.0-114.0","3EICBYG645I2APDDW3782Y68BWQCJX","A2HAP8SUY3WYKR","335VBRURDJMQFRMOFGHOE9WKSHX9E1","","613.4000000953674","img/flower4.png","74","613.8999999761581","1","1","2","2","1,0,0,1,1,0,1,0,1","0,0,1,1,0,1,0,1,1","2",""
"","html-keyboard-response","115","113680","0.0-115.0","3EICBYG645I2APDDW3782Y68BWQCJX","A2HAP8SUY3WYKR","335VBRURDJMQFRMOFGHOE9WKSHX9E1","","null","<img src=""img/flower4.png"" style=""width:200px; border:14px solid green;"">","null","","","","","","","","",""
"","image-keyboard-response","116","114133","0.0-116.0","3EICBYG645I2APDDW3782Y68BWQCJX","A2HAP8SUY3WYKR","335VBRURDJMQFRMOFGHOE9WKSHX9E1","","452.5","img/flower4.png","74","453.2999999523163","1","1","2","2","1,0,0,1,1,0,1,0,1","0,0,1,1,0,1,0,1,1","2",""
"","html-keyboard-response","117","114436","0.0-117.0","3EICBYG645I2APDDW3782Y68BWQCJX","A2HAP8SUY3WYKR","335VBRURDJMQFRMOFGHOE9WKSHX9E1","","null","<img src=""img/flower4.png"" style=""width:200px; border:14px solid green;"">","null","","","","","","","","",""
"","image-keyboard-response","118","114949","0.0-118.0","3EICBYG645I2APDDW3782Y68BWQCJX","A2HAP8SUY3WYKR","335VBRURDJMQFRMOFGHOE9WKSHX9E1","","512.8000000715256","img/flower4.png","74","513.3999999761581","1","1","2","2","1,0,0,1,1,0,1,0,1","0,0,1,1,0,1,0,1,1","2",""
"","html-keyboard-response","119","115251","0.0-119.0","3EICBYG645I2APDDW3782Y68BWQCJX","A2HAP8SUY3WYKR","335VBRURDJMQFRMOFGHOE9WKSHX9E1","","null","<img src=""img/flower4.png"" style=""width:200px; border:14px solid green;"">","null","","","","","","","","",""
"","image-keyboard-response","120","115769","0.0-120.0","3EICBYG645I2APDDW3782Y68BWQCJX","A2HAP8SUY3WYKR","335VBRURDJMQFRMOFGHOE9WKSHX9E1","","517","img/flower4.png","74","517.7000000476837","1","1","2","2","1,0,0,1,1,0,1,0,1","0,0,1,1,0,1,0,1,1","2",""
"","html-keyboard-response","121","116071","0.0-121.0","3EICBYG645I2APDDW3782Y68BWQCJX","A2HAP8SUY3WYKR","335VBRURDJMQFRMOFGHOE9WKSHX9E1","","null","<img src=""img/flower4.png"" style=""width:200px; border:14px solid green;"">","null","","","","","","","","",""
"","image-keyboard-response","122","116718","0.0-122.0","3EICBYG645I2APDDW3782Y68BWQCJX","A2HAP8SUY3WYKR","335VBRURDJMQFRMOFGHOE9WKSHX9E1","","646.6000000238419","img/flower1.png","75","647.1999999284744","2","1","3","2","1,0,0,1,1,0,1,0,1","0,0,1,1,0,1,0,1,1","2",""
"","html-keyboard-response","123","117021","0.0-123.0","3EICBYG645I2APDDW3782Y68BWQCJX","A2HAP8SUY3WYKR","335VBRURDJMQFRMOFGHOE9WKSHX9E1","","null","<img src=""img/flower1.png"" style=""width:200px; border:14px solid green;"">","null","","","","","","","","",""
"","image-keyboard-response","124","117493","0.0-124.0","3EICBYG645I2APDDW3782Y68BWQCJX","A2HAP8SUY3WYKR","335VBRURDJMQFRMOFGHOE9WKSHX9E1","","471.3000000715256","img/flower1.png","75","471.7999999523163","2","1","3","2","1,0,0,1,1,0,1,0,1","0,0,1,1,0,1,0,1,1","2",""
"","html-keyboard-response","125","117795","0.0-125.0","3EICBYG645I2APDDW3782Y68BWQCJX","A2HAP8SUY3WYKR","335VBRURDJMQFRMOFGHOE9WKSHX9E1","","null","<img src=""img/flower1.png"" style=""width:200px; border:14px solid green;"">","null","","","","","","","","",""
"","image-keyboard-response","126","118331","0.0-126.0","3EICBYG645I2APDDW3782Y68BWQCJX","A2HAP8SUY3WYKR","335VBRURDJMQFRMOFGHOE9WKSHX9E1","","536.1000000238419","img/flower6.png","76","536.6000000238419","3","1","1","2","1,0,0,1,1,0,1,0,1","0,0,1,1,0,1,0,1,1","2",""
"","html-keyboard-response","127","118633","0.0-127.0","3EICBYG645I2APDDW3782Y68BWQCJX","A2HAP8SUY3WYKR","335VBRURDJMQFRMOFGHOE9WKSHX9E1","","null","<img src=""img/flower6.png"" style=""width:200px; border:14px solid green;"">","null","","","","","","","","",""
"","image-keyboard-response","128","119186","0.0-128.0","3EICBYG645I2APDDW3782Y68BWQCJX","A2HAP8SUY3WYKR","335VBRURDJMQFRMOFGHOE9WKSHX9E1","","550.8999999761581","img/flower1.png","75","551.3999999761581","2","1","3","2","1,0,0,1,1,0,1,0,1","0,0,1,1,0,1,0,1,1","2",""
"","html-keyboard-response","129","119488","0.0-129.0","3EICBYG645I2APDDW3782Y68BWQCJX","A2HAP8SUY3WYKR","335VBRURDJMQFRMOFGHOE9WKSHX9E1","","null","<img src=""img/flower1.png"" style=""width:200px; border:14px solid green;"">","null","","","","","","","","",""
"","image-keyboard-response","130","119948","0.0-130.0","3EICBYG645I2APDDW3782Y68BWQCJX","A2HAP8SUY3WYKR","335VBRURDJMQFRMOFGHOE9WKSHX9E1","","459","img/flower1.png","75","459.60000002384186","2","1","3","2","1,0,0,1,1,0,1,0,1","0,0,1,1,0,1,0,1,1","2",""
"","html-keyboard-response","131","120250","0.0-131.0","3EICBYG645I2APDDW3782Y68BWQCJX","A2HAP8SUY3WYKR","335VBRURDJMQFRMOFGHOE9WKSHX9E1","","null","<img src=""img/flower1.png"" style=""width:200px; border:14px solid green;"">","null","","","","","","","","",""
"","image-keyboard-response","132","120770","0.0-132.0","3EICBYG645I2APDDW3782Y68BWQCJX","A2HAP8SUY3WYKR","335VBRURDJMQFRMOFGHOE9WKSHX9E1","","519.3000000715256","img/flower4.png","74","519.7999999523163","1","1","2","2","1,0,0,1,1,0,1,0,1","0,0,1,1,0,1,0,1,1","2",""
"","html-keyboard-response","133","121072","0.0-133.0","3EICBYG645I2APDDW3782Y68BWQCJX","A2HAP8SUY3WYKR","335VBRURDJMQFRMOFGHOE9WKSHX9E1","","null","<img src=""img/flower4.png"" style=""width:200px; border:14px solid green;"">","null","","","","","","","","",""
"","image-keyboard-response","134","121703","0.0-134.0","3EICBYG645I2APDDW3782Y68BWQCJX","A2HAP8SUY3WYKR","335VBRURDJMQFRMOFGHOE9WKSHX9E1","","630.7000000476837","img/flower1.png","75","631.2000000476837","2","1","3","2","1,0,0,1,1,0,1,0,1","0,0,1,1,0,1,0,1,1","2",""
"","html-keyboard-response","135","122005","0.0-135.0","3EICBYG645I2APDDW3782Y68BWQCJX","A2HAP8SUY3WYKR","335VBRURDJMQFRMOFGHOE9WKSHX9E1","","null","<img src=""img/flower1.png"" style=""width:200px; border:14px solid green;"">","null","","","","","","","","",""
"","image-keyboard-response","136","122649","0.0-136.0","3EICBYG645I2APDDW3782Y68BWQCJX","A2HAP8SUY3WYKR","335VBRURDJMQFRMOFGHOE9WKSHX9E1","","642.7999999523163","img/flower4.png","74","643.3000000715256","1","1","2","2","1,0,0,1,1,0,1,0,1","0,0,1,1,0,1,0,1,1","2",""
"","html-keyboard-response","137","122951","0.0-137.0","3EICBYG645I2APDDW3782Y68BWQCJX","A2HAP8SUY3WYKR","335VBRURDJMQFRMOFGHOE9WKSHX9E1","","null","<img src=""img/flower4.png"" style=""width:200px; border:14px solid green;"">","null","","","","","","","","",""
"","image-keyboard-response","138","123504","0.0-138.0","3EICBYG645I2APDDW3782Y68BWQCJX","A2HAP8SUY3WYKR","335VBRURDJMQFRMOFGHOE9WKSHX9E1","","552.3999999761581","img/flower6.png","75","553","2","0","1","2","1,0,0,1,1,0,1,0,1","0,0,1,1,0,1,0,1,1","2",""
"","html-keyboard-response","139","123805","0.0-139.0","3EICBYG645I2APDDW3782Y68BWQCJX","A2HAP8SUY3WYKR","335VBRURDJMQFRMOFGHOE9WKSHX9E1","","null","<img src=""img/flower6.png"" style=""width:200px;border:14px solid red;"">","null","","","","","","","","",""
"","image-keyboard-response","140","123950","0.0-140.0","3EICBYG645I2APDDW3782Y68BWQCJX","A2HAP8SUY3WYKR","335VBRURDJMQFRMOFGHOE9WKSHX9E1","","144.40000009536743","img/flower6.png","76","145","3","1","1","2","1,0,0,1,1,0,1,0,1","0,0,1,1,0,1,0,1,1","2",""
"","html-keyboard-response","141","124252","0.0-141.0","3EICBYG645I2APDDW3782Y68BWQCJX","A2HAP8SUY3WYKR","335VBRURDJMQFRMOFGHOE9WKSHX9E1","","null","<img src=""img/flower6.png"" style=""width:200px; border:14px solid green;"">","null","","","","","","","","",""
"","image-keyboard-response","142","124941","0.0-142.0","3EICBYG645I2APDDW3782Y68BWQCJX","A2HAP8SUY3WYKR","335VBRURDJMQFRMOFGHOE9WKSHX9E1","","687.6000000238419","img/flower1.png","75","688.2999999523163","2","1","3","2","1,0,0,1,1,0,1,0,1","0,0,1,1,0,1,0,1,1","2",""
"","html-keyboard-response","143","125243","0.0-143.0","3EICBYG645I2APDDW3782Y68BWQCJX","A2HAP8SUY3WYKR","335VBRURDJMQFRMOFGHOE9WKSHX9E1","","null","<img src=""img/flower1.png"" style=""width:200px; border:14px solid green;"">","null","","","","","","","","",""
"","image-keyboard-response","144","125733","0.0-144.0","3EICBYG645I2APDDW3782Y68BWQCJX","A2HAP8SUY3WYKR","335VBRURDJMQFRMOFGHOE9WKSHX9E1","","489.60000002384186","img/flower1.png","75","490.40000009536743","2","1","3","2","1,0,0,1,1,0,1,0,1","0,0,1,1,0,1,0,1,1","2",""
"","html-keyboard-response","145","126035","0.0-145.0","3EICBYG645I2APDDW3782Y68BWQCJX","A2HAP8SUY3WYKR","335VBRURDJMQFRMOFGHOE9WKSHX9E1","","null","<img src=""img/flower1.png"" style=""width:200px; border:14px solid green;"">","null","","","","","","","","",""
"","image-keyboard-response","146","126575","0.0-146.0","3EICBYG645I2APDDW3782Y68BWQCJX","A2HAP8SUY3WYKR","335VBRURDJMQFRMOFGHOE9WKSHX9E1","","538.7999999523163","img/flower4.png","74","539.3999999761581","1","1","2","2","1,0,0,1,1,0,1,0,1","0,0,1,1,0,1,0,1,1","2",""
"","html-keyboard-response","147","126892","0.0-147.0","3EICBYG645I2APDDW3782Y68BWQCJX","A2HAP8SUY3WYKR","335VBRURDJMQFRMOFGHOE9WKSHX9E1","","null","<img src=""img/flower4.png"" style=""width:200px; border:14px solid green;"">","null","","","","","","","","",""
"","image-keyboard-response","148","127488","0.0-148.0","3EICBYG645I2APDDW3782Y68BWQCJX","A2HAP8SUY3WYKR","335VBRURDJMQFRMOFGHOE9WKSHX9E1","","595.1000000238419","img/flower1.png","75","595.8000000715256","2","1","3","2","1,0,0,1,1,0,1,0,1","0,0,1,1,0,1,0,1,1","2",""
"","html-keyboard-response","149","127789","0.0-149.0","3EICBYG645I2APDDW3782Y68BWQCJX","A2HAP8SUY3WYKR","335VBRURDJMQFRMOFGHOE9WKSHX9E1","","null","<img src=""img/flower1.png"" style=""width:200px; border:14px solid green;"">","null","","","","","","","","",""
"","image-keyboard-response","150","128388","0.0-150.0","3EICBYG645I2APDDW3782Y68BWQCJX","A2HAP8SUY3WYKR","335VBRURDJMQFRMOFGHOE9WKSHX9E1","","598","img/flower1.png","75","598.6000000238419","2","1","3","2","1,0,0,1,1,0,1,0,1","0,0,1,1,0,1,0,1,1","2",""
"","html-keyboard-response","151","128689","0.0-151.0","3EICBYG645I2APDDW3782Y68BWQCJX","A2HAP8SUY3WYKR","335VBRURDJMQFRMOFGHOE9WKSHX9E1","","null","<img src=""img/flower1.png"" style=""width:200px; border:14px solid green;"">","null","","","","","","","","",""
"","image-keyboard-response","152","129305","0.0-152.0","3EICBYG645I2APDDW3782Y68BWQCJX","A2HAP8SUY3WYKR","335VBRURDJMQFRMOFGHOE9WKSHX9E1","","614.8999999761581","img/flower6.png","76","615.6000000238419","3","1","1","2","1,0,0,1,1,0,1,0,1","0,0,1,1,0,1,0,1,1","2",""
"","html-keyboard-response","153","129607","0.0-153.0","3EICBYG645I2APDDW3782Y68BWQCJX","A2HAP8SUY3WYKR","335VBRURDJMQFRMOFGHOE9WKSHX9E1","","null","<img src=""img/flower6.png"" style=""width:200px; border:14px solid green;"">","null","","","","","","","","",""
"","image-keyboard-response","154","130079","0.0-154.0","3EICBYG645I2APDDW3782Y68BWQCJX","A2HAP8SUY3WYKR","335VBRURDJMQFRMOFGHOE9WKSHX9E1","","471.6999999284744","img/flower6.png","76","472.2000000476837","3","1","1","2","1,0,0,1,1,0,1,0,1","0,0,1,1,0,1,0,1,1","2",""
"","html-keyboard-response","155","130381","0.0-155.0","3EICBYG645I2APDDW3782Y68BWQCJX","A2HAP8SUY3WYKR","335VBRURDJMQFRMOFGHOE9WKSHX9E1","","null","<img src=""img/flower6.png"" style=""width:200px; border:14px solid green;"">","null","","","","","","","","",""
"","image-keyboard-response","156","130839","0.0-156.0","3EICBYG645I2APDDW3782Y68BWQCJX","A2HAP8SUY3WYKR","335VBRURDJMQFRMOFGHOE9WKSHX9E1","","457.6999999284744","img/flower6.png","76","458.2000000476837","3","1","1","2","1,0,0,1,1,0,1,0,1","0,0,1,1,0,1,0,1,1","2",""
"","html-keyboard-response","157","131142","0.0-157.0","3EICBYG645I2APDDW3782Y68BWQCJX","A2HAP8SUY3WYKR","335VBRURDJMQFRMOFGHOE9WKSHX9E1","","null","<img src=""img/flower6.png"" style=""width:200px; border:14px solid green;"">","null","","","","","","","","",""
"","image-keyboard-response","158","131790","0.0-158.0","3EICBYG645I2APDDW3782Y68BWQCJX","A2HAP8SUY3WYKR","335VBRURDJMQFRMOFGHOE9WKSHX9E1","","647.2999999523163","img/flower4.png","74","647.8000000715256","1","1","2","2","1,0,0,1,1,0,1,0,1","0,0,1,1,0,1,0,1,1","2",""
"","html-keyboard-response","159","132092","0.0-159.0","3EICBYG645I2APDDW3782Y68BWQCJX","A2HAP8SUY3WYKR","335VBRURDJMQFRMOFGHOE9WKSHX9E1","","null","<img src=""img/flower4.png"" style=""width:200px; border:14px solid green;"">","null","","","","","","","","",""
"","image-keyboard-response","160","133336","0.0-160.0","3EICBYG645I2APDDW3782Y68BWQCJX","A2HAP8SUY3WYKR","335VBRURDJMQFRMOFGHOE9WKSHX9E1","","1242.6999999284744","img/flower6.png","76","1243.3000000715256","3","1","1","2","1,0,0,1,1,0,1,0,1","0,0,1,1,0,1,0,1,1","2",""
"","html-keyboard-response","161","133638","0.0-161.0","3EICBYG645I2APDDW3782Y68BWQCJX","A2HAP8SUY3WYKR","335VBRURDJMQFRMOFGHOE9WKSHX9E1","","null","<img src=""img/flower6.png"" style=""width:200px; border:14px solid green;"">","null","","","","","","","","",""
"","image-keyboard-response","162","134328","0.0-162.0","3EICBYG645I2APDDW3782Y68BWQCJX","A2HAP8SUY3WYKR","335VBRURDJMQFRMOFGHOE9WKSHX9E1","","689.3000000715256","img/flower4.png","74","689.7999999523163","1","1","2","2","1,0,0,1,1,0,1,0,1","0,0,1,1,0,1,0,1,1","2",""
"","html-keyboard-response","163","134629","0.0-163.0","3EICBYG645I2APDDW3782Y68BWQCJX","A2HAP8SUY3WYKR","335VBRURDJMQFRMOFGHOE9WKSHX9E1","","null","<img src=""img/flower4.png"" style=""width:200px; border:14px solid green;"">","null","","","","","","","","",""
"","image-keyboard-response","164","135236","0.0-164.0","3EICBYG645I2APDDW3782Y68BWQCJX","A2HAP8SUY3WYKR","335VBRURDJMQFRMOFGHOE9WKSHX9E1","","605.6000000238419","img/flower6.png","76","606.1000000238419","3","1","1","2","1,0,0,1,1,0,1,0,1","0,0,1,1,0,1,0,1,1","2",""
"","html-keyboard-response","165","135538","0.0-165.0","3EICBYG645I2APDDW3782Y68BWQCJX","A2HAP8SUY3WYKR","335VBRURDJMQFRMOFGHOE9WKSHX9E1","","null","<img src=""img/flower6.png"" style=""width:200px; border:14px solid green;"">","null","","","","","","","","",""
"","image-keyboard-response","166","136028","0.0-166.0","3EICBYG645I2APDDW3782Y68BWQCJX","A2HAP8SUY3WYKR","335VBRURDJMQFRMOFGHOE9WKSHX9E1","","488.7000000476837","img/flower6.png","76","489.5","3","1","1","2","1,0,0,1,1,0,1,0,1","0,0,1,1,0,1,0,1,1","2",""
"","html-keyboard-response","167","136329","0.0-167.0","3EICBYG645I2APDDW3782Y68BWQCJX","A2HAP8SUY3WYKR","335VBRURDJMQFRMOFGHOE9WKSHX9E1","","null","<img src=""img/flower6.png"" style=""width:200px; border:14px solid green;"">","null","","","","","","","","",""
"","image-keyboard-response","168","136821","0.0-168.0","3EICBYG645I2APDDW3782Y68BWQCJX","A2HAP8SUY3WYKR","335VBRURDJMQFRMOFGHOE9WKSHX9E1","","490.89999997615814","img/flower4.png","74","491.39999997615814","1","1","2","2","1,0,0,1,1,0,1,0,1","0,0,1,1,0,1,0,1,1","2",""
"","html-keyboard-response","169","137123","0.0-169.0","3EICBYG645I2APDDW3782Y68BWQCJX","A2HAP8SUY3WYKR","335VBRURDJMQFRMOFGHOE9WKSHX9E1","","null","<img src=""img/flower4.png"" style=""width:200px; border:14px solid green;"">","null","","","","","","","","",""
"","image-keyboard-response","170","137799","0.0-170.0","3EICBYG645I2APDDW3782Y68BWQCJX","A2HAP8SUY3WYKR","335VBRURDJMQFRMOFGHOE9WKSHX9E1","","675.7999999523163","img/flower1.png","75","676.5","2","1","3","2","1,0,0,1,1,0,1,0,1","0,0,1,1,0,1,0,1,1","2",""
"","html-keyboard-response","171","138101","0.0-171.0","3EICBYG645I2APDDW3782Y68BWQCJX","A2HAP8SUY3WYKR","335VBRURDJMQFRMOFGHOE9WKSHX9E1","","null","<img src=""img/flower1.png"" style=""width:200px; border:14px solid green;"">","null","","","","","","","","",""
"","image-keyboard-response","172","138634","0.0-172.0","3EICBYG645I2APDDW3782Y68BWQCJX","A2HAP8SUY3WYKR","335VBRURDJMQFRMOFGHOE9WKSHX9E1","","532.5","img/flower6.png","76","533.0999999046326","3","1","1","2","1,0,0,1,1,0,1,0,1","0,0,1,1,0,1,0,1,1","2",""
"","html-keyboard-response","173","138935","0.0-173.0","3EICBYG645I2APDDW3782Y68BWQCJX","A2HAP8SUY3WYKR","335VBRURDJMQFRMOFGHOE9WKSHX9E1","","null","<img src=""img/flower6.png"" style=""width:200px; border:14px solid green;"">","null","","","","","","","","",""
"","image-keyboard-response","174","139383","0.0-174.0","3EICBYG645I2APDDW3782Y68BWQCJX","A2HAP8SUY3WYKR","335VBRURDJMQFRMOFGHOE9WKSHX9E1","","447.5","img/flower6.png","76","448","3","1","1","2","1,0,0,1,1,0,1,0,1","0,0,1,1,0,1,0,1,1","2",""
"","html-keyboard-response","175","139686","0.0-175.0","3EICBYG645I2APDDW3782Y68BWQCJX","A2HAP8SUY3WYKR","335VBRURDJMQFRMOFGHOE9WKSHX9E1","","null","<img src=""img/flower6.png"" style=""width:200px; border:14px solid green;"">","null","","","","","","","","",""
"","image-keyboard-response","176","140346","0.0-176.0","3EICBYG645I2APDDW3782Y68BWQCJX","A2HAP8SUY3WYKR","335VBRURDJMQFRMOFGHOE9WKSHX9E1","","659.1000000238419","img/flower1.png","75","660","2","1","3","2","1,0,0,1,1,0,1,0,1","0,0,1,1,0,1,0,1,1","2",""
"","html-keyboard-response","177","140647","0.0-177.0","3EICBYG645I2APDDW3782Y68BWQCJX","A2HAP8SUY3WYKR","335VBRURDJMQFRMOFGHOE9WKSHX9E1","","null","<img src=""img/flower1.png"" style=""width:200px; border:14px solid green;"">","null","","","","","","","","",""
"","image-keyboard-response","178","141357","0.0-178.0","3EICBYG645I2APDDW3782Y68BWQCJX","A2HAP8SUY3WYKR","335VBRURDJMQFRMOFGHOE9WKSHX9E1","","708.6000000238419","img/flower4.png","74","709.1000000238419","1","1","2","2","1,0,0,1,1,0,1,0,1","0,0,1,1,0,1,0,1,1","2",""
"","html-keyboard-response","179","141658","0.0-179.0","3EICBYG645I2APDDW3782Y68BWQCJX","A2HAP8SUY3WYKR","335VBRURDJMQFRMOFGHOE9WKSHX9E1","","null","<img src=""img/flower4.png"" style=""width:200px; border:14px solid green;"">","null","","","","","","","","",""
"","image-keyboard-response","180","142307","0.0-180.0","3EICBYG645I2APDDW3782Y68BWQCJX","A2HAP8SUY3WYKR","335VBRURDJMQFRMOFGHOE9WKSHX9E1","","647.7999999523163","img/flower1.png","75","648.3999999761581","2","1","3","2","1,0,0,1,1,0,1,0,1","0,0,1,1,0,1,0,1,1","2",""
"","html-keyboard-response","181","142609","0.0-181.0","3EICBYG645I2APDDW3782Y68BWQCJX","A2HAP8SUY3WYKR","335VBRURDJMQFRMOFGHOE9WKSHX9E1","","null","<img src=""img/flower1.png"" style=""width:200px; border:14px solid green;"">","null","","","","","","","","",""
"","image-keyboard-response","182","143934","0.0-182.0","3EICBYG645I2APDDW3782Y68BWQCJX","A2HAP8SUY3WYKR","335VBRURDJMQFRMOFGHOE9WKSHX9E1","","1324.8000000715256","img/flower2.png","76","1325.1999999284744","3","1","3","1","1,0.333,0.333,0.333,1,0.333,0.333,0.333,1","1,0.333,0.333,0.333,1,0.333,0.333,0.333,1","1",""
"","html-keyboard-response","183","144236","0.0-183.0","3EICBYG645I2APDDW3782Y68BWQCJX","A2HAP8SUY3WYKR","335VBRURDJMQFRMOFGHOE9WKSHX9E1","","null","<img src=""img/flower2.png"" style=""width:200px; border:14px solid green;"">","null","","","","","","","","",""
"","image-keyboard-response","184","144781","0.0-184.0","3EICBYG645I2APDDW3782Y68BWQCJX","A2HAP8SUY3WYKR","335VBRURDJMQFRMOFGHOE9WKSHX9E1","","544.3999999761581","img/flower2.png","76","545.1000000238419","3","1","3","1","1,0.333,0.333,0.333,1,0.333,0.333,0.333,1","1,0.333,0.333,0.333,1,0.333,0.333,0.333,1","1",""
"","html-keyboard-response","185","145083","0.0-185.0","3EICBYG645I2APDDW3782Y68BWQCJX","A2HAP8SUY3WYKR","335VBRURDJMQFRMOFGHOE9WKSHX9E1","","null","<img src=""img/flower2.png"" style=""width:200px; border:14px solid green;"">","null","","","","","","","","",""
"","image-keyboard-response","186","145581","0.0-186.0","3EICBYG645I2APDDW3782Y68BWQCJX","A2HAP8SUY3WYKR","335VBRURDJMQFRMOFGHOE9WKSHX9E1","","497","img/flower2.png","76","497.7000000476837","3","1","3","1","1,0.333,0.333,0.333,1,0.333,0.333,0.333,1","1,0.333,0.333,0.333,1,0.333,0.333,0.333,1","1",""
"","html-keyboard-response","187","145882","0.0-187.0","3EICBYG645I2APDDW3782Y68BWQCJX","A2HAP8SUY3WYKR","335VBRURDJMQFRMOFGHOE9WKSHX9E1","","null","<img src=""img/flower2.png"" style=""width:200px; border:14px solid green;"">","null","","","","","","","","",""
"","image-keyboard-response","188","146846","0.0-188.0","3EICBYG645I2APDDW3782Y68BWQCJX","A2HAP8SUY3WYKR","335VBRURDJMQFRMOFGHOE9WKSHX9E1","","963.8999999761581","img/flower3.png","76","964.5","3","0","1","1","1,0.333,0.333,0.333,1,0.333,0.333,0.333,1","1,0.333,0.333,0.333,1,0.333,0.333,0.333,1","1",""
"","html-keyboard-response","189","147148","0.0-189.0","3EICBYG645I2APDDW3782Y68BWQCJX","A2HAP8SUY3WYKR","335VBRURDJMQFRMOFGHOE9WKSHX9E1","","null","<img src=""img/flower3.png"" style=""width:200px;border:14px solid red;"">","null","","","","","","","","",""
"","image-keyboard-response","190","147979","0.0-190.0","3EICBYG645I2APDDW3782Y68BWQCJX","A2HAP8SUY3WYKR","335VBRURDJMQFRMOFGHOE9WKSHX9E1","","829.4000000953674","img/flower2.png","76","829.8999999761581","3","1","3","1","1,0.333,0.333,0.333,1,0.333,0.333,0.333,1","1,0.333,0.333,0.333,1,0.333,0.333,0.333,1","1",""
"","html-keyboard-response","191","148280","0.0-191.0","3EICBYG645I2APDDW3782Y68BWQCJX","A2HAP8SUY3WYKR","335VBRURDJMQFRMOFGHOE9WKSHX9E1","","null","<img src=""img/flower2.png"" style=""width:200px; border:14px solid green;"">","null","","","","","","","","",""
"","image-keyboard-response","192","149182","0.0-192.0","3EICBYG645I2APDDW3782Y68BWQCJX","A2HAP8SUY3WYKR","335VBRURDJMQFRMOFGHOE9WKSHX9E1","","900.6000000238419","img/flower5.png","74","901.2000000476837","1","0","2","1","1,0.333,0.333,0.333,1,0.333,0.333,0.333,1","1,0.333,0.333,0.333,1,0.333,0.333,0.333,1","1",""
"","html-keyboard-response","193","149483","0.0-193.0","3EICBYG645I2APDDW3782Y68BWQCJX","A2HAP8SUY3WYKR","335VBRURDJMQFRMOFGHOE9WKSHX9E1","","null","<img src=""img/flower5.png"" style=""width:200px;border:14px solid red;"">","null","","","","","","","","",""
"","image-keyboard-response","194","150270","0.0-194.0","3EICBYG645I2APDDW3782Y68BWQCJX","A2HAP8SUY3WYKR","335VBRURDJMQFRMOFGHOE9WKSHX9E1","","786.7000000476837","img/flower2.png","76","787.2999999523163","3","1","3","1","1,0.333,0.333,0.333,1,0.333,0.333,0.333,1","1,0.333,0.333,0.333,1,0.333,0.333,0.333,1","1",""
"","html-keyboard-response","195","150571","0.0-195.0","3EICBYG645I2APDDW3782Y68BWQCJX","A2HAP8SUY3WYKR","335VBRURDJMQFRMOFGHOE9WKSHX9E1","","null","<img src=""img/flower2.png"" style=""width:200px; border:14px solid green;"">","null","","","","","","","","",""
"","image-keyboard-response","196","151186","0.0-196.0","3EICBYG645I2APDDW3782Y68BWQCJX","A2HAP8SUY3WYKR","335VBRURDJMQFRMOFGHOE9WKSHX9E1","","613.4000000953674","img/flower5.png","75","613.8999999761581","2","1","2","1","1,0.333,0.333,0.333,1,0.333,0.333,0.333,1","1,0.333,0.333,0.333,1,0.333,0.333,0.333,1","1",""
"","html-keyboard-response","197","151487","0.0-197.0","3EICBYG645I2APDDW3782Y68BWQCJX","A2HAP8SUY3WYKR","335VBRURDJMQFRMOFGHOE9WKSHX9E1","","null","<img src=""img/flower5.png"" style=""width:200px; border:14px solid green;"">","null","","","","","","","","",""
"","image-keyboard-response","198","152069","0.0-198.0","3EICBYG645I2APDDW3782Y68BWQCJX","A2HAP8SUY3WYKR","335VBRURDJMQFRMOFGHOE9WKSHX9E1","","581.6000000238419","img/flower5.png","75","582.2999999523163","2","1","2","1","1,0.333,0.333,0.333,1,0.333,0.333,0.333,1","1,0.333,0.333,0.333,1,0.333,0.333,0.333,1","1",""
"","html-keyboard-response","199","152371","0.0-199.0","3EICBYG645I2APDDW3782Y68BWQCJX","A2HAP8SUY3WYKR","335VBRURDJMQFRMOFGHOE9WKSHX9E1","","null","<img src=""img/flower5.png"" style=""width:200px; border:14px solid green;"">","null","","","","","","","","",""
"","image-keyboard-response","200","152960","0.0-200.0","3EICBYG645I2APDDW3782Y68BWQCJX","A2HAP8SUY3WYKR","335VBRURDJMQFRMOFGHOE9WKSHX9E1","","587.8000000715256","img/flower5.png","75","588.6999999284744","2","1","2","1","1,0.333,0.333,0.333,1,0.333,0.333,0.333,1","1,0.333,0.333,0.333,1,0.333,0.333,0.333,1","1",""
"","html-keyboard-response","201","153262","0.0-201.0","3EICBYG645I2APDDW3782Y68BWQCJX","A2HAP8SUY3WYKR","335VBRURDJMQFRMOFGHOE9WKSHX9E1","","null","<img src=""img/flower5.png"" style=""width:200px; border:14px solid green;"">","null","","","","","","","","",""
"","image-keyboard-response","202","154062","0.0-202.0","3EICBYG645I2APDDW3782Y68BWQCJX","A2HAP8SUY3WYKR","335VBRURDJMQFRMOFGHOE9WKSHX9E1","","798.7000000476837","img/flower3.png","74","799.3999999761581","1","1","1","1","1,0.333,0.333,0.333,1,0.333,0.333,0.333,1","1,0.333,0.333,0.333,1,0.333,0.333,0.333,1","1",""
"","html-keyboard-response","203","154364","0.0-203.0","3EICBYG645I2APDDW3782Y68BWQCJX","A2HAP8SUY3WYKR","335VBRURDJMQFRMOFGHOE9WKSHX9E1","","null","<img src=""img/flower3.png"" style=""width:200px; border:14px solid green;"">","null","","","","","","","","",""
"","image-keyboard-response","204","155329","0.0-204.0","3EICBYG645I2APDDW3782Y68BWQCJX","A2HAP8SUY3WYKR","335VBRURDJMQFRMOFGHOE9WKSHX9E1","","965","img/flower2.png","76","965.7000000476837","3","1","3","1","1,0.333,0.333,0.333,1,0.333,0.333,0.333,1","1,0.333,0.333,0.333,1,0.333,0.333,0.333,1","1",""
"","html-keyboard-response","205","155630","0.0-205.0","3EICBYG645I2APDDW3782Y68BWQCJX","A2HAP8SUY3WYKR","335VBRURDJMQFRMOFGHOE9WKSHX9E1","","null","<img src=""img/flower2.png"" style=""width:200px; border:14px solid green;"">","null","","","","","","","","",""
"","image-keyboard-response","206","156819","0.0-206.0","3EICBYG645I2APDDW3782Y68BWQCJX","A2HAP8SUY3WYKR","335VBRURDJMQFRMOFGHOE9WKSHX9E1","","1188","img/flower3.png","75","1188.5","2","0","1","1","1,0.333,0.333,0.333,1,0.333,0.333,0.333,1","1,0.333,0.333,0.333,1,0.333,0.333,0.333,1","1",""
"","html-keyboard-response","207","157120","0.0-207.0","3EICBYG645I2APDDW3782Y68BWQCJX","A2HAP8SUY3WYKR","335VBRURDJMQFRMOFGHOE9WKSHX9E1","","null","<img src=""img/flower3.png"" style=""width:200px;border:14px solid red;"">","null","","","","","","","","",""
"","image-keyboard-response","208","158229","0.0-208.0","3EICBYG645I2APDDW3782Y68BWQCJX","A2HAP8SUY3WYKR","335VBRURDJMQFRMOFGHOE9WKSHX9E1","","1108.0999999046326","img/flower5.png","74","1108.8000000715256","1","0","2","1","1,0.333,0.333,0.333,1,0.333,0.333,0.333,1","1,0.333,0.333,0.333,1,0.333,0.333,0.333,1","1",""
"","html-keyboard-response","209","158531","0.0-209.0","3EICBYG645I2APDDW3782Y68BWQCJX","A2HAP8SUY3WYKR","335VBRURDJMQFRMOFGHOE9WKSHX9E1","","null","<img src=""img/flower5.png"" style=""width:200px;border:14px solid red;"">","null","","","","","","","","",""
"","image-keyboard-response","210","158988","0.0-210.0","3EICBYG645I2APDDW3782Y68BWQCJX","A2HAP8SUY3WYKR","335VBRURDJMQFRMOFGHOE9WKSHX9E1","","456.2999999523163","img/flower5.png","76","456.89999997615814","3","0","2","1","1,0.333,0.333,0.333,1,0.333,0.333,0.333,1","1,0.333,0.333,0.333,1,0.333,0.333,0.333,1","1",""
"","html-keyboard-response","211","159289","0.0-211.0","3EICBYG645I2APDDW3782Y68BWQCJX","A2HAP8SUY3WYKR","335VBRURDJMQFRMOFGHOE9WKSHX9E1","","null","<img src=""img/flower5.png"" style=""width:200px;border:14px solid red;"">","null","","","","","","","","",""
"","image-keyboard-response","212","160097","0.0-212.0","3EICBYG645I2APDDW3782Y68BWQCJX","A2HAP8SUY3WYKR","335VBRURDJMQFRMOFGHOE9WKSHX9E1","","807.2999999523163","img/flower2.png","76","807.7000000476837","3","1","3","1","1,0.333,0.333,0.333,1,0.333,0.333,0.333,1","1,0.333,0.333,0.333,1,0.333,0.333,0.333,1","1",""
"","html-keyboard-response","213","160398","0.0-213.0","3EICBYG645I2APDDW3782Y68BWQCJX","A2HAP8SUY3WYKR","335VBRURDJMQFRMOFGHOE9WKSHX9E1","","null","<img src=""img/flower2.png"" style=""width:200px; border:14px solid green;"">","null","","","","","","","","",""
"","image-keyboard-response","214","161138","0.0-214.0","3EICBYG645I2APDDW3782Y68BWQCJX","A2HAP8SUY3WYKR","335VBRURDJMQFRMOFGHOE9WKSHX9E1","","738.5999999046326","img/flower3.png","75","739.3000000715256","2","1","1","1","1,0.333,0.333,0.333,1,0.333,0.333,0.333,1","1,0.333,0.333,0.333,1,0.333,0.333,0.333,1","1",""
"","html-keyboard-response","215","161440","0.0-215.0","3EICBYG645I2APDDW3782Y68BWQCJX","A2HAP8SUY3WYKR","335VBRURDJMQFRMOFGHOE9WKSHX9E1","","null","<img src=""img/flower3.png"" style=""width:200px; border:14px solid green;"">","null","","","","","","","","",""
"","image-keyboard-response","216","162215","0.0-216.0","3EICBYG645I2APDDW3782Y68BWQCJX","A2HAP8SUY3WYKR","335VBRURDJMQFRMOFGHOE9WKSHX9E1","","774.0999999046326","img/flower5.png","74","774.8000000715256","1","0","2","1","1,0.333,0.333,0.333,1,0.333,0.333,0.333,1","1,0.333,0.333,0.333,1,0.333,0.333,0.333,1","1",""
"","html-keyboard-response","217","162517","0.0-217.0","3EICBYG645I2APDDW3782Y68BWQCJX","A2HAP8SUY3WYKR","335VBRURDJMQFRMOFGHOE9WKSHX9E1","","null","<img src=""img/flower5.png"" style=""width:200px;border:14px solid red;"">","null","","","","","","","","",""
"","image-keyboard-response","218","163205","0.0-218.0","3EICBYG645I2APDDW3782Y68BWQCJX","A2HAP8SUY3WYKR","335VBRURDJMQFRMOFGHOE9WKSHX9E1","","686.7000000476837","img/flower5.png","76","687.6000000238419","3","1","2","1","1,0.333,0.333,0.333,1,0.333,0.333,0.333,1","1,0.333,0.333,0.333,1,0.333,0.333,0.333,1","1",""
"","html-keyboard-response","219","163507","0.0-219.0","3EICBYG645I2APDDW3782Y68BWQCJX","A2HAP8SUY3WYKR","335VBRURDJMQFRMOFGHOE9WKSHX9E1","","null","<img src=""img/flower5.png"" style=""width:200px; border:14px solid green;"">","null","","","","","","","","",""
"","image-keyboard-response","220","164329","0.0-220.0","3EICBYG645I2APDDW3782Y68BWQCJX","A2HAP8SUY3WYKR","335VBRURDJMQFRMOFGHOE9WKSHX9E1","","821.5999999046326","img/flower3.png","75","822","2","0","1","1","1,0.333,0.333,0.333,1,0.333,0.333,0.333,1","1,0.333,0.333,0.333,1,0.333,0.333,0.333,1","1",""
"","html-keyboard-response","221","164631","0.0-221.0","3EICBYG645I2APDDW3782Y68BWQCJX","A2HAP8SUY3WYKR","335VBRURDJMQFRMOFGHOE9WKSHX9E1","","null","<img src=""img/flower3.png"" style=""width:200px;border:14px solid red;"">","null","","","","","","","","",""
"","image-keyboard-response","222","165018","0.0-222.0","3EICBYG645I2APDDW3782Y68BWQCJX","A2HAP8SUY3WYKR","335VBRURDJMQFRMOFGHOE9WKSHX9E1","","386.1999999284744","img/flower3.png","76","386.7000000476837","3","1","1","1","1,0.333,0.333,0.333,1,0.333,0.333,0.333,1","1,0.333,0.333,0.333,1,0.333,0.333,0.333,1","1",""
"","html-keyboard-response","223","165320","0.0-223.0","3EICBYG645I2APDDW3782Y68BWQCJX","A2HAP8SUY3WYKR","335VBRURDJMQFRMOFGHOE9WKSHX9E1","","null","<img src=""img/flower3.png"" style=""width:200px; border:14px solid green;"">","null","","","","","","","","",""
"","image-keyboard-response","224","166213","0.0-224.0","3EICBYG645I2APDDW3782Y68BWQCJX","A2HAP8SUY3WYKR","335VBRURDJMQFRMOFGHOE9WKSHX9E1","","892.5","img/flower5.png","75","893.2999999523163","2","1","2","1","1,0.333,0.333,0.333,1,0.333,0.333,0.333,1","1,0.333,0.333,0.333,1,0.333,0.333,0.333,1","1",""
"","html-keyboard-response","225","166515","0.0-225.0","3EICBYG645I2APDDW3782Y68BWQCJX","A2HAP8SUY3WYKR","335VBRURDJMQFRMOFGHOE9WKSHX9E1","","null","<img src=""img/flower5.png"" style=""width:200px; border:14px solid green;"">","null","","","","","","","","",""
"","image-keyboard-response","226","167566","0.0-226.0","3EICBYG645I2APDDW3782Y68BWQCJX","A2HAP8SUY3WYKR","335VBRURDJMQFRMOFGHOE9WKSHX9E1","","1050.5999999046326","img/flower2.png","75","1051.2000000476837","2","1","3","1","1,0.333,0.333,0.333,1,0.333,0.333,0.333,1","1,0.333,0.333,0.333,1,0.333,0.333,0.333,1","1",""
"","html-keyboard-response","227","167868","0.0-227.0","3EICBYG645I2APDDW3782Y68BWQCJX","A2HAP8SUY3WYKR","335VBRURDJMQFRMOFGHOE9WKSHX9E1","","null","<img src=""img/flower2.png"" style=""width:200px; border:14px solid green;"">","null","","","","","","","","",""
"","image-keyboard-response","228","168310","0.0-228.0","3EICBYG645I2APDDW3782Y68BWQCJX","A2HAP8SUY3WYKR","335VBRURDJMQFRMOFGHOE9WKSHX9E1","","441.10000002384186","img/flower2.png","75","441.7000000476837","2","0","3","1","1,0.333,0.333,0.333,1,0.333,0.333,0.333,1","1,0.333,0.333,0.333,1,0.333,0.333,0.333,1","1",""
"","html-keyboard-response","229","168611","0.0-229.0","3EICBYG645I2APDDW3782Y68BWQCJX","A2HAP8SUY3WYKR","335VBRURDJMQFRMOFGHOE9WKSHX9E1","","null","<img src=""img/flower2.png"" style=""width:200px;border:14px solid red;"">","null","","","","","","","","",""
"","image-keyboard-response","230","169151","0.0-230.0","3EICBYG645I2APDDW3782Y68BWQCJX","A2HAP8SUY3WYKR","335VBRURDJMQFRMOFGHOE9WKSHX9E1","","538.7999999523163","img/flower2.png","75","539.5999999046326","2","0","3","1","1,0.333,0.333,0.333,1,0.333,0.333,0.333,1","1,0.333,0.333,0.333,1,0.333,0.333,0.333,1","1",""
"","html-keyboard-response","231","169453","0.0-231.0","3EICBYG645I2APDDW3782Y68BWQCJX","A2HAP8SUY3WYKR","335VBRURDJMQFRMOFGHOE9WKSHX9E1","","null","<img src=""img/flower2.png"" style=""width:200px;border:14px solid red;"">","null","","","","","","","","",""
"","image-keyboard-response","232","170262","0.0-232.0","3EICBYG645I2APDDW3782Y68BWQCJX","A2HAP8SUY3WYKR","335VBRURDJMQFRMOFGHOE9WKSHX9E1","","807.7000000476837","img/flower3.png","74","808.2999999523163","1","1","1","1","1,0.333,0.333,0.333,1,0.333,0.333,0.333,1","1,0.333,0.333,0.333,1,0.333,0.333,0.333,1","1",""
"","html-keyboard-response","233","170563","0.0-233.0","3EICBYG645I2APDDW3782Y68BWQCJX","A2HAP8SUY3WYKR","335VBRURDJMQFRMOFGHOE9WKSHX9E1","","null","<img src=""img/flower3.png"" style=""width:200px; border:14px solid green;"">","null","","","","","","","","",""
"","image-keyboard-response","234","171268","0.0-234.0","3EICBYG645I2APDDW3782Y68BWQCJX","A2HAP8SUY3WYKR","335VBRURDJMQFRMOFGHOE9WKSHX9E1","","704","img/flower2.png","75","704.5","2","1","3","1","1,0.333,0.333,0.333,1,0.333,0.333,0.333,1","1,0.333,0.333,0.333,1,0.333,0.333,0.333,1","1",""
"","html-keyboard-response","235","171569","0.0-235.0","3EICBYG645I2APDDW3782Y68BWQCJX","A2HAP8SUY3WYKR","335VBRURDJMQFRMOFGHOE9WKSHX9E1","","null","<img src=""img/flower2.png"" style=""width:200px; border:14px solid green;"">","null","","","","","","","","",""
"","image-keyboard-response","236","171954","0.0-236.0","3EICBYG645I2APDDW3782Y68BWQCJX","A2HAP8SUY3WYKR","335VBRURDJMQFRMOFGHOE9WKSHX9E1","","383.7999999523163","img/flower2.png","75","384.39999997615814","2","1","3","1","1,0.333,0.333,0.333,1,0.333,0.333,0.333,1","1,0.333,0.333,0.333,1,0.333,0.333,0.333,1","1",""
"","html-keyboard-response","237","172255","0.0-237.0","3EICBYG645I2APDDW3782Y68BWQCJX","A2HAP8SUY3WYKR","335VBRURDJMQFRMOFGHOE9WKSHX9E1","","null","<img src=""img/flower2.png"" style=""width:200px; border:14px solid green;"">","null","","","","","","","","",""
"","image-keyboard-response","238","172990","0.0-238.0","3EICBYG645I2APDDW3782Y68BWQCJX","A2HAP8SUY3WYKR","335VBRURDJMQFRMOFGHOE9WKSHX9E1","","734.5","img/flower3.png","74","735","1","1","1","1","1,0.333,0.333,0.333,1,0.333,0.333,0.333,1","1,0.333,0.333,0.333,1,0.333,0.333,0.333,1","1",""
"","html-keyboard-response","239","173292","0.0-239.0","3EICBYG645I2APDDW3782Y68BWQCJX","A2HAP8SUY3WYKR","335VBRURDJMQFRMOFGHOE9WKSHX9E1","","null","<img src=""img/flower3.png"" style=""width:200px; border:14px solid green;"">","null","","","","","","","","",""
"","image-keyboard-response","240","173882","0.0-240.0","3EICBYG645I2APDDW3782Y68BWQCJX","A2HAP8SUY3WYKR","335VBRURDJMQFRMOFGHOE9WKSHX9E1","","588.8999999761581","img/flower2.png","75","589.5999999046326","2","1","3","1","1,0.333,0.333,0.333,1,0.333,0.333,0.333,1","1,0.333,0.333,0.333,1,0.333,0.333,0.333,1","1",""
"","html-keyboard-response","241","174184","0.0-241.0","3EICBYG645I2APDDW3782Y68BWQCJX","A2HAP8SUY3WYKR","335VBRURDJMQFRMOFGHOE9WKSHX9E1","","null","<img src=""img/flower2.png"" style=""width:200px; border:14px solid green;"">","null","","","","","","","","",""
"","image-keyboard-response","242","175007","0.0-242.0","3EICBYG645I2APDDW3782Y68BWQCJX","A2HAP8SUY3WYKR","335VBRURDJMQFRMOFGHOE9WKSHX9E1","","822.2000000476837","img/flower5.png","76","823.1000000238419","3","1","2","1","1,0.333,0.333,0.333,1,0.333,0.333,0.333,1","1,0.333,0.333,0.333,1,0.333,0.333,0.333,1","1",""
"","html-keyboard-response","243","175309","0.0-243.0","3EICBYG645I2APDDW3782Y68BWQCJX","A2HAP8SUY3WYKR","335VBRURDJMQFRMOFGHOE9WKSHX9E1","","null","<img src=""img/flower5.png"" style=""width:200px; border:14px solid green;"">","null","","","","","","","","",""
"","image-keyboard-response","244","175915","0.0-244.0","3EICBYG645I2APDDW3782Y68BWQCJX","A2HAP8SUY3WYKR","335VBRURDJMQFRMOFGHOE9WKSHX9E1","","605.2999999523163","img/flower2.png","75","605.8999999761581","2","0","3","1","1,0.333,0.333,0.333,1,0.333,0.333,0.333,1","1,0.333,0.333,0.333,1,0.333,0.333,0.333,1","1",""
"","html-keyboard-response","245","176217","0.0-245.0","3EICBYG645I2APDDW3782Y68BWQCJX","A2HAP8SUY3WYKR","335VBRURDJMQFRMOFGHOE9WKSHX9E1","","null","<img src=""img/flower2.png"" style=""width:200px;border:14px solid red;"">","null","","","","","","","","",""
"","image-keyboard-response","246","176905","0.0-246.0","3EICBYG645I2APDDW3782Y68BWQCJX","A2HAP8SUY3WYKR","335VBRURDJMQFRMOFGHOE9WKSHX9E1","","687.6999999284744","img/flower3.png","74","688.2000000476837","1","1","1","1","1,0.333,0.333,0.333,1,0.333,0.333,0.333,1","1,0.333,0.333,0.333,1,0.333,0.333,0.333,1","1",""
"","html-keyboard-response","247","177206","0.0-247.0","3EICBYG645I2APDDW3782Y68BWQCJX","A2HAP8SUY3WYKR","335VBRURDJMQFRMOFGHOE9WKSHX9E1","","null","<img src=""img/flower3.png"" style=""width:200px; border:14px solid green;"">","null","","","","","","","","",""
"","image-keyboard-response","248","177656","0.0-248.0","3EICBYG645I2APDDW3782Y68BWQCJX","A2HAP8SUY3WYKR","335VBRURDJMQFRMOFGHOE9WKSHX9E1","","449.39999997615814","img/flower3.png","74","449.8000000715256","1","1","1","1","1,0.333,0.333,0.333,1,0.333,0.333,0.333,1","1,0.333,0.333,0.333,1,0.333,0.333,0.333,1","1",""
"","html-keyboard-response","249","177958","0.0-249.0","3EICBYG645I2APDDW3782Y68BWQCJX","A2HAP8SUY3WYKR","335VBRURDJMQFRMOFGHOE9WKSHX9E1","","null","<img src=""img/flower3.png"" style=""width:200px; border:14px solid green;"">","null","","","","","","","","",""
"","image-keyboard-response","250","178418","0.0-250.0","3EICBYG645I2APDDW3782Y68BWQCJX","A2HAP8SUY3WYKR","335VBRURDJMQFRMOFGHOE9WKSHX9E1","","459","img/flower3.png","74","459.6999999284744","1","1","1","1","1,0.333,0.333,0.333,1,0.333,0.333,0.333,1","1,0.333,0.333,0.333,1,0.333,0.333,0.333,1","1",""
"","html-keyboard-response","251","178720","0.0-251.0","3EICBYG645I2APDDW3782Y68BWQCJX","A2HAP8SUY3WYKR","335VBRURDJMQFRMOFGHOE9WKSHX9E1","","null","<img src=""img/flower3.png"" style=""width:200px; border:14px solid green;"">","null","","","","","","","","",""
"","image-keyboard-response","252","179253","0.0-252.0","3EICBYG645I2APDDW3782Y68BWQCJX","A2HAP8SUY3WYKR","335VBRURDJMQFRMOFGHOE9WKSHX9E1","","532.7999999523163","img/flower2.png","75","533.5","2","0","3","1","1,0.333,0.333,0.333,1,0.333,0.333,0.333,1","1,0.333,0.333,0.333,1,0.333,0.333,0.333,1","1",""
"","html-keyboard-response","253","179555","0.0-253.0","3EICBYG645I2APDDW3782Y68BWQCJX","A2HAP8SUY3WYKR","335VBRURDJMQFRMOFGHOE9WKSHX9E1","","null","<img src=""img/flower2.png"" style=""width:200px;border:14px solid red;"">","null","","","","","","","","",""
"","image-keyboard-response","254","180801","0.0-254.0","3EICBYG645I2APDDW3782Y68BWQCJX","A2HAP8SUY3WYKR","335VBRURDJMQFRMOFGHOE9WKSHX9E1","","1245.6999999284744","img/flower5.png","75","1246.4000000953674","2","1","2","1","1,0.333,0.333,0.333,1,0.333,0.333,0.333,1","1,0.333,0.333,0.333,1,0.333,0.333,0.333,1","1",""
"","html-keyboard-response","255","181102","0.0-255.0","3EICBYG645I2APDDW3782Y68BWQCJX","A2HAP8SUY3WYKR","335VBRURDJMQFRMOFGHOE9WKSHX9E1","","null","<img src=""img/flower5.png"" style=""width:200px; border:14px solid green;"">","null","","","","","","","","",""
"","image-keyboard-response","256","181860","0.0-256.0","3EICBYG645I2APDDW3782Y68BWQCJX","A2HAP8SUY3WYKR","335VBRURDJMQFRMOFGHOE9WKSHX9E1","","757.2000000476837","img/flower3.png","74","757.7999999523163","1","1","1","1","1,0.333,0.333,0.333,1,0.333,0.333,0.333,1","1,0.333,0.333,0.333,1,0.333,0.333,0.333,1","1",""
"","html-keyboard-response","257","182162","0.0-257.0","3EICBYG645I2APDDW3782Y68BWQCJX","A2HAP8SUY3WYKR","335VBRURDJMQFRMOFGHOE9WKSHX9E1","","null","<img src=""img/flower3.png"" style=""width:200px; border:14px solid green;"">","null","","","","","","","","",""
"","image-keyboard-response","258","182786","0.0-258.0","3EICBYG645I2APDDW3782Y68BWQCJX","A2HAP8SUY3WYKR","335VBRURDJMQFRMOFGHOE9WKSHX9E1","","623","img/flower5.png","75","623.5","2","1","2","1","1,0.333,0.333,0.333,1,0.333,0.333,0.333,1","1,0.333,0.333,0.333,1,0.333,0.333,0.333,1","1",""
"","html-keyboard-response","259","183087","0.0-259.0","3EICBYG645I2APDDW3782Y68BWQCJX","A2HAP8SUY3WYKR","335VBRURDJMQFRMOFGHOE9WKSHX9E1","","null","<img src=""img/flower5.png"" style=""width:200px; border:14px solid green;"">","null","","","","","","","","",""
"","image-keyboard-response","260","183684","0.0-260.0","3EICBYG645I2APDDW3782Y68BWQCJX","A2HAP8SUY3WYKR","335VBRURDJMQFRMOFGHOE9WKSHX9E1","","595.7000000476837","img/flower3.png","74","596.2999999523163","1","1","1","1","1,0.333,0.333,0.333,1,0.333,0.333,0.333,1","1,0.333,0.333,0.333,1,0.333,0.333,0.333,1","1",""
"","html-keyboard-response","261","183986","0.0-261.0","3EICBYG645I2APDDW3782Y68BWQCJX","A2HAP8SUY3WYKR","335VBRURDJMQFRMOFGHOE9WKSHX9E1","","null","<img src=""img/flower3.png"" style=""width:200px; border:14px solid green;"">","null","","","","","","","","",""
"","image-keyboard-response","262","184506","0.0-262.0","3EICBYG645I2APDDW3782Y68BWQCJX","A2HAP8SUY3WYKR","335VBRURDJMQFRMOFGHOE9WKSHX9E1","","519.9000000953674","img/flower3.png","74","520.3999999761581","1","1","1","1","1,0.333,0.333,0.333,1,0.333,0.333,0.333,1","1,0.333,0.333,0.333,1,0.333,0.333,0.333,1","1",""
"","html-keyboard-response","263","184808","0.0-263.0","3EICBYG645I2APDDW3782Y68BWQCJX","A2HAP8SUY3WYKR","335VBRURDJMQFRMOFGHOE9WKSHX9E1","","null","<img src=""img/flower3.png"" style=""width:200px; border:14px solid green;"">","null","","","","","","","","",""
"","image-keyboard-response","264","185264","0.0-264.0","3EICBYG645I2APDDW3782Y68BWQCJX","A2HAP8SUY3WYKR","335VBRURDJMQFRMOFGHOE9WKSHX9E1","","455.10000002384186","img/flower2.png","75","455.60000002384186","2","0","3","1","1,0.333,0.333,0.333,1,0.333,0.333,0.333,1","1,0.333,0.333,0.333,1,0.333,0.333,0.333,1","1",""
"","html-keyboard-response","265","185565","0.0-265.0","3EICBYG645I2APDDW3782Y68BWQCJX","A2HAP8SUY3WYKR","335VBRURDJMQFRMOFGHOE9WKSHX9E1","","null","<img src=""img/flower2.png"" style=""width:200px;border:14px solid red;"">","null","","","","","","","","",""
"","image-keyboard-response","266","186360","0.0-266.0","3EICBYG645I2APDDW3782Y68BWQCJX","A2HAP8SUY3WYKR","335VBRURDJMQFRMOFGHOE9WKSHX9E1","","794","img/flower3.png","74","795.1000000238419","1","1","1","1","1,0.333,0.333,0.333,1,0.333,0.333,0.333,1","1,0.333,0.333,0.333,1,0.333,0.333,0.333,1","1",""
"","html-keyboard-response","267","186662","0.0-267.0","3EICBYG645I2APDDW3782Y68BWQCJX","A2HAP8SUY3WYKR","335VBRURDJMQFRMOFGHOE9WKSHX9E1","","null","<img src=""img/flower3.png"" style=""width:200px; border:14px solid green;"">","null","","","","","","","","",""
"","image-keyboard-response","268","187095","0.0-268.0","3EICBYG645I2APDDW3782Y68BWQCJX","A2HAP8SUY3WYKR","335VBRURDJMQFRMOFGHOE9WKSHX9E1","","432","img/flower3.png","74","432.60000002384186","1","1","1","1","1,0.333,0.333,0.333,1,0.333,0.333,0.333,1","1,0.333,0.333,0.333,1,0.333,0.333,0.333,1","1",""
"","html-keyboard-response","269","187397","0.0-269.0","3EICBYG645I2APDDW3782Y68BWQCJX","A2HAP8SUY3WYKR","335VBRURDJMQFRMOFGHOE9WKSHX9E1","","null","<img src=""img/flower3.png"" style=""width:200px; border:14px solid green;"">","null","","","","","","","","",""
"","image-keyboard-response","270","188050","0.0-270.0","3EICBYG645I2APDDW3782Y68BWQCJX","A2HAP8SUY3WYKR","335VBRURDJMQFRMOFGHOE9WKSHX9E1","","652.2000000476837","img/flower5.png","75","652.6999999284744","2","1","2","1","1,0.333,0.333,0.333,1,0.333,0.333,0.333,1","1,0.333,0.333,0.333,1,0.333,0.333,0.333,1","1",""
"","html-keyboard-response","271","188352","0.0-271.0","3EICBYG645I2APDDW3782Y68BWQCJX","A2HAP8SUY3WYKR","335VBRURDJMQFRMOFGHOE9WKSHX9E1","","null","<img src=""img/flower5.png"" style=""width:200px; border:14px solid green;"">","null","","","","","","","","",""
"","image-keyboard-response","272","188735","0.0-272.0","3EICBYG645I2APDDW3782Y68BWQCJX","A2HAP8SUY3WYKR","335VBRURDJMQFRMOFGHOE9WKSHX9E1","","382.90000009536743","img/flower5.png","75","383.7000000476837","2","1","2","1","1,0.333,0.333,0.333,1,0.333,0.333,0.333,1","1,0.333,0.333,0.333,1,0.333,0.333,0.333,1","1",""
"","html-keyboard-response","273","189037","0.0-273.0","3EICBYG645I2APDDW3782Y68BWQCJX","A2HAP8SUY3WYKR","335VBRURDJMQFRMOFGHOE9WKSHX9E1","","null","<img src=""img/flower5.png"" style=""width:200px; border:14px solid green;"">","null","","","","","","","","",""
"","image-keyboard-response","274","189543","0.0-274.0","3EICBYG645I2APDDW3782Y68BWQCJX","A2HAP8SUY3WYKR","335VBRURDJMQFRMOFGHOE9WKSHX9E1","","504.7999999523163","img/flower3.png","74","505.3000000715256","1","1","1","1","1,0.333,0.333,0.333,1,0.333,0.333,0.333,1","1,0.333,0.333,0.333,1,0.333,0.333,0.333,1","1",""
"","html-keyboard-response","275","189844","0.0-275.0","3EICBYG645I2APDDW3782Y68BWQCJX","A2HAP8SUY3WYKR","335VBRURDJMQFRMOFGHOE9WKSHX9E1","","null","<img src=""img/flower3.png"" style=""width:200px; border:14px solid green;"">","null","","","","","","","","",""
"","image-keyboard-response","276","190197","0.0-276.0","3EICBYG645I2APDDW3782Y68BWQCJX","A2HAP8SUY3WYKR","335VBRURDJMQFRMOFGHOE9WKSHX9E1","","352.2999999523163","img/flower3.png","74","352.90000009536743","1","1","1","1","1,0.333,0.333,0.333,1,0.333,0.333,0.333,1","1,0.333,0.333,0.333,1,0.333,0.333,0.333,1","1",""
"","html-keyboard-response","277","190499","0.0-277.0","3EICBYG645I2APDDW3782Y68BWQCJX","A2HAP8SUY3WYKR","335VBRURDJMQFRMOFGHOE9WKSHX9E1","","null","<img src=""img/flower3.png"" style=""width:200px; border:14px solid green;"">","null","","","","","","","","",""
"","image-keyboard-response","278","191039","0.0-278.0","3EICBYG645I2APDDW3782Y68BWQCJX","A2HAP8SUY3WYKR","335VBRURDJMQFRMOFGHOE9WKSHX9E1","","538.8999999761581","img/flower2.png","75","539.5","2","0","3","1","1,0.333,0.333,0.333,1,0.333,0.333,0.333,1","1,0.333,0.333,0.333,1,0.333,0.333,0.333,1","1",""
"","html-keyboard-response","279","191340","0.0-279.0","3EICBYG645I2APDDW3782Y68BWQCJX","A2HAP8SUY3WYKR","335VBRURDJMQFRMOFGHOE9WKSHX9E1","","null","<img src=""img/flower2.png"" style=""width:200px;border:14px solid red;"">","null","","","","","","","","",""
"","image-keyboard-response","280","192082","0.0-280.0","3EICBYG645I2APDDW3782Y68BWQCJX","A2HAP8SUY3WYKR","335VBRURDJMQFRMOFGHOE9WKSHX9E1","","740.6999999284744","img/flower3.png","74","741.3000000715256","1","1","1","1","1,0.333,0.333,0.333,1,0.333,0.333,0.333,1","1,0.333,0.333,0.333,1,0.333,0.333,0.333,1","1",""
"","html-keyboard-response","281","192384","0.0-281.0","3EICBYG645I2APDDW3782Y68BWQCJX","A2HAP8SUY3WYKR","335VBRURDJMQFRMOFGHOE9WKSHX9E1","","null","<img src=""img/flower3.png"" style=""width:200px; border:14px solid green;"">","null","","","","","","","","",""
"","image-keyboard-response","282","193304","0.0-282.0","3EICBYG645I2APDDW3782Y68BWQCJX","A2HAP8SUY3WYKR","335VBRURDJMQFRMOFGHOE9WKSHX9E1","","919.8999999761581","img/flower2.png","76","920.5","3","1","3","1","1,0.333,0.333,0.333,1,0.333,0.333,0.333,1","1,0.333,0.333,0.333,1,0.333,0.333,0.333,1","1",""
"","html-keyboard-response","283","193605","0.0-283.0","3EICBYG645I2APDDW3782Y68BWQCJX","A2HAP8SUY3WYKR","335VBRURDJMQFRMOFGHOE9WKSHX9E1","","null","<img src=""img/flower2.png"" style=""width:200px; border:14px solid green;"">","null","","","","","","","","",""
"","image-keyboard-response","284","194211","0.0-284.0","3EICBYG645I2APDDW3782Y68BWQCJX","A2HAP8SUY3WYKR","335VBRURDJMQFRMOFGHOE9WKSHX9E1","","605.2000000476837","img/flower3.png","75","605.8999999761581","2","0","1","1","1,0.333,0.333,0.333,1,0.333,0.333,0.333,1","1,0.333,0.333,0.333,1,0.333,0.333,0.333,1","1",""
"","html-keyboard-response","285","194513","0.0-285.0","3EICBYG645I2APDDW3782Y68BWQCJX","A2HAP8SUY3WYKR","335VBRURDJMQFRMOFGHOE9WKSHX9E1","","null","<img src=""img/flower3.png"" style=""width:200px;border:14px solid red;"">","null","","","","","","","","",""
"","image-keyboard-response","286","195044","0.0-286.0","3EICBYG645I2APDDW3782Y68BWQCJX","A2HAP8SUY3WYKR","335VBRURDJMQFRMOFGHOE9WKSHX9E1","","529.7000000476837","img/flower3.png","75","530.2999999523163","2","1","1","1","1,0.333,0.333,0.333,1,0.333,0.333,0.333,1","1,0.333,0.333,0.333,1,0.333,0.333,0.333,1","1",""
"","html-keyboard-response","287","195346","0.0-287.0","3EICBYG645I2APDDW3782Y68BWQCJX","A2HAP8SUY3WYKR","335VBRURDJMQFRMOFGHOE9WKSHX9E1","","null","<img src=""img/flower3.png"" style=""width:200px; border:14px solid green;"">","null","","","","","","","","",""
"","image-keyboard-response","288","196238","0.0-288.0","3EICBYG645I2APDDW3782Y68BWQCJX","A2HAP8SUY3WYKR","335VBRURDJMQFRMOFGHOE9WKSHX9E1","","891.1000000238419","img/flower2.png","75","891.5","2","1","3","1","1,0.333,0.333,0.333,1,0.333,0.333,0.333,1","1,0.333,0.333,0.333,1,0.333,0.333,0.333,1","1",""
"","html-keyboard-response","289","196539","0.0-289.0","3EICBYG645I2APDDW3782Y68BWQCJX","A2HAP8SUY3WYKR","335VBRURDJMQFRMOFGHOE9WKSHX9E1","","null","<img src=""img/flower2.png"" style=""width:200px; border:14px solid green;"">","null","","","","","","","","",""
"","image-keyboard-response","290","196989","0.0-290.0","3EICBYG645I2APDDW3782Y68BWQCJX","A2HAP8SUY3WYKR","335VBRURDJMQFRMOFGHOE9WKSHX9E1","","449.2999999523163","img/flower2.png","75","449.89999997615814","2","0","3","1","1,0.333,0.333,0.333,1,0.333,0.333,0.333,1","1,0.333,0.333,0.333,1,0.333,0.333,0.333,1","1",""
"","html-keyboard-response","291","197291","0.0-291.0","3EICBYG645I2APDDW3782Y68BWQCJX","A2HAP8SUY3WYKR","335VBRURDJMQFRMOFGHOE9WKSHX9E1","","null","<img src=""img/flower2.png"" style=""width:200px;border:14px solid red;"">","null","","","","","","","","",""
"","image-keyboard-response","292","198023","0.0-292.0","3EICBYG645I2APDDW3782Y68BWQCJX","A2HAP8SUY3WYKR","335VBRURDJMQFRMOFGHOE9WKSHX9E1","","731.1999999284744","img/flower2.png","75","731.8999999761581","2","0","3","1","1,0.333,0.333,0.333,1,0.333,0.333,0.333,1","1,0.333,0.333,0.333,1,0.333,0.333,0.333,1","1",""
"","html-keyboard-response","293","198325","0.0-293.0","3EICBYG645I2APDDW3782Y68BWQCJX","A2HAP8SUY3WYKR","335VBRURDJMQFRMOFGHOE9WKSHX9E1","","null","<img src=""img/flower2.png"" style=""width:200px;border:14px solid red;"">","null","","","","","","","","",""
"","image-keyboard-response","294","199614","0.0-294.0","3EICBYG645I2APDDW3782Y68BWQCJX","A2HAP8SUY3WYKR","335VBRURDJMQFRMOFGHOE9WKSHX9E1","","1288","img/flower2.png","75","1288.5","2","0","3","1","1,0.333,0.333,0.333,1,0.333,0.333,0.333,1","1,0.333,0.333,0.333,1,0.333,0.333,0.333,1","1",""
"","html-keyboard-response","295","199915","0.0-295.0","3EICBYG645I2APDDW3782Y68BWQCJX","A2HAP8SUY3WYKR","335VBRURDJMQFRMOFGHOE9WKSHX9E1","","null","<img src=""img/flower2.png"" style=""width:200px;border:14px solid red;"">","null","","","","","","","","",""
"","image-keyboard-response","296","200529","0.0-296.0","3EICBYG645I2APDDW3782Y68BWQCJX","A2HAP8SUY3WYKR","335VBRURDJMQFRMOFGHOE9WKSHX9E1","","613.2000000476837","img/flower2.png","75","613.8999999761581","2","0","3","1","1,0.333,0.333,0.333,1,0.333,0.333,0.333,1","1,0.333,0.333,0.333,1,0.333,0.333,0.333,1","1",""
"","html-keyboard-response","297","200832","0.0-297.0","3EICBYG645I2APDDW3782Y68BWQCJX","A2HAP8SUY3WYKR","335VBRURDJMQFRMOFGHOE9WKSHX9E1","","null","<img src=""img/flower2.png"" style=""width:200px;border:14px solid red;"">","null","","","","","","","","",""
"","image-keyboard-response","298","201331","0.0-298.0","3EICBYG645I2APDDW3782Y68BWQCJX","A2HAP8SUY3WYKR","335VBRURDJMQFRMOFGHOE9WKSHX9E1","","498.60000002384186","img/flower2.png","74","499.2000000476837","1","0","3","1","1,0.333,0.333,0.333,1,0.333,0.333,0.333,1","1,0.333,0.333,0.333,1,0.333,0.333,0.333,1","1",""
"","html-keyboard-response","299","201632","0.0-299.0","3EICBYG645I2APDDW3782Y68BWQCJX","A2HAP8SUY3WYKR","335VBRURDJMQFRMOFGHOE9WKSHX9E1","","null","<img src=""img/flower2.png"" style=""width:200px;border:14px solid red;"">","null","","","","","","","","",""
"","image-keyboard-response","300","202444","0.0-300.0","3EICBYG645I2APDDW3782Y68BWQCJX","A2HAP8SUY3WYKR","335VBRURDJMQFRMOFGHOE9WKSHX9E1","","810.8999999761581","img/flower5.png","75","811.6999999284744","2","1","2","1","1,0.333,0.333,0.333,1,0.333,0.333,0.333,1","1,0.333,0.333,0.333,1,0.333,0.333,0.333,1","1",""
"","html-keyboard-response","301","202746","0.0-301.0","3EICBYG645I2APDDW3782Y68BWQCJX","A2HAP8SUY3WYKR","335VBRURDJMQFRMOFGHOE9WKSHX9E1","","null","<img src=""img/flower5.png"" style=""width:200px; border:14px solid green;"">","null","","","","","","","","",""
"","image-keyboard-response","302","203185","0.0-302.0","3EICBYG645I2APDDW3782Y68BWQCJX","A2HAP8SUY3WYKR","335VBRURDJMQFRMOFGHOE9WKSHX9E1","","439.10000002384186","img/flower5.png","75","439.60000002384186","2","1","2","1","1,0.333,0.333,0.333,1,0.333,0.333,0.333,1","1,0.333,0.333,0.333,1,0.333,0.333,0.333,1","1",""
"","html-keyboard-response","303","203488","0.0-303.0","3EICBYG645I2APDDW3782Y68BWQCJX","A2HAP8SUY3WYKR","335VBRURDJMQFRMOFGHOE9WKSHX9E1","","null","<img src=""img/flower5.png"" style=""width:200px; border:14px solid green;"">","null","","","","","","","","",""
"","image-keyboard-response","304","204290","0.0-304.0","3EICBYG645I2APDDW3782Y68BWQCJX","A2HAP8SUY3WYKR","335VBRURDJMQFRMOFGHOE9WKSHX9E1","","801.7999999523163","img/flower2.png","74","802.3000000715256","1","0","3","1","1,0.333,0.333,0.333,1,0.333,0.333,0.333,1","1,0.333,0.333,0.333,1,0.333,0.333,0.333,1","1",""
"","html-keyboard-response","305","204592","0.0-305.0","3EICBYG645I2APDDW3782Y68BWQCJX","A2HAP8SUY3WYKR","335VBRURDJMQFRMOFGHOE9WKSHX9E1","","null","<img src=""img/flower2.png"" style=""width:200px;border:14px solid red;"">","null","","","","","","","","",""
"","image-keyboard-response","306","204887","0.0-306.0","3EICBYG645I2APDDW3782Y68BWQCJX","A2HAP8SUY3WYKR","335VBRURDJMQFRMOFGHOE9WKSHX9E1","","294.5","img/flower5.png","75","295.2000000476837","2","1","2","1","1,0.333,0.333,0.333,1,0.333,0.333,0.333,1","1,0.333,0.333,0.333,1,0.333,0.333,0.333,1","1",""
"","html-keyboard-response","307","205189","0.0-307.0","3EICBYG645I2APDDW3782Y68BWQCJX","A2HAP8SUY3WYKR","335VBRURDJMQFRMOFGHOE9WKSHX9E1","","null","<img src=""img/flower5.png"" style=""width:200px; border:14px solid green;"">","null","","","","","","","","",""
"","image-keyboard-response","308","205841","0.0-308.0","3EICBYG645I2APDDW3782Y68BWQCJX","A2HAP8SUY3WYKR","335VBRURDJMQFRMOFGHOE9WKSHX9E1","","650.6000000238419","img/flower2.png","75","651.2999999523163","2","0","3","1","1,0.333,0.333,0.333,1,0.333,0.333,0.333,1","1,0.333,0.333,0.333,1,0.333,0.333,0.333,1","1",""
"","html-keyboard-response","309","206143","0.0-309.0","3EICBYG645I2APDDW3782Y68BWQCJX","A2HAP8SUY3WYKR","335VBRURDJMQFRMOFGHOE9WKSHX9E1","","null","<img src=""img/flower2.png"" style=""width:200px;border:14px solid red;"">","null","","","","","","","","",""
"","image-keyboard-response","310","206396","0.0-310.0","3EICBYG645I2APDDW3782Y68BWQCJX","A2HAP8SUY3WYKR","335VBRURDJMQFRMOFGHOE9WKSHX9E1","","252.80000007152557","img/flower5.png","76","253.39999997615814","3","1","2","1","1,0.333,0.333,0.333,1,0.333,0.333,0.333,1","1,0.333,0.333,0.333,1,0.333,0.333,0.333,1","1",""
"","html-keyboard-response","311","206698","0.0-311.0","3EICBYG645I2APDDW3782Y68BWQCJX","A2HAP8SUY3WYKR","335VBRURDJMQFRMOFGHOE9WKSHX9E1","","null","<img src=""img/flower5.png"" style=""width:200px; border:14px solid green;"">","null","","","","","","","","",""
"","image-keyboard-response","312","207359","0.0-312.0","3EICBYG645I2APDDW3782Y68BWQCJX","A2HAP8SUY3WYKR","335VBRURDJMQFRMOFGHOE9WKSHX9E1","","660.2000000476837","img/flower3.png","75","660.8999999761581","2","1","1","1","1,0.333,0.333,0.333,1,0.333,0.333,0.333,1","1,0.333,0.333,0.333,1,0.333,0.333,0.333,1","1",""
"","html-keyboard-response","313","207661","0.0-313.0","3EICBYG645I2APDDW3782Y68BWQCJX","A2HAP8SUY3WYKR","335VBRURDJMQFRMOFGHOE9WKSHX9E1","","null","<img src=""img/flower3.png"" style=""width:200px; border:14px solid green;"">","null","","","","","","","","",""
"","image-keyboard-response","314","207995","0.0-314.0","3EICBYG645I2APDDW3782Y68BWQCJX","A2HAP8SUY3WYKR","335VBRURDJMQFRMOFGHOE9WKSHX9E1","","333.10000002384186","img/flower3.png","75","333.60000002384186","2","0","1","1","1,0.333,0.333,0.333,1,0.333,0.333,0.333,1","1,0.333,0.333,0.333,1,0.333,0.333,0.333,1","1",""
"","html-keyboard-response","315","208312","0.0-315.0","3EICBYG645I2APDDW3782Y68BWQCJX","A2HAP8SUY3WYKR","335VBRURDJMQFRMOFGHOE9WKSHX9E1","","null","<img src=""img/flower3.png"" style=""width:200px;border:14px solid red;"">","null","","","","","","","","",""
"","image-keyboard-response","316","209166","0.0-316.0","3EICBYG645I2APDDW3782Y68BWQCJX","A2HAP8SUY3WYKR","335VBRURDJMQFRMOFGHOE9WKSHX9E1","","853.6000000238419","img/flower3.png","75","854.2000000476837","2","1","1","1","1,0.333,0.333,0.333,1,0.333,0.333,0.333,1","1,0.333,0.333,0.333,1,0.333,0.333,0.333,1","1",""
"","html-keyboard-response","317","209468","0.0-317.0","3EICBYG645I2APDDW3782Y68BWQCJX","A2HAP8SUY3WYKR","335VBRURDJMQFRMOFGHOE9WKSHX9E1","","null","<img src=""img/flower3.png"" style=""width:200px; border:14px solid green;"">","null","","","","","","","","",""
"","image-keyboard-response","318","209969","0.0-318.0","3EICBYG645I2APDDW3782Y68BWQCJX","A2HAP8SUY3WYKR","335VBRURDJMQFRMOFGHOE9WKSHX9E1","","500.39999997615814","img/flower3.png","75","501.09999990463257","2","1","1","1","1,0.333,0.333,0.333,1,0.333,0.333,0.333,1","1,0.333,0.333,0.333,1,0.333,0.333,0.333,1","1",""
"","html-keyboard-response","319","210270","0.0-319.0","3EICBYG645I2APDDW3782Y68BWQCJX","A2HAP8SUY3WYKR","335VBRURDJMQFRMOFGHOE9WKSHX9E1","","null","<img src=""img/flower3.png"" style=""width:200px; border:14px solid green;"">","null","","","","","","","","",""
"","image-keyboard-response","320","211161","0.0-320.0","3EICBYG645I2APDDW3782Y68BWQCJX","A2HAP8SUY3WYKR","335VBRURDJMQFRMOFGHOE9WKSHX9E1","","890","img/flower5.png","75","890.5","2","1","2","1","1,0.333,0.333,0.333,1,0.333,0.333,0.333,1","1,0.333,0.333,0.333,1,0.333,0.333,0.333,1","1",""
"","html-keyboard-response","321","211463","0.0-321.0","3EICBYG645I2APDDW3782Y68BWQCJX","A2HAP8SUY3WYKR","335VBRURDJMQFRMOFGHOE9WKSHX9E1","","null","<img src=""img/flower5.png"" style=""width:200px; border:14px solid green;"">","null","","","","","","","","",""
"","image-keyboard-response","322","211817","0.0-322.0","3EICBYG645I2APDDW3782Y68BWQCJX","A2HAP8SUY3WYKR","335VBRURDJMQFRMOFGHOE9WKSHX9E1","","353.7999999523163","img/flower5.png","75","354.40000009536743","2","1","2","1","1,0.333,0.333,0.333,1,0.333,0.333,0.333,1","1,0.333,0.333,0.333,1,0.333,0.333,0.333,1","1",""
"","html-keyboard-response","323","212123","0.0-323.0","3EICBYG645I2APDDW3782Y68BWQCJX","A2HAP8SUY3WYKR","335VBRURDJMQFRMOFGHOE9WKSHX9E1","","null","<img src=""img/flower5.png"" style=""width:200px; border:14px solid green;"">","null","","","","","","","","",""
"","image-keyboard-response","324","212588","0.0-324.0","3EICBYG645I2APDDW3782Y68BWQCJX","A2HAP8SUY3WYKR","335VBRURDJMQFRMOFGHOE9WKSHX9E1","","463.89999997615814","img/flower5.png","75","464.5","2","1","2","1","1,0.333,0.333,0.333,1,0.333,0.333,0.333,1","1,0.333,0.333,0.333,1,0.333,0.333,0.333,1","1",""
"","html-keyboard-response","325","212889","0.0-325.0","3EICBYG645I2APDDW3782Y68BWQCJX","A2HAP8SUY3WYKR","335VBRURDJMQFRMOFGHOE9WKSHX9E1","","null","<img src=""img/flower5.png"" style=""width:200px; border:14px solid green;"">","null","","","","","","","","",""
"","image-keyboard-response","326","213261","0.0-326.0","3EICBYG645I2APDDW3782Y68BWQCJX","A2HAP8SUY3WYKR","335VBRURDJMQFRMOFGHOE9WKSHX9E1","","371.5","img/flower5.png","75","372","2","1","2","1","1,0.333,0.333,0.333,1,0.333,0.333,0.333,1","1,0.333,0.333,0.333,1,0.333,0.333,0.333,1","1",""
"","html-keyboard-response","327","213571","0.0-327.0","3EICBYG645I2APDDW3782Y68BWQCJX","A2HAP8SUY3WYKR","335VBRURDJMQFRMOFGHOE9WKSHX9E1","","null","<img src=""img/flower5.png"" style=""width:200px; border:14px solid green;"">","null","","","","","","","","",""
"","image-keyboard-response","328","213892","0.0-328.0","3EICBYG645I2APDDW3782Y68BWQCJX","A2HAP8SUY3WYKR","335VBRURDJMQFRMOFGHOE9WKSHX9E1","","319.8000000715256","img/flower5.png","75","320.39999997615814","2","1","2","1","1,0.333,0.333,0.333,1,0.333,0.333,0.333,1","1,0.333,0.333,0.333,1,0.333,0.333,0.333,1","1",""
"","html-keyboard-response","329","214193","0.0-329.0","3EICBYG645I2APDDW3782Y68BWQCJX","A2HAP8SUY3WYKR","335VBRURDJMQFRMOFGHOE9WKSHX9E1","","null","<img src=""img/flower5.png"" style=""width:200px; border:14px solid green;"">","null","","","","","","","","",""
"","image-keyboard-response","330","214525","0.0-330.0","3EICBYG645I2APDDW3782Y68BWQCJX","A2HAP8SUY3WYKR","335VBRURDJMQFRMOFGHOE9WKSHX9E1","","330.90000009536743","img/flower5.png","75","331.5","2","1","2","1","1,0.333,0.333,0.333,1,0.333,0.333,0.333,1","1,0.333,0.333,0.333,1,0.333,0.333,0.333,1","1",""
"","html-keyboard-response","331","214827","0.0-331.0","3EICBYG645I2APDDW3782Y68BWQCJX","A2HAP8SUY3WYKR","335VBRURDJMQFRMOFGHOE9WKSHX9E1","","null","<img src=""img/flower5.png"" style=""width:200px; border:14px solid green;"">","null","","","","","","","","",""
"","image-keyboard-response","332","215440","0.0-332.0","3EICBYG645I2APDDW3782Y68BWQCJX","A2HAP8SUY3WYKR","335VBRURDJMQFRMOFGHOE9WKSHX9E1","","611.9000000953674","img/flower3.png","74","612.3999999761581","1","1","1","1","1,0.333,0.333,0.333,1,0.333,0.333,0.333,1","1,0.333,0.333,0.333,1,0.333,0.333,0.333,1","1",""
"","html-keyboard-response","333","215742","0.0-333.0","3EICBYG645I2APDDW3782Y68BWQCJX","A2HAP8SUY3WYKR","335VBRURDJMQFRMOFGHOE9WKSHX9E1","","null","<img src=""img/flower3.png"" style=""width:200px; border:14px solid green;"">","null","","","","","","","","",""
"","image-keyboard-response","334","216352","0.0-334.0","3EICBYG645I2APDDW3782Y68BWQCJX","A2HAP8SUY3WYKR","335VBRURDJMQFRMOFGHOE9WKSHX9E1","","609.6999999284744","img/flower5.png","75","610.2000000476837","2","1","2","1","1,0.333,0.333,0.333,1,0.333,0.333,0.333,1","1,0.333,0.333,0.333,1,0.333,0.333,0.333,1","1",""
"","html-keyboard-response","335","216654","0.0-335.0","3EICBYG645I2APDDW3782Y68BWQCJX","A2HAP8SUY3WYKR","335VBRURDJMQFRMOFGHOE9WKSHX9E1","","null","<img src=""img/flower5.png"" style=""width:200px; border:14px solid green;"">","null","","","","","","","","",""
"","image-keyboard-response","336","216910","0.0-336.0","3EICBYG645I2APDDW3782Y68BWQCJX","A2HAP8SUY3WYKR","335VBRURDJMQFRMOFGHOE9WKSHX9E1","","254.89999997615814","img/flower5.png","75","255.60000002384186","2","1","2","1","1,0.333,0.333,0.333,1,0.333,0.333,0.333,1","1,0.333,0.333,0.333,1,0.333,0.333,0.333,1","1",""
"","html-keyboard-response","337","217213","0.0-337.0","3EICBYG645I2APDDW3782Y68BWQCJX","A2HAP8SUY3WYKR","335VBRURDJMQFRMOFGHOE9WKSHX9E1","","null","<img src=""img/flower5.png"" style=""width:200px; border:14px solid green;"">","null","","","","","","","","",""
"","image-keyboard-response","338","217483","0.0-338.0","3EICBYG645I2APDDW3782Y68BWQCJX","A2HAP8SUY3WYKR","335VBRURDJMQFRMOFGHOE9WKSHX9E1","","269.2000000476837","img/flower2.png","75","269.89999997615814","2","0","3","1","1,0.333,0.333,0.333,1,0.333,0.333,0.333,1","1,0.333,0.333,0.333,1,0.333,0.333,0.333,1","1",""
"","html-keyboard-response","339","217784","0.0-339.0","3EICBYG645I2APDDW3782Y68BWQCJX","A2HAP8SUY3WYKR","335VBRURDJMQFRMOFGHOE9WKSHX9E1","","null","<img src=""img/flower2.png"" style=""width:200px;border:14px solid red;"">","null","","","","","","","","",""
"","image-keyboard-response","340","219074","0.0-340.0","3EICBYG645I2APDDW3782Y68BWQCJX","A2HAP8SUY3WYKR","335VBRURDJMQFRMOFGHOE9WKSHX9E1","","1289","img/flower3.png","74","1289.7999999523163","1","1","1","1","1,0.333,0.333,0.333,1,0.333,0.333,0.333,1","1,0.333,0.333,0.333,1,0.333,0.333,0.333,1","1",""
"","html-keyboard-response","341","219376","0.0-341.0","3EICBYG645I2APDDW3782Y68BWQCJX","A2HAP8SUY3WYKR","335VBRURDJMQFRMOFGHOE9WKSHX9E1","","null","<img src=""img/flower3.png"" style=""width:200px; border:14px solid green;"">","null","","","","","","","","",""
"","image-keyboard-response","342","219534","0.0-342.0","3EICBYG645I2APDDW3782Y68BWQCJX","A2HAP8SUY3WYKR","335VBRURDJMQFRMOFGHOE9WKSHX9E1","","157","img/flower2.png","74","157.60000002384186","1","1","3","1","1,0.333,0.333,0.333,1,0.333,0.333,0.333,1","1,0.333,0.333,0.333,1,0.333,0.333,0.333,1","1",""
"","html-keyboard-response","343","219836","0.0-343.0","3EICBYG645I2APDDW3782Y68BWQCJX","A2HAP8SUY3WYKR","335VBRURDJMQFRMOFGHOE9WKSHX9E1","","null","<img src=""img/flower2.png"" style=""width:200px; border:14px solid green;"">","null","","","","","","","","",""
"","image-keyboard-response","344","220616","0.0-344.0","3EICBYG645I2APDDW3782Y68BWQCJX","A2HAP8SUY3WYKR","335VBRURDJMQFRMOFGHOE9WKSHX9E1","","778.9000000953674","img/flower3.png","74","779.5","1","1","1","1","1,0.333,0.333,0.333,1,0.333,0.333,0.333,1","1,0.333,0.333,0.333,1,0.333,0.333,0.333,1","1",""
"","html-keyboard-response","345","220917","0.0-345.0","3EICBYG645I2APDDW3782Y68BWQCJX","A2HAP8SUY3WYKR","335VBRURDJMQFRMOFGHOE9WKSHX9E1","","null","<img src=""img/flower3.png"" style=""width:200px; border:14px solid green;"">","null","","","","","","","","",""
"","image-keyboard-response","346","221275","0.0-346.0","3EICBYG645I2APDDW3782Y68BWQCJX","A2HAP8SUY3WYKR","335VBRURDJMQFRMOFGHOE9WKSHX9E1","","357.6999999284744","img/flower3.png","74","358.2999999523163","1","1","1","1","1,0.333,0.333,0.333,1,0.333,0.333,0.333,1","1,0.333,0.333,0.333,1,0.333,0.333,0.333,1","1",""
"","html-keyboard-response","347","221577","0.0-347.0","3EICBYG645I2APDDW3782Y68BWQCJX","A2HAP8SUY3WYKR","335VBRURDJMQFRMOFGHOE9WKSHX9E1","","null","<img src=""img/flower3.png"" style=""width:200px; border:14px solid green;"">","null","","","","","","","","",""
"","image-keyboard-response","348","221924","0.0-348.0","3EICBYG645I2APDDW3782Y68BWQCJX","A2HAP8SUY3WYKR","335VBRURDJMQFRMOFGHOE9WKSHX9E1","","346.1999999284744","img/flower3.png","74","346.8000000715256","1","1","1","1","1,0.333,0.333,0.333,1,0.333,0.333,0.333,1","1,0.333,0.333,0.333,1,0.333,0.333,0.333,1","1",""
"","html-keyboard-response","349","222226","0.0-349.0","3EICBYG645I2APDDW3782Y68BWQCJX","A2HAP8SUY3WYKR","335VBRURDJMQFRMOFGHOE9WKSHX9E1","","null","<img src=""img/flower3.png"" style=""width:200px; border:14px solid green;"">","null","","","","","","","","",""
"","image-keyboard-response","350","222821","0.0-350.0","3EICBYG645I2APDDW3782Y68BWQCJX","A2HAP8SUY3WYKR","335VBRURDJMQFRMOFGHOE9WKSHX9E1","","594.6000000238419","img/flower5.png","75","595.1000000238419","2","1","2","1","1,0.333,0.333,0.333,1,0.333,0.333,0.333,1","1,0.333,0.333,0.333,1,0.333,0.333,0.333,1","1",""
"","html-keyboard-response","351","223123","0.0-351.0","3EICBYG645I2APDDW3782Y68BWQCJX","A2HAP8SUY3WYKR","335VBRURDJMQFRMOFGHOE9WKSHX9E1","","null","<img src=""img/flower5.png"" style=""width:200px; border:14px solid green;"">","null","","","","","","","","",""
"","image-keyboard-response","352","223479","0.0-352.0","3EICBYG645I2APDDW3782Y68BWQCJX","A2HAP8SUY3WYKR","335VBRURDJMQFRMOFGHOE9WKSHX9E1","","355.7000000476837","img/flower5.png","75","356.39999997615814","2","1","2","1","1,0.333,0.333,0.333,1,0.333,0.333,0.333,1","1,0.333,0.333,0.333,1,0.333,0.333,0.333,1","1",""
"","html-keyboard-response","353","223780","0.0-353.0","3EICBYG645I2APDDW3782Y68BWQCJX","A2HAP8SUY3WYKR","335VBRURDJMQFRMOFGHOE9WKSHX9E1","","null","<img src=""img/flower5.png"" style=""width:200px; border:14px solid green;"">","null","","","","","","","","",""
"","image-keyboard-response","354","224289","0.0-354.0","3EICBYG645I2APDDW3782Y68BWQCJX","A2HAP8SUY3WYKR","335VBRURDJMQFRMOFGHOE9WKSHX9E1","","507.6999999284744","img/flower2.png","74","508.2000000476837","1","0","3","1","1,0.333,0.333,0.333,1,0.333,0.333,0.333,1","1,0.333,0.333,0.333,1,0.333,0.333,0.333,1","1",""
"","html-keyboard-response","355","224590","0.0-355.0","3EICBYG645I2APDDW3782Y68BWQCJX","A2HAP8SUY3WYKR","335VBRURDJMQFRMOFGHOE9WKSHX9E1","","null","<img src=""img/flower2.png"" style=""width:200px;border:14px solid red;"">","null","","","","","","","","",""
"","image-keyboard-response","356","224997","0.0-356.0","3EICBYG645I2APDDW3782Y68BWQCJX","A2HAP8SUY3WYKR","335VBRURDJMQFRMOFGHOE9WKSHX9E1","","406.39999997615814","img/flower2.png","75","406.89999997615814","2","1","3","1","1,0.333,0.333,0.333,1,0.333,0.333,0.333,1","1,0.333,0.333,0.333,1,0.333,0.333,0.333,1","1",""
"","html-keyboard-response","357","225300","0.0-357.0","3EICBYG645I2APDDW3782Y68BWQCJX","A2HAP8SUY3WYKR","335VBRURDJMQFRMOFGHOE9WKSHX9E1","","null","<img src=""img/flower2.png"" style=""width:200px; border:14px solid green;"">","null","","","","","","","","",""
"","image-keyboard-response","358","226106","0.0-358.0","3EICBYG645I2APDDW3782Y68BWQCJX","A2HAP8SUY3WYKR","335VBRURDJMQFRMOFGHOE9WKSHX9E1","","805","img/flower5.png","75","805.6000000238419","2","1","2","1","1,0.333,0.333,0.333,1,0.333,0.333,0.333,1","1,0.333,0.333,0.333,1,0.333,0.333,0.333,1","1",""
"","html-keyboard-response","359","226408","0.0-359.0","3EICBYG645I2APDDW3782Y68BWQCJX","A2HAP8SUY3WYKR","335VBRURDJMQFRMOFGHOE9WKSHX9E1","","null","<img src=""img/flower5.png"" style=""width:200px; border:14px solid green;"">","null","","","","","","","","",""
"","image-keyboard-response","360","226793","0.0-360.0","3EICBYG645I2APDDW3782Y68BWQCJX","A2HAP8SUY3WYKR","335VBRURDJMQFRMOFGHOE9WKSHX9E1","","384.2000000476837","img/flower5.png","75","384.7999999523163","2","1","2","1","1,0.333,0.333,0.333,1,0.333,0.333,0.333,1","1,0.333,0.333,0.333,1,0.333,0.333,0.333,1","1",""
"","html-keyboard-response","361","227095","0.0-361.0","3EICBYG645I2APDDW3782Y68BWQCJX","A2HAP8SUY3WYKR","335VBRURDJMQFRMOFGHOE9WKSHX9E1","","null","<img src=""img/flower5.png"" style=""width:200px; border:14px solid green;"">","null","","","","","","","","",""
"","html-keyboard-response","362","231773","0.0-362.0","3EICBYG645I2APDDW3782Y68BWQCJX","A2HAP8SUY3WYKR","335VBRURDJMQFRMOFGHOE9WKSHX9E1","","","","","","","","","","","","",""
"","instructions","363","237301","0.0-363.0","3EICBYG645I2APDDW3782Y68BWQCJX","A2HAP8SUY3WYKR","335VBRURDJMQFRMOFGHOE9WKSHX9E1","[{""page_index"":0,""viewing_time"":5527.200000047684}]","5527.5","","","","","","","","","","",""
