"rt","url","trial_type","trial_index","time_elapsed","internal_node_id","assignmentID","mturkID","hitID","success","view_history","stimulus","key_press","reactionTime","a","r","s","cond","reward_cond","reward_cond_actual","reward_matrix_idx","responses"
"7368.399999999441","consent.html","external-html","0","7441","0.0-0.0","3DH6GAKTYZB5D7JMAHSJNJMHWG5ZYS","A2HOUSKURBF8UA","3THR0FZ95PF7SK0MYRNAOUHTWA4OLV","","","","","","","","","","","","",""
"","","fullscreen","1","11968","0.0-1.0","3DH6GAKTYZB5D7JMAHSJNJMHWG5ZYS","A2HOUSKURBF8UA","3THR0FZ95PF7SK0MYRNAOUHTWA4OLV","true","","","","","","","","","","","",""
"277814","","instructions","2","289785","0.0-2.0","3DH6GAKTYZB5D7JMAHSJNJMHWG5ZYS","A2HOUSKURBF8UA","3THR0FZ95PF7SK0MYRNAOUHTWA4OLV","","[{""page_index"":0,""viewing_time"":14411.399999999441},{""page_index"":1,""viewing_time"":11000},{""page_index"":2,""viewing_time"":12356.100000000559},{""page_index"":3,""viewing_time"":13579.399999999441},{""page_index"":4,""viewing_time"":198330.39999999944},{""page_index"":5,""viewing_time"":16579.300000000745},{""page_index"":6,""viewing_time"":11556.400000000373}]","","","","","","","","","","",""
"30733.599999999627","","instructions","3","320521","0.0-3.0","3DH6GAKTYZB5D7JMAHSJNJMHWG5ZYS","A2HOUSKURBF8UA","3THR0FZ95PF7SK0MYRNAOUHTWA4OLV","","[{""page_index"":0,""viewing_time"":30733}]","","","","","","","","","","",""
"826","","image-keyboard-response","4","321351","0.0-4.0","3DH6GAKTYZB5D7JMAHSJNJMHWG5ZYS","A2HOUSKURBF8UA","3THR0FZ95PF7SK0MYRNAOUHTWA4OLV","","","img/flower5.png","75","829.3000000007451","2","1","2","","","","",""
"null","","html-keyboard-response","5","321657","0.0-5.0","3DH6GAKTYZB5D7JMAHSJNJMHWG5ZYS","A2HOUSKURBF8UA","3THR0FZ95PF7SK0MYRNAOUHTWA4OLV","","","<img src=""img/flower5.png"" style=""width:200px; border:14px solid green;"">","null","","","","","","","","",""
"4647.700000001118","","image-keyboard-response","6","326306","0.0-6.0","3DH6GAKTYZB5D7JMAHSJNJMHWG5ZYS","A2HOUSKURBF8UA","3THR0FZ95PF7SK0MYRNAOUHTWA4OLV","","","img/flower5.png","75","4649.0999999996275","2","1","2","","","","",""
"null","","html-keyboard-response","7","326616","0.0-7.0","3DH6GAKTYZB5D7JMAHSJNJMHWG5ZYS","A2HOUSKURBF8UA","3THR0FZ95PF7SK0MYRNAOUHTWA4OLV","","","<img src=""img/flower5.png"" style=""width:200px; border:14px solid green;"">","null","","","","","","","","",""
"3015","","image-keyboard-response","8","329633","0.0-8.0","3DH6GAKTYZB5D7JMAHSJNJMHWG5ZYS","A2HOUSKURBF8UA","3THR0FZ95PF7SK0MYRNAOUHTWA4OLV","","","img/flower5.png","75","3016.7000000011176","2","1","2","","","","",""
"null","","html-keyboard-response","9","329936","0.0-9.0","3DH6GAKTYZB5D7JMAHSJNJMHWG5ZYS","A2HOUSKURBF8UA","3THR0FZ95PF7SK0MYRNAOUHTWA4OLV","","","<img src=""img/flower5.png"" style=""width:200px; border:14px solid green;"">","null","","","","","","","","",""
"1088.2000000011176","","image-keyboard-response","10","331026","0.0-10.0","3DH6GAKTYZB5D7JMAHSJNJMHWG5ZYS","A2HOUSKURBF8UA","3THR0FZ95PF7SK0MYRNAOUHTWA4OLV","","","img/flower4.png","74","1090","1","1","1","","","","",""
"null","","html-keyboard-response","11","331336","0.0-11.0","3DH6GAKTYZB5D7JMAHSJNJMHWG5ZYS","A2HOUSKURBF8UA","3THR0FZ95PF7SK0MYRNAOUHTWA4OLV","","","<img src=""img/flower4.png"" style=""width:200px; border:14px solid green;"">","null","","","","","","","","",""
"794.7000000011176","","image-keyboard-response","12","332132","0.0-12.0","3DH6GAKTYZB5D7JMAHSJNJMHWG5ZYS","A2HOUSKURBF8UA","3THR0FZ95PF7SK0MYRNAOUHTWA4OLV","","","img/flower6.png","76","796.2000000011176","3","1","3","","","","",""
"null","","html-keyboard-response","13","332440","0.0-13.0","3DH6GAKTYZB5D7JMAHSJNJMHWG5ZYS","A2HOUSKURBF8UA","3THR0FZ95PF7SK0MYRNAOUHTWA4OLV","","","<img src=""img/flower6.png"" style=""width:200px; border:14px solid green;"">","null","","","","","","","","",""
"1167.5","","image-keyboard-response","14","333609","0.0-14.0","3DH6GAKTYZB5D7JMAHSJNJMHWG5ZYS","A2HOUSKURBF8UA","3THR0FZ95PF7SK0MYRNAOUHTWA4OLV","","","img/flower6.png","76","1169.1000000014901","3","1","3","","","","",""
"null","","html-keyboard-response","15","333912","0.0-15.0","3DH6GAKTYZB5D7JMAHSJNJMHWG5ZYS","A2HOUSKURBF8UA","3THR0FZ95PF7SK0MYRNAOUHTWA4OLV","","","<img src=""img/flower6.png"" style=""width:200px; border:14px solid green;"">","null","","","","","","","","",""
"1824.199999999255","","image-keyboard-response","16","335738","0.0-16.0","3DH6GAKTYZB5D7JMAHSJNJMHWG5ZYS","A2HOUSKURBF8UA","3THR0FZ95PF7SK0MYRNAOUHTWA4OLV","","","img/flower6.png","76","1825.7999999988824","3","0","3","","","","",""
"null","","html-keyboard-response","17","336048","0.0-17.0","3DH6GAKTYZB5D7JMAHSJNJMHWG5ZYS","A2HOUSKURBF8UA","3THR0FZ95PF7SK0MYRNAOUHTWA4OLV","","","<img src=""img/flower6.png"" style=""width:200px;border:14px solid red;"">","null","","","","","","","","",""
"874","","image-keyboard-response","18","336924","0.0-18.0","3DH6GAKTYZB5D7JMAHSJNJMHWG5ZYS","A2HOUSKURBF8UA","3THR0FZ95PF7SK0MYRNAOUHTWA4OLV","","","img/flower5.png","75","875.5","2","1","2","","","","",""
"null","","html-keyboard-response","19","337232","0.0-19.0","3DH6GAKTYZB5D7JMAHSJNJMHWG5ZYS","A2HOUSKURBF8UA","3THR0FZ95PF7SK0MYRNAOUHTWA4OLV","","","<img src=""img/flower5.png"" style=""width:200px; border:14px solid green;"">","null","","","","","","","","",""
"551.5999999996275","","image-keyboard-response","20","337785","0.0-20.0","3DH6GAKTYZB5D7JMAHSJNJMHWG5ZYS","A2HOUSKURBF8UA","3THR0FZ95PF7SK0MYRNAOUHTWA4OLV","","","img/flower4.png","74","553.2000000011176","1","1","1","","","","",""
"null","","html-keyboard-response","21","338088","0.0-21.0","3DH6GAKTYZB5D7JMAHSJNJMHWG5ZYS","A2HOUSKURBF8UA","3THR0FZ95PF7SK0MYRNAOUHTWA4OLV","","","<img src=""img/flower4.png"" style=""width:200px; border:14px solid green;"">","null","","","","","","","","",""
"634.2999999988824","","image-keyboard-response","22","338724","0.0-22.0","3DH6GAKTYZB5D7JMAHSJNJMHWG5ZYS","A2HOUSKURBF8UA","3THR0FZ95PF7SK0MYRNAOUHTWA4OLV","","","img/flower5.png","75","636","2","1","2","","","","",""
"null","","html-keyboard-response","23","339032","0.0-23.0","3DH6GAKTYZB5D7JMAHSJNJMHWG5ZYS","A2HOUSKURBF8UA","3THR0FZ95PF7SK0MYRNAOUHTWA4OLV","","","<img src=""img/flower5.png"" style=""width:200px; border:14px solid green;"">","null","","","","","","","","",""
"1237.0999999996275","","image-keyboard-response","24","340271","0.0-24.0","3DH6GAKTYZB5D7JMAHSJNJMHWG5ZYS","A2HOUSKURBF8UA","3THR0FZ95PF7SK0MYRNAOUHTWA4OLV","","","img/flower5.png","75","1238.3999999985099","2","1","2","","","","",""
"null","","html-keyboard-response","25","340576","0.0-25.0","3DH6GAKTYZB5D7JMAHSJNJMHWG5ZYS","A2HOUSKURBF8UA","3THR0FZ95PF7SK0MYRNAOUHTWA4OLV","","","<img src=""img/flower5.png"" style=""width:200px; border:14px solid green;"">","null","","","","","","","","",""
"1249.0999999996275","","image-keyboard-response","26","341826","0.0-26.0","3DH6GAKTYZB5D7JMAHSJNJMHWG5ZYS","A2HOUSKURBF8UA","3THR0FZ95PF7SK0MYRNAOUHTWA4OLV","","","img/flower5.png","75","1250.5","2","1","2","","","","",""
"null","","html-keyboard-response","27","342136","0.0-27.0","3DH6GAKTYZB5D7JMAHSJNJMHWG5ZYS","A2HOUSKURBF8UA","3THR0FZ95PF7SK0MYRNAOUHTWA4OLV","","","<img src=""img/flower5.png"" style=""width:200px; border:14px solid green;"">","null","","","","","","","","",""
"600.8999999985099","","image-keyboard-response","28","342738","0.0-28.0","3DH6GAKTYZB5D7JMAHSJNJMHWG5ZYS","A2HOUSKURBF8UA","3THR0FZ95PF7SK0MYRNAOUHTWA4OLV","","","img/flower6.png","76","602.0999999996275","3","0","3","","","","",""
"null","","html-keyboard-response","29","343048","0.0-29.0","3DH6GAKTYZB5D7JMAHSJNJMHWG5ZYS","A2HOUSKURBF8UA","3THR0FZ95PF7SK0MYRNAOUHTWA4OLV","","","<img src=""img/flower6.png"" style=""width:200px;border:14px solid red;"">","null","","","","","","","","",""
"1151.300000000745","","image-keyboard-response","30","344202","0.0-30.0","3DH6GAKTYZB5D7JMAHSJNJMHWG5ZYS","A2HOUSKURBF8UA","3THR0FZ95PF7SK0MYRNAOUHTWA4OLV","","","img/flower6.png","76","1153.300000000745","3","1","3","","","","",""
"null","","html-keyboard-response","31","344504","0.0-31.0","3DH6GAKTYZB5D7JMAHSJNJMHWG5ZYS","A2HOUSKURBF8UA","3THR0FZ95PF7SK0MYRNAOUHTWA4OLV","","","<img src=""img/flower6.png"" style=""width:200px; border:14px solid green;"">","null","","","","","","","","",""
"1123.300000000745","","image-keyboard-response","32","345628","0.0-32.0","3DH6GAKTYZB5D7JMAHSJNJMHWG5ZYS","A2HOUSKURBF8UA","3THR0FZ95PF7SK0MYRNAOUHTWA4OLV","","","img/flower6.png","76","1124.800000000745","3","1","3","","","","",""
"null","","html-keyboard-response","33","345936","0.0-33.0","3DH6GAKTYZB5D7JMAHSJNJMHWG5ZYS","A2HOUSKURBF8UA","3THR0FZ95PF7SK0MYRNAOUHTWA4OLV","","","<img src=""img/flower6.png"" style=""width:200px; border:14px solid green;"">","null","","","","","","","","",""
"793.6000000014901","","image-keyboard-response","34","346731","0.0-34.0","3DH6GAKTYZB5D7JMAHSJNJMHWG5ZYS","A2HOUSKURBF8UA","3THR0FZ95PF7SK0MYRNAOUHTWA4OLV","","","img/flower6.png","76","795","3","1","3","","","","",""
"null","","html-keyboard-response","35","347040","0.0-35.0","3DH6GAKTYZB5D7JMAHSJNJMHWG5ZYS","A2HOUSKURBF8UA","3THR0FZ95PF7SK0MYRNAOUHTWA4OLV","","","<img src=""img/flower6.png"" style=""width:200px; border:14px solid green;"">","null","","","","","","","","",""
"682.7000000011176","","image-keyboard-response","36","347724","0.0-36.0","3DH6GAKTYZB5D7JMAHSJNJMHWG5ZYS","A2HOUSKURBF8UA","3THR0FZ95PF7SK0MYRNAOUHTWA4OLV","","","img/flower6.png","76","684","3","1","3","","","","",""
"null","","html-keyboard-response","37","348034","0.0-37.0","3DH6GAKTYZB5D7JMAHSJNJMHWG5ZYS","A2HOUSKURBF8UA","3THR0FZ95PF7SK0MYRNAOUHTWA4OLV","","","<img src=""img/flower6.png"" style=""width:200px; border:14px solid green;"">","null","","","","","","","","",""
"534.2000000011176","","image-keyboard-response","38","348570","0.0-38.0","3DH6GAKTYZB5D7JMAHSJNJMHWG5ZYS","A2HOUSKURBF8UA","3THR0FZ95PF7SK0MYRNAOUHTWA4OLV","","","img/flower4.png","74","535.3999999985099","1","1","1","","","","",""
"null","","html-keyboard-response","39","348872","0.0-39.0","3DH6GAKTYZB5D7JMAHSJNJMHWG5ZYS","A2HOUSKURBF8UA","3THR0FZ95PF7SK0MYRNAOUHTWA4OLV","","","<img src=""img/flower4.png"" style=""width:200px; border:14px solid green;"">","null","","","","","","","","",""
"668","","image-keyboard-response","40","349542","0.0-40.0","3DH6GAKTYZB5D7JMAHSJNJMHWG5ZYS","A2HOUSKURBF8UA","3THR0FZ95PF7SK0MYRNAOUHTWA4OLV","","","img/flower6.png","76","669.4000000003725","3","1","3","","","","",""
"null","","html-keyboard-response","41","349848","0.0-41.0","3DH6GAKTYZB5D7JMAHSJNJMHWG5ZYS","A2HOUSKURBF8UA","3THR0FZ95PF7SK0MYRNAOUHTWA4OLV","","","<img src=""img/flower6.png"" style=""width:200px; border:14px solid green;"">","null","","","","","","","","",""
"510.59999999962747","","image-keyboard-response","42","350360","0.0-42.0","3DH6GAKTYZB5D7JMAHSJNJMHWG5ZYS","A2HOUSKURBF8UA","3THR0FZ95PF7SK0MYRNAOUHTWA4OLV","","","img/flower4.png","74","511.90000000037253","1","1","1","","","","",""
"null","","html-keyboard-response","43","350664","0.0-43.0","3DH6GAKTYZB5D7JMAHSJNJMHWG5ZYS","A2HOUSKURBF8UA","3THR0FZ95PF7SK0MYRNAOUHTWA4OLV","","","<img src=""img/flower4.png"" style=""width:200px; border:14px solid green;"">","null","","","","","","","","",""
"385.5","","image-keyboard-response","44","351051","0.0-44.0","3DH6GAKTYZB5D7JMAHSJNJMHWG5ZYS","A2HOUSKURBF8UA","3THR0FZ95PF7SK0MYRNAOUHTWA4OLV","","","img/flower5.png","75","386.69999999925494","2","0","2","","","","",""
"null","","html-keyboard-response","45","351360","0.0-45.0","3DH6GAKTYZB5D7JMAHSJNJMHWG5ZYS","A2HOUSKURBF8UA","3THR0FZ95PF7SK0MYRNAOUHTWA4OLV","","","<img src=""img/flower5.png"" style=""width:200px;border:14px solid red;"">","null","","","","","","","","",""
"485.40000000037253","","image-keyboard-response","46","351847","0.0-46.0","3DH6GAKTYZB5D7JMAHSJNJMHWG5ZYS","A2HOUSKURBF8UA","3THR0FZ95PF7SK0MYRNAOUHTWA4OLV","","","img/flower4.png","74","486.69999999925494","1","1","1","","","","",""
"null","","html-keyboard-response","47","352152","0.0-47.0","3DH6GAKTYZB5D7JMAHSJNJMHWG5ZYS","A2HOUSKURBF8UA","3THR0FZ95PF7SK0MYRNAOUHTWA4OLV","","","<img src=""img/flower4.png"" style=""width:200px; border:14px solid green;"">","null","","","","","","","","",""
"495.2000000011176","","image-keyboard-response","48","352649","0.0-48.0","3DH6GAKTYZB5D7JMAHSJNJMHWG5ZYS","A2HOUSKURBF8UA","3THR0FZ95PF7SK0MYRNAOUHTWA4OLV","","","img/flower5.png","75","496.7000000011176","2","1","2","","","","",""
"null","","html-keyboard-response","49","352952","0.0-49.0","3DH6GAKTYZB5D7JMAHSJNJMHWG5ZYS","A2HOUSKURBF8UA","3THR0FZ95PF7SK0MYRNAOUHTWA4OLV","","","<img src=""img/flower5.png"" style=""width:200px; border:14px solid green;"">","null","","","","","","","","",""
"493.7000000011176","","image-keyboard-response","50","353447","0.0-50.0","3DH6GAKTYZB5D7JMAHSJNJMHWG5ZYS","A2HOUSKURBF8UA","3THR0FZ95PF7SK0MYRNAOUHTWA4OLV","","","img/flower4.png","76","495","3","0","1","","","","",""
"null","","html-keyboard-response","51","353752","0.0-51.0","3DH6GAKTYZB5D7JMAHSJNJMHWG5ZYS","A2HOUSKURBF8UA","3THR0FZ95PF7SK0MYRNAOUHTWA4OLV","","","<img src=""img/flower4.png"" style=""width:200px;border:14px solid red;"">","null","","","","","","","","",""
"1039.5","","image-keyboard-response","52","354793","0.0-52.0","3DH6GAKTYZB5D7JMAHSJNJMHWG5ZYS","A2HOUSKURBF8UA","3THR0FZ95PF7SK0MYRNAOUHTWA4OLV","","","img/flower5.png","75","1040.699999999255","2","1","2","","","","",""
"null","","html-keyboard-response","53","355096","0.0-53.0","3DH6GAKTYZB5D7JMAHSJNJMHWG5ZYS","A2HOUSKURBF8UA","3THR0FZ95PF7SK0MYRNAOUHTWA4OLV","","","<img src=""img/flower5.png"" style=""width:200px; border:14px solid green;"">","null","","","","","","","","",""
"736.9000000003725","","image-keyboard-response","54","355835","0.0-54.0","3DH6GAKTYZB5D7JMAHSJNJMHWG5ZYS","A2HOUSKURBF8UA","3THR0FZ95PF7SK0MYRNAOUHTWA4OLV","","","img/flower6.png","76","738.2999999988824","3","1","3","","","","",""
"null","","html-keyboard-response","55","356144","0.0-55.0","3DH6GAKTYZB5D7JMAHSJNJMHWG5ZYS","A2HOUSKURBF8UA","3THR0FZ95PF7SK0MYRNAOUHTWA4OLV","","","<img src=""img/flower6.png"" style=""width:200px; border:14px solid green;"">","null","","","","","","","","",""
"583.1000000014901","","image-keyboard-response","56","356728","0.0-56.0","3DH6GAKTYZB5D7JMAHSJNJMHWG5ZYS","A2HOUSKURBF8UA","3THR0FZ95PF7SK0MYRNAOUHTWA4OLV","","","img/flower4.png","74","584.5","1","0","1","","","","",""
"null","","html-keyboard-response","57","357032","0.0-57.0","3DH6GAKTYZB5D7JMAHSJNJMHWG5ZYS","A2HOUSKURBF8UA","3THR0FZ95PF7SK0MYRNAOUHTWA4OLV","","","<img src=""img/flower4.png"" style=""width:200px;border:14px solid red;"">","null","","","","","","","","",""
"849","","image-keyboard-response","58","357882","0.0-58.0","3DH6GAKTYZB5D7JMAHSJNJMHWG5ZYS","A2HOUSKURBF8UA","3THR0FZ95PF7SK0MYRNAOUHTWA4OLV","","","img/flower4.png","74","850.1000000014901","1","1","1","","","","",""
"null","","html-keyboard-response","59","358192","0.0-59.0","3DH6GAKTYZB5D7JMAHSJNJMHWG5ZYS","A2HOUSKURBF8UA","3THR0FZ95PF7SK0MYRNAOUHTWA4OLV","","","<img src=""img/flower4.png"" style=""width:200px; border:14px solid green;"">","null","","","","","","","","",""
"817.1999999992549","","image-keyboard-response","60","359011","0.0-60.0","3DH6GAKTYZB5D7JMAHSJNJMHWG5ZYS","A2HOUSKURBF8UA","3THR0FZ95PF7SK0MYRNAOUHTWA4OLV","","","img/flower4.png","74","819","1","1","1","","","","",""
"null","","html-keyboard-response","61","359320","0.0-61.0","3DH6GAKTYZB5D7JMAHSJNJMHWG5ZYS","A2HOUSKURBF8UA","3THR0FZ95PF7SK0MYRNAOUHTWA4OLV","","","<img src=""img/flower4.png"" style=""width:200px; border:14px solid green;"">","null","","","","","","","","",""
"766.0999999996275","","image-keyboard-response","62","360088","0.0-62.0","3DH6GAKTYZB5D7JMAHSJNJMHWG5ZYS","A2HOUSKURBF8UA","3THR0FZ95PF7SK0MYRNAOUHTWA4OLV","","","img/flower4.png","74","768","1","1","1","","","","",""
"null","","html-keyboard-response","63","360392","0.0-63.0","3DH6GAKTYZB5D7JMAHSJNJMHWG5ZYS","A2HOUSKURBF8UA","3THR0FZ95PF7SK0MYRNAOUHTWA4OLV","","","<img src=""img/flower4.png"" style=""width:200px; border:14px solid green;"">","null","","","","","","","","",""
"25961.800000000745","","instructions","64","386354","0.0-64.0","3DH6GAKTYZB5D7JMAHSJNJMHWG5ZYS","A2HOUSKURBF8UA","3THR0FZ95PF7SK0MYRNAOUHTWA4OLV","","[{""page_index"":0,""viewing_time"":6564.199999999255},{""page_index"":1,""viewing_time"":19397}]","","","","","","","","","","",""
"723.7000000011176","","image-keyboard-response","65","387080","0.0-65.0","3DH6GAKTYZB5D7JMAHSJNJMHWG5ZYS","A2HOUSKURBF8UA","3THR0FZ95PF7SK0MYRNAOUHTWA4OLV","","","img/flower6.png","74","725.7000000011176","1","1","3","","","","",""
"null","","html-keyboard-response","66","387384","0.0-66.0","3DH6GAKTYZB5D7JMAHSJNJMHWG5ZYS","A2HOUSKURBF8UA","3THR0FZ95PF7SK0MYRNAOUHTWA4OLV","","","<img src=""img/flower6.png"" style=""width:200px; border:14px solid green;"">","null","","","","","","","","",""
"1277.199999999255","","image-keyboard-response","67","388663","0.0-67.0","3DH6GAKTYZB5D7JMAHSJNJMHWG5ZYS","A2HOUSKURBF8UA","3THR0FZ95PF7SK0MYRNAOUHTWA4OLV","","","img/flower4.png","74","1278.5","1","1","1","","","","",""
"null","","html-keyboard-response","68","388968","0.0-68.0","3DH6GAKTYZB5D7JMAHSJNJMHWG5ZYS","A2HOUSKURBF8UA","3THR0FZ95PF7SK0MYRNAOUHTWA4OLV","","","<img src=""img/flower4.png"" style=""width:200px; border:14px solid green;"">","null","","","","","","","","",""
"637.5999999996275","","image-keyboard-response","69","389607","0.0-69.0","3DH6GAKTYZB5D7JMAHSJNJMHWG5ZYS","A2HOUSKURBF8UA","3THR0FZ95PF7SK0MYRNAOUHTWA4OLV","","","img/flower6.png","76","639","3","1","3","","","","",""
"null","","html-keyboard-response","70","389912","0.0-70.0","3DH6GAKTYZB5D7JMAHSJNJMHWG5ZYS","A2HOUSKURBF8UA","3THR0FZ95PF7SK0MYRNAOUHTWA4OLV","","","<img src=""img/flower6.png"" style=""width:200px; border:14px solid green;"">","null","","","","","","","","",""
"572.6000000014901","","image-keyboard-response","71","390486","0.0-71.0","3DH6GAKTYZB5D7JMAHSJNJMHWG5ZYS","A2HOUSKURBF8UA","3THR0FZ95PF7SK0MYRNAOUHTWA4OLV","","","img/flower5.png","75","574","2","0","2","","","","",""
"null","","html-keyboard-response","72","390792","0.0-72.0","3DH6GAKTYZB5D7JMAHSJNJMHWG5ZYS","A2HOUSKURBF8UA","3THR0FZ95PF7SK0MYRNAOUHTWA4OLV","","","<img src=""img/flower5.png"" style=""width:200px;border:14px solid red;"">","null","","","","","","","","",""
"974.7000000011176","","image-keyboard-response","73","391768","0.0-73.0","3DH6GAKTYZB5D7JMAHSJNJMHWG5ZYS","A2HOUSKURBF8UA","3THR0FZ95PF7SK0MYRNAOUHTWA4OLV","","","img/flower6.png","76","976.1000000014901","3","0","3","","","","",""
"null","","html-keyboard-response","74","392072","0.0-74.0","3DH6GAKTYZB5D7JMAHSJNJMHWG5ZYS","A2HOUSKURBF8UA","3THR0FZ95PF7SK0MYRNAOUHTWA4OLV","","","<img src=""img/flower6.png"" style=""width:200px;border:14px solid red;"">","null","","","","","","","","",""
"991.3000000007451","","image-keyboard-response","75","393065","0.0-75.0","3DH6GAKTYZB5D7JMAHSJNJMHWG5ZYS","A2HOUSKURBF8UA","3THR0FZ95PF7SK0MYRNAOUHTWA4OLV","","","img/flower5.png","75","992.5","2","1","2","","","","",""
"null","","html-keyboard-response","76","393368","0.0-76.0","3DH6GAKTYZB5D7JMAHSJNJMHWG5ZYS","A2HOUSKURBF8UA","3THR0FZ95PF7SK0MYRNAOUHTWA4OLV","","","<img src=""img/flower5.png"" style=""width:200px; border:14px solid green;"">","null","","","","","","","","",""
"894.7999999988824","","image-keyboard-response","77","394264","0.0-77.0","3DH6GAKTYZB5D7JMAHSJNJMHWG5ZYS","A2HOUSKURBF8UA","3THR0FZ95PF7SK0MYRNAOUHTWA4OLV","","","img/flower5.png","75","896.1999999992549","2","1","2","","","","",""
"null","","html-keyboard-response","78","394568","0.0-78.0","3DH6GAKTYZB5D7JMAHSJNJMHWG5ZYS","A2HOUSKURBF8UA","3THR0FZ95PF7SK0MYRNAOUHTWA4OLV","","","<img src=""img/flower5.png"" style=""width:200px; border:14px solid green;"">","null","","","","","","","","",""
"690.7000000011176","","image-keyboard-response","79","395260","0.0-79.0","3DH6GAKTYZB5D7JMAHSJNJMHWG5ZYS","A2HOUSKURBF8UA","3THR0FZ95PF7SK0MYRNAOUHTWA4OLV","","","img/flower4.png","74","691.8999999985099","1","1","1","","","","",""
"null","","html-keyboard-response","80","395568","0.0-80.0","3DH6GAKTYZB5D7JMAHSJNJMHWG5ZYS","A2HOUSKURBF8UA","3THR0FZ95PF7SK0MYRNAOUHTWA4OLV","","","<img src=""img/flower4.png"" style=""width:200px; border:14px solid green;"">","null","","","","","","","","",""
"782.1999999992549","","image-keyboard-response","81","396352","0.0-81.0","3DH6GAKTYZB5D7JMAHSJNJMHWG5ZYS","A2HOUSKURBF8UA","3THR0FZ95PF7SK0MYRNAOUHTWA4OLV","","","img/flower5.png","75","783.6000000014901","2","0","2","","","","",""
"null","","html-keyboard-response","82","396656","0.0-82.0","3DH6GAKTYZB5D7JMAHSJNJMHWG5ZYS","A2HOUSKURBF8UA","3THR0FZ95PF7SK0MYRNAOUHTWA4OLV","","","<img src=""img/flower5.png"" style=""width:200px;border:14px solid red;"">","null","","","","","","","","",""
"1335.7999999988824","","image-keyboard-response","83","397993","0.0-83.0","3DH6GAKTYZB5D7JMAHSJNJMHWG5ZYS","A2HOUSKURBF8UA","3THR0FZ95PF7SK0MYRNAOUHTWA4OLV","","","img/flower4.png","74","1337.2999999988824","1","1","1","","","","",""
"null","","html-keyboard-response","84","398304","0.0-84.0","3DH6GAKTYZB5D7JMAHSJNJMHWG5ZYS","A2HOUSKURBF8UA","3THR0FZ95PF7SK0MYRNAOUHTWA4OLV","","","<img src=""img/flower4.png"" style=""width:200px; border:14px solid green;"">","null","","","","","","","","",""
"517.5999999996275","","image-keyboard-response","85","398823","0.0-85.0","3DH6GAKTYZB5D7JMAHSJNJMHWG5ZYS","A2HOUSKURBF8UA","3THR0FZ95PF7SK0MYRNAOUHTWA4OLV","","","img/flower6.png","76","518.7999999988824","3","0","3","","","","",""
"null","","html-keyboard-response","86","399128","0.0-86.0","3DH6GAKTYZB5D7JMAHSJNJMHWG5ZYS","A2HOUSKURBF8UA","3THR0FZ95PF7SK0MYRNAOUHTWA4OLV","","","<img src=""img/flower6.png"" style=""width:200px;border:14px solid red;"">","null","","","","","","","","",""
"601.9000000003725","","image-keyboard-response","87","399731","0.0-87.0","3DH6GAKTYZB5D7JMAHSJNJMHWG5ZYS","A2HOUSKURBF8UA","3THR0FZ95PF7SK0MYRNAOUHTWA4OLV","","","img/flower5.png","75","603.5","2","1","2","","","","",""
"null","","html-keyboard-response","88","400040","0.0-88.0","3DH6GAKTYZB5D7JMAHSJNJMHWG5ZYS","A2HOUSKURBF8UA","3THR0FZ95PF7SK0MYRNAOUHTWA4OLV","","","<img src=""img/flower5.png"" style=""width:200px; border:14px solid green;"">","null","","","","","","","","",""
"751","","image-keyboard-response","89","400793","0.0-89.0","3DH6GAKTYZB5D7JMAHSJNJMHWG5ZYS","A2HOUSKURBF8UA","3THR0FZ95PF7SK0MYRNAOUHTWA4OLV","","","img/flower5.png","75","752.8000000007451","2","1","2","","","","",""
"null","","html-keyboard-response","90","401096","0.0-90.0","3DH6GAKTYZB5D7JMAHSJNJMHWG5ZYS","A2HOUSKURBF8UA","3THR0FZ95PF7SK0MYRNAOUHTWA4OLV","","","<img src=""img/flower5.png"" style=""width:200px; border:14px solid green;"">","null","","","","","","","","",""
"638.3000000007451","","image-keyboard-response","91","401736","0.0-91.0","3DH6GAKTYZB5D7JMAHSJNJMHWG5ZYS","A2HOUSKURBF8UA","3THR0FZ95PF7SK0MYRNAOUHTWA4OLV","","","img/flower5.png","75","639.5","2","1","2","","","","",""
"null","","html-keyboard-response","92","402040","0.0-92.0","3DH6GAKTYZB5D7JMAHSJNJMHWG5ZYS","A2HOUSKURBF8UA","3THR0FZ95PF7SK0MYRNAOUHTWA4OLV","","","<img src=""img/flower5.png"" style=""width:200px; border:14px solid green;"">","null","","","","","","","","",""
"502.7999999988824","","image-keyboard-response","93","402544","0.0-93.0","3DH6GAKTYZB5D7JMAHSJNJMHWG5ZYS","A2HOUSKURBF8UA","3THR0FZ95PF7SK0MYRNAOUHTWA4OLV","","","img/flower6.png","76","504.19999999925494","3","0","3","","","","",""
"null","","html-keyboard-response","94","402848","0.0-94.0","3DH6GAKTYZB5D7JMAHSJNJMHWG5ZYS","A2HOUSKURBF8UA","3THR0FZ95PF7SK0MYRNAOUHTWA4OLV","","","<img src=""img/flower6.png"" style=""width:200px;border:14px solid red;"">","null","","","","","","","","",""
"585.2999999988824","","image-keyboard-response","95","403435","0.0-95.0","3DH6GAKTYZB5D7JMAHSJNJMHWG5ZYS","A2HOUSKURBF8UA","3THR0FZ95PF7SK0MYRNAOUHTWA4OLV","","","img/flower6.png","76","586.6999999992549","3","1","3","","","","",""
"null","","html-keyboard-response","96","403744","0.0-96.0","3DH6GAKTYZB5D7JMAHSJNJMHWG5ZYS","A2HOUSKURBF8UA","3THR0FZ95PF7SK0MYRNAOUHTWA4OLV","","","<img src=""img/flower6.png"" style=""width:200px; border:14px solid green;"">","null","","","","","","","","",""
"560.4000000003725","","image-keyboard-response","97","404306","0.0-97.0","3DH6GAKTYZB5D7JMAHSJNJMHWG5ZYS","A2HOUSKURBF8UA","3THR0FZ95PF7SK0MYRNAOUHTWA4OLV","","","img/flower5.png","75","561.5","2","1","2","","","","",""
"null","","html-keyboard-response","98","404616","0.0-98.0","3DH6GAKTYZB5D7JMAHSJNJMHWG5ZYS","A2HOUSKURBF8UA","3THR0FZ95PF7SK0MYRNAOUHTWA4OLV","","","<img src=""img/flower5.png"" style=""width:200px; border:14px solid green;"">","null","","","","","","","","",""
"607.1999999992549","","image-keyboard-response","99","405224","0.0-99.0","3DH6GAKTYZB5D7JMAHSJNJMHWG5ZYS","A2HOUSKURBF8UA","3THR0FZ95PF7SK0MYRNAOUHTWA4OLV","","","img/flower6.png","76","608.5999999996275","3","0","3","","","","",""
"null","","html-keyboard-response","100","405528","0.0-100.0","3DH6GAKTYZB5D7JMAHSJNJMHWG5ZYS","A2HOUSKURBF8UA","3THR0FZ95PF7SK0MYRNAOUHTWA4OLV","","","<img src=""img/flower6.png"" style=""width:200px;border:14px solid red;"">","null","","","","","","","","",""
"798.3000000007451","","image-keyboard-response","101","406328","0.0-101.0","3DH6GAKTYZB5D7JMAHSJNJMHWG5ZYS","A2HOUSKURBF8UA","3THR0FZ95PF7SK0MYRNAOUHTWA4OLV","","","img/flower6.png","76","799.7000000011176","3","0","3","","","","",""
"null","","html-keyboard-response","102","406632","0.0-102.0","3DH6GAKTYZB5D7JMAHSJNJMHWG5ZYS","A2HOUSKURBF8UA","3THR0FZ95PF7SK0MYRNAOUHTWA4OLV","","","<img src=""img/flower6.png"" style=""width:200px;border:14px solid red;"">","null","","","","","","","","",""
"513","","image-keyboard-response","103","407147","0.0-103.0","3DH6GAKTYZB5D7JMAHSJNJMHWG5ZYS","A2HOUSKURBF8UA","3THR0FZ95PF7SK0MYRNAOUHTWA4OLV","","","img/flower4.png","74","514.8000000007451","1","0","1","","","","",""
"null","","html-keyboard-response","104","407456","0.0-104.0","3DH6GAKTYZB5D7JMAHSJNJMHWG5ZYS","A2HOUSKURBF8UA","3THR0FZ95PF7SK0MYRNAOUHTWA4OLV","","","<img src=""img/flower4.png"" style=""width:200px;border:14px solid red;"">","null","","","","","","","","",""
"590.3999999985099","","image-keyboard-response","105","408048","0.0-105.0","3DH6GAKTYZB5D7JMAHSJNJMHWG5ZYS","A2HOUSKURBF8UA","3THR0FZ95PF7SK0MYRNAOUHTWA4OLV","","","img/flower4.png","74","591.6999999992549","1","1","1","","","","",""
"null","","html-keyboard-response","106","408352","0.0-106.0","3DH6GAKTYZB5D7JMAHSJNJMHWG5ZYS","A2HOUSKURBF8UA","3THR0FZ95PF7SK0MYRNAOUHTWA4OLV","","","<img src=""img/flower4.png"" style=""width:200px; border:14px solid green;"">","null","","","","","","","","",""
"669","","image-keyboard-response","107","409022","0.0-107.0","3DH6GAKTYZB5D7JMAHSJNJMHWG5ZYS","A2HOUSKURBF8UA","3THR0FZ95PF7SK0MYRNAOUHTWA4OLV","","","img/flower4.png","74","670.3999999985099","1","0","1","","","","",""
"null","","html-keyboard-response","108","409328","0.0-108.0","3DH6GAKTYZB5D7JMAHSJNJMHWG5ZYS","A2HOUSKURBF8UA","3THR0FZ95PF7SK0MYRNAOUHTWA4OLV","","","<img src=""img/flower4.png"" style=""width:200px;border:14px solid red;"">","null","","","","","","","","",""
"620.3999999985099","","image-keyboard-response","109","409950","0.0-109.0","3DH6GAKTYZB5D7JMAHSJNJMHWG5ZYS","A2HOUSKURBF8UA","3THR0FZ95PF7SK0MYRNAOUHTWA4OLV","","","img/flower6.png","76","621.5999999996275","3","0","3","","","","",""
"null","","html-keyboard-response","110","410256","0.0-110.0","3DH6GAKTYZB5D7JMAHSJNJMHWG5ZYS","A2HOUSKURBF8UA","3THR0FZ95PF7SK0MYRNAOUHTWA4OLV","","","<img src=""img/flower6.png"" style=""width:200px;border:14px solid red;"">","null","","","","","","","","",""
"603.7000000011176","","image-keyboard-response","111","410861","0.0-111.0","3DH6GAKTYZB5D7JMAHSJNJMHWG5ZYS","A2HOUSKURBF8UA","3THR0FZ95PF7SK0MYRNAOUHTWA4OLV","","","img/flower4.png","74","605.3999999985099","1","1","1","","","","",""
"null","","html-keyboard-response","112","411168","0.0-112.0","3DH6GAKTYZB5D7JMAHSJNJMHWG5ZYS","A2HOUSKURBF8UA","3THR0FZ95PF7SK0MYRNAOUHTWA4OLV","","","<img src=""img/flower4.png"" style=""width:200px; border:14px solid green;"">","null","","","","","","","","",""
"519","","image-keyboard-response","113","411689","0.0-113.0","3DH6GAKTYZB5D7JMAHSJNJMHWG5ZYS","A2HOUSKURBF8UA","3THR0FZ95PF7SK0MYRNAOUHTWA4OLV","","","img/flower5.png","75","520.5","2","0","2","","","","",""
"null","","html-keyboard-response","114","411992","0.0-114.0","3DH6GAKTYZB5D7JMAHSJNJMHWG5ZYS","A2HOUSKURBF8UA","3THR0FZ95PF7SK0MYRNAOUHTWA4OLV","","","<img src=""img/flower5.png"" style=""width:200px;border:14px solid red;"">","null","","","","","","","","",""
"711.9000000003725","","image-keyboard-response","115","412705","0.0-115.0","3DH6GAKTYZB5D7JMAHSJNJMHWG5ZYS","A2HOUSKURBF8UA","3THR0FZ95PF7SK0MYRNAOUHTWA4OLV","","","img/flower4.png","74","713.2000000011176","1","1","1","","","","",""
"null","","html-keyboard-response","116","413008","0.0-116.0","3DH6GAKTYZB5D7JMAHSJNJMHWG5ZYS","A2HOUSKURBF8UA","3THR0FZ95PF7SK0MYRNAOUHTWA4OLV","","","<img src=""img/flower4.png"" style=""width:200px; border:14px solid green;"">","null","","","","","","","","",""
"625.5999999996275","","image-keyboard-response","117","413635","0.0-117.0","3DH6GAKTYZB5D7JMAHSJNJMHWG5ZYS","A2HOUSKURBF8UA","3THR0FZ95PF7SK0MYRNAOUHTWA4OLV","","","img/flower4.png","74","627.0999999996275","1","1","1","","","","",""
"null","","html-keyboard-response","118","413944","0.0-118.0","3DH6GAKTYZB5D7JMAHSJNJMHWG5ZYS","A2HOUSKURBF8UA","3THR0FZ95PF7SK0MYRNAOUHTWA4OLV","","","<img src=""img/flower4.png"" style=""width:200px; border:14px solid green;"">","null","","","","","","","","",""
"614.0999999996275","","image-keyboard-response","119","414560","0.0-119.0","3DH6GAKTYZB5D7JMAHSJNJMHWG5ZYS","A2HOUSKURBF8UA","3THR0FZ95PF7SK0MYRNAOUHTWA4OLV","","","img/flower4.png","74","615.5","1","0","1","","","","",""
"null","","html-keyboard-response","120","414864","0.0-120.0","3DH6GAKTYZB5D7JMAHSJNJMHWG5ZYS","A2HOUSKURBF8UA","3THR0FZ95PF7SK0MYRNAOUHTWA4OLV","","","<img src=""img/flower4.png"" style=""width:200px;border:14px solid red;"">","null","","","","","","","","",""
"525.4000000003725","","image-keyboard-response","121","415391","0.0-121.0","3DH6GAKTYZB5D7JMAHSJNJMHWG5ZYS","A2HOUSKURBF8UA","3THR0FZ95PF7SK0MYRNAOUHTWA4OLV","","","img/flower5.png","75","526.9000000003725","2","1","2","","","","",""
"null","","html-keyboard-response","122","415696","0.0-122.0","3DH6GAKTYZB5D7JMAHSJNJMHWG5ZYS","A2HOUSKURBF8UA","3THR0FZ95PF7SK0MYRNAOUHTWA4OLV","","","<img src=""img/flower5.png"" style=""width:200px; border:14px solid green;"">","null","","","","","","","","",""
"536.3000000007451","","image-keyboard-response","123","416234","0.0-123.0","3DH6GAKTYZB5D7JMAHSJNJMHWG5ZYS","A2HOUSKURBF8UA","3THR0FZ95PF7SK0MYRNAOUHTWA4OLV","","","img/flower6.png","76","537.5999999996275","3","1","3","","","","",""
"null","","html-keyboard-response","124","416544","0.0-124.0","3DH6GAKTYZB5D7JMAHSJNJMHWG5ZYS","A2HOUSKURBF8UA","3THR0FZ95PF7SK0MYRNAOUHTWA4OLV","","","<img src=""img/flower6.png"" style=""width:200px; border:14px solid green;"">","null","","","","","","","","",""
"3790.800000000745","","instructions","125","420335","0.0-125.0","3DH6GAKTYZB5D7JMAHSJNJMHWG5ZYS","A2HOUSKURBF8UA","3THR0FZ95PF7SK0MYRNAOUHTWA4OLV","","[{""page_index"":0,""viewing_time"":3790.4000000003725}]","","","","","","","","","","",""
"970.7000000011176","","image-keyboard-response","126","421308","0.0-126.0","3DH6GAKTYZB5D7JMAHSJNJMHWG5ZYS","A2HOUSKURBF8UA","3THR0FZ95PF7SK0MYRNAOUHTWA4OLV","","","img/flower5.png","76","972.3000000007451","3","0","2","2","1,0,0,1,1,0,1,0,1","1,0,0,1,1,0,1,0,1","1",""
"null","","html-keyboard-response","127","421616","0.0-127.0","3DH6GAKTYZB5D7JMAHSJNJMHWG5ZYS","A2HOUSKURBF8UA","3THR0FZ95PF7SK0MYRNAOUHTWA4OLV","","","<img src=""img/flower5.png"" style=""width:200px;border:14px solid red;"">","null","","","","","","","","",""
"597.1000000014901","","image-keyboard-response","128","422215","0.0-128.0","3DH6GAKTYZB5D7JMAHSJNJMHWG5ZYS","A2HOUSKURBF8UA","3THR0FZ95PF7SK0MYRNAOUHTWA4OLV","","","img/flower4.png","74","598.7999999988824","1","1","1","2","1,0,0,1,1,0,1,0,1","1,0,0,1,1,0,1,0,1","1",""
"null","","html-keyboard-response","129","422520","0.0-129.0","3DH6GAKTYZB5D7JMAHSJNJMHWG5ZYS","A2HOUSKURBF8UA","3THR0FZ95PF7SK0MYRNAOUHTWA4OLV","","","<img src=""img/flower4.png"" style=""width:200px; border:14px solid green;"">","null","","","","","","","","",""
"580.6999999992549","","image-keyboard-response","130","423102","0.0-130.0","3DH6GAKTYZB5D7JMAHSJNJMHWG5ZYS","A2HOUSKURBF8UA","3THR0FZ95PF7SK0MYRNAOUHTWA4OLV","","","img/flower5.png","75","582.2000000011176","2","1","2","2","1,0,0,1,1,0,1,0,1","1,0,0,1,1,0,1,0,1","1",""
"null","","html-keyboard-response","131","423409","0.0-131.0","3DH6GAKTYZB5D7JMAHSJNJMHWG5ZYS","A2HOUSKURBF8UA","3THR0FZ95PF7SK0MYRNAOUHTWA4OLV","","","<img src=""img/flower5.png"" style=""width:200px; border:14px solid green;"">","null","","","","","","","","",""
"751.3000000007451","","image-keyboard-response","132","424162","0.0-132.0","3DH6GAKTYZB5D7JMAHSJNJMHWG5ZYS","A2HOUSKURBF8UA","3THR0FZ95PF7SK0MYRNAOUHTWA4OLV","","","img/flower4.png","74","752.5999999996275","1","1","1","2","1,0,0,1,1,0,1,0,1","1,0,0,1,1,0,1,0,1","1",""
"null","","html-keyboard-response","133","424472","0.0-133.0","3DH6GAKTYZB5D7JMAHSJNJMHWG5ZYS","A2HOUSKURBF8UA","3THR0FZ95PF7SK0MYRNAOUHTWA4OLV","","","<img src=""img/flower4.png"" style=""width:200px; border:14px solid green;"">","null","","","","","","","","",""
"569.0999999996275","","image-keyboard-response","134","425042","0.0-134.0","3DH6GAKTYZB5D7JMAHSJNJMHWG5ZYS","A2HOUSKURBF8UA","3THR0FZ95PF7SK0MYRNAOUHTWA4OLV","","","img/flower5.png","75","570.3999999985099","2","1","2","2","1,0,0,1,1,0,1,0,1","1,0,0,1,1,0,1,0,1","1",""
"null","","html-keyboard-response","135","425352","0.0-135.0","3DH6GAKTYZB5D7JMAHSJNJMHWG5ZYS","A2HOUSKURBF8UA","3THR0FZ95PF7SK0MYRNAOUHTWA4OLV","","","<img src=""img/flower5.png"" style=""width:200px; border:14px solid green;"">","null","","","","","","","","",""
"539.6000000014901","","image-keyboard-response","136","425893","0.0-136.0","3DH6GAKTYZB5D7JMAHSJNJMHWG5ZYS","A2HOUSKURBF8UA","3THR0FZ95PF7SK0MYRNAOUHTWA4OLV","","","img/flower5.png","75","540.8999999985099","2","1","2","2","1,0,0,1,1,0,1,0,1","1,0,0,1,1,0,1,0,1","1",""
"null","","html-keyboard-response","137","426203","0.0-137.0","3DH6GAKTYZB5D7JMAHSJNJMHWG5ZYS","A2HOUSKURBF8UA","3THR0FZ95PF7SK0MYRNAOUHTWA4OLV","","","<img src=""img/flower5.png"" style=""width:200px; border:14px solid green;"">","null","","","","","","","","",""
"879.9000000003725","","image-keyboard-response","138","427084","0.0-138.0","3DH6GAKTYZB5D7JMAHSJNJMHWG5ZYS","A2HOUSKURBF8UA","3THR0FZ95PF7SK0MYRNAOUHTWA4OLV","","","img/flower1.png","76","881.2000000011176","3","1","3","2","1,0,0,1,1,0,1,0,1","1,0,0,1,1,0,1,0,1","1",""
"null","","html-keyboard-response","139","427392","0.0-139.0","3DH6GAKTYZB5D7JMAHSJNJMHWG5ZYS","A2HOUSKURBF8UA","3THR0FZ95PF7SK0MYRNAOUHTWA4OLV","","","<img src=""img/flower1.png"" style=""width:200px; border:14px solid green;"">","null","","","","","","","","",""
"694.6999999992549","","image-keyboard-response","140","428088","0.0-140.0","3DH6GAKTYZB5D7JMAHSJNJMHWG5ZYS","A2HOUSKURBF8UA","3THR0FZ95PF7SK0MYRNAOUHTWA4OLV","","","img/flower5.png","75","696","2","1","2","2","1,0,0,1,1,0,1,0,1","1,0,0,1,1,0,1,0,1","1",""
"null","","html-keyboard-response","141","428392","0.0-141.0","3DH6GAKTYZB5D7JMAHSJNJMHWG5ZYS","A2HOUSKURBF8UA","3THR0FZ95PF7SK0MYRNAOUHTWA4OLV","","","<img src=""img/flower5.png"" style=""width:200px; border:14px solid green;"">","null","","","","","","","","",""
"579.8000000007451","","image-keyboard-response","142","428973","0.0-142.0","3DH6GAKTYZB5D7JMAHSJNJMHWG5ZYS","A2HOUSKURBF8UA","3THR0FZ95PF7SK0MYRNAOUHTWA4OLV","","","img/flower1.png","76","581.2999999988824","3","1","3","2","1,0,0,1,1,0,1,0,1","1,0,0,1,1,0,1,0,1","1",""
"null","","html-keyboard-response","143","429280","0.0-143.0","3DH6GAKTYZB5D7JMAHSJNJMHWG5ZYS","A2HOUSKURBF8UA","3THR0FZ95PF7SK0MYRNAOUHTWA4OLV","","","<img src=""img/flower1.png"" style=""width:200px; border:14px solid green;"">","null","","","","","","","","",""
"628.5999999996275","","image-keyboard-response","144","429911","0.0-144.0","3DH6GAKTYZB5D7JMAHSJNJMHWG5ZYS","A2HOUSKURBF8UA","3THR0FZ95PF7SK0MYRNAOUHTWA4OLV","","","img/flower4.png","74","630.3999999985099","1","1","1","2","1,0,0,1,1,0,1,0,1","1,0,0,1,1,0,1,0,1","1",""
"null","","html-keyboard-response","145","430216","0.0-145.0","3DH6GAKTYZB5D7JMAHSJNJMHWG5ZYS","A2HOUSKURBF8UA","3THR0FZ95PF7SK0MYRNAOUHTWA4OLV","","","<img src=""img/flower4.png"" style=""width:200px; border:14px solid green;"">","null","","","","","","","","",""
"677","","image-keyboard-response","146","430894","0.0-146.0","3DH6GAKTYZB5D7JMAHSJNJMHWG5ZYS","A2HOUSKURBF8UA","3THR0FZ95PF7SK0MYRNAOUHTWA4OLV","","","img/flower1.png","74","678.2000000011176","1","1","3","2","1,0,0,1,1,0,1,0,1","1,0,0,1,1,0,1,0,1","1",""
"null","","html-keyboard-response","147","431200","0.0-147.0","3DH6GAKTYZB5D7JMAHSJNJMHWG5ZYS","A2HOUSKURBF8UA","3THR0FZ95PF7SK0MYRNAOUHTWA4OLV","","","<img src=""img/flower1.png"" style=""width:200px; border:14px solid green;"">","null","","","","","","","","",""
"755.2000000011176","","image-keyboard-response","148","431957","0.0-148.0","3DH6GAKTYZB5D7JMAHSJNJMHWG5ZYS","A2HOUSKURBF8UA","3THR0FZ95PF7SK0MYRNAOUHTWA4OLV","","","img/flower1.png","74","756.6999999992549","1","1","3","2","1,0,0,1,1,0,1,0,1","1,0,0,1,1,0,1,0,1","1",""
"null","","html-keyboard-response","149","432267","0.0-149.0","3DH6GAKTYZB5D7JMAHSJNJMHWG5ZYS","A2HOUSKURBF8UA","3THR0FZ95PF7SK0MYRNAOUHTWA4OLV","","","<img src=""img/flower1.png"" style=""width:200px; border:14px solid green;"">","null","","","","","","","","",""
"631.4000000003725","","image-keyboard-response","150","432900","0.0-150.0","3DH6GAKTYZB5D7JMAHSJNJMHWG5ZYS","A2HOUSKURBF8UA","3THR0FZ95PF7SK0MYRNAOUHTWA4OLV","","","img/flower5.png","75","632.8999999985099","2","1","2","2","1,0,0,1,1,0,1,0,1","1,0,0,1,1,0,1,0,1","1",""
"null","","html-keyboard-response","151","433208","0.0-151.0","3DH6GAKTYZB5D7JMAHSJNJMHWG5ZYS","A2HOUSKURBF8UA","3THR0FZ95PF7SK0MYRNAOUHTWA4OLV","","","<img src=""img/flower5.png"" style=""width:200px; border:14px solid green;"">","null","","","","","","","","",""
"711.5999999996275","","image-keyboard-response","152","433921","0.0-152.0","3DH6GAKTYZB5D7JMAHSJNJMHWG5ZYS","A2HOUSKURBF8UA","3THR0FZ95PF7SK0MYRNAOUHTWA4OLV","","","img/flower1.png","75","712.7999999988824","2","0","3","2","1,0,0,1,1,0,1,0,1","1,0,0,1,1,0,1,0,1","1",""
"null","","html-keyboard-response","153","434224","0.0-153.0","3DH6GAKTYZB5D7JMAHSJNJMHWG5ZYS","A2HOUSKURBF8UA","3THR0FZ95PF7SK0MYRNAOUHTWA4OLV","","","<img src=""img/flower1.png"" style=""width:200px;border:14px solid red;"">","null","","","","","","","","",""
"599.3000000007451","","image-keyboard-response","154","434825","0.0-154.0","3DH6GAKTYZB5D7JMAHSJNJMHWG5ZYS","A2HOUSKURBF8UA","3THR0FZ95PF7SK0MYRNAOUHTWA4OLV","","","img/flower1.png","76","600.7000000011176","3","1","3","2","1,0,0,1,1,0,1,0,1","1,0,0,1,1,0,1,0,1","1",""
"null","","html-keyboard-response","155","435128","0.0-155.0","3DH6GAKTYZB5D7JMAHSJNJMHWG5ZYS","A2HOUSKURBF8UA","3THR0FZ95PF7SK0MYRNAOUHTWA4OLV","","","<img src=""img/flower1.png"" style=""width:200px; border:14px solid green;"">","null","","","","","","","","",""
"570.8999999985099","","image-keyboard-response","156","435700","0.0-156.0","3DH6GAKTYZB5D7JMAHSJNJMHWG5ZYS","A2HOUSKURBF8UA","3THR0FZ95PF7SK0MYRNAOUHTWA4OLV","","","img/flower5.png","75","572.0999999996275","2","1","2","2","1,0,0,1,1,0,1,0,1","1,0,0,1,1,0,1,0,1","1",""
"null","","html-keyboard-response","157","436008","0.0-157.0","3DH6GAKTYZB5D7JMAHSJNJMHWG5ZYS","A2HOUSKURBF8UA","3THR0FZ95PF7SK0MYRNAOUHTWA4OLV","","","<img src=""img/flower5.png"" style=""width:200px; border:14px solid green;"">","null","","","","","","","","",""
"553.5","","image-keyboard-response","158","436563","0.0-158.0","3DH6GAKTYZB5D7JMAHSJNJMHWG5ZYS","A2HOUSKURBF8UA","3THR0FZ95PF7SK0MYRNAOUHTWA4OLV","","","img/flower5.png","75","554.6999999992549","2","1","2","2","1,0,0,1,1,0,1,0,1","1,0,0,1,1,0,1,0,1","1",""
"null","","html-keyboard-response","159","436872","0.0-159.0","3DH6GAKTYZB5D7JMAHSJNJMHWG5ZYS","A2HOUSKURBF8UA","3THR0FZ95PF7SK0MYRNAOUHTWA4OLV","","","<img src=""img/flower5.png"" style=""width:200px; border:14px solid green;"">","null","","","","","","","","",""
"525.5999999996275","","image-keyboard-response","160","437399","0.0-160.0","3DH6GAKTYZB5D7JMAHSJNJMHWG5ZYS","A2HOUSKURBF8UA","3THR0FZ95PF7SK0MYRNAOUHTWA4OLV","","","img/flower1.png","76","527","3","1","3","2","1,0,0,1,1,0,1,0,1","1,0,0,1,1,0,1,0,1","1",""
"null","","html-keyboard-response","161","437704","0.0-161.0","3DH6GAKTYZB5D7JMAHSJNJMHWG5ZYS","A2HOUSKURBF8UA","3THR0FZ95PF7SK0MYRNAOUHTWA4OLV","","","<img src=""img/flower1.png"" style=""width:200px; border:14px solid green;"">","null","","","","","","","","",""
"554.5","","image-keyboard-response","162","438260","0.0-162.0","3DH6GAKTYZB5D7JMAHSJNJMHWG5ZYS","A2HOUSKURBF8UA","3THR0FZ95PF7SK0MYRNAOUHTWA4OLV","","","img/flower5.png","75","555.7000000011176","2","1","2","2","1,0,0,1,1,0,1,0,1","1,0,0,1,1,0,1,0,1","1",""
"null","","html-keyboard-response","163","438568","0.0-163.0","3DH6GAKTYZB5D7JMAHSJNJMHWG5ZYS","A2HOUSKURBF8UA","3THR0FZ95PF7SK0MYRNAOUHTWA4OLV","","","<img src=""img/flower5.png"" style=""width:200px; border:14px solid green;"">","null","","","","","","","","",""
"592.5","","image-keyboard-response","164","439162","0.0-164.0","3DH6GAKTYZB5D7JMAHSJNJMHWG5ZYS","A2HOUSKURBF8UA","3THR0FZ95PF7SK0MYRNAOUHTWA4OLV","","","img/flower4.png","74","594","1","1","1","2","1,0,0,1,1,0,1,0,1","1,0,0,1,1,0,1,0,1","1",""
"null","","html-keyboard-response","165","439464","0.0-165.0","3DH6GAKTYZB5D7JMAHSJNJMHWG5ZYS","A2HOUSKURBF8UA","3THR0FZ95PF7SK0MYRNAOUHTWA4OLV","","","<img src=""img/flower4.png"" style=""width:200px; border:14px solid green;"">","null","","","","","","","","",""
"595.6000000014901","","image-keyboard-response","166","440061","0.0-166.0","3DH6GAKTYZB5D7JMAHSJNJMHWG5ZYS","A2HOUSKURBF8UA","3THR0FZ95PF7SK0MYRNAOUHTWA4OLV","","","img/flower1.png","76","596.7999999988824","3","1","3","2","1,0,0,1,1,0,1,0,1","1,0,0,1,1,0,1,0,1","1",""
"null","","html-keyboard-response","167","440368","0.0-167.0","3DH6GAKTYZB5D7JMAHSJNJMHWG5ZYS","A2HOUSKURBF8UA","3THR0FZ95PF7SK0MYRNAOUHTWA4OLV","","","<img src=""img/flower1.png"" style=""width:200px; border:14px solid green;"">","null","","","","","","","","",""
"696.1000000014901","","image-keyboard-response","168","441066","0.0-168.0","3DH6GAKTYZB5D7JMAHSJNJMHWG5ZYS","A2HOUSKURBF8UA","3THR0FZ95PF7SK0MYRNAOUHTWA4OLV","","","img/flower4.png","74","697.5999999996275","1","1","1","2","1,0,0,1,1,0,1,0,1","1,0,0,1,1,0,1,0,1","1",""
"null","","html-keyboard-response","169","441368","0.0-169.0","3DH6GAKTYZB5D7JMAHSJNJMHWG5ZYS","A2HOUSKURBF8UA","3THR0FZ95PF7SK0MYRNAOUHTWA4OLV","","","<img src=""img/flower4.png"" style=""width:200px; border:14px solid green;"">","null","","","","","","","","",""
"561.9000000003725","","image-keyboard-response","170","441932","0.0-170.0","3DH6GAKTYZB5D7JMAHSJNJMHWG5ZYS","A2HOUSKURBF8UA","3THR0FZ95PF7SK0MYRNAOUHTWA4OLV","","","img/flower4.png","74","563.1999999992549","1","1","1","2","1,0,0,1,1,0,1,0,1","1,0,0,1,1,0,1,0,1","1",""
"null","","html-keyboard-response","171","442240","0.0-171.0","3DH6GAKTYZB5D7JMAHSJNJMHWG5ZYS","A2HOUSKURBF8UA","3THR0FZ95PF7SK0MYRNAOUHTWA4OLV","","","<img src=""img/flower4.png"" style=""width:200px; border:14px solid green;"">","null","","","","","","","","",""
"570.1000000014901","","image-keyboard-response","172","442812","0.0-172.0","3DH6GAKTYZB5D7JMAHSJNJMHWG5ZYS","A2HOUSKURBF8UA","3THR0FZ95PF7SK0MYRNAOUHTWA4OLV","","","img/flower1.png","76","572","3","1","3","2","1,0,0,1,1,0,1,0,1","1,0,0,1,1,0,1,0,1","1",""
"null","","html-keyboard-response","173","443120","0.0-173.0","3DH6GAKTYZB5D7JMAHSJNJMHWG5ZYS","A2HOUSKURBF8UA","3THR0FZ95PF7SK0MYRNAOUHTWA4OLV","","","<img src=""img/flower1.png"" style=""width:200px; border:14px solid green;"">","null","","","","","","","","",""
"450.40000000037253","","image-keyboard-response","174","443572","0.0-174.0","3DH6GAKTYZB5D7JMAHSJNJMHWG5ZYS","A2HOUSKURBF8UA","3THR0FZ95PF7SK0MYRNAOUHTWA4OLV","","","img/flower5.png","75","451.8999999985099","2","1","2","2","1,0,0,1,1,0,1,0,1","1,0,0,1,1,0,1,0,1","1",""
"null","","html-keyboard-response","175","443880","0.0-175.0","3DH6GAKTYZB5D7JMAHSJNJMHWG5ZYS","A2HOUSKURBF8UA","3THR0FZ95PF7SK0MYRNAOUHTWA4OLV","","","<img src=""img/flower5.png"" style=""width:200px; border:14px solid green;"">","null","","","","","","","","",""
"584.8999999985099","","image-keyboard-response","176","444466","0.0-176.0","3DH6GAKTYZB5D7JMAHSJNJMHWG5ZYS","A2HOUSKURBF8UA","3THR0FZ95PF7SK0MYRNAOUHTWA4OLV","","","img/flower4.png","74","586.0999999996275","1","1","1","2","1,0,0,1,1,0,1,0,1","1,0,0,1,1,0,1,0,1","1",""
"null","","html-keyboard-response","177","444776","0.0-177.0","3DH6GAKTYZB5D7JMAHSJNJMHWG5ZYS","A2HOUSKURBF8UA","3THR0FZ95PF7SK0MYRNAOUHTWA4OLV","","","<img src=""img/flower4.png"" style=""width:200px; border:14px solid green;"">","null","","","","","","","","",""
"528.8999999985099","","image-keyboard-response","178","445306","0.0-178.0","3DH6GAKTYZB5D7JMAHSJNJMHWG5ZYS","A2HOUSKURBF8UA","3THR0FZ95PF7SK0MYRNAOUHTWA4OLV","","","img/flower4.png","74","530.1999999992549","1","1","1","2","1,0,0,1,1,0,1,0,1","1,0,0,1,1,0,1,0,1","1",""
"null","","html-keyboard-response","179","445616","0.0-179.0","3DH6GAKTYZB5D7JMAHSJNJMHWG5ZYS","A2HOUSKURBF8UA","3THR0FZ95PF7SK0MYRNAOUHTWA4OLV","","","<img src=""img/flower4.png"" style=""width:200px; border:14px solid green;"">","null","","","","","","","","",""
"511.19999999925494","","image-keyboard-response","180","446129","0.0-180.0","3DH6GAKTYZB5D7JMAHSJNJMHWG5ZYS","A2HOUSKURBF8UA","3THR0FZ95PF7SK0MYRNAOUHTWA4OLV","","","img/flower1.png","76","512.7000000011176","3","1","3","2","1,0,0,1,1,0,1,0,1","1,0,0,1,1,0,1,0,1","1",""
"null","","html-keyboard-response","181","446432","0.0-181.0","3DH6GAKTYZB5D7JMAHSJNJMHWG5ZYS","A2HOUSKURBF8UA","3THR0FZ95PF7SK0MYRNAOUHTWA4OLV","","","<img src=""img/flower1.png"" style=""width:200px; border:14px solid green;"">","null","","","","","","","","",""
"507.30000000074506","","image-keyboard-response","182","446944","0.0-182.0","3DH6GAKTYZB5D7JMAHSJNJMHWG5ZYS","A2HOUSKURBF8UA","3THR0FZ95PF7SK0MYRNAOUHTWA4OLV","","","img/flower4.png","75","511.5","2","0","1","2","1,0,0,1,1,0,1,0,1","1,0,0,1,1,0,1,0,1","1",""
"null","","html-keyboard-response","183","447248","0.0-183.0","3DH6GAKTYZB5D7JMAHSJNJMHWG5ZYS","A2HOUSKURBF8UA","3THR0FZ95PF7SK0MYRNAOUHTWA4OLV","","","<img src=""img/flower4.png"" style=""width:200px;border:14px solid red;"">","null","","","","","","","","",""
"763.6000000014901","","image-keyboard-response","184","448013","0.0-184.0","3DH6GAKTYZB5D7JMAHSJNJMHWG5ZYS","A2HOUSKURBF8UA","3THR0FZ95PF7SK0MYRNAOUHTWA4OLV","","","img/flower1.png","76","764.7999999988824","3","1","3","2","1,0,0,1,1,0,1,0,1","1,0,0,1,1,0,1,0,1","1",""
"null","","html-keyboard-response","185","448320","0.0-185.0","3DH6GAKTYZB5D7JMAHSJNJMHWG5ZYS","A2HOUSKURBF8UA","3THR0FZ95PF7SK0MYRNAOUHTWA4OLV","","","<img src=""img/flower1.png"" style=""width:200px; border:14px solid green;"">","null","","","","","","","","",""
"468.90000000037253","","image-keyboard-response","186","448791","0.0-186.0","3DH6GAKTYZB5D7JMAHSJNJMHWG5ZYS","A2HOUSKURBF8UA","3THR0FZ95PF7SK0MYRNAOUHTWA4OLV","","","img/flower1.png","76","470.40000000037253","3","1","3","2","1,0,0,1,1,0,1,0,1","1,0,0,1,1,0,1,0,1","1",""
"null","","html-keyboard-response","187","449096","0.0-187.0","3DH6GAKTYZB5D7JMAHSJNJMHWG5ZYS","A2HOUSKURBF8UA","3THR0FZ95PF7SK0MYRNAOUHTWA4OLV","","","<img src=""img/flower1.png"" style=""width:200px; border:14px solid green;"">","null","","","","","","","","",""
"532.7999999988824","","image-keyboard-response","188","449630","0.0-188.0","3DH6GAKTYZB5D7JMAHSJNJMHWG5ZYS","A2HOUSKURBF8UA","3THR0FZ95PF7SK0MYRNAOUHTWA4OLV","","","img/flower1.png","76","534.1000000014901","3","1","3","2","1,0,0,1,1,0,1,0,1","1,0,0,1,1,0,1,0,1","1",""
"null","","html-keyboard-response","189","449936","0.0-189.0","3DH6GAKTYZB5D7JMAHSJNJMHWG5ZYS","A2HOUSKURBF8UA","3THR0FZ95PF7SK0MYRNAOUHTWA4OLV","","","<img src=""img/flower1.png"" style=""width:200px; border:14px solid green;"">","null","","","","","","","","",""
"478.5","","image-keyboard-response","190","450416","0.0-190.0","3DH6GAKTYZB5D7JMAHSJNJMHWG5ZYS","A2HOUSKURBF8UA","3THR0FZ95PF7SK0MYRNAOUHTWA4OLV","","","img/flower5.png","75","479.8999999985099","2","1","2","2","1,0,0,1,1,0,1,0,1","1,0,0,1,1,0,1,0,1","1",""
"null","","html-keyboard-response","191","450720","0.0-191.0","3DH6GAKTYZB5D7JMAHSJNJMHWG5ZYS","A2HOUSKURBF8UA","3THR0FZ95PF7SK0MYRNAOUHTWA4OLV","","","<img src=""img/flower5.png"" style=""width:200px; border:14px solid green;"">","null","","","","","","","","",""
"510.8999999985099","","image-keyboard-response","192","451232","0.0-192.0","3DH6GAKTYZB5D7JMAHSJNJMHWG5ZYS","A2HOUSKURBF8UA","3THR0FZ95PF7SK0MYRNAOUHTWA4OLV","","","img/flower4.png","74","512.2999999988824","1","1","1","2","1,0,0,1,1,0,1,0,1","1,0,0,1,1,0,1,0,1","1",""
"null","","html-keyboard-response","193","451536","0.0-193.0","3DH6GAKTYZB5D7JMAHSJNJMHWG5ZYS","A2HOUSKURBF8UA","3THR0FZ95PF7SK0MYRNAOUHTWA4OLV","","","<img src=""img/flower4.png"" style=""width:200px; border:14px solid green;"">","null","","","","","","","","",""
"557.7999999988824","","image-keyboard-response","194","452096","0.0-194.0","3DH6GAKTYZB5D7JMAHSJNJMHWG5ZYS","A2HOUSKURBF8UA","3THR0FZ95PF7SK0MYRNAOUHTWA4OLV","","","img/flower4.png","74","559.1999999992549","1","1","1","2","1,0,0,1,1,0,1,0,1","1,0,0,1,1,0,1,0,1","1",""
"null","","html-keyboard-response","195","452400","0.0-195.0","3DH6GAKTYZB5D7JMAHSJNJMHWG5ZYS","A2HOUSKURBF8UA","3THR0FZ95PF7SK0MYRNAOUHTWA4OLV","","","<img src=""img/flower4.png"" style=""width:200px; border:14px solid green;"">","null","","","","","","","","",""
"564.8999999985099","","image-keyboard-response","196","452966","0.0-196.0","3DH6GAKTYZB5D7JMAHSJNJMHWG5ZYS","A2HOUSKURBF8UA","3THR0FZ95PF7SK0MYRNAOUHTWA4OLV","","","img/flower4.png","74","566.5","1","1","1","2","1,0,0,1,1,0,1,0,1","1,0,0,1,1,0,1,0,1","1",""
"null","","html-keyboard-response","197","453272","0.0-197.0","3DH6GAKTYZB5D7JMAHSJNJMHWG5ZYS","A2HOUSKURBF8UA","3THR0FZ95PF7SK0MYRNAOUHTWA4OLV","","","<img src=""img/flower4.png"" style=""width:200px; border:14px solid green;"">","null","","","","","","","","",""
"490.5","","image-keyboard-response","198","453764","0.0-198.0","3DH6GAKTYZB5D7JMAHSJNJMHWG5ZYS","A2HOUSKURBF8UA","3THR0FZ95PF7SK0MYRNAOUHTWA4OLV","","","img/flower1.png","76","491.7000000011176","3","1","3","2","1,0,0,1,1,0,1,0,1","1,0,0,1,1,0,1,0,1","1",""
"null","","html-keyboard-response","199","454072","0.0-199.0","3DH6GAKTYZB5D7JMAHSJNJMHWG5ZYS","A2HOUSKURBF8UA","3THR0FZ95PF7SK0MYRNAOUHTWA4OLV","","","<img src=""img/flower1.png"" style=""width:200px; border:14px solid green;"">","null","","","","","","","","",""
"521","","image-keyboard-response","200","454595","0.0-200.0","3DH6GAKTYZB5D7JMAHSJNJMHWG5ZYS","A2HOUSKURBF8UA","3THR0FZ95PF7SK0MYRNAOUHTWA4OLV","","","img/flower5.png","75","522.5999999996275","2","1","2","2","1,0,0,1,1,0,1,0,1","1,0,0,1,1,0,1,0,1","1",""
"null","","html-keyboard-response","201","454904","0.0-201.0","3DH6GAKTYZB5D7JMAHSJNJMHWG5ZYS","A2HOUSKURBF8UA","3THR0FZ95PF7SK0MYRNAOUHTWA4OLV","","","<img src=""img/flower5.png"" style=""width:200px; border:14px solid green;"">","null","","","","","","","","",""
"506.8999999985099","","image-keyboard-response","202","455412","0.0-202.0","3DH6GAKTYZB5D7JMAHSJNJMHWG5ZYS","A2HOUSKURBF8UA","3THR0FZ95PF7SK0MYRNAOUHTWA4OLV","","","img/flower1.png","76","508.2999999988824","3","1","3","2","1,0,0,1,1,0,1,0,1","1,0,0,1,1,0,1,0,1","1",""
"null","","html-keyboard-response","203","455720","0.0-203.0","3DH6GAKTYZB5D7JMAHSJNJMHWG5ZYS","A2HOUSKURBF8UA","3THR0FZ95PF7SK0MYRNAOUHTWA4OLV","","","<img src=""img/flower1.png"" style=""width:200px; border:14px solid green;"">","null","","","","","","","","",""
"601.4000000003725","","image-keyboard-response","204","456324","0.0-204.0","3DH6GAKTYZB5D7JMAHSJNJMHWG5ZYS","A2HOUSKURBF8UA","3THR0FZ95PF7SK0MYRNAOUHTWA4OLV","","","img/flower1.png","76","603.3000000007451","3","1","3","2","1,0,0,1,1,0,1,0,1","1,0,0,1,1,0,1,0,1","1",""
"null","","html-keyboard-response","205","456632","0.0-205.0","3DH6GAKTYZB5D7JMAHSJNJMHWG5ZYS","A2HOUSKURBF8UA","3THR0FZ95PF7SK0MYRNAOUHTWA4OLV","","","<img src=""img/flower1.png"" style=""width:200px; border:14px solid green;"">","null","","","","","","","","",""
"514.3000000007451","","image-keyboard-response","206","457147","0.0-206.0","3DH6GAKTYZB5D7JMAHSJNJMHWG5ZYS","A2HOUSKURBF8UA","3THR0FZ95PF7SK0MYRNAOUHTWA4OLV","","","img/flower1.png","76","515.7000000011176","3","1","3","2","1,0,0,1,1,0,1,0,1","1,0,0,1,1,0,1,0,1","1",""
"null","","html-keyboard-response","207","457456","0.0-207.0","3DH6GAKTYZB5D7JMAHSJNJMHWG5ZYS","A2HOUSKURBF8UA","3THR0FZ95PF7SK0MYRNAOUHTWA4OLV","","","<img src=""img/flower1.png"" style=""width:200px; border:14px solid green;"">","null","","","","","","","","",""
"504.80000000074506","","image-keyboard-response","208","457962","0.0-208.0","3DH6GAKTYZB5D7JMAHSJNJMHWG5ZYS","A2HOUSKURBF8UA","3THR0FZ95PF7SK0MYRNAOUHTWA4OLV","","","img/flower1.png","76","506.19999999925494","3","1","3","2","1,0,0,1,1,0,1,0,1","1,0,0,1,1,0,1,0,1","1",""
"null","","html-keyboard-response","209","458272","0.0-209.0","3DH6GAKTYZB5D7JMAHSJNJMHWG5ZYS","A2HOUSKURBF8UA","3THR0FZ95PF7SK0MYRNAOUHTWA4OLV","","","<img src=""img/flower1.png"" style=""width:200px; border:14px solid green;"">","null","","","","","","","","",""
"475.30000000074506","","image-keyboard-response","210","458748","0.0-210.0","3DH6GAKTYZB5D7JMAHSJNJMHWG5ZYS","A2HOUSKURBF8UA","3THR0FZ95PF7SK0MYRNAOUHTWA4OLV","","","img/flower5.png","75","476.5","2","1","2","2","1,0,0,1,1,0,1,0,1","1,0,0,1,1,0,1,0,1","1",""
"null","","html-keyboard-response","211","459056","0.0-211.0","3DH6GAKTYZB5D7JMAHSJNJMHWG5ZYS","A2HOUSKURBF8UA","3THR0FZ95PF7SK0MYRNAOUHTWA4OLV","","","<img src=""img/flower5.png"" style=""width:200px; border:14px solid green;"">","null","","","","","","","","",""
"485.59999999962747","","image-keyboard-response","212","459543","0.0-212.0","3DH6GAKTYZB5D7JMAHSJNJMHWG5ZYS","A2HOUSKURBF8UA","3THR0FZ95PF7SK0MYRNAOUHTWA4OLV","","","img/flower5.png","75","487.09999999962747","2","1","2","2","1,0,0,1,1,0,1,0,1","1,0,0,1,1,0,1,0,1","1",""
"null","","html-keyboard-response","213","459848","0.0-213.0","3DH6GAKTYZB5D7JMAHSJNJMHWG5ZYS","A2HOUSKURBF8UA","3THR0FZ95PF7SK0MYRNAOUHTWA4OLV","","","<img src=""img/flower5.png"" style=""width:200px; border:14px solid green;"">","null","","","","","","","","",""
"467","","image-keyboard-response","214","460317","0.0-214.0","3DH6GAKTYZB5D7JMAHSJNJMHWG5ZYS","A2HOUSKURBF8UA","3THR0FZ95PF7SK0MYRNAOUHTWA4OLV","","","img/flower5.png","75","468.2999999988824","2","1","2","2","1,0,0,1,1,0,1,0,1","1,0,0,1,1,0,1,0,1","1",""
"null","","html-keyboard-response","215","460624","0.0-215.0","3DH6GAKTYZB5D7JMAHSJNJMHWG5ZYS","A2HOUSKURBF8UA","3THR0FZ95PF7SK0MYRNAOUHTWA4OLV","","","<img src=""img/flower5.png"" style=""width:200px; border:14px solid green;"">","null","","","","","","","","",""
"448","","image-keyboard-response","216","461073","0.0-216.0","3DH6GAKTYZB5D7JMAHSJNJMHWG5ZYS","A2HOUSKURBF8UA","3THR0FZ95PF7SK0MYRNAOUHTWA4OLV","","","img/flower5.png","75","449.5","2","1","2","2","1,0,0,1,1,0,1,0,1","1,0,0,1,1,0,1,0,1","1",""
"null","","html-keyboard-response","217","461376","0.0-217.0","3DH6GAKTYZB5D7JMAHSJNJMHWG5ZYS","A2HOUSKURBF8UA","3THR0FZ95PF7SK0MYRNAOUHTWA4OLV","","","<img src=""img/flower5.png"" style=""width:200px; border:14px solid green;"">","null","","","","","","","","",""
"467.5","","image-keyboard-response","218","461846","0.0-218.0","3DH6GAKTYZB5D7JMAHSJNJMHWG5ZYS","A2HOUSKURBF8UA","3THR0FZ95PF7SK0MYRNAOUHTWA4OLV","","","img/flower1.png","76","469.30000000074506","3","1","3","2","1,0,0,1,1,0,1,0,1","1,0,0,1,1,0,1,0,1","1",""
"null","","html-keyboard-response","219","462152","0.0-219.0","3DH6GAKTYZB5D7JMAHSJNJMHWG5ZYS","A2HOUSKURBF8UA","3THR0FZ95PF7SK0MYRNAOUHTWA4OLV","","","<img src=""img/flower1.png"" style=""width:200px; border:14px solid green;"">","null","","","","","","","","",""
"764.3000000007451","","image-keyboard-response","220","462917","0.0-220.0","3DH6GAKTYZB5D7JMAHSJNJMHWG5ZYS","A2HOUSKURBF8UA","3THR0FZ95PF7SK0MYRNAOUHTWA4OLV","","","img/flower5.png","75","765.7000000011176","2","1","2","2","1,0,0,1,1,0,1,0,1","1,0,0,1,1,0,1,0,1","1",""
"null","","html-keyboard-response","221","463224","0.0-221.0","3DH6GAKTYZB5D7JMAHSJNJMHWG5ZYS","A2HOUSKURBF8UA","3THR0FZ95PF7SK0MYRNAOUHTWA4OLV","","","<img src=""img/flower5.png"" style=""width:200px; border:14px solid green;"">","null","","","","","","","","",""
"448.30000000074506","","image-keyboard-response","222","463674","0.0-222.0","3DH6GAKTYZB5D7JMAHSJNJMHWG5ZYS","A2HOUSKURBF8UA","3THR0FZ95PF7SK0MYRNAOUHTWA4OLV","","","img/flower5.png","75","449.7999999988824","2","1","2","2","1,0,0,1,1,0,1,0,1","1,0,0,1,1,0,1,0,1","1",""
"null","","html-keyboard-response","223","463976","0.0-223.0","3DH6GAKTYZB5D7JMAHSJNJMHWG5ZYS","A2HOUSKURBF8UA","3THR0FZ95PF7SK0MYRNAOUHTWA4OLV","","","<img src=""img/flower5.png"" style=""width:200px; border:14px solid green;"">","null","","","","","","","","",""
"440.7999999988824","","image-keyboard-response","224","464418","0.0-224.0","3DH6GAKTYZB5D7JMAHSJNJMHWG5ZYS","A2HOUSKURBF8UA","3THR0FZ95PF7SK0MYRNAOUHTWA4OLV","","","img/flower1.png","76","442","3","1","3","2","1,0,0,1,1,0,1,0,1","1,0,0,1,1,0,1,0,1","1",""
"null","","html-keyboard-response","225","464728","0.0-225.0","3DH6GAKTYZB5D7JMAHSJNJMHWG5ZYS","A2HOUSKURBF8UA","3THR0FZ95PF7SK0MYRNAOUHTWA4OLV","","","<img src=""img/flower1.png"" style=""width:200px; border:14px solid green;"">","null","","","","","","","","",""
"483.19999999925494","","image-keyboard-response","226","465213","0.0-226.0","3DH6GAKTYZB5D7JMAHSJNJMHWG5ZYS","A2HOUSKURBF8UA","3THR0FZ95PF7SK0MYRNAOUHTWA4OLV","","","img/flower5.png","75","484.5","2","1","2","2","1,0,0,1,1,0,1,0,1","1,0,0,1,1,0,1,0,1","1",""
"null","","html-keyboard-response","227","465520","0.0-227.0","3DH6GAKTYZB5D7JMAHSJNJMHWG5ZYS","A2HOUSKURBF8UA","3THR0FZ95PF7SK0MYRNAOUHTWA4OLV","","","<img src=""img/flower5.png"" style=""width:200px; border:14px solid green;"">","null","","","","","","","","",""
"543","","image-keyboard-response","228","466065","0.0-228.0","3DH6GAKTYZB5D7JMAHSJNJMHWG5ZYS","A2HOUSKURBF8UA","3THR0FZ95PF7SK0MYRNAOUHTWA4OLV","","","img/flower4.png","74","544.5999999996275","1","1","1","2","1,0,0,1,1,0,1,0,1","1,0,0,1,1,0,1,0,1","1",""
"null","","html-keyboard-response","229","466368","0.0-229.0","3DH6GAKTYZB5D7JMAHSJNJMHWG5ZYS","A2HOUSKURBF8UA","3THR0FZ95PF7SK0MYRNAOUHTWA4OLV","","","<img src=""img/flower4.png"" style=""width:200px; border:14px solid green;"">","null","","","","","","","","",""
"434.09999999962747","","image-keyboard-response","230","466804","0.0-230.0","3DH6GAKTYZB5D7JMAHSJNJMHWG5ZYS","A2HOUSKURBF8UA","3THR0FZ95PF7SK0MYRNAOUHTWA4OLV","","","img/flower5.png","75","435.59999999962747","2","1","2","2","1,0,0,1,1,0,1,0,1","1,0,0,1,1,0,1,0,1","1",""
"null","","html-keyboard-response","231","467112","0.0-231.0","3DH6GAKTYZB5D7JMAHSJNJMHWG5ZYS","A2HOUSKURBF8UA","3THR0FZ95PF7SK0MYRNAOUHTWA4OLV","","","<img src=""img/flower5.png"" style=""width:200px; border:14px solid green;"">","null","","","","","","","","",""
"420.2000000011176","","image-keyboard-response","232","467534","0.0-232.0","3DH6GAKTYZB5D7JMAHSJNJMHWG5ZYS","A2HOUSKURBF8UA","3THR0FZ95PF7SK0MYRNAOUHTWA4OLV","","","img/flower1.png","76","421.2999999988824","3","1","3","2","1,0,0,1,1,0,1,0,1","1,0,0,1,1,0,1,0,1","1",""
"null","","html-keyboard-response","233","467840","0.0-233.0","3DH6GAKTYZB5D7JMAHSJNJMHWG5ZYS","A2HOUSKURBF8UA","3THR0FZ95PF7SK0MYRNAOUHTWA4OLV","","","<img src=""img/flower1.png"" style=""width:200px; border:14px solid green;"">","null","","","","","","","","",""
"480.2999999988824","","image-keyboard-response","234","468321","0.0-234.0","3DH6GAKTYZB5D7JMAHSJNJMHWG5ZYS","A2HOUSKURBF8UA","3THR0FZ95PF7SK0MYRNAOUHTWA4OLV","","","img/flower4.png","75","481.5","2","0","1","2","1,0,0,1,1,0,1,0,1","1,0,0,1,1,0,1,0,1","1",""
"null","","html-keyboard-response","235","468624","0.0-235.0","3DH6GAKTYZB5D7JMAHSJNJMHWG5ZYS","A2HOUSKURBF8UA","3THR0FZ95PF7SK0MYRNAOUHTWA4OLV","","","<img src=""img/flower4.png"" style=""width:200px;border:14px solid red;"">","null","","","","","","","","",""
"812.5999999996275","","image-keyboard-response","236","469438","0.0-236.0","3DH6GAKTYZB5D7JMAHSJNJMHWG5ZYS","A2HOUSKURBF8UA","3THR0FZ95PF7SK0MYRNAOUHTWA4OLV","","","img/flower1.png","76","813.9000000003725","3","1","3","2","1,0,0,1,1,0,1,0,1","1,0,0,1,1,0,1,0,1","1",""
"null","","html-keyboard-response","237","469744","0.0-237.0","3DH6GAKTYZB5D7JMAHSJNJMHWG5ZYS","A2HOUSKURBF8UA","3THR0FZ95PF7SK0MYRNAOUHTWA4OLV","","","<img src=""img/flower1.png"" style=""width:200px; border:14px solid green;"">","null","","","","","","","","",""
"481","","image-keyboard-response","238","470227","0.0-238.0","3DH6GAKTYZB5D7JMAHSJNJMHWG5ZYS","A2HOUSKURBF8UA","3THR0FZ95PF7SK0MYRNAOUHTWA4OLV","","","img/flower4.png","74","482.2999999988824","1","1","1","2","1,0,0,1,1,0,1,0,1","1,0,0,1,1,0,1,0,1","1",""
"null","","html-keyboard-response","239","470536","0.0-239.0","3DH6GAKTYZB5D7JMAHSJNJMHWG5ZYS","A2HOUSKURBF8UA","3THR0FZ95PF7SK0MYRNAOUHTWA4OLV","","","<img src=""img/flower4.png"" style=""width:200px; border:14px solid green;"">","null","","","","","","","","",""
"467.8999999985099","","image-keyboard-response","240","471006","0.0-240.0","3DH6GAKTYZB5D7JMAHSJNJMHWG5ZYS","A2HOUSKURBF8UA","3THR0FZ95PF7SK0MYRNAOUHTWA4OLV","","","img/flower4.png","74","469.59999999962747","1","1","1","2","1,0,0,1,1,0,1,0,1","1,0,0,1,1,0,1,0,1","1",""
"null","","html-keyboard-response","241","471312","0.0-241.0","3DH6GAKTYZB5D7JMAHSJNJMHWG5ZYS","A2HOUSKURBF8UA","3THR0FZ95PF7SK0MYRNAOUHTWA4OLV","","","<img src=""img/flower4.png"" style=""width:200px; border:14px solid green;"">","null","","","","","","","","",""
"496.59999999962747","","image-keyboard-response","242","471810","0.0-242.0","3DH6GAKTYZB5D7JMAHSJNJMHWG5ZYS","A2HOUSKURBF8UA","3THR0FZ95PF7SK0MYRNAOUHTWA4OLV","","","img/flower4.png","74","497.80000000074506","1","1","1","2","1,0,0,1,1,0,1,0,1","1,0,0,1,1,0,1,0,1","1",""
"null","","html-keyboard-response","243","472112","0.0-243.0","3DH6GAKTYZB5D7JMAHSJNJMHWG5ZYS","A2HOUSKURBF8UA","3THR0FZ95PF7SK0MYRNAOUHTWA4OLV","","","<img src=""img/flower4.png"" style=""width:200px; border:14px solid green;"">","null","","","","","","","","",""
"463","","image-keyboard-response","244","472576","0.0-244.0","3DH6GAKTYZB5D7JMAHSJNJMHWG5ZYS","A2HOUSKURBF8UA","3THR0FZ95PF7SK0MYRNAOUHTWA4OLV","","","img/flower5.png","75","464.2999999988824","2","1","2","2","1,0,0,1,1,0,1,0,1","1,0,0,1,1,0,1,0,1","1",""
"null","","html-keyboard-response","245","472880","0.0-245.0","3DH6GAKTYZB5D7JMAHSJNJMHWG5ZYS","A2HOUSKURBF8UA","3THR0FZ95PF7SK0MYRNAOUHTWA4OLV","","","<img src=""img/flower5.png"" style=""width:200px; border:14px solid green;"">","null","","","","","","","","",""
"619","","image-keyboard-response","246","473500","0.0-246.0","3DH6GAKTYZB5D7JMAHSJNJMHWG5ZYS","A2HOUSKURBF8UA","3THR0FZ95PF7SK0MYRNAOUHTWA4OLV","","","img/flower4.png","74","620.5","1","1","1","2","1,0,0,1,1,0,1,0,1","1,0,0,1,1,0,1,0,1","1",""
"null","","html-keyboard-response","247","473808","0.0-247.0","3DH6GAKTYZB5D7JMAHSJNJMHWG5ZYS","A2HOUSKURBF8UA","3THR0FZ95PF7SK0MYRNAOUHTWA4OLV","","","<img src=""img/flower4.png"" style=""width:200px; border:14px solid green;"">","null","","","","","","","","",""
"418.30000000074506","","image-keyboard-response","248","474227","0.0-248.0","3DH6GAKTYZB5D7JMAHSJNJMHWG5ZYS","A2HOUSKURBF8UA","3THR0FZ95PF7SK0MYRNAOUHTWA4OLV","","","img/flower4.png","74","419.2999999988824","1","1","1","2","1,0,0,1,1,0,1,0,1","1,0,0,1,1,0,1,0,1","1",""
"null","","html-keyboard-response","249","474536","0.0-249.0","3DH6GAKTYZB5D7JMAHSJNJMHWG5ZYS","A2HOUSKURBF8UA","3THR0FZ95PF7SK0MYRNAOUHTWA4OLV","","","<img src=""img/flower4.png"" style=""width:200px; border:14px solid green;"">","null","","","","","","","","",""
"593.6000000014901","","image-keyboard-response","250","475131","0.0-250.0","3DH6GAKTYZB5D7JMAHSJNJMHWG5ZYS","A2HOUSKURBF8UA","3THR0FZ95PF7SK0MYRNAOUHTWA4OLV","","","img/flower1.png","76","594.9000000003725","3","1","3","2","1,0,0,1,1,0,1,0,1","1,0,0,1,1,0,1,0,1","1",""
"null","","html-keyboard-response","251","475440","0.0-251.0","3DH6GAKTYZB5D7JMAHSJNJMHWG5ZYS","A2HOUSKURBF8UA","3THR0FZ95PF7SK0MYRNAOUHTWA4OLV","","","<img src=""img/flower1.png"" style=""width:200px; border:14px solid green;"">","null","","","","","","","","",""
"529.1999999992549","","image-keyboard-response","252","475971","0.0-252.0","3DH6GAKTYZB5D7JMAHSJNJMHWG5ZYS","A2HOUSKURBF8UA","3THR0FZ95PF7SK0MYRNAOUHTWA4OLV","","","img/flower5.png","75","530.8000000007451","2","1","2","2","1,0,0,1,1,0,1,0,1","1,0,0,1,1,0,1,0,1","1",""
"null","","html-keyboard-response","253","476281","0.0-253.0","3DH6GAKTYZB5D7JMAHSJNJMHWG5ZYS","A2HOUSKURBF8UA","3THR0FZ95PF7SK0MYRNAOUHTWA4OLV","","","<img src=""img/flower5.png"" style=""width:200px; border:14px solid green;"">","null","","","","","","","","",""
"515.6999999992549","","image-keyboard-response","254","476798","0.0-254.0","3DH6GAKTYZB5D7JMAHSJNJMHWG5ZYS","A2HOUSKURBF8UA","3THR0FZ95PF7SK0MYRNAOUHTWA4OLV","","","img/flower4.png","74","517.3999999985099","1","1","1","2","1,0,0,1,1,0,1,0,1","1,0,0,1,1,0,1,0,1","1",""
"null","","html-keyboard-response","255","477104","0.0-255.0","3DH6GAKTYZB5D7JMAHSJNJMHWG5ZYS","A2HOUSKURBF8UA","3THR0FZ95PF7SK0MYRNAOUHTWA4OLV","","","<img src=""img/flower4.png"" style=""width:200px; border:14px solid green;"">","null","","","","","","","","",""
"633.7000000011176","","image-keyboard-response","256","477740","0.0-256.0","3DH6GAKTYZB5D7JMAHSJNJMHWG5ZYS","A2HOUSKURBF8UA","3THR0FZ95PF7SK0MYRNAOUHTWA4OLV","","","img/flower5.png","75","635.8000000007451","2","1","2","2","1,0,0,1,1,0,1,0,1","1,0,0,1,1,0,1,0,1","1",""
"null","","html-keyboard-response","257","478048","0.0-257.0","3DH6GAKTYZB5D7JMAHSJNJMHWG5ZYS","A2HOUSKURBF8UA","3THR0FZ95PF7SK0MYRNAOUHTWA4OLV","","","<img src=""img/flower5.png"" style=""width:200px; border:14px solid green;"">","null","","","","","","","","",""
"481.80000000074506","","image-keyboard-response","258","478531","0.0-258.0","3DH6GAKTYZB5D7JMAHSJNJMHWG5ZYS","A2HOUSKURBF8UA","3THR0FZ95PF7SK0MYRNAOUHTWA4OLV","","","img/flower5.png","75","483","2","1","2","2","1,0,0,1,1,0,1,0,1","1,0,0,1,1,0,1,0,1","1",""
"null","","html-keyboard-response","259","478840","0.0-259.0","3DH6GAKTYZB5D7JMAHSJNJMHWG5ZYS","A2HOUSKURBF8UA","3THR0FZ95PF7SK0MYRNAOUHTWA4OLV","","","<img src=""img/flower5.png"" style=""width:200px; border:14px solid green;"">","null","","","","","","","","",""
"558.4000000003725","","image-keyboard-response","260","479400","0.0-260.0","3DH6GAKTYZB5D7JMAHSJNJMHWG5ZYS","A2HOUSKURBF8UA","3THR0FZ95PF7SK0MYRNAOUHTWA4OLV","","","img/flower4.png","74","559.6999999992549","1","1","1","2","1,0,0,1,1,0,1,0,1","1,0,0,1,1,0,1,0,1","1",""
"null","","html-keyboard-response","261","479704","0.0-261.0","3DH6GAKTYZB5D7JMAHSJNJMHWG5ZYS","A2HOUSKURBF8UA","3THR0FZ95PF7SK0MYRNAOUHTWA4OLV","","","<img src=""img/flower4.png"" style=""width:200px; border:14px solid green;"">","null","","","","","","","","",""
"621.3999999985099","","image-keyboard-response","262","480327","0.0-262.0","3DH6GAKTYZB5D7JMAHSJNJMHWG5ZYS","A2HOUSKURBF8UA","3THR0FZ95PF7SK0MYRNAOUHTWA4OLV","","","img/flower5.png","75","622.9000000003725","2","1","2","2","1,0,0,1,1,0,1,0,1","1,0,0,1,1,0,1,0,1","1",""
"null","","html-keyboard-response","263","480632","0.0-263.0","3DH6GAKTYZB5D7JMAHSJNJMHWG5ZYS","A2HOUSKURBF8UA","3THR0FZ95PF7SK0MYRNAOUHTWA4OLV","","","<img src=""img/flower5.png"" style=""width:200px; border:14px solid green;"">","null","","","","","","","","",""
"489.69999999925494","","image-keyboard-response","264","481123","0.0-264.0","3DH6GAKTYZB5D7JMAHSJNJMHWG5ZYS","A2HOUSKURBF8UA","3THR0FZ95PF7SK0MYRNAOUHTWA4OLV","","","img/flower5.png","75","491.2999999988824","2","1","2","2","1,0,0,1,1,0,1,0,1","1,0,0,1,1,0,1,0,1","1",""
"null","","html-keyboard-response","265","481432","0.0-265.0","3DH6GAKTYZB5D7JMAHSJNJMHWG5ZYS","A2HOUSKURBF8UA","3THR0FZ95PF7SK0MYRNAOUHTWA4OLV","","","<img src=""img/flower5.png"" style=""width:200px; border:14px solid green;"">","null","","","","","","","","",""
"635.3000000007451","","image-keyboard-response","266","482069","0.0-266.0","3DH6GAKTYZB5D7JMAHSJNJMHWG5ZYS","A2HOUSKURBF8UA","3THR0FZ95PF7SK0MYRNAOUHTWA4OLV","","","img/flower4.png","74","636.7999999988824","1","1","1","2","1,0,0,1,1,0,1,0,1","1,0,0,1,1,0,1,0,1","1",""
"null","","html-keyboard-response","267","482376","0.0-267.0","3DH6GAKTYZB5D7JMAHSJNJMHWG5ZYS","A2HOUSKURBF8UA","3THR0FZ95PF7SK0MYRNAOUHTWA4OLV","","","<img src=""img/flower4.png"" style=""width:200px; border:14px solid green;"">","null","","","","","","","","",""
"501.09999999962747","","image-keyboard-response","268","482879","0.0-268.0","3DH6GAKTYZB5D7JMAHSJNJMHWG5ZYS","A2HOUSKURBF8UA","3THR0FZ95PF7SK0MYRNAOUHTWA4OLV","","","img/flower4.png","74","502.40000000037253","1","1","1","2","1,0,0,1,1,0,1,0,1","1,0,0,1,1,0,1,0,1","1",""
"null","","html-keyboard-response","269","483184","0.0-269.0","3DH6GAKTYZB5D7JMAHSJNJMHWG5ZYS","A2HOUSKURBF8UA","3THR0FZ95PF7SK0MYRNAOUHTWA4OLV","","","<img src=""img/flower4.png"" style=""width:200px; border:14px solid green;"">","null","","","","","","","","",""
"595.0999999996275","","image-keyboard-response","270","483781","0.0-270.0","3DH6GAKTYZB5D7JMAHSJNJMHWG5ZYS","A2HOUSKURBF8UA","3THR0FZ95PF7SK0MYRNAOUHTWA4OLV","","","img/flower1.png","76","596.6999999992549","3","1","3","2","1,0,0,1,1,0,1,0,1","1,0,0,1,1,0,1,0,1","1",""
"null","","html-keyboard-response","271","484088","0.0-271.0","3DH6GAKTYZB5D7JMAHSJNJMHWG5ZYS","A2HOUSKURBF8UA","3THR0FZ95PF7SK0MYRNAOUHTWA4OLV","","","<img src=""img/flower1.png"" style=""width:200px; border:14px solid green;"">","null","","","","","","","","",""
"654.4000000003725","","image-keyboard-response","272","484744","0.0-272.0","3DH6GAKTYZB5D7JMAHSJNJMHWG5ZYS","A2HOUSKURBF8UA","3THR0FZ95PF7SK0MYRNAOUHTWA4OLV","","","img/flower4.png","74","655.6999999992549","1","1","1","2","1,0,0,1,1,0,1,0,1","1,0,0,1,1,0,1,0,1","1",""
"null","","html-keyboard-response","273","485048","0.0-273.0","3DH6GAKTYZB5D7JMAHSJNJMHWG5ZYS","A2HOUSKURBF8UA","3THR0FZ95PF7SK0MYRNAOUHTWA4OLV","","","<img src=""img/flower4.png"" style=""width:200px; border:14px solid green;"">","null","","","","","","","","",""
"505.80000000074506","","image-keyboard-response","274","485555","0.0-274.0","3DH6GAKTYZB5D7JMAHSJNJMHWG5ZYS","A2HOUSKURBF8UA","3THR0FZ95PF7SK0MYRNAOUHTWA4OLV","","","img/flower1.png","76","506.8999999985099","3","1","3","2","1,0,0,1,1,0,1,0,1","1,0,0,1,1,0,1,0,1","1",""
"null","","html-keyboard-response","275","485864","0.0-275.0","3DH6GAKTYZB5D7JMAHSJNJMHWG5ZYS","A2HOUSKURBF8UA","3THR0FZ95PF7SK0MYRNAOUHTWA4OLV","","","<img src=""img/flower1.png"" style=""width:200px; border:14px solid green;"">","null","","","","","","","","",""
"439.90000000037253","","image-keyboard-response","276","486305","0.0-276.0","3DH6GAKTYZB5D7JMAHSJNJMHWG5ZYS","A2HOUSKURBF8UA","3THR0FZ95PF7SK0MYRNAOUHTWA4OLV","","","img/flower1.png","76","441.3999999985099","3","1","3","2","1,0,0,1,1,0,1,0,1","1,0,0,1,1,0,1,0,1","1",""
"null","","html-keyboard-response","277","486608","0.0-277.0","3DH6GAKTYZB5D7JMAHSJNJMHWG5ZYS","A2HOUSKURBF8UA","3THR0FZ95PF7SK0MYRNAOUHTWA4OLV","","","<img src=""img/flower1.png"" style=""width:200px; border:14px solid green;"">","null","","","","","","","","",""
"495.3999999985099","","image-keyboard-response","278","487105","0.0-278.0","3DH6GAKTYZB5D7JMAHSJNJMHWG5ZYS","A2HOUSKURBF8UA","3THR0FZ95PF7SK0MYRNAOUHTWA4OLV","","","img/flower4.png","74","497.09999999962747","1","1","1","2","1,0,0,1,1,0,1,0,1","1,0,0,1,1,0,1,0,1","1",""
"null","","html-keyboard-response","279","487408","0.0-279.0","3DH6GAKTYZB5D7JMAHSJNJMHWG5ZYS","A2HOUSKURBF8UA","3THR0FZ95PF7SK0MYRNAOUHTWA4OLV","","","<img src=""img/flower4.png"" style=""width:200px; border:14px solid green;"">","null","","","","","","","","",""
"588","","image-keyboard-response","280","487998","0.0-280.0","3DH6GAKTYZB5D7JMAHSJNJMHWG5ZYS","A2HOUSKURBF8UA","3THR0FZ95PF7SK0MYRNAOUHTWA4OLV","","","img/flower1.png","76","589.8000000007451","3","1","3","2","1,0,0,1,1,0,1,0,1","1,0,0,1,1,0,1,0,1","1",""
"null","","html-keyboard-response","281","488304","0.0-281.0","3DH6GAKTYZB5D7JMAHSJNJMHWG5ZYS","A2HOUSKURBF8UA","3THR0FZ95PF7SK0MYRNAOUHTWA4OLV","","","<img src=""img/flower1.png"" style=""width:200px; border:14px solid green;"">","null","","","","","","","","",""
"657.1999999992549","","image-keyboard-response","282","488964","0.0-282.0","3DH6GAKTYZB5D7JMAHSJNJMHWG5ZYS","A2HOUSKURBF8UA","3THR0FZ95PF7SK0MYRNAOUHTWA4OLV","","","img/flower5.png","75","660.0999999996275","2","1","2","2","1,0,0,1,1,0,1,0,1","1,0,0,1,1,0,1,0,1","1",""
"null","","html-keyboard-response","283","489272","0.0-283.0","3DH6GAKTYZB5D7JMAHSJNJMHWG5ZYS","A2HOUSKURBF8UA","3THR0FZ95PF7SK0MYRNAOUHTWA4OLV","","","<img src=""img/flower5.png"" style=""width:200px; border:14px solid green;"">","null","","","","","","","","",""
"458.90000000037253","","image-keyboard-response","284","489733","0.0-284.0","3DH6GAKTYZB5D7JMAHSJNJMHWG5ZYS","A2HOUSKURBF8UA","3THR0FZ95PF7SK0MYRNAOUHTWA4OLV","","","img/flower5.png","75","460.19999999925494","2","1","2","2","1,0,0,1,1,0,1,0,1","1,0,0,1,1,0,1,0,1","1",""
"null","","html-keyboard-response","285","490040","0.0-285.0","3DH6GAKTYZB5D7JMAHSJNJMHWG5ZYS","A2HOUSKURBF8UA","3THR0FZ95PF7SK0MYRNAOUHTWA4OLV","","","<img src=""img/flower5.png"" style=""width:200px; border:14px solid green;"">","null","","","","","","","","",""
"536.5","","image-keyboard-response","286","490578","0.0-286.0","3DH6GAKTYZB5D7JMAHSJNJMHWG5ZYS","A2HOUSKURBF8UA","3THR0FZ95PF7SK0MYRNAOUHTWA4OLV","","","img/flower4.png","76","537.7999999988824","3","0","1","2","1,0,0,1,1,0,1,0,1","1,0,0,1,1,0,1,0,1","1",""
"null","","html-keyboard-response","287","490888","0.0-287.0","3DH6GAKTYZB5D7JMAHSJNJMHWG5ZYS","A2HOUSKURBF8UA","3THR0FZ95PF7SK0MYRNAOUHTWA4OLV","","","<img src=""img/flower4.png"" style=""width:200px;border:14px solid red;"">","null","","","","","","","","",""
"612.0999999996275","","image-keyboard-response","288","491502","0.0-288.0","3DH6GAKTYZB5D7JMAHSJNJMHWG5ZYS","A2HOUSKURBF8UA","3THR0FZ95PF7SK0MYRNAOUHTWA4OLV","","","img/flower1.png","76","613.5","3","1","3","2","1,0,0,1,1,0,1,0,1","1,0,0,1,1,0,1,0,1","1",""
"null","","html-keyboard-response","289","491808","0.0-289.0","3DH6GAKTYZB5D7JMAHSJNJMHWG5ZYS","A2HOUSKURBF8UA","3THR0FZ95PF7SK0MYRNAOUHTWA4OLV","","","<img src=""img/flower1.png"" style=""width:200px; border:14px solid green;"">","null","","","","","","","","",""
"564.2000000011176","","image-keyboard-response","290","492375","0.0-290.0","3DH6GAKTYZB5D7JMAHSJNJMHWG5ZYS","A2HOUSKURBF8UA","3THR0FZ95PF7SK0MYRNAOUHTWA4OLV","","","img/flower5.png","75","566.4000000003725","2","1","2","2","1,0,0,1,1,0,1,0,1","1,0,0,1,1,0,1,0,1","1",""
"null","","html-keyboard-response","291","492680","0.0-291.0","3DH6GAKTYZB5D7JMAHSJNJMHWG5ZYS","A2HOUSKURBF8UA","3THR0FZ95PF7SK0MYRNAOUHTWA4OLV","","","<img src=""img/flower5.png"" style=""width:200px; border:14px solid green;"">","null","","","","","","","","",""
"593.0999999996275","","image-keyboard-response","292","493275","0.0-292.0","3DH6GAKTYZB5D7JMAHSJNJMHWG5ZYS","A2HOUSKURBF8UA","3THR0FZ95PF7SK0MYRNAOUHTWA4OLV","","","img/flower4.png","74","595.1000000014901","1","1","1","2","1,0,0,1,1,0,1,0,1","1,0,0,1,1,0,1,0,1","1",""
"null","","html-keyboard-response","293","493584","0.0-293.0","3DH6GAKTYZB5D7JMAHSJNJMHWG5ZYS","A2HOUSKURBF8UA","3THR0FZ95PF7SK0MYRNAOUHTWA4OLV","","","<img src=""img/flower4.png"" style=""width:200px; border:14px solid green;"">","null","","","","","","","","",""
"635.9000000003725","","image-keyboard-response","294","494222","0.0-294.0","3DH6GAKTYZB5D7JMAHSJNJMHWG5ZYS","A2HOUSKURBF8UA","3THR0FZ95PF7SK0MYRNAOUHTWA4OLV","","","img/flower1.png","76","637.2999999988824","3","1","3","2","1,0,0,1,1,0,1,0,1","1,0,0,1,1,0,1,0,1","1",""
"null","","html-keyboard-response","295","494528","0.0-295.0","3DH6GAKTYZB5D7JMAHSJNJMHWG5ZYS","A2HOUSKURBF8UA","3THR0FZ95PF7SK0MYRNAOUHTWA4OLV","","","<img src=""img/flower1.png"" style=""width:200px; border:14px solid green;"">","null","","","","","","","","",""
"589.7999999988824","","image-keyboard-response","296","495119","0.0-296.0","3DH6GAKTYZB5D7JMAHSJNJMHWG5ZYS","A2HOUSKURBF8UA","3THR0FZ95PF7SK0MYRNAOUHTWA4OLV","","","img/flower4.png","74","591.0999999996275","1","1","1","2","1,0,0,1,1,0,1,0,1","1,0,0,1,1,0,1,0,1","1",""
"null","","html-keyboard-response","297","495424","0.0-297.0","3DH6GAKTYZB5D7JMAHSJNJMHWG5ZYS","A2HOUSKURBF8UA","3THR0FZ95PF7SK0MYRNAOUHTWA4OLV","","","<img src=""img/flower4.png"" style=""width:200px; border:14px solid green;"">","null","","","","","","","","",""
"546.6999999992549","","image-keyboard-response","298","495973","0.0-298.0","3DH6GAKTYZB5D7JMAHSJNJMHWG5ZYS","A2HOUSKURBF8UA","3THR0FZ95PF7SK0MYRNAOUHTWA4OLV","","","img/flower5.png","75","548.1999999992549","2","1","2","2","1,0,0,1,1,0,1,0,1","1,0,0,1,1,0,1,0,1","1",""
"null","","html-keyboard-response","299","496280","0.0-299.0","3DH6GAKTYZB5D7JMAHSJNJMHWG5ZYS","A2HOUSKURBF8UA","3THR0FZ95PF7SK0MYRNAOUHTWA4OLV","","","<img src=""img/flower5.png"" style=""width:200px; border:14px solid green;"">","null","","","","","","","","",""
"532.0999999996275","","image-keyboard-response","300","496813","0.0-300.0","3DH6GAKTYZB5D7JMAHSJNJMHWG5ZYS","A2HOUSKURBF8UA","3THR0FZ95PF7SK0MYRNAOUHTWA4OLV","","","img/flower4.png","74","533.3999999985099","1","1","1","2","1,0,0,1,1,0,1,0,1","1,0,0,1,1,0,1,0,1","1",""
"null","","html-keyboard-response","301","497120","0.0-301.0","3DH6GAKTYZB5D7JMAHSJNJMHWG5ZYS","A2HOUSKURBF8UA","3THR0FZ95PF7SK0MYRNAOUHTWA4OLV","","","<img src=""img/flower4.png"" style=""width:200px; border:14px solid green;"">","null","","","","","","","","",""
"452.40000000037253","","image-keyboard-response","302","497574","0.0-302.0","3DH6GAKTYZB5D7JMAHSJNJMHWG5ZYS","A2HOUSKURBF8UA","3THR0FZ95PF7SK0MYRNAOUHTWA4OLV","","","img/flower4.png","74","453.8999999985099","1","1","1","2","1,0,0,1,1,0,1,0,1","1,0,0,1,1,0,1,0,1","1",""
"null","","html-keyboard-response","303","497880","0.0-303.0","3DH6GAKTYZB5D7JMAHSJNJMHWG5ZYS","A2HOUSKURBF8UA","3THR0FZ95PF7SK0MYRNAOUHTWA4OLV","","","<img src=""img/flower4.png"" style=""width:200px; border:14px solid green;"">","null","","","","","","","","",""
"588.8000000007451","","image-keyboard-response","304","498470","0.0-304.0","3DH6GAKTYZB5D7JMAHSJNJMHWG5ZYS","A2HOUSKURBF8UA","3THR0FZ95PF7SK0MYRNAOUHTWA4OLV","","","img/flower1.png","76","590.2000000011176","3","1","3","2","1,0,0,1,1,0,1,0,1","1,0,0,1,1,0,1,0,1","1",""
"null","","html-keyboard-response","305","498776","0.0-305.0","3DH6GAKTYZB5D7JMAHSJNJMHWG5ZYS","A2HOUSKURBF8UA","3THR0FZ95PF7SK0MYRNAOUHTWA4OLV","","","<img src=""img/flower1.png"" style=""width:200px; border:14px solid green;"">","null","","","","","","","","",""
"670.1000000014901","","image-keyboard-response","306","499447","0.0-306.0","3DH6GAKTYZB5D7JMAHSJNJMHWG5ZYS","A2HOUSKURBF8UA","3THR0FZ95PF7SK0MYRNAOUHTWA4OLV","","","img/flower2.png","75","671.2999999988824","2","1","2","1","1,0.333,0.333,0.333,1,0.333,0.333,0.333,1","1,0.333,0.333,0.333,1,0.333,0.333,0.333,1","1",""
"null","","html-keyboard-response","307","499752","0.0-307.0","3DH6GAKTYZB5D7JMAHSJNJMHWG5ZYS","A2HOUSKURBF8UA","3THR0FZ95PF7SK0MYRNAOUHTWA4OLV","","","<img src=""img/flower2.png"" style=""width:200px; border:14px solid green;"">","null","","","","","","","","",""
"646.0999999996275","","image-keyboard-response","308","500401","0.0-308.0","3DH6GAKTYZB5D7JMAHSJNJMHWG5ZYS","A2HOUSKURBF8UA","3THR0FZ95PF7SK0MYRNAOUHTWA4OLV","","","img/flower3.png","75","648.2999999988824","2","0","1","1","1,0.333,0.333,0.333,1,0.333,0.333,0.333,1","1,0.333,0.333,0.333,1,0.333,0.333,0.333,1","1",""
"null","","html-keyboard-response","309","500704","0.0-309.0","3DH6GAKTYZB5D7JMAHSJNJMHWG5ZYS","A2HOUSKURBF8UA","3THR0FZ95PF7SK0MYRNAOUHTWA4OLV","","","<img src=""img/flower3.png"" style=""width:200px;border:14px solid red;"">","null","","","","","","","","",""
"591","","image-keyboard-response","310","501296","0.0-310.0","3DH6GAKTYZB5D7JMAHSJNJMHWG5ZYS","A2HOUSKURBF8UA","3THR0FZ95PF7SK0MYRNAOUHTWA4OLV","","","img/flower2.png","75","592.2999999988824","2","1","2","1","1,0.333,0.333,0.333,1,0.333,0.333,0.333,1","1,0.333,0.333,0.333,1,0.333,0.333,0.333,1","1",""
"null","","html-keyboard-response","311","501600","0.0-311.0","3DH6GAKTYZB5D7JMAHSJNJMHWG5ZYS","A2HOUSKURBF8UA","3THR0FZ95PF7SK0MYRNAOUHTWA4OLV","","","<img src=""img/flower2.png"" style=""width:200px; border:14px solid green;"">","null","","","","","","","","",""
"796.6999999992549","","image-keyboard-response","312","502399","0.0-312.0","3DH6GAKTYZB5D7JMAHSJNJMHWG5ZYS","A2HOUSKURBF8UA","3THR0FZ95PF7SK0MYRNAOUHTWA4OLV","","","img/flower6.png","76","798.1999999992549","3","1","3","1","1,0.333,0.333,0.333,1,0.333,0.333,0.333,1","1,0.333,0.333,0.333,1,0.333,0.333,0.333,1","1",""
"null","","html-keyboard-response","313","502704","0.0-313.0","3DH6GAKTYZB5D7JMAHSJNJMHWG5ZYS","A2HOUSKURBF8UA","3THR0FZ95PF7SK0MYRNAOUHTWA4OLV","","","<img src=""img/flower6.png"" style=""width:200px; border:14px solid green;"">","null","","","","","","","","",""
"745.5","","image-keyboard-response","314","503451","0.0-314.0","3DH6GAKTYZB5D7JMAHSJNJMHWG5ZYS","A2HOUSKURBF8UA","3THR0FZ95PF7SK0MYRNAOUHTWA4OLV","","","img/flower3.png","75","747.2000000011176","2","1","1","1","1,0.333,0.333,0.333,1,0.333,0.333,0.333,1","1,0.333,0.333,0.333,1,0.333,0.333,0.333,1","1",""
"null","","html-keyboard-response","315","503760","0.0-315.0","3DH6GAKTYZB5D7JMAHSJNJMHWG5ZYS","A2HOUSKURBF8UA","3THR0FZ95PF7SK0MYRNAOUHTWA4OLV","","","<img src=""img/flower3.png"" style=""width:200px; border:14px solid green;"">","null","","","","","","","","",""
"599.8000000007451","","image-keyboard-response","316","504362","0.0-316.0","3DH6GAKTYZB5D7JMAHSJNJMHWG5ZYS","A2HOUSKURBF8UA","3THR0FZ95PF7SK0MYRNAOUHTWA4OLV","","","img/flower6.png","76","601.1999999992549","3","1","3","1","1,0.333,0.333,0.333,1,0.333,0.333,0.333,1","1,0.333,0.333,0.333,1,0.333,0.333,0.333,1","1",""
"null","","html-keyboard-response","317","504664","0.0-317.0","3DH6GAKTYZB5D7JMAHSJNJMHWG5ZYS","A2HOUSKURBF8UA","3THR0FZ95PF7SK0MYRNAOUHTWA4OLV","","","<img src=""img/flower6.png"" style=""width:200px; border:14px solid green;"">","null","","","","","","","","",""
"640.6999999992549","","image-keyboard-response","318","505306","0.0-318.0","3DH6GAKTYZB5D7JMAHSJNJMHWG5ZYS","A2HOUSKURBF8UA","3THR0FZ95PF7SK0MYRNAOUHTWA4OLV","","","img/flower6.png","76","642.2999999988824","3","1","3","1","1,0.333,0.333,0.333,1,0.333,0.333,0.333,1","1,0.333,0.333,0.333,1,0.333,0.333,0.333,1","1",""
"null","","html-keyboard-response","319","505608","0.0-319.0","3DH6GAKTYZB5D7JMAHSJNJMHWG5ZYS","A2HOUSKURBF8UA","3THR0FZ95PF7SK0MYRNAOUHTWA4OLV","","","<img src=""img/flower6.png"" style=""width:200px; border:14px solid green;"">","null","","","","","","","","",""
"489.80000000074506","","image-keyboard-response","320","506100","0.0-320.0","3DH6GAKTYZB5D7JMAHSJNJMHWG5ZYS","A2HOUSKURBF8UA","3THR0FZ95PF7SK0MYRNAOUHTWA4OLV","","","img/flower3.png","75","491.30000000074506","2","0","1","1","1,0.333,0.333,0.333,1,0.333,0.333,0.333,1","1,0.333,0.333,0.333,1,0.333,0.333,0.333,1","1",""
"null","","html-keyboard-response","321","506408","0.0-321.0","3DH6GAKTYZB5D7JMAHSJNJMHWG5ZYS","A2HOUSKURBF8UA","3THR0FZ95PF7SK0MYRNAOUHTWA4OLV","","","<img src=""img/flower3.png"" style=""width:200px;border:14px solid red;"">","null","","","","","","","","",""
"693.8999999985099","","image-keyboard-response","322","507103","0.0-322.0","3DH6GAKTYZB5D7JMAHSJNJMHWG5ZYS","A2HOUSKURBF8UA","3THR0FZ95PF7SK0MYRNAOUHTWA4OLV","","","img/flower3.png","74","695.5","1","1","1","1","1,0.333,0.333,0.333,1,0.333,0.333,0.333,1","1,0.333,0.333,0.333,1,0.333,0.333,0.333,1","1",""
"null","","html-keyboard-response","323","507408","0.0-323.0","3DH6GAKTYZB5D7JMAHSJNJMHWG5ZYS","A2HOUSKURBF8UA","3THR0FZ95PF7SK0MYRNAOUHTWA4OLV","","","<img src=""img/flower3.png"" style=""width:200px; border:14px solid green;"">","null","","","","","","","","",""
"614.9000000003725","","image-keyboard-response","324","508024","0.0-324.0","3DH6GAKTYZB5D7JMAHSJNJMHWG5ZYS","A2HOUSKURBF8UA","3THR0FZ95PF7SK0MYRNAOUHTWA4OLV","","","img/flower6.png","76","616.2999999988824","3","1","3","1","1,0.333,0.333,0.333,1,0.333,0.333,0.333,1","1,0.333,0.333,0.333,1,0.333,0.333,0.333,1","1",""
"null","","html-keyboard-response","325","508332","0.0-325.0","3DH6GAKTYZB5D7JMAHSJNJMHWG5ZYS","A2HOUSKURBF8UA","3THR0FZ95PF7SK0MYRNAOUHTWA4OLV","","","<img src=""img/flower6.png"" style=""width:200px; border:14px solid green;"">","null","","","","","","","","",""
"503.2000000011176","","image-keyboard-response","326","508836","0.0-326.0","3DH6GAKTYZB5D7JMAHSJNJMHWG5ZYS","A2HOUSKURBF8UA","3THR0FZ95PF7SK0MYRNAOUHTWA4OLV","","","img/flower3.png","74","504.6000000014901","1","1","1","1","1,0.333,0.333,0.333,1,0.333,0.333,0.333,1","1,0.333,0.333,0.333,1,0.333,0.333,0.333,1","1",""
"null","","html-keyboard-response","327","509144","0.0-327.0","3DH6GAKTYZB5D7JMAHSJNJMHWG5ZYS","A2HOUSKURBF8UA","3THR0FZ95PF7SK0MYRNAOUHTWA4OLV","","","<img src=""img/flower3.png"" style=""width:200px; border:14px solid green;"">","null","","","","","","","","",""
"765.6999999992549","","image-keyboard-response","328","509912","0.0-328.0","3DH6GAKTYZB5D7JMAHSJNJMHWG5ZYS","A2HOUSKURBF8UA","3THR0FZ95PF7SK0MYRNAOUHTWA4OLV","","","img/flower2.png","75","766.9000000003725","2","1","2","1","1,0.333,0.333,0.333,1,0.333,0.333,0.333,1","1,0.333,0.333,0.333,1,0.333,0.333,0.333,1","1",""
"null","","html-keyboard-response","329","510216","0.0-329.0","3DH6GAKTYZB5D7JMAHSJNJMHWG5ZYS","A2HOUSKURBF8UA","3THR0FZ95PF7SK0MYRNAOUHTWA4OLV","","","<img src=""img/flower2.png"" style=""width:200px; border:14px solid green;"">","null","","","","","","","","",""
"667.6999999992549","","image-keyboard-response","330","510885","0.0-330.0","3DH6GAKTYZB5D7JMAHSJNJMHWG5ZYS","A2HOUSKURBF8UA","3THR0FZ95PF7SK0MYRNAOUHTWA4OLV","","","img/flower6.png","76","669.1999999992549","3","1","3","1","1,0.333,0.333,0.333,1,0.333,0.333,0.333,1","1,0.333,0.333,0.333,1,0.333,0.333,0.333,1","1",""
"null","","html-keyboard-response","331","511192","0.0-331.0","3DH6GAKTYZB5D7JMAHSJNJMHWG5ZYS","A2HOUSKURBF8UA","3THR0FZ95PF7SK0MYRNAOUHTWA4OLV","","","<img src=""img/flower6.png"" style=""width:200px; border:14px solid green;"">","null","","","","","","","","",""
"680","","image-keyboard-response","332","511874","0.0-332.0","3DH6GAKTYZB5D7JMAHSJNJMHWG5ZYS","A2HOUSKURBF8UA","3THR0FZ95PF7SK0MYRNAOUHTWA4OLV","","","img/flower3.png","74","681.4000000003725","1","1","1","1","1,0.333,0.333,0.333,1,0.333,0.333,0.333,1","1,0.333,0.333,0.333,1,0.333,0.333,0.333,1","1",""
"null","","html-keyboard-response","333","512176","0.0-333.0","3DH6GAKTYZB5D7JMAHSJNJMHWG5ZYS","A2HOUSKURBF8UA","3THR0FZ95PF7SK0MYRNAOUHTWA4OLV","","","<img src=""img/flower3.png"" style=""width:200px; border:14px solid green;"">","null","","","","","","","","",""
"574.1999999992549","","image-keyboard-response","334","512753","0.0-334.0","3DH6GAKTYZB5D7JMAHSJNJMHWG5ZYS","A2HOUSKURBF8UA","3THR0FZ95PF7SK0MYRNAOUHTWA4OLV","","","img/flower2.png","76","576.0999999996275","3","1","2","1","1,0.333,0.333,0.333,1,0.333,0.333,0.333,1","1,0.333,0.333,0.333,1,0.333,0.333,0.333,1","1",""
"null","","html-keyboard-response","335","513056","0.0-335.0","3DH6GAKTYZB5D7JMAHSJNJMHWG5ZYS","A2HOUSKURBF8UA","3THR0FZ95PF7SK0MYRNAOUHTWA4OLV","","","<img src=""img/flower2.png"" style=""width:200px; border:14px solid green;"">","null","","","","","","","","",""
"696.6999999992549","","image-keyboard-response","336","513754","0.0-336.0","3DH6GAKTYZB5D7JMAHSJNJMHWG5ZYS","A2HOUSKURBF8UA","3THR0FZ95PF7SK0MYRNAOUHTWA4OLV","","","img/flower6.png","74","698","1","0","3","1","1,0.333,0.333,0.333,1,0.333,0.333,0.333,1","1,0.333,0.333,0.333,1,0.333,0.333,0.333,1","1",""
"null","","html-keyboard-response","337","514064","0.0-337.0","3DH6GAKTYZB5D7JMAHSJNJMHWG5ZYS","A2HOUSKURBF8UA","3THR0FZ95PF7SK0MYRNAOUHTWA4OLV","","","<img src=""img/flower6.png"" style=""width:200px;border:14px solid red;"">","null","","","","","","","","",""
"755.9000000003725","","image-keyboard-response","338","514823","0.0-338.0","3DH6GAKTYZB5D7JMAHSJNJMHWG5ZYS","A2HOUSKURBF8UA","3THR0FZ95PF7SK0MYRNAOUHTWA4OLV","","","img/flower2.png","76","758.0999999996275","3","1","2","1","1,0.333,0.333,0.333,1,0.333,0.333,0.333,1","1,0.333,0.333,0.333,1,0.333,0.333,0.333,1","1",""
"null","","html-keyboard-response","339","515128","0.0-339.0","3DH6GAKTYZB5D7JMAHSJNJMHWG5ZYS","A2HOUSKURBF8UA","3THR0FZ95PF7SK0MYRNAOUHTWA4OLV","","","<img src=""img/flower2.png"" style=""width:200px; border:14px solid green;"">","null","","","","","","","","",""
"444.2999999988824","","image-keyboard-response","340","515574","0.0-340.0","3DH6GAKTYZB5D7JMAHSJNJMHWG5ZYS","A2HOUSKURBF8UA","3THR0FZ95PF7SK0MYRNAOUHTWA4OLV","","","img/flower2.png","76","445.6000000014901","3","0","2","1","1,0.333,0.333,0.333,1,0.333,0.333,0.333,1","1,0.333,0.333,0.333,1,0.333,0.333,0.333,1","1",""
"null","","html-keyboard-response","341","515880","0.0-341.0","3DH6GAKTYZB5D7JMAHSJNJMHWG5ZYS","A2HOUSKURBF8UA","3THR0FZ95PF7SK0MYRNAOUHTWA4OLV","","","<img src=""img/flower2.png"" style=""width:200px;border:14px solid red;"">","null","","","","","","","","",""
"540.5","","image-keyboard-response","342","516422","0.0-342.0","3DH6GAKTYZB5D7JMAHSJNJMHWG5ZYS","A2HOUSKURBF8UA","3THR0FZ95PF7SK0MYRNAOUHTWA4OLV","","","img/flower2.png","76","541.9000000003725","3","0","2","1","1,0.333,0.333,0.333,1,0.333,0.333,0.333,1","1,0.333,0.333,0.333,1,0.333,0.333,0.333,1","1",""
"null","","html-keyboard-response","343","516728","0.0-343.0","3DH6GAKTYZB5D7JMAHSJNJMHWG5ZYS","A2HOUSKURBF8UA","3THR0FZ95PF7SK0MYRNAOUHTWA4OLV","","","<img src=""img/flower2.png"" style=""width:200px;border:14px solid red;"">","null","","","","","","","","",""
"1008.6000000014901","","image-keyboard-response","344","517738","0.0-344.0","3DH6GAKTYZB5D7JMAHSJNJMHWG5ZYS","A2HOUSKURBF8UA","3THR0FZ95PF7SK0MYRNAOUHTWA4OLV","","","img/flower3.png","75","1009.9000000003725","2","0","1","1","1,0.333,0.333,0.333,1,0.333,0.333,0.333,1","1,0.333,0.333,0.333,1,0.333,0.333,0.333,1","1",""
"null","","html-keyboard-response","345","518040","0.0-345.0","3DH6GAKTYZB5D7JMAHSJNJMHWG5ZYS","A2HOUSKURBF8UA","3THR0FZ95PF7SK0MYRNAOUHTWA4OLV","","","<img src=""img/flower3.png"" style=""width:200px;border:14px solid red;"">","null","","","","","","","","",""
"915.8000000007451","","image-keyboard-response","346","518957","0.0-346.0","3DH6GAKTYZB5D7JMAHSJNJMHWG5ZYS","A2HOUSKURBF8UA","3THR0FZ95PF7SK0MYRNAOUHTWA4OLV","","","img/flower2.png","74","917","1","0","2","1","1,0.333,0.333,0.333,1,0.333,0.333,0.333,1","1,0.333,0.333,0.333,1,0.333,0.333,0.333,1","1",""
"null","","html-keyboard-response","347","519264","0.0-347.0","3DH6GAKTYZB5D7JMAHSJNJMHWG5ZYS","A2HOUSKURBF8UA","3THR0FZ95PF7SK0MYRNAOUHTWA4OLV","","","<img src=""img/flower2.png"" style=""width:200px;border:14px solid red;"">","null","","","","","","","","",""
"893.5","","image-keyboard-response","348","520159","0.0-348.0","3DH6GAKTYZB5D7JMAHSJNJMHWG5ZYS","A2HOUSKURBF8UA","3THR0FZ95PF7SK0MYRNAOUHTWA4OLV","","","img/flower3.png","75","894.8999999985099","2","1","1","1","1,0.333,0.333,0.333,1,0.333,0.333,0.333,1","1,0.333,0.333,0.333,1,0.333,0.333,0.333,1","1",""
"null","","html-keyboard-response","349","520464","0.0-349.0","3DH6GAKTYZB5D7JMAHSJNJMHWG5ZYS","A2HOUSKURBF8UA","3THR0FZ95PF7SK0MYRNAOUHTWA4OLV","","","<img src=""img/flower3.png"" style=""width:200px; border:14px solid green;"">","null","","","","","","","","",""
"647.3000000007451","","image-keyboard-response","350","521113","0.0-350.0","3DH6GAKTYZB5D7JMAHSJNJMHWG5ZYS","A2HOUSKURBF8UA","3THR0FZ95PF7SK0MYRNAOUHTWA4OLV","","","img/flower6.png","76","649.2000000011176","3","1","3","1","1,0.333,0.333,0.333,1,0.333,0.333,0.333,1","1,0.333,0.333,0.333,1,0.333,0.333,0.333,1","1",""
"null","","html-keyboard-response","351","521416","0.0-351.0","3DH6GAKTYZB5D7JMAHSJNJMHWG5ZYS","A2HOUSKURBF8UA","3THR0FZ95PF7SK0MYRNAOUHTWA4OLV","","","<img src=""img/flower6.png"" style=""width:200px; border:14px solid green;"">","null","","","","","","","","",""
"458.2999999988824","","image-keyboard-response","352","521876","0.0-352.0","3DH6GAKTYZB5D7JMAHSJNJMHWG5ZYS","A2HOUSKURBF8UA","3THR0FZ95PF7SK0MYRNAOUHTWA4OLV","","","img/flower3.png","75","459.6000000014901","2","1","1","1","1,0.333,0.333,0.333,1,0.333,0.333,0.333,1","1,0.333,0.333,0.333,1,0.333,0.333,0.333,1","1",""
"null","","html-keyboard-response","353","522184","0.0-353.0","3DH6GAKTYZB5D7JMAHSJNJMHWG5ZYS","A2HOUSKURBF8UA","3THR0FZ95PF7SK0MYRNAOUHTWA4OLV","","","<img src=""img/flower3.png"" style=""width:200px; border:14px solid green;"">","null","","","","","","","","",""
"497.8999999985099","","image-keyboard-response","354","522683","0.0-354.0","3DH6GAKTYZB5D7JMAHSJNJMHWG5ZYS","A2HOUSKURBF8UA","3THR0FZ95PF7SK0MYRNAOUHTWA4OLV","","","img/flower3.png","75","499.2999999988824","2","0","1","1","1,0.333,0.333,0.333,1,0.333,0.333,0.333,1","1,0.333,0.333,0.333,1,0.333,0.333,0.333,1","1",""
"null","","html-keyboard-response","355","522992","0.0-355.0","3DH6GAKTYZB5D7JMAHSJNJMHWG5ZYS","A2HOUSKURBF8UA","3THR0FZ95PF7SK0MYRNAOUHTWA4OLV","","","<img src=""img/flower3.png"" style=""width:200px;border:14px solid red;"">","null","","","","","","","","",""
"541.5","","image-keyboard-response","356","523535","0.0-356.0","3DH6GAKTYZB5D7JMAHSJNJMHWG5ZYS","A2HOUSKURBF8UA","3THR0FZ95PF7SK0MYRNAOUHTWA4OLV","","","img/flower6.png","76","542.7999999988824","3","1","3","1","1,0.333,0.333,0.333,1,0.333,0.333,0.333,1","1,0.333,0.333,0.333,1,0.333,0.333,0.333,1","1",""
"null","","html-keyboard-response","357","523840","0.0-357.0","3DH6GAKTYZB5D7JMAHSJNJMHWG5ZYS","A2HOUSKURBF8UA","3THR0FZ95PF7SK0MYRNAOUHTWA4OLV","","","<img src=""img/flower6.png"" style=""width:200px; border:14px solid green;"">","null","","","","","","","","",""
"504.09999999962747","","image-keyboard-response","358","524346","0.0-358.0","3DH6GAKTYZB5D7JMAHSJNJMHWG5ZYS","A2HOUSKURBF8UA","3THR0FZ95PF7SK0MYRNAOUHTWA4OLV","","","img/flower3.png","74","505.40000000037253","1","1","1","1","1,0.333,0.333,0.333,1,0.333,0.333,0.333,1","1,0.333,0.333,0.333,1,0.333,0.333,0.333,1","1",""
"null","","html-keyboard-response","359","524656","0.0-359.0","3DH6GAKTYZB5D7JMAHSJNJMHWG5ZYS","A2HOUSKURBF8UA","3THR0FZ95PF7SK0MYRNAOUHTWA4OLV","","","<img src=""img/flower3.png"" style=""width:200px; border:14px solid green;"">","null","","","","","","","","",""
"1001.9000000003725","","image-keyboard-response","360","525659","0.0-360.0","3DH6GAKTYZB5D7JMAHSJNJMHWG5ZYS","A2HOUSKURBF8UA","3THR0FZ95PF7SK0MYRNAOUHTWA4OLV","","","img/flower2.png","75","1003.2999999988824","2","1","2","1","1,0.333,0.333,0.333,1,0.333,0.333,0.333,1","1,0.333,0.333,0.333,1,0.333,0.333,0.333,1","1",""
"null","","html-keyboard-response","361","525968","0.0-361.0","3DH6GAKTYZB5D7JMAHSJNJMHWG5ZYS","A2HOUSKURBF8UA","3THR0FZ95PF7SK0MYRNAOUHTWA4OLV","","","<img src=""img/flower2.png"" style=""width:200px; border:14px solid green;"">","null","","","","","","","","",""
"391.80000000074506","","image-keyboard-response","362","526362","0.0-362.0","3DH6GAKTYZB5D7JMAHSJNJMHWG5ZYS","A2HOUSKURBF8UA","3THR0FZ95PF7SK0MYRNAOUHTWA4OLV","","","img/flower2.png","75","393.2000000011176","2","1","2","1","1,0.333,0.333,0.333,1,0.333,0.333,0.333,1","1,0.333,0.333,0.333,1,0.333,0.333,0.333,1","1",""
"null","","html-keyboard-response","363","526664","0.0-363.0","3DH6GAKTYZB5D7JMAHSJNJMHWG5ZYS","A2HOUSKURBF8UA","3THR0FZ95PF7SK0MYRNAOUHTWA4OLV","","","<img src=""img/flower2.png"" style=""width:200px; border:14px solid green;"">","null","","","","","","","","",""
"490.7000000011176","","image-keyboard-response","364","527156","0.0-364.0","3DH6GAKTYZB5D7JMAHSJNJMHWG5ZYS","A2HOUSKURBF8UA","3THR0FZ95PF7SK0MYRNAOUHTWA4OLV","","","img/flower2.png","75","492.2000000011176","2","1","2","1","1,0.333,0.333,0.333,1,0.333,0.333,0.333,1","1,0.333,0.333,0.333,1,0.333,0.333,0.333,1","1",""
"null","","html-keyboard-response","365","527464","0.0-365.0","3DH6GAKTYZB5D7JMAHSJNJMHWG5ZYS","A2HOUSKURBF8UA","3THR0FZ95PF7SK0MYRNAOUHTWA4OLV","","","<img src=""img/flower2.png"" style=""width:200px; border:14px solid green;"">","null","","","","","","","","",""
"560.5","","image-keyboard-response","366","528026","0.0-366.0","3DH6GAKTYZB5D7JMAHSJNJMHWG5ZYS","A2HOUSKURBF8UA","3THR0FZ95PF7SK0MYRNAOUHTWA4OLV","","","img/flower6.png","76","562.3999999985099","3","1","3","1","1,0.333,0.333,0.333,1,0.333,0.333,0.333,1","1,0.333,0.333,0.333,1,0.333,0.333,0.333,1","1",""
"null","","html-keyboard-response","367","528336","0.0-367.0","3DH6GAKTYZB5D7JMAHSJNJMHWG5ZYS","A2HOUSKURBF8UA","3THR0FZ95PF7SK0MYRNAOUHTWA4OLV","","","<img src=""img/flower6.png"" style=""width:200px; border:14px solid green;"">","null","","","","","","","","",""
"499.7000000011176","","image-keyboard-response","368","528837","0.0-368.0","3DH6GAKTYZB5D7JMAHSJNJMHWG5ZYS","A2HOUSKURBF8UA","3THR0FZ95PF7SK0MYRNAOUHTWA4OLV","","","img/flower6.png","76","500.90000000037253","3","1","3","1","1,0.333,0.333,0.333,1,0.333,0.333,0.333,1","1,0.333,0.333,0.333,1,0.333,0.333,0.333,1","1",""
"null","","html-keyboard-response","369","529144","0.0-369.0","3DH6GAKTYZB5D7JMAHSJNJMHWG5ZYS","A2HOUSKURBF8UA","3THR0FZ95PF7SK0MYRNAOUHTWA4OLV","","","<img src=""img/flower6.png"" style=""width:200px; border:14px solid green;"">","null","","","","","","","","",""
"441.40000000037253","","image-keyboard-response","370","529587","0.0-370.0","3DH6GAKTYZB5D7JMAHSJNJMHWG5ZYS","A2HOUSKURBF8UA","3THR0FZ95PF7SK0MYRNAOUHTWA4OLV","","","img/flower6.png","76","442.69999999925494","3","1","3","1","1,0.333,0.333,0.333,1,0.333,0.333,0.333,1","1,0.333,0.333,0.333,1,0.333,0.333,0.333,1","1",""
"null","","html-keyboard-response","371","529896","0.0-371.0","3DH6GAKTYZB5D7JMAHSJNJMHWG5ZYS","A2HOUSKURBF8UA","3THR0FZ95PF7SK0MYRNAOUHTWA4OLV","","","<img src=""img/flower6.png"" style=""width:200px; border:14px solid green;"">","null","","","","","","","","",""
"497.80000000074506","","image-keyboard-response","372","530395","0.0-372.0","3DH6GAKTYZB5D7JMAHSJNJMHWG5ZYS","A2HOUSKURBF8UA","3THR0FZ95PF7SK0MYRNAOUHTWA4OLV","","","img/flower6.png","76","499.2000000011176","3","1","3","1","1,0.333,0.333,0.333,1,0.333,0.333,0.333,1","1,0.333,0.333,0.333,1,0.333,0.333,0.333,1","1",""
"null","","html-keyboard-response","373","530704","0.0-373.0","3DH6GAKTYZB5D7JMAHSJNJMHWG5ZYS","A2HOUSKURBF8UA","3THR0FZ95PF7SK0MYRNAOUHTWA4OLV","","","<img src=""img/flower6.png"" style=""width:200px; border:14px solid green;"">","null","","","","","","","","",""
"651","","image-keyboard-response","374","531356","0.0-374.0","3DH6GAKTYZB5D7JMAHSJNJMHWG5ZYS","A2HOUSKURBF8UA","3THR0FZ95PF7SK0MYRNAOUHTWA4OLV","","","img/flower2.png","74","652.5","1","1","2","1","1,0.333,0.333,0.333,1,0.333,0.333,0.333,1","1,0.333,0.333,0.333,1,0.333,0.333,0.333,1","1",""
"null","","html-keyboard-response","375","531664","0.0-375.0","3DH6GAKTYZB5D7JMAHSJNJMHWG5ZYS","A2HOUSKURBF8UA","3THR0FZ95PF7SK0MYRNAOUHTWA4OLV","","","<img src=""img/flower2.png"" style=""width:200px; border:14px solid green;"">","null","","","","","","","","",""
"557.5","","image-keyboard-response","376","532224","0.0-376.0","3DH6GAKTYZB5D7JMAHSJNJMHWG5ZYS","A2HOUSKURBF8UA","3THR0FZ95PF7SK0MYRNAOUHTWA4OLV","","","img/flower6.png","76","559.4000000003725","3","1","3","1","1,0.333,0.333,0.333,1,0.333,0.333,0.333,1","1,0.333,0.333,0.333,1,0.333,0.333,0.333,1","1",""
"null","","html-keyboard-response","377","532528","0.0-377.0","3DH6GAKTYZB5D7JMAHSJNJMHWG5ZYS","A2HOUSKURBF8UA","3THR0FZ95PF7SK0MYRNAOUHTWA4OLV","","","<img src=""img/flower6.png"" style=""width:200px; border:14px solid green;"">","null","","","","","","","","",""
