"success","trial_type","trial_index","time_elapsed","internal_node_id","assignmentID","mturkID","hitID","view_history","rt","stimulus","key_press","reactionTime","a","r","s","cond","reward_cond","reward_cond_actual","reward_matrix_idx","responses"
"true","fullscreen","0","13903","0.0-0.0","38F5OAUN5OY072NRHMWCAZYFXTPH7Y","A2HSX08DWDYJU7","3HUR21WDDUBEMSLDIXZW1FAIHWSYXN","","","","","","","","","","","","",""
"","instructions","1","36912","0.0-1.0","38F5OAUN5OY072NRHMWCAZYFXTPH7Y","A2HSX08DWDYJU7","3HUR21WDDUBEMSLDIXZW1FAIHWSYXN","[{""page_index"":0,""viewing_time"":4712},{""page_index"":1,""viewing_time"":1833},{""page_index"":2,""viewing_time"":6188},{""page_index"":3,""viewing_time"":1133},{""page_index"":4,""viewing_time"":2360},{""page_index"":5,""viewing_time"":3073},{""page_index"":6,""viewing_time"":1762},{""page_index"":7,""viewing_time"":1946}]","23008","","","","","","","","","","",""
"","image-keyboard-response","2","38031","0.0-2.0","38F5OAUN5OY072NRHMWCAZYFXTPH7Y","A2HSX08DWDYJU7","3HUR21WDDUBEMSLDIXZW1FAIHWSYXN","","1116","img/flower6.png","74","1118","1","0","2","1","1,0.333,0.333,0.333,1,0.333,0.333,0.333,1","1,0.333,0.333,0.333,1,0.333,0.333,0.333,1","1",""
"","html-keyboard-response","3","38334","0.0-3.0","38F5OAUN5OY072NRHMWCAZYFXTPH7Y","A2HSX08DWDYJU7","3HUR21WDDUBEMSLDIXZW1FAIHWSYXN","","null","<img src=""img/flower6.png"" style=""width:200px;border:14px solid red;"">","null","","","","","","","","",""
"","image-keyboard-response","4","38630","0.0-4.0","38F5OAUN5OY072NRHMWCAZYFXTPH7Y","A2HSX08DWDYJU7","3HUR21WDDUBEMSLDIXZW1FAIHWSYXN","","294","img/flower6.png","74","296","1","0","2","1","1,0.333,0.333,0.333,1,0.333,0.333,0.333,1","1,0.333,0.333,0.333,1,0.333,0.333,0.333,1","1",""
"","html-keyboard-response","5","38933","0.0-5.0","38F5OAUN5OY072NRHMWCAZYFXTPH7Y","A2HSX08DWDYJU7","3HUR21WDDUBEMSLDIXZW1FAIHWSYXN","","null","<img src=""img/flower6.png"" style=""width:200px;border:14px solid red;"">","null","","","","","","","","",""
"","image-keyboard-response","6","39447","0.0-6.0","38F5OAUN5OY072NRHMWCAZYFXTPH7Y","A2HSX08DWDYJU7","3HUR21WDDUBEMSLDIXZW1FAIHWSYXN","","513","img/flower6.png","75","513","2","1","2","1","1,0.333,0.333,0.333,1,0.333,0.333,0.333,1","1,0.333,0.333,0.333,1,0.333,0.333,0.333,1","1",""
"","html-keyboard-response","7","39750","0.0-7.0","38F5OAUN5OY072NRHMWCAZYFXTPH7Y","A2HSX08DWDYJU7","3HUR21WDDUBEMSLDIXZW1FAIHWSYXN","","null","<img src=""img/flower6.png"" style=""width:200px; border:14px solid green;"">","null","","","","","","","","",""
"","image-keyboard-response","8","40151","0.0-8.0","38F5OAUN5OY072NRHMWCAZYFXTPH7Y","A2HSX08DWDYJU7","3HUR21WDDUBEMSLDIXZW1FAIHWSYXN","","400","img/flower6.png","75","401","2","1","2","1","1,0.333,0.333,0.333,1,0.333,0.333,0.333,1","1,0.333,0.333,0.333,1,0.333,0.333,0.333,1","1",""
"","html-keyboard-response","9","40452","0.0-9.0","38F5OAUN5OY072NRHMWCAZYFXTPH7Y","A2HSX08DWDYJU7","3HUR21WDDUBEMSLDIXZW1FAIHWSYXN","","null","<img src=""img/flower6.png"" style=""width:200px; border:14px solid green;"">","null","","","","","","","","",""
"","image-keyboard-response","10","40823","0.0-10.0","38F5OAUN5OY072NRHMWCAZYFXTPH7Y","A2HSX08DWDYJU7","3HUR21WDDUBEMSLDIXZW1FAIHWSYXN","","370","img/flower6.png","75","370","2","1","2","1","1,0.333,0.333,0.333,1,0.333,0.333,0.333,1","1,0.333,0.333,0.333,1,0.333,0.333,0.333,1","1",""
"","html-keyboard-response","11","41126","0.0-11.0","38F5OAUN5OY072NRHMWCAZYFXTPH7Y","A2HSX08DWDYJU7","3HUR21WDDUBEMSLDIXZW1FAIHWSYXN","","null","<img src=""img/flower6.png"" style=""width:200px; border:14px solid green;"">","null","","","","","","","","",""
"","image-keyboard-response","12","41750","0.0-12.0","38F5OAUN5OY072NRHMWCAZYFXTPH7Y","A2HSX08DWDYJU7","3HUR21WDDUBEMSLDIXZW1FAIHWSYXN","","624","img/flower4.png","76","625","3","1","3","1","1,0.333,0.333,0.333,1,0.333,0.333,0.333,1","1,0.333,0.333,0.333,1,0.333,0.333,0.333,1","1",""
"","html-keyboard-response","13","42052","0.0-13.0","38F5OAUN5OY072NRHMWCAZYFXTPH7Y","A2HSX08DWDYJU7","3HUR21WDDUBEMSLDIXZW1FAIHWSYXN","","null","<img src=""img/flower4.png"" style=""width:200px; border:14px solid green;"">","null","","","","","","","","",""
"","image-keyboard-response","14","42247","0.0-14.0","38F5OAUN5OY072NRHMWCAZYFXTPH7Y","A2HSX08DWDYJU7","3HUR21WDDUBEMSLDIXZW1FAIHWSYXN","","194","img/flower1.png","76","195","3","0","1","1","1,0.333,0.333,0.333,1,0.333,0.333,0.333,1","1,0.333,0.333,0.333,1,0.333,0.333,0.333,1","1",""
"","html-keyboard-response","15","42550","0.0-15.0","38F5OAUN5OY072NRHMWCAZYFXTPH7Y","A2HSX08DWDYJU7","3HUR21WDDUBEMSLDIXZW1FAIHWSYXN","","null","<img src=""img/flower1.png"" style=""width:200px;border:14px solid red;"">","null","","","","","","","","",""
"","image-keyboard-response","16","43150","0.0-16.0","38F5OAUN5OY072NRHMWCAZYFXTPH7Y","A2HSX08DWDYJU7","3HUR21WDDUBEMSLDIXZW1FAIHWSYXN","","599","img/flower4.png","75","600","2","0","3","1","1,0.333,0.333,0.333,1,0.333,0.333,0.333,1","1,0.333,0.333,0.333,1,0.333,0.333,0.333,1","1",""
"","html-keyboard-response","17","43455","0.0-17.0","38F5OAUN5OY072NRHMWCAZYFXTPH7Y","A2HSX08DWDYJU7","3HUR21WDDUBEMSLDIXZW1FAIHWSYXN","","null","<img src=""img/flower4.png"" style=""width:200px;border:14px solid red;"">","null","","","","","","","","",""
"","image-keyboard-response","18","43998","0.0-18.0","38F5OAUN5OY072NRHMWCAZYFXTPH7Y","A2HSX08DWDYJU7","3HUR21WDDUBEMSLDIXZW1FAIHWSYXN","","543","img/flower4.png","74","544","1","1","3","1","1,0.333,0.333,0.333,1,0.333,0.333,0.333,1","1,0.333,0.333,0.333,1,0.333,0.333,0.333,1","1",""
"","html-keyboard-response","19","44301","0.0-19.0","38F5OAUN5OY072NRHMWCAZYFXTPH7Y","A2HSX08DWDYJU7","3HUR21WDDUBEMSLDIXZW1FAIHWSYXN","","null","<img src=""img/flower4.png"" style=""width:200px; border:14px solid green;"">","null","","","","","","","","",""
"","image-keyboard-response","20","45118","0.0-20.0","38F5OAUN5OY072NRHMWCAZYFXTPH7Y","A2HSX08DWDYJU7","3HUR21WDDUBEMSLDIXZW1FAIHWSYXN","","816","img/flower6.png","76","818","3","0","2","1","1,0.333,0.333,0.333,1,0.333,0.333,0.333,1","1,0.333,0.333,0.333,1,0.333,0.333,0.333,1","1",""
"","html-keyboard-response","21","45424","0.0-21.0","38F5OAUN5OY072NRHMWCAZYFXTPH7Y","A2HSX08DWDYJU7","3HUR21WDDUBEMSLDIXZW1FAIHWSYXN","","null","<img src=""img/flower6.png"" style=""width:200px;border:14px solid red;"">","null","","","","","","","","",""
"","image-keyboard-response","22","46134","0.0-22.0","38F5OAUN5OY072NRHMWCAZYFXTPH7Y","A2HSX08DWDYJU7","3HUR21WDDUBEMSLDIXZW1FAIHWSYXN","","709","img/flower1.png","74","710","1","1","1","1","1,0.333,0.333,0.333,1,0.333,0.333,0.333,1","1,0.333,0.333,0.333,1,0.333,0.333,0.333,1","1",""
"","html-keyboard-response","23","46437","0.0-23.0","38F5OAUN5OY072NRHMWCAZYFXTPH7Y","A2HSX08DWDYJU7","3HUR21WDDUBEMSLDIXZW1FAIHWSYXN","","null","<img src=""img/flower1.png"" style=""width:200px; border:14px solid green;"">","null","","","","","","","","",""
"","image-keyboard-response","24","47294","0.0-24.0","38F5OAUN5OY072NRHMWCAZYFXTPH7Y","A2HSX08DWDYJU7","3HUR21WDDUBEMSLDIXZW1FAIHWSYXN","","856","img/flower1.png","74","857","1","1","1","1","1,0.333,0.333,0.333,1,0.333,0.333,0.333,1","1,0.333,0.333,0.333,1,0.333,0.333,0.333,1","1",""
"","html-keyboard-response","25","47596","0.0-25.0","38F5OAUN5OY072NRHMWCAZYFXTPH7Y","A2HSX08DWDYJU7","3HUR21WDDUBEMSLDIXZW1FAIHWSYXN","","null","<img src=""img/flower1.png"" style=""width:200px; border:14px solid green;"">","null","","","","","","","","",""
"","image-keyboard-response","26","48406","0.0-26.0","38F5OAUN5OY072NRHMWCAZYFXTPH7Y","A2HSX08DWDYJU7","3HUR21WDDUBEMSLDIXZW1FAIHWSYXN","","808","img/flower4.png","76","810","3","1","3","1","1,0.333,0.333,0.333,1,0.333,0.333,0.333,1","1,0.333,0.333,0.333,1,0.333,0.333,0.333,1","1",""
"","html-keyboard-response","27","48710","0.0-27.0","38F5OAUN5OY072NRHMWCAZYFXTPH7Y","A2HSX08DWDYJU7","3HUR21WDDUBEMSLDIXZW1FAIHWSYXN","","null","<img src=""img/flower4.png"" style=""width:200px; border:14px solid green;"">","null","","","","","","","","",""
"","image-keyboard-response","28","49382","0.0-28.0","38F5OAUN5OY072NRHMWCAZYFXTPH7Y","A2HSX08DWDYJU7","3HUR21WDDUBEMSLDIXZW1FAIHWSYXN","","671","img/flower6.png","75","673","2","1","2","1","1,0.333,0.333,0.333,1,0.333,0.333,0.333,1","1,0.333,0.333,0.333,1,0.333,0.333,0.333,1","1",""
"","html-keyboard-response","29","49683","0.0-29.0","38F5OAUN5OY072NRHMWCAZYFXTPH7Y","A2HSX08DWDYJU7","3HUR21WDDUBEMSLDIXZW1FAIHWSYXN","","null","<img src=""img/flower6.png"" style=""width:200px; border:14px solid green;"">","null","","","","","","","","",""
"","image-keyboard-response","30","50766","0.0-30.0","38F5OAUN5OY072NRHMWCAZYFXTPH7Y","A2HSX08DWDYJU7","3HUR21WDDUBEMSLDIXZW1FAIHWSYXN","","1082","img/flower4.png","76","1083","3","1","3","1","1,0.333,0.333,0.333,1,0.333,0.333,0.333,1","1,0.333,0.333,0.333,1,0.333,0.333,0.333,1","1",""
"","html-keyboard-response","31","51067","0.0-31.0","38F5OAUN5OY072NRHMWCAZYFXTPH7Y","A2HSX08DWDYJU7","3HUR21WDDUBEMSLDIXZW1FAIHWSYXN","","null","<img src=""img/flower4.png"" style=""width:200px; border:14px solid green;"">","null","","","","","","","","",""
"","image-keyboard-response","32","51798","0.0-32.0","38F5OAUN5OY072NRHMWCAZYFXTPH7Y","A2HSX08DWDYJU7","3HUR21WDDUBEMSLDIXZW1FAIHWSYXN","","729","img/flower1.png","74","729","1","1","1","1","1,0.333,0.333,0.333,1,0.333,0.333,0.333,1","1,0.333,0.333,0.333,1,0.333,0.333,0.333,1","1",""
"","html-keyboard-response","33","52100","0.0-33.0","38F5OAUN5OY072NRHMWCAZYFXTPH7Y","A2HSX08DWDYJU7","3HUR21WDDUBEMSLDIXZW1FAIHWSYXN","","null","<img src=""img/flower1.png"" style=""width:200px; border:14px solid green;"">","null","","","","","","","","",""
"","image-keyboard-response","34","52662","0.0-34.0","38F5OAUN5OY072NRHMWCAZYFXTPH7Y","A2HSX08DWDYJU7","3HUR21WDDUBEMSLDIXZW1FAIHWSYXN","","560","img/flower1.png","74","562","1","1","1","1","1,0.333,0.333,0.333,1,0.333,0.333,0.333,1","1,0.333,0.333,0.333,1,0.333,0.333,0.333,1","1",""
"","html-keyboard-response","35","52964","0.0-35.0","38F5OAUN5OY072NRHMWCAZYFXTPH7Y","A2HSX08DWDYJU7","3HUR21WDDUBEMSLDIXZW1FAIHWSYXN","","null","<img src=""img/flower1.png"" style=""width:200px; border:14px solid green;"">","null","","","","","","","","",""
"","image-keyboard-response","36","53510","0.0-36.0","38F5OAUN5OY072NRHMWCAZYFXTPH7Y","A2HSX08DWDYJU7","3HUR21WDDUBEMSLDIXZW1FAIHWSYXN","","546","img/flower6.png","75","546","2","1","2","1","1,0.333,0.333,0.333,1,0.333,0.333,0.333,1","1,0.333,0.333,0.333,1,0.333,0.333,0.333,1","1",""
"","html-keyboard-response","37","53813","0.0-37.0","38F5OAUN5OY072NRHMWCAZYFXTPH7Y","A2HSX08DWDYJU7","3HUR21WDDUBEMSLDIXZW1FAIHWSYXN","","null","<img src=""img/flower6.png"" style=""width:200px; border:14px solid green;"">","null","","","","","","","","",""
"","image-keyboard-response","38","54199","0.0-38.0","38F5OAUN5OY072NRHMWCAZYFXTPH7Y","A2HSX08DWDYJU7","3HUR21WDDUBEMSLDIXZW1FAIHWSYXN","","383","img/flower1.png","76","384","3","1","1","1","1,0.333,0.333,0.333,1,0.333,0.333,0.333,1","1,0.333,0.333,0.333,1,0.333,0.333,0.333,1","1",""
"","html-keyboard-response","39","54501","0.0-39.0","38F5OAUN5OY072NRHMWCAZYFXTPH7Y","A2HSX08DWDYJU7","3HUR21WDDUBEMSLDIXZW1FAIHWSYXN","","null","<img src=""img/flower1.png"" style=""width:200px; border:14px solid green;"">","null","","","","","","","","",""
"","image-keyboard-response","40","54950","0.0-40.0","38F5OAUN5OY072NRHMWCAZYFXTPH7Y","A2HSX08DWDYJU7","3HUR21WDDUBEMSLDIXZW1FAIHWSYXN","","449","img/flower1.png","76","449","3","0","1","1","1,0.333,0.333,0.333,1,0.333,0.333,0.333,1","1,0.333,0.333,0.333,1,0.333,0.333,0.333,1","1",""
"","html-keyboard-response","41","55252","0.0-41.0","38F5OAUN5OY072NRHMWCAZYFXTPH7Y","A2HSX08DWDYJU7","3HUR21WDDUBEMSLDIXZW1FAIHWSYXN","","null","<img src=""img/flower1.png"" style=""width:200px;border:14px solid red;"">","null","","","","","","","","",""
"","image-keyboard-response","42","56006","0.0-42.0","38F5OAUN5OY072NRHMWCAZYFXTPH7Y","A2HSX08DWDYJU7","3HUR21WDDUBEMSLDIXZW1FAIHWSYXN","","754","img/flower4.png","76","754","3","1","3","1","1,0.333,0.333,0.333,1,0.333,0.333,0.333,1","1,0.333,0.333,0.333,1,0.333,0.333,0.333,1","1",""
"","html-keyboard-response","43","56311","0.0-43.0","38F5OAUN5OY072NRHMWCAZYFXTPH7Y","A2HSX08DWDYJU7","3HUR21WDDUBEMSLDIXZW1FAIHWSYXN","","null","<img src=""img/flower4.png"" style=""width:200px; border:14px solid green;"">","null","","","","","","","","",""
"","image-keyboard-response","44","56790","0.0-44.0","38F5OAUN5OY072NRHMWCAZYFXTPH7Y","A2HSX08DWDYJU7","3HUR21WDDUBEMSLDIXZW1FAIHWSYXN","","479","img/flower4.png","76","479","3","1","3","1","1,0.333,0.333,0.333,1,0.333,0.333,0.333,1","1,0.333,0.333,0.333,1,0.333,0.333,0.333,1","1",""
"","html-keyboard-response","45","57092","0.0-45.0","38F5OAUN5OY072NRHMWCAZYFXTPH7Y","A2HSX08DWDYJU7","3HUR21WDDUBEMSLDIXZW1FAIHWSYXN","","null","<img src=""img/flower4.png"" style=""width:200px; border:14px solid green;"">","null","","","","","","","","",""
"","image-keyboard-response","46","57782","0.0-46.0","38F5OAUN5OY072NRHMWCAZYFXTPH7Y","A2HSX08DWDYJU7","3HUR21WDDUBEMSLDIXZW1FAIHWSYXN","","689","img/flower6.png","75","690","2","1","2","1","1,0.333,0.333,0.333,1,0.333,0.333,0.333,1","1,0.333,0.333,0.333,1,0.333,0.333,0.333,1","1",""
"","html-keyboard-response","47","58085","0.0-47.0","38F5OAUN5OY072NRHMWCAZYFXTPH7Y","A2HSX08DWDYJU7","3HUR21WDDUBEMSLDIXZW1FAIHWSYXN","","null","<img src=""img/flower6.png"" style=""width:200px; border:14px solid green;"">","null","","","","","","","","",""
"","image-keyboard-response","48","58671","0.0-48.0","38F5OAUN5OY072NRHMWCAZYFXTPH7Y","A2HSX08DWDYJU7","3HUR21WDDUBEMSLDIXZW1FAIHWSYXN","","582","img/flower6.png","75","583","2","1","2","1","1,0.333,0.333,0.333,1,0.333,0.333,0.333,1","1,0.333,0.333,0.333,1,0.333,0.333,0.333,1","1",""
"","html-keyboard-response","49","58972","0.0-49.0","38F5OAUN5OY072NRHMWCAZYFXTPH7Y","A2HSX08DWDYJU7","3HUR21WDDUBEMSLDIXZW1FAIHWSYXN","","null","<img src=""img/flower6.png"" style=""width:200px; border:14px solid green;"">","null","","","","","","","","",""
"","image-keyboard-response","50","59542","0.0-50.0","38F5OAUN5OY072NRHMWCAZYFXTPH7Y","A2HSX08DWDYJU7","3HUR21WDDUBEMSLDIXZW1FAIHWSYXN","","569","img/flower1.png","74","569","1","1","1","1","1,0.333,0.333,0.333,1,0.333,0.333,0.333,1","1,0.333,0.333,0.333,1,0.333,0.333,0.333,1","1",""
"","html-keyboard-response","51","59846","0.0-51.0","38F5OAUN5OY072NRHMWCAZYFXTPH7Y","A2HSX08DWDYJU7","3HUR21WDDUBEMSLDIXZW1FAIHWSYXN","","null","<img src=""img/flower1.png"" style=""width:200px; border:14px solid green;"">","null","","","","","","","","",""
"","image-keyboard-response","52","60295","0.0-52.0","38F5OAUN5OY072NRHMWCAZYFXTPH7Y","A2HSX08DWDYJU7","3HUR21WDDUBEMSLDIXZW1FAIHWSYXN","","447","img/flower1.png","74","448","1","1","1","1","1,0.333,0.333,0.333,1,0.333,0.333,0.333,1","1,0.333,0.333,0.333,1,0.333,0.333,0.333,1","1",""
"","html-keyboard-response","53","60598","0.0-53.0","38F5OAUN5OY072NRHMWCAZYFXTPH7Y","A2HSX08DWDYJU7","3HUR21WDDUBEMSLDIXZW1FAIHWSYXN","","null","<img src=""img/flower1.png"" style=""width:200px; border:14px solid green;"">","null","","","","","","","","",""
"","image-keyboard-response","54","61246","0.0-54.0","38F5OAUN5OY072NRHMWCAZYFXTPH7Y","A2HSX08DWDYJU7","3HUR21WDDUBEMSLDIXZW1FAIHWSYXN","","647","img/flower4.png","76","648","3","1","3","1","1,0.333,0.333,0.333,1,0.333,0.333,0.333,1","1,0.333,0.333,0.333,1,0.333,0.333,0.333,1","1",""
"","html-keyboard-response","55","61548","0.0-55.0","38F5OAUN5OY072NRHMWCAZYFXTPH7Y","A2HSX08DWDYJU7","3HUR21WDDUBEMSLDIXZW1FAIHWSYXN","","null","<img src=""img/flower4.png"" style=""width:200px; border:14px solid green;"">","null","","","","","","","","",""
"","image-keyboard-response","56","62006","0.0-56.0","38F5OAUN5OY072NRHMWCAZYFXTPH7Y","A2HSX08DWDYJU7","3HUR21WDDUBEMSLDIXZW1FAIHWSYXN","","458","img/flower4.png","76","458","3","1","3","1","1,0.333,0.333,0.333,1,0.333,0.333,0.333,1","1,0.333,0.333,0.333,1,0.333,0.333,0.333,1","1",""
"","html-keyboard-response","57","62310","0.0-57.0","38F5OAUN5OY072NRHMWCAZYFXTPH7Y","A2HSX08DWDYJU7","3HUR21WDDUBEMSLDIXZW1FAIHWSYXN","","null","<img src=""img/flower4.png"" style=""width:200px; border:14px solid green;"">","null","","","","","","","","",""
"","image-keyboard-response","58","62830","0.0-58.0","38F5OAUN5OY072NRHMWCAZYFXTPH7Y","A2HSX08DWDYJU7","3HUR21WDDUBEMSLDIXZW1FAIHWSYXN","","518","img/flower6.png","75","518","2","1","2","1","1,0.333,0.333,0.333,1,0.333,0.333,0.333,1","1,0.333,0.333,0.333,1,0.333,0.333,0.333,1","1",""
"","html-keyboard-response","59","63130","0.0-59.0","38F5OAUN5OY072NRHMWCAZYFXTPH7Y","A2HSX08DWDYJU7","3HUR21WDDUBEMSLDIXZW1FAIHWSYXN","","null","<img src=""img/flower6.png"" style=""width:200px; border:14px solid green;"">","null","","","","","","","","",""
"","image-keyboard-response","60","63862","0.0-60.0","38F5OAUN5OY072NRHMWCAZYFXTPH7Y","A2HSX08DWDYJU7","3HUR21WDDUBEMSLDIXZW1FAIHWSYXN","","730","img/flower4.png","76","731","3","1","3","1","1,0.333,0.333,0.333,1,0.333,0.333,0.333,1","1,0.333,0.333,0.333,1,0.333,0.333,0.333,1","1",""
"","html-keyboard-response","61","64168","0.0-61.0","38F5OAUN5OY072NRHMWCAZYFXTPH7Y","A2HSX08DWDYJU7","3HUR21WDDUBEMSLDIXZW1FAIHWSYXN","","null","<img src=""img/flower4.png"" style=""width:200px; border:14px solid green;"">","null","","","","","","","","",""
"","image-keyboard-response","62","64582","0.0-62.0","38F5OAUN5OY072NRHMWCAZYFXTPH7Y","A2HSX08DWDYJU7","3HUR21WDDUBEMSLDIXZW1FAIHWSYXN","","413","img/flower4.png","76","414","3","1","3","1","1,0.333,0.333,0.333,1,0.333,0.333,0.333,1","1,0.333,0.333,0.333,1,0.333,0.333,0.333,1","1",""
"","html-keyboard-response","63","64884","0.0-63.0","38F5OAUN5OY072NRHMWCAZYFXTPH7Y","A2HSX08DWDYJU7","3HUR21WDDUBEMSLDIXZW1FAIHWSYXN","","null","<img src=""img/flower4.png"" style=""width:200px; border:14px solid green;"">","null","","","","","","","","",""
"","image-keyboard-response","64","65254","0.0-64.0","38F5OAUN5OY072NRHMWCAZYFXTPH7Y","A2HSX08DWDYJU7","3HUR21WDDUBEMSLDIXZW1FAIHWSYXN","","367","img/flower4.png","76","369","3","1","3","1","1,0.333,0.333,0.333,1,0.333,0.333,0.333,1","1,0.333,0.333,0.333,1,0.333,0.333,0.333,1","1",""
"","html-keyboard-response","65","65556","0.0-65.0","38F5OAUN5OY072NRHMWCAZYFXTPH7Y","A2HSX08DWDYJU7","3HUR21WDDUBEMSLDIXZW1FAIHWSYXN","","null","<img src=""img/flower4.png"" style=""width:200px; border:14px solid green;"">","null","","","","","","","","",""
"","image-keyboard-response","66","66350","0.0-66.0","38F5OAUN5OY072NRHMWCAZYFXTPH7Y","A2HSX08DWDYJU7","3HUR21WDDUBEMSLDIXZW1FAIHWSYXN","","793","img/flower1.png","74","794","1","1","1","1","1,0.333,0.333,0.333,1,0.333,0.333,0.333,1","1,0.333,0.333,0.333,1,0.333,0.333,0.333,1","1",""
"","html-keyboard-response","67","66652","0.0-67.0","38F5OAUN5OY072NRHMWCAZYFXTPH7Y","A2HSX08DWDYJU7","3HUR21WDDUBEMSLDIXZW1FAIHWSYXN","","null","<img src=""img/flower1.png"" style=""width:200px; border:14px solid green;"">","null","","","","","","","","",""
"","image-keyboard-response","68","67262","0.0-68.0","38F5OAUN5OY072NRHMWCAZYFXTPH7Y","A2HSX08DWDYJU7","3HUR21WDDUBEMSLDIXZW1FAIHWSYXN","","610","img/flower6.png","75","611","2","1","2","1","1,0.333,0.333,0.333,1,0.333,0.333,0.333,1","1,0.333,0.333,0.333,1,0.333,0.333,0.333,1","1",""
"","html-keyboard-response","69","67564","0.0-69.0","38F5OAUN5OY072NRHMWCAZYFXTPH7Y","A2HSX08DWDYJU7","3HUR21WDDUBEMSLDIXZW1FAIHWSYXN","","null","<img src=""img/flower6.png"" style=""width:200px; border:14px solid green;"">","null","","","","","","","","",""
"","image-keyboard-response","70","68038","0.0-70.0","38F5OAUN5OY072NRHMWCAZYFXTPH7Y","A2HSX08DWDYJU7","3HUR21WDDUBEMSLDIXZW1FAIHWSYXN","","473","img/flower6.png","75","474","2","1","2","1","1,0.333,0.333,0.333,1,0.333,0.333,0.333,1","1,0.333,0.333,0.333,1,0.333,0.333,0.333,1","1",""
"","html-keyboard-response","71","68340","0.0-71.0","38F5OAUN5OY072NRHMWCAZYFXTPH7Y","A2HSX08DWDYJU7","3HUR21WDDUBEMSLDIXZW1FAIHWSYXN","","null","<img src=""img/flower6.png"" style=""width:200px; border:14px solid green;"">","null","","","","","","","","",""
"","image-keyboard-response","72","68806","0.0-72.0","38F5OAUN5OY072NRHMWCAZYFXTPH7Y","A2HSX08DWDYJU7","3HUR21WDDUBEMSLDIXZW1FAIHWSYXN","","465","img/flower6.png","75","466","2","1","2","1","1,0.333,0.333,0.333,1,0.333,0.333,0.333,1","1,0.333,0.333,0.333,1,0.333,0.333,0.333,1","1",""
"","html-keyboard-response","73","69110","0.0-73.0","38F5OAUN5OY072NRHMWCAZYFXTPH7Y","A2HSX08DWDYJU7","3HUR21WDDUBEMSLDIXZW1FAIHWSYXN","","null","<img src=""img/flower6.png"" style=""width:200px; border:14px solid green;"">","null","","","","","","","","",""
"","image-keyboard-response","74","69582","0.0-74.0","38F5OAUN5OY072NRHMWCAZYFXTPH7Y","A2HSX08DWDYJU7","3HUR21WDDUBEMSLDIXZW1FAIHWSYXN","","470","img/flower4.png","74","471","1","1","3","1","1,0.333,0.333,0.333,1,0.333,0.333,0.333,1","1,0.333,0.333,0.333,1,0.333,0.333,0.333,1","1",""
"","html-keyboard-response","75","69885","0.0-75.0","38F5OAUN5OY072NRHMWCAZYFXTPH7Y","A2HSX08DWDYJU7","3HUR21WDDUBEMSLDIXZW1FAIHWSYXN","","null","<img src=""img/flower4.png"" style=""width:200px; border:14px solid green;"">","null","","","","","","","","",""
"","image-keyboard-response","76","70573","0.0-76.0","38F5OAUN5OY072NRHMWCAZYFXTPH7Y","A2HSX08DWDYJU7","3HUR21WDDUBEMSLDIXZW1FAIHWSYXN","","688","img/flower6.png","75","688","2","1","2","1","1,0.333,0.333,0.333,1,0.333,0.333,0.333,1","1,0.333,0.333,0.333,1,0.333,0.333,0.333,1","1",""
"","html-keyboard-response","77","70875","0.0-77.0","38F5OAUN5OY072NRHMWCAZYFXTPH7Y","A2HSX08DWDYJU7","3HUR21WDDUBEMSLDIXZW1FAIHWSYXN","","null","<img src=""img/flower6.png"" style=""width:200px; border:14px solid green;"">","null","","","","","","","","",""
"","image-keyboard-response","78","71437","0.0-78.0","38F5OAUN5OY072NRHMWCAZYFXTPH7Y","A2HSX08DWDYJU7","3HUR21WDDUBEMSLDIXZW1FAIHWSYXN","","561","img/flower6.png","75","563","2","1","2","1","1,0.333,0.333,0.333,1,0.333,0.333,0.333,1","1,0.333,0.333,0.333,1,0.333,0.333,0.333,1","1",""
"","html-keyboard-response","79","71740","0.0-79.0","38F5OAUN5OY072NRHMWCAZYFXTPH7Y","A2HSX08DWDYJU7","3HUR21WDDUBEMSLDIXZW1FAIHWSYXN","","null","<img src=""img/flower6.png"" style=""width:200px; border:14px solid green;"">","null","","","","","","","","",""
"","image-keyboard-response","80","72550","0.0-80.0","38F5OAUN5OY072NRHMWCAZYFXTPH7Y","A2HSX08DWDYJU7","3HUR21WDDUBEMSLDIXZW1FAIHWSYXN","","808","img/flower1.png","74","810","1","1","1","1","1,0.333,0.333,0.333,1,0.333,0.333,0.333,1","1,0.333,0.333,0.333,1,0.333,0.333,0.333,1","1",""
"","html-keyboard-response","81","72855","0.0-81.0","38F5OAUN5OY072NRHMWCAZYFXTPH7Y","A2HSX08DWDYJU7","3HUR21WDDUBEMSLDIXZW1FAIHWSYXN","","null","<img src=""img/flower1.png"" style=""width:200px; border:14px solid green;"">","null","","","","","","","","",""
"","image-keyboard-response","82","73253","0.0-82.0","38F5OAUN5OY072NRHMWCAZYFXTPH7Y","A2HSX08DWDYJU7","3HUR21WDDUBEMSLDIXZW1FAIHWSYXN","","398","img/flower1.png","74","399","1","1","1","1","1,0.333,0.333,0.333,1,0.333,0.333,0.333,1","1,0.333,0.333,0.333,1,0.333,0.333,0.333,1","1",""
"","html-keyboard-response","83","73554","0.0-83.0","38F5OAUN5OY072NRHMWCAZYFXTPH7Y","A2HSX08DWDYJU7","3HUR21WDDUBEMSLDIXZW1FAIHWSYXN","","null","<img src=""img/flower1.png"" style=""width:200px; border:14px solid green;"">","null","","","","","","","","",""
"","image-keyboard-response","84","74165","0.0-84.0","38F5OAUN5OY072NRHMWCAZYFXTPH7Y","A2HSX08DWDYJU7","3HUR21WDDUBEMSLDIXZW1FAIHWSYXN","","610","img/flower6.png","75","611","2","1","2","1","1,0.333,0.333,0.333,1,0.333,0.333,0.333,1","1,0.333,0.333,0.333,1,0.333,0.333,0.333,1","1",""
"","html-keyboard-response","85","74471","0.0-85.0","38F5OAUN5OY072NRHMWCAZYFXTPH7Y","A2HSX08DWDYJU7","3HUR21WDDUBEMSLDIXZW1FAIHWSYXN","","null","<img src=""img/flower6.png"" style=""width:200px; border:14px solid green;"">","null","","","","","","","","",""
"","image-keyboard-response","86","75070","0.0-86.0","38F5OAUN5OY072NRHMWCAZYFXTPH7Y","A2HSX08DWDYJU7","3HUR21WDDUBEMSLDIXZW1FAIHWSYXN","","597","img/flower4.png","76","598","3","1","3","1","1,0.333,0.333,0.333,1,0.333,0.333,0.333,1","1,0.333,0.333,0.333,1,0.333,0.333,0.333,1","1",""
"","html-keyboard-response","87","75371","0.0-87.0","38F5OAUN5OY072NRHMWCAZYFXTPH7Y","A2HSX08DWDYJU7","3HUR21WDDUBEMSLDIXZW1FAIHWSYXN","","null","<img src=""img/flower4.png"" style=""width:200px; border:14px solid green;"">","null","","","","","","","","",""
"","image-keyboard-response","88","75990","0.0-88.0","38F5OAUN5OY072NRHMWCAZYFXTPH7Y","A2HSX08DWDYJU7","3HUR21WDDUBEMSLDIXZW1FAIHWSYXN","","616","img/flower1.png","74","618","1","1","1","1","1,0.333,0.333,0.333,1,0.333,0.333,0.333,1","1,0.333,0.333,0.333,1,0.333,0.333,0.333,1","1",""
"","html-keyboard-response","89","76292","0.0-89.0","38F5OAUN5OY072NRHMWCAZYFXTPH7Y","A2HSX08DWDYJU7","3HUR21WDDUBEMSLDIXZW1FAIHWSYXN","","null","<img src=""img/flower1.png"" style=""width:200px; border:14px solid green;"">","null","","","","","","","","",""
"","image-keyboard-response","90","76917","0.0-90.0","38F5OAUN5OY072NRHMWCAZYFXTPH7Y","A2HSX08DWDYJU7","3HUR21WDDUBEMSLDIXZW1FAIHWSYXN","","625","img/flower4.png","76","625","3","1","3","1","1,0.333,0.333,0.333,1,0.333,0.333,0.333,1","1,0.333,0.333,0.333,1,0.333,0.333,0.333,1","1",""
"","html-keyboard-response","91","77223","0.0-91.0","38F5OAUN5OY072NRHMWCAZYFXTPH7Y","A2HSX08DWDYJU7","3HUR21WDDUBEMSLDIXZW1FAIHWSYXN","","null","<img src=""img/flower4.png"" style=""width:200px; border:14px solid green;"">","null","","","","","","","","",""
"","image-keyboard-response","92","77837","0.0-92.0","38F5OAUN5OY072NRHMWCAZYFXTPH7Y","A2HSX08DWDYJU7","3HUR21WDDUBEMSLDIXZW1FAIHWSYXN","","615","img/flower6.png","75","615","2","1","2","1","1,0.333,0.333,0.333,1,0.333,0.333,0.333,1","1,0.333,0.333,0.333,1,0.333,0.333,0.333,1","1",""
"","html-keyboard-response","93","78140","0.0-93.0","38F5OAUN5OY072NRHMWCAZYFXTPH7Y","A2HSX08DWDYJU7","3HUR21WDDUBEMSLDIXZW1FAIHWSYXN","","null","<img src=""img/flower6.png"" style=""width:200px; border:14px solid green;"">","null","","","","","","","","",""
"","image-keyboard-response","94","78749","0.0-94.0","38F5OAUN5OY072NRHMWCAZYFXTPH7Y","A2HSX08DWDYJU7","3HUR21WDDUBEMSLDIXZW1FAIHWSYXN","","609","img/flower6.png","76","609","3","0","2","1","1,0.333,0.333,0.333,1,0.333,0.333,0.333,1","1,0.333,0.333,0.333,1,0.333,0.333,0.333,1","1",""
"","html-keyboard-response","95","79051","0.0-95.0","38F5OAUN5OY072NRHMWCAZYFXTPH7Y","A2HSX08DWDYJU7","3HUR21WDDUBEMSLDIXZW1FAIHWSYXN","","null","<img src=""img/flower6.png"" style=""width:200px;border:14px solid red;"">","null","","","","","","","","",""
"","image-keyboard-response","96","79149","0.0-96.0","38F5OAUN5OY072NRHMWCAZYFXTPH7Y","A2HSX08DWDYJU7","3HUR21WDDUBEMSLDIXZW1FAIHWSYXN","","97","img/flower6.png","75","99","2","1","2","1","1,0.333,0.333,0.333,1,0.333,0.333,0.333,1","1,0.333,0.333,0.333,1,0.333,0.333,0.333,1","1",""
"","html-keyboard-response","97","79455","0.0-97.0","38F5OAUN5OY072NRHMWCAZYFXTPH7Y","A2HSX08DWDYJU7","3HUR21WDDUBEMSLDIXZW1FAIHWSYXN","","null","<img src=""img/flower6.png"" style=""width:200px; border:14px solid green;"">","null","","","","","","","","",""
"","image-keyboard-response","98","80013","0.0-98.0","38F5OAUN5OY072NRHMWCAZYFXTPH7Y","A2HSX08DWDYJU7","3HUR21WDDUBEMSLDIXZW1FAIHWSYXN","","558","img/flower1.png","74","558","1","1","1","1","1,0.333,0.333,0.333,1,0.333,0.333,0.333,1","1,0.333,0.333,0.333,1,0.333,0.333,0.333,1","1",""
"","html-keyboard-response","99","80315","0.0-99.0","38F5OAUN5OY072NRHMWCAZYFXTPH7Y","A2HSX08DWDYJU7","3HUR21WDDUBEMSLDIXZW1FAIHWSYXN","","null","<img src=""img/flower1.png"" style=""width:200px; border:14px solid green;"">","null","","","","","","","","",""
"","image-keyboard-response","100","80957","0.0-100.0","38F5OAUN5OY072NRHMWCAZYFXTPH7Y","A2HSX08DWDYJU7","3HUR21WDDUBEMSLDIXZW1FAIHWSYXN","","641","img/flower4.png","76","643","3","1","3","1","1,0.333,0.333,0.333,1,0.333,0.333,0.333,1","1,0.333,0.333,0.333,1,0.333,0.333,0.333,1","1",""
"","html-keyboard-response","101","81258","0.0-101.0","38F5OAUN5OY072NRHMWCAZYFXTPH7Y","A2HSX08DWDYJU7","3HUR21WDDUBEMSLDIXZW1FAIHWSYXN","","null","<img src=""img/flower4.png"" style=""width:200px; border:14px solid green;"">","null","","","","","","","","",""
"","image-keyboard-response","102","81949","0.0-102.0","38F5OAUN5OY072NRHMWCAZYFXTPH7Y","A2HSX08DWDYJU7","3HUR21WDDUBEMSLDIXZW1FAIHWSYXN","","690","img/flower6.png","75","691","2","1","2","1","1,0.333,0.333,0.333,1,0.333,0.333,0.333,1","1,0.333,0.333,0.333,1,0.333,0.333,0.333,1","1",""
"","html-keyboard-response","103","82252","0.0-103.0","38F5OAUN5OY072NRHMWCAZYFXTPH7Y","A2HSX08DWDYJU7","3HUR21WDDUBEMSLDIXZW1FAIHWSYXN","","null","<img src=""img/flower6.png"" style=""width:200px; border:14px solid green;"">","null","","","","","","","","",""
"","image-keyboard-response","104","82782","0.0-104.0","38F5OAUN5OY072NRHMWCAZYFXTPH7Y","A2HSX08DWDYJU7","3HUR21WDDUBEMSLDIXZW1FAIHWSYXN","","529","img/flower1.png","74","530","1","1","1","1","1,0.333,0.333,0.333,1,0.333,0.333,0.333,1","1,0.333,0.333,0.333,1,0.333,0.333,0.333,1","1",""
"","html-keyboard-response","105","83083","0.0-105.0","38F5OAUN5OY072NRHMWCAZYFXTPH7Y","A2HSX08DWDYJU7","3HUR21WDDUBEMSLDIXZW1FAIHWSYXN","","null","<img src=""img/flower1.png"" style=""width:200px; border:14px solid green;"">","null","","","","","","","","",""
"","image-keyboard-response","106","83581","0.0-106.0","38F5OAUN5OY072NRHMWCAZYFXTPH7Y","A2HSX08DWDYJU7","3HUR21WDDUBEMSLDIXZW1FAIHWSYXN","","497","img/flower1.png","74","497","1","1","1","1","1,0.333,0.333,0.333,1,0.333,0.333,0.333,1","1,0.333,0.333,0.333,1,0.333,0.333,0.333,1","1",""
"","html-keyboard-response","107","83885","0.0-107.0","38F5OAUN5OY072NRHMWCAZYFXTPH7Y","A2HSX08DWDYJU7","3HUR21WDDUBEMSLDIXZW1FAIHWSYXN","","null","<img src=""img/flower1.png"" style=""width:200px; border:14px solid green;"">","null","","","","","","","","",""
"","image-keyboard-response","108","84365","0.0-108.0","38F5OAUN5OY072NRHMWCAZYFXTPH7Y","A2HSX08DWDYJU7","3HUR21WDDUBEMSLDIXZW1FAIHWSYXN","","478","img/flower1.png","74","479","1","1","1","1","1,0.333,0.333,0.333,1,0.333,0.333,0.333,1","1,0.333,0.333,0.333,1,0.333,0.333,0.333,1","1",""
"","html-keyboard-response","109","84670","0.0-109.0","38F5OAUN5OY072NRHMWCAZYFXTPH7Y","A2HSX08DWDYJU7","3HUR21WDDUBEMSLDIXZW1FAIHWSYXN","","null","<img src=""img/flower1.png"" style=""width:200px; border:14px solid green;"">","null","","","","","","","","",""
"","image-keyboard-response","110","85286","0.0-110.0","38F5OAUN5OY072NRHMWCAZYFXTPH7Y","A2HSX08DWDYJU7","3HUR21WDDUBEMSLDIXZW1FAIHWSYXN","","614","img/flower4.png","76","615","3","1","3","1","1,0.333,0.333,0.333,1,0.333,0.333,0.333,1","1,0.333,0.333,0.333,1,0.333,0.333,0.333,1","1",""
"","html-keyboard-response","111","85587","0.0-111.0","38F5OAUN5OY072NRHMWCAZYFXTPH7Y","A2HSX08DWDYJU7","3HUR21WDDUBEMSLDIXZW1FAIHWSYXN","","null","<img src=""img/flower4.png"" style=""width:200px; border:14px solid green;"">","null","","","","","","","","",""
"","image-keyboard-response","112","86422","0.0-112.0","38F5OAUN5OY072NRHMWCAZYFXTPH7Y","A2HSX08DWDYJU7","3HUR21WDDUBEMSLDIXZW1FAIHWSYXN","","833","img/flower1.png","74","833","1","1","1","1","1,0.333,0.333,0.333,1,0.333,0.333,0.333,1","1,0.333,0.333,0.333,1,0.333,0.333,0.333,1","1",""
"","html-keyboard-response","113","86725","0.0-113.0","38F5OAUN5OY072NRHMWCAZYFXTPH7Y","A2HSX08DWDYJU7","3HUR21WDDUBEMSLDIXZW1FAIHWSYXN","","null","<img src=""img/flower1.png"" style=""width:200px; border:14px solid green;"">","null","","","","","","","","",""
"","image-keyboard-response","114","87109","0.0-114.0","38F5OAUN5OY072NRHMWCAZYFXTPH7Y","A2HSX08DWDYJU7","3HUR21WDDUBEMSLDIXZW1FAIHWSYXN","","382","img/flower1.png","74","383","1","1","1","1","1,0.333,0.333,0.333,1,0.333,0.333,0.333,1","1,0.333,0.333,0.333,1,0.333,0.333,0.333,1","1",""
"","html-keyboard-response","115","87411","0.0-115.0","38F5OAUN5OY072NRHMWCAZYFXTPH7Y","A2HSX08DWDYJU7","3HUR21WDDUBEMSLDIXZW1FAIHWSYXN","","null","<img src=""img/flower1.png"" style=""width:200px; border:14px solid green;"">","null","","","","","","","","",""
"","image-keyboard-response","116","88149","0.0-116.0","38F5OAUN5OY072NRHMWCAZYFXTPH7Y","A2HSX08DWDYJU7","3HUR21WDDUBEMSLDIXZW1FAIHWSYXN","","738","img/flower4.png","76","738","3","1","3","1","1,0.333,0.333,0.333,1,0.333,0.333,0.333,1","1,0.333,0.333,0.333,1,0.333,0.333,0.333,1","1",""
"","html-keyboard-response","117","88452","0.0-117.0","38F5OAUN5OY072NRHMWCAZYFXTPH7Y","A2HSX08DWDYJU7","3HUR21WDDUBEMSLDIXZW1FAIHWSYXN","","null","<img src=""img/flower4.png"" style=""width:200px; border:14px solid green;"">","null","","","","","","","","",""
"","image-keyboard-response","118","89061","0.0-118.0","38F5OAUN5OY072NRHMWCAZYFXTPH7Y","A2HSX08DWDYJU7","3HUR21WDDUBEMSLDIXZW1FAIHWSYXN","","609","img/flower6.png","75","609","2","1","2","1","1,0.333,0.333,0.333,1,0.333,0.333,0.333,1","1,0.333,0.333,0.333,1,0.333,0.333,0.333,1","1",""
"","html-keyboard-response","119","89363","0.0-119.0","38F5OAUN5OY072NRHMWCAZYFXTPH7Y","A2HSX08DWDYJU7","3HUR21WDDUBEMSLDIXZW1FAIHWSYXN","","null","<img src=""img/flower6.png"" style=""width:200px; border:14px solid green;"">","null","","","","","","","","",""
"","image-keyboard-response","120","90094","0.0-120.0","38F5OAUN5OY072NRHMWCAZYFXTPH7Y","A2HSX08DWDYJU7","3HUR21WDDUBEMSLDIXZW1FAIHWSYXN","","729","img/flower4.png","76","729","3","1","3","1","1,0.333,0.333,0.333,1,0.333,0.333,0.333,1","1,0.333,0.333,0.333,1,0.333,0.333,0.333,1","1",""
"","html-keyboard-response","121","90395","0.0-121.0","38F5OAUN5OY072NRHMWCAZYFXTPH7Y","A2HSX08DWDYJU7","3HUR21WDDUBEMSLDIXZW1FAIHWSYXN","","null","<img src=""img/flower4.png"" style=""width:200px; border:14px solid green;"">","null","","","","","","","","",""
"","image-keyboard-response","122","91069","0.0-122.0","38F5OAUN5OY072NRHMWCAZYFXTPH7Y","A2HSX08DWDYJU7","3HUR21WDDUBEMSLDIXZW1FAIHWSYXN","","674","img/flower1.png","74","675","1","1","1","1","1,0.333,0.333,0.333,1,0.333,0.333,0.333,1","1,0.333,0.333,0.333,1,0.333,0.333,0.333,1","1",""
"","html-keyboard-response","123","91371","0.0-123.0","38F5OAUN5OY072NRHMWCAZYFXTPH7Y","A2HSX08DWDYJU7","3HUR21WDDUBEMSLDIXZW1FAIHWSYXN","","null","<img src=""img/flower1.png"" style=""width:200px; border:14px solid green;"">","null","","","","","","","","",""
"","image-keyboard-response","124","91981","0.0-124.0","38F5OAUN5OY072NRHMWCAZYFXTPH7Y","A2HSX08DWDYJU7","3HUR21WDDUBEMSLDIXZW1FAIHWSYXN","","609","img/flower4.png","74","610","1","0","3","1","1,0.333,0.333,0.333,1,0.333,0.333,0.333,1","1,0.333,0.333,0.333,1,0.333,0.333,0.333,1","1",""
"","html-keyboard-response","125","92286","0.0-125.0","38F5OAUN5OY072NRHMWCAZYFXTPH7Y","A2HSX08DWDYJU7","3HUR21WDDUBEMSLDIXZW1FAIHWSYXN","","null","<img src=""img/flower4.png"" style=""width:200px;border:14px solid red;"">","null","","","","","","","","",""
"","image-keyboard-response","126","92509","0.0-126.0","38F5OAUN5OY072NRHMWCAZYFXTPH7Y","A2HSX08DWDYJU7","3HUR21WDDUBEMSLDIXZW1FAIHWSYXN","","222","img/flower4.png","76","222","3","1","3","1","1,0.333,0.333,0.333,1,0.333,0.333,0.333,1","1,0.333,0.333,0.333,1,0.333,0.333,0.333,1","1",""
"","html-keyboard-response","127","92815","0.0-127.0","38F5OAUN5OY072NRHMWCAZYFXTPH7Y","A2HSX08DWDYJU7","3HUR21WDDUBEMSLDIXZW1FAIHWSYXN","","null","<img src=""img/flower4.png"" style=""width:200px; border:14px solid green;"">","null","","","","","","","","",""
"","image-keyboard-response","128","93397","0.0-128.0","38F5OAUN5OY072NRHMWCAZYFXTPH7Y","A2HSX08DWDYJU7","3HUR21WDDUBEMSLDIXZW1FAIHWSYXN","","582","img/flower4.png","76","583","3","1","3","1","1,0.333,0.333,0.333,1,0.333,0.333,0.333,1","1,0.333,0.333,0.333,1,0.333,0.333,0.333,1","1",""
"","html-keyboard-response","129","93702","0.0-129.0","38F5OAUN5OY072NRHMWCAZYFXTPH7Y","A2HSX08DWDYJU7","3HUR21WDDUBEMSLDIXZW1FAIHWSYXN","","null","<img src=""img/flower4.png"" style=""width:200px; border:14px solid green;"">","null","","","","","","","","",""
"","image-keyboard-response","130","94317","0.0-130.0","38F5OAUN5OY072NRHMWCAZYFXTPH7Y","A2HSX08DWDYJU7","3HUR21WDDUBEMSLDIXZW1FAIHWSYXN","","614","img/flower6.png","75","615","2","1","2","1","1,0.333,0.333,0.333,1,0.333,0.333,0.333,1","1,0.333,0.333,0.333,1,0.333,0.333,0.333,1","1",""
"","html-keyboard-response","131","94619","0.0-131.0","38F5OAUN5OY072NRHMWCAZYFXTPH7Y","A2HSX08DWDYJU7","3HUR21WDDUBEMSLDIXZW1FAIHWSYXN","","null","<img src=""img/flower6.png"" style=""width:200px; border:14px solid green;"">","null","","","","","","","","",""
"","image-keyboard-response","132","95285","0.0-132.0","38F5OAUN5OY072NRHMWCAZYFXTPH7Y","A2HSX08DWDYJU7","3HUR21WDDUBEMSLDIXZW1FAIHWSYXN","","665","img/flower4.png","76","666","3","1","3","1","1,0.333,0.333,0.333,1,0.333,0.333,0.333,1","1,0.333,0.333,0.333,1,0.333,0.333,0.333,1","1",""
"","html-keyboard-response","133","95587","0.0-133.0","38F5OAUN5OY072NRHMWCAZYFXTPH7Y","A2HSX08DWDYJU7","3HUR21WDDUBEMSLDIXZW1FAIHWSYXN","","null","<img src=""img/flower4.png"" style=""width:200px; border:14px solid green;"">","null","","","","","","","","",""
"","image-keyboard-response","134","96197","0.0-134.0","38F5OAUN5OY072NRHMWCAZYFXTPH7Y","A2HSX08DWDYJU7","3HUR21WDDUBEMSLDIXZW1FAIHWSYXN","","608","img/flower1.png","74","608","1","1","1","1","1,0.333,0.333,0.333,1,0.333,0.333,0.333,1","1,0.333,0.333,0.333,1,0.333,0.333,0.333,1","1",""
"","html-keyboard-response","135","96501","0.0-135.0","38F5OAUN5OY072NRHMWCAZYFXTPH7Y","A2HSX08DWDYJU7","3HUR21WDDUBEMSLDIXZW1FAIHWSYXN","","null","<img src=""img/flower1.png"" style=""width:200px; border:14px solid green;"">","null","","","","","","","","",""
"","image-keyboard-response","136","96957","0.0-136.0","38F5OAUN5OY072NRHMWCAZYFXTPH7Y","A2HSX08DWDYJU7","3HUR21WDDUBEMSLDIXZW1FAIHWSYXN","","455","img/flower1.png","74","456","1","1","1","1","1,0.333,0.333,0.333,1,0.333,0.333,0.333,1","1,0.333,0.333,0.333,1,0.333,0.333,0.333,1","1",""
"","html-keyboard-response","137","97258","0.0-137.0","38F5OAUN5OY072NRHMWCAZYFXTPH7Y","A2HSX08DWDYJU7","3HUR21WDDUBEMSLDIXZW1FAIHWSYXN","","null","<img src=""img/flower1.png"" style=""width:200px; border:14px solid green;"">","null","","","","","","","","",""
"","image-keyboard-response","138","97701","0.0-138.0","38F5OAUN5OY072NRHMWCAZYFXTPH7Y","A2HSX08DWDYJU7","3HUR21WDDUBEMSLDIXZW1FAIHWSYXN","","441","img/flower1.png","74","443","1","1","1","1","1,0.333,0.333,0.333,1,0.333,0.333,0.333,1","1,0.333,0.333,0.333,1,0.333,0.333,0.333,1","1",""
"","html-keyboard-response","139","98007","0.0-139.0","38F5OAUN5OY072NRHMWCAZYFXTPH7Y","A2HSX08DWDYJU7","3HUR21WDDUBEMSLDIXZW1FAIHWSYXN","","null","<img src=""img/flower1.png"" style=""width:200px; border:14px solid green;"">","null","","","","","","","","",""
"","image-keyboard-response","140","98605","0.0-140.0","38F5OAUN5OY072NRHMWCAZYFXTPH7Y","A2HSX08DWDYJU7","3HUR21WDDUBEMSLDIXZW1FAIHWSYXN","","598","img/flower6.png","75","598","2","1","2","1","1,0.333,0.333,0.333,1,0.333,0.333,0.333,1","1,0.333,0.333,0.333,1,0.333,0.333,0.333,1","1",""
"","html-keyboard-response","141","98910","0.0-141.0","38F5OAUN5OY072NRHMWCAZYFXTPH7Y","A2HSX08DWDYJU7","3HUR21WDDUBEMSLDIXZW1FAIHWSYXN","","null","<img src=""img/flower6.png"" style=""width:200px; border:14px solid green;"">","null","","","","","","","","",""
"","image-keyboard-response","142","99437","0.0-142.0","38F5OAUN5OY072NRHMWCAZYFXTPH7Y","A2HSX08DWDYJU7","3HUR21WDDUBEMSLDIXZW1FAIHWSYXN","","526","img/flower4.png","76","526","3","1","3","1","1,0.333,0.333,0.333,1,0.333,0.333,0.333,1","1,0.333,0.333,0.333,1,0.333,0.333,0.333,1","1",""
"","html-keyboard-response","143","99740","0.0-143.0","38F5OAUN5OY072NRHMWCAZYFXTPH7Y","A2HSX08DWDYJU7","3HUR21WDDUBEMSLDIXZW1FAIHWSYXN","","null","<img src=""img/flower4.png"" style=""width:200px; border:14px solid green;"">","null","","","","","","","","",""
"","image-keyboard-response","144","100509","0.0-144.0","38F5OAUN5OY072NRHMWCAZYFXTPH7Y","A2HSX08DWDYJU7","3HUR21WDDUBEMSLDIXZW1FAIHWSYXN","","766","img/flower1.png","74","768","1","1","1","1","1,0.333,0.333,0.333,1,0.333,0.333,0.333,1","1,0.333,0.333,0.333,1,0.333,0.333,0.333,1","1",""
"","html-keyboard-response","145","100811","0.0-145.0","38F5OAUN5OY072NRHMWCAZYFXTPH7Y","A2HSX08DWDYJU7","3HUR21WDDUBEMSLDIXZW1FAIHWSYXN","","null","<img src=""img/flower1.png"" style=""width:200px; border:14px solid green;"">","null","","","","","","","","",""
"","image-keyboard-response","146","101429","0.0-146.0","38F5OAUN5OY072NRHMWCAZYFXTPH7Y","A2HSX08DWDYJU7","3HUR21WDDUBEMSLDIXZW1FAIHWSYXN","","617","img/flower1.png","74","618","1","1","1","1","1,0.333,0.333,0.333,1,0.333,0.333,0.333,1","1,0.333,0.333,0.333,1,0.333,0.333,0.333,1","1",""
"","html-keyboard-response","147","101731","0.0-147.0","38F5OAUN5OY072NRHMWCAZYFXTPH7Y","A2HSX08DWDYJU7","3HUR21WDDUBEMSLDIXZW1FAIHWSYXN","","null","<img src=""img/flower1.png"" style=""width:200px; border:14px solid green;"">","null","","","","","","","","",""
"","image-keyboard-response","148","102333","0.0-148.0","38F5OAUN5OY072NRHMWCAZYFXTPH7Y","A2HSX08DWDYJU7","3HUR21WDDUBEMSLDIXZW1FAIHWSYXN","","601","img/flower6.png","75","601","2","1","2","1","1,0.333,0.333,0.333,1,0.333,0.333,0.333,1","1,0.333,0.333,0.333,1,0.333,0.333,0.333,1","1",""
"","html-keyboard-response","149","102636","0.0-149.0","38F5OAUN5OY072NRHMWCAZYFXTPH7Y","A2HSX08DWDYJU7","3HUR21WDDUBEMSLDIXZW1FAIHWSYXN","","null","<img src=""img/flower6.png"" style=""width:200px; border:14px solid green;"">","null","","","","","","","","",""
"","image-keyboard-response","150","103237","0.0-150.0","38F5OAUN5OY072NRHMWCAZYFXTPH7Y","A2HSX08DWDYJU7","3HUR21WDDUBEMSLDIXZW1FAIHWSYXN","","600","img/flower1.png","76","601","3","1","1","1","1,0.333,0.333,0.333,1,0.333,0.333,0.333,1","1,0.333,0.333,0.333,1,0.333,0.333,0.333,1","1",""
"","html-keyboard-response","151","103537","0.0-151.0","38F5OAUN5OY072NRHMWCAZYFXTPH7Y","A2HSX08DWDYJU7","3HUR21WDDUBEMSLDIXZW1FAIHWSYXN","","null","<img src=""img/flower1.png"" style=""width:200px; border:14px solid green;"">","null","","","","","","","","",""
"","image-keyboard-response","152","104389","0.0-152.0","38F5OAUN5OY072NRHMWCAZYFXTPH7Y","A2HSX08DWDYJU7","3HUR21WDDUBEMSLDIXZW1FAIHWSYXN","","851","img/flower1.png","75","851","2","0","1","1","1,0.333,0.333,0.333,1,0.333,0.333,0.333,1","1,0.333,0.333,0.333,1,0.333,0.333,0.333,1","1",""
"","html-keyboard-response","153","104694","0.0-153.0","38F5OAUN5OY072NRHMWCAZYFXTPH7Y","A2HSX08DWDYJU7","3HUR21WDDUBEMSLDIXZW1FAIHWSYXN","","null","<img src=""img/flower1.png"" style=""width:200px;border:14px solid red;"">","null","","","","","","","","",""
"","image-keyboard-response","154","104820","0.0-154.0","38F5OAUN5OY072NRHMWCAZYFXTPH7Y","A2HSX08DWDYJU7","3HUR21WDDUBEMSLDIXZW1FAIHWSYXN","","125","img/flower4.png","74","127","1","1","3","1","1,0.333,0.333,0.333,1,0.333,0.333,0.333,1","1,0.333,0.333,0.333,1,0.333,0.333,0.333,1","1",""
"","html-keyboard-response","155","105121","0.0-155.0","38F5OAUN5OY072NRHMWCAZYFXTPH7Y","A2HSX08DWDYJU7","3HUR21WDDUBEMSLDIXZW1FAIHWSYXN","","null","<img src=""img/flower4.png"" style=""width:200px; border:14px solid green;"">","null","","","","","","","","",""
"","image-keyboard-response","156","105901","0.0-156.0","38F5OAUN5OY072NRHMWCAZYFXTPH7Y","A2HSX08DWDYJU7","3HUR21WDDUBEMSLDIXZW1FAIHWSYXN","","777","img/flower6.png","75","779","2","1","2","1","1,0.333,0.333,0.333,1,0.333,0.333,0.333,1","1,0.333,0.333,0.333,1,0.333,0.333,0.333,1","1",""
"","html-keyboard-response","157","106202","0.0-157.0","38F5OAUN5OY072NRHMWCAZYFXTPH7Y","A2HSX08DWDYJU7","3HUR21WDDUBEMSLDIXZW1FAIHWSYXN","","null","<img src=""img/flower6.png"" style=""width:200px; border:14px solid green;"">","null","","","","","","","","",""
"","image-keyboard-response","158","106885","0.0-158.0","38F5OAUN5OY072NRHMWCAZYFXTPH7Y","A2HSX08DWDYJU7","3HUR21WDDUBEMSLDIXZW1FAIHWSYXN","","681","img/flower1.png","74","682","1","1","1","1","1,0.333,0.333,0.333,1,0.333,0.333,0.333,1","1,0.333,0.333,0.333,1,0.333,0.333,0.333,1","1",""
"","html-keyboard-response","159","107191","0.0-159.0","38F5OAUN5OY072NRHMWCAZYFXTPH7Y","A2HSX08DWDYJU7","3HUR21WDDUBEMSLDIXZW1FAIHWSYXN","","null","<img src=""img/flower1.png"" style=""width:200px; border:14px solid green;"">","null","","","","","","","","",""
"","image-keyboard-response","160","107789","0.0-160.0","38F5OAUN5OY072NRHMWCAZYFXTPH7Y","A2HSX08DWDYJU7","3HUR21WDDUBEMSLDIXZW1FAIHWSYXN","","598","img/flower4.png","76","598","3","1","3","1","1,0.333,0.333,0.333,1,0.333,0.333,0.333,1","1,0.333,0.333,0.333,1,0.333,0.333,0.333,1","1",""
"","html-keyboard-response","161","108090","0.0-161.0","38F5OAUN5OY072NRHMWCAZYFXTPH7Y","A2HSX08DWDYJU7","3HUR21WDDUBEMSLDIXZW1FAIHWSYXN","","null","<img src=""img/flower4.png"" style=""width:200px; border:14px solid green;"">","null","","","","","","","","",""
"","image-keyboard-response","162","108493","0.0-162.0","38F5OAUN5OY072NRHMWCAZYFXTPH7Y","A2HSX08DWDYJU7","3HUR21WDDUBEMSLDIXZW1FAIHWSYXN","","402","img/flower4.png","76","403","3","1","3","1","1,0.333,0.333,0.333,1,0.333,0.333,0.333,1","1,0.333,0.333,0.333,1,0.333,0.333,0.333,1","1",""
"","html-keyboard-response","163","108793","0.0-163.0","38F5OAUN5OY072NRHMWCAZYFXTPH7Y","A2HSX08DWDYJU7","3HUR21WDDUBEMSLDIXZW1FAIHWSYXN","","null","<img src=""img/flower4.png"" style=""width:200px; border:14px solid green;"">","null","","","","","","","","",""
"","image-keyboard-response","164","109429","0.0-164.0","38F5OAUN5OY072NRHMWCAZYFXTPH7Y","A2HSX08DWDYJU7","3HUR21WDDUBEMSLDIXZW1FAIHWSYXN","","635","img/flower6.png","75","635","2","1","2","1","1,0.333,0.333,0.333,1,0.333,0.333,0.333,1","1,0.333,0.333,0.333,1,0.333,0.333,0.333,1","1",""
"","html-keyboard-response","165","109731","0.0-165.0","38F5OAUN5OY072NRHMWCAZYFXTPH7Y","A2HSX08DWDYJU7","3HUR21WDDUBEMSLDIXZW1FAIHWSYXN","","null","<img src=""img/flower6.png"" style=""width:200px; border:14px solid green;"">","null","","","","","","","","",""
"","image-keyboard-response","166","110284","0.0-166.0","38F5OAUN5OY072NRHMWCAZYFXTPH7Y","A2HSX08DWDYJU7","3HUR21WDDUBEMSLDIXZW1FAIHWSYXN","","552","img/flower4.png","74","553","1","1","3","1","1,0.333,0.333,0.333,1,0.333,0.333,0.333,1","1,0.333,0.333,0.333,1,0.333,0.333,0.333,1","1",""
"","html-keyboard-response","167","110586","0.0-167.0","38F5OAUN5OY072NRHMWCAZYFXTPH7Y","A2HSX08DWDYJU7","3HUR21WDDUBEMSLDIXZW1FAIHWSYXN","","null","<img src=""img/flower4.png"" style=""width:200px; border:14px solid green;"">","null","","","","","","","","",""
"","image-keyboard-response","168","111252","0.0-168.0","38F5OAUN5OY072NRHMWCAZYFXTPH7Y","A2HSX08DWDYJU7","3HUR21WDDUBEMSLDIXZW1FAIHWSYXN","","666","img/flower4.png","74","666","1","1","3","1","1,0.333,0.333,0.333,1,0.333,0.333,0.333,1","1,0.333,0.333,0.333,1,0.333,0.333,0.333,1","1",""
"","html-keyboard-response","169","111555","0.0-169.0","38F5OAUN5OY072NRHMWCAZYFXTPH7Y","A2HSX08DWDYJU7","3HUR21WDDUBEMSLDIXZW1FAIHWSYXN","","null","<img src=""img/flower4.png"" style=""width:200px; border:14px solid green;"">","null","","","","","","","","",""
"","image-keyboard-response","170","112221","0.0-170.0","38F5OAUN5OY072NRHMWCAZYFXTPH7Y","A2HSX08DWDYJU7","3HUR21WDDUBEMSLDIXZW1FAIHWSYXN","","665","img/flower6.png","75","666","2","1","2","1","1,0.333,0.333,0.333,1,0.333,0.333,0.333,1","1,0.333,0.333,0.333,1,0.333,0.333,0.333,1","1",""
"","html-keyboard-response","171","112525","0.0-171.0","38F5OAUN5OY072NRHMWCAZYFXTPH7Y","A2HSX08DWDYJU7","3HUR21WDDUBEMSLDIXZW1FAIHWSYXN","","null","<img src=""img/flower6.png"" style=""width:200px; border:14px solid green;"">","null","","","","","","","","",""
"","image-keyboard-response","172","113293","0.0-172.0","38F5OAUN5OY072NRHMWCAZYFXTPH7Y","A2HSX08DWDYJU7","3HUR21WDDUBEMSLDIXZW1FAIHWSYXN","","767","img/flower1.png","74","768","1","1","1","1","1,0.333,0.333,0.333,1,0.333,0.333,0.333,1","1,0.333,0.333,0.333,1,0.333,0.333,0.333,1","1",""
"","html-keyboard-response","173","113594","0.0-173.0","38F5OAUN5OY072NRHMWCAZYFXTPH7Y","A2HSX08DWDYJU7","3HUR21WDDUBEMSLDIXZW1FAIHWSYXN","","null","<img src=""img/flower1.png"" style=""width:200px; border:14px solid green;"">","null","","","","","","","","",""
"","image-keyboard-response","174","114212","0.0-174.0","38F5OAUN5OY072NRHMWCAZYFXTPH7Y","A2HSX08DWDYJU7","3HUR21WDDUBEMSLDIXZW1FAIHWSYXN","","618","img/flower4.png","76","619","3","1","3","1","1,0.333,0.333,0.333,1,0.333,0.333,0.333,1","1,0.333,0.333,0.333,1,0.333,0.333,0.333,1","1",""
"","html-keyboard-response","175","114516","0.0-175.0","38F5OAUN5OY072NRHMWCAZYFXTPH7Y","A2HSX08DWDYJU7","3HUR21WDDUBEMSLDIXZW1FAIHWSYXN","","null","<img src=""img/flower4.png"" style=""width:200px; border:14px solid green;"">","null","","","","","","","","",""
"","image-keyboard-response","176","115188","0.0-176.0","38F5OAUN5OY072NRHMWCAZYFXTPH7Y","A2HSX08DWDYJU7","3HUR21WDDUBEMSLDIXZW1FAIHWSYXN","","672","img/flower1.png","74","672","1","1","1","1","1,0.333,0.333,0.333,1,0.333,0.333,0.333,1","1,0.333,0.333,0.333,1,0.333,0.333,0.333,1","1",""
"","html-keyboard-response","177","115490","0.0-177.0","38F5OAUN5OY072NRHMWCAZYFXTPH7Y","A2HSX08DWDYJU7","3HUR21WDDUBEMSLDIXZW1FAIHWSYXN","","null","<img src=""img/flower1.png"" style=""width:200px; border:14px solid green;"">","null","","","","","","","","",""
"","image-keyboard-response","178","116013","0.0-178.0","38F5OAUN5OY072NRHMWCAZYFXTPH7Y","A2HSX08DWDYJU7","3HUR21WDDUBEMSLDIXZW1FAIHWSYXN","","520","img/flower6.png","75","521","2","1","2","1","1,0.333,0.333,0.333,1,0.333,0.333,0.333,1","1,0.333,0.333,0.333,1,0.333,0.333,0.333,1","1",""
"","html-keyboard-response","179","116317","0.0-179.0","38F5OAUN5OY072NRHMWCAZYFXTPH7Y","A2HSX08DWDYJU7","3HUR21WDDUBEMSLDIXZW1FAIHWSYXN","","null","<img src=""img/flower6.png"" style=""width:200px; border:14px solid green;"">","null","","","","","","","","",""
"","image-keyboard-response","180","116853","0.0-180.0","38F5OAUN5OY072NRHMWCAZYFXTPH7Y","A2HSX08DWDYJU7","3HUR21WDDUBEMSLDIXZW1FAIHWSYXN","","535","img/flower6.png","75","536","2","1","2","1","1,0.333,0.333,0.333,1,0.333,0.333,0.333,1","1,0.333,0.333,0.333,1,0.333,0.333,0.333,1","1",""
"","html-keyboard-response","181","117157","0.0-181.0","38F5OAUN5OY072NRHMWCAZYFXTPH7Y","A2HSX08DWDYJU7","3HUR21WDDUBEMSLDIXZW1FAIHWSYXN","","null","<img src=""img/flower6.png"" style=""width:200px; border:14px solid green;"">","null","","","","","","","","",""
"","html-keyboard-response","182","120002","0.0-182.0","38F5OAUN5OY072NRHMWCAZYFXTPH7Y","A2HSX08DWDYJU7","3HUR21WDDUBEMSLDIXZW1FAIHWSYXN","","","","","","","","","","","","",""
"","image-keyboard-response","183","121180","0.0-183.0","38F5OAUN5OY072NRHMWCAZYFXTPH7Y","A2HSX08DWDYJU7","3HUR21WDDUBEMSLDIXZW1FAIHWSYXN","","1177","img/flower3.png","76","1179","3","1","2","2","1,0,0,1,1,0,1,0,1","0,0,1,1,0,1,0,1,1","2",""
"","html-keyboard-response","184","121486","0.0-184.0","38F5OAUN5OY072NRHMWCAZYFXTPH7Y","A2HSX08DWDYJU7","3HUR21WDDUBEMSLDIXZW1FAIHWSYXN","","null","<img src=""img/flower3.png"" style=""width:200px; border:14px solid green;"">","null","","","","","","","","",""
"","image-keyboard-response","185","122013","0.0-185.0","38F5OAUN5OY072NRHMWCAZYFXTPH7Y","A2HSX08DWDYJU7","3HUR21WDDUBEMSLDIXZW1FAIHWSYXN","","526","img/flower2.png","75","527","2","1","3","2","1,0,0,1,1,0,1,0,1","0,0,1,1,0,1,0,1,1","2",""
"","html-keyboard-response","186","122314","0.0-186.0","38F5OAUN5OY072NRHMWCAZYFXTPH7Y","A2HSX08DWDYJU7","3HUR21WDDUBEMSLDIXZW1FAIHWSYXN","","null","<img src=""img/flower2.png"" style=""width:200px; border:14px solid green;"">","null","","","","","","","","",""
"","image-keyboard-response","187","123356","0.0-187.0","38F5OAUN5OY072NRHMWCAZYFXTPH7Y","A2HSX08DWDYJU7","3HUR21WDDUBEMSLDIXZW1FAIHWSYXN","","1041","img/flower3.png","76","1042","3","1","2","2","1,0,0,1,1,0,1,0,1","0,0,1,1,0,1,0,1,1","2",""
"","html-keyboard-response","188","123661","0.0-188.0","38F5OAUN5OY072NRHMWCAZYFXTPH7Y","A2HSX08DWDYJU7","3HUR21WDDUBEMSLDIXZW1FAIHWSYXN","","null","<img src=""img/flower3.png"" style=""width:200px; border:14px solid green;"">","null","","","","","","","","",""
"","image-keyboard-response","189","124229","0.0-189.0","38F5OAUN5OY072NRHMWCAZYFXTPH7Y","A2HSX08DWDYJU7","3HUR21WDDUBEMSLDIXZW1FAIHWSYXN","","565","img/flower2.png","75","565","2","1","3","2","1,0,0,1,1,0,1,0,1","0,0,1,1,0,1,0,1,1","2",""
"","html-keyboard-response","190","124532","0.0-190.0","38F5OAUN5OY072NRHMWCAZYFXTPH7Y","A2HSX08DWDYJU7","3HUR21WDDUBEMSLDIXZW1FAIHWSYXN","","null","<img src=""img/flower2.png"" style=""width:200px; border:14px solid green;"">","null","","","","","","","","",""
"","image-keyboard-response","191","125660","0.0-191.0","38F5OAUN5OY072NRHMWCAZYFXTPH7Y","A2HSX08DWDYJU7","3HUR21WDDUBEMSLDIXZW1FAIHWSYXN","","1126","img/flower3.png","76","1128","3","1","2","2","1,0,0,1,1,0,1,0,1","0,0,1,1,0,1,0,1,1","2",""
"","html-keyboard-response","192","125963","0.0-192.0","38F5OAUN5OY072NRHMWCAZYFXTPH7Y","A2HSX08DWDYJU7","3HUR21WDDUBEMSLDIXZW1FAIHWSYXN","","null","<img src=""img/flower3.png"" style=""width:200px; border:14px solid green;"">","null","","","","","","","","",""
"","image-keyboard-response","193","126413","0.0-193.0","38F5OAUN5OY072NRHMWCAZYFXTPH7Y","A2HSX08DWDYJU7","3HUR21WDDUBEMSLDIXZW1FAIHWSYXN","","449","img/flower3.png","76","449","3","1","2","2","1,0,0,1,1,0,1,0,1","0,0,1,1,0,1,0,1,1","2",""
"","html-keyboard-response","194","126715","0.0-194.0","38F5OAUN5OY072NRHMWCAZYFXTPH7Y","A2HSX08DWDYJU7","3HUR21WDDUBEMSLDIXZW1FAIHWSYXN","","null","<img src=""img/flower3.png"" style=""width:200px; border:14px solid green;"">","null","","","","","","","","",""
"","image-keyboard-response","195","127125","0.0-195.0","38F5OAUN5OY072NRHMWCAZYFXTPH7Y","A2HSX08DWDYJU7","3HUR21WDDUBEMSLDIXZW1FAIHWSYXN","","409","img/flower3.png","76","409","3","1","2","2","1,0,0,1,1,0,1,0,1","0,0,1,1,0,1,0,1,1","2",""
"","html-keyboard-response","196","127426","0.0-196.0","38F5OAUN5OY072NRHMWCAZYFXTPH7Y","A2HSX08DWDYJU7","3HUR21WDDUBEMSLDIXZW1FAIHWSYXN","","null","<img src=""img/flower3.png"" style=""width:200px; border:14px solid green;"">","null","","","","","","","","",""
"","image-keyboard-response","197","127644","0.0-197.0","38F5OAUN5OY072NRHMWCAZYFXTPH7Y","A2HSX08DWDYJU7","3HUR21WDDUBEMSLDIXZW1FAIHWSYXN","","218","img/flower2.png","76","219","3","1","3","2","1,0,0,1,1,0,1,0,1","0,0,1,1,0,1,0,1,1","2",""
"","html-keyboard-response","198","127946","0.0-198.0","38F5OAUN5OY072NRHMWCAZYFXTPH7Y","A2HSX08DWDYJU7","3HUR21WDDUBEMSLDIXZW1FAIHWSYXN","","null","<img src=""img/flower2.png"" style=""width:200px; border:14px solid green;"">","null","","","","","","","","",""
"","image-keyboard-response","199","128028","0.0-199.0","38F5OAUN5OY072NRHMWCAZYFXTPH7Y","A2HSX08DWDYJU7","3HUR21WDDUBEMSLDIXZW1FAIHWSYXN","","81","img/flower5.png","75","82","2","0","1","2","1,0,0,1,1,0,1,0,1","0,0,1,1,0,1,0,1,1","2",""
"","html-keyboard-response","200","128329","0.0-200.0","38F5OAUN5OY072NRHMWCAZYFXTPH7Y","A2HSX08DWDYJU7","3HUR21WDDUBEMSLDIXZW1FAIHWSYXN","","null","<img src=""img/flower5.png"" style=""width:200px;border:14px solid red;"">","null","","","","","","","","",""
"","image-keyboard-response","201","128876","0.0-201.0","38F5OAUN5OY072NRHMWCAZYFXTPH7Y","A2HSX08DWDYJU7","3HUR21WDDUBEMSLDIXZW1FAIHWSYXN","","545","img/flower5.png","74","546","1","0","1","2","1,0,0,1,1,0,1,0,1","0,0,1,1,0,1,0,1,1","2",""
"","html-keyboard-response","202","129179","0.0-202.0","38F5OAUN5OY072NRHMWCAZYFXTPH7Y","A2HSX08DWDYJU7","3HUR21WDDUBEMSLDIXZW1FAIHWSYXN","","null","<img src=""img/flower5.png"" style=""width:200px;border:14px solid red;"">","null","","","","","","","","",""
"","image-keyboard-response","203","130100","0.0-203.0","38F5OAUN5OY072NRHMWCAZYFXTPH7Y","A2HSX08DWDYJU7","3HUR21WDDUBEMSLDIXZW1FAIHWSYXN","","921","img/flower3.png","76","921","3","1","2","2","1,0,0,1,1,0,1,0,1","0,0,1,1,0,1,0,1,1","2",""
"","html-keyboard-response","204","130404","0.0-204.0","38F5OAUN5OY072NRHMWCAZYFXTPH7Y","A2HSX08DWDYJU7","3HUR21WDDUBEMSLDIXZW1FAIHWSYXN","","null","<img src=""img/flower3.png"" style=""width:200px; border:14px solid green;"">","null","","","","","","","","",""
"","image-keyboard-response","205","131044","0.0-205.0","38F5OAUN5OY072NRHMWCAZYFXTPH7Y","A2HSX08DWDYJU7","3HUR21WDDUBEMSLDIXZW1FAIHWSYXN","","639","img/flower2.png","75","641","2","1","3","2","1,0,0,1,1,0,1,0,1","0,0,1,1,0,1,0,1,1","2",""
"","html-keyboard-response","206","131347","0.0-206.0","38F5OAUN5OY072NRHMWCAZYFXTPH7Y","A2HSX08DWDYJU7","3HUR21WDDUBEMSLDIXZW1FAIHWSYXN","","null","<img src=""img/flower2.png"" style=""width:200px; border:14px solid green;"">","null","","","","","","","","",""
"","image-keyboard-response","207","132277","0.0-207.0","38F5OAUN5OY072NRHMWCAZYFXTPH7Y","A2HSX08DWDYJU7","3HUR21WDDUBEMSLDIXZW1FAIHWSYXN","","928","img/flower3.png","76","928","3","1","2","2","1,0,0,1,1,0,1,0,1","0,0,1,1,0,1,0,1,1","2",""
"","html-keyboard-response","208","132577","0.0-208.0","38F5OAUN5OY072NRHMWCAZYFXTPH7Y","A2HSX08DWDYJU7","3HUR21WDDUBEMSLDIXZW1FAIHWSYXN","","null","<img src=""img/flower3.png"" style=""width:200px; border:14px solid green;"">","null","","","","","","","","",""
"","image-keyboard-response","209","133196","0.0-209.0","38F5OAUN5OY072NRHMWCAZYFXTPH7Y","A2HSX08DWDYJU7","3HUR21WDDUBEMSLDIXZW1FAIHWSYXN","","618","img/flower2.png","75","619","2","1","3","2","1,0,0,1,1,0,1,0,1","0,0,1,1,0,1,0,1,1","2",""
"","html-keyboard-response","210","133498","0.0-210.0","38F5OAUN5OY072NRHMWCAZYFXTPH7Y","A2HSX08DWDYJU7","3HUR21WDDUBEMSLDIXZW1FAIHWSYXN","","null","<img src=""img/flower2.png"" style=""width:200px; border:14px solid green;"">","null","","","","","","","","",""
"","image-keyboard-response","211","134172","0.0-211.0","38F5OAUN5OY072NRHMWCAZYFXTPH7Y","A2HSX08DWDYJU7","3HUR21WDDUBEMSLDIXZW1FAIHWSYXN","","673","img/flower5.png","74","674","1","0","1","2","1,0,0,1,1,0,1,0,1","0,0,1,1,0,1,0,1,1","2",""
"","html-keyboard-response","212","134476","0.0-212.0","38F5OAUN5OY072NRHMWCAZYFXTPH7Y","A2HSX08DWDYJU7","3HUR21WDDUBEMSLDIXZW1FAIHWSYXN","","null","<img src=""img/flower5.png"" style=""width:200px;border:14px solid red;"">","null","","","","","","","","",""
"","image-keyboard-response","213","135108","0.0-213.0","38F5OAUN5OY072NRHMWCAZYFXTPH7Y","A2HSX08DWDYJU7","3HUR21WDDUBEMSLDIXZW1FAIHWSYXN","","631","img/flower5.png","75","633","2","0","1","2","1,0,0,1,1,0,1,0,1","0,0,1,1,0,1,0,1,1","2",""
"","html-keyboard-response","214","135410","0.0-214.0","38F5OAUN5OY072NRHMWCAZYFXTPH7Y","A2HSX08DWDYJU7","3HUR21WDDUBEMSLDIXZW1FAIHWSYXN","","null","<img src=""img/flower5.png"" style=""width:200px;border:14px solid red;"">","null","","","","","","","","",""
"","image-keyboard-response","215","135613","0.0-215.0","38F5OAUN5OY072NRHMWCAZYFXTPH7Y","A2HSX08DWDYJU7","3HUR21WDDUBEMSLDIXZW1FAIHWSYXN","","201","img/flower3.png","76","202","3","1","2","2","1,0,0,1,1,0,1,0,1","0,0,1,1,0,1,0,1,1","2",""
"","html-keyboard-response","216","135915","0.0-216.0","38F5OAUN5OY072NRHMWCAZYFXTPH7Y","A2HSX08DWDYJU7","3HUR21WDDUBEMSLDIXZW1FAIHWSYXN","","null","<img src=""img/flower3.png"" style=""width:200px; border:14px solid green;"">","null","","","","","","","","",""
"","image-keyboard-response","217","136452","0.0-217.0","38F5OAUN5OY072NRHMWCAZYFXTPH7Y","A2HSX08DWDYJU7","3HUR21WDDUBEMSLDIXZW1FAIHWSYXN","","536","img/flower2.png","76","537","3","1","3","2","1,0,0,1,1,0,1,0,1","0,0,1,1,0,1,0,1,1","2",""
"","html-keyboard-response","218","136754","0.0-218.0","38F5OAUN5OY072NRHMWCAZYFXTPH7Y","A2HSX08DWDYJU7","3HUR21WDDUBEMSLDIXZW1FAIHWSYXN","","null","<img src=""img/flower2.png"" style=""width:200px; border:14px solid green;"">","null","","","","","","","","",""
"","image-keyboard-response","219","137092","0.0-219.0","38F5OAUN5OY072NRHMWCAZYFXTPH7Y","A2HSX08DWDYJU7","3HUR21WDDUBEMSLDIXZW1FAIHWSYXN","","336","img/flower5.png","76","336","3","1","1","2","1,0,0,1,1,0,1,0,1","0,0,1,1,0,1,0,1,1","2",""
"","html-keyboard-response","220","137395","0.0-220.0","38F5OAUN5OY072NRHMWCAZYFXTPH7Y","A2HSX08DWDYJU7","3HUR21WDDUBEMSLDIXZW1FAIHWSYXN","","null","<img src=""img/flower5.png"" style=""width:200px; border:14px solid green;"">","null","","","","","","","","",""
"","image-keyboard-response","221","137524","0.0-221.0","38F5OAUN5OY072NRHMWCAZYFXTPH7Y","A2HSX08DWDYJU7","3HUR21WDDUBEMSLDIXZW1FAIHWSYXN","","127","img/flower5.png","76","128","3","1","1","2","1,0,0,1,1,0,1,0,1","0,0,1,1,0,1,0,1,1","2",""
"","html-keyboard-response","222","137826","0.0-222.0","38F5OAUN5OY072NRHMWCAZYFXTPH7Y","A2HSX08DWDYJU7","3HUR21WDDUBEMSLDIXZW1FAIHWSYXN","","null","<img src=""img/flower5.png"" style=""width:200px; border:14px solid green;"">","null","","","","","","","","",""
"","image-keyboard-response","223","138132","0.0-223.0","38F5OAUN5OY072NRHMWCAZYFXTPH7Y","A2HSX08DWDYJU7","3HUR21WDDUBEMSLDIXZW1FAIHWSYXN","","304","img/flower3.png","76","306","3","1","2","2","1,0,0,1,1,0,1,0,1","0,0,1,1,0,1,0,1,1","2",""
"","html-keyboard-response","224","138434","0.0-224.0","38F5OAUN5OY072NRHMWCAZYFXTPH7Y","A2HSX08DWDYJU7","3HUR21WDDUBEMSLDIXZW1FAIHWSYXN","","null","<img src=""img/flower3.png"" style=""width:200px; border:14px solid green;"">","null","","","","","","","","",""
"","image-keyboard-response","225","138652","0.0-225.0","38F5OAUN5OY072NRHMWCAZYFXTPH7Y","A2HSX08DWDYJU7","3HUR21WDDUBEMSLDIXZW1FAIHWSYXN","","218","img/flower3.png","76","218","3","1","2","2","1,0,0,1,1,0,1,0,1","0,0,1,1,0,1,0,1,1","2",""
"","html-keyboard-response","226","138954","0.0-226.0","38F5OAUN5OY072NRHMWCAZYFXTPH7Y","A2HSX08DWDYJU7","3HUR21WDDUBEMSLDIXZW1FAIHWSYXN","","null","<img src=""img/flower3.png"" style=""width:200px; border:14px solid green;"">","null","","","","","","","","",""
"","image-keyboard-response","227","139172","0.0-227.0","38F5OAUN5OY072NRHMWCAZYFXTPH7Y","A2HSX08DWDYJU7","3HUR21WDDUBEMSLDIXZW1FAIHWSYXN","","217","img/flower2.png","76","218","3","1","3","2","1,0,0,1,1,0,1,0,1","0,0,1,1,0,1,0,1,1","2",""
"","html-keyboard-response","228","139473","0.0-228.0","38F5OAUN5OY072NRHMWCAZYFXTPH7Y","A2HSX08DWDYJU7","3HUR21WDDUBEMSLDIXZW1FAIHWSYXN","","null","<img src=""img/flower2.png"" style=""width:200px; border:14px solid green;"">","null","","","","","","","","",""
"","image-keyboard-response","229","139620","0.0-229.0","38F5OAUN5OY072NRHMWCAZYFXTPH7Y","A2HSX08DWDYJU7","3HUR21WDDUBEMSLDIXZW1FAIHWSYXN","","146","img/flower3.png","76","147","3","1","2","2","1,0,0,1,1,0,1,0,1","0,0,1,1,0,1,0,1,1","2",""
"","html-keyboard-response","230","139921","0.0-230.0","38F5OAUN5OY072NRHMWCAZYFXTPH7Y","A2HSX08DWDYJU7","3HUR21WDDUBEMSLDIXZW1FAIHWSYXN","","null","<img src=""img/flower3.png"" style=""width:200px; border:14px solid green;"">","null","","","","","","","","",""
"","image-keyboard-response","231","140060","0.0-231.0","38F5OAUN5OY072NRHMWCAZYFXTPH7Y","A2HSX08DWDYJU7","3HUR21WDDUBEMSLDIXZW1FAIHWSYXN","","138","img/flower3.png","76","139","3","1","2","2","1,0,0,1,1,0,1,0,1","0,0,1,1,0,1,0,1,1","2",""
"","html-keyboard-response","232","140362","0.0-232.0","38F5OAUN5OY072NRHMWCAZYFXTPH7Y","A2HSX08DWDYJU7","3HUR21WDDUBEMSLDIXZW1FAIHWSYXN","","null","<img src=""img/flower3.png"" style=""width:200px; border:14px solid green;"">","null","","","","","","","","",""
"","image-keyboard-response","233","140517","0.0-233.0","38F5OAUN5OY072NRHMWCAZYFXTPH7Y","A2HSX08DWDYJU7","3HUR21WDDUBEMSLDIXZW1FAIHWSYXN","","153","img/flower5.png","76","154","3","1","1","2","1,0,0,1,1,0,1,0,1","0,0,1,1,0,1,0,1,1","2",""
"","html-keyboard-response","234","140818","0.0-234.0","38F5OAUN5OY072NRHMWCAZYFXTPH7Y","A2HSX08DWDYJU7","3HUR21WDDUBEMSLDIXZW1FAIHWSYXN","","null","<img src=""img/flower5.png"" style=""width:200px; border:14px solid green;"">","null","","","","","","","","",""
"","image-keyboard-response","235","140924","0.0-235.0","38F5OAUN5OY072NRHMWCAZYFXTPH7Y","A2HSX08DWDYJU7","3HUR21WDDUBEMSLDIXZW1FAIHWSYXN","","104","img/flower3.png","76","105","3","1","2","2","1,0,0,1,1,0,1,0,1","0,0,1,1,0,1,0,1,1","2",""
"","html-keyboard-response","236","141225","0.0-236.0","38F5OAUN5OY072NRHMWCAZYFXTPH7Y","A2HSX08DWDYJU7","3HUR21WDDUBEMSLDIXZW1FAIHWSYXN","","null","<img src=""img/flower3.png"" style=""width:200px; border:14px solid green;"">","null","","","","","","","","",""
"","image-keyboard-response","237","141324","0.0-237.0","38F5OAUN5OY072NRHMWCAZYFXTPH7Y","A2HSX08DWDYJU7","3HUR21WDDUBEMSLDIXZW1FAIHWSYXN","","98","img/flower2.png","76","99","3","1","3","2","1,0,0,1,1,0,1,0,1","0,0,1,1,0,1,0,1,1","2",""
"","html-keyboard-response","238","141627","0.0-238.0","38F5OAUN5OY072NRHMWCAZYFXTPH7Y","A2HSX08DWDYJU7","3HUR21WDDUBEMSLDIXZW1FAIHWSYXN","","null","<img src=""img/flower2.png"" style=""width:200px; border:14px solid green;"">","null","","","","","","","","",""
"","image-keyboard-response","239","141772","0.0-239.0","38F5OAUN5OY072NRHMWCAZYFXTPH7Y","A2HSX08DWDYJU7","3HUR21WDDUBEMSLDIXZW1FAIHWSYXN","","144","img/flower2.png","76","144","3","1","3","2","1,0,0,1,1,0,1,0,1","0,0,1,1,0,1,0,1,1","2",""
"","html-keyboard-response","240","142077","0.0-240.0","38F5OAUN5OY072NRHMWCAZYFXTPH7Y","A2HSX08DWDYJU7","3HUR21WDDUBEMSLDIXZW1FAIHWSYXN","","null","<img src=""img/flower2.png"" style=""width:200px; border:14px solid green;"">","null","","","","","","","","",""
"","image-keyboard-response","241","142131","0.0-241.0","38F5OAUN5OY072NRHMWCAZYFXTPH7Y","A2HSX08DWDYJU7","3HUR21WDDUBEMSLDIXZW1FAIHWSYXN","","53","img/flower5.png","76","55","3","1","1","2","1,0,0,1,1,0,1,0,1","0,0,1,1,0,1,0,1,1","2",""
"","html-keyboard-response","242","142435","0.0-242.0","38F5OAUN5OY072NRHMWCAZYFXTPH7Y","A2HSX08DWDYJU7","3HUR21WDDUBEMSLDIXZW1FAIHWSYXN","","null","<img src=""img/flower5.png"" style=""width:200px; border:14px solid green;"">","null","","","","","","","","",""
"","image-keyboard-response","243","142564","0.0-243.0","38F5OAUN5OY072NRHMWCAZYFXTPH7Y","A2HSX08DWDYJU7","3HUR21WDDUBEMSLDIXZW1FAIHWSYXN","","128","img/flower2.png","76","130","3","1","3","2","1,0,0,1,1,0,1,0,1","0,0,1,1,0,1,0,1,1","2",""
"","html-keyboard-response","244","142865","0.0-244.0","38F5OAUN5OY072NRHMWCAZYFXTPH7Y","A2HSX08DWDYJU7","3HUR21WDDUBEMSLDIXZW1FAIHWSYXN","","null","<img src=""img/flower2.png"" style=""width:200px; border:14px solid green;"">","null","","","","","","","","",""
"","image-keyboard-response","245","142972","0.0-245.0","38F5OAUN5OY072NRHMWCAZYFXTPH7Y","A2HSX08DWDYJU7","3HUR21WDDUBEMSLDIXZW1FAIHWSYXN","","106","img/flower2.png","76","107","3","1","3","2","1,0,0,1,1,0,1,0,1","0,0,1,1,0,1,0,1,1","2",""
"","html-keyboard-response","246","143277","0.0-246.0","38F5OAUN5OY072NRHMWCAZYFXTPH7Y","A2HSX08DWDYJU7","3HUR21WDDUBEMSLDIXZW1FAIHWSYXN","","null","<img src=""img/flower2.png"" style=""width:200px; border:14px solid green;"">","null","","","","","","","","",""
"","image-keyboard-response","247","143404","0.0-247.0","38F5OAUN5OY072NRHMWCAZYFXTPH7Y","A2HSX08DWDYJU7","3HUR21WDDUBEMSLDIXZW1FAIHWSYXN","","124","img/flower5.png","76","127","3","1","1","2","1,0,0,1,1,0,1,0,1","0,0,1,1,0,1,0,1,1","2",""
"","html-keyboard-response","248","143706","0.0-248.0","38F5OAUN5OY072NRHMWCAZYFXTPH7Y","A2HSX08DWDYJU7","3HUR21WDDUBEMSLDIXZW1FAIHWSYXN","","null","<img src=""img/flower5.png"" style=""width:200px; border:14px solid green;"">","null","","","","","","","","",""
"","image-keyboard-response","249","143852","0.0-249.0","38F5OAUN5OY072NRHMWCAZYFXTPH7Y","A2HSX08DWDYJU7","3HUR21WDDUBEMSLDIXZW1FAIHWSYXN","","145","img/flower2.png","76","146","3","1","3","2","1,0,0,1,1,0,1,0,1","0,0,1,1,0,1,0,1,1","2",""
"","html-keyboard-response","250","144155","0.0-250.0","38F5OAUN5OY072NRHMWCAZYFXTPH7Y","A2HSX08DWDYJU7","3HUR21WDDUBEMSLDIXZW1FAIHWSYXN","","null","<img src=""img/flower2.png"" style=""width:200px; border:14px solid green;"">","null","","","","","","","","",""
"","image-keyboard-response","251","144284","0.0-251.0","38F5OAUN5OY072NRHMWCAZYFXTPH7Y","A2HSX08DWDYJU7","3HUR21WDDUBEMSLDIXZW1FAIHWSYXN","","128","img/flower5.png","76","129","3","1","1","2","1,0,0,1,1,0,1,0,1","0,0,1,1,0,1,0,1,1","2",""
"","html-keyboard-response","252","144585","0.0-252.0","38F5OAUN5OY072NRHMWCAZYFXTPH7Y","A2HSX08DWDYJU7","3HUR21WDDUBEMSLDIXZW1FAIHWSYXN","","null","<img src=""img/flower5.png"" style=""width:200px; border:14px solid green;"">","null","","","","","","","","",""
"","image-keyboard-response","253","144636","0.0-253.0","38F5OAUN5OY072NRHMWCAZYFXTPH7Y","A2HSX08DWDYJU7","3HUR21WDDUBEMSLDIXZW1FAIHWSYXN","","49","img/flower5.png","76","49","3","1","1","2","1,0,0,1,1,0,1,0,1","0,0,1,1,0,1,0,1,1","2",""
"","html-keyboard-response","254","144939","0.0-254.0","38F5OAUN5OY072NRHMWCAZYFXTPH7Y","A2HSX08DWDYJU7","3HUR21WDDUBEMSLDIXZW1FAIHWSYXN","","null","<img src=""img/flower5.png"" style=""width:200px; border:14px solid green;"">","null","","","","","","","","",""
"","image-keyboard-response","255","145028","0.0-255.0","38F5OAUN5OY072NRHMWCAZYFXTPH7Y","A2HSX08DWDYJU7","3HUR21WDDUBEMSLDIXZW1FAIHWSYXN","","88","img/flower3.png","76","89","3","1","2","2","1,0,0,1,1,0,1,0,1","0,0,1,1,0,1,0,1,1","2",""
"","html-keyboard-response","256","145329","0.0-256.0","38F5OAUN5OY072NRHMWCAZYFXTPH7Y","A2HSX08DWDYJU7","3HUR21WDDUBEMSLDIXZW1FAIHWSYXN","","null","<img src=""img/flower3.png"" style=""width:200px; border:14px solid green;"">","null","","","","","","","","",""
"","image-keyboard-response","257","145379","0.0-257.0","38F5OAUN5OY072NRHMWCAZYFXTPH7Y","A2HSX08DWDYJU7","3HUR21WDDUBEMSLDIXZW1FAIHWSYXN","","50","img/flower5.png","76","51","3","1","1","2","1,0,0,1,1,0,1,0,1","0,0,1,1,0,1,0,1,1","2",""
"","html-keyboard-response","258","145683","0.0-258.0","38F5OAUN5OY072NRHMWCAZYFXTPH7Y","A2HSX08DWDYJU7","3HUR21WDDUBEMSLDIXZW1FAIHWSYXN","","null","<img src=""img/flower5.png"" style=""width:200px; border:14px solid green;"">","null","","","","","","","","",""
"","image-keyboard-response","259","145700","0.0-259.0","38F5OAUN5OY072NRHMWCAZYFXTPH7Y","A2HSX08DWDYJU7","3HUR21WDDUBEMSLDIXZW1FAIHWSYXN","","17","img/flower5.png","76","18","3","1","1","2","1,0,0,1,1,0,1,0,1","0,0,1,1,0,1,0,1,1","2",""
"","html-keyboard-response","260","146004","0.0-260.0","38F5OAUN5OY072NRHMWCAZYFXTPH7Y","A2HSX08DWDYJU7","3HUR21WDDUBEMSLDIXZW1FAIHWSYXN","","null","<img src=""img/flower5.png"" style=""width:200px; border:14px solid green;"">","null","","","","","","","","",""
"","image-keyboard-response","261","146284","0.0-261.0","38F5OAUN5OY072NRHMWCAZYFXTPH7Y","A2HSX08DWDYJU7","3HUR21WDDUBEMSLDIXZW1FAIHWSYXN","","278","img/flower3.png","76","280","3","1","2","2","1,0,0,1,1,0,1,0,1","0,0,1,1,0,1,0,1,1","2",""
"","html-keyboard-response","262","146588","0.0-262.0","38F5OAUN5OY072NRHMWCAZYFXTPH7Y","A2HSX08DWDYJU7","3HUR21WDDUBEMSLDIXZW1FAIHWSYXN","","null","<img src=""img/flower3.png"" style=""width:200px; border:14px solid green;"">","null","","","","","","","","",""
"","image-keyboard-response","263","146899","0.0-263.0","38F5OAUN5OY072NRHMWCAZYFXTPH7Y","A2HSX08DWDYJU7","3HUR21WDDUBEMSLDIXZW1FAIHWSYXN","","310","img/flower2.png","76","311","3","1","3","2","1,0,0,1,1,0,1,0,1","0,0,1,1,0,1,0,1,1","2",""
"","html-keyboard-response","264","147203","0.0-264.0","38F5OAUN5OY072NRHMWCAZYFXTPH7Y","A2HSX08DWDYJU7","3HUR21WDDUBEMSLDIXZW1FAIHWSYXN","","null","<img src=""img/flower2.png"" style=""width:200px; border:14px solid green;"">","null","","","","","","","","",""
"","image-keyboard-response","265","147299","0.0-265.0","38F5OAUN5OY072NRHMWCAZYFXTPH7Y","A2HSX08DWDYJU7","3HUR21WDDUBEMSLDIXZW1FAIHWSYXN","","96","img/flower2.png","76","97","3","1","3","2","1,0,0,1,1,0,1,0,1","0,0,1,1,0,1,0,1,1","2",""
"","html-keyboard-response","266","147601","0.0-266.0","38F5OAUN5OY072NRHMWCAZYFXTPH7Y","A2HSX08DWDYJU7","3HUR21WDDUBEMSLDIXZW1FAIHWSYXN","","null","<img src=""img/flower2.png"" style=""width:200px; border:14px solid green;"">","null","","","","","","","","",""
"","image-keyboard-response","267","147628","0.0-267.0","38F5OAUN5OY072NRHMWCAZYFXTPH7Y","A2HSX08DWDYJU7","3HUR21WDDUBEMSLDIXZW1FAIHWSYXN","","26","img/flower5.png","76","27","3","1","1","2","1,0,0,1,1,0,1,0,1","0,0,1,1,0,1,0,1,1","2",""
"","html-keyboard-response","268","147929","0.0-268.0","38F5OAUN5OY072NRHMWCAZYFXTPH7Y","A2HSX08DWDYJU7","3HUR21WDDUBEMSLDIXZW1FAIHWSYXN","","null","<img src=""img/flower5.png"" style=""width:200px; border:14px solid green;"">","null","","","","","","","","",""
"","image-keyboard-response","269","147980","0.0-269.0","38F5OAUN5OY072NRHMWCAZYFXTPH7Y","A2HSX08DWDYJU7","3HUR21WDDUBEMSLDIXZW1FAIHWSYXN","","50","img/flower5.png","76","51","3","1","1","2","1,0,0,1,1,0,1,0,1","0,0,1,1,0,1,0,1,1","2",""
"","html-keyboard-response","270","148282","0.0-270.0","38F5OAUN5OY072NRHMWCAZYFXTPH7Y","A2HSX08DWDYJU7","3HUR21WDDUBEMSLDIXZW1FAIHWSYXN","","null","<img src=""img/flower5.png"" style=""width:200px; border:14px solid green;"">","null","","","","","","","","",""
"","image-keyboard-response","271","148316","0.0-271.0","38F5OAUN5OY072NRHMWCAZYFXTPH7Y","A2HSX08DWDYJU7","3HUR21WDDUBEMSLDIXZW1FAIHWSYXN","","33","img/flower2.png","76","34","3","1","3","2","1,0,0,1,1,0,1,0,1","0,0,1,1,0,1,0,1,1","2",""
"","html-keyboard-response","272","148617","0.0-272.0","38F5OAUN5OY072NRHMWCAZYFXTPH7Y","A2HSX08DWDYJU7","3HUR21WDDUBEMSLDIXZW1FAIHWSYXN","","null","<img src=""img/flower2.png"" style=""width:200px; border:14px solid green;"">","null","","","","","","","","",""
"","image-keyboard-response","273","148635","0.0-273.0","38F5OAUN5OY072NRHMWCAZYFXTPH7Y","A2HSX08DWDYJU7","3HUR21WDDUBEMSLDIXZW1FAIHWSYXN","","17","img/flower2.png","76","18","3","1","3","2","1,0,0,1,1,0,1,0,1","0,0,1,1,0,1,0,1,1","2",""
"","html-keyboard-response","274","148937","0.0-274.0","38F5OAUN5OY072NRHMWCAZYFXTPH7Y","A2HSX08DWDYJU7","3HUR21WDDUBEMSLDIXZW1FAIHWSYXN","","null","<img src=""img/flower2.png"" style=""width:200px; border:14px solid green;"">","null","","","","","","","","",""
"","image-keyboard-response","275","148940","0.0-275.0","38F5OAUN5OY072NRHMWCAZYFXTPH7Y","A2HSX08DWDYJU7","3HUR21WDDUBEMSLDIXZW1FAIHWSYXN","","3","img/flower3.png","76","3","3","1","2","2","1,0,0,1,1,0,1,0,1","0,0,1,1,0,1,0,1,1","2",""
"","html-keyboard-response","276","149241","0.0-276.0","38F5OAUN5OY072NRHMWCAZYFXTPH7Y","A2HSX08DWDYJU7","3HUR21WDDUBEMSLDIXZW1FAIHWSYXN","","null","<img src=""img/flower3.png"" style=""width:200px; border:14px solid green;"">","null","","","","","","","","",""
"","image-keyboard-response","277","149244","0.0-277.0","38F5OAUN5OY072NRHMWCAZYFXTPH7Y","A2HSX08DWDYJU7","3HUR21WDDUBEMSLDIXZW1FAIHWSYXN","","2","img/flower5.png","76","3","3","1","1","2","1,0,0,1,1,0,1,0,1","0,0,1,1,0,1,0,1,1","2",""
"","html-keyboard-response","278","149545","0.0-278.0","38F5OAUN5OY072NRHMWCAZYFXTPH7Y","A2HSX08DWDYJU7","3HUR21WDDUBEMSLDIXZW1FAIHWSYXN","","null","<img src=""img/flower5.png"" style=""width:200px; border:14px solid green;"">","null","","","","","","","","",""
"","image-keyboard-response","279","149572","0.0-279.0","38F5OAUN5OY072NRHMWCAZYFXTPH7Y","A2HSX08DWDYJU7","3HUR21WDDUBEMSLDIXZW1FAIHWSYXN","","27","img/flower2.png","76","27","3","1","3","2","1,0,0,1,1,0,1,0,1","0,0,1,1,0,1,0,1,1","2",""
"","html-keyboard-response","280","149873","0.0-280.0","38F5OAUN5OY072NRHMWCAZYFXTPH7Y","A2HSX08DWDYJU7","3HUR21WDDUBEMSLDIXZW1FAIHWSYXN","","null","<img src=""img/flower2.png"" style=""width:200px; border:14px solid green;"">","null","","","","","","","","",""
"","image-keyboard-response","281","149883","0.0-281.0","38F5OAUN5OY072NRHMWCAZYFXTPH7Y","A2HSX08DWDYJU7","3HUR21WDDUBEMSLDIXZW1FAIHWSYXN","","10","img/flower2.png","76","10","3","1","3","2","1,0,0,1,1,0,1,0,1","0,0,1,1,0,1,0,1,1","2",""
"","html-keyboard-response","282","150185","0.0-282.0","38F5OAUN5OY072NRHMWCAZYFXTPH7Y","A2HSX08DWDYJU7","3HUR21WDDUBEMSLDIXZW1FAIHWSYXN","","null","<img src=""img/flower2.png"" style=""width:200px; border:14px solid green;"">","null","","","","","","","","",""
"","image-keyboard-response","283","150213","0.0-283.0","38F5OAUN5OY072NRHMWCAZYFXTPH7Y","A2HSX08DWDYJU7","3HUR21WDDUBEMSLDIXZW1FAIHWSYXN","","27","img/flower3.png","76","28","3","1","2","2","1,0,0,1,1,0,1,0,1","0,0,1,1,0,1,0,1,1","2",""
"","html-keyboard-response","284","150515","0.0-284.0","38F5OAUN5OY072NRHMWCAZYFXTPH7Y","A2HSX08DWDYJU7","3HUR21WDDUBEMSLDIXZW1FAIHWSYXN","","null","<img src=""img/flower3.png"" style=""width:200px; border:14px solid green;"">","null","","","","","","","","",""
"","image-keyboard-response","285","150580","0.0-285.0","38F5OAUN5OY072NRHMWCAZYFXTPH7Y","A2HSX08DWDYJU7","3HUR21WDDUBEMSLDIXZW1FAIHWSYXN","","63","img/flower5.png","76","64","3","1","1","2","1,0,0,1,1,0,1,0,1","0,0,1,1,0,1,0,1,1","2",""
"","html-keyboard-response","286","150880","0.0-286.0","38F5OAUN5OY072NRHMWCAZYFXTPH7Y","A2HSX08DWDYJU7","3HUR21WDDUBEMSLDIXZW1FAIHWSYXN","","null","<img src=""img/flower5.png"" style=""width:200px; border:14px solid green;"">","null","","","","","","","","",""
"","image-keyboard-response","287","150939","0.0-287.0","38F5OAUN5OY072NRHMWCAZYFXTPH7Y","A2HSX08DWDYJU7","3HUR21WDDUBEMSLDIXZW1FAIHWSYXN","","58","img/flower5.png","76","58","3","1","1","2","1,0,0,1,1,0,1,0,1","0,0,1,1,0,1,0,1,1","2",""
"","html-keyboard-response","288","151243","0.0-288.0","38F5OAUN5OY072NRHMWCAZYFXTPH7Y","A2HSX08DWDYJU7","3HUR21WDDUBEMSLDIXZW1FAIHWSYXN","","null","<img src=""img/flower5.png"" style=""width:200px; border:14px solid green;"">","null","","","","","","","","",""
"","image-keyboard-response","289","151467","0.0-289.0","38F5OAUN5OY072NRHMWCAZYFXTPH7Y","A2HSX08DWDYJU7","3HUR21WDDUBEMSLDIXZW1FAIHWSYXN","","223","img/flower5.png","76","224","3","1","1","2","1,0,0,1,1,0,1,0,1","0,0,1,1,0,1,0,1,1","2",""
"","html-keyboard-response","290","151770","0.0-290.0","38F5OAUN5OY072NRHMWCAZYFXTPH7Y","A2HSX08DWDYJU7","3HUR21WDDUBEMSLDIXZW1FAIHWSYXN","","null","<img src=""img/flower5.png"" style=""width:200px; border:14px solid green;"">","null","","","","","","","","",""
"","image-keyboard-response","291","151883","0.0-291.0","38F5OAUN5OY072NRHMWCAZYFXTPH7Y","A2HSX08DWDYJU7","3HUR21WDDUBEMSLDIXZW1FAIHWSYXN","","114","img/flower3.png","76","115","3","1","2","2","1,0,0,1,1,0,1,0,1","0,0,1,1,0,1,0,1,1","2",""
"","html-keyboard-response","292","152186","0.0-292.0","38F5OAUN5OY072NRHMWCAZYFXTPH7Y","A2HSX08DWDYJU7","3HUR21WDDUBEMSLDIXZW1FAIHWSYXN","","null","<img src=""img/flower3.png"" style=""width:200px; border:14px solid green;"">","null","","","","","","","","",""
"","image-keyboard-response","293","152284","0.0-293.0","38F5OAUN5OY072NRHMWCAZYFXTPH7Y","A2HSX08DWDYJU7","3HUR21WDDUBEMSLDIXZW1FAIHWSYXN","","96","img/flower3.png","76","96","3","1","2","2","1,0,0,1,1,0,1,0,1","0,0,1,1,0,1,0,1,1","2",""
"","html-keyboard-response","294","152587","0.0-294.0","38F5OAUN5OY072NRHMWCAZYFXTPH7Y","A2HSX08DWDYJU7","3HUR21WDDUBEMSLDIXZW1FAIHWSYXN","","null","<img src=""img/flower3.png"" style=""width:200px; border:14px solid green;"">","null","","","","","","","","",""
"","image-keyboard-response","295","152660","0.0-295.0","38F5OAUN5OY072NRHMWCAZYFXTPH7Y","A2HSX08DWDYJU7","3HUR21WDDUBEMSLDIXZW1FAIHWSYXN","","72","img/flower2.png","76","72","3","1","3","2","1,0,0,1,1,0,1,0,1","0,0,1,1,0,1,0,1,1","2",""
"","html-keyboard-response","296","152964","0.0-296.0","38F5OAUN5OY072NRHMWCAZYFXTPH7Y","A2HSX08DWDYJU7","3HUR21WDDUBEMSLDIXZW1FAIHWSYXN","","null","<img src=""img/flower2.png"" style=""width:200px; border:14px solid green;"">","null","","","","","","","","",""
"","image-keyboard-response","297","153003","0.0-297.0","38F5OAUN5OY072NRHMWCAZYFXTPH7Y","A2HSX08DWDYJU7","3HUR21WDDUBEMSLDIXZW1FAIHWSYXN","","39","img/flower5.png","76","39","3","1","1","2","1,0,0,1,1,0,1,0,1","0,0,1,1,0,1,0,1,1","2",""
"","html-keyboard-response","298","153304","0.0-298.0","38F5OAUN5OY072NRHMWCAZYFXTPH7Y","A2HSX08DWDYJU7","3HUR21WDDUBEMSLDIXZW1FAIHWSYXN","","null","<img src=""img/flower5.png"" style=""width:200px; border:14px solid green;"">","null","","","","","","","","",""
"","image-keyboard-response","299","153339","0.0-299.0","38F5OAUN5OY072NRHMWCAZYFXTPH7Y","A2HSX08DWDYJU7","3HUR21WDDUBEMSLDIXZW1FAIHWSYXN","","34","img/flower2.png","76","35","3","1","3","2","1,0,0,1,1,0,1,0,1","0,0,1,1,0,1,0,1,1","2",""
"","html-keyboard-response","300","153644","0.0-300.0","38F5OAUN5OY072NRHMWCAZYFXTPH7Y","A2HSX08DWDYJU7","3HUR21WDDUBEMSLDIXZW1FAIHWSYXN","","null","<img src=""img/flower2.png"" style=""width:200px; border:14px solid green;"">","null","","","","","","","","",""
"","image-keyboard-response","301","153683","0.0-301.0","38F5OAUN5OY072NRHMWCAZYFXTPH7Y","A2HSX08DWDYJU7","3HUR21WDDUBEMSLDIXZW1FAIHWSYXN","","40","img/flower2.png","76","40","3","1","3","2","1,0,0,1,1,0,1,0,1","0,0,1,1,0,1,0,1,1","2",""
"","html-keyboard-response","302","153989","0.0-302.0","38F5OAUN5OY072NRHMWCAZYFXTPH7Y","A2HSX08DWDYJU7","3HUR21WDDUBEMSLDIXZW1FAIHWSYXN","","null","<img src=""img/flower2.png"" style=""width:200px; border:14px solid green;"">","null","","","","","","","","",""
"","image-keyboard-response","303","154012","0.0-303.0","38F5OAUN5OY072NRHMWCAZYFXTPH7Y","A2HSX08DWDYJU7","3HUR21WDDUBEMSLDIXZW1FAIHWSYXN","","21","img/flower2.png","76","22","3","1","3","2","1,0,0,1,1,0,1,0,1","0,0,1,1,0,1,0,1,1","2",""
"","html-keyboard-response","304","154315","0.0-304.0","38F5OAUN5OY072NRHMWCAZYFXTPH7Y","A2HSX08DWDYJU7","3HUR21WDDUBEMSLDIXZW1FAIHWSYXN","","null","<img src=""img/flower2.png"" style=""width:200px; border:14px solid green;"">","null","","","","","","","","",""
"","image-keyboard-response","305","154364","0.0-305.0","38F5OAUN5OY072NRHMWCAZYFXTPH7Y","A2HSX08DWDYJU7","3HUR21WDDUBEMSLDIXZW1FAIHWSYXN","","48","img/flower2.png","76","48","3","1","3","2","1,0,0,1,1,0,1,0,1","0,0,1,1,0,1,0,1,1","2",""
"","html-keyboard-response","306","154667","0.0-306.0","38F5OAUN5OY072NRHMWCAZYFXTPH7Y","A2HSX08DWDYJU7","3HUR21WDDUBEMSLDIXZW1FAIHWSYXN","","null","<img src=""img/flower2.png"" style=""width:200px; border:14px solid green;"">","null","","","","","","","","",""
"","image-keyboard-response","307","154715","0.0-307.0","38F5OAUN5OY072NRHMWCAZYFXTPH7Y","A2HSX08DWDYJU7","3HUR21WDDUBEMSLDIXZW1FAIHWSYXN","","48","img/flower3.png","76","49","3","1","2","2","1,0,0,1,1,0,1,0,1","0,0,1,1,0,1,0,1,1","2",""
"","html-keyboard-response","308","155016","0.0-308.0","38F5OAUN5OY072NRHMWCAZYFXTPH7Y","A2HSX08DWDYJU7","3HUR21WDDUBEMSLDIXZW1FAIHWSYXN","","null","<img src=""img/flower3.png"" style=""width:200px; border:14px solid green;"">","null","","","","","","","","",""
"","image-keyboard-response","309","155068","0.0-309.0","38F5OAUN5OY072NRHMWCAZYFXTPH7Y","A2HSX08DWDYJU7","3HUR21WDDUBEMSLDIXZW1FAIHWSYXN","","50","img/flower3.png","76","51","3","1","2","2","1,0,0,1,1,0,1,0,1","0,0,1,1,0,1,0,1,1","2",""
"","html-keyboard-response","310","155371","0.0-310.0","38F5OAUN5OY072NRHMWCAZYFXTPH7Y","A2HSX08DWDYJU7","3HUR21WDDUBEMSLDIXZW1FAIHWSYXN","","null","<img src=""img/flower3.png"" style=""width:200px; border:14px solid green;"">","null","","","","","","","","",""
"","image-keyboard-response","311","155428","0.0-311.0","38F5OAUN5OY072NRHMWCAZYFXTPH7Y","A2HSX08DWDYJU7","3HUR21WDDUBEMSLDIXZW1FAIHWSYXN","","57","img/flower5.png","76","57","3","1","1","2","1,0,0,1,1,0,1,0,1","0,0,1,1,0,1,0,1,1","2",""
"","html-keyboard-response","312","155730","0.0-312.0","38F5OAUN5OY072NRHMWCAZYFXTPH7Y","A2HSX08DWDYJU7","3HUR21WDDUBEMSLDIXZW1FAIHWSYXN","","null","<img src=""img/flower5.png"" style=""width:200px; border:14px solid green;"">","null","","","","","","","","",""
"","image-keyboard-response","313","155780","0.0-313.0","38F5OAUN5OY072NRHMWCAZYFXTPH7Y","A2HSX08DWDYJU7","3HUR21WDDUBEMSLDIXZW1FAIHWSYXN","","49","img/flower5.png","76","49","3","1","1","2","1,0,0,1,1,0,1,0,1","0,0,1,1,0,1,0,1,1","2",""
"","html-keyboard-response","314","156082","0.0-314.0","38F5OAUN5OY072NRHMWCAZYFXTPH7Y","A2HSX08DWDYJU7","3HUR21WDDUBEMSLDIXZW1FAIHWSYXN","","null","<img src=""img/flower5.png"" style=""width:200px; border:14px solid green;"">","null","","","","","","","","",""
"","image-keyboard-response","315","156148","0.0-315.0","38F5OAUN5OY072NRHMWCAZYFXTPH7Y","A2HSX08DWDYJU7","3HUR21WDDUBEMSLDIXZW1FAIHWSYXN","","63","img/flower5.png","76","65","3","1","1","2","1,0,0,1,1,0,1,0,1","0,0,1,1,0,1,0,1,1","2",""
"","html-keyboard-response","316","156448","0.0-316.0","38F5OAUN5OY072NRHMWCAZYFXTPH7Y","A2HSX08DWDYJU7","3HUR21WDDUBEMSLDIXZW1FAIHWSYXN","","null","<img src=""img/flower5.png"" style=""width:200px; border:14px solid green;"">","null","","","","","","","","",""
"","image-keyboard-response","317","156507","0.0-317.0","38F5OAUN5OY072NRHMWCAZYFXTPH7Y","A2HSX08DWDYJU7","3HUR21WDDUBEMSLDIXZW1FAIHWSYXN","","57","img/flower3.png","76","58","3","1","2","2","1,0,0,1,1,0,1,0,1","0,0,1,1,0,1,0,1,1","2",""
"","html-keyboard-response","318","156811","0.0-318.0","38F5OAUN5OY072NRHMWCAZYFXTPH7Y","A2HSX08DWDYJU7","3HUR21WDDUBEMSLDIXZW1FAIHWSYXN","","null","<img src=""img/flower3.png"" style=""width:200px; border:14px solid green;"">","null","","","","","","","","",""
"","image-keyboard-response","319","156835","0.0-319.0","38F5OAUN5OY072NRHMWCAZYFXTPH7Y","A2HSX08DWDYJU7","3HUR21WDDUBEMSLDIXZW1FAIHWSYXN","","22","img/flower3.png","76","23","3","1","2","2","1,0,0,1,1,0,1,0,1","0,0,1,1,0,1,0,1,1","2",""
"","html-keyboard-response","320","157137","0.0-320.0","38F5OAUN5OY072NRHMWCAZYFXTPH7Y","A2HSX08DWDYJU7","3HUR21WDDUBEMSLDIXZW1FAIHWSYXN","","null","<img src=""img/flower3.png"" style=""width:200px; border:14px solid green;"">","null","","","","","","","","",""
"","image-keyboard-response","321","157204","0.0-321.0","38F5OAUN5OY072NRHMWCAZYFXTPH7Y","A2HSX08DWDYJU7","3HUR21WDDUBEMSLDIXZW1FAIHWSYXN","","66","img/flower5.png","76","66","3","1","1","2","1,0,0,1,1,0,1,0,1","0,0,1,1,0,1,0,1,1","2",""
"","html-keyboard-response","322","157506","0.0-322.0","38F5OAUN5OY072NRHMWCAZYFXTPH7Y","A2HSX08DWDYJU7","3HUR21WDDUBEMSLDIXZW1FAIHWSYXN","","null","<img src=""img/flower5.png"" style=""width:200px; border:14px solid green;"">","null","","","","","","","","",""
"","image-keyboard-response","323","157579","0.0-323.0","38F5OAUN5OY072NRHMWCAZYFXTPH7Y","A2HSX08DWDYJU7","3HUR21WDDUBEMSLDIXZW1FAIHWSYXN","","72","img/flower3.png","76","72","3","1","2","2","1,0,0,1,1,0,1,0,1","0,0,1,1,0,1,0,1,1","2",""
"","html-keyboard-response","324","157880","0.0-324.0","38F5OAUN5OY072NRHMWCAZYFXTPH7Y","A2HSX08DWDYJU7","3HUR21WDDUBEMSLDIXZW1FAIHWSYXN","","null","<img src=""img/flower3.png"" style=""width:200px; border:14px solid green;"">","null","","","","","","","","",""
"","image-keyboard-response","325","157964","0.0-325.0","38F5OAUN5OY072NRHMWCAZYFXTPH7Y","A2HSX08DWDYJU7","3HUR21WDDUBEMSLDIXZW1FAIHWSYXN","","81","img/flower2.png","76","82","3","1","3","2","1,0,0,1,1,0,1,0,1","0,0,1,1,0,1,0,1,1","2",""
"","html-keyboard-response","326","158265","0.0-326.0","38F5OAUN5OY072NRHMWCAZYFXTPH7Y","A2HSX08DWDYJU7","3HUR21WDDUBEMSLDIXZW1FAIHWSYXN","","null","<img src=""img/flower2.png"" style=""width:200px; border:14px solid green;"">","null","","","","","","","","",""
"","image-keyboard-response","327","158364","0.0-327.0","38F5OAUN5OY072NRHMWCAZYFXTPH7Y","A2HSX08DWDYJU7","3HUR21WDDUBEMSLDIXZW1FAIHWSYXN","","99","img/flower5.png","76","99","3","1","1","2","1,0,0,1,1,0,1,0,1","0,0,1,1,0,1,0,1,1","2",""
"","html-keyboard-response","328","158665","0.0-328.0","38F5OAUN5OY072NRHMWCAZYFXTPH7Y","A2HSX08DWDYJU7","3HUR21WDDUBEMSLDIXZW1FAIHWSYXN","","null","<img src=""img/flower5.png"" style=""width:200px; border:14px solid green;"">","null","","","","","","","","",""
"","image-keyboard-response","329","158739","0.0-329.0","38F5OAUN5OY072NRHMWCAZYFXTPH7Y","A2HSX08DWDYJU7","3HUR21WDDUBEMSLDIXZW1FAIHWSYXN","","73","img/flower3.png","76","74","3","1","2","2","1,0,0,1,1,0,1,0,1","0,0,1,1,0,1,0,1,1","2",""
"","html-keyboard-response","330","159040","0.0-330.0","38F5OAUN5OY072NRHMWCAZYFXTPH7Y","A2HSX08DWDYJU7","3HUR21WDDUBEMSLDIXZW1FAIHWSYXN","","null","<img src=""img/flower3.png"" style=""width:200px; border:14px solid green;"">","null","","","","","","","","",""
"","image-keyboard-response","331","159060","0.0-331.0","38F5OAUN5OY072NRHMWCAZYFXTPH7Y","A2HSX08DWDYJU7","3HUR21WDDUBEMSLDIXZW1FAIHWSYXN","","17","img/flower5.png","76","18","3","1","1","2","1,0,0,1,1,0,1,0,1","0,0,1,1,0,1,0,1,1","2",""
"","html-keyboard-response","332","159361","0.0-332.0","38F5OAUN5OY072NRHMWCAZYFXTPH7Y","A2HSX08DWDYJU7","3HUR21WDDUBEMSLDIXZW1FAIHWSYXN","","null","<img src=""img/flower5.png"" style=""width:200px; border:14px solid green;"">","null","","","","","","","","",""
"","image-keyboard-response","333","159604","0.0-333.0","38F5OAUN5OY072NRHMWCAZYFXTPH7Y","A2HSX08DWDYJU7","3HUR21WDDUBEMSLDIXZW1FAIHWSYXN","","241","img/flower3.png","76","242","3","1","2","2","1,0,0,1,1,0,1,0,1","0,0,1,1,0,1,0,1,1","2",""
"","html-keyboard-response","334","159904","0.0-334.0","38F5OAUN5OY072NRHMWCAZYFXTPH7Y","A2HSX08DWDYJU7","3HUR21WDDUBEMSLDIXZW1FAIHWSYXN","","null","<img src=""img/flower3.png"" style=""width:200px; border:14px solid green;"">","null","","","","","","","","",""
"","image-keyboard-response","335","159932","0.0-335.0","38F5OAUN5OY072NRHMWCAZYFXTPH7Y","A2HSX08DWDYJU7","3HUR21WDDUBEMSLDIXZW1FAIHWSYXN","","26","img/flower2.png","76","27","3","1","3","2","1,0,0,1,1,0,1,0,1","0,0,1,1,0,1,0,1,1","2",""
"","html-keyboard-response","336","160235","0.0-336.0","38F5OAUN5OY072NRHMWCAZYFXTPH7Y","A2HSX08DWDYJU7","3HUR21WDDUBEMSLDIXZW1FAIHWSYXN","","null","<img src=""img/flower2.png"" style=""width:200px; border:14px solid green;"">","null","","","","","","","","",""
"","image-keyboard-response","337","160268","0.0-337.0","38F5OAUN5OY072NRHMWCAZYFXTPH7Y","A2HSX08DWDYJU7","3HUR21WDDUBEMSLDIXZW1FAIHWSYXN","","32","img/flower3.png","76","32","3","1","2","2","1,0,0,1,1,0,1,0,1","0,0,1,1,0,1,0,1,1","2",""
"","html-keyboard-response","338","160572","0.0-338.0","38F5OAUN5OY072NRHMWCAZYFXTPH7Y","A2HSX08DWDYJU7","3HUR21WDDUBEMSLDIXZW1FAIHWSYXN","","null","<img src=""img/flower3.png"" style=""width:200px; border:14px solid green;"">","null","","","","","","","","",""
"","image-keyboard-response","339","160636","0.0-339.0","38F5OAUN5OY072NRHMWCAZYFXTPH7Y","A2HSX08DWDYJU7","3HUR21WDDUBEMSLDIXZW1FAIHWSYXN","","63","img/flower3.png","76","64","3","1","2","2","1,0,0,1,1,0,1,0,1","0,0,1,1,0,1,0,1,1","2",""
"","html-keyboard-response","340","160938","0.0-340.0","38F5OAUN5OY072NRHMWCAZYFXTPH7Y","A2HSX08DWDYJU7","3HUR21WDDUBEMSLDIXZW1FAIHWSYXN","","null","<img src=""img/flower3.png"" style=""width:200px; border:14px solid green;"">","null","","","","","","","","",""
"","image-keyboard-response","341","161004","0.0-341.0","38F5OAUN5OY072NRHMWCAZYFXTPH7Y","A2HSX08DWDYJU7","3HUR21WDDUBEMSLDIXZW1FAIHWSYXN","","65","img/flower3.png","76","66","3","1","2","2","1,0,0,1,1,0,1,0,1","0,0,1,1,0,1,0,1,1","2",""
"","html-keyboard-response","342","161304","0.0-342.0","38F5OAUN5OY072NRHMWCAZYFXTPH7Y","A2HSX08DWDYJU7","3HUR21WDDUBEMSLDIXZW1FAIHWSYXN","","null","<img src=""img/flower3.png"" style=""width:200px; border:14px solid green;"">","null","","","","","","","","",""
"","image-keyboard-response","343","161379","0.0-343.0","38F5OAUN5OY072NRHMWCAZYFXTPH7Y","A2HSX08DWDYJU7","3HUR21WDDUBEMSLDIXZW1FAIHWSYXN","","74","img/flower5.png","76","74","3","1","1","2","1,0,0,1,1,0,1,0,1","0,0,1,1,0,1,0,1,1","2",""
"","html-keyboard-response","344","161681","0.0-344.0","38F5OAUN5OY072NRHMWCAZYFXTPH7Y","A2HSX08DWDYJU7","3HUR21WDDUBEMSLDIXZW1FAIHWSYXN","","null","<img src=""img/flower5.png"" style=""width:200px; border:14px solid green;"">","null","","","","","","","","",""
"","image-keyboard-response","345","161771","0.0-345.0","38F5OAUN5OY072NRHMWCAZYFXTPH7Y","A2HSX08DWDYJU7","3HUR21WDDUBEMSLDIXZW1FAIHWSYXN","","89","img/flower2.png","76","90","3","1","3","2","1,0,0,1,1,0,1,0,1","0,0,1,1,0,1,0,1,1","2",""
"","html-keyboard-response","346","162073","0.0-346.0","38F5OAUN5OY072NRHMWCAZYFXTPH7Y","A2HSX08DWDYJU7","3HUR21WDDUBEMSLDIXZW1FAIHWSYXN","","null","<img src=""img/flower2.png"" style=""width:200px; border:14px solid green;"">","null","","","","","","","","",""
"","image-keyboard-response","347","162131","0.0-347.0","38F5OAUN5OY072NRHMWCAZYFXTPH7Y","A2HSX08DWDYJU7","3HUR21WDDUBEMSLDIXZW1FAIHWSYXN","","58","img/flower2.png","76","58","3","1","3","2","1,0,0,1,1,0,1,0,1","0,0,1,1,0,1,0,1,1","2",""
"","html-keyboard-response","348","162435","0.0-348.0","38F5OAUN5OY072NRHMWCAZYFXTPH7Y","A2HSX08DWDYJU7","3HUR21WDDUBEMSLDIXZW1FAIHWSYXN","","null","<img src=""img/flower2.png"" style=""width:200px; border:14px solid green;"">","null","","","","","","","","",""
"","image-keyboard-response","349","162507","0.0-349.0","38F5OAUN5OY072NRHMWCAZYFXTPH7Y","A2HSX08DWDYJU7","3HUR21WDDUBEMSLDIXZW1FAIHWSYXN","","71","img/flower2.png","76","73","3","1","3","2","1,0,0,1,1,0,1,0,1","0,0,1,1,0,1,0,1,1","2",""
"","html-keyboard-response","350","162809","0.0-350.0","38F5OAUN5OY072NRHMWCAZYFXTPH7Y","A2HSX08DWDYJU7","3HUR21WDDUBEMSLDIXZW1FAIHWSYXN","","null","<img src=""img/flower2.png"" style=""width:200px; border:14px solid green;"">","null","","","","","","","","",""
"","image-keyboard-response","351","162859","0.0-351.0","38F5OAUN5OY072NRHMWCAZYFXTPH7Y","A2HSX08DWDYJU7","3HUR21WDDUBEMSLDIXZW1FAIHWSYXN","","49","img/flower5.png","76","50","3","1","1","2","1,0,0,1,1,0,1,0,1","0,0,1,1,0,1,0,1,1","2",""
"","html-keyboard-response","352","163160","0.0-352.0","38F5OAUN5OY072NRHMWCAZYFXTPH7Y","A2HSX08DWDYJU7","3HUR21WDDUBEMSLDIXZW1FAIHWSYXN","","null","<img src=""img/flower5.png"" style=""width:200px; border:14px solid green;"">","null","","","","","","","","",""
"","image-keyboard-response","353","163219","0.0-353.0","38F5OAUN5OY072NRHMWCAZYFXTPH7Y","A2HSX08DWDYJU7","3HUR21WDDUBEMSLDIXZW1FAIHWSYXN","","58","img/flower5.png","76","58","3","1","1","2","1,0,0,1,1,0,1,0,1","0,0,1,1,0,1,0,1,1","2",""
"","html-keyboard-response","354","163524","0.0-354.0","38F5OAUN5OY072NRHMWCAZYFXTPH7Y","A2HSX08DWDYJU7","3HUR21WDDUBEMSLDIXZW1FAIHWSYXN","","null","<img src=""img/flower5.png"" style=""width:200px; border:14px solid green;"">","null","","","","","","","","",""
"","image-keyboard-response","355","163595","0.0-355.0","38F5OAUN5OY072NRHMWCAZYFXTPH7Y","A2HSX08DWDYJU7","3HUR21WDDUBEMSLDIXZW1FAIHWSYXN","","72","img/flower2.png","76","72","3","1","3","2","1,0,0,1,1,0,1,0,1","0,0,1,1,0,1,0,1,1","2",""
"","html-keyboard-response","356","163896","0.0-356.0","38F5OAUN5OY072NRHMWCAZYFXTPH7Y","A2HSX08DWDYJU7","3HUR21WDDUBEMSLDIXZW1FAIHWSYXN","","null","<img src=""img/flower2.png"" style=""width:200px; border:14px solid green;"">","null","","","","","","","","",""
"","image-keyboard-response","357","163987","0.0-357.0","38F5OAUN5OY072NRHMWCAZYFXTPH7Y","A2HSX08DWDYJU7","3HUR21WDDUBEMSLDIXZW1FAIHWSYXN","","90","img/flower2.png","76","91","3","1","3","2","1,0,0,1,1,0,1,0,1","0,0,1,1,0,1,0,1,1","2",""
"","html-keyboard-response","358","164293","0.0-358.0","38F5OAUN5OY072NRHMWCAZYFXTPH7Y","A2HSX08DWDYJU7","3HUR21WDDUBEMSLDIXZW1FAIHWSYXN","","null","<img src=""img/flower2.png"" style=""width:200px; border:14px solid green;"">","null","","","","","","","","",""
"","image-keyboard-response","359","164355","0.0-359.0","38F5OAUN5OY072NRHMWCAZYFXTPH7Y","A2HSX08DWDYJU7","3HUR21WDDUBEMSLDIXZW1FAIHWSYXN","","61","img/flower5.png","76","63","3","1","1","2","1,0,0,1,1,0,1,0,1","0,0,1,1,0,1,0,1,1","2",""
"","html-keyboard-response","360","164656","0.0-360.0","38F5OAUN5OY072NRHMWCAZYFXTPH7Y","A2HSX08DWDYJU7","3HUR21WDDUBEMSLDIXZW1FAIHWSYXN","","null","<img src=""img/flower5.png"" style=""width:200px; border:14px solid green;"">","null","","","","","","","","",""
"","image-keyboard-response","361","164740","0.0-361.0","38F5OAUN5OY072NRHMWCAZYFXTPH7Y","A2HSX08DWDYJU7","3HUR21WDDUBEMSLDIXZW1FAIHWSYXN","","83","img/flower3.png","76","83","3","1","2","2","1,0,0,1,1,0,1,0,1","0,0,1,1,0,1,0,1,1","2",""
"","html-keyboard-response","362","165041","0.0-362.0","38F5OAUN5OY072NRHMWCAZYFXTPH7Y","A2HSX08DWDYJU7","3HUR21WDDUBEMSLDIXZW1FAIHWSYXN","","null","<img src=""img/flower3.png"" style=""width:200px; border:14px solid green;"">","null","","","","","","","","",""
"","instructions","363","169331","0.0-363.0","38F5OAUN5OY072NRHMWCAZYFXTPH7Y","A2HSX08DWDYJU7","3HUR21WDDUBEMSLDIXZW1FAIHWSYXN","[{""page_index"":0,""viewing_time"":4289}]","4289","","","","","","","","","","",""
"","survey-text","364","178732","0.0-364.0","38F5OAUN5OY072NRHMWCAZYFXTPH7Y","A2HSX08DWDYJU7","3HUR21WDDUBEMSLDIXZW1FAIHWSYXN","","9395","","","","","","","","","","","{""Q0"":""A2HSX08DWDYJU7""}"
