"success","trial_type","trial_index","time_elapsed","internal_node_id","assignmentID","mturkID","hitID","view_history","rt","stimulus","key_press","reactionTime","a","r","s","cond","reward_cond","reward_cond_actual","reward_matrix_idx","responses"
"true","fullscreen","0","140744","0.0-0.0","3570Y55XZQ55MQOHKP4U2C6BMNWGY0","A2JMEQ3KQFQCRM","3566S7OX5D5NH74JOVOPTTMK8IR17K","","","","","","","","","","","","",""
"","instructions","1","150677","0.0-1.0","3570Y55XZQ55MQOHKP4U2C6BMNWGY0","A2JMEQ3KQFQCRM","3566S7OX5D5NH74JOVOPTTMK8IR17K","[{""page_index"":0,""viewing_time"":1400},{""page_index"":1,""viewing_time"":980.6999999880791},{""page_index"":2,""viewing_time"":1240.5},{""page_index"":3,""viewing_time"":573.9000000357628},{""page_index"":4,""viewing_time"":1521.5},{""page_index"":5,""viewing_time"":1168.199999988079},{""page_index"":6,""viewing_time"":1481},{""page_index"":7,""viewing_time"":1562.699999988079}]","9930.300000011921","","","","","","","","","","",""
"","image-keyboard-response","2","151833","0.0-2.0","3570Y55XZQ55MQOHKP4U2C6BMNWGY0","A2JMEQ3KQFQCRM","3566S7OX5D5NH74JOVOPTTMK8IR17K","","1153.5999999642372","img/flower5.png","74","1155.4000000357628","1","0","3","2","1,0,0,1,1,0,1,0,1","0,0,1,1,0,1,0,1,1","2",""
"","html-keyboard-response","3","152138","0.0-3.0","3570Y55XZQ55MQOHKP4U2C6BMNWGY0","A2JMEQ3KQFQCRM","3566S7OX5D5NH74JOVOPTTMK8IR17K","","null","<img src=""img/flower5.png"" style=""width:200px;border:14px solid red;"">","null","","","","","","","","",""
"","image-keyboard-response","4","152618","0.0-4.0","3570Y55XZQ55MQOHKP4U2C6BMNWGY0","A2JMEQ3KQFQCRM","3566S7OX5D5NH74JOVOPTTMK8IR17K","","478.4000000357628","img/flower6.png","74","480.10000002384186","1","0","1","2","1,0,0,1,1,0,1,0,1","0,0,1,1,0,1,0,1,1","2",""
"","html-keyboard-response","5","152921","0.0-5.0","3570Y55XZQ55MQOHKP4U2C6BMNWGY0","A2JMEQ3KQFQCRM","3566S7OX5D5NH74JOVOPTTMK8IR17K","","null","<img src=""img/flower6.png"" style=""width:200px;border:14px solid red;"">","null","","","","","","","","",""
"","image-keyboard-response","6","153341","0.0-6.0","3570Y55XZQ55MQOHKP4U2C6BMNWGY0","A2JMEQ3KQFQCRM","3566S7OX5D5NH74JOVOPTTMK8IR17K","","418.0999999642372","img/flower4.png","74","419.39999997615814","1","1","2","2","1,0,0,1,1,0,1,0,1","0,0,1,1,0,1,0,1,1","2",""
"","html-keyboard-response","7","153644","0.0-7.0","3570Y55XZQ55MQOHKP4U2C6BMNWGY0","A2JMEQ3KQFQCRM","3566S7OX5D5NH74JOVOPTTMK8IR17K","","null","<img src=""img/flower4.png"" style=""width:200px; border:14px solid green;"">","null","","","","","","","","",""
"","image-keyboard-response","8","154183","0.0-8.0","3570Y55XZQ55MQOHKP4U2C6BMNWGY0","A2JMEQ3KQFQCRM","3566S7OX5D5NH74JOVOPTTMK8IR17K","","537.6000000238419","img/flower5.png","75","539.0999999642372","2","1","3","2","1,0,0,1,1,0,1,0,1","0,0,1,1,0,1,0,1,1","2",""
"","html-keyboard-response","9","154487","0.0-9.0","3570Y55XZQ55MQOHKP4U2C6BMNWGY0","A2JMEQ3KQFQCRM","3566S7OX5D5NH74JOVOPTTMK8IR17K","","null","<img src=""img/flower5.png"" style=""width:200px; border:14px solid green;"">","null","","","","","","","","",""
"","image-keyboard-response","10","154907","0.0-10.0","3570Y55XZQ55MQOHKP4U2C6BMNWGY0","A2JMEQ3KQFQCRM","3566S7OX5D5NH74JOVOPTTMK8IR17K","","417.4000000357628","img/flower4.png","74","419","1","1","2","2","1,0,0,1,1,0,1,0,1","0,0,1,1,0,1,0,1,1","2",""
"","html-keyboard-response","11","155210","0.0-11.0","3570Y55XZQ55MQOHKP4U2C6BMNWGY0","A2JMEQ3KQFQCRM","3566S7OX5D5NH74JOVOPTTMK8IR17K","","null","<img src=""img/flower4.png"" style=""width:200px; border:14px solid green;"">","null","","","","","","","","",""
"","image-keyboard-response","12","155467","0.0-12.0","3570Y55XZQ55MQOHKP4U2C6BMNWGY0","A2JMEQ3KQFQCRM","3566S7OX5D5NH74JOVOPTTMK8IR17K","","255.5999999642372","img/flower5.png","75","256.89999997615814","2","1","3","2","1,0,0,1,1,0,1,0,1","0,0,1,1,0,1,0,1,1","2",""
"","html-keyboard-response","13","155770","0.0-13.0","3570Y55XZQ55MQOHKP4U2C6BMNWGY0","A2JMEQ3KQFQCRM","3566S7OX5D5NH74JOVOPTTMK8IR17K","","null","<img src=""img/flower5.png"" style=""width:200px; border:14px solid green;"">","null","","","","","","","","",""
"","image-keyboard-response","14","156316","0.0-14.0","3570Y55XZQ55MQOHKP4U2C6BMNWGY0","A2JMEQ3KQFQCRM","3566S7OX5D5NH74JOVOPTTMK8IR17K","","544.5","img/flower5.png","75","545.5999999642372","2","1","3","2","1,0,0,1,1,0,1,0,1","0,0,1,1,0,1,0,1,1","2",""
"","html-keyboard-response","15","156627","0.0-15.0","3570Y55XZQ55MQOHKP4U2C6BMNWGY0","A2JMEQ3KQFQCRM","3566S7OX5D5NH74JOVOPTTMK8IR17K","","null","<img src=""img/flower5.png"" style=""width:200px; border:14px solid green;"">","null","","","","","","","","",""
"","image-keyboard-response","16","157030","0.0-16.0","3570Y55XZQ55MQOHKP4U2C6BMNWGY0","A2JMEQ3KQFQCRM","3566S7OX5D5NH74JOVOPTTMK8IR17K","","401.10000002384186","img/flower4.png","74","402.39999997615814","1","1","2","2","1,0,0,1,1,0,1,0,1","0,0,1,1,0,1,0,1,1","2",""
"","html-keyboard-response","17","157344","0.0-17.0","3570Y55XZQ55MQOHKP4U2C6BMNWGY0","A2JMEQ3KQFQCRM","3566S7OX5D5NH74JOVOPTTMK8IR17K","","null","<img src=""img/flower4.png"" style=""width:200px; border:14px solid green;"">","null","","","","","","","","",""
"","image-keyboard-response","18","157693","0.0-18.0","3570Y55XZQ55MQOHKP4U2C6BMNWGY0","A2JMEQ3KQFQCRM","3566S7OX5D5NH74JOVOPTTMK8IR17K","","347.2000000476837","img/flower4.png","74","348.60000002384186","1","1","2","2","1,0,0,1,1,0,1,0,1","0,0,1,1,0,1,0,1,1","2",""
"","html-keyboard-response","19","157996","0.0-19.0","3570Y55XZQ55MQOHKP4U2C6BMNWGY0","A2JMEQ3KQFQCRM","3566S7OX5D5NH74JOVOPTTMK8IR17K","","null","<img src=""img/flower4.png"" style=""width:200px; border:14px solid green;"">","null","","","","","","","","",""
"","image-keyboard-response","20","158569","0.0-20.0","3570Y55XZQ55MQOHKP4U2C6BMNWGY0","A2JMEQ3KQFQCRM","3566S7OX5D5NH74JOVOPTTMK8IR17K","","571","img/flower6.png","76","572.5","3","1","1","2","1,0,0,1,1,0,1,0,1","0,0,1,1,0,1,0,1,1","2",""
"","html-keyboard-response","21","158871","0.0-21.0","3570Y55XZQ55MQOHKP4U2C6BMNWGY0","A2JMEQ3KQFQCRM","3566S7OX5D5NH74JOVOPTTMK8IR17K","","null","<img src=""img/flower6.png"" style=""width:200px; border:14px solid green;"">","null","","","","","","","","",""
"","image-keyboard-response","22","159192","0.0-22.0","3570Y55XZQ55MQOHKP4U2C6BMNWGY0","A2JMEQ3KQFQCRM","3566S7OX5D5NH74JOVOPTTMK8IR17K","","318.9000000357628","img/flower6.png","76","320.19999998807907","3","1","1","2","1,0,0,1,1,0,1,0,1","0,0,1,1,0,1,0,1,1","2",""
"","html-keyboard-response","23","159508","0.0-23.0","3570Y55XZQ55MQOHKP4U2C6BMNWGY0","A2JMEQ3KQFQCRM","3566S7OX5D5NH74JOVOPTTMK8IR17K","","null","<img src=""img/flower6.png"" style=""width:200px; border:14px solid green;"">","null","","","","","","","","",""
"","image-keyboard-response","24","159810","0.0-24.0","3570Y55XZQ55MQOHKP4U2C6BMNWGY0","A2JMEQ3KQFQCRM","3566S7OX5D5NH74JOVOPTTMK8IR17K","","300.30000001192093","img/flower6.png","76","301.60000002384186","3","1","1","2","1,0,0,1,1,0,1,0,1","0,0,1,1,0,1,0,1,1","2",""
"","html-keyboard-response","25","160113","0.0-25.0","3570Y55XZQ55MQOHKP4U2C6BMNWGY0","A2JMEQ3KQFQCRM","3566S7OX5D5NH74JOVOPTTMK8IR17K","","null","<img src=""img/flower6.png"" style=""width:200px; border:14px solid green;"">","null","","","","","","","","",""
"","image-keyboard-response","26","160713","0.0-26.0","3570Y55XZQ55MQOHKP4U2C6BMNWGY0","A2JMEQ3KQFQCRM","3566S7OX5D5NH74JOVOPTTMK8IR17K","","598.8999999761581","img/flower4.png","75","600.2999999523163","2","0","2","2","1,0,0,1,1,0,1,0,1","0,0,1,1,0,1,0,1,1","2",""
"","html-keyboard-response","27","161030","0.0-27.0","3570Y55XZQ55MQOHKP4U2C6BMNWGY0","A2JMEQ3KQFQCRM","3566S7OX5D5NH74JOVOPTTMK8IR17K","","null","<img src=""img/flower4.png"" style=""width:200px;border:14px solid red;"">","null","","","","","","","","",""
"","image-keyboard-response","28","161536","0.0-28.0","3570Y55XZQ55MQOHKP4U2C6BMNWGY0","A2JMEQ3KQFQCRM","3566S7OX5D5NH74JOVOPTTMK8IR17K","","504.9000000357628","img/flower4.png","74","505.9000000357628","1","1","2","2","1,0,0,1,1,0,1,0,1","0,0,1,1,0,1,0,1,1","2",""
"","html-keyboard-response","29","161853","0.0-29.0","3570Y55XZQ55MQOHKP4U2C6BMNWGY0","A2JMEQ3KQFQCRM","3566S7OX5D5NH74JOVOPTTMK8IR17K","","null","<img src=""img/flower4.png"" style=""width:200px; border:14px solid green;"">","null","","","","","","","","",""
"","image-keyboard-response","30","162088","0.0-30.0","3570Y55XZQ55MQOHKP4U2C6BMNWGY0","A2JMEQ3KQFQCRM","3566S7OX5D5NH74JOVOPTTMK8IR17K","","233.10000002384186","img/flower4.png","74","234.30000001192093","1","1","2","2","1,0,0,1,1,0,1,0,1","0,0,1,1,0,1,0,1,1","2",""
"","html-keyboard-response","31","162390","0.0-31.0","3570Y55XZQ55MQOHKP4U2C6BMNWGY0","A2JMEQ3KQFQCRM","3566S7OX5D5NH74JOVOPTTMK8IR17K","","null","<img src=""img/flower4.png"" style=""width:200px; border:14px solid green;"">","null","","","","","","","","",""
"","image-keyboard-response","32","162883","0.0-32.0","3570Y55XZQ55MQOHKP4U2C6BMNWGY0","A2JMEQ3KQFQCRM","3566S7OX5D5NH74JOVOPTTMK8IR17K","","491.30000001192093","img/flower6.png","75","492.69999998807907","2","0","1","2","1,0,0,1,1,0,1,0,1","0,0,1,1,0,1,0,1,1","2",""
"","html-keyboard-response","33","163192","0.0-33.0","3570Y55XZQ55MQOHKP4U2C6BMNWGY0","A2JMEQ3KQFQCRM","3566S7OX5D5NH74JOVOPTTMK8IR17K","","null","<img src=""img/flower6.png"" style=""width:200px;border:14px solid red;"">","null","","","","","","","","",""
"","image-keyboard-response","34","163449","0.0-34.0","3570Y55XZQ55MQOHKP4U2C6BMNWGY0","A2JMEQ3KQFQCRM","3566S7OX5D5NH74JOVOPTTMK8IR17K","","255.39999997615814","img/flower6.png","76","256.60000002384186","3","1","1","2","1,0,0,1,1,0,1,0,1","0,0,1,1,0,1,0,1,1","2",""
"","html-keyboard-response","35","163752","0.0-35.0","3570Y55XZQ55MQOHKP4U2C6BMNWGY0","A2JMEQ3KQFQCRM","3566S7OX5D5NH74JOVOPTTMK8IR17K","","null","<img src=""img/flower6.png"" style=""width:200px; border:14px solid green;"">","null","","","","","","","","",""
"","image-keyboard-response","36","164420","0.0-36.0","3570Y55XZQ55MQOHKP4U2C6BMNWGY0","A2JMEQ3KQFQCRM","3566S7OX5D5NH74JOVOPTTMK8IR17K","","666.5999999642372","img/flower5.png","75","668.0999999642372","2","1","3","2","1,0,0,1,1,0,1,0,1","0,0,1,1,0,1,0,1,1","2",""
"","html-keyboard-response","37","164723","0.0-37.0","3570Y55XZQ55MQOHKP4U2C6BMNWGY0","A2JMEQ3KQFQCRM","3566S7OX5D5NH74JOVOPTTMK8IR17K","","null","<img src=""img/flower5.png"" style=""width:200px; border:14px solid green;"">","null","","","","","","","","",""
"","image-keyboard-response","38","165393","0.0-38.0","3570Y55XZQ55MQOHKP4U2C6BMNWGY0","A2JMEQ3KQFQCRM","3566S7OX5D5NH74JOVOPTTMK8IR17K","","668.1999999880791","img/flower4.png","74","669.6000000238419","1","1","2","2","1,0,0,1,1,0,1,0,1","0,0,1,1,0,1,0,1,1","2",""
"","html-keyboard-response","39","165696","0.0-39.0","3570Y55XZQ55MQOHKP4U2C6BMNWGY0","A2JMEQ3KQFQCRM","3566S7OX5D5NH74JOVOPTTMK8IR17K","","null","<img src=""img/flower4.png"" style=""width:200px; border:14px solid green;"">","null","","","","","","","","",""
"","image-keyboard-response","40","166232","0.0-40.0","3570Y55XZQ55MQOHKP4U2C6BMNWGY0","A2JMEQ3KQFQCRM","3566S7OX5D5NH74JOVOPTTMK8IR17K","","535.1000000238419","img/flower6.png","76","536.3999999761581","3","1","1","2","1,0,0,1,1,0,1,0,1","0,0,1,1,0,1,0,1,1","2",""
"","html-keyboard-response","41","166536","0.0-41.0","3570Y55XZQ55MQOHKP4U2C6BMNWGY0","A2JMEQ3KQFQCRM","3566S7OX5D5NH74JOVOPTTMK8IR17K","","null","<img src=""img/flower6.png"" style=""width:200px; border:14px solid green;"">","null","","","","","","","","",""
"","image-keyboard-response","42","166924","0.0-42.0","3570Y55XZQ55MQOHKP4U2C6BMNWGY0","A2JMEQ3KQFQCRM","3566S7OX5D5NH74JOVOPTTMK8IR17K","","387.30000001192093","img/flower6.png","76","388.30000001192093","3","1","1","2","1,0,0,1,1,0,1,0,1","0,0,1,1,0,1,0,1,1","2",""
"","html-keyboard-response","43","167226","0.0-43.0","3570Y55XZQ55MQOHKP4U2C6BMNWGY0","A2JMEQ3KQFQCRM","3566S7OX5D5NH74JOVOPTTMK8IR17K","","null","<img src=""img/flower6.png"" style=""width:200px; border:14px solid green;"">","null","","","","","","","","",""
"","image-keyboard-response","44","167542","0.0-44.0","3570Y55XZQ55MQOHKP4U2C6BMNWGY0","A2JMEQ3KQFQCRM","3566S7OX5D5NH74JOVOPTTMK8IR17K","","314.39999997615814","img/flower6.png","76","315.5","3","1","1","2","1,0,0,1,1,0,1,0,1","0,0,1,1,0,1,0,1,1","2",""
"","html-keyboard-response","45","167844","0.0-45.0","3570Y55XZQ55MQOHKP4U2C6BMNWGY0","A2JMEQ3KQFQCRM","3566S7OX5D5NH74JOVOPTTMK8IR17K","","null","<img src=""img/flower6.png"" style=""width:200px; border:14px solid green;"">","null","","","","","","","","",""
"","image-keyboard-response","46","168377","0.0-46.0","3570Y55XZQ55MQOHKP4U2C6BMNWGY0","A2JMEQ3KQFQCRM","3566S7OX5D5NH74JOVOPTTMK8IR17K","","531.3999999761581","img/flower4.png","74","532.5999999642372","1","1","2","2","1,0,0,1,1,0,1,0,1","0,0,1,1,0,1,0,1,1","2",""
"","html-keyboard-response","47","168678","0.0-47.0","3570Y55XZQ55MQOHKP4U2C6BMNWGY0","A2JMEQ3KQFQCRM","3566S7OX5D5NH74JOVOPTTMK8IR17K","","null","<img src=""img/flower4.png"" style=""width:200px; border:14px solid green;"">","null","","","","","","","","",""
"","image-keyboard-response","48","169030","0.0-48.0","3570Y55XZQ55MQOHKP4U2C6BMNWGY0","A2JMEQ3KQFQCRM","3566S7OX5D5NH74JOVOPTTMK8IR17K","","350.7999999523163","img/flower4.png","74","351.5","1","1","2","2","1,0,0,1,1,0,1,0,1","0,0,1,1,0,1,0,1,1","2",""
"","html-keyboard-response","49","169333","0.0-49.0","3570Y55XZQ55MQOHKP4U2C6BMNWGY0","A2JMEQ3KQFQCRM","3566S7OX5D5NH74JOVOPTTMK8IR17K","","null","<img src=""img/flower4.png"" style=""width:200px; border:14px solid green;"">","null","","","","","","","","",""
"","image-keyboard-response","50","169754","0.0-50.0","3570Y55XZQ55MQOHKP4U2C6BMNWGY0","A2JMEQ3KQFQCRM","3566S7OX5D5NH74JOVOPTTMK8IR17K","","419.9000000357628","img/flower6.png","75","421.0999999642372","2","0","1","2","1,0,0,1,1,0,1,0,1","0,0,1,1,0,1,0,1,1","2",""
"","html-keyboard-response","51","170057","0.0-51.0","3570Y55XZQ55MQOHKP4U2C6BMNWGY0","A2JMEQ3KQFQCRM","3566S7OX5D5NH74JOVOPTTMK8IR17K","","null","<img src=""img/flower6.png"" style=""width:200px;border:14px solid red;"">","null","","","","","","","","",""
"","image-keyboard-response","52","170122","0.0-52.0","3570Y55XZQ55MQOHKP4U2C6BMNWGY0","A2JMEQ3KQFQCRM","3566S7OX5D5NH74JOVOPTTMK8IR17K","","63.700000047683716","img/flower6.png","76","65.20000004768372","3","1","1","2","1,0,0,1,1,0,1,0,1","0,0,1,1,0,1,0,1,1","2",""
"","html-keyboard-response","53","170425","0.0-53.0","3570Y55XZQ55MQOHKP4U2C6BMNWGY0","A2JMEQ3KQFQCRM","3566S7OX5D5NH74JOVOPTTMK8IR17K","","null","<img src=""img/flower6.png"" style=""width:200px; border:14px solid green;"">","null","","","","","","","","",""
"","image-keyboard-response","54","170636","0.0-54.0","3570Y55XZQ55MQOHKP4U2C6BMNWGY0","A2JMEQ3KQFQCRM","3566S7OX5D5NH74JOVOPTTMK8IR17K","","210.5","img/flower6.png","76","211.60000002384186","3","1","1","2","1,0,0,1,1,0,1,0,1","0,0,1,1,0,1,0,1,1","2",""
"","html-keyboard-response","55","170938","0.0-55.0","3570Y55XZQ55MQOHKP4U2C6BMNWGY0","A2JMEQ3KQFQCRM","3566S7OX5D5NH74JOVOPTTMK8IR17K","","null","<img src=""img/flower6.png"" style=""width:200px; border:14px solid green;"">","null","","","","","","","","",""
"","image-keyboard-response","56","171052","0.0-56.0","3570Y55XZQ55MQOHKP4U2C6BMNWGY0","A2JMEQ3KQFQCRM","3566S7OX5D5NH74JOVOPTTMK8IR17K","","111.69999998807907","img/flower6.png","76","112.90000003576279","3","1","1","2","1,0,0,1,1,0,1,0,1","0,0,1,1,0,1,0,1,1","2",""
"","html-keyboard-response","57","171354","0.0-57.0","3570Y55XZQ55MQOHKP4U2C6BMNWGY0","A2JMEQ3KQFQCRM","3566S7OX5D5NH74JOVOPTTMK8IR17K","","null","<img src=""img/flower6.png"" style=""width:200px; border:14px solid green;"">","null","","","","","","","","",""
"","image-keyboard-response","58","171456","0.0-58.0","3570Y55XZQ55MQOHKP4U2C6BMNWGY0","A2JMEQ3KQFQCRM","3566S7OX5D5NH74JOVOPTTMK8IR17K","","100.89999997615814","img/flower5.png","76","102.19999998807907","3","1","3","2","1,0,0,1,1,0,1,0,1","0,0,1,1,0,1,0,1,1","2",""
"","html-keyboard-response","59","171759","0.0-59.0","3570Y55XZQ55MQOHKP4U2C6BMNWGY0","A2JMEQ3KQFQCRM","3566S7OX5D5NH74JOVOPTTMK8IR17K","","null","<img src=""img/flower5.png"" style=""width:200px; border:14px solid green;"">","null","","","","","","","","",""
"","image-keyboard-response","60","172156","0.0-60.0","3570Y55XZQ55MQOHKP4U2C6BMNWGY0","A2JMEQ3KQFQCRM","3566S7OX5D5NH74JOVOPTTMK8IR17K","","396","img/flower6.png","75","397.5","2","0","1","2","1,0,0,1,1,0,1,0,1","0,0,1,1,0,1,0,1,1","2",""
"","html-keyboard-response","61","172460","0.0-61.0","3570Y55XZQ55MQOHKP4U2C6BMNWGY0","A2JMEQ3KQFQCRM","3566S7OX5D5NH74JOVOPTTMK8IR17K","","null","<img src=""img/flower6.png"" style=""width:200px;border:14px solid red;"">","null","","","","","","","","",""
"","image-keyboard-response","62","172589","0.0-62.0","3570Y55XZQ55MQOHKP4U2C6BMNWGY0","A2JMEQ3KQFQCRM","3566S7OX5D5NH74JOVOPTTMK8IR17K","","128.0999999642372","img/flower6.png","76","129.30000001192093","3","1","1","2","1,0,0,1,1,0,1,0,1","0,0,1,1,0,1,0,1,1","2",""
"","html-keyboard-response","63","172891","0.0-63.0","3570Y55XZQ55MQOHKP4U2C6BMNWGY0","A2JMEQ3KQFQCRM","3566S7OX5D5NH74JOVOPTTMK8IR17K","","null","<img src=""img/flower6.png"" style=""width:200px; border:14px solid green;"">","null","","","","","","","","",""
"","image-keyboard-response","64","173022","0.0-64.0","3570Y55XZQ55MQOHKP4U2C6BMNWGY0","A2JMEQ3KQFQCRM","3566S7OX5D5NH74JOVOPTTMK8IR17K","","129.30000001192093","img/flower5.png","76","130.5","3","1","3","2","1,0,0,1,1,0,1,0,1","0,0,1,1,0,1,0,1,1","2",""
"","html-keyboard-response","65","173325","0.0-65.0","3570Y55XZQ55MQOHKP4U2C6BMNWGY0","A2JMEQ3KQFQCRM","3566S7OX5D5NH74JOVOPTTMK8IR17K","","null","<img src=""img/flower5.png"" style=""width:200px; border:14px solid green;"">","null","","","","","","","","",""
"","image-keyboard-response","66","173721","0.0-66.0","3570Y55XZQ55MQOHKP4U2C6BMNWGY0","A2JMEQ3KQFQCRM","3566S7OX5D5NH74JOVOPTTMK8IR17K","","394.39999997615814","img/flower5.png","75","395.80000001192093","2","1","3","2","1,0,0,1,1,0,1,0,1","0,0,1,1,0,1,0,1,1","2",""
"","html-keyboard-response","67","174023","0.0-67.0","3570Y55XZQ55MQOHKP4U2C6BMNWGY0","A2JMEQ3KQFQCRM","3566S7OX5D5NH74JOVOPTTMK8IR17K","","null","<img src=""img/flower5.png"" style=""width:200px; border:14px solid green;"">","null","","","","","","","","",""
"","image-keyboard-response","68","174369","0.0-68.0","3570Y55XZQ55MQOHKP4U2C6BMNWGY0","A2JMEQ3KQFQCRM","3566S7OX5D5NH74JOVOPTTMK8IR17K","","344.2999999523163","img/flower5.png","75","345.39999997615814","2","1","3","2","1,0,0,1,1,0,1,0,1","0,0,1,1,0,1,0,1,1","2",""
"","html-keyboard-response","69","174676","0.0-69.0","3570Y55XZQ55MQOHKP4U2C6BMNWGY0","A2JMEQ3KQFQCRM","3566S7OX5D5NH74JOVOPTTMK8IR17K","","null","<img src=""img/flower5.png"" style=""width:200px; border:14px solid green;"">","null","","","","","","","","",""
"","image-keyboard-response","70","175237","0.0-70.0","3570Y55XZQ55MQOHKP4U2C6BMNWGY0","A2JMEQ3KQFQCRM","3566S7OX5D5NH74JOVOPTTMK8IR17K","","559.5","img/flower4.png","74","560.8999999761581","1","1","2","2","1,0,0,1,1,0,1,0,1","0,0,1,1,0,1,0,1,1","2",""
"","html-keyboard-response","71","175540","0.0-71.0","3570Y55XZQ55MQOHKP4U2C6BMNWGY0","A2JMEQ3KQFQCRM","3566S7OX5D5NH74JOVOPTTMK8IR17K","","null","<img src=""img/flower4.png"" style=""width:200px; border:14px solid green;"">","null","","","","","","","","",""
"","image-keyboard-response","72","175827","0.0-72.0","3570Y55XZQ55MQOHKP4U2C6BMNWGY0","A2JMEQ3KQFQCRM","3566S7OX5D5NH74JOVOPTTMK8IR17K","","285","img/flower4.png","74","286.2999999523163","1","1","2","2","1,0,0,1,1,0,1,0,1","0,0,1,1,0,1,0,1,1","2",""
"","html-keyboard-response","73","176129","0.0-73.0","3570Y55XZQ55MQOHKP4U2C6BMNWGY0","A2JMEQ3KQFQCRM","3566S7OX5D5NH74JOVOPTTMK8IR17K","","null","<img src=""img/flower4.png"" style=""width:200px; border:14px solid green;"">","null","","","","","","","","",""
"","image-keyboard-response","74","176271","0.0-74.0","3570Y55XZQ55MQOHKP4U2C6BMNWGY0","A2JMEQ3KQFQCRM","3566S7OX5D5NH74JOVOPTTMK8IR17K","","140.30000001192093","img/flower5.png","74","141.39999997615814","1","0","3","2","1,0,0,1,1,0,1,0,1","0,0,1,1,0,1,0,1,1","2",""
"","html-keyboard-response","75","176573","0.0-75.0","3570Y55XZQ55MQOHKP4U2C6BMNWGY0","A2JMEQ3KQFQCRM","3566S7OX5D5NH74JOVOPTTMK8IR17K","","null","<img src=""img/flower5.png"" style=""width:200px;border:14px solid red;"">","null","","","","","","","","",""
"","image-keyboard-response","76","176746","0.0-76.0","3570Y55XZQ55MQOHKP4U2C6BMNWGY0","A2JMEQ3KQFQCRM","3566S7OX5D5NH74JOVOPTTMK8IR17K","","171.5999999642372","img/flower6.png","76","173","3","1","1","2","1,0,0,1,1,0,1,0,1","0,0,1,1,0,1,0,1,1","2",""
"","html-keyboard-response","77","177061","0.0-77.0","3570Y55XZQ55MQOHKP4U2C6BMNWGY0","A2JMEQ3KQFQCRM","3566S7OX5D5NH74JOVOPTTMK8IR17K","","null","<img src=""img/flower6.png"" style=""width:200px; border:14px solid green;"">","null","","","","","","","","",""
"","image-keyboard-response","78","177374","0.0-78.0","3570Y55XZQ55MQOHKP4U2C6BMNWGY0","A2JMEQ3KQFQCRM","3566S7OX5D5NH74JOVOPTTMK8IR17K","","310.9000000357628","img/flower4.png","76","312.19999998807907","3","1","2","2","1,0,0,1,1,0,1,0,1","0,0,1,1,0,1,0,1,1","2",""
"","html-keyboard-response","79","177685","0.0-79.0","3570Y55XZQ55MQOHKP4U2C6BMNWGY0","A2JMEQ3KQFQCRM","3566S7OX5D5NH74JOVOPTTMK8IR17K","","null","<img src=""img/flower4.png"" style=""width:200px; border:14px solid green;"">","null","","","","","","","","",""
"","image-keyboard-response","80","177994","0.0-80.0","3570Y55XZQ55MQOHKP4U2C6BMNWGY0","A2JMEQ3KQFQCRM","3566S7OX5D5NH74JOVOPTTMK8IR17K","","307.89999997615814","img/flower4.png","75","308.89999997615814","2","0","2","2","1,0,0,1,1,0,1,0,1","0,0,1,1,0,1,0,1,1","2",""
"","html-keyboard-response","81","178297","0.0-81.0","3570Y55XZQ55MQOHKP4U2C6BMNWGY0","A2JMEQ3KQFQCRM","3566S7OX5D5NH74JOVOPTTMK8IR17K","","null","<img src=""img/flower4.png"" style=""width:200px;border:14px solid red;"">","null","","","","","","","","",""
"","image-keyboard-response","82","178491","0.0-82.0","3570Y55XZQ55MQOHKP4U2C6BMNWGY0","A2JMEQ3KQFQCRM","3566S7OX5D5NH74JOVOPTTMK8IR17K","","191.89999997615814","img/flower6.png","75","193.30000001192093","2","0","1","2","1,0,0,1,1,0,1,0,1","0,0,1,1,0,1,0,1,1","2",""
"","html-keyboard-response","83","178794","0.0-83.0","3570Y55XZQ55MQOHKP4U2C6BMNWGY0","A2JMEQ3KQFQCRM","3566S7OX5D5NH74JOVOPTTMK8IR17K","","null","<img src=""img/flower6.png"" style=""width:200px;border:14px solid red;"">","null","","","","","","","","",""
"","image-keyboard-response","84","179167","0.0-84.0","3570Y55XZQ55MQOHKP4U2C6BMNWGY0","A2JMEQ3KQFQCRM","3566S7OX5D5NH74JOVOPTTMK8IR17K","","371.89999997615814","img/flower4.png","76","373.10000002384186","3","1","2","2","1,0,0,1,1,0,1,0,1","0,0,1,1,0,1,0,1,1","2",""
"","html-keyboard-response","85","179469","0.0-85.0","3570Y55XZQ55MQOHKP4U2C6BMNWGY0","A2JMEQ3KQFQCRM","3566S7OX5D5NH74JOVOPTTMK8IR17K","","null","<img src=""img/flower4.png"" style=""width:200px; border:14px solid green;"">","null","","","","","","","","",""
"","image-keyboard-response","86","179892","0.0-86.0","3570Y55XZQ55MQOHKP4U2C6BMNWGY0","A2JMEQ3KQFQCRM","3566S7OX5D5NH74JOVOPTTMK8IR17K","","421.10000002384186","img/flower4.png","75","422.30000001192093","2","0","2","2","1,0,0,1,1,0,1,0,1","0,0,1,1,0,1,0,1,1","2",""
"","html-keyboard-response","87","180195","0.0-87.0","3570Y55XZQ55MQOHKP4U2C6BMNWGY0","A2JMEQ3KQFQCRM","3566S7OX5D5NH74JOVOPTTMK8IR17K","","null","<img src=""img/flower4.png"" style=""width:200px;border:14px solid red;"">","null","","","","","","","","",""
"","image-keyboard-response","88","180341","0.0-88.0","3570Y55XZQ55MQOHKP4U2C6BMNWGY0","A2JMEQ3KQFQCRM","3566S7OX5D5NH74JOVOPTTMK8IR17K","","145.69999998807907","img/flower4.png","75","146.60000002384186","2","0","2","2","1,0,0,1,1,0,1,0,1","0,0,1,1,0,1,0,1,1","2",""
"","html-keyboard-response","89","180644","0.0-89.0","3570Y55XZQ55MQOHKP4U2C6BMNWGY0","A2JMEQ3KQFQCRM","3566S7OX5D5NH74JOVOPTTMK8IR17K","","null","<img src=""img/flower4.png"" style=""width:200px;border:14px solid red;"">","null","","","","","","","","",""
"","image-keyboard-response","90","180846","0.0-90.0","3570Y55XZQ55MQOHKP4U2C6BMNWGY0","A2JMEQ3KQFQCRM","3566S7OX5D5NH74JOVOPTTMK8IR17K","","200.5","img/flower5.png","75","201.9000000357628","2","1","3","2","1,0,0,1,1,0,1,0,1","0,0,1,1,0,1,0,1,1","2",""
"","html-keyboard-response","91","181149","0.0-91.0","3570Y55XZQ55MQOHKP4U2C6BMNWGY0","A2JMEQ3KQFQCRM","3566S7OX5D5NH74JOVOPTTMK8IR17K","","null","<img src=""img/flower5.png"" style=""width:200px; border:14px solid green;"">","null","","","","","","","","",""
"","image-keyboard-response","92","181486","0.0-92.0","3570Y55XZQ55MQOHKP4U2C6BMNWGY0","A2JMEQ3KQFQCRM","3566S7OX5D5NH74JOVOPTTMK8IR17K","","336","img/flower5.png","75","337.19999998807907","2","1","3","2","1,0,0,1,1,0,1,0,1","0,0,1,1,0,1,0,1,1","2",""
"","html-keyboard-response","93","181788","0.0-93.0","3570Y55XZQ55MQOHKP4U2C6BMNWGY0","A2JMEQ3KQFQCRM","3566S7OX5D5NH74JOVOPTTMK8IR17K","","null","<img src=""img/flower5.png"" style=""width:200px; border:14px solid green;"">","null","","","","","","","","",""
"","image-keyboard-response","94","182093","0.0-94.0","3570Y55XZQ55MQOHKP4U2C6BMNWGY0","A2JMEQ3KQFQCRM","3566S7OX5D5NH74JOVOPTTMK8IR17K","","302.80000001192093","img/flower4.png","75","304.0999999642372","2","0","2","2","1,0,0,1,1,0,1,0,1","0,0,1,1,0,1,0,1,1","2",""
"","html-keyboard-response","95","182395","0.0-95.0","3570Y55XZQ55MQOHKP4U2C6BMNWGY0","A2JMEQ3KQFQCRM","3566S7OX5D5NH74JOVOPTTMK8IR17K","","null","<img src=""img/flower4.png"" style=""width:200px;border:14px solid red;"">","null","","","","","","","","",""
"","image-keyboard-response","96","182946","0.0-96.0","3570Y55XZQ55MQOHKP4U2C6BMNWGY0","A2JMEQ3KQFQCRM","3566S7OX5D5NH74JOVOPTTMK8IR17K","","549.3000000119209","img/flower6.png","76","550.5","3","1","1","2","1,0,0,1,1,0,1,0,1","0,0,1,1,0,1,0,1,1","2",""
"","html-keyboard-response","97","183249","0.0-97.0","3570Y55XZQ55MQOHKP4U2C6BMNWGY0","A2JMEQ3KQFQCRM","3566S7OX5D5NH74JOVOPTTMK8IR17K","","null","<img src=""img/flower6.png"" style=""width:200px; border:14px solid green;"">","null","","","","","","","","",""
"","image-keyboard-response","98","183727","0.0-98.0","3570Y55XZQ55MQOHKP4U2C6BMNWGY0","A2JMEQ3KQFQCRM","3566S7OX5D5NH74JOVOPTTMK8IR17K","","476.30000001192093","img/flower5.png","75","477.60000002384186","2","1","3","2","1,0,0,1,1,0,1,0,1","0,0,1,1,0,1,0,1,1","2",""
"","html-keyboard-response","99","184030","0.0-99.0","3570Y55XZQ55MQOHKP4U2C6BMNWGY0","A2JMEQ3KQFQCRM","3566S7OX5D5NH74JOVOPTTMK8IR17K","","null","<img src=""img/flower5.png"" style=""width:200px; border:14px solid green;"">","null","","","","","","","","",""
"","image-keyboard-response","100","184433","0.0-100.0","3570Y55XZQ55MQOHKP4U2C6BMNWGY0","A2JMEQ3KQFQCRM","3566S7OX5D5NH74JOVOPTTMK8IR17K","","401.5999999642372","img/flower6.png","74","402.69999998807907","1","0","1","2","1,0,0,1,1,0,1,0,1","0,0,1,1,0,1,0,1,1","2",""
"","html-keyboard-response","101","184734","0.0-101.0","3570Y55XZQ55MQOHKP4U2C6BMNWGY0","A2JMEQ3KQFQCRM","3566S7OX5D5NH74JOVOPTTMK8IR17K","","null","<img src=""img/flower6.png"" style=""width:200px;border:14px solid red;"">","null","","","","","","","","",""
"","image-keyboard-response","102","184907","0.0-102.0","3570Y55XZQ55MQOHKP4U2C6BMNWGY0","A2JMEQ3KQFQCRM","3566S7OX5D5NH74JOVOPTTMK8IR17K","","171.10000002384186","img/flower4.png","76","172.30000001192093","3","1","2","2","1,0,0,1,1,0,1,0,1","0,0,1,1,0,1,0,1,1","2",""
"","html-keyboard-response","103","185210","0.0-103.0","3570Y55XZQ55MQOHKP4U2C6BMNWGY0","A2JMEQ3KQFQCRM","3566S7OX5D5NH74JOVOPTTMK8IR17K","","null","<img src=""img/flower4.png"" style=""width:200px; border:14px solid green;"">","null","","","","","","","","",""
"","image-keyboard-response","104","185868","0.0-104.0","3570Y55XZQ55MQOHKP4U2C6BMNWGY0","A2JMEQ3KQFQCRM","3566S7OX5D5NH74JOVOPTTMK8IR17K","","657.3000000119209","img/flower5.png","75","658.1000000238419","2","1","3","2","1,0,0,1,1,0,1,0,1","0,0,1,1,0,1,0,1,1","2",""
"","html-keyboard-response","105","186171","0.0-105.0","3570Y55XZQ55MQOHKP4U2C6BMNWGY0","A2JMEQ3KQFQCRM","3566S7OX5D5NH74JOVOPTTMK8IR17K","","null","<img src=""img/flower5.png"" style=""width:200px; border:14px solid green;"">","null","","","","","","","","",""
"","image-keyboard-response","106","186444","0.0-106.0","3570Y55XZQ55MQOHKP4U2C6BMNWGY0","A2JMEQ3KQFQCRM","3566S7OX5D5NH74JOVOPTTMK8IR17K","","271.2000000476837","img/flower5.png","75","272.60000002384186","2","1","3","2","1,0,0,1,1,0,1,0,1","0,0,1,1,0,1,0,1,1","2",""
"","html-keyboard-response","107","186746","0.0-107.0","3570Y55XZQ55MQOHKP4U2C6BMNWGY0","A2JMEQ3KQFQCRM","3566S7OX5D5NH74JOVOPTTMK8IR17K","","null","<img src=""img/flower5.png"" style=""width:200px; border:14px solid green;"">","null","","","","","","","","",""
"","image-keyboard-response","108","187253","0.0-108.0","3570Y55XZQ55MQOHKP4U2C6BMNWGY0","A2JMEQ3KQFQCRM","3566S7OX5D5NH74JOVOPTTMK8IR17K","","505.69999998807907","img/flower4.png","74","506.7000000476837","1","1","2","2","1,0,0,1,1,0,1,0,1","0,0,1,1,0,1,0,1,1","2",""
"","html-keyboard-response","109","187555","0.0-109.0","3570Y55XZQ55MQOHKP4U2C6BMNWGY0","A2JMEQ3KQFQCRM","3566S7OX5D5NH74JOVOPTTMK8IR17K","","null","<img src=""img/flower4.png"" style=""width:200px; border:14px solid green;"">","null","","","","","","","","",""
"","image-keyboard-response","110","187825","0.0-110.0","3570Y55XZQ55MQOHKP4U2C6BMNWGY0","A2JMEQ3KQFQCRM","3566S7OX5D5NH74JOVOPTTMK8IR17K","","269.19999998807907","img/flower4.png","74","270.5","1","1","2","2","1,0,0,1,1,0,1,0,1","0,0,1,1,0,1,0,1,1","2",""
"","html-keyboard-response","111","188128","0.0-111.0","3570Y55XZQ55MQOHKP4U2C6BMNWGY0","A2JMEQ3KQFQCRM","3566S7OX5D5NH74JOVOPTTMK8IR17K","","null","<img src=""img/flower4.png"" style=""width:200px; border:14px solid green;"">","null","","","","","","","","",""
"","image-keyboard-response","112","188579","0.0-112.0","3570Y55XZQ55MQOHKP4U2C6BMNWGY0","A2JMEQ3KQFQCRM","3566S7OX5D5NH74JOVOPTTMK8IR17K","","450.10000002384186","img/flower5.png","76","450.80000001192093","3","1","3","2","1,0,0,1,1,0,1,0,1","0,0,1,1,0,1,0,1,1","2",""
"","html-keyboard-response","113","188882","0.0-113.0","3570Y55XZQ55MQOHKP4U2C6BMNWGY0","A2JMEQ3KQFQCRM","3566S7OX5D5NH74JOVOPTTMK8IR17K","","null","<img src=""img/flower5.png"" style=""width:200px; border:14px solid green;"">","null","","","","","","","","",""
"","image-keyboard-response","114","189167","0.0-114.0","3570Y55XZQ55MQOHKP4U2C6BMNWGY0","A2JMEQ3KQFQCRM","3566S7OX5D5NH74JOVOPTTMK8IR17K","","283.7000000476837","img/flower5.png","75","284.80000001192093","2","1","3","2","1,0,0,1,1,0,1,0,1","0,0,1,1,0,1,0,1,1","2",""
"","html-keyboard-response","115","189478","0.0-115.0","3570Y55XZQ55MQOHKP4U2C6BMNWGY0","A2JMEQ3KQFQCRM","3566S7OX5D5NH74JOVOPTTMK8IR17K","","null","<img src=""img/flower5.png"" style=""width:200px; border:14px solid green;"">","null","","","","","","","","",""
"","image-keyboard-response","116","189633","0.0-116.0","3570Y55XZQ55MQOHKP4U2C6BMNWGY0","A2JMEQ3KQFQCRM","3566S7OX5D5NH74JOVOPTTMK8IR17K","","153.60000002384186","img/flower6.png","75","154.69999998807907","2","0","1","2","1,0,0,1,1,0,1,0,1","0,0,1,1,0,1,0,1,1","2",""
"","html-keyboard-response","117","189935","0.0-117.0","3570Y55XZQ55MQOHKP4U2C6BMNWGY0","A2JMEQ3KQFQCRM","3566S7OX5D5NH74JOVOPTTMK8IR17K","","null","<img src=""img/flower6.png"" style=""width:200px;border:14px solid red;"">","null","","","","","","","","",""
"","image-keyboard-response","118","190287","0.0-118.0","3570Y55XZQ55MQOHKP4U2C6BMNWGY0","A2JMEQ3KQFQCRM","3566S7OX5D5NH74JOVOPTTMK8IR17K","","350.0999999642372","img/flower5.png","76","351.4000000357628","3","1","3","2","1,0,0,1,1,0,1,0,1","0,0,1,1,0,1,0,1,1","2",""
"","html-keyboard-response","119","190589","0.0-119.0","3570Y55XZQ55MQOHKP4U2C6BMNWGY0","A2JMEQ3KQFQCRM","3566S7OX5D5NH74JOVOPTTMK8IR17K","","null","<img src=""img/flower5.png"" style=""width:200px; border:14px solid green;"">","null","","","","","","","","",""
"","image-keyboard-response","120","191098","0.0-120.0","3570Y55XZQ55MQOHKP4U2C6BMNWGY0","A2JMEQ3KQFQCRM","3566S7OX5D5NH74JOVOPTTMK8IR17K","","507.30000001192093","img/flower4.png","75","508.69999998807907","2","0","2","2","1,0,0,1,1,0,1,0,1","0,0,1,1,0,1,0,1,1","2",""
"","html-keyboard-response","121","191401","0.0-121.0","3570Y55XZQ55MQOHKP4U2C6BMNWGY0","A2JMEQ3KQFQCRM","3566S7OX5D5NH74JOVOPTTMK8IR17K","","null","<img src=""img/flower4.png"" style=""width:200px;border:14px solid red;"">","null","","","","","","","","",""
"","image-keyboard-response","122","191657","0.0-122.0","3570Y55XZQ55MQOHKP4U2C6BMNWGY0","A2JMEQ3KQFQCRM","3566S7OX5D5NH74JOVOPTTMK8IR17K","","255","img/flower5.png","74","256.0999999642372","1","0","3","2","1,0,0,1,1,0,1,0,1","0,0,1,1,0,1,0,1,1","2",""
"","html-keyboard-response","123","191960","0.0-123.0","3570Y55XZQ55MQOHKP4U2C6BMNWGY0","A2JMEQ3KQFQCRM","3566S7OX5D5NH74JOVOPTTMK8IR17K","","null","<img src=""img/flower5.png"" style=""width:200px;border:14px solid red;"">","null","","","","","","","","",""
"","image-keyboard-response","124","192268","0.0-124.0","3570Y55XZQ55MQOHKP4U2C6BMNWGY0","A2JMEQ3KQFQCRM","3566S7OX5D5NH74JOVOPTTMK8IR17K","","306.0999999642372","img/flower4.png","75","307.30000001192093","2","0","2","2","1,0,0,1,1,0,1,0,1","0,0,1,1,0,1,0,1,1","2",""
"","html-keyboard-response","125","192570","0.0-125.0","3570Y55XZQ55MQOHKP4U2C6BMNWGY0","A2JMEQ3KQFQCRM","3566S7OX5D5NH74JOVOPTTMK8IR17K","","null","<img src=""img/flower4.png"" style=""width:200px;border:14px solid red;"">","null","","","","","","","","",""
"","image-keyboard-response","126","193300","0.0-126.0","3570Y55XZQ55MQOHKP4U2C6BMNWGY0","A2JMEQ3KQFQCRM","3566S7OX5D5NH74JOVOPTTMK8IR17K","","729.1999999880791","img/flower6.png","76","730.5","3","1","1","2","1,0,0,1,1,0,1,0,1","0,0,1,1,0,1,0,1,1","2",""
"","html-keyboard-response","127","193602","0.0-127.0","3570Y55XZQ55MQOHKP4U2C6BMNWGY0","A2JMEQ3KQFQCRM","3566S7OX5D5NH74JOVOPTTMK8IR17K","","null","<img src=""img/flower6.png"" style=""width:200px; border:14px solid green;"">","null","","","","","","","","",""
"","image-keyboard-response","128","193995","0.0-128.0","3570Y55XZQ55MQOHKP4U2C6BMNWGY0","A2JMEQ3KQFQCRM","3566S7OX5D5NH74JOVOPTTMK8IR17K","","391.10000002384186","img/flower6.png","76","392.5","3","1","1","2","1,0,0,1,1,0,1,0,1","0,0,1,1,0,1,0,1,1","2",""
"","html-keyboard-response","129","194298","0.0-129.0","3570Y55XZQ55MQOHKP4U2C6BMNWGY0","A2JMEQ3KQFQCRM","3566S7OX5D5NH74JOVOPTTMK8IR17K","","null","<img src=""img/flower6.png"" style=""width:200px; border:14px solid green;"">","null","","","","","","","","",""
"","image-keyboard-response","130","194322","0.0-130.0","3570Y55XZQ55MQOHKP4U2C6BMNWGY0","A2JMEQ3KQFQCRM","3566S7OX5D5NH74JOVOPTTMK8IR17K","","22.19999998807907","img/flower5.png","76","23.600000023841858","3","1","3","2","1,0,0,1,1,0,1,0,1","0,0,1,1,0,1,0,1,1","2",""
"","html-keyboard-response","131","194624","0.0-131.0","3570Y55XZQ55MQOHKP4U2C6BMNWGY0","A2JMEQ3KQFQCRM","3566S7OX5D5NH74JOVOPTTMK8IR17K","","null","<img src=""img/flower5.png"" style=""width:200px; border:14px solid green;"">","null","","","","","","","","",""
"","image-keyboard-response","132","195036","0.0-132.0","3570Y55XZQ55MQOHKP4U2C6BMNWGY0","A2JMEQ3KQFQCRM","3566S7OX5D5NH74JOVOPTTMK8IR17K","","409.89999997615814","img/flower5.png","75","411.10000002384186","2","1","3","2","1,0,0,1,1,0,1,0,1","0,0,1,1,0,1,0,1,1","2",""
"","html-keyboard-response","133","195338","0.0-133.0","3570Y55XZQ55MQOHKP4U2C6BMNWGY0","A2JMEQ3KQFQCRM","3566S7OX5D5NH74JOVOPTTMK8IR17K","","null","<img src=""img/flower5.png"" style=""width:200px; border:14px solid green;"">","null","","","","","","","","",""
"","image-keyboard-response","134","195783","0.0-134.0","3570Y55XZQ55MQOHKP4U2C6BMNWGY0","A2JMEQ3KQFQCRM","3566S7OX5D5NH74JOVOPTTMK8IR17K","","443.60000002384186","img/flower5.png","75","445","2","1","3","2","1,0,0,1,1,0,1,0,1","0,0,1,1,0,1,0,1,1","2",""
"","html-keyboard-response","135","196085","0.0-135.0","3570Y55XZQ55MQOHKP4U2C6BMNWGY0","A2JMEQ3KQFQCRM","3566S7OX5D5NH74JOVOPTTMK8IR17K","","null","<img src=""img/flower5.png"" style=""width:200px; border:14px solid green;"">","null","","","","","","","","",""
"","image-keyboard-response","136","196264","0.0-136.0","3570Y55XZQ55MQOHKP4U2C6BMNWGY0","A2JMEQ3KQFQCRM","3566S7OX5D5NH74JOVOPTTMK8IR17K","","177","img/flower5.png","75","178.30000001192093","2","1","3","2","1,0,0,1,1,0,1,0,1","0,0,1,1,0,1,0,1,1","2",""
"","html-keyboard-response","137","196566","0.0-137.0","3570Y55XZQ55MQOHKP4U2C6BMNWGY0","A2JMEQ3KQFQCRM","3566S7OX5D5NH74JOVOPTTMK8IR17K","","null","<img src=""img/flower5.png"" style=""width:200px; border:14px solid green;"">","null","","","","","","","","",""
"","image-keyboard-response","138","197209","0.0-138.0","3570Y55XZQ55MQOHKP4U2C6BMNWGY0","A2JMEQ3KQFQCRM","3566S7OX5D5NH74JOVOPTTMK8IR17K","","641.3000000119209","img/flower6.png","76","642.6999999880791","3","1","1","2","1,0,0,1,1,0,1,0,1","0,0,1,1,0,1,0,1,1","2",""
"","html-keyboard-response","139","197511","0.0-139.0","3570Y55XZQ55MQOHKP4U2C6BMNWGY0","A2JMEQ3KQFQCRM","3566S7OX5D5NH74JOVOPTTMK8IR17K","","null","<img src=""img/flower6.png"" style=""width:200px; border:14px solid green;"">","null","","","","","","","","",""
"","image-keyboard-response","140","197917","0.0-140.0","3570Y55XZQ55MQOHKP4U2C6BMNWGY0","A2JMEQ3KQFQCRM","3566S7OX5D5NH74JOVOPTTMK8IR17K","","404.19999998807907","img/flower6.png","76","405.4000000357628","3","1","1","2","1,0,0,1,1,0,1,0,1","0,0,1,1,0,1,0,1,1","2",""
"","html-keyboard-response","141","198219","0.0-141.0","3570Y55XZQ55MQOHKP4U2C6BMNWGY0","A2JMEQ3KQFQCRM","3566S7OX5D5NH74JOVOPTTMK8IR17K","","null","<img src=""img/flower6.png"" style=""width:200px; border:14px solid green;"">","null","","","","","","","","",""
"","image-keyboard-response","142","198887","0.0-142.0","3570Y55XZQ55MQOHKP4U2C6BMNWGY0","A2JMEQ3KQFQCRM","3566S7OX5D5NH74JOVOPTTMK8IR17K","","666.1000000238419","img/flower5.png","75","667.5","2","1","3","2","1,0,0,1,1,0,1,0,1","0,0,1,1,0,1,0,1,1","2",""
"","html-keyboard-response","143","199190","0.0-143.0","3570Y55XZQ55MQOHKP4U2C6BMNWGY0","A2JMEQ3KQFQCRM","3566S7OX5D5NH74JOVOPTTMK8IR17K","","null","<img src=""img/flower5.png"" style=""width:200px; border:14px solid green;"">","null","","","","","","","","",""
"","image-keyboard-response","144","199770","0.0-144.0","3570Y55XZQ55MQOHKP4U2C6BMNWGY0","A2JMEQ3KQFQCRM","3566S7OX5D5NH74JOVOPTTMK8IR17K","","579","img/flower4.png","74","579.9000000357628","1","1","2","2","1,0,0,1,1,0,1,0,1","0,0,1,1,0,1,0,1,1","2",""
"","html-keyboard-response","145","200072","0.0-145.0","3570Y55XZQ55MQOHKP4U2C6BMNWGY0","A2JMEQ3KQFQCRM","3566S7OX5D5NH74JOVOPTTMK8IR17K","","null","<img src=""img/flower4.png"" style=""width:200px; border:14px solid green;"">","null","","","","","","","","",""
"","image-keyboard-response","146","200716","0.0-146.0","3570Y55XZQ55MQOHKP4U2C6BMNWGY0","A2JMEQ3KQFQCRM","3566S7OX5D5NH74JOVOPTTMK8IR17K","","642.4000000357628","img/flower5.png","76","643.5999999642372","3","1","3","2","1,0,0,1,1,0,1,0,1","0,0,1,1,0,1,0,1,1","2",""
"","html-keyboard-response","147","201018","0.0-147.0","3570Y55XZQ55MQOHKP4U2C6BMNWGY0","A2JMEQ3KQFQCRM","3566S7OX5D5NH74JOVOPTTMK8IR17K","","null","<img src=""img/flower5.png"" style=""width:200px; border:14px solid green;"">","null","","","","","","","","",""
"","image-keyboard-response","148","201896","0.0-148.0","3570Y55XZQ55MQOHKP4U2C6BMNWGY0","A2JMEQ3KQFQCRM","3566S7OX5D5NH74JOVOPTTMK8IR17K","","877","img/flower5.png","75","878.1999999880791","2","1","3","2","1,0,0,1,1,0,1,0,1","0,0,1,1,0,1,0,1,1","2",""
"","html-keyboard-response","149","202199","0.0-149.0","3570Y55XZQ55MQOHKP4U2C6BMNWGY0","A2JMEQ3KQFQCRM","3566S7OX5D5NH74JOVOPTTMK8IR17K","","null","<img src=""img/flower5.png"" style=""width:200px; border:14px solid green;"">","null","","","","","","","","",""
"","image-keyboard-response","150","202462","0.0-150.0","3570Y55XZQ55MQOHKP4U2C6BMNWGY0","A2JMEQ3KQFQCRM","3566S7OX5D5NH74JOVOPTTMK8IR17K","","262.5","img/flower4.png","75","263.30000001192093","2","0","2","2","1,0,0,1,1,0,1,0,1","0,0,1,1,0,1,0,1,1","2",""
"","html-keyboard-response","151","202765","0.0-151.0","3570Y55XZQ55MQOHKP4U2C6BMNWGY0","A2JMEQ3KQFQCRM","3566S7OX5D5NH74JOVOPTTMK8IR17K","","null","<img src=""img/flower4.png"" style=""width:200px;border:14px solid red;"">","null","","","","","","","","",""
"","image-keyboard-response","152","202997","0.0-152.0","3570Y55XZQ55MQOHKP4U2C6BMNWGY0","A2JMEQ3KQFQCRM","3566S7OX5D5NH74JOVOPTTMK8IR17K","","229.89999997615814","img/flower5.png","74","231.30000001192093","1","0","3","2","1,0,0,1,1,0,1,0,1","0,0,1,1,0,1,0,1,1","2",""
"","html-keyboard-response","153","203299","0.0-153.0","3570Y55XZQ55MQOHKP4U2C6BMNWGY0","A2JMEQ3KQFQCRM","3566S7OX5D5NH74JOVOPTTMK8IR17K","","null","<img src=""img/flower5.png"" style=""width:200px;border:14px solid red;"">","null","","","","","","","","",""
"","image-keyboard-response","154","203907","0.0-154.0","3570Y55XZQ55MQOHKP4U2C6BMNWGY0","A2JMEQ3KQFQCRM","3566S7OX5D5NH74JOVOPTTMK8IR17K","","605.6999999880791","img/flower6.png","76","607","3","1","1","2","1,0,0,1,1,0,1,0,1","0,0,1,1,0,1,0,1,1","2",""
"","html-keyboard-response","155","204210","0.0-155.0","3570Y55XZQ55MQOHKP4U2C6BMNWGY0","A2JMEQ3KQFQCRM","3566S7OX5D5NH74JOVOPTTMK8IR17K","","null","<img src=""img/flower6.png"" style=""width:200px; border:14px solid green;"">","null","","","","","","","","",""
"","image-keyboard-response","156","205633","0.0-156.0","3570Y55XZQ55MQOHKP4U2C6BMNWGY0","A2JMEQ3KQFQCRM","3566S7OX5D5NH74JOVOPTTMK8IR17K","","1421.800000011921","img/flower5.png","75","1423","2","1","3","2","1,0,0,1,1,0,1,0,1","0,0,1,1,0,1,0,1,1","2",""
"","html-keyboard-response","157","205935","0.0-157.0","3570Y55XZQ55MQOHKP4U2C6BMNWGY0","A2JMEQ3KQFQCRM","3566S7OX5D5NH74JOVOPTTMK8IR17K","","null","<img src=""img/flower5.png"" style=""width:200px; border:14px solid green;"">","null","","","","","","","","",""
"","image-keyboard-response","158","206488","0.0-158.0","3570Y55XZQ55MQOHKP4U2C6BMNWGY0","A2JMEQ3KQFQCRM","3566S7OX5D5NH74JOVOPTTMK8IR17K","","551.4000000357628","img/flower6.png","76","552.6000000238419","3","1","1","2","1,0,0,1,1,0,1,0,1","0,0,1,1,0,1,0,1,1","2",""
"","html-keyboard-response","159","206790","0.0-159.0","3570Y55XZQ55MQOHKP4U2C6BMNWGY0","A2JMEQ3KQFQCRM","3566S7OX5D5NH74JOVOPTTMK8IR17K","","null","<img src=""img/flower6.png"" style=""width:200px; border:14px solid green;"">","null","","","","","","","","",""
"","image-keyboard-response","160","207440","0.0-160.0","3570Y55XZQ55MQOHKP4U2C6BMNWGY0","A2JMEQ3KQFQCRM","3566S7OX5D5NH74JOVOPTTMK8IR17K","","648.8000000119209","img/flower4.png","74","650.1999999880791","1","1","2","2","1,0,0,1,1,0,1,0,1","0,0,1,1,0,1,0,1,1","2",""
"","html-keyboard-response","161","207742","0.0-161.0","3570Y55XZQ55MQOHKP4U2C6BMNWGY0","A2JMEQ3KQFQCRM","3566S7OX5D5NH74JOVOPTTMK8IR17K","","null","<img src=""img/flower4.png"" style=""width:200px; border:14px solid green;"">","null","","","","","","","","",""
"","image-keyboard-response","162","208372","0.0-162.0","3570Y55XZQ55MQOHKP4U2C6BMNWGY0","A2JMEQ3KQFQCRM","3566S7OX5D5NH74JOVOPTTMK8IR17K","","628.0999999642372","img/flower6.png","76","628.7999999523163","3","1","1","2","1,0,0,1,1,0,1,0,1","0,0,1,1,0,1,0,1,1","2",""
"","html-keyboard-response","163","208673","0.0-163.0","3570Y55XZQ55MQOHKP4U2C6BMNWGY0","A2JMEQ3KQFQCRM","3566S7OX5D5NH74JOVOPTTMK8IR17K","","null","<img src=""img/flower6.png"" style=""width:200px; border:14px solid green;"">","null","","","","","","","","",""
"","image-keyboard-response","164","209193","0.0-164.0","3570Y55XZQ55MQOHKP4U2C6BMNWGY0","A2JMEQ3KQFQCRM","3566S7OX5D5NH74JOVOPTTMK8IR17K","","519","img/flower5.png","75","520.1999999880791","2","1","3","2","1,0,0,1,1,0,1,0,1","0,0,1,1,0,1,0,1,1","2",""
"","html-keyboard-response","165","209495","0.0-165.0","3570Y55XZQ55MQOHKP4U2C6BMNWGY0","A2JMEQ3KQFQCRM","3566S7OX5D5NH74JOVOPTTMK8IR17K","","null","<img src=""img/flower5.png"" style=""width:200px; border:14px solid green;"">","null","","","","","","","","",""
"","image-keyboard-response","166","209764","0.0-166.0","3570Y55XZQ55MQOHKP4U2C6BMNWGY0","A2JMEQ3KQFQCRM","3566S7OX5D5NH74JOVOPTTMK8IR17K","","267.9000000357628","img/flower4.png","76","268.80000001192093","3","1","2","2","1,0,0,1,1,0,1,0,1","0,0,1,1,0,1,0,1,1","2",""
"","html-keyboard-response","167","210066","0.0-167.0","3570Y55XZQ55MQOHKP4U2C6BMNWGY0","A2JMEQ3KQFQCRM","3566S7OX5D5NH74JOVOPTTMK8IR17K","","null","<img src=""img/flower4.png"" style=""width:200px; border:14px solid green;"">","null","","","","","","","","",""
"","image-keyboard-response","168","210739","0.0-168.0","3570Y55XZQ55MQOHKP4U2C6BMNWGY0","A2JMEQ3KQFQCRM","3566S7OX5D5NH74JOVOPTTMK8IR17K","","671.3000000119209","img/flower6.png","76","672.5","3","1","1","2","1,0,0,1,1,0,1,0,1","0,0,1,1,0,1,0,1,1","2",""
"","html-keyboard-response","169","211042","0.0-169.0","3570Y55XZQ55MQOHKP4U2C6BMNWGY0","A2JMEQ3KQFQCRM","3566S7OX5D5NH74JOVOPTTMK8IR17K","","null","<img src=""img/flower6.png"" style=""width:200px; border:14px solid green;"">","null","","","","","","","","",""
"","image-keyboard-response","170","211583","0.0-170.0","3570Y55XZQ55MQOHKP4U2C6BMNWGY0","A2JMEQ3KQFQCRM","3566S7OX5D5NH74JOVOPTTMK8IR17K","","539.3000000119209","img/flower5.png","75","540.3000000119209","2","1","3","2","1,0,0,1,1,0,1,0,1","0,0,1,1,0,1,0,1,1","2",""
"","html-keyboard-response","171","211885","0.0-171.0","3570Y55XZQ55MQOHKP4U2C6BMNWGY0","A2JMEQ3KQFQCRM","3566S7OX5D5NH74JOVOPTTMK8IR17K","","null","<img src=""img/flower5.png"" style=""width:200px; border:14px solid green;"">","null","","","","","","","","",""
"","image-keyboard-response","172","212261","0.0-172.0","3570Y55XZQ55MQOHKP4U2C6BMNWGY0","A2JMEQ3KQFQCRM","3566S7OX5D5NH74JOVOPTTMK8IR17K","","374.80000001192093","img/flower4.png","76","375.89999997615814","3","1","2","2","1,0,0,1,1,0,1,0,1","0,0,1,1,0,1,0,1,1","2",""
"","html-keyboard-response","173","212565","0.0-173.0","3570Y55XZQ55MQOHKP4U2C6BMNWGY0","A2JMEQ3KQFQCRM","3566S7OX5D5NH74JOVOPTTMK8IR17K","","null","<img src=""img/flower4.png"" style=""width:200px; border:14px solid green;"">","null","","","","","","","","",""
"","image-keyboard-response","174","212865","0.0-174.0","3570Y55XZQ55MQOHKP4U2C6BMNWGY0","A2JMEQ3KQFQCRM","3566S7OX5D5NH74JOVOPTTMK8IR17K","","299","img/flower4.png","76","300.2999999523163","3","1","2","2","1,0,0,1,1,0,1,0,1","0,0,1,1,0,1,0,1,1","2",""
"","html-keyboard-response","175","213168","0.0-175.0","3570Y55XZQ55MQOHKP4U2C6BMNWGY0","A2JMEQ3KQFQCRM","3566S7OX5D5NH74JOVOPTTMK8IR17K","","null","<img src=""img/flower4.png"" style=""width:200px; border:14px solid green;"">","null","","","","","","","","",""
"","image-keyboard-response","176","213326","0.0-176.0","3570Y55XZQ55MQOHKP4U2C6BMNWGY0","A2JMEQ3KQFQCRM","3566S7OX5D5NH74JOVOPTTMK8IR17K","","156.80000001192093","img/flower6.png","76","158","3","1","1","2","1,0,0,1,1,0,1,0,1","0,0,1,1,0,1,0,1,1","2",""
"","html-keyboard-response","177","213628","0.0-177.0","3570Y55XZQ55MQOHKP4U2C6BMNWGY0","A2JMEQ3KQFQCRM","3566S7OX5D5NH74JOVOPTTMK8IR17K","","null","<img src=""img/flower6.png"" style=""width:200px; border:14px solid green;"">","null","","","","","","","","",""
"","image-keyboard-response","178","213888","0.0-178.0","3570Y55XZQ55MQOHKP4U2C6BMNWGY0","A2JMEQ3KQFQCRM","3566S7OX5D5NH74JOVOPTTMK8IR17K","","257.80000001192093","img/flower6.png","76","259.0999999642372","3","1","1","2","1,0,0,1,1,0,1,0,1","0,0,1,1,0,1,0,1,1","2",""
"","html-keyboard-response","179","214190","0.0-179.0","3570Y55XZQ55MQOHKP4U2C6BMNWGY0","A2JMEQ3KQFQCRM","3566S7OX5D5NH74JOVOPTTMK8IR17K","","null","<img src=""img/flower6.png"" style=""width:200px; border:14px solid green;"">","null","","","","","","","","",""
"","image-keyboard-response","180","214274","0.0-180.0","3570Y55XZQ55MQOHKP4U2C6BMNWGY0","A2JMEQ3KQFQCRM","3566S7OX5D5NH74JOVOPTTMK8IR17K","","82.30000001192093","img/flower4.png","76","83.30000001192093","3","1","2","2","1,0,0,1,1,0,1,0,1","0,0,1,1,0,1,0,1,1","2",""
"","html-keyboard-response","181","214576","0.0-181.0","3570Y55XZQ55MQOHKP4U2C6BMNWGY0","A2JMEQ3KQFQCRM","3566S7OX5D5NH74JOVOPTTMK8IR17K","","null","<img src=""img/flower4.png"" style=""width:200px; border:14px solid green;"">","null","","","","","","","","",""
"","image-keyboard-response","182","214729","0.0-182.0","3570Y55XZQ55MQOHKP4U2C6BMNWGY0","A2JMEQ3KQFQCRM","3566S7OX5D5NH74JOVOPTTMK8IR17K","","151.70000004768372","img/flower1.png","76","152.9000000357628","3","0","2","1","1,0.333,0.333,0.333,1,0.333,0.333,0.333,1","1,0.333,0.333,0.333,1,0.333,0.333,0.333,1","1",""
"","html-keyboard-response","183","215031","0.0-183.0","3570Y55XZQ55MQOHKP4U2C6BMNWGY0","A2JMEQ3KQFQCRM","3566S7OX5D5NH74JOVOPTTMK8IR17K","","null","<img src=""img/flower1.png"" style=""width:200px;border:14px solid red;"">","null","","","","","","","","",""
"","image-keyboard-response","184","215809","0.0-184.0","3570Y55XZQ55MQOHKP4U2C6BMNWGY0","A2JMEQ3KQFQCRM","3566S7OX5D5NH74JOVOPTTMK8IR17K","","777.0999999642372","img/flower2.png","75","778.3000000119209","2","1","3","1","1,0.333,0.333,0.333,1,0.333,0.333,0.333,1","1,0.333,0.333,0.333,1,0.333,0.333,0.333,1","1",""
"","html-keyboard-response","185","216111","0.0-185.0","3570Y55XZQ55MQOHKP4U2C6BMNWGY0","A2JMEQ3KQFQCRM","3566S7OX5D5NH74JOVOPTTMK8IR17K","","null","<img src=""img/flower2.png"" style=""width:200px; border:14px solid green;"">","null","","","","","","","","",""
"","image-keyboard-response","186","216700","0.0-186.0","3570Y55XZQ55MQOHKP4U2C6BMNWGY0","A2JMEQ3KQFQCRM","3566S7OX5D5NH74JOVOPTTMK8IR17K","","588.4000000357628","img/flower2.png","75","589.0999999642372","2","0","3","1","1,0.333,0.333,0.333,1,0.333,0.333,0.333,1","1,0.333,0.333,0.333,1,0.333,0.333,0.333,1","1",""
"","html-keyboard-response","187","217003","0.0-187.0","3570Y55XZQ55MQOHKP4U2C6BMNWGY0","A2JMEQ3KQFQCRM","3566S7OX5D5NH74JOVOPTTMK8IR17K","","null","<img src=""img/flower2.png"" style=""width:200px;border:14px solid red;"">","null","","","","","","","","",""
"","image-keyboard-response","188","217453","0.0-188.0","3570Y55XZQ55MQOHKP4U2C6BMNWGY0","A2JMEQ3KQFQCRM","3566S7OX5D5NH74JOVOPTTMK8IR17K","","448.5","img/flower2.png","75","449.80000001192093","2","0","3","1","1,0.333,0.333,0.333,1,0.333,0.333,0.333,1","1,0.333,0.333,0.333,1,0.333,0.333,0.333,1","1",""
"","html-keyboard-response","189","217755","0.0-189.0","3570Y55XZQ55MQOHKP4U2C6BMNWGY0","A2JMEQ3KQFQCRM","3566S7OX5D5NH74JOVOPTTMK8IR17K","","null","<img src=""img/flower2.png"" style=""width:200px;border:14px solid red;"">","null","","","","","","","","",""
"","image-keyboard-response","190","218120","0.0-190.0","3570Y55XZQ55MQOHKP4U2C6BMNWGY0","A2JMEQ3KQFQCRM","3566S7OX5D5NH74JOVOPTTMK8IR17K","","363.39999997615814","img/flower2.png","76","364.69999998807907","3","1","3","1","1,0.333,0.333,0.333,1,0.333,0.333,0.333,1","1,0.333,0.333,0.333,1,0.333,0.333,0.333,1","1",""
"","html-keyboard-response","191","218422","0.0-191.0","3570Y55XZQ55MQOHKP4U2C6BMNWGY0","A2JMEQ3KQFQCRM","3566S7OX5D5NH74JOVOPTTMK8IR17K","","null","<img src=""img/flower2.png"" style=""width:200px; border:14px solid green;"">","null","","","","","","","","",""
"","image-keyboard-response","192","219130","0.0-192.0","3570Y55XZQ55MQOHKP4U2C6BMNWGY0","A2JMEQ3KQFQCRM","3566S7OX5D5NH74JOVOPTTMK8IR17K","","706.5","img/flower1.png","76","707.8000000119209","3","0","2","1","1,0.333,0.333,0.333,1,0.333,0.333,0.333,1","1,0.333,0.333,0.333,1,0.333,0.333,0.333,1","1",""
"","html-keyboard-response","193","219433","0.0-193.0","3570Y55XZQ55MQOHKP4U2C6BMNWGY0","A2JMEQ3KQFQCRM","3566S7OX5D5NH74JOVOPTTMK8IR17K","","null","<img src=""img/flower1.png"" style=""width:200px;border:14px solid red;"">","null","","","","","","","","",""
"","image-keyboard-response","194","219759","0.0-194.0","3570Y55XZQ55MQOHKP4U2C6BMNWGY0","A2JMEQ3KQFQCRM","3566S7OX5D5NH74JOVOPTTMK8IR17K","","324.30000001192093","img/flower2.png","75","325.5","2","0","3","1","1,0.333,0.333,0.333,1,0.333,0.333,0.333,1","1,0.333,0.333,0.333,1,0.333,0.333,0.333,1","1",""
"","html-keyboard-response","195","220061","0.0-195.0","3570Y55XZQ55MQOHKP4U2C6BMNWGY0","A2JMEQ3KQFQCRM","3566S7OX5D5NH74JOVOPTTMK8IR17K","","null","<img src=""img/flower2.png"" style=""width:200px;border:14px solid red;"">","null","","","","","","","","",""
"","image-keyboard-response","196","220397","0.0-196.0","3570Y55XZQ55MQOHKP4U2C6BMNWGY0","A2JMEQ3KQFQCRM","3566S7OX5D5NH74JOVOPTTMK8IR17K","","334.89999997615814","img/flower3.png","76","336.0999999642372","3","0","1","1","1,0.333,0.333,0.333,1,0.333,0.333,0.333,1","1,0.333,0.333,0.333,1,0.333,0.333,0.333,1","1",""
"","html-keyboard-response","197","220700","0.0-197.0","3570Y55XZQ55MQOHKP4U2C6BMNWGY0","A2JMEQ3KQFQCRM","3566S7OX5D5NH74JOVOPTTMK8IR17K","","null","<img src=""img/flower3.png"" style=""width:200px;border:14px solid red;"">","null","","","","","","","","",""
"","image-keyboard-response","198","221270","0.0-198.0","3570Y55XZQ55MQOHKP4U2C6BMNWGY0","A2JMEQ3KQFQCRM","3566S7OX5D5NH74JOVOPTTMK8IR17K","","568.5999999642372","img/flower3.png","74","569.8999999761581","1","1","1","1","1,0.333,0.333,0.333,1,0.333,0.333,0.333,1","1,0.333,0.333,0.333,1,0.333,0.333,0.333,1","1",""
"","html-keyboard-response","199","221572","0.0-199.0","3570Y55XZQ55MQOHKP4U2C6BMNWGY0","A2JMEQ3KQFQCRM","3566S7OX5D5NH74JOVOPTTMK8IR17K","","null","<img src=""img/flower3.png"" style=""width:200px; border:14px solid green;"">","null","","","","","","","","",""
"","image-keyboard-response","200","222264","0.0-200.0","3570Y55XZQ55MQOHKP4U2C6BMNWGY0","A2JMEQ3KQFQCRM","3566S7OX5D5NH74JOVOPTTMK8IR17K","","690.6000000238419","img/flower1.png","75","691.6999999880791","2","1","2","1","1,0.333,0.333,0.333,1,0.333,0.333,0.333,1","1,0.333,0.333,0.333,1,0.333,0.333,0.333,1","1",""
"","html-keyboard-response","201","222567","0.0-201.0","3570Y55XZQ55MQOHKP4U2C6BMNWGY0","A2JMEQ3KQFQCRM","3566S7OX5D5NH74JOVOPTTMK8IR17K","","null","<img src=""img/flower1.png"" style=""width:200px; border:14px solid green;"">","null","","","","","","","","",""
"","image-keyboard-response","202","223001","0.0-202.0","3570Y55XZQ55MQOHKP4U2C6BMNWGY0","A2JMEQ3KQFQCRM","3566S7OX5D5NH74JOVOPTTMK8IR17K","","432.4000000357628","img/flower2.png","76","433.5999999642372","3","1","3","1","1,0.333,0.333,0.333,1,0.333,0.333,0.333,1","1,0.333,0.333,0.333,1,0.333,0.333,0.333,1","1",""
"","html-keyboard-response","203","223304","0.0-203.0","3570Y55XZQ55MQOHKP4U2C6BMNWGY0","A2JMEQ3KQFQCRM","3566S7OX5D5NH74JOVOPTTMK8IR17K","","null","<img src=""img/flower2.png"" style=""width:200px; border:14px solid green;"">","null","","","","","","","","",""
"","image-keyboard-response","204","223623","0.0-204.0","3570Y55XZQ55MQOHKP4U2C6BMNWGY0","A2JMEQ3KQFQCRM","3566S7OX5D5NH74JOVOPTTMK8IR17K","","317.39999997615814","img/flower2.png","76","318.5999999642372","3","1","3","1","1,0.333,0.333,0.333,1,0.333,0.333,0.333,1","1,0.333,0.333,0.333,1,0.333,0.333,0.333,1","1",""
"","html-keyboard-response","205","223925","0.0-205.0","3570Y55XZQ55MQOHKP4U2C6BMNWGY0","A2JMEQ3KQFQCRM","3566S7OX5D5NH74JOVOPTTMK8IR17K","","null","<img src=""img/flower2.png"" style=""width:200px; border:14px solid green;"">","null","","","","","","","","",""
"","image-keyboard-response","206","224445","0.0-206.0","3570Y55XZQ55MQOHKP4U2C6BMNWGY0","A2JMEQ3KQFQCRM","3566S7OX5D5NH74JOVOPTTMK8IR17K","","518.1999999880791","img/flower3.png","74","519.4000000357628","1","1","1","1","1,0.333,0.333,0.333,1,0.333,0.333,0.333,1","1,0.333,0.333,0.333,1,0.333,0.333,0.333,1","1",""
"","html-keyboard-response","207","224747","0.0-207.0","3570Y55XZQ55MQOHKP4U2C6BMNWGY0","A2JMEQ3KQFQCRM","3566S7OX5D5NH74JOVOPTTMK8IR17K","","null","<img src=""img/flower3.png"" style=""width:200px; border:14px solid green;"">","null","","","","","","","","",""
"","image-keyboard-response","208","224952","0.0-208.0","3570Y55XZQ55MQOHKP4U2C6BMNWGY0","A2JMEQ3KQFQCRM","3566S7OX5D5NH74JOVOPTTMK8IR17K","","203.69999998807907","img/flower2.png","74","204.69999998807907","1","0","3","1","1,0.333,0.333,0.333,1,0.333,0.333,0.333,1","1,0.333,0.333,0.333,1,0.333,0.333,0.333,1","1",""
"","html-keyboard-response","209","225254","0.0-209.0","3570Y55XZQ55MQOHKP4U2C6BMNWGY0","A2JMEQ3KQFQCRM","3566S7OX5D5NH74JOVOPTTMK8IR17K","","null","<img src=""img/flower2.png"" style=""width:200px;border:14px solid red;"">","null","","","","","","","","",""
"","image-keyboard-response","210","225604","0.0-210.0","3570Y55XZQ55MQOHKP4U2C6BMNWGY0","A2JMEQ3KQFQCRM","3566S7OX5D5NH74JOVOPTTMK8IR17K","","348.7999999523163","img/flower3.png","76","349.80000001192093","3","1","1","1","1,0.333,0.333,0.333,1,0.333,0.333,0.333,1","1,0.333,0.333,0.333,1,0.333,0.333,0.333,1","1",""
"","html-keyboard-response","211","225906","0.0-211.0","3570Y55XZQ55MQOHKP4U2C6BMNWGY0","A2JMEQ3KQFQCRM","3566S7OX5D5NH74JOVOPTTMK8IR17K","","null","<img src=""img/flower3.png"" style=""width:200px; border:14px solid green;"">","null","","","","","","","","",""
"","image-keyboard-response","212","226571","0.0-212.0","3570Y55XZQ55MQOHKP4U2C6BMNWGY0","A2JMEQ3KQFQCRM","3566S7OX5D5NH74JOVOPTTMK8IR17K","","663.4000000357628","img/flower1.png","75","664.9000000357628","2","1","2","1","1,0.333,0.333,0.333,1,0.333,0.333,0.333,1","1,0.333,0.333,0.333,1,0.333,0.333,0.333,1","1",""
"","html-keyboard-response","213","226874","0.0-213.0","3570Y55XZQ55MQOHKP4U2C6BMNWGY0","A2JMEQ3KQFQCRM","3566S7OX5D5NH74JOVOPTTMK8IR17K","","null","<img src=""img/flower1.png"" style=""width:200px; border:14px solid green;"">","null","","","","","","","","",""
"","image-keyboard-response","214","227389","0.0-214.0","3570Y55XZQ55MQOHKP4U2C6BMNWGY0","A2JMEQ3KQFQCRM","3566S7OX5D5NH74JOVOPTTMK8IR17K","","513.7999999523163","img/flower2.png","76","515","3","1","3","1","1,0.333,0.333,0.333,1,0.333,0.333,0.333,1","1,0.333,0.333,0.333,1,0.333,0.333,0.333,1","1",""
"","html-keyboard-response","215","227691","0.0-215.0","3570Y55XZQ55MQOHKP4U2C6BMNWGY0","A2JMEQ3KQFQCRM","3566S7OX5D5NH74JOVOPTTMK8IR17K","","null","<img src=""img/flower2.png"" style=""width:200px; border:14px solid green;"">","null","","","","","","","","",""
"","image-keyboard-response","216","228002","0.0-216.0","3570Y55XZQ55MQOHKP4U2C6BMNWGY0","A2JMEQ3KQFQCRM","3566S7OX5D5NH74JOVOPTTMK8IR17K","","308.9000000357628","img/flower2.png","76","310.19999998807907","3","1","3","1","1,0.333,0.333,0.333,1,0.333,0.333,0.333,1","1,0.333,0.333,0.333,1,0.333,0.333,0.333,1","1",""
"","html-keyboard-response","217","228304","0.0-217.0","3570Y55XZQ55MQOHKP4U2C6BMNWGY0","A2JMEQ3KQFQCRM","3566S7OX5D5NH74JOVOPTTMK8IR17K","","null","<img src=""img/flower2.png"" style=""width:200px; border:14px solid green;"">","null","","","","","","","","",""
"","image-keyboard-response","218","229015","0.0-218.0","3570Y55XZQ55MQOHKP4U2C6BMNWGY0","A2JMEQ3KQFQCRM","3566S7OX5D5NH74JOVOPTTMK8IR17K","","709.3999999761581","img/flower3.png","74","710.7000000476837","1","1","1","1","1,0.333,0.333,0.333,1,0.333,0.333,0.333,1","1,0.333,0.333,0.333,1,0.333,0.333,0.333,1","1",""
"","html-keyboard-response","219","229317","0.0-219.0","3570Y55XZQ55MQOHKP4U2C6BMNWGY0","A2JMEQ3KQFQCRM","3566S7OX5D5NH74JOVOPTTMK8IR17K","","null","<img src=""img/flower3.png"" style=""width:200px; border:14px solid green;"">","null","","","","","","","","",""
"","image-keyboard-response","220","229799","0.0-220.0","3570Y55XZQ55MQOHKP4U2C6BMNWGY0","A2JMEQ3KQFQCRM","3566S7OX5D5NH74JOVOPTTMK8IR17K","","480.5999999642372","img/flower2.png","76","481.80000001192093","3","1","3","1","1,0.333,0.333,0.333,1,0.333,0.333,0.333,1","1,0.333,0.333,0.333,1,0.333,0.333,0.333,1","1",""
"","html-keyboard-response","221","230102","0.0-221.0","3570Y55XZQ55MQOHKP4U2C6BMNWGY0","A2JMEQ3KQFQCRM","3566S7OX5D5NH74JOVOPTTMK8IR17K","","null","<img src=""img/flower2.png"" style=""width:200px; border:14px solid green;"">","null","","","","","","","","",""
"","image-keyboard-response","222","230459","0.0-222.0","3570Y55XZQ55MQOHKP4U2C6BMNWGY0","A2JMEQ3KQFQCRM","3566S7OX5D5NH74JOVOPTTMK8IR17K","","355.89999997615814","img/flower2.png","76","357.10000002384186","3","1","3","1","1,0.333,0.333,0.333,1,0.333,0.333,0.333,1","1,0.333,0.333,0.333,1,0.333,0.333,0.333,1","1",""
"","html-keyboard-response","223","230761","0.0-223.0","3570Y55XZQ55MQOHKP4U2C6BMNWGY0","A2JMEQ3KQFQCRM","3566S7OX5D5NH74JOVOPTTMK8IR17K","","null","<img src=""img/flower2.png"" style=""width:200px; border:14px solid green;"">","null","","","","","","","","",""
"","image-keyboard-response","224","231060","0.0-224.0","3570Y55XZQ55MQOHKP4U2C6BMNWGY0","A2JMEQ3KQFQCRM","3566S7OX5D5NH74JOVOPTTMK8IR17K","","297","img/flower2.png","76","298.19999998807907","3","1","3","1","1,0.333,0.333,0.333,1,0.333,0.333,0.333,1","1,0.333,0.333,0.333,1,0.333,0.333,0.333,1","1",""
"","html-keyboard-response","225","231363","0.0-225.0","3570Y55XZQ55MQOHKP4U2C6BMNWGY0","A2JMEQ3KQFQCRM","3566S7OX5D5NH74JOVOPTTMK8IR17K","","null","<img src=""img/flower2.png"" style=""width:200px; border:14px solid green;"">","null","","","","","","","","",""
"","image-keyboard-response","226","231693","0.0-226.0","3570Y55XZQ55MQOHKP4U2C6BMNWGY0","A2JMEQ3KQFQCRM","3566S7OX5D5NH74JOVOPTTMK8IR17K","","328.5","img/flower2.png","76","329.69999998807907","3","1","3","1","1,0.333,0.333,0.333,1,0.333,0.333,0.333,1","1,0.333,0.333,0.333,1,0.333,0.333,0.333,1","1",""
"","html-keyboard-response","227","231996","0.0-227.0","3570Y55XZQ55MQOHKP4U2C6BMNWGY0","A2JMEQ3KQFQCRM","3566S7OX5D5NH74JOVOPTTMK8IR17K","","null","<img src=""img/flower2.png"" style=""width:200px; border:14px solid green;"">","null","","","","","","","","",""
"","image-keyboard-response","228","232603","0.0-228.0","3570Y55XZQ55MQOHKP4U2C6BMNWGY0","A2JMEQ3KQFQCRM","3566S7OX5D5NH74JOVOPTTMK8IR17K","","605.8999999761581","img/flower3.png","74","607.1000000238419","1","1","1","1","1,0.333,0.333,0.333,1,0.333,0.333,0.333,1","1,0.333,0.333,0.333,1,0.333,0.333,0.333,1","1",""
"","html-keyboard-response","229","232905","0.0-229.0","3570Y55XZQ55MQOHKP4U2C6BMNWGY0","A2JMEQ3KQFQCRM","3566S7OX5D5NH74JOVOPTTMK8IR17K","","null","<img src=""img/flower3.png"" style=""width:200px; border:14px solid green;"">","null","","","","","","","","",""
"","image-keyboard-response","230","233183","0.0-230.0","3570Y55XZQ55MQOHKP4U2C6BMNWGY0","A2JMEQ3KQFQCRM","3566S7OX5D5NH74JOVOPTTMK8IR17K","","275.69999998807907","img/flower3.png","74","277","1","1","1","1","1,0.333,0.333,0.333,1,0.333,0.333,0.333,1","1,0.333,0.333,0.333,1,0.333,0.333,0.333,1","1",""
"","html-keyboard-response","231","233485","0.0-231.0","3570Y55XZQ55MQOHKP4U2C6BMNWGY0","A2JMEQ3KQFQCRM","3566S7OX5D5NH74JOVOPTTMK8IR17K","","null","<img src=""img/flower3.png"" style=""width:200px; border:14px solid green;"">","null","","","","","","","","",""
"","image-keyboard-response","232","234003","0.0-232.0","3570Y55XZQ55MQOHKP4U2C6BMNWGY0","A2JMEQ3KQFQCRM","3566S7OX5D5NH74JOVOPTTMK8IR17K","","516.6000000238419","img/flower1.png","75","517.8000000119209","2","1","2","1","1,0.333,0.333,0.333,1,0.333,0.333,0.333,1","1,0.333,0.333,0.333,1,0.333,0.333,0.333,1","1",""
"","html-keyboard-response","233","234305","0.0-233.0","3570Y55XZQ55MQOHKP4U2C6BMNWGY0","A2JMEQ3KQFQCRM","3566S7OX5D5NH74JOVOPTTMK8IR17K","","null","<img src=""img/flower1.png"" style=""width:200px; border:14px solid green;"">","null","","","","","","","","",""
"","image-keyboard-response","234","234836","0.0-234.0","3570Y55XZQ55MQOHKP4U2C6BMNWGY0","A2JMEQ3KQFQCRM","3566S7OX5D5NH74JOVOPTTMK8IR17K","","529.1000000238419","img/flower3.png","74","530.1999999880791","1","1","1","1","1,0.333,0.333,0.333,1,0.333,0.333,0.333,1","1,0.333,0.333,0.333,1,0.333,0.333,0.333,1","1",""
"","html-keyboard-response","235","235138","0.0-235.0","3570Y55XZQ55MQOHKP4U2C6BMNWGY0","A2JMEQ3KQFQCRM","3566S7OX5D5NH74JOVOPTTMK8IR17K","","null","<img src=""img/flower3.png"" style=""width:200px; border:14px solid green;"">","null","","","","","","","","",""
"","image-keyboard-response","236","235490","0.0-236.0","3570Y55XZQ55MQOHKP4U2C6BMNWGY0","A2JMEQ3KQFQCRM","3566S7OX5D5NH74JOVOPTTMK8IR17K","","350.89999997615814","img/flower3.png","74","352.2000000476837","1","1","1","1","1,0.333,0.333,0.333,1,0.333,0.333,0.333,1","1,0.333,0.333,0.333,1,0.333,0.333,0.333,1","1",""
"","html-keyboard-response","237","235793","0.0-237.0","3570Y55XZQ55MQOHKP4U2C6BMNWGY0","A2JMEQ3KQFQCRM","3566S7OX5D5NH74JOVOPTTMK8IR17K","","null","<img src=""img/flower3.png"" style=""width:200px; border:14px solid green;"">","null","","","","","","","","",""
"","image-keyboard-response","238","236240","0.0-238.0","3570Y55XZQ55MQOHKP4U2C6BMNWGY0","A2JMEQ3KQFQCRM","3566S7OX5D5NH74JOVOPTTMK8IR17K","","444.5999999642372","img/flower2.png","76","446","3","1","3","1","1,0.333,0.333,0.333,1,0.333,0.333,0.333,1","1,0.333,0.333,0.333,1,0.333,0.333,0.333,1","1",""
"","html-keyboard-response","239","236544","0.0-239.0","3570Y55XZQ55MQOHKP4U2C6BMNWGY0","A2JMEQ3KQFQCRM","3566S7OX5D5NH74JOVOPTTMK8IR17K","","null","<img src=""img/flower2.png"" style=""width:200px; border:14px solid green;"">","null","","","","","","","","",""
"","image-keyboard-response","240","237018","0.0-240.0","3570Y55XZQ55MQOHKP4U2C6BMNWGY0","A2JMEQ3KQFQCRM","3566S7OX5D5NH74JOVOPTTMK8IR17K","","472.4000000357628","img/flower3.png","75","473.80000001192093","2","1","1","1","1,0.333,0.333,0.333,1,0.333,0.333,0.333,1","1,0.333,0.333,0.333,1,0.333,0.333,0.333,1","1",""
"","html-keyboard-response","241","237321","0.0-241.0","3570Y55XZQ55MQOHKP4U2C6BMNWGY0","A2JMEQ3KQFQCRM","3566S7OX5D5NH74JOVOPTTMK8IR17K","","null","<img src=""img/flower3.png"" style=""width:200px; border:14px solid green;"">","null","","","","","","","","",""
"","image-keyboard-response","242","237628","0.0-242.0","3570Y55XZQ55MQOHKP4U2C6BMNWGY0","A2JMEQ3KQFQCRM","3566S7OX5D5NH74JOVOPTTMK8IR17K","","305.69999998807907","img/flower3.png","74","306.89999997615814","1","1","1","1","1,0.333,0.333,0.333,1,0.333,0.333,0.333,1","1,0.333,0.333,0.333,1,0.333,0.333,0.333,1","1",""
"","html-keyboard-response","243","237930","0.0-243.0","3570Y55XZQ55MQOHKP4U2C6BMNWGY0","A2JMEQ3KQFQCRM","3566S7OX5D5NH74JOVOPTTMK8IR17K","","null","<img src=""img/flower3.png"" style=""width:200px; border:14px solid green;"">","null","","","","","","","","",""
"","image-keyboard-response","244","238603","0.0-244.0","3570Y55XZQ55MQOHKP4U2C6BMNWGY0","A2JMEQ3KQFQCRM","3566S7OX5D5NH74JOVOPTTMK8IR17K","","671.0999999642372","img/flower2.png","76","672.4000000357628","3","1","3","1","1,0.333,0.333,0.333,1,0.333,0.333,0.333,1","1,0.333,0.333,0.333,1,0.333,0.333,0.333,1","1",""
"","html-keyboard-response","245","238905","0.0-245.0","3570Y55XZQ55MQOHKP4U2C6BMNWGY0","A2JMEQ3KQFQCRM","3566S7OX5D5NH74JOVOPTTMK8IR17K","","null","<img src=""img/flower2.png"" style=""width:200px; border:14px solid green;"">","null","","","","","","","","",""
"","image-keyboard-response","246","239166","0.0-246.0","3570Y55XZQ55MQOHKP4U2C6BMNWGY0","A2JMEQ3KQFQCRM","3566S7OX5D5NH74JOVOPTTMK8IR17K","","258.7999999523163","img/flower1.png","76","260","3","1","2","1","1,0.333,0.333,0.333,1,0.333,0.333,0.333,1","1,0.333,0.333,0.333,1,0.333,0.333,0.333,1","1",""
"","html-keyboard-response","247","239468","0.0-247.0","3570Y55XZQ55MQOHKP4U2C6BMNWGY0","A2JMEQ3KQFQCRM","3566S7OX5D5NH74JOVOPTTMK8IR17K","","null","<img src=""img/flower1.png"" style=""width:200px; border:14px solid green;"">","null","","","","","","","","",""
"","image-keyboard-response","248","239843","0.0-248.0","3570Y55XZQ55MQOHKP4U2C6BMNWGY0","A2JMEQ3KQFQCRM","3566S7OX5D5NH74JOVOPTTMK8IR17K","","373.5","img/flower3.png","75","374.69999998807907","2","0","1","1","1,0.333,0.333,0.333,1,0.333,0.333,0.333,1","1,0.333,0.333,0.333,1,0.333,0.333,0.333,1","1",""
"","html-keyboard-response","249","240146","0.0-249.0","3570Y55XZQ55MQOHKP4U2C6BMNWGY0","A2JMEQ3KQFQCRM","3566S7OX5D5NH74JOVOPTTMK8IR17K","","null","<img src=""img/flower3.png"" style=""width:200px;border:14px solid red;"">","null","","","","","","","","",""
"","image-keyboard-response","250","240603","0.0-250.0","3570Y55XZQ55MQOHKP4U2C6BMNWGY0","A2JMEQ3KQFQCRM","3566S7OX5D5NH74JOVOPTTMK8IR17K","","455.5999999642372","img/flower3.png","74","457.10000002384186","1","1","1","1","1,0.333,0.333,0.333,1,0.333,0.333,0.333,1","1,0.333,0.333,0.333,1,0.333,0.333,0.333,1","1",""
"","html-keyboard-response","251","240920","0.0-251.0","3570Y55XZQ55MQOHKP4U2C6BMNWGY0","A2JMEQ3KQFQCRM","3566S7OX5D5NH74JOVOPTTMK8IR17K","","null","<img src=""img/flower3.png"" style=""width:200px; border:14px solid green;"">","null","","","","","","","","",""
"","image-keyboard-response","252","241461","0.0-252.0","3570Y55XZQ55MQOHKP4U2C6BMNWGY0","A2JMEQ3KQFQCRM","3566S7OX5D5NH74JOVOPTTMK8IR17K","","538.8000000119209","img/flower1.png","75","540.1000000238419","2","1","2","1","1,0.333,0.333,0.333,1,0.333,0.333,0.333,1","1,0.333,0.333,0.333,1,0.333,0.333,0.333,1","1",""
"","html-keyboard-response","253","241763","0.0-253.0","3570Y55XZQ55MQOHKP4U2C6BMNWGY0","A2JMEQ3KQFQCRM","3566S7OX5D5NH74JOVOPTTMK8IR17K","","null","<img src=""img/flower1.png"" style=""width:200px; border:14px solid green;"">","null","","","","","","","","",""
"","image-keyboard-response","254","242265","0.0-254.0","3570Y55XZQ55MQOHKP4U2C6BMNWGY0","A2JMEQ3KQFQCRM","3566S7OX5D5NH74JOVOPTTMK8IR17K","","500.39999997615814","img/flower2.png","76","501.5999999642372","3","1","3","1","1,0.333,0.333,0.333,1,0.333,0.333,0.333,1","1,0.333,0.333,0.333,1,0.333,0.333,0.333,1","1",""
"","html-keyboard-response","255","242567","0.0-255.0","3570Y55XZQ55MQOHKP4U2C6BMNWGY0","A2JMEQ3KQFQCRM","3566S7OX5D5NH74JOVOPTTMK8IR17K","","null","<img src=""img/flower2.png"" style=""width:200px; border:14px solid green;"">","null","","","","","","","","",""
"","image-keyboard-response","256","243129","0.0-256.0","3570Y55XZQ55MQOHKP4U2C6BMNWGY0","A2JMEQ3KQFQCRM","3566S7OX5D5NH74JOVOPTTMK8IR17K","","559.6999999880791","img/flower1.png","75","561","2","1","2","1","1,0.333,0.333,0.333,1,0.333,0.333,0.333,1","1,0.333,0.333,0.333,1,0.333,0.333,0.333,1","1",""
"","html-keyboard-response","257","243432","0.0-257.0","3570Y55XZQ55MQOHKP4U2C6BMNWGY0","A2JMEQ3KQFQCRM","3566S7OX5D5NH74JOVOPTTMK8IR17K","","null","<img src=""img/flower1.png"" style=""width:200px; border:14px solid green;"">","null","","","","","","","","",""
"","image-keyboard-response","258","243904","0.0-258.0","3570Y55XZQ55MQOHKP4U2C6BMNWGY0","A2JMEQ3KQFQCRM","3566S7OX5D5NH74JOVOPTTMK8IR17K","","471.5","img/flower1.png","75","472.5","2","1","2","1","1,0.333,0.333,0.333,1,0.333,0.333,0.333,1","1,0.333,0.333,0.333,1,0.333,0.333,0.333,1","1",""
"","html-keyboard-response","259","244206","0.0-259.0","3570Y55XZQ55MQOHKP4U2C6BMNWGY0","A2JMEQ3KQFQCRM","3566S7OX5D5NH74JOVOPTTMK8IR17K","","null","<img src=""img/flower1.png"" style=""width:200px; border:14px solid green;"">","null","","","","","","","","",""
"","image-keyboard-response","260","244837","0.0-260.0","3570Y55XZQ55MQOHKP4U2C6BMNWGY0","A2JMEQ3KQFQCRM","3566S7OX5D5NH74JOVOPTTMK8IR17K","","629.5","img/flower3.png","74","630.6999999880791","1","1","1","1","1,0.333,0.333,0.333,1,0.333,0.333,0.333,1","1,0.333,0.333,0.333,1,0.333,0.333,0.333,1","1",""
"","html-keyboard-response","261","245139","0.0-261.0","3570Y55XZQ55MQOHKP4U2C6BMNWGY0","A2JMEQ3KQFQCRM","3566S7OX5D5NH74JOVOPTTMK8IR17K","","null","<img src=""img/flower3.png"" style=""width:200px; border:14px solid green;"">","null","","","","","","","","",""
"","image-keyboard-response","262","245389","0.0-262.0","3570Y55XZQ55MQOHKP4U2C6BMNWGY0","A2JMEQ3KQFQCRM","3566S7OX5D5NH74JOVOPTTMK8IR17K","","249","img/flower1.png","74","250.30000001192093","1","0","2","1","1,0.333,0.333,0.333,1,0.333,0.333,0.333,1","1,0.333,0.333,0.333,1,0.333,0.333,0.333,1","1",""
"","html-keyboard-response","263","245693","0.0-263.0","3570Y55XZQ55MQOHKP4U2C6BMNWGY0","A2JMEQ3KQFQCRM","3566S7OX5D5NH74JOVOPTTMK8IR17K","","null","<img src=""img/flower1.png"" style=""width:200px;border:14px solid red;"">","null","","","","","","","","",""
"","image-keyboard-response","264","246200","0.0-264.0","3570Y55XZQ55MQOHKP4U2C6BMNWGY0","A2JMEQ3KQFQCRM","3566S7OX5D5NH74JOVOPTTMK8IR17K","","505.5","img/flower3.png","75","506.9000000357628","2","0","1","1","1,0.333,0.333,0.333,1,0.333,0.333,0.333,1","1,0.333,0.333,0.333,1,0.333,0.333,0.333,1","1",""
"","html-keyboard-response","265","246502","0.0-265.0","3570Y55XZQ55MQOHKP4U2C6BMNWGY0","A2JMEQ3KQFQCRM","3566S7OX5D5NH74JOVOPTTMK8IR17K","","null","<img src=""img/flower3.png"" style=""width:200px;border:14px solid red;"">","null","","","","","","","","",""
"","image-keyboard-response","266","246867","0.0-266.0","3570Y55XZQ55MQOHKP4U2C6BMNWGY0","A2JMEQ3KQFQCRM","3566S7OX5D5NH74JOVOPTTMK8IR17K","","363.19999998807907","img/flower1.png","74","364.0999999642372","1","0","2","1","1,0.333,0.333,0.333,1,0.333,0.333,0.333,1","1,0.333,0.333,0.333,1,0.333,0.333,0.333,1","1",""
"","html-keyboard-response","267","247168","0.0-267.0","3570Y55XZQ55MQOHKP4U2C6BMNWGY0","A2JMEQ3KQFQCRM","3566S7OX5D5NH74JOVOPTTMK8IR17K","","null","<img src=""img/flower1.png"" style=""width:200px;border:14px solid red;"">","null","","","","","","","","",""
"","image-keyboard-response","268","247756","0.0-268.0","3570Y55XZQ55MQOHKP4U2C6BMNWGY0","A2JMEQ3KQFQCRM","3566S7OX5D5NH74JOVOPTTMK8IR17K","","586.3999999761581","img/flower2.png","76","587.5","3","1","3","1","1,0.333,0.333,0.333,1,0.333,0.333,0.333,1","1,0.333,0.333,0.333,1,0.333,0.333,0.333,1","1",""
"","html-keyboard-response","269","248058","0.0-269.0","3570Y55XZQ55MQOHKP4U2C6BMNWGY0","A2JMEQ3KQFQCRM","3566S7OX5D5NH74JOVOPTTMK8IR17K","","null","<img src=""img/flower2.png"" style=""width:200px; border:14px solid green;"">","null","","","","","","","","",""
"","image-keyboard-response","270","248258","0.0-270.0","3570Y55XZQ55MQOHKP4U2C6BMNWGY0","A2JMEQ3KQFQCRM","3566S7OX5D5NH74JOVOPTTMK8IR17K","","198.69999998807907","img/flower2.png","76","200.0999999642372","3","1","3","1","1,0.333,0.333,0.333,1,0.333,0.333,0.333,1","1,0.333,0.333,0.333,1,0.333,0.333,0.333,1","1",""
"","html-keyboard-response","271","248561","0.0-271.0","3570Y55XZQ55MQOHKP4U2C6BMNWGY0","A2JMEQ3KQFQCRM","3566S7OX5D5NH74JOVOPTTMK8IR17K","","null","<img src=""img/flower2.png"" style=""width:200px; border:14px solid green;"">","null","","","","","","","","",""
"","image-keyboard-response","272","248740","0.0-272.0","3570Y55XZQ55MQOHKP4U2C6BMNWGY0","A2JMEQ3KQFQCRM","3566S7OX5D5NH74JOVOPTTMK8IR17K","","177.89999997615814","img/flower2.png","76","179","3","1","3","1","1,0.333,0.333,0.333,1,0.333,0.333,0.333,1","1,0.333,0.333,0.333,1,0.333,0.333,0.333,1","1",""
"","html-keyboard-response","273","249042","0.0-273.0","3570Y55XZQ55MQOHKP4U2C6BMNWGY0","A2JMEQ3KQFQCRM","3566S7OX5D5NH74JOVOPTTMK8IR17K","","null","<img src=""img/flower2.png"" style=""width:200px; border:14px solid green;"">","null","","","","","","","","",""
"","image-keyboard-response","274","249217","0.0-274.0","3570Y55XZQ55MQOHKP4U2C6BMNWGY0","A2JMEQ3KQFQCRM","3566S7OX5D5NH74JOVOPTTMK8IR17K","","173","img/flower3.png","76","174.20000004768372","3","0","1","1","1,0.333,0.333,0.333,1,0.333,0.333,0.333,1","1,0.333,0.333,0.333,1,0.333,0.333,0.333,1","1",""
"","html-keyboard-response","275","249519","0.0-275.0","3570Y55XZQ55MQOHKP4U2C6BMNWGY0","A2JMEQ3KQFQCRM","3566S7OX5D5NH74JOVOPTTMK8IR17K","","null","<img src=""img/flower3.png"" style=""width:200px;border:14px solid red;"">","null","","","","","","","","",""
"","image-keyboard-response","276","250036","0.0-276.0","3570Y55XZQ55MQOHKP4U2C6BMNWGY0","A2JMEQ3KQFQCRM","3566S7OX5D5NH74JOVOPTTMK8IR17K","","515.6000000238419","img/flower2.png","76","516.8000000119209","3","1","3","1","1,0.333,0.333,0.333,1,0.333,0.333,0.333,1","1,0.333,0.333,0.333,1,0.333,0.333,0.333,1","1",""
"","html-keyboard-response","277","250339","0.0-277.0","3570Y55XZQ55MQOHKP4U2C6BMNWGY0","A2JMEQ3KQFQCRM","3566S7OX5D5NH74JOVOPTTMK8IR17K","","null","<img src=""img/flower2.png"" style=""width:200px; border:14px solid green;"">","null","","","","","","","","",""
"","image-keyboard-response","278","250656","0.0-278.0","3570Y55XZQ55MQOHKP4U2C6BMNWGY0","A2JMEQ3KQFQCRM","3566S7OX5D5NH74JOVOPTTMK8IR17K","","316.19999998807907","img/flower1.png","76","317.39999997615814","3","0","2","1","1,0.333,0.333,0.333,1,0.333,0.333,0.333,1","1,0.333,0.333,0.333,1,0.333,0.333,0.333,1","1",""
"","html-keyboard-response","279","250958","0.0-279.0","3570Y55XZQ55MQOHKP4U2C6BMNWGY0","A2JMEQ3KQFQCRM","3566S7OX5D5NH74JOVOPTTMK8IR17K","","null","<img src=""img/flower1.png"" style=""width:200px;border:14px solid red;"">","null","","","","","","","","",""
"","image-keyboard-response","280","251681","0.0-280.0","3570Y55XZQ55MQOHKP4U2C6BMNWGY0","A2JMEQ3KQFQCRM","3566S7OX5D5NH74JOVOPTTMK8IR17K","","720.5","img/flower3.png","74","721.8999999761581","1","1","1","1","1,0.333,0.333,0.333,1,0.333,0.333,0.333,1","1,0.333,0.333,0.333,1,0.333,0.333,0.333,1","1",""
"","html-keyboard-response","281","251983","0.0-281.0","3570Y55XZQ55MQOHKP4U2C6BMNWGY0","A2JMEQ3KQFQCRM","3566S7OX5D5NH74JOVOPTTMK8IR17K","","null","<img src=""img/flower3.png"" style=""width:200px; border:14px solid green;"">","null","","","","","","","","",""
"","image-keyboard-response","282","252636","0.0-282.0","3570Y55XZQ55MQOHKP4U2C6BMNWGY0","A2JMEQ3KQFQCRM","3566S7OX5D5NH74JOVOPTTMK8IR17K","","652","img/flower1.png","75","653.3000000119209","2","1","2","1","1,0.333,0.333,0.333,1,0.333,0.333,0.333,1","1,0.333,0.333,0.333,1,0.333,0.333,0.333,1","1",""
"","html-keyboard-response","283","252940","0.0-283.0","3570Y55XZQ55MQOHKP4U2C6BMNWGY0","A2JMEQ3KQFQCRM","3566S7OX5D5NH74JOVOPTTMK8IR17K","","null","<img src=""img/flower1.png"" style=""width:200px; border:14px solid green;"">","null","","","","","","","","",""
"","image-keyboard-response","284","253888","0.0-284.0","3570Y55XZQ55MQOHKP4U2C6BMNWGY0","A2JMEQ3KQFQCRM","3566S7OX5D5NH74JOVOPTTMK8IR17K","","946.8000000119209","img/flower3.png","76","948.1000000238419","3","1","1","1","1,0.333,0.333,0.333,1,0.333,0.333,0.333,1","1,0.333,0.333,0.333,1,0.333,0.333,0.333,1","1",""
"","html-keyboard-response","285","254195","0.0-285.0","3570Y55XZQ55MQOHKP4U2C6BMNWGY0","A2JMEQ3KQFQCRM","3566S7OX5D5NH74JOVOPTTMK8IR17K","","null","<img src=""img/flower3.png"" style=""width:200px; border:14px solid green;"">","null","","","","","","","","",""
"","image-keyboard-response","286","254740","0.0-286.0","3570Y55XZQ55MQOHKP4U2C6BMNWGY0","A2JMEQ3KQFQCRM","3566S7OX5D5NH74JOVOPTTMK8IR17K","","544.3000000119209","img/flower2.png","74","545.5","1","0","3","1","1,0.333,0.333,0.333,1,0.333,0.333,0.333,1","1,0.333,0.333,0.333,1,0.333,0.333,0.333,1","1",""
"","html-keyboard-response","287","255043","0.0-287.0","3570Y55XZQ55MQOHKP4U2C6BMNWGY0","A2JMEQ3KQFQCRM","3566S7OX5D5NH74JOVOPTTMK8IR17K","","null","<img src=""img/flower2.png"" style=""width:200px;border:14px solid red;"">","null","","","","","","","","",""
"","image-keyboard-response","288","255195","0.0-288.0","3570Y55XZQ55MQOHKP4U2C6BMNWGY0","A2JMEQ3KQFQCRM","3566S7OX5D5NH74JOVOPTTMK8IR17K","","150.80000001192093","img/flower2.png","76","152","3","1","3","1","1,0.333,0.333,0.333,1,0.333,0.333,0.333,1","1,0.333,0.333,0.333,1,0.333,0.333,0.333,1","1",""
"","html-keyboard-response","289","255504","0.0-289.0","3570Y55XZQ55MQOHKP4U2C6BMNWGY0","A2JMEQ3KQFQCRM","3566S7OX5D5NH74JOVOPTTMK8IR17K","","null","<img src=""img/flower2.png"" style=""width:200px; border:14px solid green;"">","null","","","","","","","","",""
"","image-keyboard-response","290","256353","0.0-290.0","3570Y55XZQ55MQOHKP4U2C6BMNWGY0","A2JMEQ3KQFQCRM","3566S7OX5D5NH74JOVOPTTMK8IR17K","","847.2999999523163","img/flower1.png","75","848.6000000238419","2","1","2","1","1,0.333,0.333,0.333,1,0.333,0.333,0.333,1","1,0.333,0.333,0.333,1,0.333,0.333,0.333,1","1",""
"","html-keyboard-response","291","256655","0.0-291.0","3570Y55XZQ55MQOHKP4U2C6BMNWGY0","A2JMEQ3KQFQCRM","3566S7OX5D5NH74JOVOPTTMK8IR17K","","null","<img src=""img/flower1.png"" style=""width:200px; border:14px solid green;"">","null","","","","","","","","",""
"","image-keyboard-response","292","256896","0.0-292.0","3570Y55XZQ55MQOHKP4U2C6BMNWGY0","A2JMEQ3KQFQCRM","3566S7OX5D5NH74JOVOPTTMK8IR17K","","239.5","img/flower3.png","75","240.69999998807907","2","1","1","1","1,0.333,0.333,0.333,1,0.333,0.333,0.333,1","1,0.333,0.333,0.333,1,0.333,0.333,0.333,1","1",""
"","html-keyboard-response","293","257198","0.0-293.0","3570Y55XZQ55MQOHKP4U2C6BMNWGY0","A2JMEQ3KQFQCRM","3566S7OX5D5NH74JOVOPTTMK8IR17K","","null","<img src=""img/flower3.png"" style=""width:200px; border:14px solid green;"">","null","","","","","","","","",""
"","image-keyboard-response","294","257679","0.0-294.0","3570Y55XZQ55MQOHKP4U2C6BMNWGY0","A2JMEQ3KQFQCRM","3566S7OX5D5NH74JOVOPTTMK8IR17K","","479.69999998807907","img/flower1.png","75","480.89999997615814","2","1","2","1","1,0.333,0.333,0.333,1,0.333,0.333,0.333,1","1,0.333,0.333,0.333,1,0.333,0.333,0.333,1","1",""
"","html-keyboard-response","295","257982","0.0-295.0","3570Y55XZQ55MQOHKP4U2C6BMNWGY0","A2JMEQ3KQFQCRM","3566S7OX5D5NH74JOVOPTTMK8IR17K","","null","<img src=""img/flower1.png"" style=""width:200px; border:14px solid green;"">","null","","","","","","","","",""
"","image-keyboard-response","296","258352","0.0-296.0","3570Y55XZQ55MQOHKP4U2C6BMNWGY0","A2JMEQ3KQFQCRM","3566S7OX5D5NH74JOVOPTTMK8IR17K","","368.69999998807907","img/flower1.png","75","369.80000001192093","2","1","2","1","1,0.333,0.333,0.333,1,0.333,0.333,0.333,1","1,0.333,0.333,0.333,1,0.333,0.333,0.333,1","1",""
"","html-keyboard-response","297","258655","0.0-297.0","3570Y55XZQ55MQOHKP4U2C6BMNWGY0","A2JMEQ3KQFQCRM","3566S7OX5D5NH74JOVOPTTMK8IR17K","","null","<img src=""img/flower1.png"" style=""width:200px; border:14px solid green;"">","null","","","","","","","","",""
"","image-keyboard-response","298","259099","0.0-298.0","3570Y55XZQ55MQOHKP4U2C6BMNWGY0","A2JMEQ3KQFQCRM","3566S7OX5D5NH74JOVOPTTMK8IR17K","","442.69999998807907","img/flower3.png","75","444","2","0","1","1","1,0.333,0.333,0.333,1,0.333,0.333,0.333,1","1,0.333,0.333,0.333,1,0.333,0.333,0.333,1","1",""
"","html-keyboard-response","299","259401","0.0-299.0","3570Y55XZQ55MQOHKP4U2C6BMNWGY0","A2JMEQ3KQFQCRM","3566S7OX5D5NH74JOVOPTTMK8IR17K","","null","<img src=""img/flower3.png"" style=""width:200px;border:14px solid red;"">","null","","","","","","","","",""
"","image-keyboard-response","300","259868","0.0-300.0","3570Y55XZQ55MQOHKP4U2C6BMNWGY0","A2JMEQ3KQFQCRM","3566S7OX5D5NH74JOVOPTTMK8IR17K","","465.4000000357628","img/flower1.png","75","466.4000000357628","2","1","2","1","1,0.333,0.333,0.333,1,0.333,0.333,0.333,1","1,0.333,0.333,0.333,1,0.333,0.333,0.333,1","1",""
"","html-keyboard-response","301","260170","0.0-301.0","3570Y55XZQ55MQOHKP4U2C6BMNWGY0","A2JMEQ3KQFQCRM","3566S7OX5D5NH74JOVOPTTMK8IR17K","","null","<img src=""img/flower1.png"" style=""width:200px; border:14px solid green;"">","null","","","","","","","","",""
"","image-keyboard-response","302","260718","0.0-302.0","3570Y55XZQ55MQOHKP4U2C6BMNWGY0","A2JMEQ3KQFQCRM","3566S7OX5D5NH74JOVOPTTMK8IR17K","","546.2999999523163","img/flower2.png","76","547.5999999642372","3","1","3","1","1,0.333,0.333,0.333,1,0.333,0.333,0.333,1","1,0.333,0.333,0.333,1,0.333,0.333,0.333,1","1",""
"","html-keyboard-response","303","261021","0.0-303.0","3570Y55XZQ55MQOHKP4U2C6BMNWGY0","A2JMEQ3KQFQCRM","3566S7OX5D5NH74JOVOPTTMK8IR17K","","null","<img src=""img/flower2.png"" style=""width:200px; border:14px solid green;"">","null","","","","","","","","",""
"","image-keyboard-response","304","261395","0.0-304.0","3570Y55XZQ55MQOHKP4U2C6BMNWGY0","A2JMEQ3KQFQCRM","3566S7OX5D5NH74JOVOPTTMK8IR17K","","372.7000000476837","img/flower2.png","76","374","3","1","3","1","1,0.333,0.333,0.333,1,0.333,0.333,0.333,1","1,0.333,0.333,0.333,1,0.333,0.333,0.333,1","1",""
"","html-keyboard-response","305","261697","0.0-305.0","3570Y55XZQ55MQOHKP4U2C6BMNWGY0","A2JMEQ3KQFQCRM","3566S7OX5D5NH74JOVOPTTMK8IR17K","","null","<img src=""img/flower2.png"" style=""width:200px; border:14px solid green;"">","null","","","","","","","","",""
"","image-keyboard-response","306","261977","0.0-306.0","3570Y55XZQ55MQOHKP4U2C6BMNWGY0","A2JMEQ3KQFQCRM","3566S7OX5D5NH74JOVOPTTMK8IR17K","","278.2000000476837","img/flower2.png","76","279.4000000357628","3","1","3","1","1,0.333,0.333,0.333,1,0.333,0.333,0.333,1","1,0.333,0.333,0.333,1,0.333,0.333,0.333,1","1",""
"","html-keyboard-response","307","262279","0.0-307.0","3570Y55XZQ55MQOHKP4U2C6BMNWGY0","A2JMEQ3KQFQCRM","3566S7OX5D5NH74JOVOPTTMK8IR17K","","null","<img src=""img/flower2.png"" style=""width:200px; border:14px solid green;"">","null","","","","","","","","",""
"","image-keyboard-response","308","262478","0.0-308.0","3570Y55XZQ55MQOHKP4U2C6BMNWGY0","A2JMEQ3KQFQCRM","3566S7OX5D5NH74JOVOPTTMK8IR17K","","197.60000002384186","img/flower1.png","76","198.79999995231628","3","0","2","1","1,0.333,0.333,0.333,1,0.333,0.333,0.333,1","1,0.333,0.333,0.333,1,0.333,0.333,0.333,1","1",""
"","html-keyboard-response","309","262781","0.0-309.0","3570Y55XZQ55MQOHKP4U2C6BMNWGY0","A2JMEQ3KQFQCRM","3566S7OX5D5NH74JOVOPTTMK8IR17K","","null","<img src=""img/flower1.png"" style=""width:200px;border:14px solid red;"">","null","","","","","","","","",""
"","image-keyboard-response","310","263232","0.0-310.0","3570Y55XZQ55MQOHKP4U2C6BMNWGY0","A2JMEQ3KQFQCRM","3566S7OX5D5NH74JOVOPTTMK8IR17K","","449.69999998807907","img/flower1.png","75","451","2","1","2","1","1,0.333,0.333,0.333,1,0.333,0.333,0.333,1","1,0.333,0.333,0.333,1,0.333,0.333,0.333,1","1",""
"","html-keyboard-response","311","263534","0.0-311.0","3570Y55XZQ55MQOHKP4U2C6BMNWGY0","A2JMEQ3KQFQCRM","3566S7OX5D5NH74JOVOPTTMK8IR17K","","null","<img src=""img/flower1.png"" style=""width:200px; border:14px solid green;"">","null","","","","","","","","",""
"","image-keyboard-response","312","263734","0.0-312.0","3570Y55XZQ55MQOHKP4U2C6BMNWGY0","A2JMEQ3KQFQCRM","3566S7OX5D5NH74JOVOPTTMK8IR17K","","198.70000004768372","img/flower1.png","75","199.69999998807907","2","1","2","1","1,0.333,0.333,0.333,1,0.333,0.333,0.333,1","1,0.333,0.333,0.333,1,0.333,0.333,0.333,1","1",""
"","html-keyboard-response","313","264036","0.0-313.0","3570Y55XZQ55MQOHKP4U2C6BMNWGY0","A2JMEQ3KQFQCRM","3566S7OX5D5NH74JOVOPTTMK8IR17K","","null","<img src=""img/flower1.png"" style=""width:200px; border:14px solid green;"">","null","","","","","","","","",""
"","image-keyboard-response","314","264191","0.0-314.0","3570Y55XZQ55MQOHKP4U2C6BMNWGY0","A2JMEQ3KQFQCRM","3566S7OX5D5NH74JOVOPTTMK8IR17K","","152.89999997615814","img/flower1.png","75","154.19999998807907","2","1","2","1","1,0.333,0.333,0.333,1,0.333,0.333,0.333,1","1,0.333,0.333,0.333,1,0.333,0.333,0.333,1","1",""
"","html-keyboard-response","315","264493","0.0-315.0","3570Y55XZQ55MQOHKP4U2C6BMNWGY0","A2JMEQ3KQFQCRM","3566S7OX5D5NH74JOVOPTTMK8IR17K","","null","<img src=""img/flower1.png"" style=""width:200px; border:14px solid green;"">","null","","","","","","","","",""
"","image-keyboard-response","316","264659","0.0-316.0","3570Y55XZQ55MQOHKP4U2C6BMNWGY0","A2JMEQ3KQFQCRM","3566S7OX5D5NH74JOVOPTTMK8IR17K","","165","img/flower3.png","75","165.79999995231628","2","0","1","1","1,0.333,0.333,0.333,1,0.333,0.333,0.333,1","1,0.333,0.333,0.333,1,0.333,0.333,0.333,1","1",""
"","html-keyboard-response","317","264961","0.0-317.0","3570Y55XZQ55MQOHKP4U2C6BMNWGY0","A2JMEQ3KQFQCRM","3566S7OX5D5NH74JOVOPTTMK8IR17K","","null","<img src=""img/flower3.png"" style=""width:200px;border:14px solid red;"">","null","","","","","","","","",""
"","image-keyboard-response","318","265491","0.0-318.0","3570Y55XZQ55MQOHKP4U2C6BMNWGY0","A2JMEQ3KQFQCRM","3566S7OX5D5NH74JOVOPTTMK8IR17K","","527.6999999880791","img/flower2.png","76","529","3","1","3","1","1,0.333,0.333,0.333,1,0.333,0.333,0.333,1","1,0.333,0.333,0.333,1,0.333,0.333,0.333,1","1",""
"","html-keyboard-response","319","265793","0.0-319.0","3570Y55XZQ55MQOHKP4U2C6BMNWGY0","A2JMEQ3KQFQCRM","3566S7OX5D5NH74JOVOPTTMK8IR17K","","null","<img src=""img/flower2.png"" style=""width:200px; border:14px solid green;"">","null","","","","","","","","",""
"","image-keyboard-response","320","265966","0.0-320.0","3570Y55XZQ55MQOHKP4U2C6BMNWGY0","A2JMEQ3KQFQCRM","3566S7OX5D5NH74JOVOPTTMK8IR17K","","171.70000004768372","img/flower1.png","76","172.89999997615814","3","0","2","1","1,0.333,0.333,0.333,1,0.333,0.333,0.333,1","1,0.333,0.333,0.333,1,0.333,0.333,0.333,1","1",""
"","html-keyboard-response","321","266284","0.0-321.0","3570Y55XZQ55MQOHKP4U2C6BMNWGY0","A2JMEQ3KQFQCRM","3566S7OX5D5NH74JOVOPTTMK8IR17K","","null","<img src=""img/flower1.png"" style=""width:200px;border:14px solid red;"">","null","","","","","","","","",""
"","image-keyboard-response","322","266659","0.0-322.0","3570Y55XZQ55MQOHKP4U2C6BMNWGY0","A2JMEQ3KQFQCRM","3566S7OX5D5NH74JOVOPTTMK8IR17K","","374.39999997615814","img/flower1.png","75","375.2000000476837","2","1","2","1","1,0.333,0.333,0.333,1,0.333,0.333,0.333,1","1,0.333,0.333,0.333,1,0.333,0.333,0.333,1","1",""
"","html-keyboard-response","323","266962","0.0-323.0","3570Y55XZQ55MQOHKP4U2C6BMNWGY0","A2JMEQ3KQFQCRM","3566S7OX5D5NH74JOVOPTTMK8IR17K","","null","<img src=""img/flower1.png"" style=""width:200px; border:14px solid green;"">","null","","","","","","","","",""
"","image-keyboard-response","324","267440","0.0-324.0","3570Y55XZQ55MQOHKP4U2C6BMNWGY0","A2JMEQ3KQFQCRM","3566S7OX5D5NH74JOVOPTTMK8IR17K","","476.5999999642372","img/flower2.png","76","477.69999998807907","3","1","3","1","1,0.333,0.333,0.333,1,0.333,0.333,0.333,1","1,0.333,0.333,0.333,1,0.333,0.333,0.333,1","1",""
"","html-keyboard-response","325","267743","0.0-325.0","3570Y55XZQ55MQOHKP4U2C6BMNWGY0","A2JMEQ3KQFQCRM","3566S7OX5D5NH74JOVOPTTMK8IR17K","","null","<img src=""img/flower2.png"" style=""width:200px; border:14px solid green;"">","null","","","","","","","","",""
"","image-keyboard-response","326","268063","0.0-326.0","3570Y55XZQ55MQOHKP4U2C6BMNWGY0","A2JMEQ3KQFQCRM","3566S7OX5D5NH74JOVOPTTMK8IR17K","","319","img/flower1.png","76","320.30000001192093","3","1","2","1","1,0.333,0.333,0.333,1,0.333,0.333,0.333,1","1,0.333,0.333,0.333,1,0.333,0.333,0.333,1","1",""
"","html-keyboard-response","327","268366","0.0-327.0","3570Y55XZQ55MQOHKP4U2C6BMNWGY0","A2JMEQ3KQFQCRM","3566S7OX5D5NH74JOVOPTTMK8IR17K","","null","<img src=""img/flower1.png"" style=""width:200px; border:14px solid green;"">","null","","","","","","","","",""
"","image-keyboard-response","328","268974","0.0-328.0","3570Y55XZQ55MQOHKP4U2C6BMNWGY0","A2JMEQ3KQFQCRM","3566S7OX5D5NH74JOVOPTTMK8IR17K","","606.2999999523163","img/flower3.png","74","607.5","1","1","1","1","1,0.333,0.333,0.333,1,0.333,0.333,0.333,1","1,0.333,0.333,0.333,1,0.333,0.333,0.333,1","1",""
"","html-keyboard-response","329","269276","0.0-329.0","3570Y55XZQ55MQOHKP4U2C6BMNWGY0","A2JMEQ3KQFQCRM","3566S7OX5D5NH74JOVOPTTMK8IR17K","","null","<img src=""img/flower3.png"" style=""width:200px; border:14px solid green;"">","null","","","","","","","","",""
"","image-keyboard-response","330","269716","0.0-330.0","3570Y55XZQ55MQOHKP4U2C6BMNWGY0","A2JMEQ3KQFQCRM","3566S7OX5D5NH74JOVOPTTMK8IR17K","","439.39999997615814","img/flower3.png","74","440.19999998807907","1","1","1","1","1,0.333,0.333,0.333,1,0.333,0.333,0.333,1","1,0.333,0.333,0.333,1,0.333,0.333,0.333,1","1",""
"","html-keyboard-response","331","270018","0.0-331.0","3570Y55XZQ55MQOHKP4U2C6BMNWGY0","A2JMEQ3KQFQCRM","3566S7OX5D5NH74JOVOPTTMK8IR17K","","null","<img src=""img/flower3.png"" style=""width:200px; border:14px solid green;"">","null","","","","","","","","",""
"","image-keyboard-response","332","270701","0.0-332.0","3570Y55XZQ55MQOHKP4U2C6BMNWGY0","A2JMEQ3KQFQCRM","3566S7OX5D5NH74JOVOPTTMK8IR17K","","681.8000000119209","img/flower3.png","74","683","1","1","1","1","1,0.333,0.333,0.333,1,0.333,0.333,0.333,1","1,0.333,0.333,0.333,1,0.333,0.333,0.333,1","1",""
"","html-keyboard-response","333","271003","0.0-333.0","3570Y55XZQ55MQOHKP4U2C6BMNWGY0","A2JMEQ3KQFQCRM","3566S7OX5D5NH74JOVOPTTMK8IR17K","","null","<img src=""img/flower3.png"" style=""width:200px; border:14px solid green;"">","null","","","","","","","","",""
"","image-keyboard-response","334","271106","0.0-334.0","3570Y55XZQ55MQOHKP4U2C6BMNWGY0","A2JMEQ3KQFQCRM","3566S7OX5D5NH74JOVOPTTMK8IR17K","","101.89999997615814","img/flower2.png","74","102.5","1","0","3","1","1,0.333,0.333,0.333,1,0.333,0.333,0.333,1","1,0.333,0.333,0.333,1,0.333,0.333,0.333,1","1",""
"","html-keyboard-response","335","271408","0.0-335.0","3570Y55XZQ55MQOHKP4U2C6BMNWGY0","A2JMEQ3KQFQCRM","3566S7OX5D5NH74JOVOPTTMK8IR17K","","null","<img src=""img/flower2.png"" style=""width:200px;border:14px solid red;"">","null","","","","","","","","",""
"","image-keyboard-response","336","272047","0.0-336.0","3570Y55XZQ55MQOHKP4U2C6BMNWGY0","A2JMEQ3KQFQCRM","3566S7OX5D5NH74JOVOPTTMK8IR17K","","638.1000000238419","img/flower1.png","75","638.8000000119209","2","1","2","1","1,0.333,0.333,0.333,1,0.333,0.333,0.333,1","1,0.333,0.333,0.333,1,0.333,0.333,0.333,1","1",""
"","html-keyboard-response","337","272349","0.0-337.0","3570Y55XZQ55MQOHKP4U2C6BMNWGY0","A2JMEQ3KQFQCRM","3566S7OX5D5NH74JOVOPTTMK8IR17K","","null","<img src=""img/flower1.png"" style=""width:200px; border:14px solid green;"">","null","","","","","","","","",""
"","image-keyboard-response","338","272859","0.0-338.0","3570Y55XZQ55MQOHKP4U2C6BMNWGY0","A2JMEQ3KQFQCRM","3566S7OX5D5NH74JOVOPTTMK8IR17K","","508.19999998807907","img/flower3.png","74","509.5","1","1","1","1","1,0.333,0.333,0.333,1,0.333,0.333,0.333,1","1,0.333,0.333,0.333,1,0.333,0.333,0.333,1","1",""
"","html-keyboard-response","339","273161","0.0-339.0","3570Y55XZQ55MQOHKP4U2C6BMNWGY0","A2JMEQ3KQFQCRM","3566S7OX5D5NH74JOVOPTTMK8IR17K","","null","<img src=""img/flower3.png"" style=""width:200px; border:14px solid green;"">","null","","","","","","","","",""
"","image-keyboard-response","340","273520","0.0-340.0","3570Y55XZQ55MQOHKP4U2C6BMNWGY0","A2JMEQ3KQFQCRM","3566S7OX5D5NH74JOVOPTTMK8IR17K","","358.19999998807907","img/flower3.png","74","359.5","1","1","1","1","1,0.333,0.333,0.333,1,0.333,0.333,0.333,1","1,0.333,0.333,0.333,1,0.333,0.333,0.333,1","1",""
"","html-keyboard-response","341","273824","0.0-341.0","3570Y55XZQ55MQOHKP4U2C6BMNWGY0","A2JMEQ3KQFQCRM","3566S7OX5D5NH74JOVOPTTMK8IR17K","","null","<img src=""img/flower3.png"" style=""width:200px; border:14px solid green;"">","null","","","","","","","","",""
"","image-keyboard-response","342","274098","0.0-342.0","3570Y55XZQ55MQOHKP4U2C6BMNWGY0","A2JMEQ3KQFQCRM","3566S7OX5D5NH74JOVOPTTMK8IR17K","","272.7000000476837","img/flower3.png","74","274","1","1","1","1","1,0.333,0.333,0.333,1,0.333,0.333,0.333,1","1,0.333,0.333,0.333,1,0.333,0.333,0.333,1","1",""
"","html-keyboard-response","343","274414","0.0-343.0","3570Y55XZQ55MQOHKP4U2C6BMNWGY0","A2JMEQ3KQFQCRM","3566S7OX5D5NH74JOVOPTTMK8IR17K","","null","<img src=""img/flower3.png"" style=""width:200px; border:14px solid green;"">","null","","","","","","","","",""
"","image-keyboard-response","344","274648","0.0-344.0","3570Y55XZQ55MQOHKP4U2C6BMNWGY0","A2JMEQ3KQFQCRM","3566S7OX5D5NH74JOVOPTTMK8IR17K","","232.30000001192093","img/flower1.png","74","233.70000004768372","1","0","2","1","1,0.333,0.333,0.333,1,0.333,0.333,0.333,1","1,0.333,0.333,0.333,1,0.333,0.333,0.333,1","1",""
"","html-keyboard-response","345","274950","0.0-345.0","3570Y55XZQ55MQOHKP4U2C6BMNWGY0","A2JMEQ3KQFQCRM","3566S7OX5D5NH74JOVOPTTMK8IR17K","","null","<img src=""img/flower1.png"" style=""width:200px;border:14px solid red;"">","null","","","","","","","","",""
"","image-keyboard-response","346","275555","0.0-346.0","3570Y55XZQ55MQOHKP4U2C6BMNWGY0","A2JMEQ3KQFQCRM","3566S7OX5D5NH74JOVOPTTMK8IR17K","","604.1999999880791","img/flower3.png","74","605.2000000476837","1","1","1","1","1,0.333,0.333,0.333,1,0.333,0.333,0.333,1","1,0.333,0.333,0.333,1,0.333,0.333,0.333,1","1",""
"","html-keyboard-response","347","275858","0.0-347.0","3570Y55XZQ55MQOHKP4U2C6BMNWGY0","A2JMEQ3KQFQCRM","3566S7OX5D5NH74JOVOPTTMK8IR17K","","null","<img src=""img/flower3.png"" style=""width:200px; border:14px solid green;"">","null","","","","","","","","",""
"","image-keyboard-response","348","276153","0.0-348.0","3570Y55XZQ55MQOHKP4U2C6BMNWGY0","A2JMEQ3KQFQCRM","3566S7OX5D5NH74JOVOPTTMK8IR17K","","293.80000001192093","img/flower3.png","74","294.9000000357628","1","1","1","1","1,0.333,0.333,0.333,1,0.333,0.333,0.333,1","1,0.333,0.333,0.333,1,0.333,0.333,0.333,1","1",""
"","html-keyboard-response","349","276456","0.0-349.0","3570Y55XZQ55MQOHKP4U2C6BMNWGY0","A2JMEQ3KQFQCRM","3566S7OX5D5NH74JOVOPTTMK8IR17K","","null","<img src=""img/flower3.png"" style=""width:200px; border:14px solid green;"">","null","","","","","","","","",""
"","image-keyboard-response","350","276853","0.0-350.0","3570Y55XZQ55MQOHKP4U2C6BMNWGY0","A2JMEQ3KQFQCRM","3566S7OX5D5NH74JOVOPTTMK8IR17K","","395.30000001192093","img/flower1.png","75","396.69999998807907","2","1","2","1","1,0.333,0.333,0.333,1,0.333,0.333,0.333,1","1,0.333,0.333,0.333,1,0.333,0.333,0.333,1","1",""
"","html-keyboard-response","351","277155","0.0-351.0","3570Y55XZQ55MQOHKP4U2C6BMNWGY0","A2JMEQ3KQFQCRM","3566S7OX5D5NH74JOVOPTTMK8IR17K","","null","<img src=""img/flower1.png"" style=""width:200px; border:14px solid green;"">","null","","","","","","","","",""
"","image-keyboard-response","352","277487","0.0-352.0","3570Y55XZQ55MQOHKP4U2C6BMNWGY0","A2JMEQ3KQFQCRM","3566S7OX5D5NH74JOVOPTTMK8IR17K","","330.30000001192093","img/flower1.png","75","331.5","2","1","2","1","1,0.333,0.333,0.333,1,0.333,0.333,0.333,1","1,0.333,0.333,0.333,1,0.333,0.333,0.333,1","1",""
"","html-keyboard-response","353","277789","0.0-353.0","3570Y55XZQ55MQOHKP4U2C6BMNWGY0","A2JMEQ3KQFQCRM","3566S7OX5D5NH74JOVOPTTMK8IR17K","","null","<img src=""img/flower1.png"" style=""width:200px; border:14px solid green;"">","null","","","","","","","","",""
"","image-keyboard-response","354","278241","0.0-354.0","3570Y55XZQ55MQOHKP4U2C6BMNWGY0","A2JMEQ3KQFQCRM","3566S7OX5D5NH74JOVOPTTMK8IR17K","","450","img/flower3.png","74","451.4000000357628","1","1","1","1","1,0.333,0.333,0.333,1,0.333,0.333,0.333,1","1,0.333,0.333,0.333,1,0.333,0.333,0.333,1","1",""
"","html-keyboard-response","355","278543","0.0-355.0","3570Y55XZQ55MQOHKP4U2C6BMNWGY0","A2JMEQ3KQFQCRM","3566S7OX5D5NH74JOVOPTTMK8IR17K","","null","<img src=""img/flower3.png"" style=""width:200px; border:14px solid green;"">","null","","","","","","","","",""
"","image-keyboard-response","356","279032","0.0-356.0","3570Y55XZQ55MQOHKP4U2C6BMNWGY0","A2JMEQ3KQFQCRM","3566S7OX5D5NH74JOVOPTTMK8IR17K","","487.30000001192093","img/flower1.png","75","488.60000002384186","2","1","2","1","1,0.333,0.333,0.333,1,0.333,0.333,0.333,1","1,0.333,0.333,0.333,1,0.333,0.333,0.333,1","1",""
"","html-keyboard-response","357","279334","0.0-357.0","3570Y55XZQ55MQOHKP4U2C6BMNWGY0","A2JMEQ3KQFQCRM","3566S7OX5D5NH74JOVOPTTMK8IR17K","","null","<img src=""img/flower1.png"" style=""width:200px; border:14px solid green;"">","null","","","","","","","","",""
"","image-keyboard-response","358","279913","0.0-358.0","3570Y55XZQ55MQOHKP4U2C6BMNWGY0","A2JMEQ3KQFQCRM","3566S7OX5D5NH74JOVOPTTMK8IR17K","","578","img/flower2.png","76","579.5","3","1","3","1","1,0.333,0.333,0.333,1,0.333,0.333,0.333,1","1,0.333,0.333,0.333,1,0.333,0.333,0.333,1","1",""
"","html-keyboard-response","359","280225","0.0-359.0","3570Y55XZQ55MQOHKP4U2C6BMNWGY0","A2JMEQ3KQFQCRM","3566S7OX5D5NH74JOVOPTTMK8IR17K","","null","<img src=""img/flower2.png"" style=""width:200px; border:14px solid green;"">","null","","","","","","","","",""
"","image-keyboard-response","360","280866","0.0-360.0","3570Y55XZQ55MQOHKP4U2C6BMNWGY0","A2JMEQ3KQFQCRM","3566S7OX5D5NH74JOVOPTTMK8IR17K","","639.9000000357628","img/flower1.png","75","641.1000000238419","2","1","2","1","1,0.333,0.333,0.333,1,0.333,0.333,0.333,1","1,0.333,0.333,0.333,1,0.333,0.333,0.333,1","1",""
"","html-keyboard-response","361","281168","0.0-361.0","3570Y55XZQ55MQOHKP4U2C6BMNWGY0","A2JMEQ3KQFQCRM","3566S7OX5D5NH74JOVOPTTMK8IR17K","","null","<img src=""img/flower1.png"" style=""width:200px; border:14px solid green;"">","null","","","","","","","","",""
"","html-keyboard-response","362","284185","0.0-362.0","3570Y55XZQ55MQOHKP4U2C6BMNWGY0","A2JMEQ3KQFQCRM","3566S7OX5D5NH74JOVOPTTMK8IR17K","","","","","","","","","","","","",""
"","instructions","363","286148","0.0-363.0","3570Y55XZQ55MQOHKP4U2C6BMNWGY0","A2JMEQ3KQFQCRM","3566S7OX5D5NH74JOVOPTTMK8IR17K","[{""page_index"":0,""viewing_time"":1961.5}]","1961.800000011921","","","","","","","","","","",""
