"rt","url","trial_type","trial_index","time_elapsed","internal_node_id","assignmentID","mturkID","hitID","success","view_history","stimulus","key_press","reactionTime","a","r","s","reward_cond","responses"
"11178","consent.html","external-html","0","11252","0.0-0.0","37Z929RLGAUCV9YE5JBCJ9XZTHOTSS","A2JWAD9JQNA5ON","329E6HTMSWO7MPPIUTRHLR63CI0K3O","","","","","","","","","",""
"","","fullscreen","1","14813","0.0-1.0","37Z929RLGAUCV9YE5JBCJ9XZTHOTSS","A2JWAD9JQNA5ON","329E6HTMSWO7MPPIUTRHLR63CI0K3O","true","","","","","","","","",""
"34212","","instructions","2","49027","0.0-2.0","37Z929RLGAUCV9YE5JBCJ9XZTHOTSS","A2JWAD9JQNA5ON","329E6HTMSWO7MPPIUTRHLR63CI0K3O","","[{""page_index"":0,""viewing_time"":7500},{""page_index"":1,""viewing_time"":4049},{""page_index"":2,""viewing_time"":4871},{""page_index"":3,""viewing_time"":4912},{""page_index"":4,""viewing_time"":5505},{""page_index"":5,""viewing_time"":4640},{""page_index"":6,""viewing_time"":2735}]","","","","","","","",""
"12903","","instructions","3","61930","0.0-3.0","37Z929RLGAUCV9YE5JBCJ9XZTHOTSS","A2JWAD9JQNA5ON","329E6HTMSWO7MPPIUTRHLR63CI0K3O","","[{""page_index"":0,""viewing_time"":12903}]","","","","","","","",""
"756","","image-keyboard-response","4","62687","0.0-4.0","37Z929RLGAUCV9YE5JBCJ9XZTHOTSS","A2JWAD9JQNA5ON","329E6HTMSWO7MPPIUTRHLR63CI0K3O","","","img/flower4.png","74","756","1","0","1","",""
"null","","html-keyboard-response","5","62989","0.0-5.0","37Z929RLGAUCV9YE5JBCJ9XZTHOTSS","A2JWAD9JQNA5ON","329E6HTMSWO7MPPIUTRHLR63CI0K3O","","","<img src=""img/flower4.png"" style=""width:200px;border:14px solid red;"">","null","","","","","",""
"979","","image-keyboard-response","6","63969","0.0-6.0","37Z929RLGAUCV9YE5JBCJ9XZTHOTSS","A2JWAD9JQNA5ON","329E6HTMSWO7MPPIUTRHLR63CI0K3O","","","img/flower5.png","75","979","2","1","2","",""
"null","","html-keyboard-response","7","64270","0.0-7.0","37Z929RLGAUCV9YE5JBCJ9XZTHOTSS","A2JWAD9JQNA5ON","329E6HTMSWO7MPPIUTRHLR63CI0K3O","","","<img src=""img/flower5.png"" style=""width:200px; border:14px solid green;"">","null","","","","","",""
"740","","image-keyboard-response","8","65012","0.0-8.0","37Z929RLGAUCV9YE5JBCJ9XZTHOTSS","A2JWAD9JQNA5ON","329E6HTMSWO7MPPIUTRHLR63CI0K3O","","","img/flower6.png","76","742","3","1","3","",""
"null","","html-keyboard-response","9","65313","0.0-9.0","37Z929RLGAUCV9YE5JBCJ9XZTHOTSS","A2JWAD9JQNA5ON","329E6HTMSWO7MPPIUTRHLR63CI0K3O","","","<img src=""img/flower6.png"" style=""width:200px; border:14px solid green;"">","null","","","","","",""
"583","","image-keyboard-response","10","65897","0.0-10.0","37Z929RLGAUCV9YE5JBCJ9XZTHOTSS","A2JWAD9JQNA5ON","329E6HTMSWO7MPPIUTRHLR63CI0K3O","","","img/flower4.png","74","583","1","1","1","",""
"null","","html-keyboard-response","11","66199","0.0-11.0","37Z929RLGAUCV9YE5JBCJ9XZTHOTSS","A2JWAD9JQNA5ON","329E6HTMSWO7MPPIUTRHLR63CI0K3O","","","<img src=""img/flower4.png"" style=""width:200px; border:14px solid green;"">","null","","","","","",""
"971","","image-keyboard-response","12","67172","0.0-12.0","37Z929RLGAUCV9YE5JBCJ9XZTHOTSS","A2JWAD9JQNA5ON","329E6HTMSWO7MPPIUTRHLR63CI0K3O","","","img/flower4.png","74","972","1","1","1","",""
"null","","html-keyboard-response","13","67473","0.0-13.0","37Z929RLGAUCV9YE5JBCJ9XZTHOTSS","A2JWAD9JQNA5ON","329E6HTMSWO7MPPIUTRHLR63CI0K3O","","","<img src=""img/flower4.png"" style=""width:200px; border:14px solid green;"">","null","","","","","",""
"777","","image-keyboard-response","14","68251","0.0-14.0","37Z929RLGAUCV9YE5JBCJ9XZTHOTSS","A2JWAD9JQNA5ON","329E6HTMSWO7MPPIUTRHLR63CI0K3O","","","img/flower6.png","76","779","3","1","3","",""
"null","","html-keyboard-response","15","68553","0.0-15.0","37Z929RLGAUCV9YE5JBCJ9XZTHOTSS","A2JWAD9JQNA5ON","329E6HTMSWO7MPPIUTRHLR63CI0K3O","","","<img src=""img/flower6.png"" style=""width:200px; border:14px solid green;"">","null","","","","","",""
"696","","image-keyboard-response","16","69249","0.0-16.0","37Z929RLGAUCV9YE5JBCJ9XZTHOTSS","A2JWAD9JQNA5ON","329E6HTMSWO7MPPIUTRHLR63CI0K3O","","","img/flower6.png","76","696","3","1","3","",""
"null","","html-keyboard-response","17","69551","0.0-17.0","37Z929RLGAUCV9YE5JBCJ9XZTHOTSS","A2JWAD9JQNA5ON","329E6HTMSWO7MPPIUTRHLR63CI0K3O","","","<img src=""img/flower6.png"" style=""width:200px; border:14px solid green;"">","null","","","","","",""
"621","","image-keyboard-response","18","70172","0.0-18.0","37Z929RLGAUCV9YE5JBCJ9XZTHOTSS","A2JWAD9JQNA5ON","329E6HTMSWO7MPPIUTRHLR63CI0K3O","","","img/flower6.png","76","622","3","1","3","",""
"null","","html-keyboard-response","19","70474","0.0-19.0","37Z929RLGAUCV9YE5JBCJ9XZTHOTSS","A2JWAD9JQNA5ON","329E6HTMSWO7MPPIUTRHLR63CI0K3O","","","<img src=""img/flower6.png"" style=""width:200px; border:14px solid green;"">","null","","","","","",""
"693","","image-keyboard-response","20","71169","0.0-20.0","37Z929RLGAUCV9YE5JBCJ9XZTHOTSS","A2JWAD9JQNA5ON","329E6HTMSWO7MPPIUTRHLR63CI0K3O","","","img/flower6.png","76","694","3","1","3","",""
"null","","html-keyboard-response","21","71470","0.0-21.0","37Z929RLGAUCV9YE5JBCJ9XZTHOTSS","A2JWAD9JQNA5ON","329E6HTMSWO7MPPIUTRHLR63CI0K3O","","","<img src=""img/flower6.png"" style=""width:200px; border:14px solid green;"">","null","","","","","",""
"832","","image-keyboard-response","22","72303","0.0-22.0","37Z929RLGAUCV9YE5JBCJ9XZTHOTSS","A2JWAD9JQNA5ON","329E6HTMSWO7MPPIUTRHLR63CI0K3O","","","img/flower5.png","75","832","2","0","2","",""
"null","","html-keyboard-response","23","72605","0.0-23.0","37Z929RLGAUCV9YE5JBCJ9XZTHOTSS","A2JWAD9JQNA5ON","329E6HTMSWO7MPPIUTRHLR63CI0K3O","","","<img src=""img/flower5.png"" style=""width:200px;border:14px solid red;"">","null","","","","","",""
"754","","image-keyboard-response","24","73359","0.0-24.0","37Z929RLGAUCV9YE5JBCJ9XZTHOTSS","A2JWAD9JQNA5ON","329E6HTMSWO7MPPIUTRHLR63CI0K3O","","","img/flower5.png","74","754","1","0","2","",""
"null","","html-keyboard-response","25","73660","0.0-25.0","37Z929RLGAUCV9YE5JBCJ9XZTHOTSS","A2JWAD9JQNA5ON","329E6HTMSWO7MPPIUTRHLR63CI0K3O","","","<img src=""img/flower5.png"" style=""width:200px;border:14px solid red;"">","null","","","","","",""
"605","","image-keyboard-response","26","74267","0.0-26.0","37Z929RLGAUCV9YE5JBCJ9XZTHOTSS","A2JWAD9JQNA5ON","329E6HTMSWO7MPPIUTRHLR63CI0K3O","","","img/flower5.png","76","606","3","0","2","",""
"null","","html-keyboard-response","27","74567","0.0-27.0","37Z929RLGAUCV9YE5JBCJ9XZTHOTSS","A2JWAD9JQNA5ON","329E6HTMSWO7MPPIUTRHLR63CI0K3O","","","<img src=""img/flower5.png"" style=""width:200px;border:14px solid red;"">","null","","","","","",""
"2724","","image-keyboard-response","28","77291","0.0-28.0","37Z929RLGAUCV9YE5JBCJ9XZTHOTSS","A2JWAD9JQNA5ON","329E6HTMSWO7MPPIUTRHLR63CI0K3O","","","img/flower6.png","75","2724","2","0","3","",""
"null","","html-keyboard-response","29","77603","0.0-29.0","37Z929RLGAUCV9YE5JBCJ9XZTHOTSS","A2JWAD9JQNA5ON","329E6HTMSWO7MPPIUTRHLR63CI0K3O","","","<img src=""img/flower6.png"" style=""width:200px;border:14px solid red;"">","null","","","","","",""
"1485","","image-keyboard-response","30","79089","0.0-30.0","37Z929RLGAUCV9YE5JBCJ9XZTHOTSS","A2JWAD9JQNA5ON","329E6HTMSWO7MPPIUTRHLR63CI0K3O","","","img/flower4.png","76","1485","3","1","1","",""
"null","","html-keyboard-response","31","79390","0.0-31.0","37Z929RLGAUCV9YE5JBCJ9XZTHOTSS","A2JWAD9JQNA5ON","329E6HTMSWO7MPPIUTRHLR63CI0K3O","","","<img src=""img/flower4.png"" style=""width:200px; border:14px solid green;"">","null","","","","","",""
"561","","image-keyboard-response","32","79952","0.0-32.0","37Z929RLGAUCV9YE5JBCJ9XZTHOTSS","A2JWAD9JQNA5ON","329E6HTMSWO7MPPIUTRHLR63CI0K3O","","","img/flower5.png","74","562","1","0","2","",""
"null","","html-keyboard-response","33","80253","0.0-33.0","37Z929RLGAUCV9YE5JBCJ9XZTHOTSS","A2JWAD9JQNA5ON","329E6HTMSWO7MPPIUTRHLR63CI0K3O","","","<img src=""img/flower5.png"" style=""width:200px;border:14px solid red;"">","null","","","","","",""
"651","","image-keyboard-response","34","80904","0.0-34.0","37Z929RLGAUCV9YE5JBCJ9XZTHOTSS","A2JWAD9JQNA5ON","329E6HTMSWO7MPPIUTRHLR63CI0K3O","","","img/flower6.png","76","651","3","1","3","",""
"null","","html-keyboard-response","35","81206","0.0-35.0","37Z929RLGAUCV9YE5JBCJ9XZTHOTSS","A2JWAD9JQNA5ON","329E6HTMSWO7MPPIUTRHLR63CI0K3O","","","<img src=""img/flower6.png"" style=""width:200px; border:14px solid green;"">","null","","","","","",""
"687","","image-keyboard-response","36","81894","0.0-36.0","37Z929RLGAUCV9YE5JBCJ9XZTHOTSS","A2JWAD9JQNA5ON","329E6HTMSWO7MPPIUTRHLR63CI0K3O","","","img/flower4.png","75","688","2","0","1","",""
"null","","html-keyboard-response","37","82194","0.0-37.0","37Z929RLGAUCV9YE5JBCJ9XZTHOTSS","A2JWAD9JQNA5ON","329E6HTMSWO7MPPIUTRHLR63CI0K3O","","","<img src=""img/flower4.png"" style=""width:200px;border:14px solid red;"">","null","","","","","",""
"667","","image-keyboard-response","38","82862","0.0-38.0","37Z929RLGAUCV9YE5JBCJ9XZTHOTSS","A2JWAD9JQNA5ON","329E6HTMSWO7MPPIUTRHLR63CI0K3O","","","img/flower4.png","74","667","1","1","1","",""
"null","","html-keyboard-response","39","83163","0.0-39.0","37Z929RLGAUCV9YE5JBCJ9XZTHOTSS","A2JWAD9JQNA5ON","329E6HTMSWO7MPPIUTRHLR63CI0K3O","","","<img src=""img/flower4.png"" style=""width:200px; border:14px solid green;"">","null","","","","","",""
"568","","image-keyboard-response","40","83731","0.0-40.0","37Z929RLGAUCV9YE5JBCJ9XZTHOTSS","A2JWAD9JQNA5ON","329E6HTMSWO7MPPIUTRHLR63CI0K3O","","","img/flower4.png","74","568","1","1","1","",""
"null","","html-keyboard-response","41","84032","0.0-41.0","37Z929RLGAUCV9YE5JBCJ9XZTHOTSS","A2JWAD9JQNA5ON","329E6HTMSWO7MPPIUTRHLR63CI0K3O","","","<img src=""img/flower4.png"" style=""width:200px; border:14px solid green;"">","null","","","","","",""
"660","","image-keyboard-response","42","84692","0.0-42.0","37Z929RLGAUCV9YE5JBCJ9XZTHOTSS","A2JWAD9JQNA5ON","329E6HTMSWO7MPPIUTRHLR63CI0K3O","","","img/flower6.png","76","660","3","1","3","",""
"null","","html-keyboard-response","43","84993","0.0-43.0","37Z929RLGAUCV9YE5JBCJ9XZTHOTSS","A2JWAD9JQNA5ON","329E6HTMSWO7MPPIUTRHLR63CI0K3O","","","<img src=""img/flower6.png"" style=""width:200px; border:14px solid green;"">","null","","","","","",""
"695","","image-keyboard-response","44","85689","0.0-44.0","37Z929RLGAUCV9YE5JBCJ9XZTHOTSS","A2JWAD9JQNA5ON","329E6HTMSWO7MPPIUTRHLR63CI0K3O","","","img/flower5.png","75","696","2","1","2","",""
"null","","html-keyboard-response","45","85990","0.0-45.0","37Z929RLGAUCV9YE5JBCJ9XZTHOTSS","A2JWAD9JQNA5ON","329E6HTMSWO7MPPIUTRHLR63CI0K3O","","","<img src=""img/flower5.png"" style=""width:200px; border:14px solid green;"">","null","","","","","",""
"930","","image-keyboard-response","46","86920","0.0-46.0","37Z929RLGAUCV9YE5JBCJ9XZTHOTSS","A2JWAD9JQNA5ON","329E6HTMSWO7MPPIUTRHLR63CI0K3O","","","img/flower4.png","76","930","3","0","1","",""
"null","","html-keyboard-response","47","87221","0.0-47.0","37Z929RLGAUCV9YE5JBCJ9XZTHOTSS","A2JWAD9JQNA5ON","329E6HTMSWO7MPPIUTRHLR63CI0K3O","","","<img src=""img/flower4.png"" style=""width:200px;border:14px solid red;"">","null","","","","","",""
"582","","image-keyboard-response","48","87804","0.0-48.0","37Z929RLGAUCV9YE5JBCJ9XZTHOTSS","A2JWAD9JQNA5ON","329E6HTMSWO7MPPIUTRHLR63CI0K3O","","","img/flower6.png","76","582","3","1","3","",""
"null","","html-keyboard-response","49","88105","0.0-49.0","37Z929RLGAUCV9YE5JBCJ9XZTHOTSS","A2JWAD9JQNA5ON","329E6HTMSWO7MPPIUTRHLR63CI0K3O","","","<img src=""img/flower6.png"" style=""width:200px; border:14px solid green;"">","null","","","","","",""
"629","","image-keyboard-response","50","88734","0.0-50.0","37Z929RLGAUCV9YE5JBCJ9XZTHOTSS","A2JWAD9JQNA5ON","329E6HTMSWO7MPPIUTRHLR63CI0K3O","","","img/flower5.png","75","629","2","1","2","",""
"null","","html-keyboard-response","51","89035","0.0-51.0","37Z929RLGAUCV9YE5JBCJ9XZTHOTSS","A2JWAD9JQNA5ON","329E6HTMSWO7MPPIUTRHLR63CI0K3O","","","<img src=""img/flower5.png"" style=""width:200px; border:14px solid green;"">","null","","","","","",""
"486","","image-keyboard-response","52","89521","0.0-52.0","37Z929RLGAUCV9YE5JBCJ9XZTHOTSS","A2JWAD9JQNA5ON","329E6HTMSWO7MPPIUTRHLR63CI0K3O","","","img/flower5.png","75","486","2","0","2","",""
"null","","html-keyboard-response","53","89823","0.0-53.0","37Z929RLGAUCV9YE5JBCJ9XZTHOTSS","A2JWAD9JQNA5ON","329E6HTMSWO7MPPIUTRHLR63CI0K3O","","","<img src=""img/flower5.png"" style=""width:200px;border:14px solid red;"">","null","","","","","",""
"1272","","image-keyboard-response","54","91096","0.0-54.0","37Z929RLGAUCV9YE5JBCJ9XZTHOTSS","A2JWAD9JQNA5ON","329E6HTMSWO7MPPIUTRHLR63CI0K3O","","","img/flower4.png","74","1272","1","1","1","",""
"null","","html-keyboard-response","55","91397","0.0-55.0","37Z929RLGAUCV9YE5JBCJ9XZTHOTSS","A2JWAD9JQNA5ON","329E6HTMSWO7MPPIUTRHLR63CI0K3O","","","<img src=""img/flower4.png"" style=""width:200px; border:14px solid green;"">","null","","","","","",""
"726","","image-keyboard-response","56","92124","0.0-56.0","37Z929RLGAUCV9YE5JBCJ9XZTHOTSS","A2JWAD9JQNA5ON","329E6HTMSWO7MPPIUTRHLR63CI0K3O","","","img/flower4.png","74","726","1","1","1","",""
"null","","html-keyboard-response","57","92424","0.0-57.0","37Z929RLGAUCV9YE5JBCJ9XZTHOTSS","A2JWAD9JQNA5ON","329E6HTMSWO7MPPIUTRHLR63CI0K3O","","","<img src=""img/flower4.png"" style=""width:200px; border:14px solid green;"">","null","","","","","",""
"689","","image-keyboard-response","58","93114","0.0-58.0","37Z929RLGAUCV9YE5JBCJ9XZTHOTSS","A2JWAD9JQNA5ON","329E6HTMSWO7MPPIUTRHLR63CI0K3O","","","img/flower5.png","75","689","2","1","2","",""
"null","","html-keyboard-response","59","93415","0.0-59.0","37Z929RLGAUCV9YE5JBCJ9XZTHOTSS","A2JWAD9JQNA5ON","329E6HTMSWO7MPPIUTRHLR63CI0K3O","","","<img src=""img/flower5.png"" style=""width:200px; border:14px solid green;"">","null","","","","","",""
"590","","image-keyboard-response","60","94006","0.0-60.0","37Z929RLGAUCV9YE5JBCJ9XZTHOTSS","A2JWAD9JQNA5ON","329E6HTMSWO7MPPIUTRHLR63CI0K3O","","","img/flower6.png","76","591","3","1","3","",""
"null","","html-keyboard-response","61","94308","0.0-61.0","37Z929RLGAUCV9YE5JBCJ9XZTHOTSS","A2JWAD9JQNA5ON","329E6HTMSWO7MPPIUTRHLR63CI0K3O","","","<img src=""img/flower6.png"" style=""width:200px; border:14px solid green;"">","null","","","","","",""
"523","","image-keyboard-response","62","94831","0.0-62.0","37Z929RLGAUCV9YE5JBCJ9XZTHOTSS","A2JWAD9JQNA5ON","329E6HTMSWO7MPPIUTRHLR63CI0K3O","","","img/flower5.png","75","523","2","0","2","",""
"null","","html-keyboard-response","63","95133","0.0-63.0","37Z929RLGAUCV9YE5JBCJ9XZTHOTSS","A2JWAD9JQNA5ON","329E6HTMSWO7MPPIUTRHLR63CI0K3O","","","<img src=""img/flower5.png"" style=""width:200px;border:14px solid red;"">","null","","","","","",""
"16356","","instructions","64","111489","0.0-64.0","37Z929RLGAUCV9YE5JBCJ9XZTHOTSS","A2JWAD9JQNA5ON","329E6HTMSWO7MPPIUTRHLR63CI0K3O","","[{""page_index"":0,""viewing_time"":2744},{""page_index"":1,""viewing_time"":13612}]","","","","","","","",""
"621","","image-keyboard-response","65","112111","0.0-65.0","37Z929RLGAUCV9YE5JBCJ9XZTHOTSS","A2JWAD9JQNA5ON","329E6HTMSWO7MPPIUTRHLR63CI0K3O","","","img/flower4.png","74","622","1","1","1","",""
"null","","html-keyboard-response","66","112412","0.0-66.0","37Z929RLGAUCV9YE5JBCJ9XZTHOTSS","A2JWAD9JQNA5ON","329E6HTMSWO7MPPIUTRHLR63CI0K3O","","","<img src=""img/flower4.png"" style=""width:200px; border:14px solid green;"">","null","","","","","",""
"748","","image-keyboard-response","67","113161","0.0-67.0","37Z929RLGAUCV9YE5JBCJ9XZTHOTSS","A2JWAD9JQNA5ON","329E6HTMSWO7MPPIUTRHLR63CI0K3O","","","img/flower4.png","74","748","1","1","1","",""
"null","","html-keyboard-response","68","113462","0.0-68.0","37Z929RLGAUCV9YE5JBCJ9XZTHOTSS","A2JWAD9JQNA5ON","329E6HTMSWO7MPPIUTRHLR63CI0K3O","","","<img src=""img/flower4.png"" style=""width:200px; border:14px solid green;"">","null","","","","","",""
"2084","","image-keyboard-response","69","115547","0.0-69.0","37Z929RLGAUCV9YE5JBCJ9XZTHOTSS","A2JWAD9JQNA5ON","329E6HTMSWO7MPPIUTRHLR63CI0K3O","","","img/flower4.png","74","2085","1","1","1","",""
"null","","html-keyboard-response","70","115847","0.0-70.0","37Z929RLGAUCV9YE5JBCJ9XZTHOTSS","A2JWAD9JQNA5ON","329E6HTMSWO7MPPIUTRHLR63CI0K3O","","","<img src=""img/flower4.png"" style=""width:200px; border:14px solid green;"">","null","","","","","",""
"870","","image-keyboard-response","71","116717","0.0-71.0","37Z929RLGAUCV9YE5JBCJ9XZTHOTSS","A2JWAD9JQNA5ON","329E6HTMSWO7MPPIUTRHLR63CI0K3O","","","img/flower6.png","76","870","3","1","3","",""
"null","","html-keyboard-response","72","117019","0.0-72.0","37Z929RLGAUCV9YE5JBCJ9XZTHOTSS","A2JWAD9JQNA5ON","329E6HTMSWO7MPPIUTRHLR63CI0K3O","","","<img src=""img/flower6.png"" style=""width:200px; border:14px solid green;"">","null","","","","","",""
"605","","image-keyboard-response","73","117625","0.0-73.0","37Z929RLGAUCV9YE5JBCJ9XZTHOTSS","A2JWAD9JQNA5ON","329E6HTMSWO7MPPIUTRHLR63CI0K3O","","","img/flower5.png","75","605","2","1","2","",""
"null","","html-keyboard-response","74","117927","0.0-74.0","37Z929RLGAUCV9YE5JBCJ9XZTHOTSS","A2JWAD9JQNA5ON","329E6HTMSWO7MPPIUTRHLR63CI0K3O","","","<img src=""img/flower5.png"" style=""width:200px; border:14px solid green;"">","null","","","","","",""
"642","","image-keyboard-response","75","118569","0.0-75.0","37Z929RLGAUCV9YE5JBCJ9XZTHOTSS","A2JWAD9JQNA5ON","329E6HTMSWO7MPPIUTRHLR63CI0K3O","","","img/flower6.png","76","643","3","1","3","",""
"null","","html-keyboard-response","76","118870","0.0-76.0","37Z929RLGAUCV9YE5JBCJ9XZTHOTSS","A2JWAD9JQNA5ON","329E6HTMSWO7MPPIUTRHLR63CI0K3O","","","<img src=""img/flower6.png"" style=""width:200px; border:14px solid green;"">","null","","","","","",""
"568","","image-keyboard-response","77","119439","0.0-77.0","37Z929RLGAUCV9YE5JBCJ9XZTHOTSS","A2JWAD9JQNA5ON","329E6HTMSWO7MPPIUTRHLR63CI0K3O","","","img/flower4.png","74","568","1","1","1","",""
"null","","html-keyboard-response","78","119740","0.0-78.0","37Z929RLGAUCV9YE5JBCJ9XZTHOTSS","A2JWAD9JQNA5ON","329E6HTMSWO7MPPIUTRHLR63CI0K3O","","","<img src=""img/flower4.png"" style=""width:200px; border:14px solid green;"">","null","","","","","",""
"643","","image-keyboard-response","79","120384","0.0-79.0","37Z929RLGAUCV9YE5JBCJ9XZTHOTSS","A2JWAD9JQNA5ON","329E6HTMSWO7MPPIUTRHLR63CI0K3O","","","img/flower6.png","76","644","3","1","3","",""
"null","","html-keyboard-response","80","120685","0.0-80.0","37Z929RLGAUCV9YE5JBCJ9XZTHOTSS","A2JWAD9JQNA5ON","329E6HTMSWO7MPPIUTRHLR63CI0K3O","","","<img src=""img/flower6.png"" style=""width:200px; border:14px solid green;"">","null","","","","","",""
"606","","image-keyboard-response","81","121292","0.0-81.0","37Z929RLGAUCV9YE5JBCJ9XZTHOTSS","A2JWAD9JQNA5ON","329E6HTMSWO7MPPIUTRHLR63CI0K3O","","","img/flower6.png","76","606","3","1","3","",""
"null","","html-keyboard-response","82","121593","0.0-82.0","37Z929RLGAUCV9YE5JBCJ9XZTHOTSS","A2JWAD9JQNA5ON","329E6HTMSWO7MPPIUTRHLR63CI0K3O","","","<img src=""img/flower6.png"" style=""width:200px; border:14px solid green;"">","null","","","","","",""
"1370","","image-keyboard-response","83","122965","0.0-83.0","37Z929RLGAUCV9YE5JBCJ9XZTHOTSS","A2JWAD9JQNA5ON","329E6HTMSWO7MPPIUTRHLR63CI0K3O","","","img/flower6.png","76","1372","3","1","3","",""
"null","","html-keyboard-response","84","123266","0.0-84.0","37Z929RLGAUCV9YE5JBCJ9XZTHOTSS","A2JWAD9JQNA5ON","329E6HTMSWO7MPPIUTRHLR63CI0K3O","","","<img src=""img/flower6.png"" style=""width:200px; border:14px solid green;"">","null","","","","","",""
"658","","image-keyboard-response","85","123924","0.0-85.0","37Z929RLGAUCV9YE5JBCJ9XZTHOTSS","A2JWAD9JQNA5ON","329E6HTMSWO7MPPIUTRHLR63CI0K3O","","","img/flower5.png","75","659","2","1","2","",""
"null","","html-keyboard-response","86","124225","0.0-86.0","37Z929RLGAUCV9YE5JBCJ9XZTHOTSS","A2JWAD9JQNA5ON","329E6HTMSWO7MPPIUTRHLR63CI0K3O","","","<img src=""img/flower5.png"" style=""width:200px; border:14px solid green;"">","null","","","","","",""
"418","","image-keyboard-response","87","124645","0.0-87.0","37Z929RLGAUCV9YE5JBCJ9XZTHOTSS","A2JWAD9JQNA5ON","329E6HTMSWO7MPPIUTRHLR63CI0K3O","","","img/flower5.png","75","418","2","0","2","",""
"null","","html-keyboard-response","88","124965","0.0-88.0","37Z929RLGAUCV9YE5JBCJ9XZTHOTSS","A2JWAD9JQNA5ON","329E6HTMSWO7MPPIUTRHLR63CI0K3O","","","<img src=""img/flower5.png"" style=""width:200px;border:14px solid red;"">","null","","","","","",""
"1809","","image-keyboard-response","89","126774","0.0-89.0","37Z929RLGAUCV9YE5JBCJ9XZTHOTSS","A2JWAD9JQNA5ON","329E6HTMSWO7MPPIUTRHLR63CI0K3O","","","img/flower5.png","75","1809","2","1","2","",""
"null","","html-keyboard-response","90","127075","0.0-90.0","37Z929RLGAUCV9YE5JBCJ9XZTHOTSS","A2JWAD9JQNA5ON","329E6HTMSWO7MPPIUTRHLR63CI0K3O","","","<img src=""img/flower5.png"" style=""width:200px; border:14px solid green;"">","null","","","","","",""
"734","","image-keyboard-response","91","127809","0.0-91.0","37Z929RLGAUCV9YE5JBCJ9XZTHOTSS","A2JWAD9JQNA5ON","329E6HTMSWO7MPPIUTRHLR63CI0K3O","","","img/flower5.png","75","734","2","1","2","",""
"null","","html-keyboard-response","92","128110","0.0-92.0","37Z929RLGAUCV9YE5JBCJ9XZTHOTSS","A2JWAD9JQNA5ON","329E6HTMSWO7MPPIUTRHLR63CI0K3O","","","<img src=""img/flower5.png"" style=""width:200px; border:14px solid green;"">","null","","","","","",""
"997","","image-keyboard-response","93","129107","0.0-93.0","37Z929RLGAUCV9YE5JBCJ9XZTHOTSS","A2JWAD9JQNA5ON","329E6HTMSWO7MPPIUTRHLR63CI0K3O","","","img/flower4.png","74","997","1","1","1","",""
"null","","html-keyboard-response","94","129408","0.0-94.0","37Z929RLGAUCV9YE5JBCJ9XZTHOTSS","A2JWAD9JQNA5ON","329E6HTMSWO7MPPIUTRHLR63CI0K3O","","","<img src=""img/flower4.png"" style=""width:200px; border:14px solid green;"">","null","","","","","",""
"368","","image-keyboard-response","95","129777","0.0-95.0","37Z929RLGAUCV9YE5JBCJ9XZTHOTSS","A2JWAD9JQNA5ON","329E6HTMSWO7MPPIUTRHLR63CI0K3O","","","img/flower4.png","74","368","1","1","1","",""
"null","","html-keyboard-response","96","130078","0.0-96.0","37Z929RLGAUCV9YE5JBCJ9XZTHOTSS","A2JWAD9JQNA5ON","329E6HTMSWO7MPPIUTRHLR63CI0K3O","","","<img src=""img/flower4.png"" style=""width:200px; border:14px solid green;"">","null","","","","","",""
"602","","image-keyboard-response","97","130682","0.0-97.0","37Z929RLGAUCV9YE5JBCJ9XZTHOTSS","A2JWAD9JQNA5ON","329E6HTMSWO7MPPIUTRHLR63CI0K3O","","","img/flower5.png","75","604","2","0","2","",""
"null","","html-keyboard-response","98","130984","0.0-98.0","37Z929RLGAUCV9YE5JBCJ9XZTHOTSS","A2JWAD9JQNA5ON","329E6HTMSWO7MPPIUTRHLR63CI0K3O","","","<img src=""img/flower5.png"" style=""width:200px;border:14px solid red;"">","null","","","","","",""
"643","","image-keyboard-response","99","131627","0.0-99.0","37Z929RLGAUCV9YE5JBCJ9XZTHOTSS","A2JWAD9JQNA5ON","329E6HTMSWO7MPPIUTRHLR63CI0K3O","","","img/flower6.png","76","643","3","0","3","",""
"null","","html-keyboard-response","100","131928","0.0-100.0","37Z929RLGAUCV9YE5JBCJ9XZTHOTSS","A2JWAD9JQNA5ON","329E6HTMSWO7MPPIUTRHLR63CI0K3O","","","<img src=""img/flower6.png"" style=""width:200px;border:14px solid red;"">","null","","","","","",""
"1221","","image-keyboard-response","101","133149","0.0-101.0","37Z929RLGAUCV9YE5JBCJ9XZTHOTSS","A2JWAD9JQNA5ON","329E6HTMSWO7MPPIUTRHLR63CI0K3O","","","img/flower4.png","74","1221","1","1","1","",""
"null","","html-keyboard-response","102","133450","0.0-102.0","37Z929RLGAUCV9YE5JBCJ9XZTHOTSS","A2JWAD9JQNA5ON","329E6HTMSWO7MPPIUTRHLR63CI0K3O","","","<img src=""img/flower4.png"" style=""width:200px; border:14px solid green;"">","null","","","","","",""
"974","","image-keyboard-response","103","134424","0.0-103.0","37Z929RLGAUCV9YE5JBCJ9XZTHOTSS","A2JWAD9JQNA5ON","329E6HTMSWO7MPPIUTRHLR63CI0K3O","","","img/flower6.png","76","974","3","0","3","",""
"null","","html-keyboard-response","104","134725","0.0-104.0","37Z929RLGAUCV9YE5JBCJ9XZTHOTSS","A2JWAD9JQNA5ON","329E6HTMSWO7MPPIUTRHLR63CI0K3O","","","<img src=""img/flower6.png"" style=""width:200px;border:14px solid red;"">","null","","","","","",""
"1799","","image-keyboard-response","105","136524","0.0-105.0","37Z929RLGAUCV9YE5JBCJ9XZTHOTSS","A2JWAD9JQNA5ON","329E6HTMSWO7MPPIUTRHLR63CI0K3O","","","img/flower5.png","75","1799","2","1","2","",""
"null","","html-keyboard-response","106","136826","0.0-106.0","37Z929RLGAUCV9YE5JBCJ9XZTHOTSS","A2JWAD9JQNA5ON","329E6HTMSWO7MPPIUTRHLR63CI0K3O","","","<img src=""img/flower5.png"" style=""width:200px; border:14px solid green;"">","null","","","","","",""
"747","","image-keyboard-response","107","137574","0.0-107.0","37Z929RLGAUCV9YE5JBCJ9XZTHOTSS","A2JWAD9JQNA5ON","329E6HTMSWO7MPPIUTRHLR63CI0K3O","","","img/flower6.png","76","748","3","1","3","",""
"null","","html-keyboard-response","108","137875","0.0-108.0","37Z929RLGAUCV9YE5JBCJ9XZTHOTSS","A2JWAD9JQNA5ON","329E6HTMSWO7MPPIUTRHLR63CI0K3O","","","<img src=""img/flower6.png"" style=""width:200px; border:14px solid green;"">","null","","","","","",""
"876","","image-keyboard-response","109","138752","0.0-109.0","37Z929RLGAUCV9YE5JBCJ9XZTHOTSS","A2JWAD9JQNA5ON","329E6HTMSWO7MPPIUTRHLR63CI0K3O","","","img/flower5.png","75","877","2","1","2","",""
"null","","html-keyboard-response","110","139076","0.0-110.0","37Z929RLGAUCV9YE5JBCJ9XZTHOTSS","A2JWAD9JQNA5ON","329E6HTMSWO7MPPIUTRHLR63CI0K3O","","","<img src=""img/flower5.png"" style=""width:200px; border:14px solid green;"">","null","","","","","",""
"989","","image-keyboard-response","111","140064","0.0-111.0","37Z929RLGAUCV9YE5JBCJ9XZTHOTSS","A2JWAD9JQNA5ON","329E6HTMSWO7MPPIUTRHLR63CI0K3O","","","img/flower4.png","74","990","1","1","1","",""
"null","","html-keyboard-response","112","140366","0.0-112.0","37Z929RLGAUCV9YE5JBCJ9XZTHOTSS","A2JWAD9JQNA5ON","329E6HTMSWO7MPPIUTRHLR63CI0K3O","","","<img src=""img/flower4.png"" style=""width:200px; border:14px solid green;"">","null","","","","","",""
"1505","","image-keyboard-response","113","141872","0.0-113.0","37Z929RLGAUCV9YE5JBCJ9XZTHOTSS","A2JWAD9JQNA5ON","329E6HTMSWO7MPPIUTRHLR63CI0K3O","","","img/flower4.png","74","1506","1","1","1","",""
"null","","html-keyboard-response","114","142173","0.0-114.0","37Z929RLGAUCV9YE5JBCJ9XZTHOTSS","A2JWAD9JQNA5ON","329E6HTMSWO7MPPIUTRHLR63CI0K3O","","","<img src=""img/flower4.png"" style=""width:200px; border:14px solid green;"">","null","","","","","",""
"711","","image-keyboard-response","115","142884","0.0-115.0","37Z929RLGAUCV9YE5JBCJ9XZTHOTSS","A2JWAD9JQNA5ON","329E6HTMSWO7MPPIUTRHLR63CI0K3O","","","img/flower6.png","76","712","3","1","3","",""
"null","","html-keyboard-response","116","143186","0.0-116.0","37Z929RLGAUCV9YE5JBCJ9XZTHOTSS","A2JWAD9JQNA5ON","329E6HTMSWO7MPPIUTRHLR63CI0K3O","","","<img src=""img/flower6.png"" style=""width:200px; border:14px solid green;"">","null","","","","","",""
"689","","image-keyboard-response","117","143874","0.0-117.0","37Z929RLGAUCV9YE5JBCJ9XZTHOTSS","A2JWAD9JQNA5ON","329E6HTMSWO7MPPIUTRHLR63CI0K3O","","","img/flower5.png","75","689","2","1","2","",""
"null","","html-keyboard-response","118","144176","0.0-118.0","37Z929RLGAUCV9YE5JBCJ9XZTHOTSS","A2JWAD9JQNA5ON","329E6HTMSWO7MPPIUTRHLR63CI0K3O","","","<img src=""img/flower5.png"" style=""width:200px; border:14px solid green;"">","null","","","","","",""
"613","","image-keyboard-response","119","144790","0.0-119.0","37Z929RLGAUCV9YE5JBCJ9XZTHOTSS","A2JWAD9JQNA5ON","329E6HTMSWO7MPPIUTRHLR63CI0K3O","","","img/flower5.png","75","614","2","0","2","",""
"null","","html-keyboard-response","120","145091","0.0-120.0","37Z929RLGAUCV9YE5JBCJ9XZTHOTSS","A2JWAD9JQNA5ON","329E6HTMSWO7MPPIUTRHLR63CI0K3O","","","<img src=""img/flower5.png"" style=""width:200px;border:14px solid red;"">","null","","","","","",""
"687","","image-keyboard-response","121","145780","0.0-121.0","37Z929RLGAUCV9YE5JBCJ9XZTHOTSS","A2JWAD9JQNA5ON","329E6HTMSWO7MPPIUTRHLR63CI0K3O","","","img/flower6.png","76","688","3","1","3","",""
"null","","html-keyboard-response","122","146081","0.0-122.0","37Z929RLGAUCV9YE5JBCJ9XZTHOTSS","A2JWAD9JQNA5ON","329E6HTMSWO7MPPIUTRHLR63CI0K3O","","","<img src=""img/flower6.png"" style=""width:200px; border:14px solid green;"">","null","","","","","",""
"674","","image-keyboard-response","123","146754","0.0-123.0","37Z929RLGAUCV9YE5JBCJ9XZTHOTSS","A2JWAD9JQNA5ON","329E6HTMSWO7MPPIUTRHLR63CI0K3O","","","img/flower4.png","74","674","1","1","1","",""
"null","","html-keyboard-response","124","147056","0.0-124.0","37Z929RLGAUCV9YE5JBCJ9XZTHOTSS","A2JWAD9JQNA5ON","329E6HTMSWO7MPPIUTRHLR63CI0K3O","","","<img src=""img/flower4.png"" style=""width:200px; border:14px solid green;"">","null","","","","","",""
"2128","","instructions","125","149184","0.0-125.0","37Z929RLGAUCV9YE5JBCJ9XZTHOTSS","A2JWAD9JQNA5ON","329E6HTMSWO7MPPIUTRHLR63CI0K3O","","[{""page_index"":0,""viewing_time"":2128}]","","","","","","","",""
"2204","","image-keyboard-response","126","151389","0.0-126.0","37Z929RLGAUCV9YE5JBCJ9XZTHOTSS","A2JWAD9JQNA5ON","329E6HTMSWO7MPPIUTRHLR63CI0K3O","","","img/flower2.png","74","2205","1","1","1","1,0.5,0.5,0.5,1,0.5,0.5,0.5,1",""
"null","","html-keyboard-response","127","151690","0.0-127.0","37Z929RLGAUCV9YE5JBCJ9XZTHOTSS","A2JWAD9JQNA5ON","329E6HTMSWO7MPPIUTRHLR63CI0K3O","","","<img src=""img/flower2.png"" style=""width:200px; border:14px solid green;"">","null","","","","","",""
"779","","image-keyboard-response","128","152469","0.0-128.0","37Z929RLGAUCV9YE5JBCJ9XZTHOTSS","A2JWAD9JQNA5ON","329E6HTMSWO7MPPIUTRHLR63CI0K3O","","","img/flower5.png","75","779","2","1","3","1,0.5,0.5,0.5,1,0.5,0.5,0.5,1",""
"null","","html-keyboard-response","129","152770","0.0-129.0","37Z929RLGAUCV9YE5JBCJ9XZTHOTSS","A2JWAD9JQNA5ON","329E6HTMSWO7MPPIUTRHLR63CI0K3O","","","<img src=""img/flower5.png"" style=""width:200px; border:14px solid green;"">","null","","","","","",""
"899","","image-keyboard-response","130","153670","0.0-130.0","37Z929RLGAUCV9YE5JBCJ9XZTHOTSS","A2JWAD9JQNA5ON","329E6HTMSWO7MPPIUTRHLR63CI0K3O","","","img/flower5.png","75","899","2","1","3","1,0.5,0.5,0.5,1,0.5,0.5,0.5,1",""
"null","","html-keyboard-response","131","153971","0.0-131.0","37Z929RLGAUCV9YE5JBCJ9XZTHOTSS","A2JWAD9JQNA5ON","329E6HTMSWO7MPPIUTRHLR63CI0K3O","","","<img src=""img/flower5.png"" style=""width:200px; border:14px solid green;"">","null","","","","","",""
"921","","image-keyboard-response","132","154892","0.0-132.0","37Z929RLGAUCV9YE5JBCJ9XZTHOTSS","A2JWAD9JQNA5ON","329E6HTMSWO7MPPIUTRHLR63CI0K3O","","","img/flower1.png","74","921","1","0","2","1,0.5,0.5,0.5,1,0.5,0.5,0.5,1",""
"null","","html-keyboard-response","133","155193","0.0-133.0","37Z929RLGAUCV9YE5JBCJ9XZTHOTSS","A2JWAD9JQNA5ON","329E6HTMSWO7MPPIUTRHLR63CI0K3O","","","<img src=""img/flower1.png"" style=""width:200px;border:14px solid red;"">","null","","","","","",""
"747","","image-keyboard-response","134","155942","0.0-134.0","37Z929RLGAUCV9YE5JBCJ9XZTHOTSS","A2JWAD9JQNA5ON","329E6HTMSWO7MPPIUTRHLR63CI0K3O","","","img/flower5.png","75","748","2","0","3","1,0.5,0.5,0.5,1,0.5,0.5,0.5,1",""
"null","","html-keyboard-response","135","156243","0.0-135.0","37Z929RLGAUCV9YE5JBCJ9XZTHOTSS","A2JWAD9JQNA5ON","329E6HTMSWO7MPPIUTRHLR63CI0K3O","","","<img src=""img/flower5.png"" style=""width:200px;border:14px solid red;"">","null","","","","","",""
"531","","image-keyboard-response","136","156774","0.0-136.0","37Z929RLGAUCV9YE5JBCJ9XZTHOTSS","A2JWAD9JQNA5ON","329E6HTMSWO7MPPIUTRHLR63CI0K3O","","","img/flower5.png","75","531","2","1","3","1,0.5,0.5,0.5,1,0.5,0.5,0.5,1",""
"null","","html-keyboard-response","137","157074","0.0-137.0","37Z929RLGAUCV9YE5JBCJ9XZTHOTSS","A2JWAD9JQNA5ON","329E6HTMSWO7MPPIUTRHLR63CI0K3O","","","<img src=""img/flower5.png"" style=""width:200px; border:14px solid green;"">","null","","","","","",""
"846","","image-keyboard-response","138","157922","0.0-138.0","37Z929RLGAUCV9YE5JBCJ9XZTHOTSS","A2JWAD9JQNA5ON","329E6HTMSWO7MPPIUTRHLR63CI0K3O","","","img/flower2.png","74","847","1","1","1","1,0.5,0.5,0.5,1,0.5,0.5,0.5,1",""
"null","","html-keyboard-response","139","158222","0.0-139.0","37Z929RLGAUCV9YE5JBCJ9XZTHOTSS","A2JWAD9JQNA5ON","329E6HTMSWO7MPPIUTRHLR63CI0K3O","","","<img src=""img/flower2.png"" style=""width:200px; border:14px solid green;"">","null","","","","","",""
"689","","image-keyboard-response","140","158912","0.0-140.0","37Z929RLGAUCV9YE5JBCJ9XZTHOTSS","A2JWAD9JQNA5ON","329E6HTMSWO7MPPIUTRHLR63CI0K3O","","","img/flower5.png","75","689","2","1","3","1,0.5,0.5,0.5,1,0.5,0.5,0.5,1",""
"null","","html-keyboard-response","141","159213","0.0-141.0","37Z929RLGAUCV9YE5JBCJ9XZTHOTSS","A2JWAD9JQNA5ON","329E6HTMSWO7MPPIUTRHLR63CI0K3O","","","<img src=""img/flower5.png"" style=""width:200px; border:14px solid green;"">","null","","","","","",""
"569","","image-keyboard-response","142","159782","0.0-142.0","37Z929RLGAUCV9YE5JBCJ9XZTHOTSS","A2JWAD9JQNA5ON","329E6HTMSWO7MPPIUTRHLR63CI0K3O","","","img/flower2.png","74","569","1","1","1","1,0.5,0.5,0.5,1,0.5,0.5,0.5,1",""
"null","","html-keyboard-response","143","160083","0.0-143.0","37Z929RLGAUCV9YE5JBCJ9XZTHOTSS","A2JWAD9JQNA5ON","329E6HTMSWO7MPPIUTRHLR63CI0K3O","","","<img src=""img/flower2.png"" style=""width:200px; border:14px solid green;"">","null","","","","","",""
"673","","image-keyboard-response","144","160757","0.0-144.0","37Z929RLGAUCV9YE5JBCJ9XZTHOTSS","A2JWAD9JQNA5ON","329E6HTMSWO7MPPIUTRHLR63CI0K3O","","","img/flower2.png","74","674","1","1","1","1,0.5,0.5,0.5,1,0.5,0.5,0.5,1",""
"null","","html-keyboard-response","145","161058","0.0-145.0","37Z929RLGAUCV9YE5JBCJ9XZTHOTSS","A2JWAD9JQNA5ON","329E6HTMSWO7MPPIUTRHLR63CI0K3O","","","<img src=""img/flower2.png"" style=""width:200px; border:14px solid green;"">","null","","","","","",""
"1235","","image-keyboard-response","146","162294","0.0-146.0","37Z929RLGAUCV9YE5JBCJ9XZTHOTSS","A2JWAD9JQNA5ON","329E6HTMSWO7MPPIUTRHLR63CI0K3O","","","img/flower1.png","76","1236","3","0","2","1,0.5,0.5,0.5,1,0.5,0.5,0.5,1",""
"null","","html-keyboard-response","147","162595","0.0-147.0","37Z929RLGAUCV9YE5JBCJ9XZTHOTSS","A2JWAD9JQNA5ON","329E6HTMSWO7MPPIUTRHLR63CI0K3O","","","<img src=""img/flower1.png"" style=""width:200px;border:14px solid red;"">","null","","","","","",""
"562","","image-keyboard-response","148","163157","0.0-148.0","37Z929RLGAUCV9YE5JBCJ9XZTHOTSS","A2JWAD9JQNA5ON","329E6HTMSWO7MPPIUTRHLR63CI0K3O","","","img/flower1.png","74","562","1","0","2","1,0.5,0.5,0.5,1,0.5,0.5,0.5,1",""
"null","","html-keyboard-response","149","163459","0.0-149.0","37Z929RLGAUCV9YE5JBCJ9XZTHOTSS","A2JWAD9JQNA5ON","329E6HTMSWO7MPPIUTRHLR63CI0K3O","","","<img src=""img/flower1.png"" style=""width:200px;border:14px solid red;"">","null","","","","","",""
"42","","image-keyboard-response","150","163502","0.0-150.0","37Z929RLGAUCV9YE5JBCJ9XZTHOTSS","A2JWAD9JQNA5ON","329E6HTMSWO7MPPIUTRHLR63CI0K3O","","","img/flower2.png","75","43","2","1","1","1,0.5,0.5,0.5,1,0.5,0.5,0.5,1",""
"null","","html-keyboard-response","151","163804","0.0-151.0","37Z929RLGAUCV9YE5JBCJ9XZTHOTSS","A2JWAD9JQNA5ON","329E6HTMSWO7MPPIUTRHLR63CI0K3O","","","<img src=""img/flower2.png"" style=""width:200px; border:14px solid green;"">","null","","","","","",""
"959","","image-keyboard-response","152","164762","0.0-152.0","37Z929RLGAUCV9YE5JBCJ9XZTHOTSS","A2JWAD9JQNA5ON","329E6HTMSWO7MPPIUTRHLR63CI0K3O","","","img/flower1.png","74","959","1","1","2","1,0.5,0.5,0.5,1,0.5,0.5,0.5,1",""
"null","","html-keyboard-response","153","165063","0.0-153.0","37Z929RLGAUCV9YE5JBCJ9XZTHOTSS","A2JWAD9JQNA5ON","329E6HTMSWO7MPPIUTRHLR63CI0K3O","","","<img src=""img/flower1.png"" style=""width:200px; border:14px solid green;"">","null","","","","","",""
"620","","image-keyboard-response","154","165685","0.0-154.0","37Z929RLGAUCV9YE5JBCJ9XZTHOTSS","A2JWAD9JQNA5ON","329E6HTMSWO7MPPIUTRHLR63CI0K3O","","","img/flower2.png","74","620","1","1","1","1,0.5,0.5,0.5,1,0.5,0.5,0.5,1",""
"null","","html-keyboard-response","155","165986","0.0-155.0","37Z929RLGAUCV9YE5JBCJ9XZTHOTSS","A2JWAD9JQNA5ON","329E6HTMSWO7MPPIUTRHLR63CI0K3O","","","<img src=""img/flower2.png"" style=""width:200px; border:14px solid green;"">","null","","","","","",""
"762","","image-keyboard-response","156","166749","0.0-156.0","37Z929RLGAUCV9YE5JBCJ9XZTHOTSS","A2JWAD9JQNA5ON","329E6HTMSWO7MPPIUTRHLR63CI0K3O","","","img/flower5.png","75","762","2","0","3","1,0.5,0.5,0.5,1,0.5,0.5,0.5,1",""
"null","","html-keyboard-response","157","167052","0.0-157.0","37Z929RLGAUCV9YE5JBCJ9XZTHOTSS","A2JWAD9JQNA5ON","329E6HTMSWO7MPPIUTRHLR63CI0K3O","","","<img src=""img/flower5.png"" style=""width:200px;border:14px solid red;"">","null","","","","","",""
"231","","image-keyboard-response","158","167282","0.0-158.0","37Z929RLGAUCV9YE5JBCJ9XZTHOTSS","A2JWAD9JQNA5ON","329E6HTMSWO7MPPIUTRHLR63CI0K3O","","","img/flower1.png","74","232","1","1","2","1,0.5,0.5,0.5,1,0.5,0.5,0.5,1",""
"null","","html-keyboard-response","159","167583","0.0-159.0","37Z929RLGAUCV9YE5JBCJ9XZTHOTSS","A2JWAD9JQNA5ON","329E6HTMSWO7MPPIUTRHLR63CI0K3O","","","<img src=""img/flower1.png"" style=""width:200px; border:14px solid green;"">","null","","","","","",""
"845","","image-keyboard-response","160","168430","0.0-160.0","37Z929RLGAUCV9YE5JBCJ9XZTHOTSS","A2JWAD9JQNA5ON","329E6HTMSWO7MPPIUTRHLR63CI0K3O","","","img/flower1.png","74","846","1","1","2","1,0.5,0.5,0.5,1,0.5,0.5,0.5,1",""
"null","","html-keyboard-response","161","168731","0.0-161.0","37Z929RLGAUCV9YE5JBCJ9XZTHOTSS","A2JWAD9JQNA5ON","329E6HTMSWO7MPPIUTRHLR63CI0K3O","","","<img src=""img/flower1.png"" style=""width:200px; border:14px solid green;"">","null","","","","","",""
"590","","image-keyboard-response","162","169322","0.0-162.0","37Z929RLGAUCV9YE5JBCJ9XZTHOTSS","A2JWAD9JQNA5ON","329E6HTMSWO7MPPIUTRHLR63CI0K3O","","","img/flower2.png","74","590","1","1","1","1,0.5,0.5,0.5,1,0.5,0.5,0.5,1",""
"null","","html-keyboard-response","163","169623","0.0-163.0","37Z929RLGAUCV9YE5JBCJ9XZTHOTSS","A2JWAD9JQNA5ON","329E6HTMSWO7MPPIUTRHLR63CI0K3O","","","<img src=""img/flower2.png"" style=""width:200px; border:14px solid green;"">","null","","","","","",""
"538","","image-keyboard-response","164","170162","0.0-164.0","37Z929RLGAUCV9YE5JBCJ9XZTHOTSS","A2JWAD9JQNA5ON","329E6HTMSWO7MPPIUTRHLR63CI0K3O","","","img/flower1.png","74","539","1","1","2","1,0.5,0.5,0.5,1,0.5,0.5,0.5,1",""
"null","","html-keyboard-response","165","170463","0.0-165.0","37Z929RLGAUCV9YE5JBCJ9XZTHOTSS","A2JWAD9JQNA5ON","329E6HTMSWO7MPPIUTRHLR63CI0K3O","","","<img src=""img/flower1.png"" style=""width:200px; border:14px solid green;"">","null","","","","","",""
"839","","image-keyboard-response","166","171303","0.0-166.0","37Z929RLGAUCV9YE5JBCJ9XZTHOTSS","A2JWAD9JQNA5ON","329E6HTMSWO7MPPIUTRHLR63CI0K3O","","","img/flower1.png","74","840","1","1","2","1,0.5,0.5,0.5,1,0.5,0.5,0.5,1",""
"null","","html-keyboard-response","167","171604","0.0-167.0","37Z929RLGAUCV9YE5JBCJ9XZTHOTSS","A2JWAD9JQNA5ON","329E6HTMSWO7MPPIUTRHLR63CI0K3O","","","<img src=""img/flower1.png"" style=""width:200px; border:14px solid green;"">","null","","","","","",""
"554","","image-keyboard-response","168","172157","0.0-168.0","37Z929RLGAUCV9YE5JBCJ9XZTHOTSS","A2JWAD9JQNA5ON","329E6HTMSWO7MPPIUTRHLR63CI0K3O","","","img/flower2.png","74","554","1","1","1","1,0.5,0.5,0.5,1,0.5,0.5,0.5,1",""
"null","","html-keyboard-response","169","172464","0.0-169.0","37Z929RLGAUCV9YE5JBCJ9XZTHOTSS","A2JWAD9JQNA5ON","329E6HTMSWO7MPPIUTRHLR63CI0K3O","","","<img src=""img/flower2.png"" style=""width:200px; border:14px solid green;"">","null","","","","","",""
"2066","","image-keyboard-response","170","174530","0.0-170.0","37Z929RLGAUCV9YE5JBCJ9XZTHOTSS","A2JWAD9JQNA5ON","329E6HTMSWO7MPPIUTRHLR63CI0K3O","","","img/flower2.png","74","2066","1","1","1","1,0.5,0.5,0.5,1,0.5,0.5,0.5,1",""
"null","","html-keyboard-response","171","174831","0.0-171.0","37Z929RLGAUCV9YE5JBCJ9XZTHOTSS","A2JWAD9JQNA5ON","329E6HTMSWO7MPPIUTRHLR63CI0K3O","","","<img src=""img/flower2.png"" style=""width:200px; border:14px solid green;"">","null","","","","","",""
"1218","","image-keyboard-response","172","176049","0.0-172.0","37Z929RLGAUCV9YE5JBCJ9XZTHOTSS","A2JWAD9JQNA5ON","329E6HTMSWO7MPPIUTRHLR63CI0K3O","","","img/flower2.png","74","1219","1","1","1","1,0.5,0.5,0.5,1,0.5,0.5,0.5,1",""
"null","","html-keyboard-response","173","176352","0.0-173.0","37Z929RLGAUCV9YE5JBCJ9XZTHOTSS","A2JWAD9JQNA5ON","329E6HTMSWO7MPPIUTRHLR63CI0K3O","","","<img src=""img/flower2.png"" style=""width:200px; border:14px solid green;"">","null","","","","","",""
"785","","image-keyboard-response","174","177138","0.0-174.0","37Z929RLGAUCV9YE5JBCJ9XZTHOTSS","A2JWAD9JQNA5ON","329E6HTMSWO7MPPIUTRHLR63CI0K3O","","","img/flower1.png","74","786","1","1","2","1,0.5,0.5,0.5,1,0.5,0.5,0.5,1",""
"null","","html-keyboard-response","175","177438","0.0-175.0","37Z929RLGAUCV9YE5JBCJ9XZTHOTSS","A2JWAD9JQNA5ON","329E6HTMSWO7MPPIUTRHLR63CI0K3O","","","<img src=""img/flower1.png"" style=""width:200px; border:14px solid green;"">","null","","","","","",""
"597","","image-keyboard-response","176","178037","0.0-176.0","37Z929RLGAUCV9YE5JBCJ9XZTHOTSS","A2JWAD9JQNA5ON","329E6HTMSWO7MPPIUTRHLR63CI0K3O","","","img/flower5.png","74","598","1","1","3","1,0.5,0.5,0.5,1,0.5,0.5,0.5,1",""
"null","","html-keyboard-response","177","178338","0.0-177.0","37Z929RLGAUCV9YE5JBCJ9XZTHOTSS","A2JWAD9JQNA5ON","329E6HTMSWO7MPPIUTRHLR63CI0K3O","","","<img src=""img/flower5.png"" style=""width:200px; border:14px solid green;"">","null","","","","","",""
"516","","image-keyboard-response","178","178854","0.0-178.0","37Z929RLGAUCV9YE5JBCJ9XZTHOTSS","A2JWAD9JQNA5ON","329E6HTMSWO7MPPIUTRHLR63CI0K3O","","","img/flower1.png","74","516","1","1","2","1,0.5,0.5,0.5,1,0.5,0.5,0.5,1",""
"null","","html-keyboard-response","179","179156","0.0-179.0","37Z929RLGAUCV9YE5JBCJ9XZTHOTSS","A2JWAD9JQNA5ON","329E6HTMSWO7MPPIUTRHLR63CI0K3O","","","<img src=""img/flower1.png"" style=""width:200px; border:14px solid green;"">","null","","","","","",""
"636","","image-keyboard-response","180","179792","0.0-180.0","37Z929RLGAUCV9YE5JBCJ9XZTHOTSS","A2JWAD9JQNA5ON","329E6HTMSWO7MPPIUTRHLR63CI0K3O","","","img/flower5.png","74","636","1","1","3","1,0.5,0.5,0.5,1,0.5,0.5,0.5,1",""
"null","","html-keyboard-response","181","180093","0.0-181.0","37Z929RLGAUCV9YE5JBCJ9XZTHOTSS","A2JWAD9JQNA5ON","329E6HTMSWO7MPPIUTRHLR63CI0K3O","","","<img src=""img/flower5.png"" style=""width:200px; border:14px solid green;"">","null","","","","","",""
"575","","image-keyboard-response","182","180670","0.0-182.0","37Z929RLGAUCV9YE5JBCJ9XZTHOTSS","A2JWAD9JQNA5ON","329E6HTMSWO7MPPIUTRHLR63CI0K3O","","","img/flower5.png","74","575","1","0","3","1,0.5,0.5,0.5,1,0.5,0.5,0.5,1",""
"null","","html-keyboard-response","183","180970","0.0-183.0","37Z929RLGAUCV9YE5JBCJ9XZTHOTSS","A2JWAD9JQNA5ON","329E6HTMSWO7MPPIUTRHLR63CI0K3O","","","<img src=""img/flower5.png"" style=""width:200px;border:14px solid red;"">","null","","","","","",""
"570","","image-keyboard-response","184","181539","0.0-184.0","37Z929RLGAUCV9YE5JBCJ9XZTHOTSS","A2JWAD9JQNA5ON","329E6HTMSWO7MPPIUTRHLR63CI0K3O","","","img/flower2.png","74","570","1","1","1","1,0.5,0.5,0.5,1,0.5,0.5,0.5,1",""
"null","","html-keyboard-response","185","181840","0.0-185.0","37Z929RLGAUCV9YE5JBCJ9XZTHOTSS","A2JWAD9JQNA5ON","329E6HTMSWO7MPPIUTRHLR63CI0K3O","","","<img src=""img/flower2.png"" style=""width:200px; border:14px solid green;"">","null","","","","","",""
"944","","image-keyboard-response","186","182788","0.0-186.0","37Z929RLGAUCV9YE5JBCJ9XZTHOTSS","A2JWAD9JQNA5ON","329E6HTMSWO7MPPIUTRHLR63CI0K3O","","","img/flower2.png","74","949","1","1","1","1,0.5,0.5,0.5,1,0.5,0.5,0.5,1",""
"null","","html-keyboard-response","187","183090","0.0-187.0","37Z929RLGAUCV9YE5JBCJ9XZTHOTSS","A2JWAD9JQNA5ON","329E6HTMSWO7MPPIUTRHLR63CI0K3O","","","<img src=""img/flower2.png"" style=""width:200px; border:14px solid green;"">","null","","","","","",""
"2328","","image-keyboard-response","188","185420","0.0-188.0","37Z929RLGAUCV9YE5JBCJ9XZTHOTSS","A2JWAD9JQNA5ON","329E6HTMSWO7MPPIUTRHLR63CI0K3O","","","img/flower2.png","74","2328","1","1","1","1,0.5,0.5,0.5,1,0.5,0.5,0.5,1",""
"null","","html-keyboard-response","189","185720","0.0-189.0","37Z929RLGAUCV9YE5JBCJ9XZTHOTSS","A2JWAD9JQNA5ON","329E6HTMSWO7MPPIUTRHLR63CI0K3O","","","<img src=""img/flower2.png"" style=""width:200px; border:14px solid green;"">","null","","","","","",""
"687","","image-keyboard-response","190","186407","0.0-190.0","37Z929RLGAUCV9YE5JBCJ9XZTHOTSS","A2JWAD9JQNA5ON","329E6HTMSWO7MPPIUTRHLR63CI0K3O","","","img/flower1.png","74","687","1","0","2","1,0.5,0.5,0.5,1,0.5,0.5,0.5,1",""
"null","","html-keyboard-response","191","186708","0.0-191.0","37Z929RLGAUCV9YE5JBCJ9XZTHOTSS","A2JWAD9JQNA5ON","329E6HTMSWO7MPPIUTRHLR63CI0K3O","","","<img src=""img/flower1.png"" style=""width:200px;border:14px solid red;"">","null","","","","","",""
"651","","image-keyboard-response","192","187360","0.0-192.0","37Z929RLGAUCV9YE5JBCJ9XZTHOTSS","A2JWAD9JQNA5ON","329E6HTMSWO7MPPIUTRHLR63CI0K3O","","","img/flower2.png","74","651","1","1","1","1,0.5,0.5,0.5,1,0.5,0.5,0.5,1",""
"null","","html-keyboard-response","193","187662","0.0-193.0","37Z929RLGAUCV9YE5JBCJ9XZTHOTSS","A2JWAD9JQNA5ON","329E6HTMSWO7MPPIUTRHLR63CI0K3O","","","<img src=""img/flower2.png"" style=""width:200px; border:14px solid green;"">","null","","","","","",""
"635","","image-keyboard-response","194","188298","0.0-194.0","37Z929RLGAUCV9YE5JBCJ9XZTHOTSS","A2JWAD9JQNA5ON","329E6HTMSWO7MPPIUTRHLR63CI0K3O","","","img/flower1.png","75","635","2","1","2","1,0.5,0.5,0.5,1,0.5,0.5,0.5,1",""
"null","","html-keyboard-response","195","188599","0.0-195.0","37Z929RLGAUCV9YE5JBCJ9XZTHOTSS","A2JWAD9JQNA5ON","329E6HTMSWO7MPPIUTRHLR63CI0K3O","","","<img src=""img/flower1.png"" style=""width:200px; border:14px solid green;"">","null","","","","","",""
"905","","image-keyboard-response","196","189504","0.0-196.0","37Z929RLGAUCV9YE5JBCJ9XZTHOTSS","A2JWAD9JQNA5ON","329E6HTMSWO7MPPIUTRHLR63CI0K3O","","","img/flower5.png","75","907","2","1","3","1,0.5,0.5,0.5,1,0.5,0.5,0.5,1",""
"null","","html-keyboard-response","197","189806","0.0-197.0","37Z929RLGAUCV9YE5JBCJ9XZTHOTSS","A2JWAD9JQNA5ON","329E6HTMSWO7MPPIUTRHLR63CI0K3O","","","<img src=""img/flower5.png"" style=""width:200px; border:14px solid green;"">","null","","","","","",""
"915","","image-keyboard-response","198","190720","0.0-198.0","37Z929RLGAUCV9YE5JBCJ9XZTHOTSS","A2JWAD9JQNA5ON","329E6HTMSWO7MPPIUTRHLR63CI0K3O","","","img/flower5.png","75","915","2","0","3","1,0.5,0.5,0.5,1,0.5,0.5,0.5,1",""
"null","","html-keyboard-response","199","191022","0.0-199.0","37Z929RLGAUCV9YE5JBCJ9XZTHOTSS","A2JWAD9JQNA5ON","329E6HTMSWO7MPPIUTRHLR63CI0K3O","","","<img src=""img/flower5.png"" style=""width:200px;border:14px solid red;"">","null","","","","","",""
"717","","image-keyboard-response","200","191740","0.0-200.0","37Z929RLGAUCV9YE5JBCJ9XZTHOTSS","A2JWAD9JQNA5ON","329E6HTMSWO7MPPIUTRHLR63CI0K3O","","","img/flower5.png","75","718","2","0","3","1,0.5,0.5,0.5,1,0.5,0.5,0.5,1",""
"null","","html-keyboard-response","201","192040","0.0-201.0","37Z929RLGAUCV9YE5JBCJ9XZTHOTSS","A2JWAD9JQNA5ON","329E6HTMSWO7MPPIUTRHLR63CI0K3O","","","<img src=""img/flower5.png"" style=""width:200px;border:14px solid red;"">","null","","","","","",""
"554","","image-keyboard-response","202","192594","0.0-202.0","37Z929RLGAUCV9YE5JBCJ9XZTHOTSS","A2JWAD9JQNA5ON","329E6HTMSWO7MPPIUTRHLR63CI0K3O","","","img/flower1.png","74","554","1","0","2","1,0.5,0.5,0.5,1,0.5,0.5,0.5,1",""
"null","","html-keyboard-response","203","192896","0.0-203.0","37Z929RLGAUCV9YE5JBCJ9XZTHOTSS","A2JWAD9JQNA5ON","329E6HTMSWO7MPPIUTRHLR63CI0K3O","","","<img src=""img/flower1.png"" style=""width:200px;border:14px solid red;"">","null","","","","","",""
"726","","image-keyboard-response","204","193622","0.0-204.0","37Z929RLGAUCV9YE5JBCJ9XZTHOTSS","A2JWAD9JQNA5ON","329E6HTMSWO7MPPIUTRHLR63CI0K3O","","","img/flower2.png","75","726","2","0","1","1,0.5,0.5,0.5,1,0.5,0.5,0.5,1",""
"null","","html-keyboard-response","205","193924","0.0-205.0","37Z929RLGAUCV9YE5JBCJ9XZTHOTSS","A2JWAD9JQNA5ON","329E6HTMSWO7MPPIUTRHLR63CI0K3O","","","<img src=""img/flower2.png"" style=""width:200px;border:14px solid red;"">","null","","","","","",""
"471","","image-keyboard-response","206","194395","0.0-206.0","37Z929RLGAUCV9YE5JBCJ9XZTHOTSS","A2JWAD9JQNA5ON","329E6HTMSWO7MPPIUTRHLR63CI0K3O","","","img/flower5.png","74","471","1","0","3","1,0.5,0.5,0.5,1,0.5,0.5,0.5,1",""
"null","","html-keyboard-response","207","194696","0.0-207.0","37Z929RLGAUCV9YE5JBCJ9XZTHOTSS","A2JWAD9JQNA5ON","329E6HTMSWO7MPPIUTRHLR63CI0K3O","","","<img src=""img/flower5.png"" style=""width:200px;border:14px solid red;"">","null","","","","","",""
"568","","image-keyboard-response","208","195265","0.0-208.0","37Z929RLGAUCV9YE5JBCJ9XZTHOTSS","A2JWAD9JQNA5ON","329E6HTMSWO7MPPIUTRHLR63CI0K3O","","","img/flower1.png","74","569","1","1","2","1,0.5,0.5,0.5,1,0.5,0.5,0.5,1",""
"null","","html-keyboard-response","209","195567","0.0-209.0","37Z929RLGAUCV9YE5JBCJ9XZTHOTSS","A2JWAD9JQNA5ON","329E6HTMSWO7MPPIUTRHLR63CI0K3O","","","<img src=""img/flower1.png"" style=""width:200px; border:14px solid green;"">","null","","","","","",""
"785","","image-keyboard-response","210","196352","0.0-210.0","37Z929RLGAUCV9YE5JBCJ9XZTHOTSS","A2JWAD9JQNA5ON","329E6HTMSWO7MPPIUTRHLR63CI0K3O","","","img/flower1.png","74","785","1","0","2","1,0.5,0.5,0.5,1,0.5,0.5,0.5,1",""
"null","","html-keyboard-response","211","196653","0.0-211.0","37Z929RLGAUCV9YE5JBCJ9XZTHOTSS","A2JWAD9JQNA5ON","329E6HTMSWO7MPPIUTRHLR63CI0K3O","","","<img src=""img/flower1.png"" style=""width:200px;border:14px solid red;"">","null","","","","","",""
"1619","","image-keyboard-response","212","198272","0.0-212.0","37Z929RLGAUCV9YE5JBCJ9XZTHOTSS","A2JWAD9JQNA5ON","329E6HTMSWO7MPPIUTRHLR63CI0K3O","","","img/flower1.png","74","1619","1","1","2","1,0.5,0.5,0.5,1,0.5,0.5,0.5,1",""
"null","","html-keyboard-response","213","198572","0.0-213.0","37Z929RLGAUCV9YE5JBCJ9XZTHOTSS","A2JWAD9JQNA5ON","329E6HTMSWO7MPPIUTRHLR63CI0K3O","","","<img src=""img/flower1.png"" style=""width:200px; border:14px solid green;"">","null","","","","","",""
"989","","image-keyboard-response","214","199563","0.0-214.0","37Z929RLGAUCV9YE5JBCJ9XZTHOTSS","A2JWAD9JQNA5ON","329E6HTMSWO7MPPIUTRHLR63CI0K3O","","","img/flower2.png","74","990","1","1","1","1,0.5,0.5,0.5,1,0.5,0.5,0.5,1",""
"null","","html-keyboard-response","215","199864","0.0-215.0","37Z929RLGAUCV9YE5JBCJ9XZTHOTSS","A2JWAD9JQNA5ON","329E6HTMSWO7MPPIUTRHLR63CI0K3O","","","<img src=""img/flower2.png"" style=""width:200px; border:14px solid green;"">","null","","","","","",""
"2722","","image-keyboard-response","216","202586","0.0-216.0","37Z929RLGAUCV9YE5JBCJ9XZTHOTSS","A2JWAD9JQNA5ON","329E6HTMSWO7MPPIUTRHLR63CI0K3O","","","img/flower2.png","74","2722","1","1","1","1,0.5,0.5,0.5,1,0.5,0.5,0.5,1",""
"null","","html-keyboard-response","217","202888","0.0-217.0","37Z929RLGAUCV9YE5JBCJ9XZTHOTSS","A2JWAD9JQNA5ON","329E6HTMSWO7MPPIUTRHLR63CI0K3O","","","<img src=""img/flower2.png"" style=""width:200px; border:14px solid green;"">","null","","","","","",""
"2286","","image-keyboard-response","218","205174","0.0-218.0","37Z929RLGAUCV9YE5JBCJ9XZTHOTSS","A2JWAD9JQNA5ON","329E6HTMSWO7MPPIUTRHLR63CI0K3O","","","img/flower2.png","74","2286","1","1","1","1,0.5,0.5,0.5,1,0.5,0.5,0.5,1",""
"null","","html-keyboard-response","219","205475","0.0-219.0","37Z929RLGAUCV9YE5JBCJ9XZTHOTSS","A2JWAD9JQNA5ON","329E6HTMSWO7MPPIUTRHLR63CI0K3O","","","<img src=""img/flower2.png"" style=""width:200px; border:14px solid green;"">","null","","","","","",""
"2849","","image-keyboard-response","220","208324","0.0-220.0","37Z929RLGAUCV9YE5JBCJ9XZTHOTSS","A2JWAD9JQNA5ON","329E6HTMSWO7MPPIUTRHLR63CI0K3O","","","img/flower2.png","74","2849","1","1","1","1,0.5,0.5,0.5,1,0.5,0.5,0.5,1",""
"null","","html-keyboard-response","221","208625","0.0-221.0","37Z929RLGAUCV9YE5JBCJ9XZTHOTSS","A2JWAD9JQNA5ON","329E6HTMSWO7MPPIUTRHLR63CI0K3O","","","<img src=""img/flower2.png"" style=""width:200px; border:14px solid green;"">","null","","","","","",""
"867","","image-keyboard-response","222","209492","0.0-222.0","37Z929RLGAUCV9YE5JBCJ9XZTHOTSS","A2JWAD9JQNA5ON","329E6HTMSWO7MPPIUTRHLR63CI0K3O","","","img/flower5.png","75","868","2","1","3","1,0.5,0.5,0.5,1,0.5,0.5,0.5,1",""
"null","","html-keyboard-response","223","209794","0.0-223.0","37Z929RLGAUCV9YE5JBCJ9XZTHOTSS","A2JWAD9JQNA5ON","329E6HTMSWO7MPPIUTRHLR63CI0K3O","","","<img src=""img/flower5.png"" style=""width:200px; border:14px solid green;"">","null","","","","","",""
"1258","","image-keyboard-response","224","211052","0.0-224.0","37Z929RLGAUCV9YE5JBCJ9XZTHOTSS","A2JWAD9JQNA5ON","329E6HTMSWO7MPPIUTRHLR63CI0K3O","","","img/flower1.png","74","1259","1","0","2","1,0.5,0.5,0.5,1,0.5,0.5,0.5,1",""
"null","","html-keyboard-response","225","211353","0.0-225.0","37Z929RLGAUCV9YE5JBCJ9XZTHOTSS","A2JWAD9JQNA5ON","329E6HTMSWO7MPPIUTRHLR63CI0K3O","","","<img src=""img/flower1.png"" style=""width:200px;border:14px solid red;"">","null","","","","","",""
"1078","","image-keyboard-response","226","212432","0.0-226.0","37Z929RLGAUCV9YE5JBCJ9XZTHOTSS","A2JWAD9JQNA5ON","329E6HTMSWO7MPPIUTRHLR63CI0K3O","","","img/flower2.png","74","1079","1","1","1","1,0.5,0.5,0.5,1,0.5,0.5,0.5,1",""
"null","","html-keyboard-response","227","212733","0.0-227.0","37Z929RLGAUCV9YE5JBCJ9XZTHOTSS","A2JWAD9JQNA5ON","329E6HTMSWO7MPPIUTRHLR63CI0K3O","","","<img src=""img/flower2.png"" style=""width:200px; border:14px solid green;"">","null","","","","","",""
"1003","","image-keyboard-response","228","213737","0.0-228.0","37Z929RLGAUCV9YE5JBCJ9XZTHOTSS","A2JWAD9JQNA5ON","329E6HTMSWO7MPPIUTRHLR63CI0K3O","","","img/flower2.png","74","1003","1","1","1","1,0.5,0.5,0.5,1,0.5,0.5,0.5,1",""
"null","","html-keyboard-response","229","214038","0.0-229.0","37Z929RLGAUCV9YE5JBCJ9XZTHOTSS","A2JWAD9JQNA5ON","329E6HTMSWO7MPPIUTRHLR63CI0K3O","","","<img src=""img/flower2.png"" style=""width:200px; border:14px solid green;"">","null","","","","","",""
"2993","","image-keyboard-response","230","217032","0.0-230.0","37Z929RLGAUCV9YE5JBCJ9XZTHOTSS","A2JWAD9JQNA5ON","329E6HTMSWO7MPPIUTRHLR63CI0K3O","","","img/flower5.png","75","2994","2","0","3","1,0.5,0.5,0.5,1,0.5,0.5,0.5,1",""
"null","","html-keyboard-response","231","217333","0.0-231.0","37Z929RLGAUCV9YE5JBCJ9XZTHOTSS","A2JWAD9JQNA5ON","329E6HTMSWO7MPPIUTRHLR63CI0K3O","","","<img src=""img/flower5.png"" style=""width:200px;border:14px solid red;"">","null","","","","","",""
"349","","image-keyboard-response","232","217682","0.0-232.0","37Z929RLGAUCV9YE5JBCJ9XZTHOTSS","A2JWAD9JQNA5ON","329E6HTMSWO7MPPIUTRHLR63CI0K3O","","","img/flower5.png","74","349","1","1","3","1,0.5,0.5,0.5,1,0.5,0.5,0.5,1",""
"null","","html-keyboard-response","233","217983","0.0-233.0","37Z929RLGAUCV9YE5JBCJ9XZTHOTSS","A2JWAD9JQNA5ON","329E6HTMSWO7MPPIUTRHLR63CI0K3O","","","<img src=""img/flower5.png"" style=""width:200px; border:14px solid green;"">","null","","","","","",""
"1051","","image-keyboard-response","234","219033","0.0-234.0","37Z929RLGAUCV9YE5JBCJ9XZTHOTSS","A2JWAD9JQNA5ON","329E6HTMSWO7MPPIUTRHLR63CI0K3O","","","img/flower1.png","74","1051","1","0","2","1,0.5,0.5,0.5,1,0.5,0.5,0.5,1",""
"null","","html-keyboard-response","235","219334","0.0-235.0","37Z929RLGAUCV9YE5JBCJ9XZTHOTSS","A2JWAD9JQNA5ON","329E6HTMSWO7MPPIUTRHLR63CI0K3O","","","<img src=""img/flower1.png"" style=""width:200px;border:14px solid red;"">","null","","","","","",""
"597","","image-keyboard-response","236","219932","0.0-236.0","37Z929RLGAUCV9YE5JBCJ9XZTHOTSS","A2JWAD9JQNA5ON","329E6HTMSWO7MPPIUTRHLR63CI0K3O","","","img/flower2.png","74","598","1","1","1","1,0.5,0.5,0.5,1,0.5,0.5,0.5,1",""
"null","","html-keyboard-response","237","220233","0.0-237.0","37Z929RLGAUCV9YE5JBCJ9XZTHOTSS","A2JWAD9JQNA5ON","329E6HTMSWO7MPPIUTRHLR63CI0K3O","","","<img src=""img/flower2.png"" style=""width:200px; border:14px solid green;"">","null","","","","","",""
"810","","image-keyboard-response","238","221042","0.0-238.0","37Z929RLGAUCV9YE5JBCJ9XZTHOTSS","A2JWAD9JQNA5ON","329E6HTMSWO7MPPIUTRHLR63CI0K3O","","","img/flower1.png","75","810","2","1","2","1,0.5,0.5,0.5,1,0.5,0.5,0.5,1",""
"null","","html-keyboard-response","239","221343","0.0-239.0","37Z929RLGAUCV9YE5JBCJ9XZTHOTSS","A2JWAD9JQNA5ON","329E6HTMSWO7MPPIUTRHLR63CI0K3O","","","<img src=""img/flower1.png"" style=""width:200px; border:14px solid green;"">","null","","","","","",""
"1003","","image-keyboard-response","240","222348","0.0-240.0","37Z929RLGAUCV9YE5JBCJ9XZTHOTSS","A2JWAD9JQNA5ON","329E6HTMSWO7MPPIUTRHLR63CI0K3O","","","img/flower5.png","75","1004","2","0","3","1,0.5,0.5,0.5,1,0.5,0.5,0.5,1",""
"null","","html-keyboard-response","241","222648","0.0-241.0","37Z929RLGAUCV9YE5JBCJ9XZTHOTSS","A2JWAD9JQNA5ON","329E6HTMSWO7MPPIUTRHLR63CI0K3O","","","<img src=""img/flower5.png"" style=""width:200px;border:14px solid red;"">","null","","","","","",""
"643","","image-keyboard-response","242","223292","0.0-242.0","37Z929RLGAUCV9YE5JBCJ9XZTHOTSS","A2JWAD9JQNA5ON","329E6HTMSWO7MPPIUTRHLR63CI0K3O","","","img/flower2.png","74","643","1","1","1","1,0.5,0.5,0.5,1,0.5,0.5,0.5,1",""
"null","","html-keyboard-response","243","223594","0.0-243.0","37Z929RLGAUCV9YE5JBCJ9XZTHOTSS","A2JWAD9JQNA5ON","329E6HTMSWO7MPPIUTRHLR63CI0K3O","","","<img src=""img/flower2.png"" style=""width:200px; border:14px solid green;"">","null","","","","","",""
"665","","image-keyboard-response","244","224260","0.0-244.0","37Z929RLGAUCV9YE5JBCJ9XZTHOTSS","A2JWAD9JQNA5ON","329E6HTMSWO7MPPIUTRHLR63CI0K3O","","","img/flower5.png","74","666","1","0","3","1,0.5,0.5,0.5,1,0.5,0.5,0.5,1",""
"null","","html-keyboard-response","245","224560","0.0-245.0","37Z929RLGAUCV9YE5JBCJ9XZTHOTSS","A2JWAD9JQNA5ON","329E6HTMSWO7MPPIUTRHLR63CI0K3O","","","<img src=""img/flower5.png"" style=""width:200px;border:14px solid red;"">","null","","","","","",""
"1365","","image-keyboard-response","246","225925","0.0-246.0","37Z929RLGAUCV9YE5JBCJ9XZTHOTSS","A2JWAD9JQNA5ON","329E6HTMSWO7MPPIUTRHLR63CI0K3O","","","img/flower1.png","74","1365","1","1","2","1,0.5,0.5,0.5,1,0.5,0.5,0.5,1",""
"null","","html-keyboard-response","247","226227","0.0-247.0","37Z929RLGAUCV9YE5JBCJ9XZTHOTSS","A2JWAD9JQNA5ON","329E6HTMSWO7MPPIUTRHLR63CI0K3O","","","<img src=""img/flower1.png"" style=""width:200px; border:14px solid green;"">","null","","","","","",""
"1220","","image-keyboard-response","248","227447","0.0-248.0","37Z929RLGAUCV9YE5JBCJ9XZTHOTSS","A2JWAD9JQNA5ON","329E6HTMSWO7MPPIUTRHLR63CI0K3O","","","img/flower2.png","74","1220","1","1","1","1,0.5,0.5,0.5,1,0.5,0.5,0.5,1",""
"null","","html-keyboard-response","249","227749","0.0-249.0","37Z929RLGAUCV9YE5JBCJ9XZTHOTSS","A2JWAD9JQNA5ON","329E6HTMSWO7MPPIUTRHLR63CI0K3O","","","<img src=""img/flower2.png"" style=""width:200px; border:14px solid green;"">","null","","","","","",""
"801","","image-keyboard-response","250","228551","0.0-250.0","37Z929RLGAUCV9YE5JBCJ9XZTHOTSS","A2JWAD9JQNA5ON","329E6HTMSWO7MPPIUTRHLR63CI0K3O","","","img/flower5.png","76","801","3","1","3","1,0.5,0.5,0.5,1,0.5,0.5,0.5,1",""
"null","","html-keyboard-response","251","228853","0.0-251.0","37Z929RLGAUCV9YE5JBCJ9XZTHOTSS","A2JWAD9JQNA5ON","329E6HTMSWO7MPPIUTRHLR63CI0K3O","","","<img src=""img/flower5.png"" style=""width:200px; border:14px solid green;"">","null","","","","","",""
"725","","image-keyboard-response","252","229577","0.0-252.0","37Z929RLGAUCV9YE5JBCJ9XZTHOTSS","A2JWAD9JQNA5ON","329E6HTMSWO7MPPIUTRHLR63CI0K3O","","","img/flower2.png","74","725","1","1","1","1,0.5,0.5,0.5,1,0.5,0.5,0.5,1",""
"null","","html-keyboard-response","253","229879","0.0-253.0","37Z929RLGAUCV9YE5JBCJ9XZTHOTSS","A2JWAD9JQNA5ON","329E6HTMSWO7MPPIUTRHLR63CI0K3O","","","<img src=""img/flower2.png"" style=""width:200px; border:14px solid green;"">","null","","","","","",""
"605","","image-keyboard-response","254","230484","0.0-254.0","37Z929RLGAUCV9YE5JBCJ9XZTHOTSS","A2JWAD9JQNA5ON","329E6HTMSWO7MPPIUTRHLR63CI0K3O","","","img/flower5.png","76","606","3","1","3","1,0.5,0.5,0.5,1,0.5,0.5,0.5,1",""
"null","","html-keyboard-response","255","230785","0.0-255.0","37Z929RLGAUCV9YE5JBCJ9XZTHOTSS","A2JWAD9JQNA5ON","329E6HTMSWO7MPPIUTRHLR63CI0K3O","","","<img src=""img/flower5.png"" style=""width:200px; border:14px solid green;"">","null","","","","","",""
"778","","image-keyboard-response","256","231565","0.0-256.0","37Z929RLGAUCV9YE5JBCJ9XZTHOTSS","A2JWAD9JQNA5ON","329E6HTMSWO7MPPIUTRHLR63CI0K3O","","","img/flower1.png","75","779","2","1","2","1,0.5,0.5,0.5,1,0.5,0.5,0.5,1",""
"null","","html-keyboard-response","257","231865","0.0-257.0","37Z929RLGAUCV9YE5JBCJ9XZTHOTSS","A2JWAD9JQNA5ON","329E6HTMSWO7MPPIUTRHLR63CI0K3O","","","<img src=""img/flower1.png"" style=""width:200px; border:14px solid green;"">","null","","","","","",""
"623","","image-keyboard-response","258","232488","0.0-258.0","37Z929RLGAUCV9YE5JBCJ9XZTHOTSS","A2JWAD9JQNA5ON","329E6HTMSWO7MPPIUTRHLR63CI0K3O","","","img/flower5.png","76","623","3","1","3","1,0.5,0.5,0.5,1,0.5,0.5,0.5,1",""
"null","","html-keyboard-response","259","232788","0.0-259.0","37Z929RLGAUCV9YE5JBCJ9XZTHOTSS","A2JWAD9JQNA5ON","329E6HTMSWO7MPPIUTRHLR63CI0K3O","","","<img src=""img/flower5.png"" style=""width:200px; border:14px solid green;"">","null","","","","","",""
"710","","image-keyboard-response","260","233500","0.0-260.0","37Z929RLGAUCV9YE5JBCJ9XZTHOTSS","A2JWAD9JQNA5ON","329E6HTMSWO7MPPIUTRHLR63CI0K3O","","","img/flower2.png","74","711","1","1","1","1,0.5,0.5,0.5,1,0.5,0.5,0.5,1",""
"null","","html-keyboard-response","261","233801","0.0-261.0","37Z929RLGAUCV9YE5JBCJ9XZTHOTSS","A2JWAD9JQNA5ON","329E6HTMSWO7MPPIUTRHLR63CI0K3O","","","<img src=""img/flower2.png"" style=""width:200px; border:14px solid green;"">","null","","","","","",""
"786","","image-keyboard-response","262","234587","0.0-262.0","37Z929RLGAUCV9YE5JBCJ9XZTHOTSS","A2JWAD9JQNA5ON","329E6HTMSWO7MPPIUTRHLR63CI0K3O","","","img/flower2.png","74","786","1","1","1","1,0.5,0.5,0.5,1,0.5,0.5,0.5,1",""
"null","","html-keyboard-response","263","234888","0.0-263.0","37Z929RLGAUCV9YE5JBCJ9XZTHOTSS","A2JWAD9JQNA5ON","329E6HTMSWO7MPPIUTRHLR63CI0K3O","","","<img src=""img/flower2.png"" style=""width:200px; border:14px solid green;"">","null","","","","","",""
"590","","image-keyboard-response","264","235479","0.0-264.0","37Z929RLGAUCV9YE5JBCJ9XZTHOTSS","A2JWAD9JQNA5ON","329E6HTMSWO7MPPIUTRHLR63CI0K3O","","","img/flower5.png","76","591","3","1","3","1,0.5,0.5,0.5,1,0.5,0.5,0.5,1",""
"null","","html-keyboard-response","265","235782","0.0-265.0","37Z929RLGAUCV9YE5JBCJ9XZTHOTSS","A2JWAD9JQNA5ON","329E6HTMSWO7MPPIUTRHLR63CI0K3O","","","<img src=""img/flower5.png"" style=""width:200px; border:14px solid green;"">","null","","","","","",""
"710","","image-keyboard-response","266","236493","0.0-266.0","37Z929RLGAUCV9YE5JBCJ9XZTHOTSS","A2JWAD9JQNA5ON","329E6HTMSWO7MPPIUTRHLR63CI0K3O","","","img/flower1.png","75","711","2","1","2","1,0.5,0.5,0.5,1,0.5,0.5,0.5,1",""
"null","","html-keyboard-response","267","236794","0.0-267.0","37Z929RLGAUCV9YE5JBCJ9XZTHOTSS","A2JWAD9JQNA5ON","329E6HTMSWO7MPPIUTRHLR63CI0K3O","","","<img src=""img/flower1.png"" style=""width:200px; border:14px solid green;"">","null","","","","","",""
"651","","image-keyboard-response","268","237445","0.0-268.0","37Z929RLGAUCV9YE5JBCJ9XZTHOTSS","A2JWAD9JQNA5ON","329E6HTMSWO7MPPIUTRHLR63CI0K3O","","","img/flower5.png","76","651","3","1","3","1,0.5,0.5,0.5,1,0.5,0.5,0.5,1",""
"null","","html-keyboard-response","269","237746","0.0-269.0","37Z929RLGAUCV9YE5JBCJ9XZTHOTSS","A2JWAD9JQNA5ON","329E6HTMSWO7MPPIUTRHLR63CI0K3O","","","<img src=""img/flower5.png"" style=""width:200px; border:14px solid green;"">","null","","","","","",""
"613","","image-keyboard-response","270","238359","0.0-270.0","37Z929RLGAUCV9YE5JBCJ9XZTHOTSS","A2JWAD9JQNA5ON","329E6HTMSWO7MPPIUTRHLR63CI0K3O","","","img/flower5.png","76","613","3","1","3","1,0.5,0.5,0.5,1,0.5,0.5,0.5,1",""
"null","","html-keyboard-response","271","238660","0.0-271.0","37Z929RLGAUCV9YE5JBCJ9XZTHOTSS","A2JWAD9JQNA5ON","329E6HTMSWO7MPPIUTRHLR63CI0K3O","","","<img src=""img/flower5.png"" style=""width:200px; border:14px solid green;"">","null","","","","","",""
"1799","","image-keyboard-response","272","240460","0.0-272.0","37Z929RLGAUCV9YE5JBCJ9XZTHOTSS","A2JWAD9JQNA5ON","329E6HTMSWO7MPPIUTRHLR63CI0K3O","","","img/flower5.png","76","1799","3","1","3","1,0.5,0.5,0.5,1,0.5,0.5,0.5,1",""
"null","","html-keyboard-response","273","240763","0.0-273.0","37Z929RLGAUCV9YE5JBCJ9XZTHOTSS","A2JWAD9JQNA5ON","329E6HTMSWO7MPPIUTRHLR63CI0K3O","","","<img src=""img/flower5.png"" style=""width:200px; border:14px solid green;"">","null","","","","","",""
"650","","image-keyboard-response","274","241412","0.0-274.0","37Z929RLGAUCV9YE5JBCJ9XZTHOTSS","A2JWAD9JQNA5ON","329E6HTMSWO7MPPIUTRHLR63CI0K3O","","","img/flower2.png","74","650","1","1","1","1,0.5,0.5,0.5,1,0.5,0.5,0.5,1",""
"null","","html-keyboard-response","275","241714","0.0-275.0","37Z929RLGAUCV9YE5JBCJ9XZTHOTSS","A2JWAD9JQNA5ON","329E6HTMSWO7MPPIUTRHLR63CI0K3O","","","<img src=""img/flower2.png"" style=""width:200px; border:14px solid green;"">","null","","","","","",""
"665","","image-keyboard-response","276","242380","0.0-276.0","37Z929RLGAUCV9YE5JBCJ9XZTHOTSS","A2JWAD9JQNA5ON","329E6HTMSWO7MPPIUTRHLR63CI0K3O","","","img/flower5.png","76","665","3","1","3","1,0.5,0.5,0.5,1,0.5,0.5,0.5,1",""
"null","","html-keyboard-response","277","242681","0.0-277.0","37Z929RLGAUCV9YE5JBCJ9XZTHOTSS","A2JWAD9JQNA5ON","329E6HTMSWO7MPPIUTRHLR63CI0K3O","","","<img src=""img/flower5.png"" style=""width:200px; border:14px solid green;"">","null","","","","","",""
"635","","image-keyboard-response","278","243316","0.0-278.0","37Z929RLGAUCV9YE5JBCJ9XZTHOTSS","A2JWAD9JQNA5ON","329E6HTMSWO7MPPIUTRHLR63CI0K3O","","","img/flower5.png","76","636","3","1","3","1,0.5,0.5,0.5,1,0.5,0.5,0.5,1",""
"null","","html-keyboard-response","279","243619","0.0-279.0","37Z929RLGAUCV9YE5JBCJ9XZTHOTSS","A2JWAD9JQNA5ON","329E6HTMSWO7MPPIUTRHLR63CI0K3O","","","<img src=""img/flower5.png"" style=""width:200px; border:14px solid green;"">","null","","","","","",""
"582","","image-keyboard-response","280","244202","0.0-280.0","37Z929RLGAUCV9YE5JBCJ9XZTHOTSS","A2JWAD9JQNA5ON","329E6HTMSWO7MPPIUTRHLR63CI0K3O","","","img/flower2.png","74","583","1","1","1","1,0.5,0.5,0.5,1,0.5,0.5,0.5,1",""
"null","","html-keyboard-response","281","244502","0.0-281.0","37Z929RLGAUCV9YE5JBCJ9XZTHOTSS","A2JWAD9JQNA5ON","329E6HTMSWO7MPPIUTRHLR63CI0K3O","","","<img src=""img/flower2.png"" style=""width:200px; border:14px solid green;"">","null","","","","","",""
"584","","image-keyboard-response","282","245087","0.0-282.0","37Z929RLGAUCV9YE5JBCJ9XZTHOTSS","A2JWAD9JQNA5ON","329E6HTMSWO7MPPIUTRHLR63CI0K3O","","","img/flower5.png","76","584","3","1","3","1,0.5,0.5,0.5,1,0.5,0.5,0.5,1",""
"null","","html-keyboard-response","283","245389","0.0-283.0","37Z929RLGAUCV9YE5JBCJ9XZTHOTSS","A2JWAD9JQNA5ON","329E6HTMSWO7MPPIUTRHLR63CI0K3O","","","<img src=""img/flower5.png"" style=""width:200px; border:14px solid green;"">","null","","","","","",""
"884","","image-keyboard-response","284","246273","0.0-284.0","37Z929RLGAUCV9YE5JBCJ9XZTHOTSS","A2JWAD9JQNA5ON","329E6HTMSWO7MPPIUTRHLR63CI0K3O","","","img/flower1.png","75","884","2","1","2","1,0.5,0.5,0.5,1,0.5,0.5,0.5,1",""
"null","","html-keyboard-response","285","246573","0.0-285.0","37Z929RLGAUCV9YE5JBCJ9XZTHOTSS","A2JWAD9JQNA5ON","329E6HTMSWO7MPPIUTRHLR63CI0K3O","","","<img src=""img/flower1.png"" style=""width:200px; border:14px solid green;"">","null","","","","","",""
"1139","","image-keyboard-response","286","247713","0.0-286.0","37Z929RLGAUCV9YE5JBCJ9XZTHOTSS","A2JWAD9JQNA5ON","329E6HTMSWO7MPPIUTRHLR63CI0K3O","","","img/flower1.png","75","1139","2","1","2","1,0.5,0.5,0.5,1,0.5,0.5,0.5,1",""
"null","","html-keyboard-response","287","248014","0.0-287.0","37Z929RLGAUCV9YE5JBCJ9XZTHOTSS","A2JWAD9JQNA5ON","329E6HTMSWO7MPPIUTRHLR63CI0K3O","","","<img src=""img/flower1.png"" style=""width:200px; border:14px solid green;"">","null","","","","","",""
"1589","","image-keyboard-response","288","249602","0.0-288.0","37Z929RLGAUCV9YE5JBCJ9XZTHOTSS","A2JWAD9JQNA5ON","329E6HTMSWO7MPPIUTRHLR63CI0K3O","","","img/flower1.png","75","1590","2","1","2","1,0.5,0.5,0.5,1,0.5,0.5,0.5,1",""
"null","","html-keyboard-response","289","249903","0.0-289.0","37Z929RLGAUCV9YE5JBCJ9XZTHOTSS","A2JWAD9JQNA5ON","329E6HTMSWO7MPPIUTRHLR63CI0K3O","","","<img src=""img/flower1.png"" style=""width:200px; border:14px solid green;"">","null","","","","","",""
"1340","","image-keyboard-response","290","251245","0.0-290.0","37Z929RLGAUCV9YE5JBCJ9XZTHOTSS","A2JWAD9JQNA5ON","329E6HTMSWO7MPPIUTRHLR63CI0K3O","","","img/flower1.png","75","1340","2","1","2","1,0.5,0.5,0.5,1,0.5,0.5,0.5,1",""
"null","","html-keyboard-response","291","251546","0.0-291.0","37Z929RLGAUCV9YE5JBCJ9XZTHOTSS","A2JWAD9JQNA5ON","329E6HTMSWO7MPPIUTRHLR63CI0K3O","","","<img src=""img/flower1.png"" style=""width:200px; border:14px solid green;"">","null","","","","","",""
"995","","image-keyboard-response","292","252542","0.0-292.0","37Z929RLGAUCV9YE5JBCJ9XZTHOTSS","A2JWAD9JQNA5ON","329E6HTMSWO7MPPIUTRHLR63CI0K3O","","","img/flower1.png","75","996","2","1","2","1,0.5,0.5,0.5,1,0.5,0.5,0.5,1",""
"null","","html-keyboard-response","293","252844","0.0-293.0","37Z929RLGAUCV9YE5JBCJ9XZTHOTSS","A2JWAD9JQNA5ON","329E6HTMSWO7MPPIUTRHLR63CI0K3O","","","<img src=""img/flower1.png"" style=""width:200px; border:14px solid green;"">","null","","","","","",""
"793","","image-keyboard-response","294","253637","0.0-294.0","37Z929RLGAUCV9YE5JBCJ9XZTHOTSS","A2JWAD9JQNA5ON","329E6HTMSWO7MPPIUTRHLR63CI0K3O","","","img/flower5.png","76","794","3","1","3","1,0.5,0.5,0.5,1,0.5,0.5,0.5,1",""
"null","","html-keyboard-response","295","253938","0.0-295.0","37Z929RLGAUCV9YE5JBCJ9XZTHOTSS","A2JWAD9JQNA5ON","329E6HTMSWO7MPPIUTRHLR63CI0K3O","","","<img src=""img/flower5.png"" style=""width:200px; border:14px solid green;"">","null","","","","","",""
"2191","","image-keyboard-response","296","256131","0.0-296.0","37Z929RLGAUCV9YE5JBCJ9XZTHOTSS","A2JWAD9JQNA5ON","329E6HTMSWO7MPPIUTRHLR63CI0K3O","","","img/flower1.png","75","2192","2","1","2","1,0.5,0.5,0.5,1,0.5,0.5,0.5,1",""
"null","","html-keyboard-response","297","256432","0.0-297.0","37Z929RLGAUCV9YE5JBCJ9XZTHOTSS","A2JWAD9JQNA5ON","329E6HTMSWO7MPPIUTRHLR63CI0K3O","","","<img src=""img/flower1.png"" style=""width:200px; border:14px solid green;"">","null","","","","","",""
"572","","image-keyboard-response","298","257005","0.0-298.0","37Z929RLGAUCV9YE5JBCJ9XZTHOTSS","A2JWAD9JQNA5ON","329E6HTMSWO7MPPIUTRHLR63CI0K3O","","","img/flower2.png","74","573","1","1","1","1,0.5,0.5,0.5,1,0.5,0.5,0.5,1",""
"null","","html-keyboard-response","299","257307","0.0-299.0","37Z929RLGAUCV9YE5JBCJ9XZTHOTSS","A2JWAD9JQNA5ON","329E6HTMSWO7MPPIUTRHLR63CI0K3O","","","<img src=""img/flower2.png"" style=""width:200px; border:14px solid green;"">","null","","","","","",""
"1287","","image-keyboard-response","300","258595","0.0-300.0","37Z929RLGAUCV9YE5JBCJ9XZTHOTSS","A2JWAD9JQNA5ON","329E6HTMSWO7MPPIUTRHLR63CI0K3O","","","img/flower1.png","75","1288","2","1","2","1,0.5,0.5,0.5,1,0.5,0.5,0.5,1",""
"null","","html-keyboard-response","301","258897","0.0-301.0","37Z929RLGAUCV9YE5JBCJ9XZTHOTSS","A2JWAD9JQNA5ON","329E6HTMSWO7MPPIUTRHLR63CI0K3O","","","<img src=""img/flower1.png"" style=""width:200px; border:14px solid green;"">","null","","","","","",""
"605","","image-keyboard-response","302","259502","0.0-302.0","37Z929RLGAUCV9YE5JBCJ9XZTHOTSS","A2JWAD9JQNA5ON","329E6HTMSWO7MPPIUTRHLR63CI0K3O","","","img/flower1.png","75","605","2","1","2","1,0.5,0.5,0.5,1,0.5,0.5,0.5,1",""
"null","","html-keyboard-response","303","259804","0.0-303.0","37Z929RLGAUCV9YE5JBCJ9XZTHOTSS","A2JWAD9JQNA5ON","329E6HTMSWO7MPPIUTRHLR63CI0K3O","","","<img src=""img/flower1.png"" style=""width:200px; border:14px solid green;"">","null","","","","","",""
"778","","image-keyboard-response","304","260582","0.0-304.0","37Z929RLGAUCV9YE5JBCJ9XZTHOTSS","A2JWAD9JQNA5ON","329E6HTMSWO7MPPIUTRHLR63CI0K3O","","","img/flower5.png","76","778","3","1","3","1,0.5,0.5,0.5,1,0.5,0.5,0.5,1",""
"null","","html-keyboard-response","305","260883","0.0-305.0","37Z929RLGAUCV9YE5JBCJ9XZTHOTSS","A2JWAD9JQNA5ON","329E6HTMSWO7MPPIUTRHLR63CI0K3O","","","<img src=""img/flower5.png"" style=""width:200px; border:14px solid green;"">","null","","","","","",""
"","","html-keyboard-response","306","264498","0.0-306.0","37Z929RLGAUCV9YE5JBCJ9XZTHOTSS","A2JWAD9JQNA5ON","329E6HTMSWO7MPPIUTRHLR63CI0K3O","","","","","","","","","",""
"1574","","image-keyboard-response","307","266072","0.0-307.0","37Z929RLGAUCV9YE5JBCJ9XZTHOTSS","A2JWAD9JQNA5ON","329E6HTMSWO7MPPIUTRHLR63CI0K3O","","","img/flower6.png","74","1575","1","0","2","1,1,0,0,1,1,1,0,1",""
"null","","html-keyboard-response","308","266374","0.0-308.0","37Z929RLGAUCV9YE5JBCJ9XZTHOTSS","A2JWAD9JQNA5ON","329E6HTMSWO7MPPIUTRHLR63CI0K3O","","","<img src=""img/flower6.png"" style=""width:200px;border:14px solid red;"">","null","","","","","",""
"604","","image-keyboard-response","309","266980","0.0-309.0","37Z929RLGAUCV9YE5JBCJ9XZTHOTSS","A2JWAD9JQNA5ON","329E6HTMSWO7MPPIUTRHLR63CI0K3O","","","img/flower6.png","76","605","3","1","2","1,1,0,0,1,1,1,0,1",""
"null","","html-keyboard-response","310","267281","0.0-310.0","37Z929RLGAUCV9YE5JBCJ9XZTHOTSS","A2JWAD9JQNA5ON","329E6HTMSWO7MPPIUTRHLR63CI0K3O","","","<img src=""img/flower6.png"" style=""width:200px; border:14px solid green;"">","null","","","","","",""
"1356","","image-keyboard-response","311","268638","0.0-311.0","37Z929RLGAUCV9YE5JBCJ9XZTHOTSS","A2JWAD9JQNA5ON","329E6HTMSWO7MPPIUTRHLR63CI0K3O","","","img/flower3.png","74","1356","1","1","3","1,1,0,0,1,1,1,0,1",""
"null","","html-keyboard-response","312","268939","0.0-312.0","37Z929RLGAUCV9YE5JBCJ9XZTHOTSS","A2JWAD9JQNA5ON","329E6HTMSWO7MPPIUTRHLR63CI0K3O","","","<img src=""img/flower3.png"" style=""width:200px; border:14px solid green;"">","null","","","","","",""
"2480","","image-keyboard-response","313","271419","0.0-313.0","37Z929RLGAUCV9YE5JBCJ9XZTHOTSS","A2JWAD9JQNA5ON","329E6HTMSWO7MPPIUTRHLR63CI0K3O","","","img/flower3.png","74","2481","1","1","3","1,1,0,0,1,1,1,0,1",""
"null","","html-keyboard-response","314","271720","0.0-314.0","37Z929RLGAUCV9YE5JBCJ9XZTHOTSS","A2JWAD9JQNA5ON","329E6HTMSWO7MPPIUTRHLR63CI0K3O","","","<img src=""img/flower3.png"" style=""width:200px; border:14px solid green;"">","null","","","","","",""
"780","","image-keyboard-response","315","272500","0.0-315.0","37Z929RLGAUCV9YE5JBCJ9XZTHOTSS","A2JWAD9JQNA5ON","329E6HTMSWO7MPPIUTRHLR63CI0K3O","","","img/flower3.png","74","780","1","1","3","1,1,0,0,1,1,1,0,1",""
"null","","html-keyboard-response","316","272800","0.0-316.0","37Z929RLGAUCV9YE5JBCJ9XZTHOTSS","A2JWAD9JQNA5ON","329E6HTMSWO7MPPIUTRHLR63CI0K3O","","","<img src=""img/flower3.png"" style=""width:200px; border:14px solid green;"">","null","","","","","",""
"569","","image-keyboard-response","317","273370","0.0-317.0","37Z929RLGAUCV9YE5JBCJ9XZTHOTSS","A2JWAD9JQNA5ON","329E6HTMSWO7MPPIUTRHLR63CI0K3O","","","img/flower3.png","74","571","1","1","3","1,1,0,0,1,1,1,0,1",""
"null","","html-keyboard-response","318","273671","0.0-318.0","37Z929RLGAUCV9YE5JBCJ9XZTHOTSS","A2JWAD9JQNA5ON","329E6HTMSWO7MPPIUTRHLR63CI0K3O","","","<img src=""img/flower3.png"" style=""width:200px; border:14px solid green;"">","null","","","","","",""
"2233","","image-keyboard-response","319","275904","0.0-319.0","37Z929RLGAUCV9YE5JBCJ9XZTHOTSS","A2JWAD9JQNA5ON","329E6HTMSWO7MPPIUTRHLR63CI0K3O","","","img/flower3.png","74","2233","1","1","3","1,1,0,0,1,1,1,0,1",""
"null","","html-keyboard-response","320","276205","0.0-320.0","37Z929RLGAUCV9YE5JBCJ9XZTHOTSS","A2JWAD9JQNA5ON","329E6HTMSWO7MPPIUTRHLR63CI0K3O","","","<img src=""img/flower3.png"" style=""width:200px; border:14px solid green;"">","null","","","","","",""
"1117","","image-keyboard-response","321","277322","0.0-321.0","37Z929RLGAUCV9YE5JBCJ9XZTHOTSS","A2JWAD9JQNA5ON","329E6HTMSWO7MPPIUTRHLR63CI0K3O","","","img/flower3.png","74","1117","1","1","3","1,1,0,0,1,1,1,0,1",""
"null","","html-keyboard-response","322","277623","0.0-322.0","37Z929RLGAUCV9YE5JBCJ9XZTHOTSS","A2JWAD9JQNA5ON","329E6HTMSWO7MPPIUTRHLR63CI0K3O","","","<img src=""img/flower3.png"" style=""width:200px; border:14px solid green;"">","null","","","","","",""
"1229","","image-keyboard-response","323","278852","0.0-323.0","37Z929RLGAUCV9YE5JBCJ9XZTHOTSS","A2JWAD9JQNA5ON","329E6HTMSWO7MPPIUTRHLR63CI0K3O","","","img/flower3.png","74","1230","1","1","3","1,1,0,0,1,1,1,0,1",""
"null","","html-keyboard-response","324","279154","0.0-324.0","37Z929RLGAUCV9YE5JBCJ9XZTHOTSS","A2JWAD9JQNA5ON","329E6HTMSWO7MPPIUTRHLR63CI0K3O","","","<img src=""img/flower3.png"" style=""width:200px; border:14px solid green;"">","null","","","","","",""
"1437","","image-keyboard-response","325","280592","0.0-325.0","37Z929RLGAUCV9YE5JBCJ9XZTHOTSS","A2JWAD9JQNA5ON","329E6HTMSWO7MPPIUTRHLR63CI0K3O","","","img/flower4.png","74","1439","1","1","1","1,1,0,0,1,1,1,0,1",""
"null","","html-keyboard-response","326","280894","0.0-326.0","37Z929RLGAUCV9YE5JBCJ9XZTHOTSS","A2JWAD9JQNA5ON","329E6HTMSWO7MPPIUTRHLR63CI0K3O","","","<img src=""img/flower4.png"" style=""width:200px; border:14px solid green;"">","null","","","","","",""
"539","","image-keyboard-response","327","281432","0.0-327.0","37Z929RLGAUCV9YE5JBCJ9XZTHOTSS","A2JWAD9JQNA5ON","329E6HTMSWO7MPPIUTRHLR63CI0K3O","","","img/flower4.png","74","539","1","1","1","1,1,0,0,1,1,1,0,1",""
"null","","html-keyboard-response","328","281735","0.0-328.0","37Z929RLGAUCV9YE5JBCJ9XZTHOTSS","A2JWAD9JQNA5ON","329E6HTMSWO7MPPIUTRHLR63CI0K3O","","","<img src=""img/flower4.png"" style=""width:200px; border:14px solid green;"">","null","","","","","",""
"1610","","image-keyboard-response","329","283346","0.0-329.0","37Z929RLGAUCV9YE5JBCJ9XZTHOTSS","A2JWAD9JQNA5ON","329E6HTMSWO7MPPIUTRHLR63CI0K3O","","","img/flower4.png","74","1610","1","1","1","1,1,0,0,1,1,1,0,1",""
"null","","html-keyboard-response","330","283647","0.0-330.0","37Z929RLGAUCV9YE5JBCJ9XZTHOTSS","A2JWAD9JQNA5ON","329E6HTMSWO7MPPIUTRHLR63CI0K3O","","","<img src=""img/flower4.png"" style=""width:200px; border:14px solid green;"">","null","","","","","",""
"611","","image-keyboard-response","331","284260","0.0-331.0","37Z929RLGAUCV9YE5JBCJ9XZTHOTSS","A2JWAD9JQNA5ON","329E6HTMSWO7MPPIUTRHLR63CI0K3O","","","img/flower3.png","74","612","1","1","3","1,1,0,0,1,1,1,0,1",""
"null","","html-keyboard-response","332","284561","0.0-332.0","37Z929RLGAUCV9YE5JBCJ9XZTHOTSS","A2JWAD9JQNA5ON","329E6HTMSWO7MPPIUTRHLR63CI0K3O","","","<img src=""img/flower3.png"" style=""width:200px; border:14px solid green;"">","null","","","","","",""
"538","","image-keyboard-response","333","285100","0.0-333.0","37Z929RLGAUCV9YE5JBCJ9XZTHOTSS","A2JWAD9JQNA5ON","329E6HTMSWO7MPPIUTRHLR63CI0K3O","","","img/flower4.png","74","538","1","1","1","1,1,0,0,1,1,1,0,1",""
"null","","html-keyboard-response","334","285402","0.0-334.0","37Z929RLGAUCV9YE5JBCJ9XZTHOTSS","A2JWAD9JQNA5ON","329E6HTMSWO7MPPIUTRHLR63CI0K3O","","","<img src=""img/flower4.png"" style=""width:200px; border:14px solid green;"">","null","","","","","",""
"1100","","image-keyboard-response","335","286503","0.0-335.0","37Z929RLGAUCV9YE5JBCJ9XZTHOTSS","A2JWAD9JQNA5ON","329E6HTMSWO7MPPIUTRHLR63CI0K3O","","","img/flower4.png","74","1101","1","1","1","1,1,0,0,1,1,1,0,1",""
"null","","html-keyboard-response","336","286803","0.0-336.0","37Z929RLGAUCV9YE5JBCJ9XZTHOTSS","A2JWAD9JQNA5ON","329E6HTMSWO7MPPIUTRHLR63CI0K3O","","","<img src=""img/flower4.png"" style=""width:200px; border:14px solid green;"">","null","","","","","",""
"568","","image-keyboard-response","337","287374","0.0-337.0","37Z929RLGAUCV9YE5JBCJ9XZTHOTSS","A2JWAD9JQNA5ON","329E6HTMSWO7MPPIUTRHLR63CI0K3O","","","img/flower3.png","74","570","1","1","3","1,1,0,0,1,1,1,0,1",""
"null","","html-keyboard-response","338","287674","0.0-338.0","37Z929RLGAUCV9YE5JBCJ9XZTHOTSS","A2JWAD9JQNA5ON","329E6HTMSWO7MPPIUTRHLR63CI0K3O","","","<img src=""img/flower3.png"" style=""width:200px; border:14px solid green;"">","null","","","","","",""
"710","","image-keyboard-response","339","288384","0.0-339.0","37Z929RLGAUCV9YE5JBCJ9XZTHOTSS","A2JWAD9JQNA5ON","329E6HTMSWO7MPPIUTRHLR63CI0K3O","","","img/flower6.png","76","711","3","1","2","1,1,0,0,1,1,1,0,1",""
"null","","html-keyboard-response","340","288685","0.0-340.0","37Z929RLGAUCV9YE5JBCJ9XZTHOTSS","A2JWAD9JQNA5ON","329E6HTMSWO7MPPIUTRHLR63CI0K3O","","","<img src=""img/flower6.png"" style=""width:200px; border:14px solid green;"">","null","","","","","",""
"593","","image-keyboard-response","341","289278","0.0-341.0","37Z929RLGAUCV9YE5JBCJ9XZTHOTSS","A2JWAD9JQNA5ON","329E6HTMSWO7MPPIUTRHLR63CI0K3O","","","img/flower3.png","74","593","1","1","3","1,1,0,0,1,1,1,0,1",""
"null","","html-keyboard-response","342","289579","0.0-342.0","37Z929RLGAUCV9YE5JBCJ9XZTHOTSS","A2JWAD9JQNA5ON","329E6HTMSWO7MPPIUTRHLR63CI0K3O","","","<img src=""img/flower3.png"" style=""width:200px; border:14px solid green;"">","null","","","","","",""
"628","","image-keyboard-response","343","290207","0.0-343.0","37Z929RLGAUCV9YE5JBCJ9XZTHOTSS","A2JWAD9JQNA5ON","329E6HTMSWO7MPPIUTRHLR63CI0K3O","","","img/flower6.png","76","628","3","1","2","1,1,0,0,1,1,1,0,1",""
"null","","html-keyboard-response","344","290509","0.0-344.0","37Z929RLGAUCV9YE5JBCJ9XZTHOTSS","A2JWAD9JQNA5ON","329E6HTMSWO7MPPIUTRHLR63CI0K3O","","","<img src=""img/flower6.png"" style=""width:200px; border:14px solid green;"">","null","","","","","",""
"3106","","image-keyboard-response","345","293616","0.0-345.0","37Z929RLGAUCV9YE5JBCJ9XZTHOTSS","A2JWAD9JQNA5ON","329E6HTMSWO7MPPIUTRHLR63CI0K3O","","","img/flower6.png","76","3107","3","1","2","1,1,0,0,1,1,1,0,1",""
"null","","html-keyboard-response","346","293917","0.0-346.0","37Z929RLGAUCV9YE5JBCJ9XZTHOTSS","A2JWAD9JQNA5ON","329E6HTMSWO7MPPIUTRHLR63CI0K3O","","","<img src=""img/flower6.png"" style=""width:200px; border:14px solid green;"">","null","","","","","",""
"2495","","image-keyboard-response","347","296412","0.0-347.0","37Z929RLGAUCV9YE5JBCJ9XZTHOTSS","A2JWAD9JQNA5ON","329E6HTMSWO7MPPIUTRHLR63CI0K3O","","","img/flower6.png","76","2495","3","1","2","1,1,0,0,1,1,1,0,1",""
"null","","html-keyboard-response","348","296713","0.0-348.0","37Z929RLGAUCV9YE5JBCJ9XZTHOTSS","A2JWAD9JQNA5ON","329E6HTMSWO7MPPIUTRHLR63CI0K3O","","","<img src=""img/flower6.png"" style=""width:200px; border:14px solid green;"">","null","","","","","",""
"596","","image-keyboard-response","349","297310","0.0-349.0","37Z929RLGAUCV9YE5JBCJ9XZTHOTSS","A2JWAD9JQNA5ON","329E6HTMSWO7MPPIUTRHLR63CI0K3O","","","img/flower4.png","74","596","1","1","1","1,1,0,0,1,1,1,0,1",""
"null","","html-keyboard-response","350","297632","0.0-350.0","37Z929RLGAUCV9YE5JBCJ9XZTHOTSS","A2JWAD9JQNA5ON","329E6HTMSWO7MPPIUTRHLR63CI0K3O","","","<img src=""img/flower4.png"" style=""width:200px; border:14px solid green;"">","null","","","","","",""
"773","","image-keyboard-response","351","298404","0.0-351.0","37Z929RLGAUCV9YE5JBCJ9XZTHOTSS","A2JWAD9JQNA5ON","329E6HTMSWO7MPPIUTRHLR63CI0K3O","","","img/flower3.png","74","773","1","1","3","1,1,0,0,1,1,1,0,1",""
"null","","html-keyboard-response","352","298706","0.0-352.0","37Z929RLGAUCV9YE5JBCJ9XZTHOTSS","A2JWAD9JQNA5ON","329E6HTMSWO7MPPIUTRHLR63CI0K3O","","","<img src=""img/flower3.png"" style=""width:200px; border:14px solid green;"">","null","","","","","",""
"531","","image-keyboard-response","353","299237","0.0-353.0","37Z929RLGAUCV9YE5JBCJ9XZTHOTSS","A2JWAD9JQNA5ON","329E6HTMSWO7MPPIUTRHLR63CI0K3O","","","img/flower4.png","74","531","1","1","1","1,1,0,0,1,1,1,0,1",""
"null","","html-keyboard-response","354","299539","0.0-354.0","37Z929RLGAUCV9YE5JBCJ9XZTHOTSS","A2JWAD9JQNA5ON","329E6HTMSWO7MPPIUTRHLR63CI0K3O","","","<img src=""img/flower4.png"" style=""width:200px; border:14px solid green;"">","null","","","","","",""
"627","","image-keyboard-response","355","300168","0.0-355.0","37Z929RLGAUCV9YE5JBCJ9XZTHOTSS","A2JWAD9JQNA5ON","329E6HTMSWO7MPPIUTRHLR63CI0K3O","","","img/flower6.png","74","628","1","0","2","1,1,0,0,1,1,1,0,1",""
"null","","html-keyboard-response","356","300467","0.0-356.0","37Z929RLGAUCV9YE5JBCJ9XZTHOTSS","A2JWAD9JQNA5ON","329E6HTMSWO7MPPIUTRHLR63CI0K3O","","","<img src=""img/flower6.png"" style=""width:200px;border:14px solid red;"">","null","","","","","",""
"217","","image-keyboard-response","357","300686","0.0-357.0","37Z929RLGAUCV9YE5JBCJ9XZTHOTSS","A2JWAD9JQNA5ON","329E6HTMSWO7MPPIUTRHLR63CI0K3O","","","img/flower4.png","76","217","3","0","1","1,1,0,0,1,1,1,0,1",""
"null","","html-keyboard-response","358","300987","0.0-358.0","37Z929RLGAUCV9YE5JBCJ9XZTHOTSS","A2JWAD9JQNA5ON","329E6HTMSWO7MPPIUTRHLR63CI0K3O","","","<img src=""img/flower4.png"" style=""width:200px;border:14px solid red;"">","null","","","","","",""
"604","","image-keyboard-response","359","301592","0.0-359.0","37Z929RLGAUCV9YE5JBCJ9XZTHOTSS","A2JWAD9JQNA5ON","329E6HTMSWO7MPPIUTRHLR63CI0K3O","","","img/flower3.png","74","605","1","1","3","1,1,0,0,1,1,1,0,1",""
"null","","html-keyboard-response","360","301894","0.0-360.0","37Z929RLGAUCV9YE5JBCJ9XZTHOTSS","A2JWAD9JQNA5ON","329E6HTMSWO7MPPIUTRHLR63CI0K3O","","","<img src=""img/flower3.png"" style=""width:200px; border:14px solid green;"">","null","","","","","",""
"643","","image-keyboard-response","361","302538","0.0-361.0","37Z929RLGAUCV9YE5JBCJ9XZTHOTSS","A2JWAD9JQNA5ON","329E6HTMSWO7MPPIUTRHLR63CI0K3O","","","img/flower6.png","76","643","3","1","2","1,1,0,0,1,1,1,0,1",""
"null","","html-keyboard-response","362","302839","0.0-362.0","37Z929RLGAUCV9YE5JBCJ9XZTHOTSS","A2JWAD9JQNA5ON","329E6HTMSWO7MPPIUTRHLR63CI0K3O","","","<img src=""img/flower6.png"" style=""width:200px; border:14px solid green;"">","null","","","","","",""
"801","","image-keyboard-response","363","303641","0.0-363.0","37Z929RLGAUCV9YE5JBCJ9XZTHOTSS","A2JWAD9JQNA5ON","329E6HTMSWO7MPPIUTRHLR63CI0K3O","","","img/flower6.png","76","802","3","1","2","1,1,0,0,1,1,1,0,1",""
"null","","html-keyboard-response","364","303943","0.0-364.0","37Z929RLGAUCV9YE5JBCJ9XZTHOTSS","A2JWAD9JQNA5ON","329E6HTMSWO7MPPIUTRHLR63CI0K3O","","","<img src=""img/flower6.png"" style=""width:200px; border:14px solid green;"">","null","","","","","",""
"582","","image-keyboard-response","365","304525","0.0-365.0","37Z929RLGAUCV9YE5JBCJ9XZTHOTSS","A2JWAD9JQNA5ON","329E6HTMSWO7MPPIUTRHLR63CI0K3O","","","img/flower4.png","74","582","1","1","1","1,1,0,0,1,1,1,0,1",""
"null","","html-keyboard-response","366","304827","0.0-366.0","37Z929RLGAUCV9YE5JBCJ9XZTHOTSS","A2JWAD9JQNA5ON","329E6HTMSWO7MPPIUTRHLR63CI0K3O","","","<img src=""img/flower4.png"" style=""width:200px; border:14px solid green;"">","null","","","","","",""
"529","","image-keyboard-response","367","305358","0.0-367.0","37Z929RLGAUCV9YE5JBCJ9XZTHOTSS","A2JWAD9JQNA5ON","329E6HTMSWO7MPPIUTRHLR63CI0K3O","","","img/flower6.png","76","530","3","1","2","1,1,0,0,1,1,1,0,1",""
"null","","html-keyboard-response","368","305660","0.0-368.0","37Z929RLGAUCV9YE5JBCJ9XZTHOTSS","A2JWAD9JQNA5ON","329E6HTMSWO7MPPIUTRHLR63CI0K3O","","","<img src=""img/flower6.png"" style=""width:200px; border:14px solid green;"">","null","","","","","",""
"544","","image-keyboard-response","369","306205","0.0-369.0","37Z929RLGAUCV9YE5JBCJ9XZTHOTSS","A2JWAD9JQNA5ON","329E6HTMSWO7MPPIUTRHLR63CI0K3O","","","img/flower4.png","74","544","1","1","1","1,1,0,0,1,1,1,0,1",""
"null","","html-keyboard-response","370","306506","0.0-370.0","37Z929RLGAUCV9YE5JBCJ9XZTHOTSS","A2JWAD9JQNA5ON","329E6HTMSWO7MPPIUTRHLR63CI0K3O","","","<img src=""img/flower4.png"" style=""width:200px; border:14px solid green;"">","null","","","","","",""
"726","","image-keyboard-response","371","307232","0.0-371.0","37Z929RLGAUCV9YE5JBCJ9XZTHOTSS","A2JWAD9JQNA5ON","329E6HTMSWO7MPPIUTRHLR63CI0K3O","","","img/flower4.png","74","727","1","1","1","1,1,0,0,1,1,1,0,1",""
"null","","html-keyboard-response","372","307533","0.0-372.0","37Z929RLGAUCV9YE5JBCJ9XZTHOTSS","A2JWAD9JQNA5ON","329E6HTMSWO7MPPIUTRHLR63CI0K3O","","","<img src=""img/flower4.png"" style=""width:200px; border:14px solid green;"">","null","","","","","",""
"517","","image-keyboard-response","373","308050","0.0-373.0","37Z929RLGAUCV9YE5JBCJ9XZTHOTSS","A2JWAD9JQNA5ON","329E6HTMSWO7MPPIUTRHLR63CI0K3O","","","img/flower6.png","76","518","3","1","2","1,1,0,0,1,1,1,0,1",""
"null","","html-keyboard-response","374","308352","0.0-374.0","37Z929RLGAUCV9YE5JBCJ9XZTHOTSS","A2JWAD9JQNA5ON","329E6HTMSWO7MPPIUTRHLR63CI0K3O","","","<img src=""img/flower6.png"" style=""width:200px; border:14px solid green;"">","null","","","","","",""
"442","","image-keyboard-response","375","308793","0.0-375.0","37Z929RLGAUCV9YE5JBCJ9XZTHOTSS","A2JWAD9JQNA5ON","329E6HTMSWO7MPPIUTRHLR63CI0K3O","","","img/flower4.png","74","442","1","1","1","1,1,0,0,1,1,1,0,1",""
"null","","html-keyboard-response","376","309094","0.0-376.0","37Z929RLGAUCV9YE5JBCJ9XZTHOTSS","A2JWAD9JQNA5ON","329E6HTMSWO7MPPIUTRHLR63CI0K3O","","","<img src=""img/flower4.png"" style=""width:200px; border:14px solid green;"">","null","","","","","",""
"530","","image-keyboard-response","377","309625","0.0-377.0","37Z929RLGAUCV9YE5JBCJ9XZTHOTSS","A2JWAD9JQNA5ON","329E6HTMSWO7MPPIUTRHLR63CI0K3O","","","img/flower6.png","76","530","3","1","2","1,1,0,0,1,1,1,0,1",""
"null","","html-keyboard-response","378","309926","0.0-378.0","37Z929RLGAUCV9YE5JBCJ9XZTHOTSS","A2JWAD9JQNA5ON","329E6HTMSWO7MPPIUTRHLR63CI0K3O","","","<img src=""img/flower6.png"" style=""width:200px; border:14px solid green;"">","null","","","","","",""
"560","","image-keyboard-response","379","310488","0.0-379.0","37Z929RLGAUCV9YE5JBCJ9XZTHOTSS","A2JWAD9JQNA5ON","329E6HTMSWO7MPPIUTRHLR63CI0K3O","","","img/flower6.png","76","561","3","1","2","1,1,0,0,1,1,1,0,1",""
"null","","html-keyboard-response","380","310789","0.0-380.0","37Z929RLGAUCV9YE5JBCJ9XZTHOTSS","A2JWAD9JQNA5ON","329E6HTMSWO7MPPIUTRHLR63CI0K3O","","","<img src=""img/flower6.png"" style=""width:200px; border:14px solid green;"">","null","","","","","",""
"514","","image-keyboard-response","381","311305","0.0-381.0","37Z929RLGAUCV9YE5JBCJ9XZTHOTSS","A2JWAD9JQNA5ON","329E6HTMSWO7MPPIUTRHLR63CI0K3O","","","img/flower6.png","76","516","3","1","2","1,1,0,0,1,1,1,0,1",""
"null","","html-keyboard-response","382","311625","0.0-382.0","37Z929RLGAUCV9YE5JBCJ9XZTHOTSS","A2JWAD9JQNA5ON","329E6HTMSWO7MPPIUTRHLR63CI0K3O","","","<img src=""img/flower6.png"" style=""width:200px; border:14px solid green;"">","null","","","","","",""
"526","","image-keyboard-response","383","312152","0.0-383.0","37Z929RLGAUCV9YE5JBCJ9XZTHOTSS","A2JWAD9JQNA5ON","329E6HTMSWO7MPPIUTRHLR63CI0K3O","","","img/flower3.png","74","528","1","1","3","1,1,0,0,1,1,1,0,1",""
"null","","html-keyboard-response","384","312453","0.0-384.0","37Z929RLGAUCV9YE5JBCJ9XZTHOTSS","A2JWAD9JQNA5ON","329E6HTMSWO7MPPIUTRHLR63CI0K3O","","","<img src=""img/flower3.png"" style=""width:200px; border:14px solid green;"">","null","","","","","",""
"748","","image-keyboard-response","385","313202","0.0-385.0","37Z929RLGAUCV9YE5JBCJ9XZTHOTSS","A2JWAD9JQNA5ON","329E6HTMSWO7MPPIUTRHLR63CI0K3O","","","img/flower4.png","74","748","1","1","1","1,1,0,0,1,1,1,0,1",""
"null","","html-keyboard-response","386","313503","0.0-386.0","37Z929RLGAUCV9YE5JBCJ9XZTHOTSS","A2JWAD9JQNA5ON","329E6HTMSWO7MPPIUTRHLR63CI0K3O","","","<img src=""img/flower4.png"" style=""width:200px; border:14px solid green;"">","null","","","","","",""
"493","","image-keyboard-response","387","313998","0.0-387.0","37Z929RLGAUCV9YE5JBCJ9XZTHOTSS","A2JWAD9JQNA5ON","329E6HTMSWO7MPPIUTRHLR63CI0K3O","","","img/flower3.png","74","494","1","1","3","1,1,0,0,1,1,1,0,1",""
"null","","html-keyboard-response","388","314300","0.0-388.0","37Z929RLGAUCV9YE5JBCJ9XZTHOTSS","A2JWAD9JQNA5ON","329E6HTMSWO7MPPIUTRHLR63CI0K3O","","","<img src=""img/flower3.png"" style=""width:200px; border:14px solid green;"">","null","","","","","",""
"499","","image-keyboard-response","389","314800","0.0-389.0","37Z929RLGAUCV9YE5JBCJ9XZTHOTSS","A2JWAD9JQNA5ON","329E6HTMSWO7MPPIUTRHLR63CI0K3O","","","img/flower6.png","74","499","1","0","2","1,1,0,0,1,1,1,0,1",""
"null","","html-keyboard-response","390","315101","0.0-390.0","37Z929RLGAUCV9YE5JBCJ9XZTHOTSS","A2JWAD9JQNA5ON","329E6HTMSWO7MPPIUTRHLR63CI0K3O","","","<img src=""img/flower6.png"" style=""width:200px;border:14px solid red;"">","null","","","","","",""
"493","","image-keyboard-response","391","315595","0.0-391.0","37Z929RLGAUCV9YE5JBCJ9XZTHOTSS","A2JWAD9JQNA5ON","329E6HTMSWO7MPPIUTRHLR63CI0K3O","","","img/flower3.png","74","493","1","1","3","1,1,0,0,1,1,1,0,1",""
"null","","html-keyboard-response","392","315897","0.0-392.0","37Z929RLGAUCV9YE5JBCJ9XZTHOTSS","A2JWAD9JQNA5ON","329E6HTMSWO7MPPIUTRHLR63CI0K3O","","","<img src=""img/flower3.png"" style=""width:200px; border:14px solid green;"">","null","","","","","",""
"740","","image-keyboard-response","393","316638","0.0-393.0","37Z929RLGAUCV9YE5JBCJ9XZTHOTSS","A2JWAD9JQNA5ON","329E6HTMSWO7MPPIUTRHLR63CI0K3O","","","img/flower3.png","74","740","1","1","3","1,1,0,0,1,1,1,0,1",""
"null","","html-keyboard-response","394","316939","0.0-394.0","37Z929RLGAUCV9YE5JBCJ9XZTHOTSS","A2JWAD9JQNA5ON","329E6HTMSWO7MPPIUTRHLR63CI0K3O","","","<img src=""img/flower3.png"" style=""width:200px; border:14px solid green;"">","null","","","","","",""
"883","","image-keyboard-response","395","317823","0.0-395.0","37Z929RLGAUCV9YE5JBCJ9XZTHOTSS","A2JWAD9JQNA5ON","329E6HTMSWO7MPPIUTRHLR63CI0K3O","","","img/flower3.png","74","884","1","1","3","1,1,0,0,1,1,1,0,1",""
"null","","html-keyboard-response","396","318124","0.0-396.0","37Z929RLGAUCV9YE5JBCJ9XZTHOTSS","A2JWAD9JQNA5ON","329E6HTMSWO7MPPIUTRHLR63CI0K3O","","","<img src=""img/flower3.png"" style=""width:200px; border:14px solid green;"">","null","","","","","",""
"561","","image-keyboard-response","397","318685","0.0-397.0","37Z929RLGAUCV9YE5JBCJ9XZTHOTSS","A2JWAD9JQNA5ON","329E6HTMSWO7MPPIUTRHLR63CI0K3O","","","img/flower3.png","74","561","1","1","3","1,1,0,0,1,1,1,0,1",""
"null","","html-keyboard-response","398","318986","0.0-398.0","37Z929RLGAUCV9YE5JBCJ9XZTHOTSS","A2JWAD9JQNA5ON","329E6HTMSWO7MPPIUTRHLR63CI0K3O","","","<img src=""img/flower3.png"" style=""width:200px; border:14px solid green;"">","null","","","","","",""
"509","","image-keyboard-response","399","319495","0.0-399.0","37Z929RLGAUCV9YE5JBCJ9XZTHOTSS","A2JWAD9JQNA5ON","329E6HTMSWO7MPPIUTRHLR63CI0K3O","","","img/flower4.png","74","509","1","1","1","1,1,0,0,1,1,1,0,1",""
"null","","html-keyboard-response","400","319795","0.0-400.0","37Z929RLGAUCV9YE5JBCJ9XZTHOTSS","A2JWAD9JQNA5ON","329E6HTMSWO7MPPIUTRHLR63CI0K3O","","","<img src=""img/flower4.png"" style=""width:200px; border:14px solid green;"">","null","","","","","",""
"509","","image-keyboard-response","401","320305","0.0-401.0","37Z929RLGAUCV9YE5JBCJ9XZTHOTSS","A2JWAD9JQNA5ON","329E6HTMSWO7MPPIUTRHLR63CI0K3O","","","img/flower3.png","74","509","1","1","3","1,1,0,0,1,1,1,0,1",""
"null","","html-keyboard-response","402","320607","0.0-402.0","37Z929RLGAUCV9YE5JBCJ9XZTHOTSS","A2JWAD9JQNA5ON","329E6HTMSWO7MPPIUTRHLR63CI0K3O","","","<img src=""img/flower3.png"" style=""width:200px; border:14px solid green;"">","null","","","","","",""
"433","","image-keyboard-response","403","321041","0.0-403.0","37Z929RLGAUCV9YE5JBCJ9XZTHOTSS","A2JWAD9JQNA5ON","329E6HTMSWO7MPPIUTRHLR63CI0K3O","","","img/flower4.png","74","434","1","1","1","1,1,0,0,1,1,1,0,1",""
"null","","html-keyboard-response","404","321341","0.0-404.0","37Z929RLGAUCV9YE5JBCJ9XZTHOTSS","A2JWAD9JQNA5ON","329E6HTMSWO7MPPIUTRHLR63CI0K3O","","","<img src=""img/flower4.png"" style=""width:200px; border:14px solid green;"">","null","","","","","",""
"500","","image-keyboard-response","405","321843","0.0-405.0","37Z929RLGAUCV9YE5JBCJ9XZTHOTSS","A2JWAD9JQNA5ON","329E6HTMSWO7MPPIUTRHLR63CI0K3O","","","img/flower6.png","76","501","3","1","2","1,1,0,0,1,1,1,0,1",""
"null","","html-keyboard-response","406","322143","0.0-406.0","37Z929RLGAUCV9YE5JBCJ9XZTHOTSS","A2JWAD9JQNA5ON","329E6HTMSWO7MPPIUTRHLR63CI0K3O","","","<img src=""img/flower6.png"" style=""width:200px; border:14px solid green;"">","null","","","","","",""
"861","","image-keyboard-response","407","323005","0.0-407.0","37Z929RLGAUCV9YE5JBCJ9XZTHOTSS","A2JWAD9JQNA5ON","329E6HTMSWO7MPPIUTRHLR63CI0K3O","","","img/flower6.png","76","861","3","1","2","1,1,0,0,1,1,1,0,1",""
"null","","html-keyboard-response","408","323305","0.0-408.0","37Z929RLGAUCV9YE5JBCJ9XZTHOTSS","A2JWAD9JQNA5ON","329E6HTMSWO7MPPIUTRHLR63CI0K3O","","","<img src=""img/flower6.png"" style=""width:200px; border:14px solid green;"">","null","","","","","",""
"1528","","image-keyboard-response","409","324835","0.0-409.0","37Z929RLGAUCV9YE5JBCJ9XZTHOTSS","A2JWAD9JQNA5ON","329E6HTMSWO7MPPIUTRHLR63CI0K3O","","","img/flower6.png","76","1529","3","1","2","1,1,0,0,1,1,1,0,1",""
"null","","html-keyboard-response","410","325138","0.0-410.0","37Z929RLGAUCV9YE5JBCJ9XZTHOTSS","A2JWAD9JQNA5ON","329E6HTMSWO7MPPIUTRHLR63CI0K3O","","","<img src=""img/flower6.png"" style=""width:200px; border:14px solid green;"">","null","","","","","",""
"522","","image-keyboard-response","411","325660","0.0-411.0","37Z929RLGAUCV9YE5JBCJ9XZTHOTSS","A2JWAD9JQNA5ON","329E6HTMSWO7MPPIUTRHLR63CI0K3O","","","img/flower4.png","74","523","1","1","1","1,1,0,0,1,1,1,0,1",""
"null","","html-keyboard-response","412","325961","0.0-412.0","37Z929RLGAUCV9YE5JBCJ9XZTHOTSS","A2JWAD9JQNA5ON","329E6HTMSWO7MPPIUTRHLR63CI0K3O","","","<img src=""img/flower4.png"" style=""width:200px; border:14px solid green;"">","null","","","","","",""
"899","","image-keyboard-response","413","326860","0.0-413.0","37Z929RLGAUCV9YE5JBCJ9XZTHOTSS","A2JWAD9JQNA5ON","329E6HTMSWO7MPPIUTRHLR63CI0K3O","","","img/flower3.png","74","899","1","1","3","1,1,0,0,1,1,1,0,1",""
"null","","html-keyboard-response","414","327161","0.0-414.0","37Z929RLGAUCV9YE5JBCJ9XZTHOTSS","A2JWAD9JQNA5ON","329E6HTMSWO7MPPIUTRHLR63CI0K3O","","","<img src=""img/flower3.png"" style=""width:200px; border:14px solid green;"">","null","","","","","",""
"681","","image-keyboard-response","415","327843","0.0-415.0","37Z929RLGAUCV9YE5JBCJ9XZTHOTSS","A2JWAD9JQNA5ON","329E6HTMSWO7MPPIUTRHLR63CI0K3O","","","img/flower6.png","76","682","3","1","2","1,1,0,0,1,1,1,0,1",""
"null","","html-keyboard-response","416","328143","0.0-416.0","37Z929RLGAUCV9YE5JBCJ9XZTHOTSS","A2JWAD9JQNA5ON","329E6HTMSWO7MPPIUTRHLR63CI0K3O","","","<img src=""img/flower6.png"" style=""width:200px; border:14px solid green;"">","null","","","","","",""
"523","","image-keyboard-response","417","328668","0.0-417.0","37Z929RLGAUCV9YE5JBCJ9XZTHOTSS","A2JWAD9JQNA5ON","329E6HTMSWO7MPPIUTRHLR63CI0K3O","","","img/flower4.png","74","524","1","1","1","1,1,0,0,1,1,1,0,1",""
"null","","html-keyboard-response","418","328968","0.0-418.0","37Z929RLGAUCV9YE5JBCJ9XZTHOTSS","A2JWAD9JQNA5ON","329E6HTMSWO7MPPIUTRHLR63CI0K3O","","","<img src=""img/flower4.png"" style=""width:200px; border:14px solid green;"">","null","","","","","",""
"510","","image-keyboard-response","419","329477","0.0-419.0","37Z929RLGAUCV9YE5JBCJ9XZTHOTSS","A2JWAD9JQNA5ON","329E6HTMSWO7MPPIUTRHLR63CI0K3O","","","img/flower3.png","74","510","1","1","3","1,1,0,0,1,1,1,0,1",""
"null","","html-keyboard-response","420","329779","0.0-420.0","37Z929RLGAUCV9YE5JBCJ9XZTHOTSS","A2JWAD9JQNA5ON","329E6HTMSWO7MPPIUTRHLR63CI0K3O","","","<img src=""img/flower3.png"" style=""width:200px; border:14px solid green;"">","null","","","","","",""
"598","","image-keyboard-response","421","330377","0.0-421.0","37Z929RLGAUCV9YE5JBCJ9XZTHOTSS","A2JWAD9JQNA5ON","329E6HTMSWO7MPPIUTRHLR63CI0K3O","","","img/flower6.png","76","599","3","1","2","1,1,0,0,1,1,1,0,1",""
"null","","html-keyboard-response","422","330678","0.0-422.0","37Z929RLGAUCV9YE5JBCJ9XZTHOTSS","A2JWAD9JQNA5ON","329E6HTMSWO7MPPIUTRHLR63CI0K3O","","","<img src=""img/flower6.png"" style=""width:200px; border:14px solid green;"">","null","","","","","",""
"495","","image-keyboard-response","423","331173","0.0-423.0","37Z929RLGAUCV9YE5JBCJ9XZTHOTSS","A2JWAD9JQNA5ON","329E6HTMSWO7MPPIUTRHLR63CI0K3O","","","img/flower4.png","74","495","1","1","1","1,1,0,0,1,1,1,0,1",""
