"success","trial_type","trial_index","time_elapsed","internal_node_id","assignmentID","mturkID","hitID","view_history","rt","stimulus","key_press","reactionTime","a","r","s","cond","reward_cond","reward_cond_actual","reward_matrix_idx","responses"
"true","fullscreen","0","5522","0.0-0.0","3BXQMRHWK0KOXR0YLR50CWKVMNCMUZ","A2JZTR2ZSALGH4","3ECKRY5B1QIH1N6NFX1ECCW5ZDKIZQ","","","","","","","","","","","","",""
"","instructions","1","29778","0.0-1.0","3BXQMRHWK0KOXR0YLR50CWKVMNCMUZ","A2JZTR2ZSALGH4","3ECKRY5B1QIH1N6NFX1ECCW5ZDKIZQ","[{""page_index"":0,""viewing_time"":7291.4000000003725},{""page_index"":1,""viewing_time"":1731.300000000745},{""page_index"":2,""viewing_time"":1916.0999999996275},{""page_index"":3,""viewing_time"":2484.699999999255},{""page_index"":4,""viewing_time"":4172},{""page_index"":5,""viewing_time"":2280.60000000149},{""page_index"":6,""viewing_time"":2785.89999999851},{""page_index"":7,""viewing_time"":1577.7000000011176}]","24245.800000000745","","","","","","","","","","",""
"","image-keyboard-response","2","30486","0.0-2.0","3BXQMRHWK0KOXR0YLR50CWKVMNCMUZ","A2JZTR2ZSALGH4","3ECKRY5B1QIH1N6NFX1ECCW5ZDKIZQ","","702.1999999992549","img/flower6.png","74","706.5999999996275","1","1","3","2","1,0,0,1,1,0,1,0,1","0,1,0,0,1,1,1,1,0","3",""
"","html-keyboard-response","3","30799","0.0-3.0","3BXQMRHWK0KOXR0YLR50CWKVMNCMUZ","A2JZTR2ZSALGH4","3ECKRY5B1QIH1N6NFX1ECCW5ZDKIZQ","","null","<img src=""img/flower6.png"" style=""width:200px; border:14px solid green;"">","null","","","","","","","","",""
"","image-keyboard-response","4","31808","0.0-4.0","3BXQMRHWK0KOXR0YLR50CWKVMNCMUZ","A2JZTR2ZSALGH4","3ECKRY5B1QIH1N6NFX1ECCW5ZDKIZQ","","999","img/flower4.png","75","1005.6999999992549","2","1","1","2","1,0,0,1,1,0,1,0,1","0,1,0,0,1,1,1,1,0","3",""
"","html-keyboard-response","5","32114","0.0-5.0","3BXQMRHWK0KOXR0YLR50CWKVMNCMUZ","A2JZTR2ZSALGH4","3ECKRY5B1QIH1N6NFX1ECCW5ZDKIZQ","","null","<img src=""img/flower4.png"" style=""width:200px; border:14px solid green;"">","null","","","","","","","","",""
"","image-keyboard-response","6","32752","0.0-6.0","3BXQMRHWK0KOXR0YLR50CWKVMNCMUZ","A2JZTR2ZSALGH4","3ECKRY5B1QIH1N6NFX1ECCW5ZDKIZQ","","630.7999999988824","img/flower1.png","76","636.7999999988824","3","1","2","2","1,0,0,1,1,0,1,0,1","0,1,0,0,1,1,1,1,0","3",""
"","html-keyboard-response","7","33062","0.0-7.0","3BXQMRHWK0KOXR0YLR50CWKVMNCMUZ","A2JZTR2ZSALGH4","3ECKRY5B1QIH1N6NFX1ECCW5ZDKIZQ","","null","<img src=""img/flower1.png"" style=""width:200px; border:14px solid green;"">","null","","","","","","","","",""
"","image-keyboard-response","8","33918","0.0-8.0","3BXQMRHWK0KOXR0YLR50CWKVMNCMUZ","A2JZTR2ZSALGH4","3ECKRY5B1QIH1N6NFX1ECCW5ZDKIZQ","","848.5","img/flower6.png","74","855.5999999996275","1","1","3","2","1,0,0,1,1,0,1,0,1","0,1,0,0,1,1,1,1,0","3",""
"","html-keyboard-response","9","34224","0.0-9.0","3BXQMRHWK0KOXR0YLR50CWKVMNCMUZ","A2JZTR2ZSALGH4","3ECKRY5B1QIH1N6NFX1ECCW5ZDKIZQ","","null","<img src=""img/flower6.png"" style=""width:200px; border:14px solid green;"">","null","","","","","","","","",""
"","image-keyboard-response","10","34997","0.0-10.0","3BXQMRHWK0KOXR0YLR50CWKVMNCMUZ","A2JZTR2ZSALGH4","3ECKRY5B1QIH1N6NFX1ECCW5ZDKIZQ","","765.1000000014901","img/flower4.png","75","771.3000000007451","2","1","1","2","1,0,0,1,1,0,1,0,1","0,1,0,0,1,1,1,1,0","3",""
"","html-keyboard-response","11","35302","0.0-11.0","3BXQMRHWK0KOXR0YLR50CWKVMNCMUZ","A2JZTR2ZSALGH4","3ECKRY5B1QIH1N6NFX1ECCW5ZDKIZQ","","null","<img src=""img/flower4.png"" style=""width:200px; border:14px solid green;"">","null","","","","","","","","",""
"","image-keyboard-response","12","36062","0.0-12.0","3BXQMRHWK0KOXR0YLR50CWKVMNCMUZ","A2JZTR2ZSALGH4","3ECKRY5B1QIH1N6NFX1ECCW5ZDKIZQ","","755.1999999992549","img/flower1.png","76","760","3","1","2","2","1,0,0,1,1,0,1,0,1","0,1,0,0,1,1,1,1,0","3",""
"","html-keyboard-response","13","36367","0.0-13.0","3BXQMRHWK0KOXR0YLR50CWKVMNCMUZ","A2JZTR2ZSALGH4","3ECKRY5B1QIH1N6NFX1ECCW5ZDKIZQ","","null","<img src=""img/flower1.png"" style=""width:200px; border:14px solid green;"">","null","","","","","","","","",""
"","image-keyboard-response","14","37093","0.0-14.0","3BXQMRHWK0KOXR0YLR50CWKVMNCMUZ","A2JZTR2ZSALGH4","3ECKRY5B1QIH1N6NFX1ECCW5ZDKIZQ","","720.2000000011176","img/flower6.png","74","724.5","1","1","3","2","1,0,0,1,1,0,1,0,1","0,1,0,0,1,1,1,1,0","3",""
"","html-keyboard-response","15","37400","0.0-15.0","3BXQMRHWK0KOXR0YLR50CWKVMNCMUZ","A2JZTR2ZSALGH4","3ECKRY5B1QIH1N6NFX1ECCW5ZDKIZQ","","null","<img src=""img/flower6.png"" style=""width:200px; border:14px solid green;"">","null","","","","","","","","",""
"","image-keyboard-response","16","37965","0.0-16.0","3BXQMRHWK0KOXR0YLR50CWKVMNCMUZ","A2JZTR2ZSALGH4","3ECKRY5B1QIH1N6NFX1ECCW5ZDKIZQ","","559.3000000007451","img/flower1.png","75","564.0999999996275","2","1","2","2","1,0,0,1,1,0,1,0,1","0,1,0,0,1,1,1,1,0","3",""
"","html-keyboard-response","17","38270","0.0-17.0","3BXQMRHWK0KOXR0YLR50CWKVMNCMUZ","A2JZTR2ZSALGH4","3ECKRY5B1QIH1N6NFX1ECCW5ZDKIZQ","","null","<img src=""img/flower1.png"" style=""width:200px; border:14px solid green;"">","null","","","","","","","","",""
"","image-keyboard-response","18","39200","0.0-18.0","3BXQMRHWK0KOXR0YLR50CWKVMNCMUZ","A2JZTR2ZSALGH4","3ECKRY5B1QIH1N6NFX1ECCW5ZDKIZQ","","921.5999999996275","img/flower1.png","76","928.6999999992549","3","1","2","2","1,0,0,1,1,0,1,0,1","0,1,0,0,1,1,1,1,0","3",""
"","html-keyboard-response","19","39503","0.0-19.0","3BXQMRHWK0KOXR0YLR50CWKVMNCMUZ","A2JZTR2ZSALGH4","3ECKRY5B1QIH1N6NFX1ECCW5ZDKIZQ","","null","<img src=""img/flower1.png"" style=""width:200px; border:14px solid green;"">","null","","","","","","","","",""
"","image-keyboard-response","20","40479","0.0-20.0","3BXQMRHWK0KOXR0YLR50CWKVMNCMUZ","A2JZTR2ZSALGH4","3ECKRY5B1QIH1N6NFX1ECCW5ZDKIZQ","","967.3999999985099","img/flower6.png","74","974.3999999985099","1","1","3","2","1,0,0,1,1,0,1,0,1","0,1,0,0,1,1,1,1,0","3",""
"","html-keyboard-response","21","40785","0.0-21.0","3BXQMRHWK0KOXR0YLR50CWKVMNCMUZ","A2JZTR2ZSALGH4","3ECKRY5B1QIH1N6NFX1ECCW5ZDKIZQ","","null","<img src=""img/flower6.png"" style=""width:200px; border:14px solid green;"">","null","","","","","","","","",""
"","image-keyboard-response","22","42001","0.0-22.0","3BXQMRHWK0KOXR0YLR50CWKVMNCMUZ","A2JZTR2ZSALGH4","3ECKRY5B1QIH1N6NFX1ECCW5ZDKIZQ","","1208.2000000011176","img/flower1.png","75","1214.9000000003725","2","1","2","2","1,0,0,1,1,0,1,0,1","0,1,0,0,1,1,1,1,0","3",""
"","html-keyboard-response","23","42308","0.0-23.0","3BXQMRHWK0KOXR0YLR50CWKVMNCMUZ","A2JZTR2ZSALGH4","3ECKRY5B1QIH1N6NFX1ECCW5ZDKIZQ","","null","<img src=""img/flower1.png"" style=""width:200px; border:14px solid green;"">","null","","","","","","","","",""
"","image-keyboard-response","24","42973","0.0-24.0","3BXQMRHWK0KOXR0YLR50CWKVMNCMUZ","A2JZTR2ZSALGH4","3ECKRY5B1QIH1N6NFX1ECCW5ZDKIZQ","","661.3000000007451","img/flower4.png","76","664.7000000011176","3","0","1","2","1,0,0,1,1,0,1,0,1","0,1,0,0,1,1,1,1,0","3",""
"","html-keyboard-response","25","43280","0.0-25.0","3BXQMRHWK0KOXR0YLR50CWKVMNCMUZ","A2JZTR2ZSALGH4","3ECKRY5B1QIH1N6NFX1ECCW5ZDKIZQ","","null","<img src=""img/flower4.png"" style=""width:200px;border:14px solid red;"">","null","","","","","","","","",""
"","image-keyboard-response","26","44313","0.0-26.0","3BXQMRHWK0KOXR0YLR50CWKVMNCMUZ","A2JZTR2ZSALGH4","3ECKRY5B1QIH1N6NFX1ECCW5ZDKIZQ","","1025.699999999255","img/flower4.png","74","1031.5","1","0","1","2","1,0,0,1,1,0,1,0,1","0,1,0,0,1,1,1,1,0","3",""
"","html-keyboard-response","27","44617","0.0-27.0","3BXQMRHWK0KOXR0YLR50CWKVMNCMUZ","A2JZTR2ZSALGH4","3ECKRY5B1QIH1N6NFX1ECCW5ZDKIZQ","","null","<img src=""img/flower4.png"" style=""width:200px;border:14px solid red;"">","null","","","","","","","","",""
"","image-keyboard-response","28","45552","0.0-28.0","3BXQMRHWK0KOXR0YLR50CWKVMNCMUZ","A2JZTR2ZSALGH4","3ECKRY5B1QIH1N6NFX1ECCW5ZDKIZQ","","928.4000000003725","img/flower6.png","74","932.7000000011176","1","1","3","2","1,0,0,1,1,0,1,0,1","0,1,0,0,1,1,1,1,0","3",""
"","html-keyboard-response","29","45857","0.0-29.0","3BXQMRHWK0KOXR0YLR50CWKVMNCMUZ","A2JZTR2ZSALGH4","3ECKRY5B1QIH1N6NFX1ECCW5ZDKIZQ","","null","<img src=""img/flower6.png"" style=""width:200px; border:14px solid green;"">","null","","","","","","","","",""
"","image-keyboard-response","30","46774","0.0-30.0","3BXQMRHWK0KOXR0YLR50CWKVMNCMUZ","A2JZTR2ZSALGH4","3ECKRY5B1QIH1N6NFX1ECCW5ZDKIZQ","","908.8000000007451","img/flower4.png","75","915.7999999988824","2","1","1","2","1,0,0,1,1,0,1,0,1","0,1,0,0,1,1,1,1,0","3",""
"","html-keyboard-response","31","47079","0.0-31.0","3BXQMRHWK0KOXR0YLR50CWKVMNCMUZ","A2JZTR2ZSALGH4","3ECKRY5B1QIH1N6NFX1ECCW5ZDKIZQ","","null","<img src=""img/flower4.png"" style=""width:200px; border:14px solid green;"">","null","","","","","","","","",""
"","image-keyboard-response","32","47967","0.0-32.0","3BXQMRHWK0KOXR0YLR50CWKVMNCMUZ","A2JZTR2ZSALGH4","3ECKRY5B1QIH1N6NFX1ECCW5ZDKIZQ","","881.0999999996275","img/flower6.png","76","887.2000000011176","3","0","3","2","1,0,0,1,1,0,1,0,1","0,1,0,0,1,1,1,1,0","3",""
"","html-keyboard-response","33","48271","0.0-33.0","3BXQMRHWK0KOXR0YLR50CWKVMNCMUZ","A2JZTR2ZSALGH4","3ECKRY5B1QIH1N6NFX1ECCW5ZDKIZQ","","null","<img src=""img/flower6.png"" style=""width:200px;border:14px solid red;"">","null","","","","","","","","",""
"","image-keyboard-response","34","49219","0.0-34.0","3BXQMRHWK0KOXR0YLR50CWKVMNCMUZ","A2JZTR2ZSALGH4","3ECKRY5B1QIH1N6NFX1ECCW5ZDKIZQ","","942","img/flower4.png","74","946.3000000007451","1","0","1","2","1,0,0,1,1,0,1,0,1","0,1,0,0,1,1,1,1,0","3",""
"","html-keyboard-response","35","49523","0.0-35.0","3BXQMRHWK0KOXR0YLR50CWKVMNCMUZ","A2JZTR2ZSALGH4","3ECKRY5B1QIH1N6NFX1ECCW5ZDKIZQ","","null","<img src=""img/flower4.png"" style=""width:200px;border:14px solid red;"">","null","","","","","","","","",""
"","image-keyboard-response","36","50945","0.0-36.0","3BXQMRHWK0KOXR0YLR50CWKVMNCMUZ","A2JZTR2ZSALGH4","3ECKRY5B1QIH1N6NFX1ECCW5ZDKIZQ","","1413.9000000003725","img/flower1.png","75","1419.800000000745","2","1","2","2","1,0,0,1,1,0,1,0,1","0,1,0,0,1,1,1,1,0","3",""
"","html-keyboard-response","37","51250","0.0-37.0","3BXQMRHWK0KOXR0YLR50CWKVMNCMUZ","A2JZTR2ZSALGH4","3ECKRY5B1QIH1N6NFX1ECCW5ZDKIZQ","","null","<img src=""img/flower1.png"" style=""width:200px; border:14px solid green;"">","null","","","","","","","","",""
"","image-keyboard-response","38","52439","0.0-38.0","3BXQMRHWK0KOXR0YLR50CWKVMNCMUZ","A2JZTR2ZSALGH4","3ECKRY5B1QIH1N6NFX1ECCW5ZDKIZQ","","1183.800000000745","img/flower6.png","75","1188","2","1","3","2","1,0,0,1,1,0,1,0,1","0,1,0,0,1,1,1,1,0","3",""
"","html-keyboard-response","39","52744","0.0-39.0","3BXQMRHWK0KOXR0YLR50CWKVMNCMUZ","A2JZTR2ZSALGH4","3ECKRY5B1QIH1N6NFX1ECCW5ZDKIZQ","","null","<img src=""img/flower6.png"" style=""width:200px; border:14px solid green;"">","null","","","","","","","","",""
"","image-keyboard-response","40","54334","0.0-40.0","3BXQMRHWK0KOXR0YLR50CWKVMNCMUZ","A2JZTR2ZSALGH4","3ECKRY5B1QIH1N6NFX1ECCW5ZDKIZQ","","1583","img/flower4.png","75","1588.699999999255","2","1","1","2","1,0,0,1,1,0,1,0,1","0,1,0,0,1,1,1,1,0","3",""
"","html-keyboard-response","41","54639","0.0-41.0","3BXQMRHWK0KOXR0YLR50CWKVMNCMUZ","A2JZTR2ZSALGH4","3ECKRY5B1QIH1N6NFX1ECCW5ZDKIZQ","","null","<img src=""img/flower4.png"" style=""width:200px; border:14px solid green;"">","null","","","","","","","","",""
"","image-keyboard-response","42","55740","0.0-42.0","3BXQMRHWK0KOXR0YLR50CWKVMNCMUZ","A2JZTR2ZSALGH4","3ECKRY5B1QIH1N6NFX1ECCW5ZDKIZQ","","1095.699999999255","img/flower6.png","75","1100.5","2","1","3","2","1,0,0,1,1,0,1,0,1","0,1,0,0,1,1,1,1,0","3",""
"","html-keyboard-response","43","56047","0.0-43.0","3BXQMRHWK0KOXR0YLR50CWKVMNCMUZ","A2JZTR2ZSALGH4","3ECKRY5B1QIH1N6NFX1ECCW5ZDKIZQ","","null","<img src=""img/flower6.png"" style=""width:200px; border:14px solid green;"">","null","","","","","","","","",""
"","image-keyboard-response","44","56898","0.0-44.0","3BXQMRHWK0KOXR0YLR50CWKVMNCMUZ","A2JZTR2ZSALGH4","3ECKRY5B1QIH1N6NFX1ECCW5ZDKIZQ","","845.8000000007451","img/flower4.png","75","849.6999999992549","2","1","1","2","1,0,0,1,1,0,1,0,1","0,1,0,0,1,1,1,1,0","3",""
"","html-keyboard-response","45","57202","0.0-45.0","3BXQMRHWK0KOXR0YLR50CWKVMNCMUZ","A2JZTR2ZSALGH4","3ECKRY5B1QIH1N6NFX1ECCW5ZDKIZQ","","null","<img src=""img/flower4.png"" style=""width:200px; border:14px solid green;"">","null","","","","","","","","",""
"","image-keyboard-response","46","58027","0.0-46.0","3BXQMRHWK0KOXR0YLR50CWKVMNCMUZ","A2JZTR2ZSALGH4","3ECKRY5B1QIH1N6NFX1ECCW5ZDKIZQ","","816.1000000014901","img/flower4.png","75","823","2","1","1","2","1,0,0,1,1,0,1,0,1","0,1,0,0,1,1,1,1,0","3",""
"","html-keyboard-response","47","58332","0.0-47.0","3BXQMRHWK0KOXR0YLR50CWKVMNCMUZ","A2JZTR2ZSALGH4","3ECKRY5B1QIH1N6NFX1ECCW5ZDKIZQ","","null","<img src=""img/flower4.png"" style=""width:200px; border:14px solid green;"">","null","","","","","","","","",""
"","image-keyboard-response","48","58903","0.0-48.0","3BXQMRHWK0KOXR0YLR50CWKVMNCMUZ","A2JZTR2ZSALGH4","3ECKRY5B1QIH1N6NFX1ECCW5ZDKIZQ","","565.3000000007451","img/flower1.png","75","570.6000000014901","2","1","2","2","1,0,0,1,1,0,1,0,1","0,1,0,0,1,1,1,1,0","3",""
"","html-keyboard-response","49","59208","0.0-49.0","3BXQMRHWK0KOXR0YLR50CWKVMNCMUZ","A2JZTR2ZSALGH4","3ECKRY5B1QIH1N6NFX1ECCW5ZDKIZQ","","null","<img src=""img/flower1.png"" style=""width:200px; border:14px solid green;"">","null","","","","","","","","",""
"","image-keyboard-response","50","59923","0.0-50.0","3BXQMRHWK0KOXR0YLR50CWKVMNCMUZ","A2JZTR2ZSALGH4","3ECKRY5B1QIH1N6NFX1ECCW5ZDKIZQ","","707.6999999992549","img/flower4.png","75","713.0999999996275","2","1","1","2","1,0,0,1,1,0,1,0,1","0,1,0,0,1,1,1,1,0","3",""
"","html-keyboard-response","51","60229","0.0-51.0","3BXQMRHWK0KOXR0YLR50CWKVMNCMUZ","A2JZTR2ZSALGH4","3ECKRY5B1QIH1N6NFX1ECCW5ZDKIZQ","","null","<img src=""img/flower4.png"" style=""width:200px; border:14px solid green;"">","null","","","","","","","","",""
"","image-keyboard-response","52","60889","0.0-52.0","3BXQMRHWK0KOXR0YLR50CWKVMNCMUZ","A2JZTR2ZSALGH4","3ECKRY5B1QIH1N6NFX1ECCW5ZDKIZQ","","651.2000000011176","img/flower1.png","75","659.4000000003725","2","1","2","2","1,0,0,1,1,0,1,0,1","0,1,0,0,1,1,1,1,0","3",""
"","html-keyboard-response","53","61196","0.0-53.0","3BXQMRHWK0KOXR0YLR50CWKVMNCMUZ","A2JZTR2ZSALGH4","3ECKRY5B1QIH1N6NFX1ECCW5ZDKIZQ","","null","<img src=""img/flower1.png"" style=""width:200px; border:14px solid green;"">","null","","","","","","","","",""
"","image-keyboard-response","54","61849","0.0-54.0","3BXQMRHWK0KOXR0YLR50CWKVMNCMUZ","A2JZTR2ZSALGH4","3ECKRY5B1QIH1N6NFX1ECCW5ZDKIZQ","","648.7999999988824","img/flower4.png","75","653","2","1","1","2","1,0,0,1,1,0,1,0,1","0,1,0,0,1,1,1,1,0","3",""
"","html-keyboard-response","55","62157","0.0-55.0","3BXQMRHWK0KOXR0YLR50CWKVMNCMUZ","A2JZTR2ZSALGH4","3ECKRY5B1QIH1N6NFX1ECCW5ZDKIZQ","","null","<img src=""img/flower4.png"" style=""width:200px; border:14px solid green;"">","null","","","","","","","","",""
"","image-keyboard-response","56","62850","0.0-56.0","3BXQMRHWK0KOXR0YLR50CWKVMNCMUZ","A2JZTR2ZSALGH4","3ECKRY5B1QIH1N6NFX1ECCW5ZDKIZQ","","688.7000000011176","img/flower1.png","75","692.8999999985099","2","1","2","2","1,0,0,1,1,0,1,0,1","0,1,0,0,1,1,1,1,0","3",""
"","html-keyboard-response","57","63154","0.0-57.0","3BXQMRHWK0KOXR0YLR50CWKVMNCMUZ","A2JZTR2ZSALGH4","3ECKRY5B1QIH1N6NFX1ECCW5ZDKIZQ","","null","<img src=""img/flower1.png"" style=""width:200px; border:14px solid green;"">","null","","","","","","","","",""
"","image-keyboard-response","58","63811","0.0-58.0","3BXQMRHWK0KOXR0YLR50CWKVMNCMUZ","A2JZTR2ZSALGH4","3ECKRY5B1QIH1N6NFX1ECCW5ZDKIZQ","","649.4000000003725","img/flower1.png","75","655.5","2","1","2","2","1,0,0,1,1,0,1,0,1","0,1,0,0,1,1,1,1,0","3",""
"","html-keyboard-response","59","64118","0.0-59.0","3BXQMRHWK0KOXR0YLR50CWKVMNCMUZ","A2JZTR2ZSALGH4","3ECKRY5B1QIH1N6NFX1ECCW5ZDKIZQ","","null","<img src=""img/flower1.png"" style=""width:200px; border:14px solid green;"">","null","","","","","","","","",""
"","image-keyboard-response","60","64632","0.0-60.0","3BXQMRHWK0KOXR0YLR50CWKVMNCMUZ","A2JZTR2ZSALGH4","3ECKRY5B1QIH1N6NFX1ECCW5ZDKIZQ","","509.80000000074506","img/flower4.png","75","513.4000000003725","2","1","1","2","1,0,0,1,1,0,1,0,1","0,1,0,0,1,1,1,1,0","3",""
"","html-keyboard-response","61","64939","0.0-61.0","3BXQMRHWK0KOXR0YLR50CWKVMNCMUZ","A2JZTR2ZSALGH4","3ECKRY5B1QIH1N6NFX1ECCW5ZDKIZQ","","null","<img src=""img/flower4.png"" style=""width:200px; border:14px solid green;"">","null","","","","","","","","",""
"","image-keyboard-response","62","65522","0.0-62.0","3BXQMRHWK0KOXR0YLR50CWKVMNCMUZ","A2JZTR2ZSALGH4","3ECKRY5B1QIH1N6NFX1ECCW5ZDKIZQ","","577.4000000003725","img/flower1.png","75","582.8999999985099","2","1","2","2","1,0,0,1,1,0,1,0,1","0,1,0,0,1,1,1,1,0","3",""
"","html-keyboard-response","63","65829","0.0-63.0","3BXQMRHWK0KOXR0YLR50CWKVMNCMUZ","A2JZTR2ZSALGH4","3ECKRY5B1QIH1N6NFX1ECCW5ZDKIZQ","","null","<img src=""img/flower1.png"" style=""width:200px; border:14px solid green;"">","null","","","","","","","","",""
"","image-keyboard-response","64","66355","0.0-64.0","3BXQMRHWK0KOXR0YLR50CWKVMNCMUZ","A2JZTR2ZSALGH4","3ECKRY5B1QIH1N6NFX1ECCW5ZDKIZQ","","517.7000000011176","img/flower4.png","75","524.6999999992549","2","1","1","2","1,0,0,1,1,0,1,0,1","0,1,0,0,1,1,1,1,0","3",""
"","html-keyboard-response","65","66661","0.0-65.0","3BXQMRHWK0KOXR0YLR50CWKVMNCMUZ","A2JZTR2ZSALGH4","3ECKRY5B1QIH1N6NFX1ECCW5ZDKIZQ","","null","<img src=""img/flower4.png"" style=""width:200px; border:14px solid green;"">","null","","","","","","","","",""
"","image-keyboard-response","66","67246","0.0-66.0","3BXQMRHWK0KOXR0YLR50CWKVMNCMUZ","A2JZTR2ZSALGH4","3ECKRY5B1QIH1N6NFX1ECCW5ZDKIZQ","","578.1999999992549","img/flower6.png","75","582.9000000003725","2","1","3","2","1,0,0,1,1,0,1,0,1","0,1,0,0,1,1,1,1,0","3",""
"","html-keyboard-response","67","67553","0.0-67.0","3BXQMRHWK0KOXR0YLR50CWKVMNCMUZ","A2JZTR2ZSALGH4","3ECKRY5B1QIH1N6NFX1ECCW5ZDKIZQ","","null","<img src=""img/flower6.png"" style=""width:200px; border:14px solid green;"">","null","","","","","","","","",""
"","image-keyboard-response","68","67987","0.0-68.0","3BXQMRHWK0KOXR0YLR50CWKVMNCMUZ","A2JZTR2ZSALGH4","3ECKRY5B1QIH1N6NFX1ECCW5ZDKIZQ","","425","img/flower1.png","75","433.09999999962747","2","1","2","2","1,0,0,1,1,0,1,0,1","0,1,0,0,1,1,1,1,0","3",""
"","html-keyboard-response","69","68292","0.0-69.0","3BXQMRHWK0KOXR0YLR50CWKVMNCMUZ","A2JZTR2ZSALGH4","3ECKRY5B1QIH1N6NFX1ECCW5ZDKIZQ","","null","<img src=""img/flower1.png"" style=""width:200px; border:14px solid green;"">","null","","","","","","","","",""
"","image-keyboard-response","70","68827","0.0-70.0","3BXQMRHWK0KOXR0YLR50CWKVMNCMUZ","A2JZTR2ZSALGH4","3ECKRY5B1QIH1N6NFX1ECCW5ZDKIZQ","","528","img/flower1.png","75","533","2","1","2","2","1,0,0,1,1,0,1,0,1","0,1,0,0,1,1,1,1,0","3",""
"","html-keyboard-response","71","69133","0.0-71.0","3BXQMRHWK0KOXR0YLR50CWKVMNCMUZ","A2JZTR2ZSALGH4","3ECKRY5B1QIH1N6NFX1ECCW5ZDKIZQ","","null","<img src=""img/flower1.png"" style=""width:200px; border:14px solid green;"">","null","","","","","","","","",""
"","image-keyboard-response","72","69590","0.0-72.0","3BXQMRHWK0KOXR0YLR50CWKVMNCMUZ","A2JZTR2ZSALGH4","3ECKRY5B1QIH1N6NFX1ECCW5ZDKIZQ","","450.2999999988824","img/flower6.png","75","456.40000000037253","2","1","3","2","1,0,0,1,1,0,1,0,1","0,1,0,0,1,1,1,1,0","3",""
"","html-keyboard-response","73","69895","0.0-73.0","3BXQMRHWK0KOXR0YLR50CWKVMNCMUZ","A2JZTR2ZSALGH4","3ECKRY5B1QIH1N6NFX1ECCW5ZDKIZQ","","null","<img src=""img/flower6.png"" style=""width:200px; border:14px solid green;"">","null","","","","","","","","",""
"","image-keyboard-response","74","70411","0.0-74.0","3BXQMRHWK0KOXR0YLR50CWKVMNCMUZ","A2JZTR2ZSALGH4","3ECKRY5B1QIH1N6NFX1ECCW5ZDKIZQ","","504.3999999985099","img/flower1.png","75","514.5","2","1","2","2","1,0,0,1,1,0,1,0,1","0,1,0,0,1,1,1,1,0","3",""
"","html-keyboard-response","75","70714","0.0-75.0","3BXQMRHWK0KOXR0YLR50CWKVMNCMUZ","A2JZTR2ZSALGH4","3ECKRY5B1QIH1N6NFX1ECCW5ZDKIZQ","","null","<img src=""img/flower1.png"" style=""width:200px; border:14px solid green;"">","null","","","","","","","","",""
"","image-keyboard-response","76","71100","0.0-76.0","3BXQMRHWK0KOXR0YLR50CWKVMNCMUZ","A2JZTR2ZSALGH4","3ECKRY5B1QIH1N6NFX1ECCW5ZDKIZQ","","381.5","img/flower1.png","75","385.2000000011176","2","1","2","2","1,0,0,1,1,0,1,0,1","0,1,0,0,1,1,1,1,0","3",""
"","html-keyboard-response","77","71406","0.0-77.0","3BXQMRHWK0KOXR0YLR50CWKVMNCMUZ","A2JZTR2ZSALGH4","3ECKRY5B1QIH1N6NFX1ECCW5ZDKIZQ","","null","<img src=""img/flower1.png"" style=""width:200px; border:14px solid green;"">","null","","","","","","","","",""
"","image-keyboard-response","78","71884","0.0-78.0","3BXQMRHWK0KOXR0YLR50CWKVMNCMUZ","A2JZTR2ZSALGH4","3ECKRY5B1QIH1N6NFX1ECCW5ZDKIZQ","","470.59999999962747","img/flower4.png","75","476.19999999925494","2","1","1","2","1,0,0,1,1,0,1,0,1","0,1,0,0,1,1,1,1,0","3",""
"","html-keyboard-response","79","72190","0.0-79.0","3BXQMRHWK0KOXR0YLR50CWKVMNCMUZ","A2JZTR2ZSALGH4","3ECKRY5B1QIH1N6NFX1ECCW5ZDKIZQ","","null","<img src=""img/flower4.png"" style=""width:200px; border:14px solid green;"">","null","","","","","","","","",""
"","image-keyboard-response","80","72552","0.0-80.0","3BXQMRHWK0KOXR0YLR50CWKVMNCMUZ","A2JZTR2ZSALGH4","3ECKRY5B1QIH1N6NFX1ECCW5ZDKIZQ","","353.19999999925494","img/flower6.png","75","361","2","1","3","2","1,0,0,1,1,0,1,0,1","0,1,0,0,1,1,1,1,0","3",""
"","html-keyboard-response","81","72859","0.0-81.0","3BXQMRHWK0KOXR0YLR50CWKVMNCMUZ","A2JZTR2ZSALGH4","3ECKRY5B1QIH1N6NFX1ECCW5ZDKIZQ","","null","<img src=""img/flower6.png"" style=""width:200px; border:14px solid green;"">","null","","","","","","","","",""
"","image-keyboard-response","82","73233","0.0-82.0","3BXQMRHWK0KOXR0YLR50CWKVMNCMUZ","A2JZTR2ZSALGH4","3ECKRY5B1QIH1N6NFX1ECCW5ZDKIZQ","","368.7000000011176","img/flower4.png","75","372.3999999985099","2","1","1","2","1,0,0,1,1,0,1,0,1","0,1,0,0,1,1,1,1,0","3",""
"","html-keyboard-response","83","73540","0.0-83.0","3BXQMRHWK0KOXR0YLR50CWKVMNCMUZ","A2JZTR2ZSALGH4","3ECKRY5B1QIH1N6NFX1ECCW5ZDKIZQ","","null","<img src=""img/flower4.png"" style=""width:200px; border:14px solid green;"">","null","","","","","","","","",""
"","image-keyboard-response","84","73875","0.0-84.0","3BXQMRHWK0KOXR0YLR50CWKVMNCMUZ","A2JZTR2ZSALGH4","3ECKRY5B1QIH1N6NFX1ECCW5ZDKIZQ","","328.80000000074506","img/flower1.png","75","334.69999999925494","2","1","2","2","1,0,0,1,1,0,1,0,1","0,1,0,0,1,1,1,1,0","3",""
"","html-keyboard-response","85","74181","0.0-85.0","3BXQMRHWK0KOXR0YLR50CWKVMNCMUZ","A2JZTR2ZSALGH4","3ECKRY5B1QIH1N6NFX1ECCW5ZDKIZQ","","null","<img src=""img/flower1.png"" style=""width:200px; border:14px solid green;"">","null","","","","","","","","",""
"","image-keyboard-response","86","74508","0.0-86.0","3BXQMRHWK0KOXR0YLR50CWKVMNCMUZ","A2JZTR2ZSALGH4","3ECKRY5B1QIH1N6NFX1ECCW5ZDKIZQ","","320.09999999962747","img/flower1.png","75","325.69999999925494","2","1","2","2","1,0,0,1,1,0,1,0,1","0,1,0,0,1,1,1,1,0","3",""
"","html-keyboard-response","87","74812","0.0-87.0","3BXQMRHWK0KOXR0YLR50CWKVMNCMUZ","A2JZTR2ZSALGH4","3ECKRY5B1QIH1N6NFX1ECCW5ZDKIZQ","","null","<img src=""img/flower1.png"" style=""width:200px; border:14px solid green;"">","null","","","","","","","","",""
"","image-keyboard-response","88","75198","0.0-88.0","3BXQMRHWK0KOXR0YLR50CWKVMNCMUZ","A2JZTR2ZSALGH4","3ECKRY5B1QIH1N6NFX1ECCW5ZDKIZQ","","378.7999999988824","img/flower6.png","75","384.80000000074506","2","1","3","2","1,0,0,1,1,0,1,0,1","0,1,0,0,1,1,1,1,0","3",""
"","html-keyboard-response","89","75503","0.0-89.0","3BXQMRHWK0KOXR0YLR50CWKVMNCMUZ","A2JZTR2ZSALGH4","3ECKRY5B1QIH1N6NFX1ECCW5ZDKIZQ","","null","<img src=""img/flower6.png"" style=""width:200px; border:14px solid green;"">","null","","","","","","","","",""
"","image-keyboard-response","90","75865","0.0-90.0","3BXQMRHWK0KOXR0YLR50CWKVMNCMUZ","A2JZTR2ZSALGH4","3ECKRY5B1QIH1N6NFX1ECCW5ZDKIZQ","","353.6000000014901","img/flower1.png","75","358.80000000074506","2","1","2","2","1,0,0,1,1,0,1,0,1","0,1,0,0,1,1,1,1,0","3",""
"","html-keyboard-response","91","76169","0.0-91.0","3BXQMRHWK0KOXR0YLR50CWKVMNCMUZ","A2JZTR2ZSALGH4","3ECKRY5B1QIH1N6NFX1ECCW5ZDKIZQ","","null","<img src=""img/flower1.png"" style=""width:200px; border:14px solid green;"">","null","","","","","","","","",""
"","image-keyboard-response","92","76502","0.0-92.0","3BXQMRHWK0KOXR0YLR50CWKVMNCMUZ","A2JZTR2ZSALGH4","3ECKRY5B1QIH1N6NFX1ECCW5ZDKIZQ","","326","img/flower1.png","75","331.40000000037253","2","1","2","2","1,0,0,1,1,0,1,0,1","0,1,0,0,1,1,1,1,0","3",""
"","html-keyboard-response","93","76808","0.0-93.0","3BXQMRHWK0KOXR0YLR50CWKVMNCMUZ","A2JZTR2ZSALGH4","3ECKRY5B1QIH1N6NFX1ECCW5ZDKIZQ","","null","<img src=""img/flower1.png"" style=""width:200px; border:14px solid green;"">","null","","","","","","","","",""
"","image-keyboard-response","94","77175","0.0-94.0","3BXQMRHWK0KOXR0YLR50CWKVMNCMUZ","A2JZTR2ZSALGH4","3ECKRY5B1QIH1N6NFX1ECCW5ZDKIZQ","","360.2000000011176","img/flower4.png","75","365.40000000037253","2","1","1","2","1,0,0,1,1,0,1,0,1","0,1,0,0,1,1,1,1,0","3",""
"","html-keyboard-response","95","77479","0.0-95.0","3BXQMRHWK0KOXR0YLR50CWKVMNCMUZ","A2JZTR2ZSALGH4","3ECKRY5B1QIH1N6NFX1ECCW5ZDKIZQ","","null","<img src=""img/flower4.png"" style=""width:200px; border:14px solid green;"">","null","","","","","","","","",""
"","image-keyboard-response","96","77853","0.0-96.0","3BXQMRHWK0KOXR0YLR50CWKVMNCMUZ","A2JZTR2ZSALGH4","3ECKRY5B1QIH1N6NFX1ECCW5ZDKIZQ","","367.7999999988824","img/flower6.png","75","372.19999999925494","2","1","3","2","1,0,0,1,1,0,1,0,1","0,1,0,0,1,1,1,1,0","3",""
"","html-keyboard-response","97","78160","0.0-97.0","3BXQMRHWK0KOXR0YLR50CWKVMNCMUZ","A2JZTR2ZSALGH4","3ECKRY5B1QIH1N6NFX1ECCW5ZDKIZQ","","null","<img src=""img/flower6.png"" style=""width:200px; border:14px solid green;"">","null","","","","","","","","",""
"","image-keyboard-response","98","78499","0.0-98.0","3BXQMRHWK0KOXR0YLR50CWKVMNCMUZ","A2JZTR2ZSALGH4","3ECKRY5B1QIH1N6NFX1ECCW5ZDKIZQ","","330.59999999962747","img/flower4.png","75","337","2","1","1","2","1,0,0,1,1,0,1,0,1","0,1,0,0,1,1,1,1,0","3",""
"","html-keyboard-response","99","78806","0.0-99.0","3BXQMRHWK0KOXR0YLR50CWKVMNCMUZ","A2JZTR2ZSALGH4","3ECKRY5B1QIH1N6NFX1ECCW5ZDKIZQ","","null","<img src=""img/flower4.png"" style=""width:200px; border:14px solid green;"">","null","","","","","","","","",""
"","image-keyboard-response","100","79137","0.0-100.0","3BXQMRHWK0KOXR0YLR50CWKVMNCMUZ","A2JZTR2ZSALGH4","3ECKRY5B1QIH1N6NFX1ECCW5ZDKIZQ","","325.5","img/flower1.png","75","330","2","1","2","2","1,0,0,1,1,0,1,0,1","0,1,0,0,1,1,1,1,0","3",""
"","html-keyboard-response","101","79442","0.0-101.0","3BXQMRHWK0KOXR0YLR50CWKVMNCMUZ","A2JZTR2ZSALGH4","3ECKRY5B1QIH1N6NFX1ECCW5ZDKIZQ","","null","<img src=""img/flower1.png"" style=""width:200px; border:14px solid green;"">","null","","","","","","","","",""
"","image-keyboard-response","102","79762","0.0-102.0","3BXQMRHWK0KOXR0YLR50CWKVMNCMUZ","A2JZTR2ZSALGH4","3ECKRY5B1QIH1N6NFX1ECCW5ZDKIZQ","","313.09999999962747","img/flower6.png","75","318.8999999985099","2","1","3","2","1,0,0,1,1,0,1,0,1","0,1,0,0,1,1,1,1,0","3",""
"","html-keyboard-response","103","80068","0.0-103.0","3BXQMRHWK0KOXR0YLR50CWKVMNCMUZ","A2JZTR2ZSALGH4","3ECKRY5B1QIH1N6NFX1ECCW5ZDKIZQ","","null","<img src=""img/flower6.png"" style=""width:200px; border:14px solid green;"">","null","","","","","","","","",""
"","image-keyboard-response","104","80297","0.0-104.0","3BXQMRHWK0KOXR0YLR50CWKVMNCMUZ","A2JZTR2ZSALGH4","3ECKRY5B1QIH1N6NFX1ECCW5ZDKIZQ","","221.09999999962747","img/flower6.png","75","227.5","2","1","3","2","1,0,0,1,1,0,1,0,1","0,1,0,0,1,1,1,1,0","3",""
"","html-keyboard-response","105","80602","0.0-105.0","3BXQMRHWK0KOXR0YLR50CWKVMNCMUZ","A2JZTR2ZSALGH4","3ECKRY5B1QIH1N6NFX1ECCW5ZDKIZQ","","null","<img src=""img/flower6.png"" style=""width:200px; border:14px solid green;"">","null","","","","","","","","",""
"","image-keyboard-response","106","80945","0.0-106.0","3BXQMRHWK0KOXR0YLR50CWKVMNCMUZ","A2JZTR2ZSALGH4","3ECKRY5B1QIH1N6NFX1ECCW5ZDKIZQ","","337.30000000074506","img/flower4.png","75","342.80000000074506","2","1","1","2","1,0,0,1,1,0,1,0,1","0,1,0,0,1,1,1,1,0","3",""
"","html-keyboard-response","107","81250","0.0-107.0","3BXQMRHWK0KOXR0YLR50CWKVMNCMUZ","A2JZTR2ZSALGH4","3ECKRY5B1QIH1N6NFX1ECCW5ZDKIZQ","","null","<img src=""img/flower4.png"" style=""width:200px; border:14px solid green;"">","null","","","","","","","","",""
"","image-keyboard-response","108","81552","0.0-108.0","3BXQMRHWK0KOXR0YLR50CWKVMNCMUZ","A2JZTR2ZSALGH4","3ECKRY5B1QIH1N6NFX1ECCW5ZDKIZQ","","297.5","img/flower4.png","75","301.59999999962747","2","1","1","2","1,0,0,1,1,0,1,0,1","0,1,0,0,1,1,1,1,0","3",""
"","html-keyboard-response","109","81862","0.0-109.0","3BXQMRHWK0KOXR0YLR50CWKVMNCMUZ","A2JZTR2ZSALGH4","3ECKRY5B1QIH1N6NFX1ECCW5ZDKIZQ","","null","<img src=""img/flower4.png"" style=""width:200px; border:14px solid green;"">","null","","","","","","","","",""
"","image-keyboard-response","110","82086","0.0-110.0","3BXQMRHWK0KOXR0YLR50CWKVMNCMUZ","A2JZTR2ZSALGH4","3ECKRY5B1QIH1N6NFX1ECCW5ZDKIZQ","","216.5","img/flower4.png","75","223.30000000074506","2","1","1","2","1,0,0,1,1,0,1,0,1","0,1,0,0,1,1,1,1,0","3",""
"","html-keyboard-response","111","82394","0.0-111.0","3BXQMRHWK0KOXR0YLR50CWKVMNCMUZ","A2JZTR2ZSALGH4","3ECKRY5B1QIH1N6NFX1ECCW5ZDKIZQ","","null","<img src=""img/flower4.png"" style=""width:200px; border:14px solid green;"">","null","","","","","","","","",""
"","image-keyboard-response","112","82681","0.0-112.0","3BXQMRHWK0KOXR0YLR50CWKVMNCMUZ","A2JZTR2ZSALGH4","3ECKRY5B1QIH1N6NFX1ECCW5ZDKIZQ","","280.19999999925494","img/flower4.png","75","285.59999999962747","2","1","1","2","1,0,0,1,1,0,1,0,1","0,1,0,0,1,1,1,1,0","3",""
"","html-keyboard-response","113","82987","0.0-113.0","3BXQMRHWK0KOXR0YLR50CWKVMNCMUZ","A2JZTR2ZSALGH4","3ECKRY5B1QIH1N6NFX1ECCW5ZDKIZQ","","null","<img src=""img/flower4.png"" style=""width:200px; border:14px solid green;"">","null","","","","","","","","",""
"","image-keyboard-response","114","83223","0.0-114.0","3BXQMRHWK0KOXR0YLR50CWKVMNCMUZ","A2JZTR2ZSALGH4","3ECKRY5B1QIH1N6NFX1ECCW5ZDKIZQ","","226.90000000037253","img/flower6.png","75","233.90000000037253","2","1","3","2","1,0,0,1,1,0,1,0,1","0,1,0,0,1,1,1,1,0","3",""
"","html-keyboard-response","115","83526","0.0-115.0","3BXQMRHWK0KOXR0YLR50CWKVMNCMUZ","A2JZTR2ZSALGH4","3ECKRY5B1QIH1N6NFX1ECCW5ZDKIZQ","","null","<img src=""img/flower6.png"" style=""width:200px; border:14px solid green;"">","null","","","","","","","","",""
"","image-keyboard-response","116","83811","0.0-116.0","3BXQMRHWK0KOXR0YLR50CWKVMNCMUZ","A2JZTR2ZSALGH4","3ECKRY5B1QIH1N6NFX1ECCW5ZDKIZQ","","276.5","img/flower1.png","75","281.90000000037253","2","1","2","2","1,0,0,1,1,0,1,0,1","0,1,0,0,1,1,1,1,0","3",""
"","html-keyboard-response","117","84117","0.0-117.0","3BXQMRHWK0KOXR0YLR50CWKVMNCMUZ","A2JZTR2ZSALGH4","3ECKRY5B1QIH1N6NFX1ECCW5ZDKIZQ","","null","<img src=""img/flower1.png"" style=""width:200px; border:14px solid green;"">","null","","","","","","","","",""
"","image-keyboard-response","118","84389","0.0-118.0","3BXQMRHWK0KOXR0YLR50CWKVMNCMUZ","A2JZTR2ZSALGH4","3ECKRY5B1QIH1N6NFX1ECCW5ZDKIZQ","","266.3999999985099","img/flower6.png","75","271.30000000074506","2","1","3","2","1,0,0,1,1,0,1,0,1","0,1,0,0,1,1,1,1,0","3",""
"","html-keyboard-response","119","84695","0.0-119.0","3BXQMRHWK0KOXR0YLR50CWKVMNCMUZ","A2JZTR2ZSALGH4","3ECKRY5B1QIH1N6NFX1ECCW5ZDKIZQ","","null","<img src=""img/flower6.png"" style=""width:200px; border:14px solid green;"">","null","","","","","","","","",""
"","image-keyboard-response","120","84941","0.0-120.0","3BXQMRHWK0KOXR0YLR50CWKVMNCMUZ","A2JZTR2ZSALGH4","3ECKRY5B1QIH1N6NFX1ECCW5ZDKIZQ","","240.59999999962747","img/flower4.png","75","244.90000000037253","2","1","1","2","1,0,0,1,1,0,1,0,1","0,1,0,0,1,1,1,1,0","3",""
"","html-keyboard-response","121","85247","0.0-121.0","3BXQMRHWK0KOXR0YLR50CWKVMNCMUZ","A2JZTR2ZSALGH4","3ECKRY5B1QIH1N6NFX1ECCW5ZDKIZQ","","null","<img src=""img/flower4.png"" style=""width:200px; border:14px solid green;"">","null","","","","","","","","",""
"","image-keyboard-response","122","85484","0.0-122.0","3BXQMRHWK0KOXR0YLR50CWKVMNCMUZ","A2JZTR2ZSALGH4","3ECKRY5B1QIH1N6NFX1ECCW5ZDKIZQ","","233.89999999850988","img/flower6.png","75","236.90000000037253","2","1","3","2","1,0,0,1,1,0,1,0,1","0,1,0,0,1,1,1,1,0","3",""
"","html-keyboard-response","123","85790","0.0-123.0","3BXQMRHWK0KOXR0YLR50CWKVMNCMUZ","A2JZTR2ZSALGH4","3ECKRY5B1QIH1N6NFX1ECCW5ZDKIZQ","","null","<img src=""img/flower6.png"" style=""width:200px; border:14px solid green;"">","null","","","","","","","","",""
"","image-keyboard-response","124","86113","0.0-124.0","3BXQMRHWK0KOXR0YLR50CWKVMNCMUZ","A2JZTR2ZSALGH4","3ECKRY5B1QIH1N6NFX1ECCW5ZDKIZQ","","313.09999999962747","img/flower4.png","75","319.09999999962747","2","1","1","2","1,0,0,1,1,0,1,0,1","0,1,0,0,1,1,1,1,0","3",""
"","html-keyboard-response","125","86418","0.0-125.0","3BXQMRHWK0KOXR0YLR50CWKVMNCMUZ","A2JZTR2ZSALGH4","3ECKRY5B1QIH1N6NFX1ECCW5ZDKIZQ","","null","<img src=""img/flower4.png"" style=""width:200px; border:14px solid green;"">","null","","","","","","","","",""
"","image-keyboard-response","126","86721","0.0-126.0","3BXQMRHWK0KOXR0YLR50CWKVMNCMUZ","A2JZTR2ZSALGH4","3ECKRY5B1QIH1N6NFX1ECCW5ZDKIZQ","","296","img/flower1.png","75","301.7000000011176","2","1","2","2","1,0,0,1,1,0,1,0,1","0,1,0,0,1,1,1,1,0","3",""
"","html-keyboard-response","127","87026","0.0-127.0","3BXQMRHWK0KOXR0YLR50CWKVMNCMUZ","A2JZTR2ZSALGH4","3ECKRY5B1QIH1N6NFX1ECCW5ZDKIZQ","","null","<img src=""img/flower1.png"" style=""width:200px; border:14px solid green;"">","null","","","","","","","","",""
"","image-keyboard-response","128","87226","0.0-128.0","3BXQMRHWK0KOXR0YLR50CWKVMNCMUZ","A2JZTR2ZSALGH4","3ECKRY5B1QIH1N6NFX1ECCW5ZDKIZQ","","194.90000000037253","img/flower1.png","75","198.69999999925494","2","1","2","2","1,0,0,1,1,0,1,0,1","0,1,0,0,1,1,1,1,0","3",""
"","html-keyboard-response","129","87536","0.0-129.0","3BXQMRHWK0KOXR0YLR50CWKVMNCMUZ","A2JZTR2ZSALGH4","3ECKRY5B1QIH1N6NFX1ECCW5ZDKIZQ","","null","<img src=""img/flower1.png"" style=""width:200px; border:14px solid green;"">","null","","","","","","","","",""
"","image-keyboard-response","130","87852","0.0-130.0","3BXQMRHWK0KOXR0YLR50CWKVMNCMUZ","A2JZTR2ZSALGH4","3ECKRY5B1QIH1N6NFX1ECCW5ZDKIZQ","","308.7000000011176","img/flower1.png","75","314.30000000074506","2","1","2","2","1,0,0,1,1,0,1,0,1","0,1,0,0,1,1,1,1,0","3",""
"","html-keyboard-response","131","88157","0.0-131.0","3BXQMRHWK0KOXR0YLR50CWKVMNCMUZ","A2JZTR2ZSALGH4","3ECKRY5B1QIH1N6NFX1ECCW5ZDKIZQ","","null","<img src=""img/flower1.png"" style=""width:200px; border:14px solid green;"">","null","","","","","","","","",""
"","image-keyboard-response","132","88343","0.0-132.0","3BXQMRHWK0KOXR0YLR50CWKVMNCMUZ","A2JZTR2ZSALGH4","3ECKRY5B1QIH1N6NFX1ECCW5ZDKIZQ","","178.69999999925494","img/flower4.png","75","185","2","1","1","2","1,0,0,1,1,0,1,0,1","0,1,0,0,1,1,1,1,0","3",""
"","html-keyboard-response","133","88648","0.0-133.0","3BXQMRHWK0KOXR0YLR50CWKVMNCMUZ","A2JZTR2ZSALGH4","3ECKRY5B1QIH1N6NFX1ECCW5ZDKIZQ","","null","<img src=""img/flower4.png"" style=""width:200px; border:14px solid green;"">","null","","","","","","","","",""
"","image-keyboard-response","134","88929","0.0-134.0","3BXQMRHWK0KOXR0YLR50CWKVMNCMUZ","A2JZTR2ZSALGH4","3ECKRY5B1QIH1N6NFX1ECCW5ZDKIZQ","","276.69999999925494","img/flower6.png","75","279.6000000014901","2","1","3","2","1,0,0,1,1,0,1,0,1","0,1,0,0,1,1,1,1,0","3",""
"","html-keyboard-response","135","89234","0.0-135.0","3BXQMRHWK0KOXR0YLR50CWKVMNCMUZ","A2JZTR2ZSALGH4","3ECKRY5B1QIH1N6NFX1ECCW5ZDKIZQ","","null","<img src=""img/flower6.png"" style=""width:200px; border:14px solid green;"">","null","","","","","","","","",""
"","image-keyboard-response","136","89545","0.0-136.0","3BXQMRHWK0KOXR0YLR50CWKVMNCMUZ","A2JZTR2ZSALGH4","3ECKRY5B1QIH1N6NFX1ECCW5ZDKIZQ","","305.90000000037253","img/flower1.png","75","310","2","1","2","2","1,0,0,1,1,0,1,0,1","0,1,0,0,1,1,1,1,0","3",""
"","html-keyboard-response","137","89849","0.0-137.0","3BXQMRHWK0KOXR0YLR50CWKVMNCMUZ","A2JZTR2ZSALGH4","3ECKRY5B1QIH1N6NFX1ECCW5ZDKIZQ","","null","<img src=""img/flower1.png"" style=""width:200px; border:14px solid green;"">","null","","","","","","","","",""
"","image-keyboard-response","138","90064","0.0-138.0","3BXQMRHWK0KOXR0YLR50CWKVMNCMUZ","A2JZTR2ZSALGH4","3ECKRY5B1QIH1N6NFX1ECCW5ZDKIZQ","","209.7000000011176","img/flower1.png","75","213.89999999850988","2","1","2","2","1,0,0,1,1,0,1,0,1","0,1,0,0,1,1,1,1,0","3",""
"","html-keyboard-response","139","90370","0.0-139.0","3BXQMRHWK0KOXR0YLR50CWKVMNCMUZ","A2JZTR2ZSALGH4","3ECKRY5B1QIH1N6NFX1ECCW5ZDKIZQ","","null","<img src=""img/flower1.png"" style=""width:200px; border:14px solid green;"">","null","","","","","","","","",""
"","image-keyboard-response","140","90636","0.0-140.0","3BXQMRHWK0KOXR0YLR50CWKVMNCMUZ","A2JZTR2ZSALGH4","3ECKRY5B1QIH1N6NFX1ECCW5ZDKIZQ","","258.19999999925494","img/flower1.png","75","263.3999999985099","2","1","2","2","1,0,0,1,1,0,1,0,1","0,1,0,0,1,1,1,1,0","3",""
"","html-keyboard-response","141","90940","0.0-141.0","3BXQMRHWK0KOXR0YLR50CWKVMNCMUZ","A2JZTR2ZSALGH4","3ECKRY5B1QIH1N6NFX1ECCW5ZDKIZQ","","null","<img src=""img/flower1.png"" style=""width:200px; border:14px solid green;"">","null","","","","","","","","",""
"","image-keyboard-response","142","91231","0.0-142.0","3BXQMRHWK0KOXR0YLR50CWKVMNCMUZ","A2JZTR2ZSALGH4","3ECKRY5B1QIH1N6NFX1ECCW5ZDKIZQ","","284.19999999925494","img/flower6.png","75","290.40000000037253","2","1","3","2","1,0,0,1,1,0,1,0,1","0,1,0,0,1,1,1,1,0","3",""
"","html-keyboard-response","143","91536","0.0-143.0","3BXQMRHWK0KOXR0YLR50CWKVMNCMUZ","A2JZTR2ZSALGH4","3ECKRY5B1QIH1N6NFX1ECCW5ZDKIZQ","","null","<img src=""img/flower6.png"" style=""width:200px; border:14px solid green;"">","null","","","","","","","","",""
"","image-keyboard-response","144","91769","0.0-144.0","3BXQMRHWK0KOXR0YLR50CWKVMNCMUZ","A2JZTR2ZSALGH4","3ECKRY5B1QIH1N6NFX1ECCW5ZDKIZQ","","225.7999999988824","img/flower6.png","75","231.7999999988824","2","1","3","2","1,0,0,1,1,0,1,0,1","0,1,0,0,1,1,1,1,0","3",""
"","html-keyboard-response","145","92077","0.0-145.0","3BXQMRHWK0KOXR0YLR50CWKVMNCMUZ","A2JZTR2ZSALGH4","3ECKRY5B1QIH1N6NFX1ECCW5ZDKIZQ","","null","<img src=""img/flower6.png"" style=""width:200px; border:14px solid green;"">","null","","","","","","","","",""
"","image-keyboard-response","146","92420","0.0-146.0","3BXQMRHWK0KOXR0YLR50CWKVMNCMUZ","A2JZTR2ZSALGH4","3ECKRY5B1QIH1N6NFX1ECCW5ZDKIZQ","","336.30000000074506","img/flower6.png","75","342","2","1","3","2","1,0,0,1,1,0,1,0,1","0,1,0,0,1,1,1,1,0","3",""
"","html-keyboard-response","147","92725","0.0-147.0","3BXQMRHWK0KOXR0YLR50CWKVMNCMUZ","A2JZTR2ZSALGH4","3ECKRY5B1QIH1N6NFX1ECCW5ZDKIZQ","","null","<img src=""img/flower6.png"" style=""width:200px; border:14px solid green;"">","null","","","","","","","","",""
"","image-keyboard-response","148","92961","0.0-148.0","3BXQMRHWK0KOXR0YLR50CWKVMNCMUZ","A2JZTR2ZSALGH4","3ECKRY5B1QIH1N6NFX1ECCW5ZDKIZQ","","229","img/flower6.png","75","233.90000000037253","2","1","3","2","1,0,0,1,1,0,1,0,1","0,1,0,0,1,1,1,1,0","3",""
"","html-keyboard-response","149","93266","0.0-149.0","3BXQMRHWK0KOXR0YLR50CWKVMNCMUZ","A2JZTR2ZSALGH4","3ECKRY5B1QIH1N6NFX1ECCW5ZDKIZQ","","null","<img src=""img/flower6.png"" style=""width:200px; border:14px solid green;"">","null","","","","","","","","",""
"","image-keyboard-response","150","93477","0.0-150.0","3BXQMRHWK0KOXR0YLR50CWKVMNCMUZ","A2JZTR2ZSALGH4","3ECKRY5B1QIH1N6NFX1ECCW5ZDKIZQ","","203.30000000074506","img/flower1.png","75","209.30000000074506","2","1","2","2","1,0,0,1,1,0,1,0,1","0,1,0,0,1,1,1,1,0","3",""
"","html-keyboard-response","151","93784","0.0-151.0","3BXQMRHWK0KOXR0YLR50CWKVMNCMUZ","A2JZTR2ZSALGH4","3ECKRY5B1QIH1N6NFX1ECCW5ZDKIZQ","","null","<img src=""img/flower1.png"" style=""width:200px; border:14px solid green;"">","null","","","","","","","","",""
"","image-keyboard-response","152","94113","0.0-152.0","3BXQMRHWK0KOXR0YLR50CWKVMNCMUZ","A2JZTR2ZSALGH4","3ECKRY5B1QIH1N6NFX1ECCW5ZDKIZQ","","321.6000000014901","img/flower4.png","75","328.59999999962747","2","1","1","2","1,0,0,1,1,0,1,0,1","0,1,0,0,1,1,1,1,0","3",""
"","html-keyboard-response","153","94417","0.0-153.0","3BXQMRHWK0KOXR0YLR50CWKVMNCMUZ","A2JZTR2ZSALGH4","3ECKRY5B1QIH1N6NFX1ECCW5ZDKIZQ","","null","<img src=""img/flower4.png"" style=""width:200px; border:14px solid green;"">","null","","","","","","","","",""
"","image-keyboard-response","154","94647","0.0-154.0","3BXQMRHWK0KOXR0YLR50CWKVMNCMUZ","A2JZTR2ZSALGH4","3ECKRY5B1QIH1N6NFX1ECCW5ZDKIZQ","","222.2000000011176","img/flower6.png","75","228.2999999988824","2","1","3","2","1,0,0,1,1,0,1,0,1","0,1,0,0,1,1,1,1,0","3",""
"","html-keyboard-response","155","94953","0.0-155.0","3BXQMRHWK0KOXR0YLR50CWKVMNCMUZ","A2JZTR2ZSALGH4","3ECKRY5B1QIH1N6NFX1ECCW5ZDKIZQ","","null","<img src=""img/flower6.png"" style=""width:200px; border:14px solid green;"">","null","","","","","","","","",""
"","image-keyboard-response","156","95296","0.0-156.0","3BXQMRHWK0KOXR0YLR50CWKVMNCMUZ","A2JZTR2ZSALGH4","3ECKRY5B1QIH1N6NFX1ECCW5ZDKIZQ","","337","img/flower4.png","75","342.09999999962747","2","1","1","2","1,0,0,1,1,0,1,0,1","0,1,0,0,1,1,1,1,0","3",""
"","html-keyboard-response","157","95602","0.0-157.0","3BXQMRHWK0KOXR0YLR50CWKVMNCMUZ","A2JZTR2ZSALGH4","3ECKRY5B1QIH1N6NFX1ECCW5ZDKIZQ","","null","<img src=""img/flower4.png"" style=""width:200px; border:14px solid green;"">","null","","","","","","","","",""
"","image-keyboard-response","158","95832","0.0-158.0","3BXQMRHWK0KOXR0YLR50CWKVMNCMUZ","A2JZTR2ZSALGH4","3ECKRY5B1QIH1N6NFX1ECCW5ZDKIZQ","","223.10000000149012","img/flower4.png","75","228.40000000037253","2","1","1","2","1,0,0,1,1,0,1,0,1","0,1,0,0,1,1,1,1,0","3",""
"","html-keyboard-response","159","96139","0.0-159.0","3BXQMRHWK0KOXR0YLR50CWKVMNCMUZ","A2JZTR2ZSALGH4","3ECKRY5B1QIH1N6NFX1ECCW5ZDKIZQ","","null","<img src=""img/flower4.png"" style=""width:200px; border:14px solid green;"">","null","","","","","","","","",""
"","image-keyboard-response","160","96470","0.0-160.0","3BXQMRHWK0KOXR0YLR50CWKVMNCMUZ","A2JZTR2ZSALGH4","3ECKRY5B1QIH1N6NFX1ECCW5ZDKIZQ","","326.7000000011176","img/flower4.png","75","330.59999999962747","2","1","1","2","1,0,0,1,1,0,1,0,1","0,1,0,0,1,1,1,1,0","3",""
"","html-keyboard-response","161","96775","0.0-161.0","3BXQMRHWK0KOXR0YLR50CWKVMNCMUZ","A2JZTR2ZSALGH4","3ECKRY5B1QIH1N6NFX1ECCW5ZDKIZQ","","null","<img src=""img/flower4.png"" style=""width:200px; border:14px solid green;"">","null","","","","","","","","",""
"","image-keyboard-response","162","97101","0.0-162.0","3BXQMRHWK0KOXR0YLR50CWKVMNCMUZ","A2JZTR2ZSALGH4","3ECKRY5B1QIH1N6NFX1ECCW5ZDKIZQ","","321.2000000011176","img/flower4.png","75","325.5","2","1","1","2","1,0,0,1,1,0,1,0,1","0,1,0,0,1,1,1,1,0","3",""
"","html-keyboard-response","163","97406","0.0-163.0","3BXQMRHWK0KOXR0YLR50CWKVMNCMUZ","A2JZTR2ZSALGH4","3ECKRY5B1QIH1N6NFX1ECCW5ZDKIZQ","","null","<img src=""img/flower4.png"" style=""width:200px; border:14px solid green;"">","null","","","","","","","","",""
"","image-keyboard-response","164","97835","0.0-164.0","3BXQMRHWK0KOXR0YLR50CWKVMNCMUZ","A2JZTR2ZSALGH4","3ECKRY5B1QIH1N6NFX1ECCW5ZDKIZQ","","424","img/flower1.png","75","428.19999999925494","2","1","2","2","1,0,0,1,1,0,1,0,1","0,1,0,0,1,1,1,1,0","3",""
"","html-keyboard-response","165","98139","0.0-165.0","3BXQMRHWK0KOXR0YLR50CWKVMNCMUZ","A2JZTR2ZSALGH4","3ECKRY5B1QIH1N6NFX1ECCW5ZDKIZQ","","null","<img src=""img/flower1.png"" style=""width:200px; border:14px solid green;"">","null","","","","","","","","",""
"","image-keyboard-response","166","98405","0.0-166.0","3BXQMRHWK0KOXR0YLR50CWKVMNCMUZ","A2JZTR2ZSALGH4","3ECKRY5B1QIH1N6NFX1ECCW5ZDKIZQ","","259.30000000074506","img/flower1.png","75","265.09999999962747","2","1","2","2","1,0,0,1,1,0,1,0,1","0,1,0,0,1,1,1,1,0","3",""
"","html-keyboard-response","167","98712","0.0-167.0","3BXQMRHWK0KOXR0YLR50CWKVMNCMUZ","A2JZTR2ZSALGH4","3ECKRY5B1QIH1N6NFX1ECCW5ZDKIZQ","","null","<img src=""img/flower1.png"" style=""width:200px; border:14px solid green;"">","null","","","","","","","","",""
"","image-keyboard-response","168","98986","0.0-168.0","3BXQMRHWK0KOXR0YLR50CWKVMNCMUZ","A2JZTR2ZSALGH4","3ECKRY5B1QIH1N6NFX1ECCW5ZDKIZQ","","266.5","img/flower4.png","75","272.09999999962747","2","1","1","2","1,0,0,1,1,0,1,0,1","0,1,0,0,1,1,1,1,0","3",""
"","html-keyboard-response","169","99291","0.0-169.0","3BXQMRHWK0KOXR0YLR50CWKVMNCMUZ","A2JZTR2ZSALGH4","3ECKRY5B1QIH1N6NFX1ECCW5ZDKIZQ","","null","<img src=""img/flower4.png"" style=""width:200px; border:14px solid green;"">","null","","","","","","","","",""
"","image-keyboard-response","170","99654","0.0-170.0","3BXQMRHWK0KOXR0YLR50CWKVMNCMUZ","A2JZTR2ZSALGH4","3ECKRY5B1QIH1N6NFX1ECCW5ZDKIZQ","","356.5","img/flower6.png","75","367.30000000074506","2","1","3","2","1,0,0,1,1,0,1,0,1","0,1,0,0,1,1,1,1,0","3",""
"","html-keyboard-response","171","99965","0.0-171.0","3BXQMRHWK0KOXR0YLR50CWKVMNCMUZ","A2JZTR2ZSALGH4","3ECKRY5B1QIH1N6NFX1ECCW5ZDKIZQ","","null","<img src=""img/flower6.png"" style=""width:200px; border:14px solid green;"">","null","","","","","","","","",""
"","image-keyboard-response","172","100178","0.0-172.0","3BXQMRHWK0KOXR0YLR50CWKVMNCMUZ","A2JZTR2ZSALGH4","3ECKRY5B1QIH1N6NFX1ECCW5ZDKIZQ","","207.09999999962747","img/flower6.png","75","211.5","2","1","3","2","1,0,0,1,1,0,1,0,1","0,1,0,0,1,1,1,1,0","3",""
"","html-keyboard-response","173","100485","0.0-173.0","3BXQMRHWK0KOXR0YLR50CWKVMNCMUZ","A2JZTR2ZSALGH4","3ECKRY5B1QIH1N6NFX1ECCW5ZDKIZQ","","null","<img src=""img/flower6.png"" style=""width:200px; border:14px solid green;"">","null","","","","","","","","",""
"","image-keyboard-response","174","100783","0.0-174.0","3BXQMRHWK0KOXR0YLR50CWKVMNCMUZ","A2JZTR2ZSALGH4","3ECKRY5B1QIH1N6NFX1ECCW5ZDKIZQ","","291.30000000074506","img/flower6.png","75","297","2","1","3","2","1,0,0,1,1,0,1,0,1","0,1,0,0,1,1,1,1,0","3",""
"","html-keyboard-response","175","101093","0.0-175.0","3BXQMRHWK0KOXR0YLR50CWKVMNCMUZ","A2JZTR2ZSALGH4","3ECKRY5B1QIH1N6NFX1ECCW5ZDKIZQ","","null","<img src=""img/flower6.png"" style=""width:200px; border:14px solid green;"">","null","","","","","","","","",""
"","image-keyboard-response","176","101363","0.0-176.0","3BXQMRHWK0KOXR0YLR50CWKVMNCMUZ","A2JZTR2ZSALGH4","3ECKRY5B1QIH1N6NFX1ECCW5ZDKIZQ","","263.2000000011176","img/flower6.png","75","268.30000000074506","2","1","3","2","1,0,0,1,1,0,1,0,1","0,1,0,0,1,1,1,1,0","3",""
"","html-keyboard-response","177","101668","0.0-177.0","3BXQMRHWK0KOXR0YLR50CWKVMNCMUZ","A2JZTR2ZSALGH4","3ECKRY5B1QIH1N6NFX1ECCW5ZDKIZQ","","null","<img src=""img/flower6.png"" style=""width:200px; border:14px solid green;"">","null","","","","","","","","",""
"","image-keyboard-response","178","102064","0.0-178.0","3BXQMRHWK0KOXR0YLR50CWKVMNCMUZ","A2JZTR2ZSALGH4","3ECKRY5B1QIH1N6NFX1ECCW5ZDKIZQ","","387.59999999962747","img/flower6.png","75","394.5","2","1","3","2","1,0,0,1,1,0,1,0,1","0,1,0,0,1,1,1,1,0","3",""
"","html-keyboard-response","179","102371","0.0-179.0","3BXQMRHWK0KOXR0YLR50CWKVMNCMUZ","A2JZTR2ZSALGH4","3ECKRY5B1QIH1N6NFX1ECCW5ZDKIZQ","","null","<img src=""img/flower6.png"" style=""width:200px; border:14px solid green;"">","null","","","","","","","","",""
"","image-keyboard-response","180","102558","0.0-180.0","3BXQMRHWK0KOXR0YLR50CWKVMNCMUZ","A2JZTR2ZSALGH4","3ECKRY5B1QIH1N6NFX1ECCW5ZDKIZQ","","180.2000000011176","img/flower6.png","75","185.7999999988824","2","1","3","2","1,0,0,1,1,0,1,0,1","0,1,0,0,1,1,1,1,0","3",""
"","html-keyboard-response","181","102863","0.0-181.0","3BXQMRHWK0KOXR0YLR50CWKVMNCMUZ","A2JZTR2ZSALGH4","3ECKRY5B1QIH1N6NFX1ECCW5ZDKIZQ","","null","<img src=""img/flower6.png"" style=""width:200px; border:14px solid green;"">","null","","","","","","","","",""
"","image-keyboard-response","182","103131","0.0-182.0","3BXQMRHWK0KOXR0YLR50CWKVMNCMUZ","A2JZTR2ZSALGH4","3ECKRY5B1QIH1N6NFX1ECCW5ZDKIZQ","","261.7999999988824","img/flower5.png","75","266.30000000074506","2","1","2","1","1,0.333,0.333,0.333,1,0.333,0.333,0.333,1","1,0.333,0.333,0.333,1,0.333,0.333,0.333,1","1",""
"","html-keyboard-response","183","103436","0.0-183.0","3BXQMRHWK0KOXR0YLR50CWKVMNCMUZ","A2JZTR2ZSALGH4","3ECKRY5B1QIH1N6NFX1ECCW5ZDKIZQ","","null","<img src=""img/flower5.png"" style=""width:200px; border:14px solid green;"">","null","","","","","","","","",""
"","image-keyboard-response","184","103711","0.0-184.0","3BXQMRHWK0KOXR0YLR50CWKVMNCMUZ","A2JZTR2ZSALGH4","3ECKRY5B1QIH1N6NFX1ECCW5ZDKIZQ","","269.09999999962747","img/flower5.png","75","273.6000000014901","2","1","2","1","1,0.333,0.333,0.333,1,0.333,0.333,0.333,1","1,0.333,0.333,0.333,1,0.333,0.333,0.333,1","1",""
"","html-keyboard-response","185","104016","0.0-185.0","3BXQMRHWK0KOXR0YLR50CWKVMNCMUZ","A2JZTR2ZSALGH4","3ECKRY5B1QIH1N6NFX1ECCW5ZDKIZQ","","null","<img src=""img/flower5.png"" style=""width:200px; border:14px solid green;"">","null","","","","","","","","",""
"","image-keyboard-response","186","104247","0.0-186.0","3BXQMRHWK0KOXR0YLR50CWKVMNCMUZ","A2JZTR2ZSALGH4","3ECKRY5B1QIH1N6NFX1ECCW5ZDKIZQ","","222.09999999962747","img/flower5.png","75","229.30000000074506","2","1","2","1","1,0.333,0.333,0.333,1,0.333,0.333,0.333,1","1,0.333,0.333,0.333,1,0.333,0.333,0.333,1","1",""
"","html-keyboard-response","187","104552","0.0-187.0","3BXQMRHWK0KOXR0YLR50CWKVMNCMUZ","A2JZTR2ZSALGH4","3ECKRY5B1QIH1N6NFX1ECCW5ZDKIZQ","","null","<img src=""img/flower5.png"" style=""width:200px; border:14px solid green;"">","null","","","","","","","","",""
"","image-keyboard-response","188","104982","0.0-188.0","3BXQMRHWK0KOXR0YLR50CWKVMNCMUZ","A2JZTR2ZSALGH4","3ECKRY5B1QIH1N6NFX1ECCW5ZDKIZQ","","423.09999999962747","img/flower2.png","75","428.90000000037253","2","1","1","1","1,0.333,0.333,0.333,1,0.333,0.333,0.333,1","1,0.333,0.333,0.333,1,0.333,0.333,0.333,1","1",""
"","html-keyboard-response","189","105287","0.0-189.0","3BXQMRHWK0KOXR0YLR50CWKVMNCMUZ","A2JZTR2ZSALGH4","3ECKRY5B1QIH1N6NFX1ECCW5ZDKIZQ","","null","<img src=""img/flower2.png"" style=""width:200px; border:14px solid green;"">","null","","","","","","","","",""
"","image-keyboard-response","190","105539","0.0-190.0","3BXQMRHWK0KOXR0YLR50CWKVMNCMUZ","A2JZTR2ZSALGH4","3ECKRY5B1QIH1N6NFX1ECCW5ZDKIZQ","","244.40000000037253","img/flower2.png","75","250.19999999925494","2","0","1","1","1,0.333,0.333,0.333,1,0.333,0.333,0.333,1","1,0.333,0.333,0.333,1,0.333,0.333,0.333,1","1",""
"","html-keyboard-response","191","105844","0.0-191.0","3BXQMRHWK0KOXR0YLR50CWKVMNCMUZ","A2JZTR2ZSALGH4","3ECKRY5B1QIH1N6NFX1ECCW5ZDKIZQ","","null","<img src=""img/flower2.png"" style=""width:200px;border:14px solid red;"">","null","","","","","","","","",""
"","image-keyboard-response","192","106082","0.0-192.0","3BXQMRHWK0KOXR0YLR50CWKVMNCMUZ","A2JZTR2ZSALGH4","3ECKRY5B1QIH1N6NFX1ECCW5ZDKIZQ","","234","img/flower3.png","75","237.5","2","0","3","1","1,0.333,0.333,0.333,1,0.333,0.333,0.333,1","1,0.333,0.333,0.333,1,0.333,0.333,0.333,1","1",""
"","html-keyboard-response","193","106388","0.0-193.0","3BXQMRHWK0KOXR0YLR50CWKVMNCMUZ","A2JZTR2ZSALGH4","3ECKRY5B1QIH1N6NFX1ECCW5ZDKIZQ","","null","<img src=""img/flower3.png"" style=""width:200px;border:14px solid red;"">","null","","","","","","","","",""
"","image-keyboard-response","194","106737","0.0-194.0","3BXQMRHWK0KOXR0YLR50CWKVMNCMUZ","A2JZTR2ZSALGH4","3ECKRY5B1QIH1N6NFX1ECCW5ZDKIZQ","","343.90000000037253","img/flower5.png","75","347.2000000011176","2","1","2","1","1,0.333,0.333,0.333,1,0.333,0.333,0.333,1","1,0.333,0.333,0.333,1,0.333,0.333,0.333,1","1",""
"","html-keyboard-response","195","107045","0.0-195.0","3BXQMRHWK0KOXR0YLR50CWKVMNCMUZ","A2JZTR2ZSALGH4","3ECKRY5B1QIH1N6NFX1ECCW5ZDKIZQ","","null","<img src=""img/flower5.png"" style=""width:200px; border:14px solid green;"">","null","","","","","","","","",""
"","image-keyboard-response","196","107277","0.0-196.0","3BXQMRHWK0KOXR0YLR50CWKVMNCMUZ","A2JZTR2ZSALGH4","3ECKRY5B1QIH1N6NFX1ECCW5ZDKIZQ","","227.40000000037253","img/flower2.png","75","231.2000000011176","2","0","1","1","1,0.333,0.333,0.333,1,0.333,0.333,0.333,1","1,0.333,0.333,0.333,1,0.333,0.333,0.333,1","1",""
"","html-keyboard-response","197","107581","0.0-197.0","3BXQMRHWK0KOXR0YLR50CWKVMNCMUZ","A2JZTR2ZSALGH4","3ECKRY5B1QIH1N6NFX1ECCW5ZDKIZQ","","null","<img src=""img/flower2.png"" style=""width:200px;border:14px solid red;"">","null","","","","","","","","",""
"","image-keyboard-response","198","107881","0.0-198.0","3BXQMRHWK0KOXR0YLR50CWKVMNCMUZ","A2JZTR2ZSALGH4","3ECKRY5B1QIH1N6NFX1ECCW5ZDKIZQ","","295.30000000074506","img/flower5.png","75","299.3999999985099","2","1","2","1","1,0.333,0.333,0.333,1,0.333,0.333,0.333,1","1,0.333,0.333,0.333,1,0.333,0.333,0.333,1","1",""
"","html-keyboard-response","199","108187","0.0-199.0","3BXQMRHWK0KOXR0YLR50CWKVMNCMUZ","A2JZTR2ZSALGH4","3ECKRY5B1QIH1N6NFX1ECCW5ZDKIZQ","","null","<img src=""img/flower5.png"" style=""width:200px; border:14px solid green;"">","null","","","","","","","","",""
"","image-keyboard-response","200","108535","0.0-200.0","3BXQMRHWK0KOXR0YLR50CWKVMNCMUZ","A2JZTR2ZSALGH4","3ECKRY5B1QIH1N6NFX1ECCW5ZDKIZQ","","338.90000000037253","img/flower5.png","75","345.90000000037253","2","1","2","1","1,0.333,0.333,0.333,1,0.333,0.333,0.333,1","1,0.333,0.333,0.333,1,0.333,0.333,0.333,1","1",""
"","html-keyboard-response","201","108840","0.0-201.0","3BXQMRHWK0KOXR0YLR50CWKVMNCMUZ","A2JZTR2ZSALGH4","3ECKRY5B1QIH1N6NFX1ECCW5ZDKIZQ","","null","<img src=""img/flower5.png"" style=""width:200px; border:14px solid green;"">","null","","","","","","","","",""
"","image-keyboard-response","202","109416","0.0-202.0","3BXQMRHWK0KOXR0YLR50CWKVMNCMUZ","A2JZTR2ZSALGH4","3ECKRY5B1QIH1N6NFX1ECCW5ZDKIZQ","","570.5","img/flower2.png","75","574.5999999996275","2","0","1","1","1,0.333,0.333,0.333,1,0.333,0.333,0.333,1","1,0.333,0.333,0.333,1,0.333,0.333,0.333,1","1",""
"","html-keyboard-response","203","109723","0.0-203.0","3BXQMRHWK0KOXR0YLR50CWKVMNCMUZ","A2JZTR2ZSALGH4","3ECKRY5B1QIH1N6NFX1ECCW5ZDKIZQ","","null","<img src=""img/flower2.png"" style=""width:200px;border:14px solid red;"">","null","","","","","","","","",""
"","image-keyboard-response","204","110925","0.0-204.0","3BXQMRHWK0KOXR0YLR50CWKVMNCMUZ","A2JZTR2ZSALGH4","3ECKRY5B1QIH1N6NFX1ECCW5ZDKIZQ","","1196","img/flower3.png","76","1200.800000000745","3","1","3","1","1,0.333,0.333,0.333,1,0.333,0.333,0.333,1","1,0.333,0.333,0.333,1,0.333,0.333,0.333,1","1",""
"","html-keyboard-response","205","111230","0.0-205.0","3BXQMRHWK0KOXR0YLR50CWKVMNCMUZ","A2JZTR2ZSALGH4","3ECKRY5B1QIH1N6NFX1ECCW5ZDKIZQ","","null","<img src=""img/flower3.png"" style=""width:200px; border:14px solid green;"">","null","","","","","","","","",""
"","image-keyboard-response","206","112443","0.0-206.0","3BXQMRHWK0KOXR0YLR50CWKVMNCMUZ","A2JZTR2ZSALGH4","3ECKRY5B1QIH1N6NFX1ECCW5ZDKIZQ","","1207.2000000011176","img/flower3.png","75","1211.5999999996275","2","0","3","1","1,0.333,0.333,0.333,1,0.333,0.333,0.333,1","1,0.333,0.333,0.333,1,0.333,0.333,0.333,1","1",""
"","html-keyboard-response","207","112748","0.0-207.0","3BXQMRHWK0KOXR0YLR50CWKVMNCMUZ","A2JZTR2ZSALGH4","3ECKRY5B1QIH1N6NFX1ECCW5ZDKIZQ","","null","<img src=""img/flower3.png"" style=""width:200px;border:14px solid red;"">","null","","","","","","","","",""
"","image-keyboard-response","208","113769","0.0-208.0","3BXQMRHWK0KOXR0YLR50CWKVMNCMUZ","A2JZTR2ZSALGH4","3ECKRY5B1QIH1N6NFX1ECCW5ZDKIZQ","","1014.5999999996275","img/flower2.png","74","1019.4000000003725","1","1","1","1","1,0.333,0.333,0.333,1,0.333,0.333,0.333,1","1,0.333,0.333,0.333,1,0.333,0.333,0.333,1","1",""
"","html-keyboard-response","209","114075","0.0-209.0","3BXQMRHWK0KOXR0YLR50CWKVMNCMUZ","A2JZTR2ZSALGH4","3ECKRY5B1QIH1N6NFX1ECCW5ZDKIZQ","","null","<img src=""img/flower2.png"" style=""width:200px; border:14px solid green;"">","null","","","","","","","","",""
"","image-keyboard-response","210","115469","0.0-210.0","3BXQMRHWK0KOXR0YLR50CWKVMNCMUZ","A2JZTR2ZSALGH4","3ECKRY5B1QIH1N6NFX1ECCW5ZDKIZQ","","1387.5999999996275","img/flower5.png","74","1392.4000000003725","1","0","2","1","1,0.333,0.333,0.333,1,0.333,0.333,0.333,1","1,0.333,0.333,0.333,1,0.333,0.333,0.333,1","1",""
"","html-keyboard-response","211","115774","0.0-211.0","3BXQMRHWK0KOXR0YLR50CWKVMNCMUZ","A2JZTR2ZSALGH4","3ECKRY5B1QIH1N6NFX1ECCW5ZDKIZQ","","null","<img src=""img/flower5.png"" style=""width:200px;border:14px solid red;"">","null","","","","","","","","",""
"","image-keyboard-response","212","116643","0.0-212.0","3BXQMRHWK0KOXR0YLR50CWKVMNCMUZ","A2JZTR2ZSALGH4","3ECKRY5B1QIH1N6NFX1ECCW5ZDKIZQ","","861.4000000003725","img/flower3.png","76","863.8000000007451","3","1","3","1","1,0.333,0.333,0.333,1,0.333,0.333,0.333,1","1,0.333,0.333,0.333,1,0.333,0.333,0.333,1","1",""
"","html-keyboard-response","213","116948","0.0-213.0","3BXQMRHWK0KOXR0YLR50CWKVMNCMUZ","A2JZTR2ZSALGH4","3ECKRY5B1QIH1N6NFX1ECCW5ZDKIZQ","","null","<img src=""img/flower3.png"" style=""width:200px; border:14px solid green;"">","null","","","","","","","","",""
"","image-keyboard-response","214","117793","0.0-214.0","3BXQMRHWK0KOXR0YLR50CWKVMNCMUZ","A2JZTR2ZSALGH4","3ECKRY5B1QIH1N6NFX1ECCW5ZDKIZQ","","840.9000000003725","img/flower5.png","75","844.2000000011176","2","1","2","1","1,0.333,0.333,0.333,1,0.333,0.333,0.333,1","1,0.333,0.333,0.333,1,0.333,0.333,0.333,1","1",""
"","html-keyboard-response","215","118097","0.0-215.0","3BXQMRHWK0KOXR0YLR50CWKVMNCMUZ","A2JZTR2ZSALGH4","3ECKRY5B1QIH1N6NFX1ECCW5ZDKIZQ","","null","<img src=""img/flower5.png"" style=""width:200px; border:14px solid green;"">","null","","","","","","","","",""
"","image-keyboard-response","216","119424","0.0-216.0","3BXQMRHWK0KOXR0YLR50CWKVMNCMUZ","A2JZTR2ZSALGH4","3ECKRY5B1QIH1N6NFX1ECCW5ZDKIZQ","","1320.3999999985099","img/flower5.png","74","1325.5999999996275","1","0","2","1","1,0.333,0.333,0.333,1,0.333,0.333,0.333,1","1,0.333,0.333,0.333,1,0.333,0.333,0.333,1","1",""
"","html-keyboard-response","217","119730","0.0-217.0","3BXQMRHWK0KOXR0YLR50CWKVMNCMUZ","A2JZTR2ZSALGH4","3ECKRY5B1QIH1N6NFX1ECCW5ZDKIZQ","","null","<img src=""img/flower5.png"" style=""width:200px;border:14px solid red;"">","null","","","","","","","","",""
"","image-keyboard-response","218","120498","0.0-218.0","3BXQMRHWK0KOXR0YLR50CWKVMNCMUZ","A2JZTR2ZSALGH4","3ECKRY5B1QIH1N6NFX1ECCW5ZDKIZQ","","761.7000000011176","img/flower5.png","75","767.5","2","1","2","1","1,0.333,0.333,0.333,1,0.333,0.333,0.333,1","1,0.333,0.333,0.333,1,0.333,0.333,0.333,1","1",""
"","html-keyboard-response","219","120803","0.0-219.0","3BXQMRHWK0KOXR0YLR50CWKVMNCMUZ","A2JZTR2ZSALGH4","3ECKRY5B1QIH1N6NFX1ECCW5ZDKIZQ","","null","<img src=""img/flower5.png"" style=""width:200px; border:14px solid green;"">","null","","","","","","","","",""
"","image-keyboard-response","220","121165","0.0-220.0","3BXQMRHWK0KOXR0YLR50CWKVMNCMUZ","A2JZTR2ZSALGH4","3ECKRY5B1QIH1N6NFX1ECCW5ZDKIZQ","","356.1000000014901","img/flower5.png","75","360.19999999925494","2","1","2","1","1,0.333,0.333,0.333,1,0.333,0.333,0.333,1","1,0.333,0.333,0.333,1,0.333,0.333,0.333,1","1",""
"","html-keyboard-response","221","121470","0.0-221.0","3BXQMRHWK0KOXR0YLR50CWKVMNCMUZ","A2JZTR2ZSALGH4","3ECKRY5B1QIH1N6NFX1ECCW5ZDKIZQ","","null","<img src=""img/flower5.png"" style=""width:200px; border:14px solid green;"">","null","","","","","","","","",""
"","image-keyboard-response","222","122199","0.0-222.0","3BXQMRHWK0KOXR0YLR50CWKVMNCMUZ","A2JZTR2ZSALGH4","3ECKRY5B1QIH1N6NFX1ECCW5ZDKIZQ","","722.5999999996275","img/flower3.png","76","727.6999999992549","3","1","3","1","1,0.333,0.333,0.333,1,0.333,0.333,0.333,1","1,0.333,0.333,0.333,1,0.333,0.333,0.333,1","1",""
"","html-keyboard-response","223","122506","0.0-223.0","3BXQMRHWK0KOXR0YLR50CWKVMNCMUZ","A2JZTR2ZSALGH4","3ECKRY5B1QIH1N6NFX1ECCW5ZDKIZQ","","null","<img src=""img/flower3.png"" style=""width:200px; border:14px solid green;"">","null","","","","","","","","",""
"","image-keyboard-response","224","123304","0.0-224.0","3BXQMRHWK0KOXR0YLR50CWKVMNCMUZ","A2JZTR2ZSALGH4","3ECKRY5B1QIH1N6NFX1ECCW5ZDKIZQ","","791.8000000007451","img/flower5.png","75","797.1999999992549","2","1","2","1","1,0.333,0.333,0.333,1,0.333,0.333,0.333,1","1,0.333,0.333,0.333,1,0.333,0.333,0.333,1","1",""
"","html-keyboard-response","225","123610","0.0-225.0","3BXQMRHWK0KOXR0YLR50CWKVMNCMUZ","A2JZTR2ZSALGH4","3ECKRY5B1QIH1N6NFX1ECCW5ZDKIZQ","","null","<img src=""img/flower5.png"" style=""width:200px; border:14px solid green;"">","null","","","","","","","","",""
"","image-keyboard-response","226","124152","0.0-226.0","3BXQMRHWK0KOXR0YLR50CWKVMNCMUZ","A2JZTR2ZSALGH4","3ECKRY5B1QIH1N6NFX1ECCW5ZDKIZQ","","536.2999999988824","img/flower2.png","74","541","1","1","1","1","1,0.333,0.333,0.333,1,0.333,0.333,0.333,1","1,0.333,0.333,0.333,1,0.333,0.333,0.333,1","1",""
"","html-keyboard-response","227","124457","0.0-227.0","3BXQMRHWK0KOXR0YLR50CWKVMNCMUZ","A2JZTR2ZSALGH4","3ECKRY5B1QIH1N6NFX1ECCW5ZDKIZQ","","null","<img src=""img/flower2.png"" style=""width:200px; border:14px solid green;"">","null","","","","","","","","",""
"","image-keyboard-response","228","124874","0.0-228.0","3BXQMRHWK0KOXR0YLR50CWKVMNCMUZ","A2JZTR2ZSALGH4","3ECKRY5B1QIH1N6NFX1ECCW5ZDKIZQ","","410.2999999988824","img/flower2.png","74","415.40000000037253","1","1","1","1","1,0.333,0.333,0.333,1,0.333,0.333,0.333,1","1,0.333,0.333,0.333,1,0.333,0.333,0.333,1","1",""
"","html-keyboard-response","229","125179","0.0-229.0","3BXQMRHWK0KOXR0YLR50CWKVMNCMUZ","A2JZTR2ZSALGH4","3ECKRY5B1QIH1N6NFX1ECCW5ZDKIZQ","","null","<img src=""img/flower2.png"" style=""width:200px; border:14px solid green;"">","null","","","","","","","","",""
"","image-keyboard-response","230","126251","0.0-230.0","3BXQMRHWK0KOXR0YLR50CWKVMNCMUZ","A2JZTR2ZSALGH4","3ECKRY5B1QIH1N6NFX1ECCW5ZDKIZQ","","1065.5","img/flower3.png","76","1071.0999999996275","3","1","3","1","1,0.333,0.333,0.333,1,0.333,0.333,0.333,1","1,0.333,0.333,0.333,1,0.333,0.333,0.333,1","1",""
"","html-keyboard-response","231","126556","0.0-231.0","3BXQMRHWK0KOXR0YLR50CWKVMNCMUZ","A2JZTR2ZSALGH4","3ECKRY5B1QIH1N6NFX1ECCW5ZDKIZQ","","null","<img src=""img/flower3.png"" style=""width:200px; border:14px solid green;"">","null","","","","","","","","",""
"","image-keyboard-response","232","126955","0.0-232.0","3BXQMRHWK0KOXR0YLR50CWKVMNCMUZ","A2JZTR2ZSALGH4","3ECKRY5B1QIH1N6NFX1ECCW5ZDKIZQ","","393.3999999985099","img/flower3.png","76","398.80000000074506","3","1","3","1","1,0.333,0.333,0.333,1,0.333,0.333,0.333,1","1,0.333,0.333,0.333,1,0.333,0.333,0.333,1","1",""
"","html-keyboard-response","233","127259","0.0-233.0","3BXQMRHWK0KOXR0YLR50CWKVMNCMUZ","A2JZTR2ZSALGH4","3ECKRY5B1QIH1N6NFX1ECCW5ZDKIZQ","","null","<img src=""img/flower3.png"" style=""width:200px; border:14px solid green;"">","null","","","","","","","","",""
"","image-keyboard-response","234","128220","0.0-234.0","3BXQMRHWK0KOXR0YLR50CWKVMNCMUZ","A2JZTR2ZSALGH4","3ECKRY5B1QIH1N6NFX1ECCW5ZDKIZQ","","954.7999999988824","img/flower5.png","75","960","2","1","2","1","1,0.333,0.333,0.333,1,0.333,0.333,0.333,1","1,0.333,0.333,0.333,1,0.333,0.333,0.333,1","1",""
"","html-keyboard-response","235","128526","0.0-235.0","3BXQMRHWK0KOXR0YLR50CWKVMNCMUZ","A2JZTR2ZSALGH4","3ECKRY5B1QIH1N6NFX1ECCW5ZDKIZQ","","null","<img src=""img/flower5.png"" style=""width:200px; border:14px solid green;"">","null","","","","","","","","",""
"","image-keyboard-response","236","129203","0.0-236.0","3BXQMRHWK0KOXR0YLR50CWKVMNCMUZ","A2JZTR2ZSALGH4","3ECKRY5B1QIH1N6NFX1ECCW5ZDKIZQ","","669.6999999992549","img/flower2.png","74","675.9000000003725","1","1","1","1","1,0.333,0.333,0.333,1,0.333,0.333,0.333,1","1,0.333,0.333,0.333,1,0.333,0.333,0.333,1","1",""
"","html-keyboard-response","237","129508","0.0-237.0","3BXQMRHWK0KOXR0YLR50CWKVMNCMUZ","A2JZTR2ZSALGH4","3ECKRY5B1QIH1N6NFX1ECCW5ZDKIZQ","","null","<img src=""img/flower2.png"" style=""width:200px; border:14px solid green;"">","null","","","","","","","","",""
"","image-keyboard-response","238","130263","0.0-238.0","3BXQMRHWK0KOXR0YLR50CWKVMNCMUZ","A2JZTR2ZSALGH4","3ECKRY5B1QIH1N6NFX1ECCW5ZDKIZQ","","749.3000000007451","img/flower5.png","75","753.6999999992549","2","1","2","1","1,0.333,0.333,0.333,1,0.333,0.333,0.333,1","1,0.333,0.333,0.333,1,0.333,0.333,0.333,1","1",""
"","html-keyboard-response","239","130569","0.0-239.0","3BXQMRHWK0KOXR0YLR50CWKVMNCMUZ","A2JZTR2ZSALGH4","3ECKRY5B1QIH1N6NFX1ECCW5ZDKIZQ","","null","<img src=""img/flower5.png"" style=""width:200px; border:14px solid green;"">","null","","","","","","","","",""
"","image-keyboard-response","240","131208","0.0-240.0","3BXQMRHWK0KOXR0YLR50CWKVMNCMUZ","A2JZTR2ZSALGH4","3ECKRY5B1QIH1N6NFX1ECCW5ZDKIZQ","","631.1999999992549","img/flower3.png","76","635.6999999992549","3","1","3","1","1,0.333,0.333,0.333,1,0.333,0.333,0.333,1","1,0.333,0.333,0.333,1,0.333,0.333,0.333,1","1",""
"","html-keyboard-response","241","131512","0.0-241.0","3BXQMRHWK0KOXR0YLR50CWKVMNCMUZ","A2JZTR2ZSALGH4","3ECKRY5B1QIH1N6NFX1ECCW5ZDKIZQ","","null","<img src=""img/flower3.png"" style=""width:200px; border:14px solid green;"">","null","","","","","","","","",""
"","image-keyboard-response","242","132736","0.0-242.0","3BXQMRHWK0KOXR0YLR50CWKVMNCMUZ","A2JZTR2ZSALGH4","3ECKRY5B1QIH1N6NFX1ECCW5ZDKIZQ","","1217.4000000003725","img/flower2.png","74","1221.9000000003725","1","1","1","1","1,0.333,0.333,0.333,1,0.333,0.333,0.333,1","1,0.333,0.333,0.333,1,0.333,0.333,0.333,1","1",""
"","html-keyboard-response","243","133042","0.0-243.0","3BXQMRHWK0KOXR0YLR50CWKVMNCMUZ","A2JZTR2ZSALGH4","3ECKRY5B1QIH1N6NFX1ECCW5ZDKIZQ","","null","<img src=""img/flower2.png"" style=""width:200px; border:14px solid green;"">","null","","","","","","","","",""
"","image-keyboard-response","244","133974","0.0-244.0","3BXQMRHWK0KOXR0YLR50CWKVMNCMUZ","A2JZTR2ZSALGH4","3ECKRY5B1QIH1N6NFX1ECCW5ZDKIZQ","","925.5999999996275","img/flower3.png","76","930.5999999996275","3","1","3","1","1,0.333,0.333,0.333,1,0.333,0.333,0.333,1","1,0.333,0.333,0.333,1,0.333,0.333,0.333,1","1",""
"","html-keyboard-response","245","134277","0.0-245.0","3BXQMRHWK0KOXR0YLR50CWKVMNCMUZ","A2JZTR2ZSALGH4","3ECKRY5B1QIH1N6NFX1ECCW5ZDKIZQ","","null","<img src=""img/flower3.png"" style=""width:200px; border:14px solid green;"">","null","","","","","","","","",""
"","image-keyboard-response","246","134946","0.0-246.0","3BXQMRHWK0KOXR0YLR50CWKVMNCMUZ","A2JZTR2ZSALGH4","3ECKRY5B1QIH1N6NFX1ECCW5ZDKIZQ","","664.5999999996275","img/flower5.png","75","667.8000000007451","2","1","2","1","1,0.333,0.333,0.333,1,0.333,0.333,0.333,1","1,0.333,0.333,0.333,1,0.333,0.333,0.333,1","1",""
"","html-keyboard-response","247","135251","0.0-247.0","3BXQMRHWK0KOXR0YLR50CWKVMNCMUZ","A2JZTR2ZSALGH4","3ECKRY5B1QIH1N6NFX1ECCW5ZDKIZQ","","null","<img src=""img/flower5.png"" style=""width:200px; border:14px solid green;"">","null","","","","","","","","",""
"","image-keyboard-response","248","136368","0.0-248.0","3BXQMRHWK0KOXR0YLR50CWKVMNCMUZ","A2JZTR2ZSALGH4","3ECKRY5B1QIH1N6NFX1ECCW5ZDKIZQ","","1111.5","img/flower2.png","74","1115.6000000014901","1","1","1","1","1,0.333,0.333,0.333,1,0.333,0.333,0.333,1","1,0.333,0.333,0.333,1,0.333,0.333,0.333,1","1",""
"","html-keyboard-response","249","136672","0.0-249.0","3BXQMRHWK0KOXR0YLR50CWKVMNCMUZ","A2JZTR2ZSALGH4","3ECKRY5B1QIH1N6NFX1ECCW5ZDKIZQ","","null","<img src=""img/flower2.png"" style=""width:200px; border:14px solid green;"">","null","","","","","","","","",""
"","image-keyboard-response","250","137118","0.0-250.0","3BXQMRHWK0KOXR0YLR50CWKVMNCMUZ","A2JZTR2ZSALGH4","3ECKRY5B1QIH1N6NFX1ECCW5ZDKIZQ","","437.2000000011176","img/flower2.png","74","442.5","1","1","1","1","1,0.333,0.333,0.333,1,0.333,0.333,0.333,1","1,0.333,0.333,0.333,1,0.333,0.333,0.333,1","1",""
"","html-keyboard-response","251","137425","0.0-251.0","3BXQMRHWK0KOXR0YLR50CWKVMNCMUZ","A2JZTR2ZSALGH4","3ECKRY5B1QIH1N6NFX1ECCW5ZDKIZQ","","null","<img src=""img/flower2.png"" style=""width:200px; border:14px solid green;"">","null","","","","","","","","",""
"","image-keyboard-response","252","138079","0.0-252.0","3BXQMRHWK0KOXR0YLR50CWKVMNCMUZ","A2JZTR2ZSALGH4","3ECKRY5B1QIH1N6NFX1ECCW5ZDKIZQ","","646.8000000007451","img/flower3.png","76","652.6999999992549","3","1","3","1","1,0.333,0.333,0.333,1,0.333,0.333,0.333,1","1,0.333,0.333,0.333,1,0.333,0.333,0.333,1","1",""
"","html-keyboard-response","253","138383","0.0-253.0","3BXQMRHWK0KOXR0YLR50CWKVMNCMUZ","A2JZTR2ZSALGH4","3ECKRY5B1QIH1N6NFX1ECCW5ZDKIZQ","","null","<img src=""img/flower3.png"" style=""width:200px; border:14px solid green;"">","null","","","","","","","","",""
"","image-keyboard-response","254","138851","0.0-254.0","3BXQMRHWK0KOXR0YLR50CWKVMNCMUZ","A2JZTR2ZSALGH4","3ECKRY5B1QIH1N6NFX1ECCW5ZDKIZQ","","462","img/flower3.png","76","466.30000000074506","3","1","3","1","1,0.333,0.333,0.333,1,0.333,0.333,0.333,1","1,0.333,0.333,0.333,1,0.333,0.333,0.333,1","1",""
"","html-keyboard-response","255","139158","0.0-255.0","3BXQMRHWK0KOXR0YLR50CWKVMNCMUZ","A2JZTR2ZSALGH4","3ECKRY5B1QIH1N6NFX1ECCW5ZDKIZQ","","null","<img src=""img/flower3.png"" style=""width:200px; border:14px solid green;"">","null","","","","","","","","",""
"","image-keyboard-response","256","139552","0.0-256.0","3BXQMRHWK0KOXR0YLR50CWKVMNCMUZ","A2JZTR2ZSALGH4","3ECKRY5B1QIH1N6NFX1ECCW5ZDKIZQ","","389.80000000074506","img/flower3.png","76","393.7999999988824","3","1","3","1","1,0.333,0.333,0.333,1,0.333,0.333,0.333,1","1,0.333,0.333,0.333,1,0.333,0.333,0.333,1","1",""
"","html-keyboard-response","257","139857","0.0-257.0","3BXQMRHWK0KOXR0YLR50CWKVMNCMUZ","A2JZTR2ZSALGH4","3ECKRY5B1QIH1N6NFX1ECCW5ZDKIZQ","","null","<img src=""img/flower3.png"" style=""width:200px; border:14px solid green;"">","null","","","","","","","","",""
"","image-keyboard-response","258","140571","0.0-258.0","3BXQMRHWK0KOXR0YLR50CWKVMNCMUZ","A2JZTR2ZSALGH4","3ECKRY5B1QIH1N6NFX1ECCW5ZDKIZQ","","705.0999999996275","img/flower5.png","75","712.0999999996275","2","1","2","1","1,0.333,0.333,0.333,1,0.333,0.333,0.333,1","1,0.333,0.333,0.333,1,0.333,0.333,0.333,1","1",""
"","html-keyboard-response","259","140878","0.0-259.0","3BXQMRHWK0KOXR0YLR50CWKVMNCMUZ","A2JZTR2ZSALGH4","3ECKRY5B1QIH1N6NFX1ECCW5ZDKIZQ","","null","<img src=""img/flower5.png"" style=""width:200px; border:14px solid green;"">","null","","","","","","","","",""
"","image-keyboard-response","260","141304","0.0-260.0","3BXQMRHWK0KOXR0YLR50CWKVMNCMUZ","A2JZTR2ZSALGH4","3ECKRY5B1QIH1N6NFX1ECCW5ZDKIZQ","","419.69999999925494","img/flower5.png","75","425.40000000037253","2","1","2","1","1,0.333,0.333,0.333,1,0.333,0.333,0.333,1","1,0.333,0.333,0.333,1,0.333,0.333,0.333,1","1",""
"","html-keyboard-response","261","141611","0.0-261.0","3BXQMRHWK0KOXR0YLR50CWKVMNCMUZ","A2JZTR2ZSALGH4","3ECKRY5B1QIH1N6NFX1ECCW5ZDKIZQ","","null","<img src=""img/flower5.png"" style=""width:200px; border:14px solid green;"">","null","","","","","","","","",""
"","image-keyboard-response","262","142637","0.0-262.0","3BXQMRHWK0KOXR0YLR50CWKVMNCMUZ","A2JZTR2ZSALGH4","3ECKRY5B1QIH1N6NFX1ECCW5ZDKIZQ","","1020.6999999992549","img/flower3.png","76","1025.5","3","1","3","1","1,0.333,0.333,0.333,1,0.333,0.333,0.333,1","1,0.333,0.333,0.333,1,0.333,0.333,0.333,1","1",""
"","html-keyboard-response","263","142943","0.0-263.0","3BXQMRHWK0KOXR0YLR50CWKVMNCMUZ","A2JZTR2ZSALGH4","3ECKRY5B1QIH1N6NFX1ECCW5ZDKIZQ","","null","<img src=""img/flower3.png"" style=""width:200px; border:14px solid green;"">","null","","","","","","","","",""
"","image-keyboard-response","264","143715","0.0-264.0","3BXQMRHWK0KOXR0YLR50CWKVMNCMUZ","A2JZTR2ZSALGH4","3ECKRY5B1QIH1N6NFX1ECCW5ZDKIZQ","","766.4000000003725","img/flower5.png","75","770.3000000007451","2","1","2","1","1,0.333,0.333,0.333,1,0.333,0.333,0.333,1","1,0.333,0.333,0.333,1,0.333,0.333,0.333,1","1",""
"","html-keyboard-response","265","144020","0.0-265.0","3BXQMRHWK0KOXR0YLR50CWKVMNCMUZ","A2JZTR2ZSALGH4","3ECKRY5B1QIH1N6NFX1ECCW5ZDKIZQ","","null","<img src=""img/flower5.png"" style=""width:200px; border:14px solid green;"">","null","","","","","","","","",""
"","image-keyboard-response","266","144757","0.0-266.0","3BXQMRHWK0KOXR0YLR50CWKVMNCMUZ","A2JZTR2ZSALGH4","3ECKRY5B1QIH1N6NFX1ECCW5ZDKIZQ","","730.8999999985099","img/flower3.png","76","736.0999999996275","3","1","3","1","1,0.333,0.333,0.333,1,0.333,0.333,0.333,1","1,0.333,0.333,0.333,1,0.333,0.333,0.333,1","1",""
"","html-keyboard-response","267","145062","0.0-267.0","3BXQMRHWK0KOXR0YLR50CWKVMNCMUZ","A2JZTR2ZSALGH4","3ECKRY5B1QIH1N6NFX1ECCW5ZDKIZQ","","null","<img src=""img/flower3.png"" style=""width:200px; border:14px solid green;"">","null","","","","","","","","",""
"","image-keyboard-response","268","145501","0.0-268.0","3BXQMRHWK0KOXR0YLR50CWKVMNCMUZ","A2JZTR2ZSALGH4","3ECKRY5B1QIH1N6NFX1ECCW5ZDKIZQ","","430.40000000037253","img/flower3.png","76","437.7999999988824","3","1","3","1","1,0.333,0.333,0.333,1,0.333,0.333,0.333,1","1,0.333,0.333,0.333,1,0.333,0.333,0.333,1","1",""
"","html-keyboard-response","269","145808","0.0-269.0","3BXQMRHWK0KOXR0YLR50CWKVMNCMUZ","A2JZTR2ZSALGH4","3ECKRY5B1QIH1N6NFX1ECCW5ZDKIZQ","","null","<img src=""img/flower3.png"" style=""width:200px; border:14px solid green;"">","null","","","","","","","","",""
"","image-keyboard-response","270","146543","0.0-270.0","3BXQMRHWK0KOXR0YLR50CWKVMNCMUZ","A2JZTR2ZSALGH4","3ECKRY5B1QIH1N6NFX1ECCW5ZDKIZQ","","730.6999999992549","img/flower2.png","74","735.0999999996275","1","1","1","1","1,0.333,0.333,0.333,1,0.333,0.333,0.333,1","1,0.333,0.333,0.333,1,0.333,0.333,0.333,1","1",""
"","html-keyboard-response","271","146849","0.0-271.0","3BXQMRHWK0KOXR0YLR50CWKVMNCMUZ","A2JZTR2ZSALGH4","3ECKRY5B1QIH1N6NFX1ECCW5ZDKIZQ","","null","<img src=""img/flower2.png"" style=""width:200px; border:14px solid green;"">","null","","","","","","","","",""
"","image-keyboard-response","272","147564","0.0-272.0","3BXQMRHWK0KOXR0YLR50CWKVMNCMUZ","A2JZTR2ZSALGH4","3ECKRY5B1QIH1N6NFX1ECCW5ZDKIZQ","","710.6000000014901","img/flower3.png","76","713.7999999988824","3","1","3","1","1,0.333,0.333,0.333,1,0.333,0.333,0.333,1","1,0.333,0.333,0.333,1,0.333,0.333,0.333,1","1",""
"","html-keyboard-response","273","147869","0.0-273.0","3BXQMRHWK0KOXR0YLR50CWKVMNCMUZ","A2JZTR2ZSALGH4","3ECKRY5B1QIH1N6NFX1ECCW5ZDKIZQ","","null","<img src=""img/flower3.png"" style=""width:200px; border:14px solid green;"">","null","","","","","","","","",""
"","image-keyboard-response","274","148620","0.0-274.0","3BXQMRHWK0KOXR0YLR50CWKVMNCMUZ","A2JZTR2ZSALGH4","3ECKRY5B1QIH1N6NFX1ECCW5ZDKIZQ","","744.5999999996275","img/flower5.png","75","749.9000000003725","2","1","2","1","1,0.333,0.333,0.333,1,0.333,0.333,0.333,1","1,0.333,0.333,0.333,1,0.333,0.333,0.333,1","1",""
"","html-keyboard-response","275","148924","0.0-275.0","3BXQMRHWK0KOXR0YLR50CWKVMNCMUZ","A2JZTR2ZSALGH4","3ECKRY5B1QIH1N6NFX1ECCW5ZDKIZQ","","null","<img src=""img/flower5.png"" style=""width:200px; border:14px solid green;"">","null","","","","","","","","",""
"","image-keyboard-response","276","149343","0.0-276.0","3BXQMRHWK0KOXR0YLR50CWKVMNCMUZ","A2JZTR2ZSALGH4","3ECKRY5B1QIH1N6NFX1ECCW5ZDKIZQ","","411.19999999925494","img/flower5.png","75","417.1000000014901","2","1","2","1","1,0.333,0.333,0.333,1,0.333,0.333,0.333,1","1,0.333,0.333,0.333,1,0.333,0.333,0.333,1","1",""
"","html-keyboard-response","277","149649","0.0-277.0","3BXQMRHWK0KOXR0YLR50CWKVMNCMUZ","A2JZTR2ZSALGH4","3ECKRY5B1QIH1N6NFX1ECCW5ZDKIZQ","","null","<img src=""img/flower5.png"" style=""width:200px; border:14px solid green;"">","null","","","","","","","","",""
"","image-keyboard-response","278","150450","0.0-278.0","3BXQMRHWK0KOXR0YLR50CWKVMNCMUZ","A2JZTR2ZSALGH4","3ECKRY5B1QIH1N6NFX1ECCW5ZDKIZQ","","790.3999999985099","img/flower2.png","74","799.7000000011176","1","1","1","1","1,0.333,0.333,0.333,1,0.333,0.333,0.333,1","1,0.333,0.333,0.333,1,0.333,0.333,0.333,1","1",""
"","html-keyboard-response","279","150756","0.0-279.0","3BXQMRHWK0KOXR0YLR50CWKVMNCMUZ","A2JZTR2ZSALGH4","3ECKRY5B1QIH1N6NFX1ECCW5ZDKIZQ","","null","<img src=""img/flower2.png"" style=""width:200px; border:14px solid green;"">","null","","","","","","","","",""
"","image-keyboard-response","280","151490","0.0-280.0","3BXQMRHWK0KOXR0YLR50CWKVMNCMUZ","A2JZTR2ZSALGH4","3ECKRY5B1QIH1N6NFX1ECCW5ZDKIZQ","","727.5","img/flower3.png","76","732.1000000014901","3","1","3","1","1,0.333,0.333,0.333,1,0.333,0.333,0.333,1","1,0.333,0.333,0.333,1,0.333,0.333,0.333,1","1",""
"","html-keyboard-response","281","151794","0.0-281.0","3BXQMRHWK0KOXR0YLR50CWKVMNCMUZ","A2JZTR2ZSALGH4","3ECKRY5B1QIH1N6NFX1ECCW5ZDKIZQ","","null","<img src=""img/flower3.png"" style=""width:200px; border:14px solid green;"">","null","","","","","","","","",""
"","image-keyboard-response","282","152769","0.0-282.0","3BXQMRHWK0KOXR0YLR50CWKVMNCMUZ","A2JZTR2ZSALGH4","3ECKRY5B1QIH1N6NFX1ECCW5ZDKIZQ","","968.1999999992549","img/flower2.png","74","973.5999999996275","1","1","1","1","1,0.333,0.333,0.333,1,0.333,0.333,0.333,1","1,0.333,0.333,0.333,1,0.333,0.333,0.333,1","1",""
"","html-keyboard-response","283","153073","0.0-283.0","3BXQMRHWK0KOXR0YLR50CWKVMNCMUZ","A2JZTR2ZSALGH4","3ECKRY5B1QIH1N6NFX1ECCW5ZDKIZQ","","null","<img src=""img/flower2.png"" style=""width:200px; border:14px solid green;"">","null","","","","","","","","",""
"","image-keyboard-response","284","153425","0.0-284.0","3BXQMRHWK0KOXR0YLR50CWKVMNCMUZ","A2JZTR2ZSALGH4","3ECKRY5B1QIH1N6NFX1ECCW5ZDKIZQ","","346.19999999925494","img/flower2.png","74","351.09999999962747","1","1","1","1","1,0.333,0.333,0.333,1,0.333,0.333,0.333,1","1,0.333,0.333,0.333,1,0.333,0.333,0.333,1","1",""
"","html-keyboard-response","285","153732","0.0-285.0","3BXQMRHWK0KOXR0YLR50CWKVMNCMUZ","A2JZTR2ZSALGH4","3ECKRY5B1QIH1N6NFX1ECCW5ZDKIZQ","","null","<img src=""img/flower2.png"" style=""width:200px; border:14px solid green;"">","null","","","","","","","","",""
"","image-keyboard-response","286","154093","0.0-286.0","3BXQMRHWK0KOXR0YLR50CWKVMNCMUZ","A2JZTR2ZSALGH4","3ECKRY5B1QIH1N6NFX1ECCW5ZDKIZQ","","353.90000000037253","img/flower2.png","74","360.19999999925494","1","1","1","1","1,0.333,0.333,0.333,1,0.333,0.333,0.333,1","1,0.333,0.333,0.333,1,0.333,0.333,0.333,1","1",""
"","html-keyboard-response","287","154400","0.0-287.0","3BXQMRHWK0KOXR0YLR50CWKVMNCMUZ","A2JZTR2ZSALGH4","3ECKRY5B1QIH1N6NFX1ECCW5ZDKIZQ","","null","<img src=""img/flower2.png"" style=""width:200px; border:14px solid green;"">","null","","","","","","","","",""
"","image-keyboard-response","288","155173","0.0-288.0","3BXQMRHWK0KOXR0YLR50CWKVMNCMUZ","A2JZTR2ZSALGH4","3ECKRY5B1QIH1N6NFX1ECCW5ZDKIZQ","","766.4000000003725","img/flower5.png","75","772.2999999988824","2","1","2","1","1,0.333,0.333,0.333,1,0.333,0.333,0.333,1","1,0.333,0.333,0.333,1,0.333,0.333,0.333,1","1",""
"","html-keyboard-response","289","155478","0.0-289.0","3BXQMRHWK0KOXR0YLR50CWKVMNCMUZ","A2JZTR2ZSALGH4","3ECKRY5B1QIH1N6NFX1ECCW5ZDKIZQ","","null","<img src=""img/flower5.png"" style=""width:200px; border:14px solid green;"">","null","","","","","","","","",""
"","image-keyboard-response","290","156386","0.0-290.0","3BXQMRHWK0KOXR0YLR50CWKVMNCMUZ","A2JZTR2ZSALGH4","3ECKRY5B1QIH1N6NFX1ECCW5ZDKIZQ","","900.4000000003725","img/flower2.png","74","906.1999999992549","1","1","1","1","1,0.333,0.333,0.333,1,0.333,0.333,0.333,1","1,0.333,0.333,0.333,1,0.333,0.333,0.333,1","1",""
"","html-keyboard-response","291","156691","0.0-291.0","3BXQMRHWK0KOXR0YLR50CWKVMNCMUZ","A2JZTR2ZSALGH4","3ECKRY5B1QIH1N6NFX1ECCW5ZDKIZQ","","null","<img src=""img/flower2.png"" style=""width:200px; border:14px solid green;"">","null","","","","","","","","",""
"","image-keyboard-response","292","157414","0.0-292.0","3BXQMRHWK0KOXR0YLR50CWKVMNCMUZ","A2JZTR2ZSALGH4","3ECKRY5B1QIH1N6NFX1ECCW5ZDKIZQ","","716.4000000003725","img/flower3.png","76","721.5999999996275","3","1","3","1","1,0.333,0.333,0.333,1,0.333,0.333,0.333,1","1,0.333,0.333,0.333,1,0.333,0.333,0.333,1","1",""
"","html-keyboard-response","293","157719","0.0-293.0","3BXQMRHWK0KOXR0YLR50CWKVMNCMUZ","A2JZTR2ZSALGH4","3ECKRY5B1QIH1N6NFX1ECCW5ZDKIZQ","","null","<img src=""img/flower3.png"" style=""width:200px; border:14px solid green;"">","null","","","","","","","","",""
"","image-keyboard-response","294","158142","0.0-294.0","3BXQMRHWK0KOXR0YLR50CWKVMNCMUZ","A2JZTR2ZSALGH4","3ECKRY5B1QIH1N6NFX1ECCW5ZDKIZQ","","414.19999999925494","img/flower3.png","76","421.09999999962747","3","1","3","1","1,0.333,0.333,0.333,1,0.333,0.333,0.333,1","1,0.333,0.333,0.333,1,0.333,0.333,0.333,1","1",""
"","html-keyboard-response","295","158447","0.0-295.0","3BXQMRHWK0KOXR0YLR50CWKVMNCMUZ","A2JZTR2ZSALGH4","3ECKRY5B1QIH1N6NFX1ECCW5ZDKIZQ","","null","<img src=""img/flower3.png"" style=""width:200px; border:14px solid green;"">","null","","","","","","","","",""
"","image-keyboard-response","296","159281","0.0-296.0","3BXQMRHWK0KOXR0YLR50CWKVMNCMUZ","A2JZTR2ZSALGH4","3ECKRY5B1QIH1N6NFX1ECCW5ZDKIZQ","","825.3000000007451","img/flower5.png","75","832.1999999992549","2","1","2","1","1,0.333,0.333,0.333,1,0.333,0.333,0.333,1","1,0.333,0.333,0.333,1,0.333,0.333,0.333,1","1",""
"","html-keyboard-response","297","159587","0.0-297.0","3BXQMRHWK0KOXR0YLR50CWKVMNCMUZ","A2JZTR2ZSALGH4","3ECKRY5B1QIH1N6NFX1ECCW5ZDKIZQ","","null","<img src=""img/flower5.png"" style=""width:200px; border:14px solid green;"">","null","","","","","","","","",""
"","image-keyboard-response","298","160338","0.0-298.0","3BXQMRHWK0KOXR0YLR50CWKVMNCMUZ","A2JZTR2ZSALGH4","3ECKRY5B1QIH1N6NFX1ECCW5ZDKIZQ","","743.5999999996275","img/flower2.png","74","749.7999999988824","1","1","1","1","1,0.333,0.333,0.333,1,0.333,0.333,0.333,1","1,0.333,0.333,0.333,1,0.333,0.333,0.333,1","1",""
"","html-keyboard-response","299","160645","0.0-299.0","3BXQMRHWK0KOXR0YLR50CWKVMNCMUZ","A2JZTR2ZSALGH4","3ECKRY5B1QIH1N6NFX1ECCW5ZDKIZQ","","null","<img src=""img/flower2.png"" style=""width:200px; border:14px solid green;"">","null","","","","","","","","",""
"","image-keyboard-response","300","161107","0.0-300.0","3BXQMRHWK0KOXR0YLR50CWKVMNCMUZ","A2JZTR2ZSALGH4","3ECKRY5B1QIH1N6NFX1ECCW5ZDKIZQ","","452.69999999925494","img/flower2.png","74","460.2999999988824","1","1","1","1","1,0.333,0.333,0.333,1,0.333,0.333,0.333,1","1,0.333,0.333,0.333,1,0.333,0.333,0.333,1","1",""
"","html-keyboard-response","301","161413","0.0-301.0","3BXQMRHWK0KOXR0YLR50CWKVMNCMUZ","A2JZTR2ZSALGH4","3ECKRY5B1QIH1N6NFX1ECCW5ZDKIZQ","","null","<img src=""img/flower2.png"" style=""width:200px; border:14px solid green;"">","null","","","","","","","","",""
"","image-keyboard-response","302","162075","0.0-302.0","3BXQMRHWK0KOXR0YLR50CWKVMNCMUZ","A2JZTR2ZSALGH4","3ECKRY5B1QIH1N6NFX1ECCW5ZDKIZQ","","654.6999999992549","img/flower3.png","76","660.2999999988824","3","1","3","1","1,0.333,0.333,0.333,1,0.333,0.333,0.333,1","1,0.333,0.333,0.333,1,0.333,0.333,0.333,1","1",""
"","html-keyboard-response","303","162381","0.0-303.0","3BXQMRHWK0KOXR0YLR50CWKVMNCMUZ","A2JZTR2ZSALGH4","3ECKRY5B1QIH1N6NFX1ECCW5ZDKIZQ","","null","<img src=""img/flower3.png"" style=""width:200px; border:14px solid green;"">","null","","","","","","","","",""
"","image-keyboard-response","304","162796","0.0-304.0","3BXQMRHWK0KOXR0YLR50CWKVMNCMUZ","A2JZTR2ZSALGH4","3ECKRY5B1QIH1N6NFX1ECCW5ZDKIZQ","","408.2999999988824","img/flower3.png","76","413.80000000074506","3","1","3","1","1,0.333,0.333,0.333,1,0.333,0.333,0.333,1","1,0.333,0.333,0.333,1,0.333,0.333,0.333,1","1",""
"","html-keyboard-response","305","163100","0.0-305.0","3BXQMRHWK0KOXR0YLR50CWKVMNCMUZ","A2JZTR2ZSALGH4","3ECKRY5B1QIH1N6NFX1ECCW5ZDKIZQ","","null","<img src=""img/flower3.png"" style=""width:200px; border:14px solid green;"">","null","","","","","","","","",""
"","image-keyboard-response","306","163521","0.0-306.0","3BXQMRHWK0KOXR0YLR50CWKVMNCMUZ","A2JZTR2ZSALGH4","3ECKRY5B1QIH1N6NFX1ECCW5ZDKIZQ","","413.2000000011176","img/flower3.png","76","418.3999999985099","3","1","3","1","1,0.333,0.333,0.333,1,0.333,0.333,0.333,1","1,0.333,0.333,0.333,1,0.333,0.333,0.333,1","1",""
"","html-keyboard-response","307","163825","0.0-307.0","3BXQMRHWK0KOXR0YLR50CWKVMNCMUZ","A2JZTR2ZSALGH4","3ECKRY5B1QIH1N6NFX1ECCW5ZDKIZQ","","null","<img src=""img/flower3.png"" style=""width:200px; border:14px solid green;"">","null","","","","","","","","",""
"","image-keyboard-response","308","164663","0.0-308.0","3BXQMRHWK0KOXR0YLR50CWKVMNCMUZ","A2JZTR2ZSALGH4","3ECKRY5B1QIH1N6NFX1ECCW5ZDKIZQ","","831.3999999985099","img/flower2.png","74","836.0999999996275","1","1","1","1","1,0.333,0.333,0.333,1,0.333,0.333,0.333,1","1,0.333,0.333,0.333,1,0.333,0.333,0.333,1","1",""
"","html-keyboard-response","309","164967","0.0-309.0","3BXQMRHWK0KOXR0YLR50CWKVMNCMUZ","A2JZTR2ZSALGH4","3ECKRY5B1QIH1N6NFX1ECCW5ZDKIZQ","","null","<img src=""img/flower2.png"" style=""width:200px; border:14px solid green;"">","null","","","","","","","","",""
"","image-keyboard-response","310","165356","0.0-310.0","3BXQMRHWK0KOXR0YLR50CWKVMNCMUZ","A2JZTR2ZSALGH4","3ECKRY5B1QIH1N6NFX1ECCW5ZDKIZQ","","383.2999999988824","img/flower2.png","74","387.69999999925494","1","1","1","1","1,0.333,0.333,0.333,1,0.333,0.333,0.333,1","1,0.333,0.333,0.333,1,0.333,0.333,0.333,1","1",""
"","html-keyboard-response","311","165661","0.0-311.0","3BXQMRHWK0KOXR0YLR50CWKVMNCMUZ","A2JZTR2ZSALGH4","3ECKRY5B1QIH1N6NFX1ECCW5ZDKIZQ","","null","<img src=""img/flower2.png"" style=""width:200px; border:14px solid green;"">","null","","","","","","","","",""
"","image-keyboard-response","312","165980","0.0-312.0","3BXQMRHWK0KOXR0YLR50CWKVMNCMUZ","A2JZTR2ZSALGH4","3ECKRY5B1QIH1N6NFX1ECCW5ZDKIZQ","","313.09999999962747","img/flower2.png","74","316.80000000074506","1","1","1","1","1,0.333,0.333,0.333,1,0.333,0.333,0.333,1","1,0.333,0.333,0.333,1,0.333,0.333,0.333,1","1",""
"","html-keyboard-response","313","166285","0.0-313.0","3BXQMRHWK0KOXR0YLR50CWKVMNCMUZ","A2JZTR2ZSALGH4","3ECKRY5B1QIH1N6NFX1ECCW5ZDKIZQ","","null","<img src=""img/flower2.png"" style=""width:200px; border:14px solid green;"">","null","","","","","","","","",""
"","image-keyboard-response","314","167030","0.0-314.0","3BXQMRHWK0KOXR0YLR50CWKVMNCMUZ","A2JZTR2ZSALGH4","3ECKRY5B1QIH1N6NFX1ECCW5ZDKIZQ","","740.8999999985099","img/flower3.png","76","744.5999999996275","3","1","3","1","1,0.333,0.333,0.333,1,0.333,0.333,0.333,1","1,0.333,0.333,0.333,1,0.333,0.333,0.333,1","1",""
"","html-keyboard-response","315","167337","0.0-315.0","3BXQMRHWK0KOXR0YLR50CWKVMNCMUZ","A2JZTR2ZSALGH4","3ECKRY5B1QIH1N6NFX1ECCW5ZDKIZQ","","null","<img src=""img/flower3.png"" style=""width:200px; border:14px solid green;"">","null","","","","","","","","",""
"","image-keyboard-response","316","167797","0.0-316.0","3BXQMRHWK0KOXR0YLR50CWKVMNCMUZ","A2JZTR2ZSALGH4","3ECKRY5B1QIH1N6NFX1ECCW5ZDKIZQ","","454.19999999925494","img/flower3.png","76","457.90000000037253","3","1","3","1","1,0.333,0.333,0.333,1,0.333,0.333,0.333,1","1,0.333,0.333,0.333,1,0.333,0.333,0.333,1","1",""
"","html-keyboard-response","317","168102","0.0-317.0","3BXQMRHWK0KOXR0YLR50CWKVMNCMUZ","A2JZTR2ZSALGH4","3ECKRY5B1QIH1N6NFX1ECCW5ZDKIZQ","","null","<img src=""img/flower3.png"" style=""width:200px; border:14px solid green;"">","null","","","","","","","","",""
"","image-keyboard-response","318","168418","0.0-318.0","3BXQMRHWK0KOXR0YLR50CWKVMNCMUZ","A2JZTR2ZSALGH4","3ECKRY5B1QIH1N6NFX1ECCW5ZDKIZQ","","312.80000000074506","img/flower3.png","76","315.5","3","1","3","1","1,0.333,0.333,0.333,1,0.333,0.333,0.333,1","1,0.333,0.333,0.333,1,0.333,0.333,0.333,1","1",""
"","html-keyboard-response","319","168725","0.0-319.0","3BXQMRHWK0KOXR0YLR50CWKVMNCMUZ","A2JZTR2ZSALGH4","3ECKRY5B1QIH1N6NFX1ECCW5ZDKIZQ","","null","<img src=""img/flower3.png"" style=""width:200px; border:14px solid green;"">","null","","","","","","","","",""
"","image-keyboard-response","320","169301","0.0-320.0","3BXQMRHWK0KOXR0YLR50CWKVMNCMUZ","A2JZTR2ZSALGH4","3ECKRY5B1QIH1N6NFX1ECCW5ZDKIZQ","","571.1999999992549","img/flower5.png","75","575.6999999992549","2","1","2","1","1,0.333,0.333,0.333,1,0.333,0.333,0.333,1","1,0.333,0.333,0.333,1,0.333,0.333,0.333,1","1",""
"","html-keyboard-response","321","169606","0.0-321.0","3BXQMRHWK0KOXR0YLR50CWKVMNCMUZ","A2JZTR2ZSALGH4","3ECKRY5B1QIH1N6NFX1ECCW5ZDKIZQ","","null","<img src=""img/flower5.png"" style=""width:200px; border:14px solid green;"">","null","","","","","","","","",""
"","image-keyboard-response","322","170374","0.0-322.0","3BXQMRHWK0KOXR0YLR50CWKVMNCMUZ","A2JZTR2ZSALGH4","3ECKRY5B1QIH1N6NFX1ECCW5ZDKIZQ","","761.1999999992549","img/flower3.png","76","766.6999999992549","3","1","3","1","1,0.333,0.333,0.333,1,0.333,0.333,0.333,1","1,0.333,0.333,0.333,1,0.333,0.333,0.333,1","1",""
"","html-keyboard-response","323","170679","0.0-323.0","3BXQMRHWK0KOXR0YLR50CWKVMNCMUZ","A2JZTR2ZSALGH4","3ECKRY5B1QIH1N6NFX1ECCW5ZDKIZQ","","null","<img src=""img/flower3.png"" style=""width:200px; border:14px solid green;"">","null","","","","","","","","",""
"","image-keyboard-response","324","171074","0.0-324.0","3BXQMRHWK0KOXR0YLR50CWKVMNCMUZ","A2JZTR2ZSALGH4","3ECKRY5B1QIH1N6NFX1ECCW5ZDKIZQ","","389","img/flower3.png","76","393.7000000011176","3","1","3","1","1,0.333,0.333,0.333,1,0.333,0.333,0.333,1","1,0.333,0.333,0.333,1,0.333,0.333,0.333,1","1",""
"","html-keyboard-response","325","171379","0.0-325.0","3BXQMRHWK0KOXR0YLR50CWKVMNCMUZ","A2JZTR2ZSALGH4","3ECKRY5B1QIH1N6NFX1ECCW5ZDKIZQ","","null","<img src=""img/flower3.png"" style=""width:200px; border:14px solid green;"">","null","","","","","","","","",""
"","image-keyboard-response","326","171948","0.0-326.0","3BXQMRHWK0KOXR0YLR50CWKVMNCMUZ","A2JZTR2ZSALGH4","3ECKRY5B1QIH1N6NFX1ECCW5ZDKIZQ","","563.1999999992549","img/flower5.png","75","568","2","1","2","1","1,0.333,0.333,0.333,1,0.333,0.333,0.333,1","1,0.333,0.333,0.333,1,0.333,0.333,0.333,1","1",""
"","html-keyboard-response","327","172251","0.0-327.0","3BXQMRHWK0KOXR0YLR50CWKVMNCMUZ","A2JZTR2ZSALGH4","3ECKRY5B1QIH1N6NFX1ECCW5ZDKIZQ","","null","<img src=""img/flower5.png"" style=""width:200px; border:14px solid green;"">","null","","","","","","","","",""
"","image-keyboard-response","328","172976","0.0-328.0","3BXQMRHWK0KOXR0YLR50CWKVMNCMUZ","A2JZTR2ZSALGH4","3ECKRY5B1QIH1N6NFX1ECCW5ZDKIZQ","","719.4000000003725","img/flower3.png","76","723.2999999988824","3","1","3","1","1,0.333,0.333,0.333,1,0.333,0.333,0.333,1","1,0.333,0.333,0.333,1,0.333,0.333,0.333,1","1",""
"","html-keyboard-response","329","173280","0.0-329.0","3BXQMRHWK0KOXR0YLR50CWKVMNCMUZ","A2JZTR2ZSALGH4","3ECKRY5B1QIH1N6NFX1ECCW5ZDKIZQ","","null","<img src=""img/flower3.png"" style=""width:200px; border:14px solid green;"">","null","","","","","","","","",""
"","image-keyboard-response","330","173967","0.0-330.0","3BXQMRHWK0KOXR0YLR50CWKVMNCMUZ","A2JZTR2ZSALGH4","3ECKRY5B1QIH1N6NFX1ECCW5ZDKIZQ","","682.4000000003725","img/flower5.png","75","685.7999999988824","2","1","2","1","1,0.333,0.333,0.333,1,0.333,0.333,0.333,1","1,0.333,0.333,0.333,1,0.333,0.333,0.333,1","1",""
"","html-keyboard-response","331","174273","0.0-331.0","3BXQMRHWK0KOXR0YLR50CWKVMNCMUZ","A2JZTR2ZSALGH4","3ECKRY5B1QIH1N6NFX1ECCW5ZDKIZQ","","null","<img src=""img/flower5.png"" style=""width:200px; border:14px solid green;"">","null","","","","","","","","",""
"","image-keyboard-response","332","174980","0.0-332.0","3BXQMRHWK0KOXR0YLR50CWKVMNCMUZ","A2JZTR2ZSALGH4","3ECKRY5B1QIH1N6NFX1ECCW5ZDKIZQ","","701.7000000011176","img/flower2.png","74","705.6999999992549","1","1","1","1","1,0.333,0.333,0.333,1,0.333,0.333,0.333,1","1,0.333,0.333,0.333,1,0.333,0.333,0.333,1","1",""
"","html-keyboard-response","333","175286","0.0-333.0","3BXQMRHWK0KOXR0YLR50CWKVMNCMUZ","A2JZTR2ZSALGH4","3ECKRY5B1QIH1N6NFX1ECCW5ZDKIZQ","","null","<img src=""img/flower2.png"" style=""width:200px; border:14px solid green;"">","null","","","","","","","","",""
"","image-keyboard-response","334","175703","0.0-334.0","3BXQMRHWK0KOXR0YLR50CWKVMNCMUZ","A2JZTR2ZSALGH4","3ECKRY5B1QIH1N6NFX1ECCW5ZDKIZQ","","411.5","img/flower2.png","74","416.19999999925494","1","1","1","1","1,0.333,0.333,0.333,1,0.333,0.333,0.333,1","1,0.333,0.333,0.333,1,0.333,0.333,0.333,1","1",""
"","html-keyboard-response","335","176008","0.0-335.0","3BXQMRHWK0KOXR0YLR50CWKVMNCMUZ","A2JZTR2ZSALGH4","3ECKRY5B1QIH1N6NFX1ECCW5ZDKIZQ","","null","<img src=""img/flower2.png"" style=""width:200px; border:14px solid green;"">","null","","","","","","","","",""
"","image-keyboard-response","336","176404","0.0-336.0","3BXQMRHWK0KOXR0YLR50CWKVMNCMUZ","A2JZTR2ZSALGH4","3ECKRY5B1QIH1N6NFX1ECCW5ZDKIZQ","","388.90000000037253","img/flower2.png","74","395.09999999962747","1","1","1","1","1,0.333,0.333,0.333,1,0.333,0.333,0.333,1","1,0.333,0.333,0.333,1,0.333,0.333,0.333,1","1",""
"","html-keyboard-response","337","176709","0.0-337.0","3BXQMRHWK0KOXR0YLR50CWKVMNCMUZ","A2JZTR2ZSALGH4","3ECKRY5B1QIH1N6NFX1ECCW5ZDKIZQ","","null","<img src=""img/flower2.png"" style=""width:200px; border:14px solid green;"">","null","","","","","","","","",""
"","image-keyboard-response","338","177087","0.0-338.0","3BXQMRHWK0KOXR0YLR50CWKVMNCMUZ","A2JZTR2ZSALGH4","3ECKRY5B1QIH1N6NFX1ECCW5ZDKIZQ","","373.80000000074506","img/flower2.png","74","377.69999999925494","1","1","1","1","1,0.333,0.333,0.333,1,0.333,0.333,0.333,1","1,0.333,0.333,0.333,1,0.333,0.333,0.333,1","1",""
"","html-keyboard-response","339","177392","0.0-339.0","3BXQMRHWK0KOXR0YLR50CWKVMNCMUZ","A2JZTR2ZSALGH4","3ECKRY5B1QIH1N6NFX1ECCW5ZDKIZQ","","null","<img src=""img/flower2.png"" style=""width:200px; border:14px solid green;"">","null","","","","","","","","",""
"","image-keyboard-response","340","178181","0.0-340.0","3BXQMRHWK0KOXR0YLR50CWKVMNCMUZ","A2JZTR2ZSALGH4","3ECKRY5B1QIH1N6NFX1ECCW5ZDKIZQ","","782.6000000014901","img/flower5.png","75","787.5999999996275","2","1","2","1","1,0.333,0.333,0.333,1,0.333,0.333,0.333,1","1,0.333,0.333,0.333,1,0.333,0.333,0.333,1","1",""
"","html-keyboard-response","341","178489","0.0-341.0","3BXQMRHWK0KOXR0YLR50CWKVMNCMUZ","A2JZTR2ZSALGH4","3ECKRY5B1QIH1N6NFX1ECCW5ZDKIZQ","","null","<img src=""img/flower5.png"" style=""width:200px; border:14px solid green;"">","null","","","","","","","","",""
"","image-keyboard-response","342","179108","0.0-342.0","3BXQMRHWK0KOXR0YLR50CWKVMNCMUZ","A2JZTR2ZSALGH4","3ECKRY5B1QIH1N6NFX1ECCW5ZDKIZQ","","614","img/flower3.png","76","618.4000000003725","3","1","3","1","1,0.333,0.333,0.333,1,0.333,0.333,0.333,1","1,0.333,0.333,0.333,1,0.333,0.333,0.333,1","1",""
"","html-keyboard-response","343","179413","0.0-343.0","3BXQMRHWK0KOXR0YLR50CWKVMNCMUZ","A2JZTR2ZSALGH4","3ECKRY5B1QIH1N6NFX1ECCW5ZDKIZQ","","null","<img src=""img/flower3.png"" style=""width:200px; border:14px solid green;"">","null","","","","","","","","",""
"","image-keyboard-response","344","180322","0.0-344.0","3BXQMRHWK0KOXR0YLR50CWKVMNCMUZ","A2JZTR2ZSALGH4","3ECKRY5B1QIH1N6NFX1ECCW5ZDKIZQ","","901.5","img/flower5.png","75","906.5999999996275","2","1","2","1","1,0.333,0.333,0.333,1,0.333,0.333,0.333,1","1,0.333,0.333,0.333,1,0.333,0.333,0.333,1","1",""
"","html-keyboard-response","345","180626","0.0-345.0","3BXQMRHWK0KOXR0YLR50CWKVMNCMUZ","A2JZTR2ZSALGH4","3ECKRY5B1QIH1N6NFX1ECCW5ZDKIZQ","","null","<img src=""img/flower5.png"" style=""width:200px; border:14px solid green;"">","null","","","","","","","","",""
"","image-keyboard-response","346","181281","0.0-346.0","3BXQMRHWK0KOXR0YLR50CWKVMNCMUZ","A2JZTR2ZSALGH4","3ECKRY5B1QIH1N6NFX1ECCW5ZDKIZQ","","648.1999999992549","img/flower2.png","74","654","1","1","1","1","1,0.333,0.333,0.333,1,0.333,0.333,0.333,1","1,0.333,0.333,0.333,1,0.333,0.333,0.333,1","1",""
"","html-keyboard-response","347","181586","0.0-347.0","3BXQMRHWK0KOXR0YLR50CWKVMNCMUZ","A2JZTR2ZSALGH4","3ECKRY5B1QIH1N6NFX1ECCW5ZDKIZQ","","null","<img src=""img/flower2.png"" style=""width:200px; border:14px solid green;"">","null","","","","","","","","",""
"","image-keyboard-response","348","181972","0.0-348.0","3BXQMRHWK0KOXR0YLR50CWKVMNCMUZ","A2JZTR2ZSALGH4","3ECKRY5B1QIH1N6NFX1ECCW5ZDKIZQ","","377.7000000011176","img/flower2.png","74","384.2999999988824","1","1","1","1","1,0.333,0.333,0.333,1,0.333,0.333,0.333,1","1,0.333,0.333,0.333,1,0.333,0.333,0.333,1","1",""
"","html-keyboard-response","349","182277","0.0-349.0","3BXQMRHWK0KOXR0YLR50CWKVMNCMUZ","A2JZTR2ZSALGH4","3ECKRY5B1QIH1N6NFX1ECCW5ZDKIZQ","","null","<img src=""img/flower2.png"" style=""width:200px; border:14px solid green;"">","null","","","","","","","","",""
"","image-keyboard-response","350","182648","0.0-350.0","3BXQMRHWK0KOXR0YLR50CWKVMNCMUZ","A2JZTR2ZSALGH4","3ECKRY5B1QIH1N6NFX1ECCW5ZDKIZQ","","363.90000000037253","img/flower2.png","74","369.7999999988824","1","1","1","1","1,0.333,0.333,0.333,1,0.333,0.333,0.333,1","1,0.333,0.333,0.333,1,0.333,0.333,0.333,1","1",""
"","html-keyboard-response","351","182954","0.0-351.0","3BXQMRHWK0KOXR0YLR50CWKVMNCMUZ","A2JZTR2ZSALGH4","3ECKRY5B1QIH1N6NFX1ECCW5ZDKIZQ","","null","<img src=""img/flower2.png"" style=""width:200px; border:14px solid green;"">","null","","","","","","","","",""
"","image-keyboard-response","352","183339","0.0-352.0","3BXQMRHWK0KOXR0YLR50CWKVMNCMUZ","A2JZTR2ZSALGH4","3ECKRY5B1QIH1N6NFX1ECCW5ZDKIZQ","","379.30000000074506","img/flower2.png","74","383.69999999925494","1","1","1","1","1,0.333,0.333,0.333,1,0.333,0.333,0.333,1","1,0.333,0.333,0.333,1,0.333,0.333,0.333,1","1",""
"","html-keyboard-response","353","183643","0.0-353.0","3BXQMRHWK0KOXR0YLR50CWKVMNCMUZ","A2JZTR2ZSALGH4","3ECKRY5B1QIH1N6NFX1ECCW5ZDKIZQ","","null","<img src=""img/flower2.png"" style=""width:200px; border:14px solid green;"">","null","","","","","","","","",""
"","image-keyboard-response","354","185155","0.0-354.0","3BXQMRHWK0KOXR0YLR50CWKVMNCMUZ","A2JZTR2ZSALGH4","3ECKRY5B1QIH1N6NFX1ECCW5ZDKIZQ","","1505.800000000745","img/flower5.png","75","1511","2","1","2","1","1,0.333,0.333,0.333,1,0.333,0.333,0.333,1","1,0.333,0.333,0.333,1,0.333,0.333,0.333,1","1",""
"","html-keyboard-response","355","185460","0.0-355.0","3BXQMRHWK0KOXR0YLR50CWKVMNCMUZ","A2JZTR2ZSALGH4","3ECKRY5B1QIH1N6NFX1ECCW5ZDKIZQ","","null","<img src=""img/flower5.png"" style=""width:200px; border:14px solid green;"">","null","","","","","","","","",""
"","image-keyboard-response","356","185963","0.0-356.0","3BXQMRHWK0KOXR0YLR50CWKVMNCMUZ","A2JZTR2ZSALGH4","3ECKRY5B1QIH1N6NFX1ECCW5ZDKIZQ","","499.5","img/flower5.png","75","502","2","1","2","1","1,0.333,0.333,0.333,1,0.333,0.333,0.333,1","1,0.333,0.333,0.333,1,0.333,0.333,0.333,1","1",""
"","html-keyboard-response","357","186269","0.0-357.0","3BXQMRHWK0KOXR0YLR50CWKVMNCMUZ","A2JZTR2ZSALGH4","3ECKRY5B1QIH1N6NFX1ECCW5ZDKIZQ","","null","<img src=""img/flower5.png"" style=""width:200px; border:14px solid green;"">","null","","","","","","","","",""
"","image-keyboard-response","358","186635","0.0-358.0","3BXQMRHWK0KOXR0YLR50CWKVMNCMUZ","A2JZTR2ZSALGH4","3ECKRY5B1QIH1N6NFX1ECCW5ZDKIZQ","","359.80000000074506","img/flower5.png","75","365.5","2","1","2","1","1,0.333,0.333,0.333,1,0.333,0.333,0.333,1","1,0.333,0.333,0.333,1,0.333,0.333,0.333,1","1",""
"","html-keyboard-response","359","186939","0.0-359.0","3BXQMRHWK0KOXR0YLR50CWKVMNCMUZ","A2JZTR2ZSALGH4","3ECKRY5B1QIH1N6NFX1ECCW5ZDKIZQ","","null","<img src=""img/flower5.png"" style=""width:200px; border:14px solid green;"">","null","","","","","","","","",""
"","image-keyboard-response","360","187474","0.0-360.0","3BXQMRHWK0KOXR0YLR50CWKVMNCMUZ","A2JZTR2ZSALGH4","3ECKRY5B1QIH1N6NFX1ECCW5ZDKIZQ","","527.5999999996275","img/flower3.png","76","533.5999999996275","3","1","3","1","1,0.333,0.333,0.333,1,0.333,0.333,0.333,1","1,0.333,0.333,0.333,1,0.333,0.333,0.333,1","1",""
"","html-keyboard-response","361","187782","0.0-361.0","3BXQMRHWK0KOXR0YLR50CWKVMNCMUZ","A2JZTR2ZSALGH4","3ECKRY5B1QIH1N6NFX1ECCW5ZDKIZQ","","null","<img src=""img/flower3.png"" style=""width:200px; border:14px solid green;"">","null","","","","","","","","",""
"","html-keyboard-response","362","190564","0.0-362.0","3BXQMRHWK0KOXR0YLR50CWKVMNCMUZ","A2JZTR2ZSALGH4","3ECKRY5B1QIH1N6NFX1ECCW5ZDKIZQ","","","","","","","","","","","","",""
