"success","trial_type","trial_index","time_elapsed","internal_node_id","assignmentID","mturkID","hitID","view_history","rt","stimulus","key_press","reactionTime","a","r","s","cond","reward_cond","reward_cond_actual","reward_matrix_idx","responses"
"true","fullscreen","0","2626","0.0-0.0","","","","","","","","","","","","","","","",""
"","instructions","1","22628","0.0-1.0","","","","[{""page_index"":0,""viewing_time"":1499.5999999642372},{""page_index"":1,""viewing_time"":1394},{""page_index"":2,""viewing_time"":1276},{""page_index"":3,""viewing_time"":2018},{""page_index"":4,""viewing_time"":9262.600000023842},{""page_index"":5,""viewing_time"":1715},{""page_index"":6,""viewing_time"":1806.199999988079},{""page_index"":7,""viewing_time"":1028.1000000238419}]","20000","","","","","","","","","","",""
"","image-keyboard-response","2","24372","0.0-2.0","","","","","1742.5","img/flower1.png","74","1743.5","1","1","1","1","1,0.333,0.333,0.333,1,0.333,0.333,0.333,1","1,0.333,0.333,0.333,1,0.333,0.333,0.333,1","1",""
"","html-keyboard-response","3","24677","0.0-3.0","","","","","null","<img src=""img/flower1.png"" style=""width:200px; border:14px solid green;"">","null","","","","","","","","",""
"","image-keyboard-response","4","24724","0.0-4.0","","","","","44.89999997615814","img/flower2.png","76","45.700000047683716","3","1","3","1","1,0.333,0.333,0.333,1,0.333,0.333,0.333,1","1,0.333,0.333,0.333,1,0.333,0.333,0.333,1","1",""
"","html-keyboard-response","5","25035","0.0-5.0","","","","","null","<img src=""img/flower2.png"" style=""width:200px; border:14px solid green;"">","null","","","","","","","","",""
"","image-keyboard-response","6","25556","0.0-6.0","","","","","519.8000000119209","img/flower1.png","76","521.0999999642372","3","0","1","1","1,0.333,0.333,0.333,1,0.333,0.333,0.333,1","1,0.333,0.333,0.333,1,0.333,0.333,0.333,1","1",""
"","html-keyboard-response","7","25865","0.0-7.0","","","","","null","<img src=""img/flower1.png"" style=""width:200px;border:14px solid red;"">","null","","","","","","","","",""
"","image-keyboard-response","8","25947","0.0-8.0","","","","","81.19999998807907","img/flower2.png","75","82.39999997615814","2","0","3","1","1,0.333,0.333,0.333,1,0.333,0.333,0.333,1","1,0.333,0.333,0.333,1,0.333,0.333,0.333,1","1",""
"","html-keyboard-response","9","26254","0.0-9.0","","","","","null","<img src=""img/flower2.png"" style=""width:200px;border:14px solid red;"">","null","","","","","","","","",""
"","image-keyboard-response","10","26379","0.0-10.0","","","","","123.39999997615814","img/flower3.png","75","124.69999998807907","2","1","2","1","1,0.333,0.333,0.333,1,0.333,0.333,0.333,1","1,0.333,0.333,0.333,1,0.333,0.333,0.333,1","1",""
"","html-keyboard-response","11","26684","0.0-11.0","","","","","null","<img src=""img/flower3.png"" style=""width:200px; border:14px solid green;"">","null","","","","","","","","",""
"","image-keyboard-response","12","26756","0.0-12.0","","","","","70.79999995231628","img/flower1.png","75","72","2","1","1","1","1,0.333,0.333,0.333,1,0.333,0.333,0.333,1","1,0.333,0.333,0.333,1,0.333,0.333,0.333,1","1",""
"","html-keyboard-response","13","27070","0.0-13.0","","","","","null","<img src=""img/flower1.png"" style=""width:200px; border:14px solid green;"">","null","","","","","","","","",""
"","image-keyboard-response","14","27221","0.0-14.0","","","","","149.80000001192093","img/flower1.png","76","150.60000002384186","3","0","1","1","1,0.333,0.333,0.333,1,0.333,0.333,0.333,1","1,0.333,0.333,0.333,1,0.333,0.333,0.333,1","1",""
"","html-keyboard-response","15","27531","0.0-15.0","","","","","null","<img src=""img/flower1.png"" style=""width:200px;border:14px solid red;"">","null","","","","","","","","",""
"","image-keyboard-response","16","28036","0.0-16.0","","","","","504.19999998807907","img/flower3.png","74","505","1","1","2","1","1,0.333,0.333,0.333,1,0.333,0.333,0.333,1","1,0.333,0.333,0.333,1,0.333,0.333,0.333,1","1",""
"","html-keyboard-response","17","28346","0.0-17.0","","","","","null","<img src=""img/flower3.png"" style=""width:200px; border:14px solid green;"">","null","","","","","","","","",""
"","image-keyboard-response","18","28435","0.0-18.0","","","","","88.10000002384186","img/flower1.png","75","88.89999997615814","2","0","1","1","1,0.333,0.333,0.333,1,0.333,0.333,0.333,1","1,0.333,0.333,0.333,1,0.333,0.333,0.333,1","1",""
"","html-keyboard-response","19","28737","0.0-19.0","","","","","null","<img src=""img/flower1.png"" style=""width:200px;border:14px solid red;"">","null","","","","","","","","",""
"","image-keyboard-response","20","28876","0.0-20.0","","","","","137.5","img/flower3.png","75","138.4000000357628","2","1","2","1","1,0.333,0.333,0.333,1,0.333,0.333,0.333,1","1,0.333,0.333,0.333,1,0.333,0.333,0.333,1","1",""
"","html-keyboard-response","21","29193","0.0-21.0","","","","","null","<img src=""img/flower3.png"" style=""width:200px; border:14px solid green;"">","null","","","","","","","","",""
"","image-keyboard-response","22","29316","0.0-22.0","","","","","122.60000002384186","img/flower2.png","75","123.5","2","0","3","1","1,0.333,0.333,0.333,1,0.333,0.333,0.333,1","1,0.333,0.333,0.333,1,0.333,0.333,0.333,1","1",""
"","html-keyboard-response","23","29628","0.0-23.0","","","","","null","<img src=""img/flower2.png"" style=""width:200px;border:14px solid red;"">","null","","","","","","","","",""
"","image-keyboard-response","24","29803","0.0-24.0","","","","","174.0999999642372","img/flower1.png","75","174.89999997615814","2","0","1","1","1,0.333,0.333,0.333,1,0.333,0.333,0.333,1","1,0.333,0.333,0.333,1,0.333,0.333,0.333,1","1",""
"","html-keyboard-response","25","30108","0.0-25.0","","","","","null","<img src=""img/flower1.png"" style=""width:200px;border:14px solid red;"">","null","","","","","","","","",""
"","image-keyboard-response","26","30299","0.0-26.0","","","","","191","img/flower3.png","76","191.5999999642372","3","0","2","1","1,0.333,0.333,0.333,1,0.333,0.333,0.333,1","1,0.333,0.333,0.333,1,0.333,0.333,0.333,1","1",""
"","html-keyboard-response","27","30600","0.0-27.0","","","","","null","<img src=""img/flower3.png"" style=""width:200px;border:14px solid red;"">","null","","","","","","","","",""
"","image-keyboard-response","28","30788","0.0-28.0","","","","","186.60000002384186","img/flower3.png","74","187.30000001192093","1","0","2","1","1,0.333,0.333,0.333,1,0.333,0.333,0.333,1","1,0.333,0.333,0.333,1,0.333,0.333,0.333,1","1",""
"","html-keyboard-response","29","31090","0.0-29.0","","","","","null","<img src=""img/flower3.png"" style=""width:200px;border:14px solid red;"">","null","","","","","","","","",""
"","image-keyboard-response","30","31275","0.0-30.0","","","","","184.79999995231628","img/flower1.png","74","185.39999997615814","1","1","1","1","1,0.333,0.333,0.333,1,0.333,0.333,0.333,1","1,0.333,0.333,0.333,1,0.333,0.333,0.333,1","1",""
"","html-keyboard-response","31","31577","0.0-31.0","","","","","null","<img src=""img/flower1.png"" style=""width:200px; border:14px solid green;"">","null","","","","","","","","",""
"","image-keyboard-response","32","31595","0.0-32.0","","","","","16.900000035762787","img/flower2.png","75","17.69999998807907","2","0","3","1","1,0.333,0.333,0.333,1,0.333,0.333,0.333,1","1,0.333,0.333,0.333,1,0.333,0.333,0.333,1","1",""
"","html-keyboard-response","33","31897","0.0-33.0","","","","","null","<img src=""img/flower2.png"" style=""width:200px;border:14px solid red;"">","null","","","","","","","","",""
"","image-keyboard-response","34","31924","0.0-34.0","","","","","26.30000001192093","img/flower2.png","74","27.100000023841858","1","0","3","1","1,0.333,0.333,0.333,1,0.333,0.333,0.333,1","1,0.333,0.333,0.333,1,0.333,0.333,0.333,1","1",""
"","html-keyboard-response","35","32225","0.0-35.0","","","","","null","<img src=""img/flower2.png"" style=""width:200px;border:14px solid red;"">","null","","","","","","","","",""
"","image-keyboard-response","36","32395","0.0-36.0","","","","","168.5","img/flower2.png","74","169.5999999642372","1","0","3","1","1,0.333,0.333,0.333,1,0.333,0.333,0.333,1","1,0.333,0.333,0.333,1,0.333,0.333,0.333,1","1",""
"","html-keyboard-response","37","32697","0.0-37.0","","","","","null","<img src=""img/flower2.png"" style=""width:200px;border:14px solid red;"">","null","","","","","","","","",""
"","image-keyboard-response","38","32717","0.0-38.0","","","","","19","img/flower2.png","74","20.200000047683716","1","1","3","1","1,0.333,0.333,0.333,1,0.333,0.333,0.333,1","1,0.333,0.333,0.333,1,0.333,0.333,0.333,1","1",""
"","html-keyboard-response","39","33019","0.0-39.0","","","","","null","<img src=""img/flower2.png"" style=""width:200px; border:14px solid green;"">","null","","","","","","","","",""
"","image-keyboard-response","40","33156","0.0-40.0","","","","","136.69999998807907","img/flower2.png","74","137.4000000357628","1","0","3","1","1,0.333,0.333,0.333,1,0.333,0.333,0.333,1","1,0.333,0.333,0.333,1,0.333,0.333,0.333,1","1",""
"","html-keyboard-response","41","33457","0.0-41.0","","","","","null","<img src=""img/flower2.png"" style=""width:200px;border:14px solid red;"">","null","","","","","","","","",""
"","image-keyboard-response","42","33516","0.0-42.0","","","","","58.200000047683716","img/flower3.png","76","59.09999996423721","3","1","2","1","1,0.333,0.333,0.333,1,0.333,0.333,0.333,1","1,0.333,0.333,0.333,1,0.333,0.333,0.333,1","1",""
"","html-keyboard-response","43","33819","0.0-43.0","","","","","null","<img src=""img/flower3.png"" style=""width:200px; border:14px solid green;"">","null","","","","","","","","",""
"","image-keyboard-response","44","33892","0.0-44.0","","","","","71.5","img/flower1.png","75","72.80000001192093","2","0","1","1","1,0.333,0.333,0.333,1,0.333,0.333,0.333,1","1,0.333,0.333,0.333,1,0.333,0.333,0.333,1","1",""
"","html-keyboard-response","45","34194","0.0-45.0","","","","","null","<img src=""img/flower1.png"" style=""width:200px;border:14px solid red;"">","null","","","","","","","","",""
"","image-keyboard-response","46","34348","0.0-46.0","","","","","153.30000001192093","img/flower3.png","75","154","2","1","2","1","1,0.333,0.333,0.333,1,0.333,0.333,0.333,1","1,0.333,0.333,0.333,1,0.333,0.333,0.333,1","1",""
"","html-keyboard-response","47","34650","0.0-47.0","","","","","null","<img src=""img/flower3.png"" style=""width:200px; border:14px solid green;"">","null","","","","","","","","",""
"","image-keyboard-response","48","34700","0.0-48.0","","","","","48","img/flower1.png","75","49.30000001192093","2","1","1","1","1,0.333,0.333,0.333,1,0.333,0.333,0.333,1","1,0.333,0.333,0.333,1,0.333,0.333,0.333,1","1",""
"","html-keyboard-response","49","35002","0.0-49.0","","","","","null","<img src=""img/flower1.png"" style=""width:200px; border:14px solid green;"">","null","","","","","","","","",""
"","image-keyboard-response","50","35132","0.0-50.0","","","","","129.19999998807907","img/flower3.png","75","130.30000001192093","2","1","2","1","1,0.333,0.333,0.333,1,0.333,0.333,0.333,1","1,0.333,0.333,0.333,1,0.333,0.333,0.333,1","1",""
"","html-keyboard-response","51","35434","0.0-51.0","","","","","null","<img src=""img/flower3.png"" style=""width:200px; border:14px solid green;"">","null","","","","","","","","",""
"","image-keyboard-response","52","35699","0.0-52.0","","","","","265","img/flower1.png","75","265.69999998807907","2","0","1","1","1,0.333,0.333,0.333,1,0.333,0.333,0.333,1","1,0.333,0.333,0.333,1,0.333,0.333,0.333,1","1",""
"","html-keyboard-response","53","36001","0.0-53.0","","","","","null","<img src=""img/flower1.png"" style=""width:200px;border:14px solid red;"">","null","","","","","","","","",""
"","image-keyboard-response","54","36131","0.0-54.0","","","","","129.30000001192093","img/flower1.png","75","130.0999999642372","2","0","1","1","1,0.333,0.333,0.333,1,0.333,0.333,0.333,1","1,0.333,0.333,0.333,1,0.333,0.333,0.333,1","1",""
"","html-keyboard-response","55","36432","0.0-55.0","","","","","null","<img src=""img/flower1.png"" style=""width:200px;border:14px solid red;"">","null","","","","","","","","",""
"","image-keyboard-response","56","36516","0.0-56.0","","","","","83.19999998807907","img/flower1.png","76","84","3","1","1","1","1,0.333,0.333,0.333,1,0.333,0.333,0.333,1","1,0.333,0.333,0.333,1,0.333,0.333,0.333,1","1",""
"","html-keyboard-response","57","36819","0.0-57.0","","","","","null","<img src=""img/flower1.png"" style=""width:200px; border:14px solid green;"">","null","","","","","","","","",""
"","image-keyboard-response","58","36924","0.0-58.0","","","","","104.19999998807907","img/flower2.png","76","105.19999998807907","3","1","3","1","1,0.333,0.333,0.333,1,0.333,0.333,0.333,1","1,0.333,0.333,0.333,1,0.333,0.333,0.333,1","1",""
"","html-keyboard-response","59","37226","0.0-59.0","","","","","null","<img src=""img/flower2.png"" style=""width:200px; border:14px solid green;"">","null","","","","","","","","",""
"","image-keyboard-response","60","37483","0.0-60.0","","","","","256.89999997615814","img/flower3.png","74","257.69999998807907","1","0","2","1","1,0.333,0.333,0.333,1,0.333,0.333,0.333,1","1,0.333,0.333,0.333,1,0.333,0.333,0.333,1","1",""
"","html-keyboard-response","61","37785","0.0-61.0","","","","","null","<img src=""img/flower3.png"" style=""width:200px;border:14px solid red;"">","null","","","","","","","","",""
"","image-keyboard-response","62","37956","0.0-62.0","","","","","168.70000004768372","img/flower1.png","74","169.80000001192093","1","1","1","1","1,0.333,0.333,0.333,1,0.333,0.333,0.333,1","1,0.333,0.333,0.333,1,0.333,0.333,0.333,1","1",""
"","html-keyboard-response","63","38258","0.0-63.0","","","","","null","<img src=""img/flower1.png"" style=""width:200px; border:14px solid green;"">","null","","","","","","","","",""
"","image-keyboard-response","64","38276","0.0-64.0","","","","","17.100000023841858","img/flower3.png","74","17.69999998807907","1","0","2","1","1,0.333,0.333,0.333,1,0.333,0.333,0.333,1","1,0.333,0.333,0.333,1,0.333,0.333,0.333,1","1",""
"","html-keyboard-response","65","38578","0.0-65.0","","","","","null","<img src=""img/flower3.png"" style=""width:200px;border:14px solid red;"">","null","","","","","","","","",""
"","image-keyboard-response","66","38716","0.0-66.0","","","","","136.60000002384186","img/flower3.png","74","137.60000002384186","1","0","2","1","1,0.333,0.333,0.333,1,0.333,0.333,0.333,1","1,0.333,0.333,0.333,1,0.333,0.333,0.333,1","1",""
"","html-keyboard-response","67","39018","0.0-67.0","","","","","null","<img src=""img/flower3.png"" style=""width:200px;border:14px solid red;"">","null","","","","","","","","",""
"","image-keyboard-response","68","39020","0.0-68.0","","","","","0.09999996423721313","img/flower1.png","76","0.9000000357627869","3","1","1","1","1,0.333,0.333,0.333,1,0.333,0.333,0.333,1","1,0.333,0.333,0.333,1,0.333,0.333,0.333,1","1",""
"","html-keyboard-response","69","39320","0.0-69.0","","","","","null","<img src=""img/flower1.png"" style=""width:200px; border:14px solid green;"">","null","","","","","","","","",""
"","image-keyboard-response","70","39812","0.0-70.0","","","","","490.80000001192093","img/flower2.png","75","491.5","2","1","3","1","1,0.333,0.333,0.333,1,0.333,0.333,0.333,1","1,0.333,0.333,0.333,1,0.333,0.333,0.333,1","1",""
"","html-keyboard-response","71","40114","0.0-71.0","","","","","null","<img src=""img/flower2.png"" style=""width:200px; border:14px solid green;"">","null","","","","","","","","",""
"","image-keyboard-response","72","40228","0.0-72.0","","","","","113","img/flower2.png","75","114.10000002384186","2","1","3","1","1,0.333,0.333,0.333,1,0.333,0.333,0.333,1","1,0.333,0.333,0.333,1,0.333,0.333,0.333,1","1",""
"","html-keyboard-response","73","40530","0.0-73.0","","","","","null","<img src=""img/flower2.png"" style=""width:200px; border:14px solid green;"">","null","","","","","","","","",""
"","image-keyboard-response","74","40716","0.0-74.0","","","","","185.39999997615814","img/flower3.png","76","186.30000001192093","3","0","2","1","1,0.333,0.333,0.333,1,0.333,0.333,0.333,1","1,0.333,0.333,0.333,1,0.333,0.333,0.333,1","1",""
"","html-keyboard-response","75","41017","0.0-75.0","","","","","null","<img src=""img/flower3.png"" style=""width:200px;border:14px solid red;"">","null","","","","","","","","",""
"","image-keyboard-response","76","41124","0.0-76.0","","","","","105.70000004768372","img/flower3.png","76","106.30000001192093","3","1","2","1","1,0.333,0.333,0.333,1,0.333,0.333,0.333,1","1,0.333,0.333,0.333,1,0.333,0.333,0.333,1","1",""
"","html-keyboard-response","77","41426","0.0-77.0","","","","","null","<img src=""img/flower3.png"" style=""width:200px; border:14px solid green;"">","null","","","","","","","","",""
"","image-keyboard-response","78","41443","0.0-78.0","","","","","17.19999998807907","img/flower3.png","75","17.899999976158142","2","1","2","1","1,0.333,0.333,0.333,1,0.333,0.333,0.333,1","1,0.333,0.333,0.333,1,0.333,0.333,0.333,1","1",""
"","html-keyboard-response","79","41745","0.0-79.0","","","","","null","<img src=""img/flower3.png"" style=""width:200px; border:14px solid green;"">","null","","","","","","","","",""
"","image-keyboard-response","80","41924","0.0-80.0","","","","","178.30000001192093","img/flower2.png","74","179.5","1","0","3","1","1,0.333,0.333,0.333,1,0.333,0.333,0.333,1","1,0.333,0.333,0.333,1,0.333,0.333,0.333,1","1",""
"","html-keyboard-response","81","42226","0.0-81.0","","","","","null","<img src=""img/flower2.png"" style=""width:200px;border:14px solid red;"">","null","","","","","","","","",""
"","image-keyboard-response","82","42339","0.0-82.0","","","","","111.5","img/flower3.png","74","112.5","1","0","2","1","1,0.333,0.333,0.333,1,0.333,0.333,0.333,1","1,0.333,0.333,0.333,1,0.333,0.333,0.333,1","1",""
"","html-keyboard-response","83","42641","0.0-83.0","","","","","null","<img src=""img/flower3.png"" style=""width:200px;border:14px solid red;"">","null","","","","","","","","",""
"","image-keyboard-response","84","42692","0.0-84.0","","","","","50","img/flower2.png","75","51.19999998807907","2","1","3","1","1,0.333,0.333,0.333,1,0.333,0.333,0.333,1","1,0.333,0.333,0.333,1,0.333,0.333,0.333,1","1",""
"","html-keyboard-response","85","42995","0.0-85.0","","","","","null","<img src=""img/flower2.png"" style=""width:200px; border:14px solid green;"">","null","","","","","","","","",""
"","image-keyboard-response","86","43139","0.0-86.0","","","","","143.29999995231628","img/flower2.png","76","144.30000001192093","3","1","3","1","1,0.333,0.333,0.333,1,0.333,0.333,0.333,1","1,0.333,0.333,0.333,1,0.333,0.333,0.333,1","1",""
"","html-keyboard-response","87","43440","0.0-87.0","","","","","null","<img src=""img/flower2.png"" style=""width:200px; border:14px solid green;"">","null","","","","","","","","",""
"","image-keyboard-response","88","43516","0.0-88.0","","","","","75.09999996423721","img/flower2.png","76","75.70000004768372","3","1","3","1","1,0.333,0.333,0.333,1,0.333,0.333,0.333,1","1,0.333,0.333,0.333,1,0.333,0.333,0.333,1","1",""
"","html-keyboard-response","89","43818","0.0-89.0","","","","","null","<img src=""img/flower2.png"" style=""width:200px; border:14px solid green;"">","null","","","","","","","","",""
"","image-keyboard-response","90","43948","0.0-90.0","","","","","128.5","img/flower1.png","75","129.5","2","1","1","1","1,0.333,0.333,0.333,1,0.333,0.333,0.333,1","1,0.333,0.333,0.333,1,0.333,0.333,0.333,1","1",""
"","html-keyboard-response","91","44251","0.0-91.0","","","","","null","<img src=""img/flower1.png"" style=""width:200px; border:14px solid green;"">","null","","","","","","","","",""
"","image-keyboard-response","92","44427","0.0-92.0","","","","","175.5999999642372","img/flower3.png","74","176.60000002384186","1","0","2","1","1,0.333,0.333,0.333,1,0.333,0.333,0.333,1","1,0.333,0.333,0.333,1,0.333,0.333,0.333,1","1",""
"","html-keyboard-response","93","44728","0.0-93.0","","","","","null","<img src=""img/flower3.png"" style=""width:200px;border:14px solid red;"">","null","","","","","","","","",""
"","image-keyboard-response","94","44851","0.0-94.0","","","","","121.79999995231628","img/flower1.png","75","122.69999998807907","2","0","1","1","1,0.333,0.333,0.333,1,0.333,0.333,0.333,1","1,0.333,0.333,0.333,1,0.333,0.333,0.333,1","1",""
"","html-keyboard-response","95","45153","0.0-95.0","","","","","null","<img src=""img/flower1.png"" style=""width:200px;border:14px solid red;"">","null","","","","","","","","",""
"","image-keyboard-response","96","45203","0.0-96.0","","","","","49.60000002384186","img/flower2.png","75","50.299999952316284","2","0","3","1","1,0.333,0.333,0.333,1,0.333,0.333,0.333,1","1,0.333,0.333,0.333,1,0.333,0.333,0.333,1","1",""
"","html-keyboard-response","97","45505","0.0-97.0","","","","","null","<img src=""img/flower2.png"" style=""width:200px;border:14px solid red;"">","null","","","","","","","","",""
"","image-keyboard-response","98","45596","0.0-98.0","","","","","90.10000002384186","img/flower1.png","75","91.30000001192093","2","0","1","1","1,0.333,0.333,0.333,1,0.333,0.333,0.333,1","1,0.333,0.333,0.333,1,0.333,0.333,0.333,1","1",""
"","html-keyboard-response","99","45899","0.0-99.0","","","","","null","<img src=""img/flower1.png"" style=""width:200px;border:14px solid red;"">","null","","","","","","","","",""
"","image-keyboard-response","100","46020","0.0-100.0","","","","","120.09999996423721","img/flower2.png","76","121.5","3","1","3","1","1,0.333,0.333,0.333,1,0.333,0.333,0.333,1","1,0.333,0.333,0.333,1,0.333,0.333,0.333,1","1",""
"","html-keyboard-response","101","46323","0.0-101.0","","","","","null","<img src=""img/flower2.png"" style=""width:200px; border:14px solid green;"">","null","","","","","","","","",""
"","image-keyboard-response","102","46395","0.0-102.0","","","","","71.10000002384186","img/flower2.png","76","72.19999998807907","3","1","3","1","1,0.333,0.333,0.333,1,0.333,0.333,0.333,1","1,0.333,0.333,0.333,1,0.333,0.333,0.333,1","1",""
"","html-keyboard-response","103","46704","0.0-103.0","","","","","null","<img src=""img/flower2.png"" style=""width:200px; border:14px solid green;"">","null","","","","","","","","",""
"","image-keyboard-response","104","46788","0.0-104.0","","","","","83","img/flower1.png","74","84.09999996423721","1","1","1","1","1,0.333,0.333,0.333,1,0.333,0.333,0.333,1","1,0.333,0.333,0.333,1,0.333,0.333,0.333,1","1",""
"","html-keyboard-response","105","47090","0.0-105.0","","","","","null","<img src=""img/flower1.png"" style=""width:200px; border:14px solid green;"">","null","","","","","","","","",""
"","image-keyboard-response","106","47251","0.0-106.0","","","","","160.30000001192093","img/flower1.png","74","161.4000000357628","1","1","1","1","1,0.333,0.333,0.333,1,0.333,0.333,0.333,1","1,0.333,0.333,0.333,1,0.333,0.333,0.333,1","1",""
"","html-keyboard-response","107","47552","0.0-107.0","","","","","null","<img src=""img/flower1.png"" style=""width:200px; border:14px solid green;"">","null","","","","","","","","",""
"","image-keyboard-response","108","47596","0.0-108.0","","","","","42.19999998807907","img/flower2.png","74","43.30000001192093","1","0","3","1","1,0.333,0.333,0.333,1,0.333,0.333,0.333,1","1,0.333,0.333,0.333,1,0.333,0.333,0.333,1","1",""
"","html-keyboard-response","109","47900","0.0-109.0","","","","","null","<img src=""img/flower2.png"" style=""width:200px;border:14px solid red;"">","null","","","","","","","","",""
"","image-keyboard-response","110","48036","0.0-110.0","","","","","134.79999995231628","img/flower2.png","75","136","2","0","3","1","1,0.333,0.333,0.333,1,0.333,0.333,0.333,1","1,0.333,0.333,0.333,1,0.333,0.333,0.333,1","1",""
"","html-keyboard-response","111","48338","0.0-111.0","","","","","null","<img src=""img/flower2.png"" style=""width:200px;border:14px solid red;"">","null","","","","","","","","",""
"","image-keyboard-response","112","48403","0.0-112.0","","","","","64.5","img/flower3.png","75","65.39999997615814","2","1","2","1","1,0.333,0.333,0.333,1,0.333,0.333,0.333,1","1,0.333,0.333,0.333,1,0.333,0.333,0.333,1","1",""
"","html-keyboard-response","113","48705","0.0-113.0","","","","","null","<img src=""img/flower3.png"" style=""width:200px; border:14px solid green;"">","null","","","","","","","","",""
"","image-keyboard-response","114","48972","0.0-114.0","","","","","266","img/flower2.png","76","267.19999998807907","3","1","3","1","1,0.333,0.333,0.333,1,0.333,0.333,0.333,1","1,0.333,0.333,0.333,1,0.333,0.333,0.333,1","1",""
"","html-keyboard-response","115","49274","0.0-115.0","","","","","null","<img src=""img/flower2.png"" style=""width:200px; border:14px solid green;"">","null","","","","","","","","",""
"","image-keyboard-response","116","49372","0.0-116.0","","","","","96.89999997615814","img/flower3.png","76","97.60000002384186","3","0","2","1","1,0.333,0.333,0.333,1,0.333,0.333,0.333,1","1,0.333,0.333,0.333,1,0.333,0.333,0.333,1","1",""
"","html-keyboard-response","117","49674","0.0-117.0","","","","","null","<img src=""img/flower3.png"" style=""width:200px;border:14px solid red;"">","null","","","","","","","","",""
"","image-keyboard-response","118","49844","0.0-118.0","","","","","169.69999998807907","img/flower1.png","75","170.5","2","0","1","1","1,0.333,0.333,0.333,1,0.333,0.333,0.333,1","1,0.333,0.333,0.333,1,0.333,0.333,0.333,1","1",""
"","html-keyboard-response","119","50147","0.0-119.0","","","","","null","<img src=""img/flower1.png"" style=""width:200px;border:14px solid red;"">","null","","","","","","","","",""
"","image-keyboard-response","120","50211","0.0-120.0","","","","","63.5","img/flower3.png","75","64.39999997615814","2","1","2","1","1,0.333,0.333,0.333,1,0.333,0.333,0.333,1","1,0.333,0.333,0.333,1,0.333,0.333,0.333,1","1",""
"","html-keyboard-response","121","50514","0.0-121.0","","","","","null","<img src=""img/flower3.png"" style=""width:200px; border:14px solid green;"">","null","","","","","","","","",""
"","image-keyboard-response","122","50579","0.0-122.0","","","","","64.39999997615814","img/flower3.png","75","65.5","2","1","2","1","1,0.333,0.333,0.333,1,0.333,0.333,0.333,1","1,0.333,0.333,0.333,1,0.333,0.333,0.333,1","1",""
"","html-keyboard-response","123","50881","0.0-123.0","","","","","null","<img src=""img/flower3.png"" style=""width:200px; border:14px solid green;"">","null","","","","","","","","",""
"","image-keyboard-response","124","50988","0.0-124.0","","","","","105.30000001192093","img/flower2.png","75","106.19999998807907","2","1","3","1","1,0.333,0.333,0.333,1,0.333,0.333,0.333,1","1,0.333,0.333,0.333,1,0.333,0.333,0.333,1","1",""
"","html-keyboard-response","125","51290","0.0-125.0","","","","","null","<img src=""img/flower2.png"" style=""width:200px; border:14px solid green;"">","null","","","","","","","","",""
"","image-keyboard-response","126","51396","0.0-126.0","","","","","104","img/flower3.png","74","104.90000003576279","1","1","2","1","1,0.333,0.333,0.333,1,0.333,0.333,0.333,1","1,0.333,0.333,0.333,1,0.333,0.333,0.333,1","1",""
"","html-keyboard-response","127","51698","0.0-127.0","","","","","null","<img src=""img/flower3.png"" style=""width:200px; border:14px solid green;"">","null","","","","","","","","",""
"","image-keyboard-response","128","51820","0.0-128.0","","","","","120.80000001192093","img/flower3.png","74","122","1","0","2","1","1,0.333,0.333,0.333,1,0.333,0.333,0.333,1","1,0.333,0.333,0.333,1,0.333,0.333,0.333,1","1",""
"","html-keyboard-response","129","52121","0.0-129.0","","","","","null","<img src=""img/flower3.png"" style=""width:200px;border:14px solid red;"">","null","","","","","","","","",""
"","image-keyboard-response","130","52340","0.0-130.0","","","","","218","img/flower1.png","75","218.5999999642372","2","0","1","1","1,0.333,0.333,0.333,1,0.333,0.333,0.333,1","1,0.333,0.333,0.333,1,0.333,0.333,0.333,1","1",""
"","html-keyboard-response","131","52642","0.0-131.0","","","","","null","<img src=""img/flower1.png"" style=""width:200px;border:14px solid red;"">","null","","","","","","","","",""
"","image-keyboard-response","132","52788","0.0-132.0","","","","","145.19999998807907","img/flower1.png","74","146.0999999642372","1","1","1","1","1,0.333,0.333,0.333,1,0.333,0.333,0.333,1","1,0.333,0.333,0.333,1,0.333,0.333,0.333,1","1",""
"","html-keyboard-response","133","53089","0.0-133.0","","","","","null","<img src=""img/flower1.png"" style=""width:200px; border:14px solid green;"">","null","","","","","","","","",""
"","image-keyboard-response","134","53171","0.0-134.0","","","","","80.90000003576279","img/flower2.png","75","81.60000002384186","2","1","3","1","1,0.333,0.333,0.333,1,0.333,0.333,0.333,1","1,0.333,0.333,0.333,1,0.333,0.333,0.333,1","1",""
"","html-keyboard-response","135","53473","0.0-135.0","","","","","null","<img src=""img/flower2.png"" style=""width:200px; border:14px solid green;"">","null","","","","","","","","",""
"","image-keyboard-response","136","53588","0.0-136.0","","","","","113.5","img/flower1.png","76","114.5","3","0","1","1","1,0.333,0.333,0.333,1,0.333,0.333,0.333,1","1,0.333,0.333,0.333,1,0.333,0.333,0.333,1","1",""
"","html-keyboard-response","137","53889","0.0-137.0","","","","","null","<img src=""img/flower1.png"" style=""width:200px;border:14px solid red;"">","null","","","","","","","","",""
"","image-keyboard-response","138","53980","0.0-138.0","","","","","89.69999998807907","img/flower1.png","74","90.69999998807907","1","1","1","1","1,0.333,0.333,0.333,1,0.333,0.333,0.333,1","1,0.333,0.333,0.333,1,0.333,0.333,0.333,1","1",""
"","html-keyboard-response","139","54281","0.0-139.0","","","","","null","<img src=""img/flower1.png"" style=""width:200px; border:14px solid green;"">","null","","","","","","","","",""
"","image-keyboard-response","140","54291","0.0-140.0","","","","","8.900000035762787","img/flower1.png","75","9.700000047683716","2","0","1","1","1,0.333,0.333,0.333,1,0.333,0.333,0.333,1","1,0.333,0.333,0.333,1,0.333,0.333,0.333,1","1",""
"","html-keyboard-response","141","54593","0.0-141.0","","","","","null","<img src=""img/flower1.png"" style=""width:200px;border:14px solid red;"">","null","","","","","","","","",""
"","image-keyboard-response","142","54643","0.0-142.0","","","","","49.09999996423721","img/flower3.png","75","49.90000003576279","2","1","2","1","1,0.333,0.333,0.333,1,0.333,0.333,0.333,1","1,0.333,0.333,0.333,1,0.333,0.333,0.333,1","1",""
"","html-keyboard-response","143","54945","0.0-143.0","","","","","null","<img src=""img/flower3.png"" style=""width:200px; border:14px solid green;"">","null","","","","","","","","",""
"","image-keyboard-response","144","54980","0.0-144.0","","","","","34","img/flower2.png","75","35","2","0","3","1","1,0.333,0.333,0.333,1,0.333,0.333,0.333,1","1,0.333,0.333,0.333,1,0.333,0.333,0.333,1","1",""
"","html-keyboard-response","145","55282","0.0-145.0","","","","","null","<img src=""img/flower2.png"" style=""width:200px;border:14px solid red;"">","null","","","","","","","","",""
"","image-keyboard-response","146","55332","0.0-146.0","","","","","48.5","img/flower1.png","75","49.700000047683716","2","0","1","1","1,0.333,0.333,0.333,1,0.333,0.333,0.333,1","1,0.333,0.333,0.333,1,0.333,0.333,0.333,1","1",""
"","html-keyboard-response","147","55634","0.0-147.0","","","","","null","<img src=""img/flower1.png"" style=""width:200px;border:14px solid red;"">","null","","","","","","","","",""
"","image-keyboard-response","148","55739","0.0-148.0","","","","","103.80000001192093","img/flower2.png","74","104.79999995231628","1","1","3","1","1,0.333,0.333,0.333,1,0.333,0.333,0.333,1","1,0.333,0.333,0.333,1,0.333,0.333,0.333,1","1",""
"","html-keyboard-response","149","56040","0.0-149.0","","","","","null","<img src=""img/flower2.png"" style=""width:200px; border:14px solid green;"">","null","","","","","","","","",""
"","image-keyboard-response","150","56244","0.0-150.0","","","","","202.69999998807907","img/flower1.png","76","203.80000001192093","3","0","1","1","1,0.333,0.333,0.333,1,0.333,0.333,0.333,1","1,0.333,0.333,0.333,1,0.333,0.333,0.333,1","1",""
"","html-keyboard-response","151","56546","0.0-151.0","","","","","null","<img src=""img/flower1.png"" style=""width:200px;border:14px solid red;"">","null","","","","","","","","",""
"","image-keyboard-response","152","56716","0.0-152.0","","","","","168.39999997615814","img/flower2.png","75","169.4000000357628","2","0","3","1","1,0.333,0.333,0.333,1,0.333,0.333,0.333,1","1,0.333,0.333,0.333,1,0.333,0.333,0.333,1","1",""
"","html-keyboard-response","153","57017","0.0-153.0","","","","","null","<img src=""img/flower2.png"" style=""width:200px;border:14px solid red;"">","null","","","","","","","","",""
"","image-keyboard-response","154","57116","0.0-154.0","","","","","97.10000002384186","img/flower3.png","75","98","2","1","2","1","1,0.333,0.333,0.333,1,0.333,0.333,0.333,1","1,0.333,0.333,0.333,1,0.333,0.333,0.333,1","1",""
"","html-keyboard-response","155","57417","0.0-155.0","","","","","null","<img src=""img/flower3.png"" style=""width:200px; border:14px solid green;"">","null","","","","","","","","",""
"","image-keyboard-response","156","57491","0.0-156.0","","","","","73.19999998807907","img/flower1.png","75","73.69999998807907","2","1","1","1","1,0.333,0.333,0.333,1,0.333,0.333,0.333,1","1,0.333,0.333,0.333,1,0.333,0.333,0.333,1","1",""
"","html-keyboard-response","157","57794","0.0-157.0","","","","","null","<img src=""img/flower1.png"" style=""width:200px; border:14px solid green;"">","null","","","","","","","","",""
"","image-keyboard-response","158","58052","0.0-158.0","","","","","257.19999998807907","img/flower2.png","76","258.39999997615814","3","1","3","1","1,0.333,0.333,0.333,1,0.333,0.333,0.333,1","1,0.333,0.333,0.333,1,0.333,0.333,0.333,1","1",""
"","html-keyboard-response","159","58354","0.0-159.0","","","","","null","<img src=""img/flower2.png"" style=""width:200px; border:14px solid green;"">","null","","","","","","","","",""
"","image-keyboard-response","160","58460","0.0-160.0","","","","","104","img/flower1.png","76","105.20000004768372","3","1","1","1","1,0.333,0.333,0.333,1,0.333,0.333,0.333,1","1,0.333,0.333,0.333,1,0.333,0.333,0.333,1","1",""
"","html-keyboard-response","161","58761","0.0-161.0","","","","","null","<img src=""img/flower1.png"" style=""width:200px; border:14px solid green;"">","null","","","","","","","","",""
"","image-keyboard-response","162","58876","0.0-162.0","","","","","114.39999997615814","img/flower3.png","76","115","3","1","2","1","1,0.333,0.333,0.333,1,0.333,0.333,0.333,1","1,0.333,0.333,0.333,1,0.333,0.333,0.333,1","1",""
"","html-keyboard-response","163","59178","0.0-163.0","","","","","null","<img src=""img/flower3.png"" style=""width:200px; border:14px solid green;"">","null","","","","","","","","",""
"","image-keyboard-response","164","59252","0.0-164.0","","","","","73.29999995231628","img/flower3.png","74","73.89999997615814","1","1","2","1","1,0.333,0.333,0.333,1,0.333,0.333,0.333,1","1,0.333,0.333,0.333,1,0.333,0.333,0.333,1","1",""
"","html-keyboard-response","165","59555","0.0-165.0","","","","","null","<img src=""img/flower3.png"" style=""width:200px; border:14px solid green;"">","null","","","","","","","","",""
"","image-keyboard-response","166","59653","0.0-166.0","","","","","97.20000004768372","img/flower1.png","74","97.89999997615814","1","1","1","1","1,0.333,0.333,0.333,1,0.333,0.333,0.333,1","1,0.333,0.333,0.333,1,0.333,0.333,0.333,1","1",""
"","html-keyboard-response","167","59955","0.0-167.0","","","","","null","<img src=""img/flower1.png"" style=""width:200px; border:14px solid green;"">","null","","","","","","","","",""
"","image-keyboard-response","168","60092","0.0-168.0","","","","","136.10000002384186","img/flower2.png","74","137.10000002384186","1","0","3","1","1,0.333,0.333,0.333,1,0.333,0.333,0.333,1","1,0.333,0.333,0.333,1,0.333,0.333,0.333,1","1",""
"","html-keyboard-response","169","60393","0.0-169.0","","","","","null","<img src=""img/flower2.png"" style=""width:200px;border:14px solid red;"">","null","","","","","","","","",""
"","image-keyboard-response","170","60404","0.0-170.0","","","","","10.100000023841858","img/flower3.png","74","10.699999988079071","1","0","2","1","1,0.333,0.333,0.333,1,0.333,0.333,0.333,1","1,0.333,0.333,0.333,1,0.333,0.333,0.333,1","1",""
"","html-keyboard-response","171","60706","0.0-171.0","","","","","null","<img src=""img/flower3.png"" style=""width:200px;border:14px solid red;"">","null","","","","","","","","",""
"","image-keyboard-response","172","60829","0.0-172.0","","","","","121.40000003576279","img/flower2.png","75","122.60000002384186","2","0","3","1","1,0.333,0.333,0.333,1,0.333,0.333,0.333,1","1,0.333,0.333,0.333,1,0.333,0.333,0.333,1","1",""
"","html-keyboard-response","173","61131","0.0-173.0","","","","","null","<img src=""img/flower2.png"" style=""width:200px;border:14px solid red;"">","null","","","","","","","","",""
"","image-keyboard-response","174","61148","0.0-174.0","","","","","16.30000001192093","img/flower3.png","74","16.899999976158142","1","1","2","1","1,0.333,0.333,0.333,1,0.333,0.333,0.333,1","1,0.333,0.333,0.333,1,0.333,0.333,0.333,1","1",""
"","html-keyboard-response","175","61450","0.0-175.0","","","","","null","<img src=""img/flower3.png"" style=""width:200px; border:14px solid green;"">","null","","","","","","","","",""
"","image-keyboard-response","176","61524","0.0-176.0","","","","","73.69999998807907","img/flower2.png","76","74.39999997615814","3","1","3","1","1,0.333,0.333,0.333,1,0.333,0.333,0.333,1","1,0.333,0.333,0.333,1,0.333,0.333,0.333,1","1",""
"","html-keyboard-response","177","61826","0.0-177.0","","","","","null","<img src=""img/flower2.png"" style=""width:200px; border:14px solid green;"">","null","","","","","","","","",""
"","image-keyboard-response","178","61972","0.0-178.0","","","","","144.5","img/flower3.png","76","145.69999998807907","3","1","2","1","1,0.333,0.333,0.333,1,0.333,0.333,0.333,1","1,0.333,0.333,0.333,1,0.333,0.333,0.333,1","1",""
"","html-keyboard-response","179","62274","0.0-179.0","","","","","null","<img src=""img/flower3.png"" style=""width:200px; border:14px solid green;"">","null","","","","","","","","",""
"","image-keyboard-response","180","62356","0.0-180.0","","","","","81.30000001192093","img/flower3.png","76","82.09999996423721","3","1","2","1","1,0.333,0.333,0.333,1,0.333,0.333,0.333,1","1,0.333,0.333,0.333,1,0.333,0.333,0.333,1","1",""
"","html-keyboard-response","181","62658","0.0-181.0","","","","","null","<img src=""img/flower3.png"" style=""width:200px; border:14px solid green;"">","null","","","","","","","","",""
"","html-keyboard-response","182","64797","0.0-182.0","","","","","","","","","","","","","","","",""
"","image-keyboard-response","183","65420","0.0-183.0","","","","","622","img/flower5.png","75","623","2","1","1","2","1,0,0,1,1,0,1,0,1","0,1,0,0,1,1,1,1,0","3",""
"","html-keyboard-response","184","65721","0.0-184.0","","","","","null","<img src=""img/flower5.png"" style=""width:200px; border:14px solid green;"">","null","","","","","","","","",""
"","image-keyboard-response","185","65901","0.0-185.0","","","","","177.80000001192093","img/flower5.png","75","178.9000000357628","2","1","1","2","1,0,0,1,1,0,1,0,1","0,1,0,0,1,1,1,1,0","3",""
"","html-keyboard-response","186","66203","0.0-186.0","","","","","null","<img src=""img/flower5.png"" style=""width:200px; border:14px solid green;"">","null","","","","","","","","",""
"","image-keyboard-response","187","66493","0.0-187.0","","","","","289.19999998807907","img/flower6.png","76","290.0999999642372","3","1","2","2","1,0,0,1,1,0,1,0,1","0,1,0,0,1,1,1,1,0","3",""
"","html-keyboard-response","188","66795","0.0-188.0","","","","","null","<img src=""img/flower6.png"" style=""width:200px; border:14px solid green;"">","null","","","","","","","","",""
"","image-keyboard-response","189","66852","0.0-189.0","","","","","56.5","img/flower6.png","76","57.60000002384186","3","1","2","2","1,0,0,1,1,0,1,0,1","0,1,0,0,1,1,1,1,0","3",""
"","html-keyboard-response","190","67155","0.0-190.0","","","","","null","<img src=""img/flower6.png"" style=""width:200px; border:14px solid green;"">","null","","","","","","","","",""
"","image-keyboard-response","191","67167","0.0-191.0","","","","","10.899999976158142","img/flower4.png","75","11.900000035762787","2","1","3","2","1,0,0,1,1,0,1,0,1","0,1,0,0,1,1,1,1,0","3",""
"","html-keyboard-response","192","67478","0.0-192.0","","","","","null","<img src=""img/flower4.png"" style=""width:200px; border:14px solid green;"">","null","","","","","","","","",""
"","image-keyboard-response","193","67597","0.0-193.0","","","","","117.40000003576279","img/flower4.png","74","118.59999996423721","1","1","3","2","1,0,0,1,1,0,1,0,1","0,1,0,0,1,1,1,1,0","3",""
"","html-keyboard-response","194","67899","0.0-194.0","","","","","null","<img src=""img/flower4.png"" style=""width:200px; border:14px solid green;"">","null","","","","","","","","",""
"","image-keyboard-response","195","68012","0.0-195.0","","","","","111.30000001192093","img/flower4.png","74","112.30000001192093","1","1","3","2","1,0,0,1,1,0,1,0,1","0,1,0,0,1,1,1,1,0","3",""
"","html-keyboard-response","196","68314","0.0-196.0","","","","","null","<img src=""img/flower4.png"" style=""width:200px; border:14px solid green;"">","null","","","","","","","","",""
"","image-keyboard-response","197","68388","0.0-197.0","","","","","73.5","img/flower4.png","75","74.59999996423721","2","1","3","2","1,0,0,1,1,0,1,0,1","0,1,0,0,1,1,1,1,0","3",""
"","html-keyboard-response","198","68691","0.0-198.0","","","","","null","<img src=""img/flower4.png"" style=""width:200px; border:14px solid green;"">","null","","","","","","","","",""
"","image-keyboard-response","199","68829","0.0-199.0","","","","","136.60000002384186","img/flower5.png","76","137.80000001192093","3","0","1","2","1,0,0,1,1,0,1,0,1","0,1,0,0,1,1,1,1,0","3",""
"","html-keyboard-response","200","69131","0.0-200.0","","","","","null","<img src=""img/flower5.png"" style=""width:200px;border:14px solid red;"">","null","","","","","","","","",""
"","image-keyboard-response","201","69205","0.0-201.0","","","","","72.39999997615814","img/flower6.png","76","73.39999997615814","3","1","2","2","1,0,0,1,1,0,1,0,1","0,1,0,0,1,1,1,1,0","3",""
"","html-keyboard-response","202","69507","0.0-202.0","","","","","null","<img src=""img/flower6.png"" style=""width:200px; border:14px solid green;"">","null","","","","","","","","",""
"","image-keyboard-response","203","69645","0.0-203.0","","","","","136.5999999642372","img/flower6.png","75","137.80000001192093","2","1","2","2","1,0,0,1,1,0,1,0,1","0,1,0,0,1,1,1,1,0","3",""
"","html-keyboard-response","204","69946","0.0-204.0","","","","","null","<img src=""img/flower6.png"" style=""width:200px; border:14px solid green;"">","null","","","","","","","","",""
"","image-keyboard-response","205","70044","0.0-205.0","","","","","96.59999996423721","img/flower4.png","74","98","1","1","3","2","1,0,0,1,1,0,1,0,1","0,1,0,0,1,1,1,1,0","3",""
"","html-keyboard-response","206","70346","0.0-206.0","","","","","null","<img src=""img/flower4.png"" style=""width:200px; border:14px solid green;"">","null","","","","","","","","",""
"","image-keyboard-response","207","70533","0.0-207.0","","","","","185.70000004768372","img/flower4.png","75","186.89999997615814","2","1","3","2","1,0,0,1,1,0,1,0,1","0,1,0,0,1,1,1,1,0","3",""
"","html-keyboard-response","208","70836","0.0-208.0","","","","","null","<img src=""img/flower4.png"" style=""width:200px; border:14px solid green;"">","null","","","","","","","","",""
"","image-keyboard-response","209","71061","0.0-209.0","","","","","223.69999998807907","img/flower4.png","76","224.5999999642372","3","0","3","2","1,0,0,1,1,0,1,0,1","0,1,0,0,1,1,1,1,0","3",""
"","html-keyboard-response","210","71363","0.0-210.0","","","","","null","<img src=""img/flower4.png"" style=""width:200px;border:14px solid red;"">","null","","","","","","","","",""
"","image-keyboard-response","211","71476","0.0-211.0","","","","","112.09999996423721","img/flower5.png","75","113.30000001192093","2","1","1","2","1,0,0,1,1,0,1,0,1","0,1,0,0,1,1,1,1,0","3",""
"","html-keyboard-response","212","71778","0.0-212.0","","","","","null","<img src=""img/flower5.png"" style=""width:200px; border:14px solid green;"">","null","","","","","","","","",""
"","image-keyboard-response","213","71909","0.0-213.0","","","","","129.0999999642372","img/flower5.png","74","130.4000000357628","1","0","1","2","1,0,0,1,1,0,1,0,1","0,1,0,0,1,1,1,1,0","3",""
"","html-keyboard-response","214","72211","0.0-214.0","","","","","null","<img src=""img/flower5.png"" style=""width:200px;border:14px solid red;"">","null","","","","","","","","",""
"","image-keyboard-response","215","72332","0.0-215.0","","","","","120","img/flower6.png","75","121.30000001192093","2","1","2","2","1,0,0,1,1,0,1,0,1","0,1,0,0,1,1,1,1,0","3",""
"","html-keyboard-response","216","72634","0.0-216.0","","","","","null","<img src=""img/flower6.png"" style=""width:200px; border:14px solid green;"">","null","","","","","","","","",""
"","image-keyboard-response","217","72716","0.0-217.0","","","","","80.90000003576279","img/flower4.png","75","82","2","1","3","2","1,0,0,1,1,0,1,0,1","0,1,0,0,1,1,1,1,0","3",""
"","html-keyboard-response","218","73018","0.0-218.0","","","","","null","<img src=""img/flower4.png"" style=""width:200px; border:14px solid green;"">","null","","","","","","","","",""
"","image-keyboard-response","219","73069","0.0-219.0","","","","","49.80000001192093","img/flower6.png","76","51","3","1","2","2","1,0,0,1,1,0,1,0,1","0,1,0,0,1,1,1,1,0","3",""
"","html-keyboard-response","220","73370","0.0-220.0","","","","","null","<img src=""img/flower6.png"" style=""width:200px; border:14px solid green;"">","null","","","","","","","","",""
"","image-keyboard-response","221","73404","0.0-221.0","","","","","33","img/flower5.png","75","33.59999996423721","2","1","1","2","1,0,0,1,1,0,1,0,1","0,1,0,0,1,1,1,1,0","3",""
"","html-keyboard-response","222","73705","0.0-222.0","","","","","null","<img src=""img/flower5.png"" style=""width:200px; border:14px solid green;"">","null","","","","","","","","",""
"","image-keyboard-response","223","73925","0.0-223.0","","","","","218","img/flower5.png","74","219","1","0","1","2","1,0,0,1,1,0,1,0,1","0,1,0,0,1,1,1,1,0","3",""
"","html-keyboard-response","224","74227","0.0-224.0","","","","","null","<img src=""img/flower5.png"" style=""width:200px;border:14px solid red;"">","null","","","","","","","","",""
"","image-keyboard-response","225","74357","0.0-225.0","","","","","128.5","img/flower6.png","75","129.89999997615814","2","1","2","2","1,0,0,1,1,0,1,0,1","0,1,0,0,1,1,1,1,0","3",""
"","html-keyboard-response","226","74660","0.0-226.0","","","","","null","<img src=""img/flower6.png"" style=""width:200px; border:14px solid green;"">","null","","","","","","","","",""
"","image-keyboard-response","227","74741","0.0-227.0","","","","","79.59999996423721","img/flower5.png","75","80.59999996423721","2","1","1","2","1,0,0,1,1,0,1,0,1","0,1,0,0,1,1,1,1,0","3",""
"","html-keyboard-response","228","75042","0.0-228.0","","","","","null","<img src=""img/flower5.png"" style=""width:200px; border:14px solid green;"">","null","","","","","","","","",""
"","image-keyboard-response","229","75116","0.0-229.0","","","","","72.40000003576279","img/flower6.png","75","73.39999997615814","2","1","2","2","1,0,0,1,1,0,1,0,1","0,1,0,0,1,1,1,1,0","3",""
"","html-keyboard-response","230","75420","0.0-230.0","","","","","null","<img src=""img/flower6.png"" style=""width:200px; border:14px solid green;"">","null","","","","","","","","",""
"","image-keyboard-response","231","75477","0.0-231.0","","","","","56","img/flower5.png","74","56.80000001192093","1","0","1","2","1,0,0,1,1,0,1,0,1","0,1,0,0,1,1,1,1,0","3",""
"","html-keyboard-response","232","75779","0.0-232.0","","","","","null","<img src=""img/flower5.png"" style=""width:200px;border:14px solid red;"">","null","","","","","","","","",""
"","image-keyboard-response","233","75893","0.0-233.0","","","","","112.10000002384186","img/flower5.png","74","113.30000001192093","1","0","1","2","1,0,0,1,1,0,1,0,1","0,1,0,0,1,1,1,1,0","3",""
"","html-keyboard-response","234","76195","0.0-234.0","","","","","null","<img src=""img/flower5.png"" style=""width:200px;border:14px solid red;"">","null","","","","","","","","",""
"","image-keyboard-response","235","76317","0.0-235.0","","","","","120.89999997615814","img/flower4.png","75","121.89999997615814","2","1","3","2","1,0,0,1,1,0,1,0,1","0,1,0,0,1,1,1,1,0","3",""
"","html-keyboard-response","236","76619","0.0-236.0","","","","","null","<img src=""img/flower4.png"" style=""width:200px; border:14px solid green;"">","null","","","","","","","","",""
"","image-keyboard-response","237","76693","0.0-237.0","","","","","72.30000001192093","img/flower5.png","74","73.5","1","0","1","2","1,0,0,1,1,0,1,0,1","0,1,0,0,1,1,1,1,0","3",""
"","html-keyboard-response","238","76994","0.0-238.0","","","","","null","<img src=""img/flower5.png"" style=""width:200px;border:14px solid red;"">","null","","","","","","","","",""
"","image-keyboard-response","239","77036","0.0-239.0","","","","","40.69999998807907","img/flower5.png","74","41.59999996423721","1","0","1","2","1,0,0,1,1,0,1,0,1","0,1,0,0,1,1,1,1,0","3",""
"","html-keyboard-response","240","77348","0.0-240.0","","","","","null","<img src=""img/flower5.png"" style=""width:200px;border:14px solid red;"">","null","","","","","","","","",""
"","image-keyboard-response","241","77372","0.0-241.0","","","","","22.899999976158142","img/flower6.png","74","23.80000001192093","1","0","2","2","1,0,0,1,1,0,1,0,1","0,1,0,0,1,1,1,1,0","3",""
"","html-keyboard-response","242","77673","0.0-242.0","","","","","null","<img src=""img/flower6.png"" style=""width:200px;border:14px solid red;"">","null","","","","","","","","",""
"","image-keyboard-response","243","77756","0.0-243.0","","","","","82.60000002384186","img/flower6.png","74","83.59999996423721","1","0","2","2","1,0,0,1,1,0,1,0,1","0,1,0,0,1,1,1,1,0","3",""
"","html-keyboard-response","244","78058","0.0-244.0","","","","","null","<img src=""img/flower6.png"" style=""width:200px;border:14px solid red;"">","null","","","","","","","","",""
"","image-keyboard-response","245","78180","0.0-245.0","","","","","120.70000004768372","img/flower4.png","75","121.69999998807907","2","1","3","2","1,0,0,1,1,0,1,0,1","0,1,0,0,1,1,1,1,0","3",""
"","html-keyboard-response","246","78482","0.0-246.0","","","","","null","<img src=""img/flower4.png"" style=""width:200px; border:14px solid green;"">","null","","","","","","","","",""
"","image-keyboard-response","247","78533","0.0-247.0","","","","","49","img/flower4.png","75","50","2","1","3","2","1,0,0,1,1,0,1,0,1","0,1,0,0,1,1,1,1,0","3",""
"","html-keyboard-response","248","78835","0.0-248.0","","","","","null","<img src=""img/flower4.png"" style=""width:200px; border:14px solid green;"">","null","","","","","","","","",""
"","image-keyboard-response","249","78901","0.0-249.0","","","","","64.89999997615814","img/flower4.png","76","66","3","0","3","2","1,0,0,1,1,0,1,0,1","0,1,0,0,1,1,1,1,0","3",""
"","html-keyboard-response","250","79202","0.0-250.0","","","","","null","<img src=""img/flower4.png"" style=""width:200px;border:14px solid red;"">","null","","","","","","","","",""
"","image-keyboard-response","251","79277","0.0-251.0","","","","","72.79999995231628","img/flower5.png","76","74","3","0","1","2","1,0,0,1,1,0,1,0,1","0,1,0,0,1,1,1,1,0","3",""
"","html-keyboard-response","252","79578","0.0-252.0","","","","","null","<img src=""img/flower5.png"" style=""width:200px;border:14px solid red;"">","null","","","","","","","","",""
"","image-keyboard-response","253","79653","0.0-253.0","","","","","73.39999997615814","img/flower6.png","76","74.19999998807907","3","1","2","2","1,0,0,1,1,0,1,0,1","0,1,0,0,1,1,1,1,0","3",""
"","html-keyboard-response","254","79955","0.0-254.0","","","","","null","<img src=""img/flower6.png"" style=""width:200px; border:14px solid green;"">","null","","","","","","","","",""
"","image-keyboard-response","255","80052","0.0-255.0","","","","","96.20000004768372","img/flower4.png","75","97.39999997615814","2","1","3","2","1,0,0,1,1,0,1,0,1","0,1,0,0,1,1,1,1,0","3",""
"","html-keyboard-response","256","80355","0.0-256.0","","","","","null","<img src=""img/flower4.png"" style=""width:200px; border:14px solid green;"">","null","","","","","","","","",""
"","image-keyboard-response","257","80420","0.0-257.0","","","","","64.09999996423721","img/flower4.png","76","65.20000004768372","3","0","3","2","1,0,0,1,1,0,1,0,1","0,1,0,0,1,1,1,1,0","3",""
"","html-keyboard-response","258","80722","0.0-258.0","","","","","null","<img src=""img/flower4.png"" style=""width:200px;border:14px solid red;"">","null","","","","","","","","",""
"","image-keyboard-response","259","80781","0.0-259.0","","","","","57.5","img/flower4.png","76","59.60000002384186","3","0","3","2","1,0,0,1,1,0,1,0,1","0,1,0,0,1,1,1,1,0","3",""
"","html-keyboard-response","260","81083","0.0-260.0","","","","","null","<img src=""img/flower4.png"" style=""width:200px;border:14px solid red;"">","null","","","","","","","","",""
"","image-keyboard-response","261","81092","0.0-261.0","","","","","7.900000035762787","img/flower4.png","76","8.699999988079071","3","0","3","2","1,0,0,1,1,0,1,0,1","0,1,0,0,1,1,1,1,0","3",""
"","html-keyboard-response","262","81393","0.0-262.0","","","","","null","<img src=""img/flower4.png"" style=""width:200px;border:14px solid red;"">","null","","","","","","","","",""
"","image-keyboard-response","263","81628","0.0-263.0","","","","","234.4000000357628","img/flower4.png","74","235","1","1","3","2","1,0,0,1,1,0,1,0,1","0,1,0,0,1,1,1,1,0","3",""
"","html-keyboard-response","264","81929","0.0-264.0","","","","","null","<img src=""img/flower4.png"" style=""width:200px; border:14px solid green;"">","null","","","","","","","","",""
"","image-keyboard-response","265","81957","0.0-265.0","","","","","26.19999998807907","img/flower6.png","74","27.19999998807907","1","0","2","2","1,0,0,1,1,0,1,0,1","0,1,0,0,1,1,1,1,0","3",""
"","html-keyboard-response","266","82259","0.0-266.0","","","","","null","<img src=""img/flower6.png"" style=""width:200px;border:14px solid red;"">","null","","","","","","","","",""
"","image-keyboard-response","267","82284","0.0-267.0","","","","","24","img/flower5.png","74","24.799999952316284","1","0","1","2","1,0,0,1,1,0,1,0,1","0,1,0,0,1,1,1,1,0","3",""
"","html-keyboard-response","268","82586","0.0-268.0","","","","","null","<img src=""img/flower5.png"" style=""width:200px;border:14px solid red;"">","null","","","","","","","","",""
"","image-keyboard-response","269","82693","0.0-269.0","","","","","105.39999997615814","img/flower6.png","75","106.5","2","1","2","2","1,0,0,1,1,0,1,0,1","0,1,0,0,1,1,1,1,0","3",""
"","html-keyboard-response","270","82995","0.0-270.0","","","","","null","<img src=""img/flower6.png"" style=""width:200px; border:14px solid green;"">","null","","","","","","","","",""
"","image-keyboard-response","271","83077","0.0-271.0","","","","","80.19999998807907","img/flower5.png","75","81.30000001192093","2","1","1","2","1,0,0,1,1,0,1,0,1","0,1,0,0,1,1,1,1,0","3",""
"","html-keyboard-response","272","83379","0.0-272.0","","","","","null","<img src=""img/flower5.png"" style=""width:200px; border:14px solid green;"">","null","","","","","","","","",""
"","image-keyboard-response","273","83477","0.0-273.0","","","","","97.19999998807907","img/flower5.png","75","98","2","1","1","2","1,0,0,1,1,0,1,0,1","0,1,0,0,1,1,1,1,0","3",""
"","html-keyboard-response","274","83778","0.0-274.0","","","","","null","<img src=""img/flower5.png"" style=""width:200px; border:14px solid green;"">","null","","","","","","","","",""
"","image-keyboard-response","275","83900","0.0-275.0","","","","","120.69999998807907","img/flower4.png","74","121.80000001192093","1","1","3","2","1,0,0,1,1,0,1,0,1","0,1,0,0,1,1,1,1,0","3",""
"","html-keyboard-response","276","84202","0.0-276.0","","","","","null","<img src=""img/flower4.png"" style=""width:200px; border:14px solid green;"">","null","","","","","","","","",""
"","image-keyboard-response","277","84380","0.0-277.0","","","","","176.5","img/flower6.png","76","177.5","3","1","2","2","1,0,0,1,1,0,1,0,1","0,1,0,0,1,1,1,1,0","3",""
"","html-keyboard-response","278","84682","0.0-278.0","","","","","null","<img src=""img/flower6.png"" style=""width:200px; border:14px solid green;"">","null","","","","","","","","",""
"","image-keyboard-response","279","84869","0.0-279.0","","","","","185.80000001192093","img/flower6.png","75","186.89999997615814","2","1","2","2","1,0,0,1,1,0,1,0,1","0,1,0,0,1,1,1,1,0","3",""
"","html-keyboard-response","280","85171","0.0-280.0","","","","","null","<img src=""img/flower6.png"" style=""width:200px; border:14px solid green;"">","null","","","","","","","","",""
"","image-keyboard-response","281","85820","0.0-281.0","","","","","648.1000000238419","img/flower4.png","75","648.8000000119209","2","1","3","2","1,0,0,1,1,0,1,0,1","0,1,0,0,1,1,1,1,0","3",""
"","html-keyboard-response","282","86122","0.0-282.0","","","","","null","<img src=""img/flower4.png"" style=""width:200px; border:14px solid green;"">","null","","","","","","","","",""
"","image-keyboard-response","283","86420","0.0-283.0","","","","","297.5999999642372","img/flower6.png","76","298.0999999642372","3","1","2","2","1,0,0,1,1,0,1,0,1","0,1,0,0,1,1,1,1,0","3",""
"","html-keyboard-response","284","86721","0.0-284.0","","","","","null","<img src=""img/flower6.png"" style=""width:200px; border:14px solid green;"">","null","","","","","","","","",""
"","image-keyboard-response","285","86853","0.0-285.0","","","","","130.39999997615814","img/flower6.png","76","131.4000000357628","3","1","2","2","1,0,0,1,1,0,1,0,1","0,1,0,0,1,1,1,1,0","3",""
"","html-keyboard-response","286","87155","0.0-286.0","","","","","null","<img src=""img/flower6.png"" style=""width:200px; border:14px solid green;"">","null","","","","","","","","",""
"","image-keyboard-response","287","87613","0.0-287.0","","","","","456.30000001192093","img/flower4.png","74","457.4000000357628","1","1","3","2","1,0,0,1,1,0,1,0,1","0,1,0,0,1,1,1,1,0","3",""
"","html-keyboard-response","288","87915","0.0-288.0","","","","","null","<img src=""img/flower4.png"" style=""width:200px; border:14px solid green;"">","null","","","","","","","","",""
"","image-keyboard-response","289","87982","0.0-289.0","","","","","66.19999998807907","img/flower6.png","74","67.30000001192093","1","0","2","2","1,0,0,1,1,0,1,0,1","0,1,0,0,1,1,1,1,0","3",""
"","html-keyboard-response","290","88284","0.0-290.0","","","","","null","<img src=""img/flower6.png"" style=""width:200px;border:14px solid red;"">","null","","","","","","","","",""
"","image-keyboard-response","291","88294","0.0-291.0","","","","","8.199999988079071","img/flower4.png","74","9.300000011920929","1","1","3","2","1,0,0,1,1,0,1,0,1","0,1,0,0,1,1,1,1,0","3",""
"","html-keyboard-response","292","88596","0.0-292.0","","","","","null","<img src=""img/flower4.png"" style=""width:200px; border:14px solid green;"">","null","","","","","","","","",""
"","image-keyboard-response","293","88684","0.0-293.0","","","","","87.30000001192093","img/flower5.png","74","88.30000001192093","1","0","1","2","1,0,0,1,1,0,1,0,1","0,1,0,0,1,1,1,1,0","3",""
"","html-keyboard-response","294","88986","0.0-294.0","","","","","null","<img src=""img/flower5.png"" style=""width:200px;border:14px solid red;"">","null","","","","","","","","",""
"","image-keyboard-response","295","89148","0.0-295.0","","","","","160.4000000357628","img/flower6.png","76","161.5","3","1","2","2","1,0,0,1,1,0,1,0,1","0,1,0,0,1,1,1,1,0","3",""
"","html-keyboard-response","296","89450","0.0-296.0","","","","","null","<img src=""img/flower6.png"" style=""width:200px; border:14px solid green;"">","null","","","","","","","","",""
"","image-keyboard-response","297","89548","0.0-297.0","","","","","97.60000002384186","img/flower5.png","76","98.10000002384186","3","0","1","2","1,0,0,1,1,0,1,0,1","0,1,0,0,1,1,1,1,0","3",""
"","html-keyboard-response","298","89850","0.0-298.0","","","","","null","<img src=""img/flower5.png"" style=""width:200px;border:14px solid red;"">","null","","","","","","","","",""
"","image-keyboard-response","299","89885","0.0-299.0","","","","","33.60000002384186","img/flower5.png","76","34.69999998807907","3","0","1","2","1,0,0,1,1,0,1,0,1","0,1,0,0,1,1,1,1,0","3",""
"","html-keyboard-response","300","90187","0.0-300.0","","","","","null","<img src=""img/flower5.png"" style=""width:200px;border:14px solid red;"">","null","","","","","","","","",""
"","image-keyboard-response","301","90517","0.0-301.0","","","","","328.69999998807907","img/flower4.png","75","329.9000000357628","2","1","3","2","1,0,0,1,1,0,1,0,1","0,1,0,0,1,1,1,1,0","3",""
"","html-keyboard-response","302","90818","0.0-302.0","","","","","null","<img src=""img/flower4.png"" style=""width:200px; border:14px solid green;"">","null","","","","","","","","",""
"","image-keyboard-response","303","90933","0.0-303.0","","","","","113.5","img/flower4.png","75","114.30000001192093","2","1","3","2","1,0,0,1,1,0,1,0,1","0,1,0,0,1,1,1,1,0","3",""
"","html-keyboard-response","304","91249","0.0-304.0","","","","","null","<img src=""img/flower4.png"" style=""width:200px; border:14px solid green;"">","null","","","","","","","","",""
"","image-keyboard-response","305","91525","0.0-305.0","","","","","274.0999999642372","img/flower5.png","74","275.39999997615814","1","0","1","2","1,0,0,1,1,0,1,0,1","0,1,0,0,1,1,1,1,0","3",""
"","html-keyboard-response","306","91827","0.0-306.0","","","","","null","<img src=""img/flower5.png"" style=""width:200px;border:14px solid red;"">","null","","","","","","","","",""
"","image-keyboard-response","307","91957","0.0-307.0","","","","","126.80000001192093","img/flower6.png","74","127.59999996423721","1","0","2","2","1,0,0,1,1,0,1,0,1","0,1,0,0,1,1,1,1,0","3",""
"","html-keyboard-response","308","92259","0.0-308.0","","","","","null","<img src=""img/flower6.png"" style=""width:200px;border:14px solid red;"">","null","","","","","","","","",""
"","image-keyboard-response","309","92324","0.0-309.0","","","","","64","img/flower6.png","74","65.10000002384186","1","0","2","2","1,0,0,1,1,0,1,0,1","0,1,0,0,1,1,1,1,0","3",""
"","html-keyboard-response","310","92626","0.0-310.0","","","","","null","<img src=""img/flower6.png"" style=""width:200px;border:14px solid red;"">","null","","","","","","","","",""
"","image-keyboard-response","311","92796","0.0-311.0","","","","","169","img/flower6.png","76","169.9000000357628","3","1","2","2","1,0,0,1,1,0,1,0,1","0,1,0,0,1,1,1,1,0","3",""
"","html-keyboard-response","312","93097","0.0-312.0","","","","","null","<img src=""img/flower6.png"" style=""width:200px; border:14px solid green;"">","null","","","","","","","","",""
"","image-keyboard-response","313","93101","0.0-313.0","","","","","2.5","img/flower6.png","74","3.399999976158142","1","0","2","2","1,0,0,1,1,0,1,0,1","0,1,0,0,1,1,1,1,0","3",""
"","html-keyboard-response","314","93402","0.0-314.0","","","","","null","<img src=""img/flower6.png"" style=""width:200px;border:14px solid red;"">","null","","","","","","","","",""
"","image-keyboard-response","315","93492","0.0-315.0","","","","","89.69999998807907","img/flower4.png","74","90.5","1","1","3","2","1,0,0,1,1,0,1,0,1","0,1,0,0,1,1,1,1,0","3",""
"","html-keyboard-response","316","93794","0.0-316.0","","","","","null","<img src=""img/flower4.png"" style=""width:200px; border:14px solid green;"">","null","","","","","","","","",""
"","image-keyboard-response","317","93812","0.0-317.0","","","","","17.399999976158142","img/flower5.png","74","18.399999976158142","1","0","1","2","1,0,0,1,1,0,1,0,1","0,1,0,0,1,1,1,1,0","3",""
"","html-keyboard-response","318","94115","0.0-318.0","","","","","null","<img src=""img/flower5.png"" style=""width:200px;border:14px solid red;"">","null","","","","","","","","",""
"","image-keyboard-response","319","94188","0.0-319.0","","","","","72.39999997615814","img/flower4.png","76","73.09999996423721","3","0","3","2","1,0,0,1,1,0,1,0,1","0,1,0,0,1,1,1,1,0","3",""
"","html-keyboard-response","320","94489","0.0-320.0","","","","","null","<img src=""img/flower4.png"" style=""width:200px;border:14px solid red;"">","null","","","","","","","","",""
"","image-keyboard-response","321","94572","0.0-321.0","","","","","81.80000001192093","img/flower5.png","76","82.80000001192093","3","0","1","2","1,0,0,1,1,0,1,0,1","0,1,0,0,1,1,1,1,0","3",""
"","html-keyboard-response","322","94873","0.0-322.0","","","","","null","<img src=""img/flower5.png"" style=""width:200px;border:14px solid red;"">","null","","","","","","","","",""
"","image-keyboard-response","323","94957","0.0-323.0","","","","","82.69999998807907","img/flower6.png","76","83.40000003576279","3","1","2","2","1,0,0,1,1,0,1,0,1","0,1,0,0,1,1,1,1,0","3",""
"","html-keyboard-response","324","95258","0.0-324.0","","","","","null","<img src=""img/flower6.png"" style=""width:200px; border:14px solid green;"">","null","","","","","","","","",""
"","image-keyboard-response","325","95396","0.0-325.0","","","","","136.89999997615814","img/flower4.png","75","138","2","1","3","2","1,0,0,1,1,0,1,0,1","0,1,0,0,1,1,1,1,0","3",""
"","html-keyboard-response","326","95697","0.0-326.0","","","","","null","<img src=""img/flower4.png"" style=""width:200px; border:14px solid green;"">","null","","","","","","","","",""
"","image-keyboard-response","327","95764","0.0-327.0","","","","","66.39999997615814","img/flower6.png","76","67.30000001192093","3","1","2","2","1,0,0,1,1,0,1,0,1","0,1,0,0,1,1,1,1,0","3",""
"","html-keyboard-response","328","96067","0.0-328.0","","","","","null","<img src=""img/flower6.png"" style=""width:200px; border:14px solid green;"">","null","","","","","","","","",""
"","image-keyboard-response","329","96069","0.0-329.0","","","","","0.699999988079071","img/flower4.png","76","1.699999988079071","3","0","3","2","1,0,0,1,1,0,1,0,1","0,1,0,0,1,1,1,1,0","3",""
"","html-keyboard-response","330","96371","0.0-330.0","","","","","null","<img src=""img/flower4.png"" style=""width:200px;border:14px solid red;"">","null","","","","","","","","",""
"","image-keyboard-response","331","96373","0.0-331.0","","","","","0.8999999761581421","img/flower5.png","76","1.800000011920929","3","0","1","2","1,0,0,1,1,0,1,0,1","0,1,0,0,1,1,1,1,0","3",""
"","html-keyboard-response","332","96674","0.0-332.0","","","","","null","<img src=""img/flower5.png"" style=""width:200px;border:14px solid red;"">","null","","","","","","","","",""
"","image-keyboard-response","333","96685","0.0-333.0","","","","","10","img/flower6.png","76","11","3","1","2","2","1,0,0,1,1,0,1,0,1","0,1,0,0,1,1,1,1,0","3",""
"","html-keyboard-response","334","96987","0.0-334.0","","","","","null","<img src=""img/flower6.png"" style=""width:200px; border:14px solid green;"">","null","","","","","","","","",""
"","image-keyboard-response","335","97077","0.0-335.0","","","","","88.5","img/flower5.png","76","89.69999998807907","3","0","1","2","1,0,0,1,1,0,1,0,1","0,1,0,0,1,1,1,1,0","3",""
"","html-keyboard-response","336","97378","0.0-336.0","","","","","null","<img src=""img/flower5.png"" style=""width:200px;border:14px solid red;"">","null","","","","","","","","",""
"","image-keyboard-response","337","97444","0.0-337.0","","","","","64.69999998807907","img/flower4.png","76","65.5","3","0","3","2","1,0,0,1,1,0,1,0,1","0,1,0,0,1,1,1,1,0","3",""
"","html-keyboard-response","338","97746","0.0-338.0","","","","","null","<img src=""img/flower4.png"" style=""width:200px;border:14px solid red;"">","null","","","","","","","","",""
"","image-keyboard-response","339","97941","0.0-339.0","","","","","193.79999995231628","img/flower6.png","75","194.9000000357628","2","1","2","2","1,0,0,1,1,0,1,0,1","0,1,0,0,1,1,1,1,0","3",""
"","html-keyboard-response","340","98242","0.0-340.0","","","","","null","<img src=""img/flower6.png"" style=""width:200px; border:14px solid green;"">","null","","","","","","","","",""
"","image-keyboard-response","341","98460","0.0-341.0","","","","","217.0999999642372","img/flower5.png","74","217.69999998807907","1","0","1","2","1,0,0,1,1,0,1,0,1","0,1,0,0,1,1,1,1,0","3",""
"","html-keyboard-response","342","98761","0.0-342.0","","","","","null","<img src=""img/flower5.png"" style=""width:200px;border:14px solid red;"">","null","","","","","","","","",""
"","image-keyboard-response","343","98900","0.0-343.0","","","","","137.60000002384186","img/flower5.png","74","138.60000002384186","1","0","1","2","1,0,0,1,1,0,1,0,1","0,1,0,0,1,1,1,1,0","3",""
"","html-keyboard-response","344","99202","0.0-344.0","","","","","null","<img src=""img/flower5.png"" style=""width:200px;border:14px solid red;"">","null","","","","","","","","",""
"","image-keyboard-response","345","99285","0.0-345.0","","","","","81.69999998807907","img/flower5.png","75","83","2","1","1","2","1,0,0,1,1,0,1,0,1","0,1,0,0,1,1,1,1,0","3",""
"","html-keyboard-response","346","99587","0.0-346.0","","","","","null","<img src=""img/flower5.png"" style=""width:200px; border:14px solid green;"">","null","","","","","","","","",""
"","image-keyboard-response","347","99612","0.0-347.0","","","","","24.099999964237213","img/flower5.png","75","25","2","1","1","2","1,0,0,1,1,0,1,0,1","0,1,0,0,1,1,1,1,0","3",""
"","html-keyboard-response","348","99913","0.0-348.0","","","","","null","<img src=""img/flower5.png"" style=""width:200px; border:14px solid green;"">","null","","","","","","","","",""
"","image-keyboard-response","349","100013","0.0-349.0","","","","","98.5","img/flower4.png","74","99.5","1","1","3","2","1,0,0,1,1,0,1,0,1","0,1,0,0,1,1,1,1,0","3",""
"","html-keyboard-response","350","100315","0.0-350.0","","","","","null","<img src=""img/flower4.png"" style=""width:200px; border:14px solid green;"">","null","","","","","","","","",""
"","image-keyboard-response","351","100685","0.0-351.0","","","","","368.4000000357628","img/flower5.png","76","369.5999999642372","3","0","1","2","1,0,0,1,1,0,1,0,1","0,1,0,0,1,1,1,1,0","3",""
"","html-keyboard-response","352","100987","0.0-352.0","","","","","null","<img src=""img/flower5.png"" style=""width:200px;border:14px solid red;"">","null","","","","","","","","",""
"","image-keyboard-response","353","101229","0.0-353.0","","","","","240.5","img/flower6.png","76","241.9000000357628","3","1","2","2","1,0,0,1,1,0,1,0,1","0,1,0,0,1,1,1,1,0","3",""
"","html-keyboard-response","354","101531","0.0-354.0","","","","","null","<img src=""img/flower6.png"" style=""width:200px; border:14px solid green;"">","null","","","","","","","","",""
"","image-keyboard-response","355","101605","0.0-355.0","","","","","72.89999997615814","img/flower6.png","75","73.80000001192093","2","1","2","2","1,0,0,1,1,0,1,0,1","0,1,0,0,1,1,1,1,0","3",""
"","html-keyboard-response","356","101906","0.0-356.0","","","","","null","<img src=""img/flower6.png"" style=""width:200px; border:14px solid green;"">","null","","","","","","","","",""
"","image-keyboard-response","357","102069","0.0-357.0","","","","","161.69999998807907","img/flower5.png","76","162.39999997615814","3","0","1","2","1,0,0,1,1,0,1,0,1","0,1,0,0,1,1,1,1,0","3",""
"","html-keyboard-response","358","102371","0.0-358.0","","","","","null","<img src=""img/flower5.png"" style=""width:200px;border:14px solid red;"">","null","","","","","","","","",""
"","image-keyboard-response","359","102501","0.0-359.0","","","","","128.5","img/flower4.png","75","129.30000001192093","2","1","3","2","1,0,0,1,1,0,1,0,1","0,1,0,0,1,1,1,1,0","3",""
"","html-keyboard-response","360","102803","0.0-360.0","","","","","null","<img src=""img/flower4.png"" style=""width:200px; border:14px solid green;"">","null","","","","","","","","",""
"","image-keyboard-response","361","103060","0.0-361.0","","","","","256.5","img/flower6.png","76","257.5999999642372","3","1","2","2","1,0,0,1,1,0,1,0,1","0,1,0,0,1,1,1,1,0","3",""
"","html-keyboard-response","362","103363","0.0-362.0","","","","","null","<img src=""img/flower6.png"" style=""width:200px; border:14px solid green;"">","null","","","","","","","","",""
"","instructions","363","104808","0.0-363.0","","","","[{""page_index"":0,""viewing_time"":1445}]","1445.2000000476837","","","","","","","","","","",""
"","survey-text","364","109664","0.0-364.0","","","","","4852.5","","","","","","","","","","","{""Q0"":""A2KDYSLV030FVX""}"
