"rt","url","trial_type","trial_index","time_elapsed","internal_node_id","assignmentID","mturkID","hitID","success","view_history","stimulus","key_press","reactionTime","a","r","s","reward_cond","responses"
"13889.5","consent.html","external-html","0","13926","0.0-0.0","3N4BPTXIO9ET730V0FSKXJSRUHYUKE","A2KW87ZD2ELYNG","3H6W48L9F4B5OEOMH57RM53Z4H1WP0","","","","","","","","","",""
"","","fullscreen","1","22332","0.0-1.0","3N4BPTXIO9ET730V0FSKXJSRUHYUKE","A2KW87ZD2ELYNG","3H6W48L9F4B5OEOMH57RM53Z4H1WP0","true","","","","","","","","",""
"103654.5","","instructions","2","125996","0.0-2.0","3N4BPTXIO9ET730V0FSKXJSRUHYUKE","A2KW87ZD2ELYNG","3H6W48L9F4B5OEOMH57RM53Z4H1WP0","","[{""page_index"":0,""viewing_time"":18731},{""page_index"":1,""viewing_time"":9465.899999856949},{""page_index"":2,""viewing_time"":7474.800000190735},{""page_index"":3,""viewing_time"":21418.39999985695},{""page_index"":4,""viewing_time"":6903.600000143051},{""page_index"":3,""viewing_time"":3999.5999999046326},{""page_index"":4,""viewing_time"":8779.900000095367},{""page_index"":5,""viewing_time"":19626.799999952316},{""page_index"":6,""viewing_time"":7254}]","","","","","","","",""
"17571.300000190735","","instructions","3","143567","0.0-3.0","3N4BPTXIO9ET730V0FSKXJSRUHYUKE","A2KW87ZD2ELYNG","3H6W48L9F4B5OEOMH57RM53Z4H1WP0","","[{""page_index"":0,""viewing_time"":17571}]","","","","","","","",""
"1697.3999998569489","","image-keyboard-response","4","145266","0.0-4.0","3N4BPTXIO9ET730V0FSKXJSRUHYUKE","A2KW87ZD2ELYNG","3H6W48L9F4B5OEOMH57RM53Z4H1WP0","","","img/flower4.png","74","1698.7000000476837","1","1","1","",""
"null","","html-keyboard-response","5","145572","0.0-5.0","3N4BPTXIO9ET730V0FSKXJSRUHYUKE","A2KW87ZD2ELYNG","3H6W48L9F4B5OEOMH57RM53Z4H1WP0","","","<img src=""img/flower4.png"" style=""width:200px; border:14px solid green;"">","null","","","","","",""
"691.2000000476837","","image-keyboard-response","6","146264","0.0-6.0","3N4BPTXIO9ET730V0FSKXJSRUHYUKE","A2KW87ZD2ELYNG","3H6W48L9F4B5OEOMH57RM53Z4H1WP0","","","img/flower5.png","75","691.6999998092651","2","0","2","",""
"null","","html-keyboard-response","7","146572","0.0-7.0","3N4BPTXIO9ET730V0FSKXJSRUHYUKE","A2KW87ZD2ELYNG","3H6W48L9F4B5OEOMH57RM53Z4H1WP0","","","<img src=""img/flower5.png"" style=""width:200px;border:14px solid red;"">","null","","","","","",""
"679.2000000476837","","image-keyboard-response","8","147252","0.0-8.0","3N4BPTXIO9ET730V0FSKXJSRUHYUKE","A2KW87ZD2ELYNG","3H6W48L9F4B5OEOMH57RM53Z4H1WP0","","","img/flower4.png","74","679.7999999523163","1","0","1","",""
"null","","html-keyboard-response","9","147556","0.0-9.0","3N4BPTXIO9ET730V0FSKXJSRUHYUKE","A2KW87ZD2ELYNG","3H6W48L9F4B5OEOMH57RM53Z4H1WP0","","","<img src=""img/flower4.png"" style=""width:200px;border:14px solid red;"">","null","","","","","",""
"791.4000000953674","","image-keyboard-response","10","148348","0.0-10.0","3N4BPTXIO9ET730V0FSKXJSRUHYUKE","A2KW87ZD2ELYNG","3H6W48L9F4B5OEOMH57RM53Z4H1WP0","","","img/flower6.png","76","792","3","1","3","",""
"null","","html-keyboard-response","11","148652","0.0-11.0","3N4BPTXIO9ET730V0FSKXJSRUHYUKE","A2KW87ZD2ELYNG","3H6W48L9F4B5OEOMH57RM53Z4H1WP0","","","<img src=""img/flower6.png"" style=""width:200px; border:14px solid green;"">","null","","","","","",""
"1801.8999998569489","","image-keyboard-response","12","150454","0.0-12.0","3N4BPTXIO9ET730V0FSKXJSRUHYUKE","A2KW87ZD2ELYNG","3H6W48L9F4B5OEOMH57RM53Z4H1WP0","","","img/flower6.png","76","1802.3999998569489","3","1","3","",""
"null","","html-keyboard-response","13","150756","0.0-13.0","3N4BPTXIO9ET730V0FSKXJSRUHYUKE","A2KW87ZD2ELYNG","3H6W48L9F4B5OEOMH57RM53Z4H1WP0","","","<img src=""img/flower6.png"" style=""width:200px; border:14px solid green;"">","null","","","","","",""
"1038.2999999523163","","image-keyboard-response","14","151795","0.0-14.0","3N4BPTXIO9ET730V0FSKXJSRUHYUKE","A2KW87ZD2ELYNG","3H6W48L9F4B5OEOMH57RM53Z4H1WP0","","","img/flower6.png","76","1038.7999999523163","3","1","3","",""
"null","","html-keyboard-response","15","152100","0.0-15.0","3N4BPTXIO9ET730V0FSKXJSRUHYUKE","A2KW87ZD2ELYNG","3H6W48L9F4B5OEOMH57RM53Z4H1WP0","","","<img src=""img/flower6.png"" style=""width:200px; border:14px solid green;"">","null","","","","","",""
"1271.5","","image-keyboard-response","16","153372","0.0-16.0","3N4BPTXIO9ET730V0FSKXJSRUHYUKE","A2KW87ZD2ELYNG","3H6W48L9F4B5OEOMH57RM53Z4H1WP0","","","img/flower6.png","76","1272","3","1","3","",""
"null","","html-keyboard-response","17","153676","0.0-17.0","3N4BPTXIO9ET730V0FSKXJSRUHYUKE","A2KW87ZD2ELYNG","3H6W48L9F4B5OEOMH57RM53Z4H1WP0","","","<img src=""img/flower6.png"" style=""width:200px; border:14px solid green;"">","null","","","","","",""
"917.5","","image-keyboard-response","18","154594","0.0-18.0","3N4BPTXIO9ET730V0FSKXJSRUHYUKE","A2KW87ZD2ELYNG","3H6W48L9F4B5OEOMH57RM53Z4H1WP0","","","img/flower4.png","74","918.1000001430511","1","1","1","",""
"null","","html-keyboard-response","19","154900","0.0-19.0","3N4BPTXIO9ET730V0FSKXJSRUHYUKE","A2KW87ZD2ELYNG","3H6W48L9F4B5OEOMH57RM53Z4H1WP0","","","<img src=""img/flower4.png"" style=""width:200px; border:14px solid green;"">","null","","","","","",""
"718.2999999523163","","image-keyboard-response","20","155619","0.0-20.0","3N4BPTXIO9ET730V0FSKXJSRUHYUKE","A2KW87ZD2ELYNG","3H6W48L9F4B5OEOMH57RM53Z4H1WP0","","","img/flower6.png","76","718.9000000953674","3","1","3","",""
"null","","html-keyboard-response","21","155924","0.0-21.0","3N4BPTXIO9ET730V0FSKXJSRUHYUKE","A2KW87ZD2ELYNG","3H6W48L9F4B5OEOMH57RM53Z4H1WP0","","","<img src=""img/flower6.png"" style=""width:200px; border:14px solid green;"">","null","","","","","",""
"661.7999999523163","","image-keyboard-response","22","156587","0.0-22.0","3N4BPTXIO9ET730V0FSKXJSRUHYUKE","A2KW87ZD2ELYNG","3H6W48L9F4B5OEOMH57RM53Z4H1WP0","","","img/flower4.png","74","662.4000000953674","1","1","1","",""
"null","","html-keyboard-response","23","156892","0.0-23.0","3N4BPTXIO9ET730V0FSKXJSRUHYUKE","A2KW87ZD2ELYNG","3H6W48L9F4B5OEOMH57RM53Z4H1WP0","","","<img src=""img/flower4.png"" style=""width:200px; border:14px solid green;"">","null","","","","","",""
"800.5999999046326","","image-keyboard-response","24","157693","0.0-24.0","3N4BPTXIO9ET730V0FSKXJSRUHYUKE","A2KW87ZD2ELYNG","3H6W48L9F4B5OEOMH57RM53Z4H1WP0","","","img/flower4.png","74","801","1","1","1","",""
"null","","html-keyboard-response","25","157996","0.0-25.0","3N4BPTXIO9ET730V0FSKXJSRUHYUKE","A2KW87ZD2ELYNG","3H6W48L9F4B5OEOMH57RM53Z4H1WP0","","","<img src=""img/flower4.png"" style=""width:200px; border:14px solid green;"">","null","","","","","",""
"975.5","","image-keyboard-response","26","158972","0.0-26.0","3N4BPTXIO9ET730V0FSKXJSRUHYUKE","A2KW87ZD2ELYNG","3H6W48L9F4B5OEOMH57RM53Z4H1WP0","","","img/flower5.png","75","976.2000000476837","2","1","2","",""
"null","","html-keyboard-response","27","159276","0.0-27.0","3N4BPTXIO9ET730V0FSKXJSRUHYUKE","A2KW87ZD2ELYNG","3H6W48L9F4B5OEOMH57RM53Z4H1WP0","","","<img src=""img/flower5.png"" style=""width:200px; border:14px solid green;"">","null","","","","","",""
"724.7999999523163","","image-keyboard-response","28","160001","0.0-28.0","3N4BPTXIO9ET730V0FSKXJSRUHYUKE","A2KW87ZD2ELYNG","3H6W48L9F4B5OEOMH57RM53Z4H1WP0","","","img/flower5.png","75","725.4000000953674","2","1","2","",""
"null","","html-keyboard-response","29","160308","0.0-29.0","3N4BPTXIO9ET730V0FSKXJSRUHYUKE","A2KW87ZD2ELYNG","3H6W48L9F4B5OEOMH57RM53Z4H1WP0","","","<img src=""img/flower5.png"" style=""width:200px; border:14px solid green;"">","null","","","","","",""
"483.2000000476837","","image-keyboard-response","30","160792","0.0-30.0","3N4BPTXIO9ET730V0FSKXJSRUHYUKE","A2KW87ZD2ELYNG","3H6W48L9F4B5OEOMH57RM53Z4H1WP0","","","img/flower5.png","75","483.69999980926514","2","1","2","",""
"null","","html-keyboard-response","31","161100","0.0-31.0","3N4BPTXIO9ET730V0FSKXJSRUHYUKE","A2KW87ZD2ELYNG","3H6W48L9F4B5OEOMH57RM53Z4H1WP0","","","<img src=""img/flower5.png"" style=""width:200px; border:14px solid green;"">","null","","","","","",""
"621.0999999046326","","image-keyboard-response","32","161722","0.0-32.0","3N4BPTXIO9ET730V0FSKXJSRUHYUKE","A2KW87ZD2ELYNG","3H6W48L9F4B5OEOMH57RM53Z4H1WP0","","","img/flower6.png","76","621.9000000953674","3","1","3","",""
"null","","html-keyboard-response","33","162028","0.0-33.0","3N4BPTXIO9ET730V0FSKXJSRUHYUKE","A2KW87ZD2ELYNG","3H6W48L9F4B5OEOMH57RM53Z4H1WP0","","","<img src=""img/flower6.png"" style=""width:200px; border:14px solid green;"">","null","","","","","",""
"549.1000001430511","","image-keyboard-response","34","162578","0.0-34.0","3N4BPTXIO9ET730V0FSKXJSRUHYUKE","A2KW87ZD2ELYNG","3H6W48L9F4B5OEOMH57RM53Z4H1WP0","","","img/flower4.png","74","549.6000001430511","1","1","1","",""
"null","","html-keyboard-response","35","162884","0.0-35.0","3N4BPTXIO9ET730V0FSKXJSRUHYUKE","A2KW87ZD2ELYNG","3H6W48L9F4B5OEOMH57RM53Z4H1WP0","","","<img src=""img/flower4.png"" style=""width:200px; border:14px solid green;"">","null","","","","","",""
"1233.2999999523163","","image-keyboard-response","36","164118","0.0-36.0","3N4BPTXIO9ET730V0FSKXJSRUHYUKE","A2KW87ZD2ELYNG","3H6W48L9F4B5OEOMH57RM53Z4H1WP0","","","img/flower6.png","75","1234.0999999046326","2","0","3","",""
"null","","html-keyboard-response","37","164420","0.0-37.0","3N4BPTXIO9ET730V0FSKXJSRUHYUKE","A2KW87ZD2ELYNG","3H6W48L9F4B5OEOMH57RM53Z4H1WP0","","","<img src=""img/flower6.png"" style=""width:200px;border:14px solid red;"">","null","","","","","",""
"899.0999999046326","","image-keyboard-response","38","165320","0.0-38.0","3N4BPTXIO9ET730V0FSKXJSRUHYUKE","A2KW87ZD2ELYNG","3H6W48L9F4B5OEOMH57RM53Z4H1WP0","","","img/flower4.png","74","899.6000001430511","1","1","1","",""
"null","","html-keyboard-response","39","165628","0.0-39.0","3N4BPTXIO9ET730V0FSKXJSRUHYUKE","A2KW87ZD2ELYNG","3H6W48L9F4B5OEOMH57RM53Z4H1WP0","","","<img src=""img/flower4.png"" style=""width:200px; border:14px solid green;"">","null","","","","","",""
"949.5999999046326","","image-keyboard-response","40","166578","0.0-40.0","3N4BPTXIO9ET730V0FSKXJSRUHYUKE","A2KW87ZD2ELYNG","3H6W48L9F4B5OEOMH57RM53Z4H1WP0","","","img/flower5.png","75","950.2000000476837","2","1","2","",""
"null","","html-keyboard-response","41","166884","0.0-41.0","3N4BPTXIO9ET730V0FSKXJSRUHYUKE","A2KW87ZD2ELYNG","3H6W48L9F4B5OEOMH57RM53Z4H1WP0","","","<img src=""img/flower5.png"" style=""width:200px; border:14px solid green;"">","null","","","","","",""
"959.1999998092651","","image-keyboard-response","42","167844","0.0-42.0","3N4BPTXIO9ET730V0FSKXJSRUHYUKE","A2KW87ZD2ELYNG","3H6W48L9F4B5OEOMH57RM53Z4H1WP0","","","img/flower5.png","75","959.8999998569489","2","1","2","",""
"null","","html-keyboard-response","43","168148","0.0-43.0","3N4BPTXIO9ET730V0FSKXJSRUHYUKE","A2KW87ZD2ELYNG","3H6W48L9F4B5OEOMH57RM53Z4H1WP0","","","<img src=""img/flower5.png"" style=""width:200px; border:14px solid green;"">","null","","","","","",""
"483.2999999523163","","image-keyboard-response","44","168632","0.0-44.0","3N4BPTXIO9ET730V0FSKXJSRUHYUKE","A2KW87ZD2ELYNG","3H6W48L9F4B5OEOMH57RM53Z4H1WP0","","","img/flower5.png","75","483.90000009536743","2","1","2","",""
"null","","html-keyboard-response","45","168940","0.0-45.0","3N4BPTXIO9ET730V0FSKXJSRUHYUKE","A2KW87ZD2ELYNG","3H6W48L9F4B5OEOMH57RM53Z4H1WP0","","","<img src=""img/flower5.png"" style=""width:200px; border:14px solid green;"">","null","","","","","",""
"607.8999998569489","","image-keyboard-response","46","169548","0.0-46.0","3N4BPTXIO9ET730V0FSKXJSRUHYUKE","A2KW87ZD2ELYNG","3H6W48L9F4B5OEOMH57RM53Z4H1WP0","","","img/flower6.png","76","608.5","3","0","3","",""
"null","","html-keyboard-response","47","169852","0.0-47.0","3N4BPTXIO9ET730V0FSKXJSRUHYUKE","A2KW87ZD2ELYNG","3H6W48L9F4B5OEOMH57RM53Z4H1WP0","","","<img src=""img/flower6.png"" style=""width:200px;border:14px solid red;"">","null","","","","","",""
"1286.6000001430511","","image-keyboard-response","48","171139","0.0-48.0","3N4BPTXIO9ET730V0FSKXJSRUHYUKE","A2KW87ZD2ELYNG","3H6W48L9F4B5OEOMH57RM53Z4H1WP0","","","img/flower6.png","76","1287.1999998092651","3","0","3","",""
"null","","html-keyboard-response","49","171444","0.0-49.0","3N4BPTXIO9ET730V0FSKXJSRUHYUKE","A2KW87ZD2ELYNG","3H6W48L9F4B5OEOMH57RM53Z4H1WP0","","","<img src=""img/flower6.png"" style=""width:200px;border:14px solid red;"">","null","","","","","",""
"1008.2000000476837","","image-keyboard-response","50","172453","0.0-50.0","3N4BPTXIO9ET730V0FSKXJSRUHYUKE","A2KW87ZD2ELYNG","3H6W48L9F4B5OEOMH57RM53Z4H1WP0","","","img/flower6.png","76","1008.7999999523163","3","1","3","",""
"null","","html-keyboard-response","51","172756","0.0-51.0","3N4BPTXIO9ET730V0FSKXJSRUHYUKE","A2KW87ZD2ELYNG","3H6W48L9F4B5OEOMH57RM53Z4H1WP0","","","<img src=""img/flower6.png"" style=""width:200px; border:14px solid green;"">","null","","","","","",""
"1178.8000001907349","","image-keyboard-response","52","173935","0.0-52.0","3N4BPTXIO9ET730V0FSKXJSRUHYUKE","A2KW87ZD2ELYNG","3H6W48L9F4B5OEOMH57RM53Z4H1WP0","","","img/flower4.png","74","1179.4000000953674","1","1","1","",""
"null","","html-keyboard-response","53","174244","0.0-53.0","3N4BPTXIO9ET730V0FSKXJSRUHYUKE","A2KW87ZD2ELYNG","3H6W48L9F4B5OEOMH57RM53Z4H1WP0","","","<img src=""img/flower4.png"" style=""width:200px; border:14px solid green;"">","null","","","","","",""
"705.7000000476837","","image-keyboard-response","54","174950","0.0-54.0","3N4BPTXIO9ET730V0FSKXJSRUHYUKE","A2KW87ZD2ELYNG","3H6W48L9F4B5OEOMH57RM53Z4H1WP0","","","img/flower4.png","74","706.1999998092651","1","1","1","",""
"null","","html-keyboard-response","55","175252","0.0-55.0","3N4BPTXIO9ET730V0FSKXJSRUHYUKE","A2KW87ZD2ELYNG","3H6W48L9F4B5OEOMH57RM53Z4H1WP0","","","<img src=""img/flower4.png"" style=""width:200px; border:14px solid green;"">","null","","","","","",""
"1122.8999998569489","","image-keyboard-response","56","176376","0.0-56.0","3N4BPTXIO9ET730V0FSKXJSRUHYUKE","A2KW87ZD2ELYNG","3H6W48L9F4B5OEOMH57RM53Z4H1WP0","","","img/flower5.png","75","1123.6999998092651","2","1","2","",""
"null","","html-keyboard-response","57","176684","0.0-57.0","3N4BPTXIO9ET730V0FSKXJSRUHYUKE","A2KW87ZD2ELYNG","3H6W48L9F4B5OEOMH57RM53Z4H1WP0","","","<img src=""img/flower5.png"" style=""width:200px; border:14px solid green;"">","null","","","","","",""
"410.89999985694885","","image-keyboard-response","58","177096","0.0-58.0","3N4BPTXIO9ET730V0FSKXJSRUHYUKE","A2KW87ZD2ELYNG","3H6W48L9F4B5OEOMH57RM53Z4H1WP0","","","img/flower5.png","75","411.59999990463257","2","0","2","",""
"null","","html-keyboard-response","59","177404","0.0-59.0","3N4BPTXIO9ET730V0FSKXJSRUHYUKE","A2KW87ZD2ELYNG","3H6W48L9F4B5OEOMH57RM53Z4H1WP0","","","<img src=""img/flower5.png"" style=""width:200px;border:14px solid red;"">","null","","","","","",""
"580.7000000476837","","image-keyboard-response","60","177985","0.0-60.0","3N4BPTXIO9ET730V0FSKXJSRUHYUKE","A2KW87ZD2ELYNG","3H6W48L9F4B5OEOMH57RM53Z4H1WP0","","","img/flower4.png","76","581.1999998092651","3","0","1","",""
"null","","html-keyboard-response","61","178292","0.0-61.0","3N4BPTXIO9ET730V0FSKXJSRUHYUKE","A2KW87ZD2ELYNG","3H6W48L9F4B5OEOMH57RM53Z4H1WP0","","","<img src=""img/flower4.png"" style=""width:200px;border:14px solid red;"">","null","","","","","",""
"2846.100000143051","","image-keyboard-response","62","181139","0.0-62.0","3N4BPTXIO9ET730V0FSKXJSRUHYUKE","A2KW87ZD2ELYNG","3H6W48L9F4B5OEOMH57RM53Z4H1WP0","","","img/flower5.png","75","2846.399999856949","2","1","2","",""
"null","","html-keyboard-response","63","181444","0.0-63.0","3N4BPTXIO9ET730V0FSKXJSRUHYUKE","A2KW87ZD2ELYNG","3H6W48L9F4B5OEOMH57RM53Z4H1WP0","","","<img src=""img/flower5.png"" style=""width:200px; border:14px solid green;"">","null","","","","","",""
"48845","","instructions","64","230290","0.0-64.0","3N4BPTXIO9ET730V0FSKXJSRUHYUKE","A2KW87ZD2ELYNG","3H6W48L9F4B5OEOMH57RM53Z4H1WP0","","[{""page_index"":0,""viewing_time"":6659.899999856949},{""page_index"":1,""viewing_time"":42185}]","","","","","","","",""
"2700.2000000476837","","image-keyboard-response","65","232991","0.0-65.0","3N4BPTXIO9ET730V0FSKXJSRUHYUKE","A2KW87ZD2ELYNG","3H6W48L9F4B5OEOMH57RM53Z4H1WP0","","","img/flower5.png","75","2700.9000000953674","2","1","2","",""
"null","","html-keyboard-response","66","233292","0.0-66.0","3N4BPTXIO9ET730V0FSKXJSRUHYUKE","A2KW87ZD2ELYNG","3H6W48L9F4B5OEOMH57RM53Z4H1WP0","","","<img src=""img/flower5.png"" style=""width:200px; border:14px solid green;"">","null","","","","","",""
"1072.1000001430511","","image-keyboard-response","67","234365","0.0-67.0","3N4BPTXIO9ET730V0FSKXJSRUHYUKE","A2KW87ZD2ELYNG","3H6W48L9F4B5OEOMH57RM53Z4H1WP0","","","img/flower6.png","76","1072.5","3","1","3","",""
"null","","html-keyboard-response","68","234668","0.0-68.0","3N4BPTXIO9ET730V0FSKXJSRUHYUKE","A2KW87ZD2ELYNG","3H6W48L9F4B5OEOMH57RM53Z4H1WP0","","","<img src=""img/flower6.png"" style=""width:200px; border:14px solid green;"">","null","","","","","",""
"609.2999999523163","","image-keyboard-response","69","235278","0.0-69.0","3N4BPTXIO9ET730V0FSKXJSRUHYUKE","A2KW87ZD2ELYNG","3H6W48L9F4B5OEOMH57RM53Z4H1WP0","","","img/flower4.png","74","609.7999999523163","1","0","1","",""
"null","","html-keyboard-response","70","235580","0.0-70.0","3N4BPTXIO9ET730V0FSKXJSRUHYUKE","A2KW87ZD2ELYNG","3H6W48L9F4B5OEOMH57RM53Z4H1WP0","","","<img src=""img/flower4.png"" style=""width:200px;border:14px solid red;"">","null","","","","","",""
"571.1000001430511","","image-keyboard-response","71","236152","0.0-71.0","3N4BPTXIO9ET730V0FSKXJSRUHYUKE","A2KW87ZD2ELYNG","3H6W48L9F4B5OEOMH57RM53Z4H1WP0","","","img/flower4.png","74","571.6000001430511","1","1","1","",""
"null","","html-keyboard-response","72","236460","0.0-72.0","3N4BPTXIO9ET730V0FSKXJSRUHYUKE","A2KW87ZD2ELYNG","3H6W48L9F4B5OEOMH57RM53Z4H1WP0","","","<img src=""img/flower4.png"" style=""width:200px; border:14px solid green;"">","null","","","","","",""
"695.1000001430511","","image-keyboard-response","73","237156","0.0-73.0","3N4BPTXIO9ET730V0FSKXJSRUHYUKE","A2KW87ZD2ELYNG","3H6W48L9F4B5OEOMH57RM53Z4H1WP0","","","img/flower4.png","74","695.6000001430511","1","1","1","",""
"null","","html-keyboard-response","74","237460","0.0-74.0","3N4BPTXIO9ET730V0FSKXJSRUHYUKE","A2KW87ZD2ELYNG","3H6W48L9F4B5OEOMH57RM53Z4H1WP0","","","<img src=""img/flower4.png"" style=""width:200px; border:14px solid green;"">","null","","","","","",""
"801.7000000476837","","image-keyboard-response","75","238262","0.0-75.0","3N4BPTXIO9ET730V0FSKXJSRUHYUKE","A2KW87ZD2ELYNG","3H6W48L9F4B5OEOMH57RM53Z4H1WP0","","","img/flower6.png","76","802.2000000476837","3","1","3","",""
"null","","html-keyboard-response","76","238564","0.0-76.0","3N4BPTXIO9ET730V0FSKXJSRUHYUKE","A2KW87ZD2ELYNG","3H6W48L9F4B5OEOMH57RM53Z4H1WP0","","","<img src=""img/flower6.png"" style=""width:200px; border:14px solid green;"">","null","","","","","",""
"451.60000014305115","","image-keyboard-response","77","239016","0.0-77.0","3N4BPTXIO9ET730V0FSKXJSRUHYUKE","A2KW87ZD2ELYNG","3H6W48L9F4B5OEOMH57RM53Z4H1WP0","","","img/flower6.png","76","452.2000000476837","3","1","3","",""
"null","","html-keyboard-response","78","239324","0.0-78.0","3N4BPTXIO9ET730V0FSKXJSRUHYUKE","A2KW87ZD2ELYNG","3H6W48L9F4B5OEOMH57RM53Z4H1WP0","","","<img src=""img/flower6.png"" style=""width:200px; border:14px solid green;"">","null","","","","","",""
"703","","image-keyboard-response","79","240028","0.0-79.0","3N4BPTXIO9ET730V0FSKXJSRUHYUKE","A2KW87ZD2ELYNG","3H6W48L9F4B5OEOMH57RM53Z4H1WP0","","","img/flower5.png","75","703.6000001430511","2","1","2","",""
"null","","html-keyboard-response","80","240332","0.0-80.0","3N4BPTXIO9ET730V0FSKXJSRUHYUKE","A2KW87ZD2ELYNG","3H6W48L9F4B5OEOMH57RM53Z4H1WP0","","","<img src=""img/flower5.png"" style=""width:200px; border:14px solid green;"">","null","","","","","",""
"445.89999985694885","","image-keyboard-response","81","240778","0.0-81.0","3N4BPTXIO9ET730V0FSKXJSRUHYUKE","A2KW87ZD2ELYNG","3H6W48L9F4B5OEOMH57RM53Z4H1WP0","","","img/flower5.png","75","446.5","2","1","2","",""
"null","","html-keyboard-response","82","241084","0.0-82.0","3N4BPTXIO9ET730V0FSKXJSRUHYUKE","A2KW87ZD2ELYNG","3H6W48L9F4B5OEOMH57RM53Z4H1WP0","","","<img src=""img/flower5.png"" style=""width:200px; border:14px solid green;"">","null","","","","","",""
"950","","image-keyboard-response","83","242035","0.0-83.0","3N4BPTXIO9ET730V0FSKXJSRUHYUKE","A2KW87ZD2ELYNG","3H6W48L9F4B5OEOMH57RM53Z4H1WP0","","","img/flower6.png","76","950.6999998092651","3","1","3","",""
"null","","html-keyboard-response","84","242340","0.0-84.0","3N4BPTXIO9ET730V0FSKXJSRUHYUKE","A2KW87ZD2ELYNG","3H6W48L9F4B5OEOMH57RM53Z4H1WP0","","","<img src=""img/flower6.png"" style=""width:200px; border:14px solid green;"">","null","","","","","",""
"454.2999999523163","","image-keyboard-response","85","242795","0.0-85.0","3N4BPTXIO9ET730V0FSKXJSRUHYUKE","A2KW87ZD2ELYNG","3H6W48L9F4B5OEOMH57RM53Z4H1WP0","","","img/flower6.png","76","454.90000009536743","3","1","3","",""
"null","","html-keyboard-response","86","243100","0.0-86.0","3N4BPTXIO9ET730V0FSKXJSRUHYUKE","A2KW87ZD2ELYNG","3H6W48L9F4B5OEOMH57RM53Z4H1WP0","","","<img src=""img/flower6.png"" style=""width:200px; border:14px solid green;"">","null","","","","","",""
"671.9000000953674","","image-keyboard-response","87","243773","0.0-87.0","3N4BPTXIO9ET730V0FSKXJSRUHYUKE","A2KW87ZD2ELYNG","3H6W48L9F4B5OEOMH57RM53Z4H1WP0","","","img/flower5.png","75","672.3999998569489","2","0","2","",""
"null","","html-keyboard-response","88","244076","0.0-88.0","3N4BPTXIO9ET730V0FSKXJSRUHYUKE","A2KW87ZD2ELYNG","3H6W48L9F4B5OEOMH57RM53Z4H1WP0","","","<img src=""img/flower5.png"" style=""width:200px;border:14px solid red;"">","null","","","","","",""
"568.7999999523163","","image-keyboard-response","89","244645","0.0-89.0","3N4BPTXIO9ET730V0FSKXJSRUHYUKE","A2KW87ZD2ELYNG","3H6W48L9F4B5OEOMH57RM53Z4H1WP0","","","img/flower4.png","74","569.2999999523163","1","1","1","",""
"null","","html-keyboard-response","90","244948","0.0-90.0","3N4BPTXIO9ET730V0FSKXJSRUHYUKE","A2KW87ZD2ELYNG","3H6W48L9F4B5OEOMH57RM53Z4H1WP0","","","<img src=""img/flower4.png"" style=""width:200px; border:14px solid green;"">","null","","","","","",""
"396.7000000476837","","image-keyboard-response","91","245345","0.0-91.0","3N4BPTXIO9ET730V0FSKXJSRUHYUKE","A2KW87ZD2ELYNG","3H6W48L9F4B5OEOMH57RM53Z4H1WP0","","","img/flower4.png","74","397.19999980926514","1","1","1","",""
"null","","html-keyboard-response","92","245652","0.0-92.0","3N4BPTXIO9ET730V0FSKXJSRUHYUKE","A2KW87ZD2ELYNG","3H6W48L9F4B5OEOMH57RM53Z4H1WP0","","","<img src=""img/flower4.png"" style=""width:200px; border:14px solid green;"">","null","","","","","",""
"948.3999998569489","","image-keyboard-response","93","246601","0.0-93.0","3N4BPTXIO9ET730V0FSKXJSRUHYUKE","A2KW87ZD2ELYNG","3H6W48L9F4B5OEOMH57RM53Z4H1WP0","","","img/flower6.png","76","949.0999999046326","3","0","3","",""
"null","","html-keyboard-response","94","246908","0.0-94.0","3N4BPTXIO9ET730V0FSKXJSRUHYUKE","A2KW87ZD2ELYNG","3H6W48L9F4B5OEOMH57RM53Z4H1WP0","","","<img src=""img/flower6.png"" style=""width:200px;border:14px solid red;"">","null","","","","","",""
"619.2000000476837","","image-keyboard-response","95","247528","0.0-95.0","3N4BPTXIO9ET730V0FSKXJSRUHYUKE","A2KW87ZD2ELYNG","3H6W48L9F4B5OEOMH57RM53Z4H1WP0","","","img/flower5.png","75","619.7000000476837","2","1","2","",""
"null","","html-keyboard-response","96","247836","0.0-96.0","3N4BPTXIO9ET730V0FSKXJSRUHYUKE","A2KW87ZD2ELYNG","3H6W48L9F4B5OEOMH57RM53Z4H1WP0","","","<img src=""img/flower5.png"" style=""width:200px; border:14px solid green;"">","null","","","","","",""
"550.2999999523163","","image-keyboard-response","97","248387","0.0-97.0","3N4BPTXIO9ET730V0FSKXJSRUHYUKE","A2KW87ZD2ELYNG","3H6W48L9F4B5OEOMH57RM53Z4H1WP0","","","img/flower5.png","75","550.7999999523163","2","1","2","",""
"null","","html-keyboard-response","98","248692","0.0-98.0","3N4BPTXIO9ET730V0FSKXJSRUHYUKE","A2KW87ZD2ELYNG","3H6W48L9F4B5OEOMH57RM53Z4H1WP0","","","<img src=""img/flower5.png"" style=""width:200px; border:14px solid green;"">","null","","","","","",""
"414.59999990463257","","image-keyboard-response","99","249107","0.0-99.0","3N4BPTXIO9ET730V0FSKXJSRUHYUKE","A2KW87ZD2ELYNG","3H6W48L9F4B5OEOMH57RM53Z4H1WP0","","","img/flower5.png","75","415.2000000476837","2","1","2","",""
"null","","html-keyboard-response","100","249412","0.0-100.0","3N4BPTXIO9ET730V0FSKXJSRUHYUKE","A2KW87ZD2ELYNG","3H6W48L9F4B5OEOMH57RM53Z4H1WP0","","","<img src=""img/flower5.png"" style=""width:200px; border:14px solid green;"">","null","","","","","",""
"852.0999999046326","","image-keyboard-response","101","250265","0.0-101.0","3N4BPTXIO9ET730V0FSKXJSRUHYUKE","A2KW87ZD2ELYNG","3H6W48L9F4B5OEOMH57RM53Z4H1WP0","","","img/flower4.png","74","852.5999999046326","1","1","1","",""
"null","","html-keyboard-response","102","250572","0.0-102.0","3N4BPTXIO9ET730V0FSKXJSRUHYUKE","A2KW87ZD2ELYNG","3H6W48L9F4B5OEOMH57RM53Z4H1WP0","","","<img src=""img/flower4.png"" style=""width:200px; border:14px solid green;"">","null","","","","","",""
"741.2000000476837","","image-keyboard-response","103","251314","0.0-103.0","3N4BPTXIO9ET730V0FSKXJSRUHYUKE","A2KW87ZD2ELYNG","3H6W48L9F4B5OEOMH57RM53Z4H1WP0","","","img/flower6.png","76","741.7999999523163","3","1","3","",""
"null","","html-keyboard-response","104","251620","0.0-104.0","3N4BPTXIO9ET730V0FSKXJSRUHYUKE","A2KW87ZD2ELYNG","3H6W48L9F4B5OEOMH57RM53Z4H1WP0","","","<img src=""img/flower6.png"" style=""width:200px; border:14px solid green;"">","null","","","","","",""
"1229.7000000476837","","image-keyboard-response","105","252850","0.0-105.0","3N4BPTXIO9ET730V0FSKXJSRUHYUKE","A2KW87ZD2ELYNG","3H6W48L9F4B5OEOMH57RM53Z4H1WP0","","","img/flower4.png","74","1230.2999999523163","1","1","1","",""
"null","","html-keyboard-response","106","253156","0.0-106.0","3N4BPTXIO9ET730V0FSKXJSRUHYUKE","A2KW87ZD2ELYNG","3H6W48L9F4B5OEOMH57RM53Z4H1WP0","","","<img src=""img/flower4.png"" style=""width:200px; border:14px solid green;"">","null","","","","","",""
"664.7000000476837","","image-keyboard-response","107","253821","0.0-107.0","3N4BPTXIO9ET730V0FSKXJSRUHYUKE","A2KW87ZD2ELYNG","3H6W48L9F4B5OEOMH57RM53Z4H1WP0","","","img/flower5.png","75","665.2999999523163","2","0","2","",""
"null","","html-keyboard-response","108","254124","0.0-108.0","3N4BPTXIO9ET730V0FSKXJSRUHYUKE","A2KW87ZD2ELYNG","3H6W48L9F4B5OEOMH57RM53Z4H1WP0","","","<img src=""img/flower5.png"" style=""width:200px;border:14px solid red;"">","null","","","","","",""
"453.90000009536743","","image-keyboard-response","109","254579","0.0-109.0","3N4BPTXIO9ET730V0FSKXJSRUHYUKE","A2KW87ZD2ELYNG","3H6W48L9F4B5OEOMH57RM53Z4H1WP0","","","img/flower5.png","75","454.5","2","1","2","",""
"null","","html-keyboard-response","110","254884","0.0-110.0","3N4BPTXIO9ET730V0FSKXJSRUHYUKE","A2KW87ZD2ELYNG","3H6W48L9F4B5OEOMH57RM53Z4H1WP0","","","<img src=""img/flower5.png"" style=""width:200px; border:14px solid green;"">","null","","","","","",""
"502.39999985694885","","image-keyboard-response","111","255387","0.0-111.0","3N4BPTXIO9ET730V0FSKXJSRUHYUKE","A2KW87ZD2ELYNG","3H6W48L9F4B5OEOMH57RM53Z4H1WP0","","","img/flower6.png","76","503.09999990463257","3","1","3","",""
"null","","html-keyboard-response","112","255692","0.0-112.0","3N4BPTXIO9ET730V0FSKXJSRUHYUKE","A2KW87ZD2ELYNG","3H6W48L9F4B5OEOMH57RM53Z4H1WP0","","","<img src=""img/flower6.png"" style=""width:200px; border:14px solid green;"">","null","","","","","",""
"489","","image-keyboard-response","113","256182","0.0-113.0","3N4BPTXIO9ET730V0FSKXJSRUHYUKE","A2KW87ZD2ELYNG","3H6W48L9F4B5OEOMH57RM53Z4H1WP0","","","img/flower6.png","76","489.60000014305115","3","1","3","",""
"null","","html-keyboard-response","114","256484","0.0-114.0","3N4BPTXIO9ET730V0FSKXJSRUHYUKE","A2KW87ZD2ELYNG","3H6W48L9F4B5OEOMH57RM53Z4H1WP0","","","<img src=""img/flower6.png"" style=""width:200px; border:14px solid green;"">","null","","","","","",""
"566.5999999046326","","image-keyboard-response","115","257051","0.0-115.0","3N4BPTXIO9ET730V0FSKXJSRUHYUKE","A2KW87ZD2ELYNG","3H6W48L9F4B5OEOMH57RM53Z4H1WP0","","","img/flower4.png","74","567.2999999523163","1","1","1","",""
"null","","html-keyboard-response","116","257356","0.0-116.0","3N4BPTXIO9ET730V0FSKXJSRUHYUKE","A2KW87ZD2ELYNG","3H6W48L9F4B5OEOMH57RM53Z4H1WP0","","","<img src=""img/flower4.png"" style=""width:200px; border:14px solid green;"">","null","","","","","",""
"438.09999990463257","","image-keyboard-response","117","257795","0.0-117.0","3N4BPTXIO9ET730V0FSKXJSRUHYUKE","A2KW87ZD2ELYNG","3H6W48L9F4B5OEOMH57RM53Z4H1WP0","","","img/flower4.png","74","438.7000000476837","1","1","1","",""
"null","","html-keyboard-response","118","258100","0.0-118.0","3N4BPTXIO9ET730V0FSKXJSRUHYUKE","A2KW87ZD2ELYNG","3H6W48L9F4B5OEOMH57RM53Z4H1WP0","","","<img src=""img/flower4.png"" style=""width:200px; border:14px solid green;"">","null","","","","","",""
"729.3999998569489","","image-keyboard-response","119","258830","0.0-119.0","3N4BPTXIO9ET730V0FSKXJSRUHYUKE","A2KW87ZD2ELYNG","3H6W48L9F4B5OEOMH57RM53Z4H1WP0","","","img/flower6.png","75","729.9000000953674","2","0","3","",""
"null","","html-keyboard-response","120","259132","0.0-120.0","3N4BPTXIO9ET730V0FSKXJSRUHYUKE","A2KW87ZD2ELYNG","3H6W48L9F4B5OEOMH57RM53Z4H1WP0","","","<img src=""img/flower6.png"" style=""width:200px;border:14px solid red;"">","null","","","","","",""
"105.70000004768372","","image-keyboard-response","121","259238","0.0-121.0","3N4BPTXIO9ET730V0FSKXJSRUHYUKE","A2KW87ZD2ELYNG","3H6W48L9F4B5OEOMH57RM53Z4H1WP0","","","img/flower5.png","76","106.29999995231628","3","1","2","",""
"null","","html-keyboard-response","122","259540","0.0-122.0","3N4BPTXIO9ET730V0FSKXJSRUHYUKE","A2KW87ZD2ELYNG","3H6W48L9F4B5OEOMH57RM53Z4H1WP0","","","<img src=""img/flower5.png"" style=""width:200px; border:14px solid green;"">","null","","","","","",""
"1102.9000000953674","","image-keyboard-response","123","260643","0.0-123.0","3N4BPTXIO9ET730V0FSKXJSRUHYUKE","A2KW87ZD2ELYNG","3H6W48L9F4B5OEOMH57RM53Z4H1WP0","","","img/flower4.png","74","1103.5","1","0","1","",""
"null","","html-keyboard-response","124","260948","0.0-124.0","3N4BPTXIO9ET730V0FSKXJSRUHYUKE","A2KW87ZD2ELYNG","3H6W48L9F4B5OEOMH57RM53Z4H1WP0","","","<img src=""img/flower4.png"" style=""width:200px;border:14px solid red;"">","null","","","","","",""
"4709.199999809265","","instructions","125","265657","0.0-125.0","3N4BPTXIO9ET730V0FSKXJSRUHYUKE","A2KW87ZD2ELYNG","3H6W48L9F4B5OEOMH57RM53Z4H1WP0","","[{""page_index"":0,""viewing_time"":4709}]","","","","","","","",""
"2599.5999999046326","","image-keyboard-response","126","268258","0.0-126.0","3N4BPTXIO9ET730V0FSKXJSRUHYUKE","A2KW87ZD2ELYNG","3H6W48L9F4B5OEOMH57RM53Z4H1WP0","","","img/flower1.png","75","2600.2000000476837","2","1","2","1,0.5,0.5,0.5,1,0.5,0.5,0.5,1",""
"null","","html-keyboard-response","127","268564","0.0-127.0","3N4BPTXIO9ET730V0FSKXJSRUHYUKE","A2KW87ZD2ELYNG","3H6W48L9F4B5OEOMH57RM53Z4H1WP0","","","<img src=""img/flower1.png"" style=""width:200px; border:14px solid green;"">","null","","","","","",""
"904.9000000953674","","image-keyboard-response","128","269470","0.0-128.0","3N4BPTXIO9ET730V0FSKXJSRUHYUKE","A2KW87ZD2ELYNG","3H6W48L9F4B5OEOMH57RM53Z4H1WP0","","","img/flower6.png","76","905.3999998569489","3","1","3","1,0.5,0.5,0.5,1,0.5,0.5,0.5,1",""
"null","","html-keyboard-response","129","269772","0.0-129.0","3N4BPTXIO9ET730V0FSKXJSRUHYUKE","A2KW87ZD2ELYNG","3H6W48L9F4B5OEOMH57RM53Z4H1WP0","","","<img src=""img/flower6.png"" style=""width:200px; border:14px solid green;"">","null","","","","","",""
"1002.8999998569489","","image-keyboard-response","130","270775","0.0-130.0","3N4BPTXIO9ET730V0FSKXJSRUHYUKE","A2KW87ZD2ELYNG","3H6W48L9F4B5OEOMH57RM53Z4H1WP0","","","img/flower1.png","75","1003.3999998569489","2","1","2","1,0.5,0.5,0.5,1,0.5,0.5,0.5,1",""
"null","","html-keyboard-response","131","271084","0.0-131.0","3N4BPTXIO9ET730V0FSKXJSRUHYUKE","A2KW87ZD2ELYNG","3H6W48L9F4B5OEOMH57RM53Z4H1WP0","","","<img src=""img/flower1.png"" style=""width:200px; border:14px solid green;"">","null","","","","","",""
"2505.399999856949","","image-keyboard-response","132","273590","0.0-132.0","3N4BPTXIO9ET730V0FSKXJSRUHYUKE","A2KW87ZD2ELYNG","3H6W48L9F4B5OEOMH57RM53Z4H1WP0","","","img/flower6.png","76","2506.0999999046326","3","1","3","1,0.5,0.5,0.5,1,0.5,0.5,0.5,1",""
"null","","html-keyboard-response","133","273892","0.0-133.0","3N4BPTXIO9ET730V0FSKXJSRUHYUKE","A2KW87ZD2ELYNG","3H6W48L9F4B5OEOMH57RM53Z4H1WP0","","","<img src=""img/flower6.png"" style=""width:200px; border:14px solid green;"">","null","","","","","",""
"1278.4000000953674","","image-keyboard-response","134","275171","0.0-134.0","3N4BPTXIO9ET730V0FSKXJSRUHYUKE","A2KW87ZD2ELYNG","3H6W48L9F4B5OEOMH57RM53Z4H1WP0","","","img/flower3.png","74","1278.7999999523163","1","1","1","1,0.5,0.5,0.5,1,0.5,0.5,0.5,1",""
"null","","html-keyboard-response","135","275476","0.0-135.0","3N4BPTXIO9ET730V0FSKXJSRUHYUKE","A2KW87ZD2ELYNG","3H6W48L9F4B5OEOMH57RM53Z4H1WP0","","","<img src=""img/flower3.png"" style=""width:200px; border:14px solid green;"">","null","","","","","",""
"1600.8999998569489","","image-keyboard-response","136","277078","0.0-136.0","3N4BPTXIO9ET730V0FSKXJSRUHYUKE","A2KW87ZD2ELYNG","3H6W48L9F4B5OEOMH57RM53Z4H1WP0","","","img/flower1.png","75","1601.5","2","1","2","1,0.5,0.5,0.5,1,0.5,0.5,0.5,1",""
"null","","html-keyboard-response","137","277380","0.0-137.0","3N4BPTXIO9ET730V0FSKXJSRUHYUKE","A2KW87ZD2ELYNG","3H6W48L9F4B5OEOMH57RM53Z4H1WP0","","","<img src=""img/flower1.png"" style=""width:200px; border:14px solid green;"">","null","","","","","",""
"1338.8999998569489","","image-keyboard-response","138","278719","0.0-138.0","3N4BPTXIO9ET730V0FSKXJSRUHYUKE","A2KW87ZD2ELYNG","3H6W48L9F4B5OEOMH57RM53Z4H1WP0","","","img/flower1.png","75","1339.4000000953674","2","1","2","1,0.5,0.5,0.5,1,0.5,0.5,0.5,1",""
"null","","html-keyboard-response","139","279028","0.0-139.0","3N4BPTXIO9ET730V0FSKXJSRUHYUKE","A2KW87ZD2ELYNG","3H6W48L9F4B5OEOMH57RM53Z4H1WP0","","","<img src=""img/flower1.png"" style=""width:200px; border:14px solid green;"">","null","","","","","",""
"728.8999998569489","","image-keyboard-response","140","279758","0.0-140.0","3N4BPTXIO9ET730V0FSKXJSRUHYUKE","A2KW87ZD2ELYNG","3H6W48L9F4B5OEOMH57RM53Z4H1WP0","","","img/flower3.png","74","729.7000000476837","1","1","1","1,0.5,0.5,0.5,1,0.5,0.5,0.5,1",""
"null","","html-keyboard-response","141","280060","0.0-141.0","3N4BPTXIO9ET730V0FSKXJSRUHYUKE","A2KW87ZD2ELYNG","3H6W48L9F4B5OEOMH57RM53Z4H1WP0","","","<img src=""img/flower3.png"" style=""width:200px; border:14px solid green;"">","null","","","","","",""
"823.8999998569489","","image-keyboard-response","142","280885","0.0-142.0","3N4BPTXIO9ET730V0FSKXJSRUHYUKE","A2KW87ZD2ELYNG","3H6W48L9F4B5OEOMH57RM53Z4H1WP0","","","img/flower6.png","76","824.5","3","1","3","1,0.5,0.5,0.5,1,0.5,0.5,0.5,1",""
"null","","html-keyboard-response","143","281188","0.0-143.0","3N4BPTXIO9ET730V0FSKXJSRUHYUKE","A2KW87ZD2ELYNG","3H6W48L9F4B5OEOMH57RM53Z4H1WP0","","","<img src=""img/flower6.png"" style=""width:200px; border:14px solid green;"">","null","","","","","",""
"856.7999999523163","","image-keyboard-response","144","282046","0.0-144.0","3N4BPTXIO9ET730V0FSKXJSRUHYUKE","A2KW87ZD2ELYNG","3H6W48L9F4B5OEOMH57RM53Z4H1WP0","","","img/flower3.png","74","857.3999998569489","1","1","1","1,0.5,0.5,0.5,1,0.5,0.5,0.5,1",""
"null","","html-keyboard-response","145","282348","0.0-145.0","3N4BPTXIO9ET730V0FSKXJSRUHYUKE","A2KW87ZD2ELYNG","3H6W48L9F4B5OEOMH57RM53Z4H1WP0","","","<img src=""img/flower3.png"" style=""width:200px; border:14px solid green;"">","null","","","","","",""
"942.5","","image-keyboard-response","146","283291","0.0-146.0","3N4BPTXIO9ET730V0FSKXJSRUHYUKE","A2KW87ZD2ELYNG","3H6W48L9F4B5OEOMH57RM53Z4H1WP0","","","img/flower6.png","76","943.0999999046326","3","1","3","1,0.5,0.5,0.5,1,0.5,0.5,0.5,1",""
"null","","html-keyboard-response","147","283596","0.0-147.0","3N4BPTXIO9ET730V0FSKXJSRUHYUKE","A2KW87ZD2ELYNG","3H6W48L9F4B5OEOMH57RM53Z4H1WP0","","","<img src=""img/flower6.png"" style=""width:200px; border:14px solid green;"">","null","","","","","",""
"584.3000001907349","","image-keyboard-response","148","284181","0.0-148.0","3N4BPTXIO9ET730V0FSKXJSRUHYUKE","A2KW87ZD2ELYNG","3H6W48L9F4B5OEOMH57RM53Z4H1WP0","","","img/flower6.png","76","584.7000000476837","3","1","3","1,0.5,0.5,0.5,1,0.5,0.5,0.5,1",""
"null","","html-keyboard-response","149","284484","0.0-149.0","3N4BPTXIO9ET730V0FSKXJSRUHYUKE","A2KW87ZD2ELYNG","3H6W48L9F4B5OEOMH57RM53Z4H1WP0","","","<img src=""img/flower6.png"" style=""width:200px; border:14px solid green;"">","null","","","","","",""
"1395.3999998569489","","image-keyboard-response","150","285880","0.0-150.0","3N4BPTXIO9ET730V0FSKXJSRUHYUKE","A2KW87ZD2ELYNG","3H6W48L9F4B5OEOMH57RM53Z4H1WP0","","","img/flower1.png","75","1395.9000000953674","2","1","2","1,0.5,0.5,0.5,1,0.5,0.5,0.5,1",""
"null","","html-keyboard-response","151","286188","0.0-151.0","3N4BPTXIO9ET730V0FSKXJSRUHYUKE","A2KW87ZD2ELYNG","3H6W48L9F4B5OEOMH57RM53Z4H1WP0","","","<img src=""img/flower1.png"" style=""width:200px; border:14px solid green;"">","null","","","","","",""
"465.90000009536743","","image-keyboard-response","152","286654","0.0-152.0","3N4BPTXIO9ET730V0FSKXJSRUHYUKE","A2KW87ZD2ELYNG","3H6W48L9F4B5OEOMH57RM53Z4H1WP0","","","img/flower1.png","75","466.2999999523163","2","1","2","1,0.5,0.5,0.5,1,0.5,0.5,0.5,1",""
"null","","html-keyboard-response","153","286956","0.0-153.0","3N4BPTXIO9ET730V0FSKXJSRUHYUKE","A2KW87ZD2ELYNG","3H6W48L9F4B5OEOMH57RM53Z4H1WP0","","","<img src=""img/flower1.png"" style=""width:200px; border:14px solid green;"">","null","","","","","",""
"651.7999999523163","","image-keyboard-response","154","287608","0.0-154.0","3N4BPTXIO9ET730V0FSKXJSRUHYUKE","A2KW87ZD2ELYNG","3H6W48L9F4B5OEOMH57RM53Z4H1WP0","","","img/flower3.png","74","652.2999999523163","1","1","1","1,0.5,0.5,0.5,1,0.5,0.5,0.5,1",""
"null","","html-keyboard-response","155","287916","0.0-155.0","3N4BPTXIO9ET730V0FSKXJSRUHYUKE","A2KW87ZD2ELYNG","3H6W48L9F4B5OEOMH57RM53Z4H1WP0","","","<img src=""img/flower3.png"" style=""width:200px; border:14px solid green;"">","null","","","","","",""
"378.30000019073486","","image-keyboard-response","156","288295","0.0-156.0","3N4BPTXIO9ET730V0FSKXJSRUHYUKE","A2KW87ZD2ELYNG","3H6W48L9F4B5OEOMH57RM53Z4H1WP0","","","img/flower3.png","74","378.7999999523163","1","1","1","1,0.5,0.5,0.5,1,0.5,0.5,0.5,1",""
"null","","html-keyboard-response","157","288596","0.0-157.0","3N4BPTXIO9ET730V0FSKXJSRUHYUKE","A2KW87ZD2ELYNG","3H6W48L9F4B5OEOMH57RM53Z4H1WP0","","","<img src=""img/flower3.png"" style=""width:200px; border:14px solid green;"">","null","","","","","",""
"839.2000000476837","","image-keyboard-response","158","289436","0.0-158.0","3N4BPTXIO9ET730V0FSKXJSRUHYUKE","A2KW87ZD2ELYNG","3H6W48L9F4B5OEOMH57RM53Z4H1WP0","","","img/flower6.png","76","839.6999998092651","3","1","3","1,0.5,0.5,0.5,1,0.5,0.5,0.5,1",""
"null","","html-keyboard-response","159","289740","0.0-159.0","3N4BPTXIO9ET730V0FSKXJSRUHYUKE","A2KW87ZD2ELYNG","3H6W48L9F4B5OEOMH57RM53Z4H1WP0","","","<img src=""img/flower6.png"" style=""width:200px; border:14px solid green;"">","null","","","","","",""
"923","","image-keyboard-response","160","290664","0.0-160.0","3N4BPTXIO9ET730V0FSKXJSRUHYUKE","A2KW87ZD2ELYNG","3H6W48L9F4B5OEOMH57RM53Z4H1WP0","","","img/flower3.png","74","923.7000000476837","1","1","1","1,0.5,0.5,0.5,1,0.5,0.5,0.5,1",""
"null","","html-keyboard-response","161","290972","0.0-161.0","3N4BPTXIO9ET730V0FSKXJSRUHYUKE","A2KW87ZD2ELYNG","3H6W48L9F4B5OEOMH57RM53Z4H1WP0","","","<img src=""img/flower3.png"" style=""width:200px; border:14px solid green;"">","null","","","","","",""
"790.8000001907349","","image-keyboard-response","162","291763","0.0-162.0","3N4BPTXIO9ET730V0FSKXJSRUHYUKE","A2KW87ZD2ELYNG","3H6W48L9F4B5OEOMH57RM53Z4H1WP0","","","img/flower6.png","76","791.2999999523163","3","1","3","1,0.5,0.5,0.5,1,0.5,0.5,0.5,1",""
"null","","html-keyboard-response","163","292068","0.0-163.0","3N4BPTXIO9ET730V0FSKXJSRUHYUKE","A2KW87ZD2ELYNG","3H6W48L9F4B5OEOMH57RM53Z4H1WP0","","","<img src=""img/flower6.png"" style=""width:200px; border:14px solid green;"">","null","","","","","",""
"811.2999999523163","","image-keyboard-response","164","292880","0.0-164.0","3N4BPTXIO9ET730V0FSKXJSRUHYUKE","A2KW87ZD2ELYNG","3H6W48L9F4B5OEOMH57RM53Z4H1WP0","","","img/flower3.png","74","812","1","1","1","1,0.5,0.5,0.5,1,0.5,0.5,0.5,1",""
"null","","html-keyboard-response","165","293188","0.0-165.0","3N4BPTXIO9ET730V0FSKXJSRUHYUKE","A2KW87ZD2ELYNG","3H6W48L9F4B5OEOMH57RM53Z4H1WP0","","","<img src=""img/flower3.png"" style=""width:200px; border:14px solid green;"">","null","","","","","",""
"622","","image-keyboard-response","166","293810","0.0-166.0","3N4BPTXIO9ET730V0FSKXJSRUHYUKE","A2KW87ZD2ELYNG","3H6W48L9F4B5OEOMH57RM53Z4H1WP0","","","img/flower1.png","75","622.4000000953674","2","1","2","1,0.5,0.5,0.5,1,0.5,0.5,0.5,1",""
"null","","html-keyboard-response","167","294116","0.0-167.0","3N4BPTXIO9ET730V0FSKXJSRUHYUKE","A2KW87ZD2ELYNG","3H6W48L9F4B5OEOMH57RM53Z4H1WP0","","","<img src=""img/flower1.png"" style=""width:200px; border:14px solid green;"">","null","","","","","",""
"1095.2999999523163","","image-keyboard-response","168","295212","0.0-168.0","3N4BPTXIO9ET730V0FSKXJSRUHYUKE","A2KW87ZD2ELYNG","3H6W48L9F4B5OEOMH57RM53Z4H1WP0","","","img/flower6.png","76","1095.7999999523163","3","1","3","1,0.5,0.5,0.5,1,0.5,0.5,0.5,1",""
"null","","html-keyboard-response","169","295516","0.0-169.0","3N4BPTXIO9ET730V0FSKXJSRUHYUKE","A2KW87ZD2ELYNG","3H6W48L9F4B5OEOMH57RM53Z4H1WP0","","","<img src=""img/flower6.png"" style=""width:200px; border:14px solid green;"">","null","","","","","",""
"506.59999990463257","","image-keyboard-response","170","296023","0.0-170.0","3N4BPTXIO9ET730V0FSKXJSRUHYUKE","A2KW87ZD2ELYNG","3H6W48L9F4B5OEOMH57RM53Z4H1WP0","","","img/flower6.png","76","507.09999990463257","3","1","3","1,0.5,0.5,0.5,1,0.5,0.5,0.5,1",""
"null","","html-keyboard-response","171","296332","0.0-171.0","3N4BPTXIO9ET730V0FSKXJSRUHYUKE","A2KW87ZD2ELYNG","3H6W48L9F4B5OEOMH57RM53Z4H1WP0","","","<img src=""img/flower6.png"" style=""width:200px; border:14px solid green;"">","null","","","","","",""
"563","","image-keyboard-response","172","296896","0.0-172.0","3N4BPTXIO9ET730V0FSKXJSRUHYUKE","A2KW87ZD2ELYNG","3H6W48L9F4B5OEOMH57RM53Z4H1WP0","","","img/flower1.png","75","563.5","2","1","2","1,0.5,0.5,0.5,1,0.5,0.5,0.5,1",""
"null","","html-keyboard-response","173","297204","0.0-173.0","3N4BPTXIO9ET730V0FSKXJSRUHYUKE","A2KW87ZD2ELYNG","3H6W48L9F4B5OEOMH57RM53Z4H1WP0","","","<img src=""img/flower1.png"" style=""width:200px; border:14px solid green;"">","null","","","","","",""
"658.2999999523163","","image-keyboard-response","174","297863","0.0-174.0","3N4BPTXIO9ET730V0FSKXJSRUHYUKE","A2KW87ZD2ELYNG","3H6W48L9F4B5OEOMH57RM53Z4H1WP0","","","img/flower6.png","76","658.9000000953674","3","1","3","1,0.5,0.5,0.5,1,0.5,0.5,0.5,1",""
"null","","html-keyboard-response","175","298164","0.0-175.0","3N4BPTXIO9ET730V0FSKXJSRUHYUKE","A2KW87ZD2ELYNG","3H6W48L9F4B5OEOMH57RM53Z4H1WP0","","","<img src=""img/flower6.png"" style=""width:200px; border:14px solid green;"">","null","","","","","",""
"1194.4000000953674","","image-keyboard-response","176","299359","0.0-176.0","3N4BPTXIO9ET730V0FSKXJSRUHYUKE","A2KW87ZD2ELYNG","3H6W48L9F4B5OEOMH57RM53Z4H1WP0","","","img/flower1.png","75","1194.7999999523163","2","1","2","1,0.5,0.5,0.5,1,0.5,0.5,0.5,1",""
"null","","html-keyboard-response","177","299660","0.0-177.0","3N4BPTXIO9ET730V0FSKXJSRUHYUKE","A2KW87ZD2ELYNG","3H6W48L9F4B5OEOMH57RM53Z4H1WP0","","","<img src=""img/flower1.png"" style=""width:200px; border:14px solid green;"">","null","","","","","",""
"554","","image-keyboard-response","178","300215","0.0-178.0","3N4BPTXIO9ET730V0FSKXJSRUHYUKE","A2KW87ZD2ELYNG","3H6W48L9F4B5OEOMH57RM53Z4H1WP0","","","img/flower1.png","75","554.5","2","1","2","1,0.5,0.5,0.5,1,0.5,0.5,0.5,1",""
"null","","html-keyboard-response","179","300516","0.0-179.0","3N4BPTXIO9ET730V0FSKXJSRUHYUKE","A2KW87ZD2ELYNG","3H6W48L9F4B5OEOMH57RM53Z4H1WP0","","","<img src=""img/flower1.png"" style=""width:200px; border:14px solid green;"">","null","","","","","",""
"865.3000001907349","","image-keyboard-response","180","301382","0.0-180.0","3N4BPTXIO9ET730V0FSKXJSRUHYUKE","A2KW87ZD2ELYNG","3H6W48L9F4B5OEOMH57RM53Z4H1WP0","","","img/flower6.png","76","865.7000000476837","3","1","3","1,0.5,0.5,0.5,1,0.5,0.5,0.5,1",""
"null","","html-keyboard-response","181","301684","0.0-181.0","3N4BPTXIO9ET730V0FSKXJSRUHYUKE","A2KW87ZD2ELYNG","3H6W48L9F4B5OEOMH57RM53Z4H1WP0","","","<img src=""img/flower6.png"" style=""width:200px; border:14px solid green;"">","null","","","","","",""
"562.6000001430511","","image-keyboard-response","182","302247","0.0-182.0","3N4BPTXIO9ET730V0FSKXJSRUHYUKE","A2KW87ZD2ELYNG","3H6W48L9F4B5OEOMH57RM53Z4H1WP0","","","img/flower3.png","74","563.1999998092651","1","1","1","1,0.5,0.5,0.5,1,0.5,0.5,0.5,1",""
"null","","html-keyboard-response","183","302556","0.0-183.0","3N4BPTXIO9ET730V0FSKXJSRUHYUKE","A2KW87ZD2ELYNG","3H6W48L9F4B5OEOMH57RM53Z4H1WP0","","","<img src=""img/flower3.png"" style=""width:200px; border:14px solid green;"">","null","","","","","",""
"753.2000000476837","","image-keyboard-response","184","303310","0.0-184.0","3N4BPTXIO9ET730V0FSKXJSRUHYUKE","A2KW87ZD2ELYNG","3H6W48L9F4B5OEOMH57RM53Z4H1WP0","","","img/flower1.png","75","753.7999999523163","2","1","2","1,0.5,0.5,0.5,1,0.5,0.5,0.5,1",""
"null","","html-keyboard-response","185","303612","0.0-185.0","3N4BPTXIO9ET730V0FSKXJSRUHYUKE","A2KW87ZD2ELYNG","3H6W48L9F4B5OEOMH57RM53Z4H1WP0","","","<img src=""img/flower1.png"" style=""width:200px; border:14px solid green;"">","null","","","","","",""
"444.60000014305115","","image-keyboard-response","186","304057","0.0-186.0","3N4BPTXIO9ET730V0FSKXJSRUHYUKE","A2KW87ZD2ELYNG","3H6W48L9F4B5OEOMH57RM53Z4H1WP0","","","img/flower1.png","75","445.10000014305115","2","1","2","1,0.5,0.5,0.5,1,0.5,0.5,0.5,1",""
"null","","html-keyboard-response","187","304364","0.0-187.0","3N4BPTXIO9ET730V0FSKXJSRUHYUKE","A2KW87ZD2ELYNG","3H6W48L9F4B5OEOMH57RM53Z4H1WP0","","","<img src=""img/flower1.png"" style=""width:200px; border:14px solid green;"">","null","","","","","",""
"673.5999999046326","","image-keyboard-response","188","305038","0.0-188.0","3N4BPTXIO9ET730V0FSKXJSRUHYUKE","A2KW87ZD2ELYNG","3H6W48L9F4B5OEOMH57RM53Z4H1WP0","","","img/flower1.png","75","674","2","1","2","1,0.5,0.5,0.5,1,0.5,0.5,0.5,1",""
"null","","html-keyboard-response","189","305340","0.0-189.0","3N4BPTXIO9ET730V0FSKXJSRUHYUKE","A2KW87ZD2ELYNG","3H6W48L9F4B5OEOMH57RM53Z4H1WP0","","","<img src=""img/flower1.png"" style=""width:200px; border:14px solid green;"">","null","","","","","",""
"546.1999998092651","","image-keyboard-response","190","305887","0.0-190.0","3N4BPTXIO9ET730V0FSKXJSRUHYUKE","A2KW87ZD2ELYNG","3H6W48L9F4B5OEOMH57RM53Z4H1WP0","","","img/flower1.png","75","546.9000000953674","2","1","2","1,0.5,0.5,0.5,1,0.5,0.5,0.5,1",""
"null","","html-keyboard-response","191","306188","0.0-191.0","3N4BPTXIO9ET730V0FSKXJSRUHYUKE","A2KW87ZD2ELYNG","3H6W48L9F4B5OEOMH57RM53Z4H1WP0","","","<img src=""img/flower1.png"" style=""width:200px; border:14px solid green;"">","null","","","","","",""
"744.0999999046326","","image-keyboard-response","192","306933","0.0-192.0","3N4BPTXIO9ET730V0FSKXJSRUHYUKE","A2KW87ZD2ELYNG","3H6W48L9F4B5OEOMH57RM53Z4H1WP0","","","img/flower6.png","76","744.7000000476837","3","1","3","1,0.5,0.5,0.5,1,0.5,0.5,0.5,1",""
"null","","html-keyboard-response","193","307236","0.0-193.0","3N4BPTXIO9ET730V0FSKXJSRUHYUKE","A2KW87ZD2ELYNG","3H6W48L9F4B5OEOMH57RM53Z4H1WP0","","","<img src=""img/flower6.png"" style=""width:200px; border:14px solid green;"">","null","","","","","",""
"738.1000001430511","","image-keyboard-response","194","307975","0.0-194.0","3N4BPTXIO9ET730V0FSKXJSRUHYUKE","A2KW87ZD2ELYNG","3H6W48L9F4B5OEOMH57RM53Z4H1WP0","","","img/flower1.png","75","738.5999999046326","2","1","2","1,0.5,0.5,0.5,1,0.5,0.5,0.5,1",""
"null","","html-keyboard-response","195","308276","0.0-195.0","3N4BPTXIO9ET730V0FSKXJSRUHYUKE","A2KW87ZD2ELYNG","3H6W48L9F4B5OEOMH57RM53Z4H1WP0","","","<img src=""img/flower1.png"" style=""width:200px; border:14px solid green;"">","null","","","","","",""
"618.1000001430511","","image-keyboard-response","196","308895","0.0-196.0","3N4BPTXIO9ET730V0FSKXJSRUHYUKE","A2KW87ZD2ELYNG","3H6W48L9F4B5OEOMH57RM53Z4H1WP0","","","img/flower6.png","76","618.6999998092651","3","1","3","1,0.5,0.5,0.5,1,0.5,0.5,0.5,1",""
"null","","html-keyboard-response","197","309196","0.0-197.0","3N4BPTXIO9ET730V0FSKXJSRUHYUKE","A2KW87ZD2ELYNG","3H6W48L9F4B5OEOMH57RM53Z4H1WP0","","","<img src=""img/flower6.png"" style=""width:200px; border:14px solid green;"">","null","","","","","",""
"472.39999985694885","","image-keyboard-response","198","309669","0.0-198.0","3N4BPTXIO9ET730V0FSKXJSRUHYUKE","A2KW87ZD2ELYNG","3H6W48L9F4B5OEOMH57RM53Z4H1WP0","","","img/flower6.png","76","473.09999990463257","3","1","3","1,0.5,0.5,0.5,1,0.5,0.5,0.5,1",""
"null","","html-keyboard-response","199","309972","0.0-199.0","3N4BPTXIO9ET730V0FSKXJSRUHYUKE","A2KW87ZD2ELYNG","3H6W48L9F4B5OEOMH57RM53Z4H1WP0","","","<img src=""img/flower6.png"" style=""width:200px; border:14px solid green;"">","null","","","","","",""
"803.1000001430511","","image-keyboard-response","200","310776","0.0-200.0","3N4BPTXIO9ET730V0FSKXJSRUHYUKE","A2KW87ZD2ELYNG","3H6W48L9F4B5OEOMH57RM53Z4H1WP0","","","img/flower3.png","74","803.6000001430511","1","1","1","1,0.5,0.5,0.5,1,0.5,0.5,0.5,1",""
"null","","html-keyboard-response","201","311084","0.0-201.0","3N4BPTXIO9ET730V0FSKXJSRUHYUKE","A2KW87ZD2ELYNG","3H6W48L9F4B5OEOMH57RM53Z4H1WP0","","","<img src=""img/flower3.png"" style=""width:200px; border:14px solid green;"">","null","","","","","",""
"658.4000000953674","","image-keyboard-response","202","311743","0.0-202.0","3N4BPTXIO9ET730V0FSKXJSRUHYUKE","A2KW87ZD2ELYNG","3H6W48L9F4B5OEOMH57RM53Z4H1WP0","","","img/flower1.png","75","659.0999999046326","2","1","2","1,0.5,0.5,0.5,1,0.5,0.5,0.5,1",""
"null","","html-keyboard-response","203","312052","0.0-203.0","3N4BPTXIO9ET730V0FSKXJSRUHYUKE","A2KW87ZD2ELYNG","3H6W48L9F4B5OEOMH57RM53Z4H1WP0","","","<img src=""img/flower1.png"" style=""width:200px; border:14px solid green;"">","null","","","","","",""
"420.7000000476837","","image-keyboard-response","204","312474","0.0-204.0","3N4BPTXIO9ET730V0FSKXJSRUHYUKE","A2KW87ZD2ELYNG","3H6W48L9F4B5OEOMH57RM53Z4H1WP0","","","img/flower3.png","74","421.40000009536743","1","1","1","1,0.5,0.5,0.5,1,0.5,0.5,0.5,1",""
"null","","html-keyboard-response","205","312780","0.0-205.0","3N4BPTXIO9ET730V0FSKXJSRUHYUKE","A2KW87ZD2ELYNG","3H6W48L9F4B5OEOMH57RM53Z4H1WP0","","","<img src=""img/flower3.png"" style=""width:200px; border:14px solid green;"">","null","","","","","",""
"504.60000014305115","","image-keyboard-response","206","313285","0.0-206.0","3N4BPTXIO9ET730V0FSKXJSRUHYUKE","A2KW87ZD2ELYNG","3H6W48L9F4B5OEOMH57RM53Z4H1WP0","","","img/flower3.png","74","505.09999990463257","1","1","1","1,0.5,0.5,0.5,1,0.5,0.5,0.5,1",""
"null","","html-keyboard-response","207","313588","0.0-207.0","3N4BPTXIO9ET730V0FSKXJSRUHYUKE","A2KW87ZD2ELYNG","3H6W48L9F4B5OEOMH57RM53Z4H1WP0","","","<img src=""img/flower3.png"" style=""width:200px; border:14px solid green;"">","null","","","","","",""
"383","","image-keyboard-response","208","313972","0.0-208.0","3N4BPTXIO9ET730V0FSKXJSRUHYUKE","A2KW87ZD2ELYNG","3H6W48L9F4B5OEOMH57RM53Z4H1WP0","","","img/flower3.png","74","383.5","1","1","1","1,0.5,0.5,0.5,1,0.5,0.5,0.5,1",""
"null","","html-keyboard-response","209","314276","0.0-209.0","3N4BPTXIO9ET730V0FSKXJSRUHYUKE","A2KW87ZD2ELYNG","3H6W48L9F4B5OEOMH57RM53Z4H1WP0","","","<img src=""img/flower3.png"" style=""width:200px; border:14px solid green;"">","null","","","","","",""
"342.7000000476837","","image-keyboard-response","210","314619","0.0-210.0","3N4BPTXIO9ET730V0FSKXJSRUHYUKE","A2KW87ZD2ELYNG","3H6W48L9F4B5OEOMH57RM53Z4H1WP0","","","img/flower3.png","74","343.19999980926514","1","1","1","1,0.5,0.5,0.5,1,0.5,0.5,0.5,1",""
"null","","html-keyboard-response","211","314924","0.0-211.0","3N4BPTXIO9ET730V0FSKXJSRUHYUKE","A2KW87ZD2ELYNG","3H6W48L9F4B5OEOMH57RM53Z4H1WP0","","","<img src=""img/flower3.png"" style=""width:200px; border:14px solid green;"">","null","","","","","",""
"667.5","","image-keyboard-response","212","315592","0.0-212.0","3N4BPTXIO9ET730V0FSKXJSRUHYUKE","A2KW87ZD2ELYNG","3H6W48L9F4B5OEOMH57RM53Z4H1WP0","","","img/flower1.png","75","667.9000000953674","2","1","2","1,0.5,0.5,0.5,1,0.5,0.5,0.5,1",""
"null","","html-keyboard-response","213","315900","0.0-213.0","3N4BPTXIO9ET730V0FSKXJSRUHYUKE","A2KW87ZD2ELYNG","3H6W48L9F4B5OEOMH57RM53Z4H1WP0","","","<img src=""img/flower1.png"" style=""width:200px; border:14px solid green;"">","null","","","","","",""
"743.7999999523163","","image-keyboard-response","214","316644","0.0-214.0","3N4BPTXIO9ET730V0FSKXJSRUHYUKE","A2KW87ZD2ELYNG","3H6W48L9F4B5OEOMH57RM53Z4H1WP0","","","img/flower3.png","74","744.2999999523163","1","1","1","1,0.5,0.5,0.5,1,0.5,0.5,0.5,1",""
"null","","html-keyboard-response","215","316948","0.0-215.0","3N4BPTXIO9ET730V0FSKXJSRUHYUKE","A2KW87ZD2ELYNG","3H6W48L9F4B5OEOMH57RM53Z4H1WP0","","","<img src=""img/flower3.png"" style=""width:200px; border:14px solid green;"">","null","","","","","",""
"624.7999999523163","","image-keyboard-response","216","317573","0.0-216.0","3N4BPTXIO9ET730V0FSKXJSRUHYUKE","A2KW87ZD2ELYNG","3H6W48L9F4B5OEOMH57RM53Z4H1WP0","","","img/flower6.png","76","625.1000001430511","3","1","3","1,0.5,0.5,0.5,1,0.5,0.5,0.5,1",""
"null","","html-keyboard-response","217","317876","0.0-217.0","3N4BPTXIO9ET730V0FSKXJSRUHYUKE","A2KW87ZD2ELYNG","3H6W48L9F4B5OEOMH57RM53Z4H1WP0","","","<img src=""img/flower6.png"" style=""width:200px; border:14px solid green;"">","null","","","","","",""
"581","","image-keyboard-response","218","318458","0.0-218.0","3N4BPTXIO9ET730V0FSKXJSRUHYUKE","A2KW87ZD2ELYNG","3H6W48L9F4B5OEOMH57RM53Z4H1WP0","","","img/flower1.png","75","581.6000001430511","2","1","2","1,0.5,0.5,0.5,1,0.5,0.5,0.5,1",""
"null","","html-keyboard-response","219","318764","0.0-219.0","3N4BPTXIO9ET730V0FSKXJSRUHYUKE","A2KW87ZD2ELYNG","3H6W48L9F4B5OEOMH57RM53Z4H1WP0","","","<img src=""img/flower1.png"" style=""width:200px; border:14px solid green;"">","null","","","","","",""
"558.5999999046326","","image-keyboard-response","220","319323","0.0-220.0","3N4BPTXIO9ET730V0FSKXJSRUHYUKE","A2KW87ZD2ELYNG","3H6W48L9F4B5OEOMH57RM53Z4H1WP0","","","img/flower6.png","76","559.2000000476837","3","1","3","1,0.5,0.5,0.5,1,0.5,0.5,0.5,1",""
"null","","html-keyboard-response","221","319628","0.0-221.0","3N4BPTXIO9ET730V0FSKXJSRUHYUKE","A2KW87ZD2ELYNG","3H6W48L9F4B5OEOMH57RM53Z4H1WP0","","","<img src=""img/flower6.png"" style=""width:200px; border:14px solid green;"">","null","","","","","",""
"594.1000001430511","","image-keyboard-response","222","320223","0.0-222.0","3N4BPTXIO9ET730V0FSKXJSRUHYUKE","A2KW87ZD2ELYNG","3H6W48L9F4B5OEOMH57RM53Z4H1WP0","","","img/flower1.png","75","594.6999998092651","2","1","2","1,0.5,0.5,0.5,1,0.5,0.5,0.5,1",""
"null","","html-keyboard-response","223","320524","0.0-223.0","3N4BPTXIO9ET730V0FSKXJSRUHYUKE","A2KW87ZD2ELYNG","3H6W48L9F4B5OEOMH57RM53Z4H1WP0","","","<img src=""img/flower1.png"" style=""width:200px; border:14px solid green;"">","null","","","","","",""
"614.7999999523163","","image-keyboard-response","224","321139","0.0-224.0","3N4BPTXIO9ET730V0FSKXJSRUHYUKE","A2KW87ZD2ELYNG","3H6W48L9F4B5OEOMH57RM53Z4H1WP0","","","img/flower6.png","76","615.2999999523163","3","1","3","1,0.5,0.5,0.5,1,0.5,0.5,0.5,1",""
"null","","html-keyboard-response","225","321444","0.0-225.0","3N4BPTXIO9ET730V0FSKXJSRUHYUKE","A2KW87ZD2ELYNG","3H6W48L9F4B5OEOMH57RM53Z4H1WP0","","","<img src=""img/flower6.png"" style=""width:200px; border:14px solid green;"">","null","","","","","",""
"490","","image-keyboard-response","226","321935","0.0-226.0","3N4BPTXIO9ET730V0FSKXJSRUHYUKE","A2KW87ZD2ELYNG","3H6W48L9F4B5OEOMH57RM53Z4H1WP0","","","img/flower6.png","76","490.5","3","1","3","1,0.5,0.5,0.5,1,0.5,0.5,0.5,1",""
"null","","html-keyboard-response","227","322236","0.0-227.0","3N4BPTXIO9ET730V0FSKXJSRUHYUKE","A2KW87ZD2ELYNG","3H6W48L9F4B5OEOMH57RM53Z4H1WP0","","","<img src=""img/flower6.png"" style=""width:200px; border:14px solid green;"">","null","","","","","",""
"410.89999985694885","","image-keyboard-response","228","322647","0.0-228.0","3N4BPTXIO9ET730V0FSKXJSRUHYUKE","A2KW87ZD2ELYNG","3H6W48L9F4B5OEOMH57RM53Z4H1WP0","","","img/flower6.png","76","411.39999985694885","3","1","3","1,0.5,0.5,0.5,1,0.5,0.5,0.5,1",""
"null","","html-keyboard-response","229","322956","0.0-229.0","3N4BPTXIO9ET730V0FSKXJSRUHYUKE","A2KW87ZD2ELYNG","3H6W48L9F4B5OEOMH57RM53Z4H1WP0","","","<img src=""img/flower6.png"" style=""width:200px; border:14px solid green;"">","null","","","","","",""
"695.9000000953674","","image-keyboard-response","230","323652","0.0-230.0","3N4BPTXIO9ET730V0FSKXJSRUHYUKE","A2KW87ZD2ELYNG","3H6W48L9F4B5OEOMH57RM53Z4H1WP0","","","img/flower1.png","75","696.2999999523163","2","1","2","1,0.5,0.5,0.5,1,0.5,0.5,0.5,1",""
"null","","html-keyboard-response","231","323956","0.0-231.0","3N4BPTXIO9ET730V0FSKXJSRUHYUKE","A2KW87ZD2ELYNG","3H6W48L9F4B5OEOMH57RM53Z4H1WP0","","","<img src=""img/flower1.png"" style=""width:200px; border:14px solid green;"">","null","","","","","",""
"391.7999999523163","","image-keyboard-response","232","324348","0.0-232.0","3N4BPTXIO9ET730V0FSKXJSRUHYUKE","A2KW87ZD2ELYNG","3H6W48L9F4B5OEOMH57RM53Z4H1WP0","","","img/flower1.png","75","392.40000009536743","2","1","2","1,0.5,0.5,0.5,1,0.5,0.5,0.5,1",""
"null","","html-keyboard-response","233","324652","0.0-233.0","3N4BPTXIO9ET730V0FSKXJSRUHYUKE","A2KW87ZD2ELYNG","3H6W48L9F4B5OEOMH57RM53Z4H1WP0","","","<img src=""img/flower1.png"" style=""width:200px; border:14px solid green;"">","null","","","","","",""
"622.2999999523163","","image-keyboard-response","234","325275","0.0-234.0","3N4BPTXIO9ET730V0FSKXJSRUHYUKE","A2KW87ZD2ELYNG","3H6W48L9F4B5OEOMH57RM53Z4H1WP0","","","img/flower3.png","74","623","1","1","1","1,0.5,0.5,0.5,1,0.5,0.5,0.5,1",""
"null","","html-keyboard-response","235","325580","0.0-235.0","3N4BPTXIO9ET730V0FSKXJSRUHYUKE","A2KW87ZD2ELYNG","3H6W48L9F4B5OEOMH57RM53Z4H1WP0","","","<img src=""img/flower3.png"" style=""width:200px; border:14px solid green;"">","null","","","","","",""
"438.89999985694885","","image-keyboard-response","236","326019","0.0-236.0","3N4BPTXIO9ET730V0FSKXJSRUHYUKE","A2KW87ZD2ELYNG","3H6W48L9F4B5OEOMH57RM53Z4H1WP0","","","img/flower3.png","74","439.40000009536743","1","1","1","1,0.5,0.5,0.5,1,0.5,0.5,0.5,1",""
"null","","html-keyboard-response","237","326324","0.0-237.0","3N4BPTXIO9ET730V0FSKXJSRUHYUKE","A2KW87ZD2ELYNG","3H6W48L9F4B5OEOMH57RM53Z4H1WP0","","","<img src=""img/flower3.png"" style=""width:200px; border:14px solid green;"">","null","","","","","",""
"621.7999999523163","","image-keyboard-response","238","326946","0.0-238.0","3N4BPTXIO9ET730V0FSKXJSRUHYUKE","A2KW87ZD2ELYNG","3H6W48L9F4B5OEOMH57RM53Z4H1WP0","","","img/flower6.png","75","622.2999999523163","2","0","3","1,0.5,0.5,0.5,1,0.5,0.5,0.5,1",""
"null","","html-keyboard-response","239","327252","0.0-239.0","3N4BPTXIO9ET730V0FSKXJSRUHYUKE","A2KW87ZD2ELYNG","3H6W48L9F4B5OEOMH57RM53Z4H1WP0","","","<img src=""img/flower6.png"" style=""width:200px;border:14px solid red;"">","null","","","","","",""
"874.5","","image-keyboard-response","240","328127","0.0-240.0","3N4BPTXIO9ET730V0FSKXJSRUHYUKE","A2KW87ZD2ELYNG","3H6W48L9F4B5OEOMH57RM53Z4H1WP0","","","img/flower1.png","75","875.1000001430511","2","1","2","1,0.5,0.5,0.5,1,0.5,0.5,0.5,1",""
"null","","html-keyboard-response","241","328428","0.0-241.0","3N4BPTXIO9ET730V0FSKXJSRUHYUKE","A2KW87ZD2ELYNG","3H6W48L9F4B5OEOMH57RM53Z4H1WP0","","","<img src=""img/flower1.png"" style=""width:200px; border:14px solid green;"">","null","","","","","",""
"906.7999999523163","","image-keyboard-response","242","329335","0.0-242.0","3N4BPTXIO9ET730V0FSKXJSRUHYUKE","A2KW87ZD2ELYNG","3H6W48L9F4B5OEOMH57RM53Z4H1WP0","","","img/flower3.png","74","907.2999999523163","1","1","1","1,0.5,0.5,0.5,1,0.5,0.5,0.5,1",""
"null","","html-keyboard-response","243","329644","0.0-243.0","3N4BPTXIO9ET730V0FSKXJSRUHYUKE","A2KW87ZD2ELYNG","3H6W48L9F4B5OEOMH57RM53Z4H1WP0","","","<img src=""img/flower3.png"" style=""width:200px; border:14px solid green;"">","null","","","","","",""
"492","","image-keyboard-response","244","330137","0.0-244.0","3N4BPTXIO9ET730V0FSKXJSRUHYUKE","A2KW87ZD2ELYNG","3H6W48L9F4B5OEOMH57RM53Z4H1WP0","","","img/flower3.png","74","492.5","1","1","1","1,0.5,0.5,0.5,1,0.5,0.5,0.5,1",""
"null","","html-keyboard-response","245","330444","0.0-245.0","3N4BPTXIO9ET730V0FSKXJSRUHYUKE","A2KW87ZD2ELYNG","3H6W48L9F4B5OEOMH57RM53Z4H1WP0","","","<img src=""img/flower3.png"" style=""width:200px; border:14px solid green;"">","null","","","","","",""
"429.60000014305115","","image-keyboard-response","246","330874","0.0-246.0","3N4BPTXIO9ET730V0FSKXJSRUHYUKE","A2KW87ZD2ELYNG","3H6W48L9F4B5OEOMH57RM53Z4H1WP0","","","img/flower3.png","74","430","1","1","1","1,0.5,0.5,0.5,1,0.5,0.5,0.5,1",""
"null","","html-keyboard-response","247","331180","0.0-247.0","3N4BPTXIO9ET730V0FSKXJSRUHYUKE","A2KW87ZD2ELYNG","3H6W48L9F4B5OEOMH57RM53Z4H1WP0","","","<img src=""img/flower3.png"" style=""width:200px; border:14px solid green;"">","null","","","","","",""
"392.2999999523163","","image-keyboard-response","248","331573","0.0-248.0","3N4BPTXIO9ET730V0FSKXJSRUHYUKE","A2KW87ZD2ELYNG","3H6W48L9F4B5OEOMH57RM53Z4H1WP0","","","img/flower3.png","74","393","1","1","1","1,0.5,0.5,0.5,1,0.5,0.5,0.5,1",""
"null","","html-keyboard-response","249","331876","0.0-249.0","3N4BPTXIO9ET730V0FSKXJSRUHYUKE","A2KW87ZD2ELYNG","3H6W48L9F4B5OEOMH57RM53Z4H1WP0","","","<img src=""img/flower3.png"" style=""width:200px; border:14px solid green;"">","null","","","","","",""
"353.5","","image-keyboard-response","250","332230","0.0-250.0","3N4BPTXIO9ET730V0FSKXJSRUHYUKE","A2KW87ZD2ELYNG","3H6W48L9F4B5OEOMH57RM53Z4H1WP0","","","img/flower3.png","74","354.2000000476837","1","1","1","1,0.5,0.5,0.5,1,0.5,0.5,0.5,1",""
"null","","html-keyboard-response","251","332532","0.0-251.0","3N4BPTXIO9ET730V0FSKXJSRUHYUKE","A2KW87ZD2ELYNG","3H6W48L9F4B5OEOMH57RM53Z4H1WP0","","","<img src=""img/flower3.png"" style=""width:200px; border:14px solid green;"">","null","","","","","",""
"343.09999990463257","","image-keyboard-response","252","332876","0.0-252.0","3N4BPTXIO9ET730V0FSKXJSRUHYUKE","A2KW87ZD2ELYNG","3H6W48L9F4B5OEOMH57RM53Z4H1WP0","","","img/flower3.png","74","343.39999985694885","1","1","1","1,0.5,0.5,0.5,1,0.5,0.5,0.5,1",""
"null","","html-keyboard-response","253","333180","0.0-253.0","3N4BPTXIO9ET730V0FSKXJSRUHYUKE","A2KW87ZD2ELYNG","3H6W48L9F4B5OEOMH57RM53Z4H1WP0","","","<img src=""img/flower3.png"" style=""width:200px; border:14px solid green;"">","null","","","","","",""
"1198.2000000476837","","image-keyboard-response","254","334379","0.0-254.0","3N4BPTXIO9ET730V0FSKXJSRUHYUKE","A2KW87ZD2ELYNG","3H6W48L9F4B5OEOMH57RM53Z4H1WP0","","","img/flower6.png","76","1198.7999999523163","3","1","3","1,0.5,0.5,0.5,1,0.5,0.5,0.5,1",""
"null","","html-keyboard-response","255","334684","0.0-255.0","3N4BPTXIO9ET730V0FSKXJSRUHYUKE","A2KW87ZD2ELYNG","3H6W48L9F4B5OEOMH57RM53Z4H1WP0","","","<img src=""img/flower6.png"" style=""width:200px; border:14px solid green;"">","null","","","","","",""
"451.89999985694885","","image-keyboard-response","256","335137","0.0-256.0","3N4BPTXIO9ET730V0FSKXJSRUHYUKE","A2KW87ZD2ELYNG","3H6W48L9F4B5OEOMH57RM53Z4H1WP0","","","img/flower6.png","76","452.5","3","1","3","1,0.5,0.5,0.5,1,0.5,0.5,0.5,1",""
"null","","html-keyboard-response","257","335444","0.0-257.0","3N4BPTXIO9ET730V0FSKXJSRUHYUKE","A2KW87ZD2ELYNG","3H6W48L9F4B5OEOMH57RM53Z4H1WP0","","","<img src=""img/flower6.png"" style=""width:200px; border:14px solid green;"">","null","","","","","",""
"371.7000000476837","","image-keyboard-response","258","335816","0.0-258.0","3N4BPTXIO9ET730V0FSKXJSRUHYUKE","A2KW87ZD2ELYNG","3H6W48L9F4B5OEOMH57RM53Z4H1WP0","","","img/flower6.png","76","372.2999999523163","3","1","3","1,0.5,0.5,0.5,1,0.5,0.5,0.5,1",""
"null","","html-keyboard-response","259","336124","0.0-259.0","3N4BPTXIO9ET730V0FSKXJSRUHYUKE","A2KW87ZD2ELYNG","3H6W48L9F4B5OEOMH57RM53Z4H1WP0","","","<img src=""img/flower6.png"" style=""width:200px; border:14px solid green;"">","null","","","","","",""
"534","","image-keyboard-response","260","336658","0.0-260.0","3N4BPTXIO9ET730V0FSKXJSRUHYUKE","A2KW87ZD2ELYNG","3H6W48L9F4B5OEOMH57RM53Z4H1WP0","","","img/flower1.png","75","534.4000000953674","2","1","2","1,0.5,0.5,0.5,1,0.5,0.5,0.5,1",""
"null","","html-keyboard-response","261","336964","0.0-261.0","3N4BPTXIO9ET730V0FSKXJSRUHYUKE","A2KW87ZD2ELYNG","3H6W48L9F4B5OEOMH57RM53Z4H1WP0","","","<img src=""img/flower1.png"" style=""width:200px; border:14px solid green;"">","null","","","","","",""
"593.7999999523163","","image-keyboard-response","262","337558","0.0-262.0","3N4BPTXIO9ET730V0FSKXJSRUHYUKE","A2KW87ZD2ELYNG","3H6W48L9F4B5OEOMH57RM53Z4H1WP0","","","img/flower6.png","76","594.5","3","1","3","1,0.5,0.5,0.5,1,0.5,0.5,0.5,1",""
"null","","html-keyboard-response","263","337860","0.0-263.0","3N4BPTXIO9ET730V0FSKXJSRUHYUKE","A2KW87ZD2ELYNG","3H6W48L9F4B5OEOMH57RM53Z4H1WP0","","","<img src=""img/flower6.png"" style=""width:200px; border:14px solid green;"">","null","","","","","",""
"428.2000000476837","","image-keyboard-response","264","338289","0.0-264.0","3N4BPTXIO9ET730V0FSKXJSRUHYUKE","A2KW87ZD2ELYNG","3H6W48L9F4B5OEOMH57RM53Z4H1WP0","","","img/flower6.png","76","428.59999990463257","3","1","3","1,0.5,0.5,0.5,1,0.5,0.5,0.5,1",""
"null","","html-keyboard-response","265","338596","0.0-265.0","3N4BPTXIO9ET730V0FSKXJSRUHYUKE","A2KW87ZD2ELYNG","3H6W48L9F4B5OEOMH57RM53Z4H1WP0","","","<img src=""img/flower6.png"" style=""width:200px; border:14px solid green;"">","null","","","","","",""
"378.5","","image-keyboard-response","266","338975","0.0-266.0","3N4BPTXIO9ET730V0FSKXJSRUHYUKE","A2KW87ZD2ELYNG","3H6W48L9F4B5OEOMH57RM53Z4H1WP0","","","img/flower6.png","76","379.09999990463257","3","1","3","1,0.5,0.5,0.5,1,0.5,0.5,0.5,1",""
"null","","html-keyboard-response","267","339276","0.0-267.0","3N4BPTXIO9ET730V0FSKXJSRUHYUKE","A2KW87ZD2ELYNG","3H6W48L9F4B5OEOMH57RM53Z4H1WP0","","","<img src=""img/flower6.png"" style=""width:200px; border:14px solid green;"">","null","","","","","",""
"510.7999999523163","","image-keyboard-response","268","339787","0.0-268.0","3N4BPTXIO9ET730V0FSKXJSRUHYUKE","A2KW87ZD2ELYNG","3H6W48L9F4B5OEOMH57RM53Z4H1WP0","","","img/flower1.png","75","511.2999999523163","2","1","2","1,0.5,0.5,0.5,1,0.5,0.5,0.5,1",""
"null","","html-keyboard-response","269","340092","0.0-269.0","3N4BPTXIO9ET730V0FSKXJSRUHYUKE","A2KW87ZD2ELYNG","3H6W48L9F4B5OEOMH57RM53Z4H1WP0","","","<img src=""img/flower1.png"" style=""width:200px; border:14px solid green;"">","null","","","","","",""
"400.90000009536743","","image-keyboard-response","270","340493","0.0-270.0","3N4BPTXIO9ET730V0FSKXJSRUHYUKE","A2KW87ZD2ELYNG","3H6W48L9F4B5OEOMH57RM53Z4H1WP0","","","img/flower1.png","75","401.2999999523163","2","1","2","1,0.5,0.5,0.5,1,0.5,0.5,0.5,1",""
"null","","html-keyboard-response","271","340796","0.0-271.0","3N4BPTXIO9ET730V0FSKXJSRUHYUKE","A2KW87ZD2ELYNG","3H6W48L9F4B5OEOMH57RM53Z4H1WP0","","","<img src=""img/flower1.png"" style=""width:200px; border:14px solid green;"">","null","","","","","",""
"677.8999998569489","","image-keyboard-response","272","341474","0.0-272.0","3N4BPTXIO9ET730V0FSKXJSRUHYUKE","A2KW87ZD2ELYNG","3H6W48L9F4B5OEOMH57RM53Z4H1WP0","","","img/flower6.png","76","678.5","3","1","3","1,0.5,0.5,0.5,1,0.5,0.5,0.5,1",""
"null","","html-keyboard-response","273","341780","0.0-273.0","3N4BPTXIO9ET730V0FSKXJSRUHYUKE","A2KW87ZD2ELYNG","3H6W48L9F4B5OEOMH57RM53Z4H1WP0","","","<img src=""img/flower6.png"" style=""width:200px; border:14px solid green;"">","null","","","","","",""
"655","","image-keyboard-response","274","342435","0.0-274.0","3N4BPTXIO9ET730V0FSKXJSRUHYUKE","A2KW87ZD2ELYNG","3H6W48L9F4B5OEOMH57RM53Z4H1WP0","","","img/flower3.png","74","655.5","1","1","1","1,0.5,0.5,0.5,1,0.5,0.5,0.5,1",""
"null","","html-keyboard-response","275","342740","0.0-275.0","3N4BPTXIO9ET730V0FSKXJSRUHYUKE","A2KW87ZD2ELYNG","3H6W48L9F4B5OEOMH57RM53Z4H1WP0","","","<img src=""img/flower3.png"" style=""width:200px; border:14px solid green;"">","null","","","","","",""
"421.89999985694885","","image-keyboard-response","276","343162","0.0-276.0","3N4BPTXIO9ET730V0FSKXJSRUHYUKE","A2KW87ZD2ELYNG","3H6W48L9F4B5OEOMH57RM53Z4H1WP0","","","img/flower3.png","74","422.40000009536743","1","1","1","1,0.5,0.5,0.5,1,0.5,0.5,0.5,1",""
"null","","html-keyboard-response","277","343468","0.0-277.0","3N4BPTXIO9ET730V0FSKXJSRUHYUKE","A2KW87ZD2ELYNG","3H6W48L9F4B5OEOMH57RM53Z4H1WP0","","","<img src=""img/flower3.png"" style=""width:200px; border:14px solid green;"">","null","","","","","",""
"671.7000000476837","","image-keyboard-response","278","344140","0.0-278.0","3N4BPTXIO9ET730V0FSKXJSRUHYUKE","A2KW87ZD2ELYNG","3H6W48L9F4B5OEOMH57RM53Z4H1WP0","","","img/flower1.png","75","672.1999998092651","2","1","2","1,0.5,0.5,0.5,1,0.5,0.5,0.5,1",""
"null","","html-keyboard-response","279","344444","0.0-279.0","3N4BPTXIO9ET730V0FSKXJSRUHYUKE","A2KW87ZD2ELYNG","3H6W48L9F4B5OEOMH57RM53Z4H1WP0","","","<img src=""img/flower1.png"" style=""width:200px; border:14px solid green;"">","null","","","","","",""
"436.40000009536743","","image-keyboard-response","280","344881","0.0-280.0","3N4BPTXIO9ET730V0FSKXJSRUHYUKE","A2KW87ZD2ELYNG","3H6W48L9F4B5OEOMH57RM53Z4H1WP0","","","img/flower1.png","75","436.7999999523163","2","1","2","1,0.5,0.5,0.5,1,0.5,0.5,0.5,1",""
"null","","html-keyboard-response","281","345188","0.0-281.0","3N4BPTXIO9ET730V0FSKXJSRUHYUKE","A2KW87ZD2ELYNG","3H6W48L9F4B5OEOMH57RM53Z4H1WP0","","","<img src=""img/flower1.png"" style=""width:200px; border:14px solid green;"">","null","","","","","",""
"493.59999990463257","","image-keyboard-response","282","345682","0.0-282.0","3N4BPTXIO9ET730V0FSKXJSRUHYUKE","A2KW87ZD2ELYNG","3H6W48L9F4B5OEOMH57RM53Z4H1WP0","","","img/flower1.png","75","494.2000000476837","2","1","2","1,0.5,0.5,0.5,1,0.5,0.5,0.5,1",""
"null","","html-keyboard-response","283","345988","0.0-283.0","3N4BPTXIO9ET730V0FSKXJSRUHYUKE","A2KW87ZD2ELYNG","3H6W48L9F4B5OEOMH57RM53Z4H1WP0","","","<img src=""img/flower1.png"" style=""width:200px; border:14px solid green;"">","null","","","","","",""
"739.0999999046326","","image-keyboard-response","284","346728","0.0-284.0","3N4BPTXIO9ET730V0FSKXJSRUHYUKE","A2KW87ZD2ELYNG","3H6W48L9F4B5OEOMH57RM53Z4H1WP0","","","img/flower3.png","74","739.7000000476837","1","1","1","1,0.5,0.5,0.5,1,0.5,0.5,0.5,1",""
"null","","html-keyboard-response","285","347036","0.0-285.0","3N4BPTXIO9ET730V0FSKXJSRUHYUKE","A2KW87ZD2ELYNG","3H6W48L9F4B5OEOMH57RM53Z4H1WP0","","","<img src=""img/flower3.png"" style=""width:200px; border:14px solid green;"">","null","","","","","",""
"540","","image-keyboard-response","286","347576","0.0-286.0","3N4BPTXIO9ET730V0FSKXJSRUHYUKE","A2KW87ZD2ELYNG","3H6W48L9F4B5OEOMH57RM53Z4H1WP0","","","img/flower1.png","76","540.2999999523163","3","0","2","1,0.5,0.5,0.5,1,0.5,0.5,0.5,1",""
"null","","html-keyboard-response","287","347884","0.0-287.0","3N4BPTXIO9ET730V0FSKXJSRUHYUKE","A2KW87ZD2ELYNG","3H6W48L9F4B5OEOMH57RM53Z4H1WP0","","","<img src=""img/flower1.png"" style=""width:200px;border:14px solid red;"">","null","","","","","",""
"476","","image-keyboard-response","288","348361","0.0-288.0","3N4BPTXIO9ET730V0FSKXJSRUHYUKE","A2KW87ZD2ELYNG","3H6W48L9F4B5OEOMH57RM53Z4H1WP0","","","img/flower1.png","75","476.69999980926514","2","1","2","1,0.5,0.5,0.5,1,0.5,0.5,0.5,1",""
"null","","html-keyboard-response","289","348668","0.0-289.0","3N4BPTXIO9ET730V0FSKXJSRUHYUKE","A2KW87ZD2ELYNG","3H6W48L9F4B5OEOMH57RM53Z4H1WP0","","","<img src=""img/flower1.png"" style=""width:200px; border:14px solid green;"">","null","","","","","",""
"684","","image-keyboard-response","290","349353","0.0-290.0","3N4BPTXIO9ET730V0FSKXJSRUHYUKE","A2KW87ZD2ELYNG","3H6W48L9F4B5OEOMH57RM53Z4H1WP0","","","img/flower6.png","76","684.5999999046326","3","1","3","1,0.5,0.5,0.5,1,0.5,0.5,0.5,1",""
"null","","html-keyboard-response","291","349660","0.0-291.0","3N4BPTXIO9ET730V0FSKXJSRUHYUKE","A2KW87ZD2ELYNG","3H6W48L9F4B5OEOMH57RM53Z4H1WP0","","","<img src=""img/flower6.png"" style=""width:200px; border:14px solid green;"">","null","","","","","",""
"713","","image-keyboard-response","292","350374","0.0-292.0","3N4BPTXIO9ET730V0FSKXJSRUHYUKE","A2KW87ZD2ELYNG","3H6W48L9F4B5OEOMH57RM53Z4H1WP0","","","img/flower3.png","74","713.6999998092651","1","1","1","1,0.5,0.5,0.5,1,0.5,0.5,0.5,1",""
"null","","html-keyboard-response","293","350676","0.0-293.0","3N4BPTXIO9ET730V0FSKXJSRUHYUKE","A2KW87ZD2ELYNG","3H6W48L9F4B5OEOMH57RM53Z4H1WP0","","","<img src=""img/flower3.png"" style=""width:200px; border:14px solid green;"">","null","","","","","",""
"718.2999999523163","","image-keyboard-response","294","351395","0.0-294.0","3N4BPTXIO9ET730V0FSKXJSRUHYUKE","A2KW87ZD2ELYNG","3H6W48L9F4B5OEOMH57RM53Z4H1WP0","","","img/flower6.png","75","719","2","0","3","1,0.5,0.5,0.5,1,0.5,0.5,0.5,1",""
"null","","html-keyboard-response","295","351700","0.0-295.0","3N4BPTXIO9ET730V0FSKXJSRUHYUKE","A2KW87ZD2ELYNG","3H6W48L9F4B5OEOMH57RM53Z4H1WP0","","","<img src=""img/flower6.png"" style=""width:200px;border:14px solid red;"">","null","","","","","",""
"773.5999999046326","","image-keyboard-response","296","352474","0.0-296.0","3N4BPTXIO9ET730V0FSKXJSRUHYUKE","A2KW87ZD2ELYNG","3H6W48L9F4B5OEOMH57RM53Z4H1WP0","","","img/flower3.png","74","774.3999998569489","1","1","1","1,0.5,0.5,0.5,1,0.5,0.5,0.5,1",""
"null","","html-keyboard-response","297","352780","0.0-297.0","3N4BPTXIO9ET730V0FSKXJSRUHYUKE","A2KW87ZD2ELYNG","3H6W48L9F4B5OEOMH57RM53Z4H1WP0","","","<img src=""img/flower3.png"" style=""width:200px; border:14px solid green;"">","null","","","","","",""
"464.7000000476837","","image-keyboard-response","298","353245","0.0-298.0","3N4BPTXIO9ET730V0FSKXJSRUHYUKE","A2KW87ZD2ELYNG","3H6W48L9F4B5OEOMH57RM53Z4H1WP0","","","img/flower3.png","74","465.2000000476837","1","1","1","1,0.5,0.5,0.5,1,0.5,0.5,0.5,1",""
"null","","html-keyboard-response","299","353548","0.0-299.0","3N4BPTXIO9ET730V0FSKXJSRUHYUKE","A2KW87ZD2ELYNG","3H6W48L9F4B5OEOMH57RM53Z4H1WP0","","","<img src=""img/flower3.png"" style=""width:200px; border:14px solid green;"">","null","","","","","",""
"755.9000000953674","","image-keyboard-response","300","354304","0.0-300.0","3N4BPTXIO9ET730V0FSKXJSRUHYUKE","A2KW87ZD2ELYNG","3H6W48L9F4B5OEOMH57RM53Z4H1WP0","","","img/flower6.png","76","756.2999999523163","3","1","3","1,0.5,0.5,0.5,1,0.5,0.5,0.5,1",""
"null","","html-keyboard-response","301","354612","0.0-301.0","3N4BPTXIO9ET730V0FSKXJSRUHYUKE","A2KW87ZD2ELYNG","3H6W48L9F4B5OEOMH57RM53Z4H1WP0","","","<img src=""img/flower6.png"" style=""width:200px; border:14px solid green;"">","null","","","","","",""
"720.2999999523163","","image-keyboard-response","302","355333","0.0-302.0","3N4BPTXIO9ET730V0FSKXJSRUHYUKE","A2KW87ZD2ELYNG","3H6W48L9F4B5OEOMH57RM53Z4H1WP0","","","img/flower3.png","74","720.7999999523163","1","1","1","1,0.5,0.5,0.5,1,0.5,0.5,0.5,1",""
"null","","html-keyboard-response","303","355636","0.0-303.0","3N4BPTXIO9ET730V0FSKXJSRUHYUKE","A2KW87ZD2ELYNG","3H6W48L9F4B5OEOMH57RM53Z4H1WP0","","","<img src=""img/flower3.png"" style=""width:200px; border:14px solid green;"">","null","","","","","",""
"456.69999980926514","","image-keyboard-response","304","356093","0.0-304.0","3N4BPTXIO9ET730V0FSKXJSRUHYUKE","A2KW87ZD2ELYNG","3H6W48L9F4B5OEOMH57RM53Z4H1WP0","","","img/flower3.png","74","457.2999999523163","1","1","1","1,0.5,0.5,0.5,1,0.5,0.5,0.5,1",""
"null","","html-keyboard-response","305","356396","0.0-305.0","3N4BPTXIO9ET730V0FSKXJSRUHYUKE","A2KW87ZD2ELYNG","3H6W48L9F4B5OEOMH57RM53Z4H1WP0","","","<img src=""img/flower3.png"" style=""width:200px; border:14px solid green;"">","null","","","","","",""
"","","html-keyboard-response","306","359739","0.0-306.0","3N4BPTXIO9ET730V0FSKXJSRUHYUKE","A2KW87ZD2ELYNG","3H6W48L9F4B5OEOMH57RM53Z4H1WP0","","","","","","","","","",""
"1273.5","","image-keyboard-response","307","361013","0.0-307.0","3N4BPTXIO9ET730V0FSKXJSRUHYUKE","A2KW87ZD2ELYNG","3H6W48L9F4B5OEOMH57RM53Z4H1WP0","","","img/flower2.png","75","1274.2000000476837","2","0","3","1,1,0,0,1,1,1,0,1",""
"null","","html-keyboard-response","308","361316","0.0-308.0","3N4BPTXIO9ET730V0FSKXJSRUHYUKE","A2KW87ZD2ELYNG","3H6W48L9F4B5OEOMH57RM53Z4H1WP0","","","<img src=""img/flower2.png"" style=""width:200px;border:14px solid red;"">","null","","","","","",""
"860.5","","image-keyboard-response","309","362177","0.0-309.0","3N4BPTXIO9ET730V0FSKXJSRUHYUKE","A2KW87ZD2ELYNG","3H6W48L9F4B5OEOMH57RM53Z4H1WP0","","","img/flower4.png","74","861.0999999046326","1","0","2","1,1,0,0,1,1,1,0,1",""
"null","","html-keyboard-response","310","362484","0.0-310.0","3N4BPTXIO9ET730V0FSKXJSRUHYUKE","A2KW87ZD2ELYNG","3H6W48L9F4B5OEOMH57RM53Z4H1WP0","","","<img src=""img/flower4.png"" style=""width:200px;border:14px solid red;"">","null","","","","","",""
"1399.0999999046326","","image-keyboard-response","311","363884","0.0-311.0","3N4BPTXIO9ET730V0FSKXJSRUHYUKE","A2KW87ZD2ELYNG","3H6W48L9F4B5OEOMH57RM53Z4H1WP0","","","img/flower5.png","76","1399.7999999523163","3","0","1","1,1,0,0,1,1,1,0,1",""
"null","","html-keyboard-response","312","364188","0.0-312.0","3N4BPTXIO9ET730V0FSKXJSRUHYUKE","A2KW87ZD2ELYNG","3H6W48L9F4B5OEOMH57RM53Z4H1WP0","","","<img src=""img/flower5.png"" style=""width:200px;border:14px solid red;"">","null","","","","","",""
"831.0999999046326","","image-keyboard-response","313","365020","0.0-313.0","3N4BPTXIO9ET730V0FSKXJSRUHYUKE","A2KW87ZD2ELYNG","3H6W48L9F4B5OEOMH57RM53Z4H1WP0","","","img/flower5.png","75","831.7000000476837","2","1","1","1,1,0,0,1,1,1,0,1",""
"null","","html-keyboard-response","314","365324","0.0-314.0","3N4BPTXIO9ET730V0FSKXJSRUHYUKE","A2KW87ZD2ELYNG","3H6W48L9F4B5OEOMH57RM53Z4H1WP0","","","<img src=""img/flower5.png"" style=""width:200px; border:14px solid green;"">","null","","","","","",""
"1290.7000000476837","","image-keyboard-response","315","366615","0.0-315.0","3N4BPTXIO9ET730V0FSKXJSRUHYUKE","A2KW87ZD2ELYNG","3H6W48L9F4B5OEOMH57RM53Z4H1WP0","","","img/flower5.png","75","1291.2000000476837","2","1","1","1,1,0,0,1,1,1,0,1",""
"null","","html-keyboard-response","316","366916","0.0-316.0","3N4BPTXIO9ET730V0FSKXJSRUHYUKE","A2KW87ZD2ELYNG","3H6W48L9F4B5OEOMH57RM53Z4H1WP0","","","<img src=""img/flower5.png"" style=""width:200px; border:14px solid green;"">","null","","","","","",""
"1879.4000000953674","","image-keyboard-response","317","368796","0.0-317.0","3N4BPTXIO9ET730V0FSKXJSRUHYUKE","A2KW87ZD2ELYNG","3H6W48L9F4B5OEOMH57RM53Z4H1WP0","","","img/flower2.png","74","1879.8999998569489","1","1","3","1,1,0,0,1,1,1,0,1",""
"null","","html-keyboard-response","318","369100","0.0-318.0","3N4BPTXIO9ET730V0FSKXJSRUHYUKE","A2KW87ZD2ELYNG","3H6W48L9F4B5OEOMH57RM53Z4H1WP0","","","<img src=""img/flower2.png"" style=""width:200px; border:14px solid green;"">","null","","","","","",""
"588.2999999523163","","image-keyboard-response","319","369689","0.0-319.0","3N4BPTXIO9ET730V0FSKXJSRUHYUKE","A2KW87ZD2ELYNG","3H6W48L9F4B5OEOMH57RM53Z4H1WP0","","","img/flower2.png","74","588.9000000953674","1","1","3","1,1,0,0,1,1,1,0,1",""
"null","","html-keyboard-response","320","369996","0.0-320.0","3N4BPTXIO9ET730V0FSKXJSRUHYUKE","A2KW87ZD2ELYNG","3H6W48L9F4B5OEOMH57RM53Z4H1WP0","","","<img src=""img/flower2.png"" style=""width:200px; border:14px solid green;"">","null","","","","","",""
"1687.5","","image-keyboard-response","321","371684","0.0-321.0","3N4BPTXIO9ET730V0FSKXJSRUHYUKE","A2KW87ZD2ELYNG","3H6W48L9F4B5OEOMH57RM53Z4H1WP0","","","img/flower4.png","76","1688.1000001430511","3","1","2","1,1,0,0,1,1,1,0,1",""
"null","","html-keyboard-response","322","371988","0.0-322.0","3N4BPTXIO9ET730V0FSKXJSRUHYUKE","A2KW87ZD2ELYNG","3H6W48L9F4B5OEOMH57RM53Z4H1WP0","","","<img src=""img/flower4.png"" style=""width:200px; border:14px solid green;"">","null","","","","","",""
"1781.4000000953674","","image-keyboard-response","323","373770","0.0-323.0","3N4BPTXIO9ET730V0FSKXJSRUHYUKE","A2KW87ZD2ELYNG","3H6W48L9F4B5OEOMH57RM53Z4H1WP0","","","img/flower2.png","74","1781.9000000953674","1","1","3","1,1,0,0,1,1,1,0,1",""
"null","","html-keyboard-response","324","374076","0.0-324.0","3N4BPTXIO9ET730V0FSKXJSRUHYUKE","A2KW87ZD2ELYNG","3H6W48L9F4B5OEOMH57RM53Z4H1WP0","","","<img src=""img/flower2.png"" style=""width:200px; border:14px solid green;"">","null","","","","","",""
"579.7000000476837","","image-keyboard-response","325","374656","0.0-325.0","3N4BPTXIO9ET730V0FSKXJSRUHYUKE","A2KW87ZD2ELYNG","3H6W48L9F4B5OEOMH57RM53Z4H1WP0","","","img/flower2.png","74","580.4000000953674","1","1","3","1,1,0,0,1,1,1,0,1",""
"null","","html-keyboard-response","326","374964","0.0-326.0","3N4BPTXIO9ET730V0FSKXJSRUHYUKE","A2KW87ZD2ELYNG","3H6W48L9F4B5OEOMH57RM53Z4H1WP0","","","<img src=""img/flower2.png"" style=""width:200px; border:14px solid green;"">","null","","","","","",""
"1940.5","","image-keyboard-response","327","376905","0.0-327.0","3N4BPTXIO9ET730V0FSKXJSRUHYUKE","A2KW87ZD2ELYNG","3H6W48L9F4B5OEOMH57RM53Z4H1WP0","","","img/flower2.png","74","1941.1000001430511","1","1","3","1,1,0,0,1,1,1,0,1",""
"null","","html-keyboard-response","328","377212","0.0-328.0","3N4BPTXIO9ET730V0FSKXJSRUHYUKE","A2KW87ZD2ELYNG","3H6W48L9F4B5OEOMH57RM53Z4H1WP0","","","<img src=""img/flower2.png"" style=""width:200px; border:14px solid green;"">","null","","","","","",""
"416.2000000476837","","image-keyboard-response","329","377629","0.0-329.0","3N4BPTXIO9ET730V0FSKXJSRUHYUKE","A2KW87ZD2ELYNG","3H6W48L9F4B5OEOMH57RM53Z4H1WP0","","","img/flower2.png","74","416.7999999523163","1","1","3","1,1,0,0,1,1,1,0,1",""
"null","","html-keyboard-response","330","377932","0.0-330.0","3N4BPTXIO9ET730V0FSKXJSRUHYUKE","A2KW87ZD2ELYNG","3H6W48L9F4B5OEOMH57RM53Z4H1WP0","","","<img src=""img/flower2.png"" style=""width:200px; border:14px solid green;"">","null","","","","","",""
"355.59999990463257","","image-keyboard-response","331","378288","0.0-331.0","3N4BPTXIO9ET730V0FSKXJSRUHYUKE","A2KW87ZD2ELYNG","3H6W48L9F4B5OEOMH57RM53Z4H1WP0","","","img/flower2.png","74","356.2000000476837","1","1","3","1,1,0,0,1,1,1,0,1",""
"null","","html-keyboard-response","332","378596","0.0-332.0","3N4BPTXIO9ET730V0FSKXJSRUHYUKE","A2KW87ZD2ELYNG","3H6W48L9F4B5OEOMH57RM53Z4H1WP0","","","<img src=""img/flower2.png"" style=""width:200px; border:14px solid green;"">","null","","","","","",""
"350.80000019073486","","image-keyboard-response","333","378947","0.0-333.0","3N4BPTXIO9ET730V0FSKXJSRUHYUKE","A2KW87ZD2ELYNG","3H6W48L9F4B5OEOMH57RM53Z4H1WP0","","","img/flower2.png","74","351.40000009536743","1","1","3","1,1,0,0,1,1,1,0,1",""
"null","","html-keyboard-response","334","379252","0.0-334.0","3N4BPTXIO9ET730V0FSKXJSRUHYUKE","A2KW87ZD2ELYNG","3H6W48L9F4B5OEOMH57RM53Z4H1WP0","","","<img src=""img/flower2.png"" style=""width:200px; border:14px solid green;"">","null","","","","","",""
"1272.2999999523163","","image-keyboard-response","335","380525","0.0-335.0","3N4BPTXIO9ET730V0FSKXJSRUHYUKE","A2KW87ZD2ELYNG","3H6W48L9F4B5OEOMH57RM53Z4H1WP0","","","img/flower4.png","76","1272.9000000953674","3","1","2","1,1,0,0,1,1,1,0,1",""
"null","","html-keyboard-response","336","380828","0.0-336.0","3N4BPTXIO9ET730V0FSKXJSRUHYUKE","A2KW87ZD2ELYNG","3H6W48L9F4B5OEOMH57RM53Z4H1WP0","","","<img src=""img/flower4.png"" style=""width:200px; border:14px solid green;"">","null","","","","","",""
"711","","image-keyboard-response","337","381540","0.0-337.0","3N4BPTXIO9ET730V0FSKXJSRUHYUKE","A2KW87ZD2ELYNG","3H6W48L9F4B5OEOMH57RM53Z4H1WP0","","","img/flower5.png","75","711.5","2","1","1","1,1,0,0,1,1,1,0,1",""
"null","","html-keyboard-response","338","381844","0.0-338.0","3N4BPTXIO9ET730V0FSKXJSRUHYUKE","A2KW87ZD2ELYNG","3H6W48L9F4B5OEOMH57RM53Z4H1WP0","","","<img src=""img/flower5.png"" style=""width:200px; border:14px solid green;"">","null","","","","","",""
"808.4000000953674","","image-keyboard-response","339","382653","0.0-339.0","3N4BPTXIO9ET730V0FSKXJSRUHYUKE","A2KW87ZD2ELYNG","3H6W48L9F4B5OEOMH57RM53Z4H1WP0","","","img/flower4.png","76","809","3","1","2","1,1,0,0,1,1,1,0,1",""
"null","","html-keyboard-response","340","382956","0.0-340.0","3N4BPTXIO9ET730V0FSKXJSRUHYUKE","A2KW87ZD2ELYNG","3H6W48L9F4B5OEOMH57RM53Z4H1WP0","","","<img src=""img/flower4.png"" style=""width:200px; border:14px solid green;"">","null","","","","","",""
"446.7000000476837","","image-keyboard-response","341","383403","0.0-341.0","3N4BPTXIO9ET730V0FSKXJSRUHYUKE","A2KW87ZD2ELYNG","3H6W48L9F4B5OEOMH57RM53Z4H1WP0","","","img/flower4.png","76","447.2999999523163","3","1","2","1,1,0,0,1,1,1,0,1",""
"null","","html-keyboard-response","342","383708","0.0-342.0","3N4BPTXIO9ET730V0FSKXJSRUHYUKE","A2KW87ZD2ELYNG","3H6W48L9F4B5OEOMH57RM53Z4H1WP0","","","<img src=""img/flower4.png"" style=""width:200px; border:14px solid green;"">","null","","","","","",""
"536.9000000953674","","image-keyboard-response","343","384246","0.0-343.0","3N4BPTXIO9ET730V0FSKXJSRUHYUKE","A2KW87ZD2ELYNG","3H6W48L9F4B5OEOMH57RM53Z4H1WP0","","","img/flower5.png","75","537.3999998569489","2","1","1","1,1,0,0,1,1,1,0,1",""
"null","","html-keyboard-response","344","384548","0.0-344.0","3N4BPTXIO9ET730V0FSKXJSRUHYUKE","A2KW87ZD2ELYNG","3H6W48L9F4B5OEOMH57RM53Z4H1WP0","","","<img src=""img/flower5.png"" style=""width:200px; border:14px solid green;"">","null","","","","","",""
"1705.0999999046326","","image-keyboard-response","345","386254","0.0-345.0","3N4BPTXIO9ET730V0FSKXJSRUHYUKE","A2KW87ZD2ELYNG","3H6W48L9F4B5OEOMH57RM53Z4H1WP0","","","img/flower4.png","76","1705.7000000476837","3","1","2","1,1,0,0,1,1,1,0,1",""
"null","","html-keyboard-response","346","386556","0.0-346.0","3N4BPTXIO9ET730V0FSKXJSRUHYUKE","A2KW87ZD2ELYNG","3H6W48L9F4B5OEOMH57RM53Z4H1WP0","","","<img src=""img/flower4.png"" style=""width:200px; border:14px solid green;"">","null","","","","","",""
"599.9000000953674","","image-keyboard-response","347","387156","0.0-347.0","3N4BPTXIO9ET730V0FSKXJSRUHYUKE","A2KW87ZD2ELYNG","3H6W48L9F4B5OEOMH57RM53Z4H1WP0","","","img/flower4.png","76","600.2999999523163","3","1","2","1,1,0,0,1,1,1,0,1",""
"null","","html-keyboard-response","348","387460","0.0-348.0","3N4BPTXIO9ET730V0FSKXJSRUHYUKE","A2KW87ZD2ELYNG","3H6W48L9F4B5OEOMH57RM53Z4H1WP0","","","<img src=""img/flower4.png"" style=""width:200px; border:14px solid green;"">","null","","","","","",""
"1147.7999999523163","","image-keyboard-response","349","388608","0.0-349.0","3N4BPTXIO9ET730V0FSKXJSRUHYUKE","A2KW87ZD2ELYNG","3H6W48L9F4B5OEOMH57RM53Z4H1WP0","","","img/flower4.png","76","1148.4000000953674","3","1","2","1,1,0,0,1,1,1,0,1",""
"null","","html-keyboard-response","350","388916","0.0-350.0","3N4BPTXIO9ET730V0FSKXJSRUHYUKE","A2KW87ZD2ELYNG","3H6W48L9F4B5OEOMH57RM53Z4H1WP0","","","<img src=""img/flower4.png"" style=""width:200px; border:14px solid green;"">","null","","","","","",""
"690","","image-keyboard-response","351","389606","0.0-351.0","3N4BPTXIO9ET730V0FSKXJSRUHYUKE","A2KW87ZD2ELYNG","3H6W48L9F4B5OEOMH57RM53Z4H1WP0","","","img/flower2.png","75","690.2999999523163","2","0","3","1,1,0,0,1,1,1,0,1",""
"null","","html-keyboard-response","352","389908","0.0-352.0","3N4BPTXIO9ET730V0FSKXJSRUHYUKE","A2KW87ZD2ELYNG","3H6W48L9F4B5OEOMH57RM53Z4H1WP0","","","<img src=""img/flower2.png"" style=""width:200px;border:14px solid red;"">","null","","","","","",""
"516.3999998569489","","image-keyboard-response","353","390425","0.0-353.0","3N4BPTXIO9ET730V0FSKXJSRUHYUKE","A2KW87ZD2ELYNG","3H6W48L9F4B5OEOMH57RM53Z4H1WP0","","","img/flower2.png","74","516.8999998569489","1","1","3","1,1,0,0,1,1,1,0,1",""
"null","","html-keyboard-response","354","390732","0.0-354.0","3N4BPTXIO9ET730V0FSKXJSRUHYUKE","A2KW87ZD2ELYNG","3H6W48L9F4B5OEOMH57RM53Z4H1WP0","","","<img src=""img/flower2.png"" style=""width:200px; border:14px solid green;"">","null","","","","","",""
"643.2000000476837","","image-keyboard-response","355","391376","0.0-355.0","3N4BPTXIO9ET730V0FSKXJSRUHYUKE","A2KW87ZD2ELYNG","3H6W48L9F4B5OEOMH57RM53Z4H1WP0","","","img/flower5.png","75","643.7999999523163","2","1","1","1,1,0,0,1,1,1,0,1",""
"null","","html-keyboard-response","356","391684","0.0-356.0","3N4BPTXIO9ET730V0FSKXJSRUHYUKE","A2KW87ZD2ELYNG","3H6W48L9F4B5OEOMH57RM53Z4H1WP0","","","<img src=""img/flower5.png"" style=""width:200px; border:14px solid green;"">","null","","","","","",""
"414.40000009536743","","image-keyboard-response","357","392099","0.0-357.0","3N4BPTXIO9ET730V0FSKXJSRUHYUKE","A2KW87ZD2ELYNG","3H6W48L9F4B5OEOMH57RM53Z4H1WP0","","","img/flower5.png","75","415.09999990463257","2","1","1","1,1,0,0,1,1,1,0,1",""
"null","","html-keyboard-response","358","392404","0.0-358.0","3N4BPTXIO9ET730V0FSKXJSRUHYUKE","A2KW87ZD2ELYNG","3H6W48L9F4B5OEOMH57RM53Z4H1WP0","","","<img src=""img/flower5.png"" style=""width:200px; border:14px solid green;"">","null","","","","","",""
"398.30000019073486","","image-keyboard-response","359","392803","0.0-359.0","3N4BPTXIO9ET730V0FSKXJSRUHYUKE","A2KW87ZD2ELYNG","3H6W48L9F4B5OEOMH57RM53Z4H1WP0","","","img/flower5.png","75","398.7999999523163","2","1","1","1,1,0,0,1,1,1,0,1",""
"null","","html-keyboard-response","360","393108","0.0-360.0","3N4BPTXIO9ET730V0FSKXJSRUHYUKE","A2KW87ZD2ELYNG","3H6W48L9F4B5OEOMH57RM53Z4H1WP0","","","<img src=""img/flower5.png"" style=""width:200px; border:14px solid green;"">","null","","","","","",""
"1973.2999999523163","","image-keyboard-response","361","395082","0.0-361.0","3N4BPTXIO9ET730V0FSKXJSRUHYUKE","A2KW87ZD2ELYNG","3H6W48L9F4B5OEOMH57RM53Z4H1WP0","","","img/flower4.png","76","1973.7999999523163","3","1","2","1,1,0,0,1,1,1,0,1",""
"null","","html-keyboard-response","362","395388","0.0-362.0","3N4BPTXIO9ET730V0FSKXJSRUHYUKE","A2KW87ZD2ELYNG","3H6W48L9F4B5OEOMH57RM53Z4H1WP0","","","<img src=""img/flower4.png"" style=""width:200px; border:14px solid green;"">","null","","","","","",""
"382.7000000476837","","image-keyboard-response","363","395771","0.0-363.0","3N4BPTXIO9ET730V0FSKXJSRUHYUKE","A2KW87ZD2ELYNG","3H6W48L9F4B5OEOMH57RM53Z4H1WP0","","","img/flower4.png","76","383.2999999523163","3","1","2","1,1,0,0,1,1,1,0,1",""
"null","","html-keyboard-response","364","396076","0.0-364.0","3N4BPTXIO9ET730V0FSKXJSRUHYUKE","A2KW87ZD2ELYNG","3H6W48L9F4B5OEOMH57RM53Z4H1WP0","","","<img src=""img/flower4.png"" style=""width:200px; border:14px solid green;"">","null","","","","","",""
"1391.5999999046326","","image-keyboard-response","365","397468","0.0-365.0","3N4BPTXIO9ET730V0FSKXJSRUHYUKE","A2KW87ZD2ELYNG","3H6W48L9F4B5OEOMH57RM53Z4H1WP0","","","img/flower2.png","74","1392.2000000476837","1","1","3","1,1,0,0,1,1,1,0,1",""
"null","","html-keyboard-response","366","397772","0.0-366.0","3N4BPTXIO9ET730V0FSKXJSRUHYUKE","A2KW87ZD2ELYNG","3H6W48L9F4B5OEOMH57RM53Z4H1WP0","","","<img src=""img/flower2.png"" style=""width:200px; border:14px solid green;"">","null","","","","","",""
"706.7999999523163","","image-keyboard-response","367","398479","0.0-367.0","3N4BPTXIO9ET730V0FSKXJSRUHYUKE","A2KW87ZD2ELYNG","3H6W48L9F4B5OEOMH57RM53Z4H1WP0","","","img/flower5.png","75","707.4000000953674","2","1","1","1,1,0,0,1,1,1,0,1",""
"null","","html-keyboard-response","368","398788","0.0-368.0","3N4BPTXIO9ET730V0FSKXJSRUHYUKE","A2KW87ZD2ELYNG","3H6W48L9F4B5OEOMH57RM53Z4H1WP0","","","<img src=""img/flower5.png"" style=""width:200px; border:14px solid green;"">","null","","","","","",""
"465.2999999523163","","image-keyboard-response","369","399254","0.0-369.0","3N4BPTXIO9ET730V0FSKXJSRUHYUKE","A2KW87ZD2ELYNG","3H6W48L9F4B5OEOMH57RM53Z4H1WP0","","","img/flower5.png","75","465.7999999523163","2","1","1","1,1,0,0,1,1,1,0,1",""
"null","","html-keyboard-response","370","399556","0.0-370.0","3N4BPTXIO9ET730V0FSKXJSRUHYUKE","A2KW87ZD2ELYNG","3H6W48L9F4B5OEOMH57RM53Z4H1WP0","","","<img src=""img/flower5.png"" style=""width:200px; border:14px solid green;"">","null","","","","","",""
"373.30000019073486","","image-keyboard-response","371","399930","0.0-371.0","3N4BPTXIO9ET730V0FSKXJSRUHYUKE","A2KW87ZD2ELYNG","3H6W48L9F4B5OEOMH57RM53Z4H1WP0","","","img/flower5.png","75","373.7999999523163","2","1","1","1,1,0,0,1,1,1,0,1",""
"null","","html-keyboard-response","372","400236","0.0-372.0","3N4BPTXIO9ET730V0FSKXJSRUHYUKE","A2KW87ZD2ELYNG","3H6W48L9F4B5OEOMH57RM53Z4H1WP0","","","<img src=""img/flower5.png"" style=""width:200px; border:14px solid green;"">","null","","","","","",""
"359","","image-keyboard-response","373","400596","0.0-373.0","3N4BPTXIO9ET730V0FSKXJSRUHYUKE","A2KW87ZD2ELYNG","3H6W48L9F4B5OEOMH57RM53Z4H1WP0","","","img/flower5.png","75","359.59999990463257","2","1","1","1,1,0,0,1,1,1,0,1",""
"null","","html-keyboard-response","374","400900","0.0-374.0","3N4BPTXIO9ET730V0FSKXJSRUHYUKE","A2KW87ZD2ELYNG","3H6W48L9F4B5OEOMH57RM53Z4H1WP0","","","<img src=""img/flower5.png"" style=""width:200px; border:14px solid green;"">","null","","","","","",""
"635.2999999523163","","image-keyboard-response","375","401536","0.0-375.0","3N4BPTXIO9ET730V0FSKXJSRUHYUKE","A2KW87ZD2ELYNG","3H6W48L9F4B5OEOMH57RM53Z4H1WP0","","","img/flower2.png","74","636","1","1","3","1,1,0,0,1,1,1,0,1",""
"null","","html-keyboard-response","376","401844","0.0-376.0","3N4BPTXIO9ET730V0FSKXJSRUHYUKE","A2KW87ZD2ELYNG","3H6W48L9F4B5OEOMH57RM53Z4H1WP0","","","<img src=""img/flower2.png"" style=""width:200px; border:14px solid green;"">","null","","","","","",""
"974.7999999523163","","image-keyboard-response","377","402820","0.0-377.0","3N4BPTXIO9ET730V0FSKXJSRUHYUKE","A2KW87ZD2ELYNG","3H6W48L9F4B5OEOMH57RM53Z4H1WP0","","","img/flower4.png","76","975.3999998569489","3","1","2","1,1,0,0,1,1,1,0,1",""
"null","","html-keyboard-response","378","403124","0.0-378.0","3N4BPTXIO9ET730V0FSKXJSRUHYUKE","A2KW87ZD2ELYNG","3H6W48L9F4B5OEOMH57RM53Z4H1WP0","","","<img src=""img/flower4.png"" style=""width:200px; border:14px solid green;"">","null","","","","","",""
"451.39999985694885","","image-keyboard-response","379","403576","0.0-379.0","3N4BPTXIO9ET730V0FSKXJSRUHYUKE","A2KW87ZD2ELYNG","3H6W48L9F4B5OEOMH57RM53Z4H1WP0","","","img/flower4.png","76","451.7999999523163","3","1","2","1,1,0,0,1,1,1,0,1",""
"null","","html-keyboard-response","380","403884","0.0-380.0","3N4BPTXIO9ET730V0FSKXJSRUHYUKE","A2KW87ZD2ELYNG","3H6W48L9F4B5OEOMH57RM53Z4H1WP0","","","<img src=""img/flower4.png"" style=""width:200px; border:14px solid green;"">","null","","","","","",""
"654.9000000953674","","image-keyboard-response","381","404540","0.0-381.0","3N4BPTXIO9ET730V0FSKXJSRUHYUKE","A2KW87ZD2ELYNG","3H6W48L9F4B5OEOMH57RM53Z4H1WP0","","","img/flower2.png","74","655.7999999523163","1","1","3","1,1,0,0,1,1,1,0,1",""
"null","","html-keyboard-response","382","404844","0.0-382.0","3N4BPTXIO9ET730V0FSKXJSRUHYUKE","A2KW87ZD2ELYNG","3H6W48L9F4B5OEOMH57RM53Z4H1WP0","","","<img src=""img/flower2.png"" style=""width:200px; border:14px solid green;"">","null","","","","","",""
"598.5","","image-keyboard-response","383","405443","0.0-383.0","3N4BPTXIO9ET730V0FSKXJSRUHYUKE","A2KW87ZD2ELYNG","3H6W48L9F4B5OEOMH57RM53Z4H1WP0","","","img/flower5.png","75","599.1000001430511","2","1","1","1,1,0,0,1,1,1,0,1",""
"null","","html-keyboard-response","384","405748","0.0-384.0","3N4BPTXIO9ET730V0FSKXJSRUHYUKE","A2KW87ZD2ELYNG","3H6W48L9F4B5OEOMH57RM53Z4H1WP0","","","<img src=""img/flower5.png"" style=""width:200px; border:14px solid green;"">","null","","","","","",""
"1021.3999998569489","","image-keyboard-response","385","406770","0.0-385.0","3N4BPTXIO9ET730V0FSKXJSRUHYUKE","A2KW87ZD2ELYNG","3H6W48L9F4B5OEOMH57RM53Z4H1WP0","","","img/flower2.png","74","1022","1","1","3","1,1,0,0,1,1,1,0,1",""
"null","","html-keyboard-response","386","407076","0.0-386.0","3N4BPTXIO9ET730V0FSKXJSRUHYUKE","A2KW87ZD2ELYNG","3H6W48L9F4B5OEOMH57RM53Z4H1WP0","","","<img src=""img/flower2.png"" style=""width:200px; border:14px solid green;"">","null","","","","","",""
"881.2000000476837","","image-keyboard-response","387","407958","0.0-387.0","3N4BPTXIO9ET730V0FSKXJSRUHYUKE","A2KW87ZD2ELYNG","3H6W48L9F4B5OEOMH57RM53Z4H1WP0","","","img/flower4.png","76","881.7000000476837","3","1","2","1,1,0,0,1,1,1,0,1",""
"null","","html-keyboard-response","388","408260","0.0-388.0","3N4BPTXIO9ET730V0FSKXJSRUHYUKE","A2KW87ZD2ELYNG","3H6W48L9F4B5OEOMH57RM53Z4H1WP0","","","<img src=""img/flower4.png"" style=""width:200px; border:14px solid green;"">","null","","","","","",""
"1264.8000001907349","","image-keyboard-response","389","409525","0.0-389.0","3N4BPTXIO9ET730V0FSKXJSRUHYUKE","A2KW87ZD2ELYNG","3H6W48L9F4B5OEOMH57RM53Z4H1WP0","","","img/flower2.png","74","1265.2000000476837","1","1","3","1,1,0,0,1,1,1,0,1",""
"null","","html-keyboard-response","390","409828","0.0-390.0","3N4BPTXIO9ET730V0FSKXJSRUHYUKE","A2KW87ZD2ELYNG","3H6W48L9F4B5OEOMH57RM53Z4H1WP0","","","<img src=""img/flower2.png"" style=""width:200px; border:14px solid green;"">","null","","","","","",""
"1044","","image-keyboard-response","391","410873","0.0-391.0","3N4BPTXIO9ET730V0FSKXJSRUHYUKE","A2KW87ZD2ELYNG","3H6W48L9F4B5OEOMH57RM53Z4H1WP0","","","img/flower4.png","76","1044.6000001430511","3","1","2","1,1,0,0,1,1,1,0,1",""
"null","","html-keyboard-response","392","411180","0.0-392.0","3N4BPTXIO9ET730V0FSKXJSRUHYUKE","A2KW87ZD2ELYNG","3H6W48L9F4B5OEOMH57RM53Z4H1WP0","","","<img src=""img/flower4.png"" style=""width:200px; border:14px solid green;"">","null","","","","","",""
"788.2999999523163","","image-keyboard-response","393","411969","0.0-393.0","3N4BPTXIO9ET730V0FSKXJSRUHYUKE","A2KW87ZD2ELYNG","3H6W48L9F4B5OEOMH57RM53Z4H1WP0","","","img/flower4.png","76","789","3","1","2","1,1,0,0,1,1,1,0,1",""
"null","","html-keyboard-response","394","412276","0.0-394.0","3N4BPTXIO9ET730V0FSKXJSRUHYUKE","A2KW87ZD2ELYNG","3H6W48L9F4B5OEOMH57RM53Z4H1WP0","","","<img src=""img/flower4.png"" style=""width:200px; border:14px solid green;"">","null","","","","","",""
"348","","image-keyboard-response","395","412625","0.0-395.0","3N4BPTXIO9ET730V0FSKXJSRUHYUKE","A2KW87ZD2ELYNG","3H6W48L9F4B5OEOMH57RM53Z4H1WP0","","","img/flower4.png","76","348.5","3","1","2","1,1,0,0,1,1,1,0,1",""
"null","","html-keyboard-response","396","412932","0.0-396.0","3N4BPTXIO9ET730V0FSKXJSRUHYUKE","A2KW87ZD2ELYNG","3H6W48L9F4B5OEOMH57RM53Z4H1WP0","","","<img src=""img/flower4.png"" style=""width:200px; border:14px solid green;"">","null","","","","","",""
"344.7000000476837","","image-keyboard-response","397","413277","0.0-397.0","3N4BPTXIO9ET730V0FSKXJSRUHYUKE","A2KW87ZD2ELYNG","3H6W48L9F4B5OEOMH57RM53Z4H1WP0","","","img/flower4.png","76","345.2999999523163","3","1","2","1,1,0,0,1,1,1,0,1",""
"null","","html-keyboard-response","398","413580","0.0-398.0","3N4BPTXIO9ET730V0FSKXJSRUHYUKE","A2KW87ZD2ELYNG","3H6W48L9F4B5OEOMH57RM53Z4H1WP0","","","<img src=""img/flower4.png"" style=""width:200px; border:14px solid green;"">","null","","","","","",""
"365.7999999523163","","image-keyboard-response","399","413946","0.0-399.0","3N4BPTXIO9ET730V0FSKXJSRUHYUKE","A2KW87ZD2ELYNG","3H6W48L9F4B5OEOMH57RM53Z4H1WP0","","","img/flower4.png","76","366.40000009536743","3","1","2","1,1,0,0,1,1,1,0,1",""
"null","","html-keyboard-response","400","414252","0.0-400.0","3N4BPTXIO9ET730V0FSKXJSRUHYUKE","A2KW87ZD2ELYNG","3H6W48L9F4B5OEOMH57RM53Z4H1WP0","","","<img src=""img/flower4.png"" style=""width:200px; border:14px solid green;"">","null","","","","","",""
"359.5","","image-keyboard-response","401","414612","0.0-401.0","3N4BPTXIO9ET730V0FSKXJSRUHYUKE","A2KW87ZD2ELYNG","3H6W48L9F4B5OEOMH57RM53Z4H1WP0","","","img/flower4.png","76","360","3","1","2","1,1,0,0,1,1,1,0,1",""
"null","","html-keyboard-response","402","414916","0.0-402.0","3N4BPTXIO9ET730V0FSKXJSRUHYUKE","A2KW87ZD2ELYNG","3H6W48L9F4B5OEOMH57RM53Z4H1WP0","","","<img src=""img/flower4.png"" style=""width:200px; border:14px solid green;"">","null","","","","","",""
