"rt","url","trial_type","trial_index","time_elapsed","internal_node_id","assignmentID","mturkID","hitID","success","view_history","stimulus","key_press","reactionTime","a","r","s","reward_cond","responses"
"10849.399999976158","consent.html","external-html","0","10958","0.0-0.0","31T4R4OBOT29QUCBVUIBZ81ZGHM7C9","A2LMQ4497NMK3S","3S829FDFT2NBOHQMM1CIOU0HZYXDXL","","","","","","","","","",""
"","","fullscreen","1","14553","0.0-1.0","31T4R4OBOT29QUCBVUIBZ81ZGHM7C9","A2LMQ4497NMK3S","3S829FDFT2NBOHQMM1CIOU0HZYXDXL","true","","","","","","","","",""
"60557.5","","instructions","2","75112","0.0-2.0","31T4R4OBOT29QUCBVUIBZ81ZGHM7C9","A2LMQ4497NMK3S","3S829FDFT2NBOHQMM1CIOU0HZYXDXL","","[{""page_index"":0,""viewing_time"":8090.900000035763},{""page_index"":1,""viewing_time"":5667.899999976158},{""page_index"":2,""viewing_time"":6795.900000035763},{""page_index"":3,""viewing_time"":8900},{""page_index"":4,""viewing_time"":4782.099999964237},{""page_index"":5,""viewing_time"":19857.80000001192},{""page_index"":6,""viewing_time"":6462.199999988079}]","","","","","","","",""
"12328.600000023842","","instructions","3","87441","0.0-3.0","31T4R4OBOT29QUCBVUIBZ81ZGHM7C9","A2LMQ4497NMK3S","3S829FDFT2NBOHQMM1CIOU0HZYXDXL","","[{""page_index"":0,""viewing_time"":12328.300000011921}]","","","","","","","",""
"919","","image-keyboard-response","4","88362","0.0-4.0","31T4R4OBOT29QUCBVUIBZ81ZGHM7C9","A2LMQ4497NMK3S","3S829FDFT2NBOHQMM1CIOU0HZYXDXL","","","img/flower6.png","76","920.3999999761581","3","1","3","",""
"null","","html-keyboard-response","5","88664","0.0-5.0","31T4R4OBOT29QUCBVUIBZ81ZGHM7C9","A2LMQ4497NMK3S","3S829FDFT2NBOHQMM1CIOU0HZYXDXL","","","<img src=""img/flower6.png"" style=""width:200px; border:14px solid green;"">","null","","","","","",""
"695.9000000357628","","image-keyboard-response","6","89361","0.0-6.0","31T4R4OBOT29QUCBVUIBZ81ZGHM7C9","A2LMQ4497NMK3S","3S829FDFT2NBOHQMM1CIOU0HZYXDXL","","","img/flower4.png","74","696.6999999880791","1","1","1","",""
"null","","html-keyboard-response","7","89676","0.0-7.0","31T4R4OBOT29QUCBVUIBZ81ZGHM7C9","A2LMQ4497NMK3S","3S829FDFT2NBOHQMM1CIOU0HZYXDXL","","","<img src=""img/flower4.png"" style=""width:200px; border:14px solid green;"">","null","","","","","",""
"692.1000000238419","","image-keyboard-response","8","90369","0.0-8.0","31T4R4OBOT29QUCBVUIBZ81ZGHM7C9","A2LMQ4497NMK3S","3S829FDFT2NBOHQMM1CIOU0HZYXDXL","","","img/flower6.png","76","693.3000000119209","3","1","3","",""
"null","","html-keyboard-response","9","90678","0.0-9.0","31T4R4OBOT29QUCBVUIBZ81ZGHM7C9","A2LMQ4497NMK3S","3S829FDFT2NBOHQMM1CIOU0HZYXDXL","","","<img src=""img/flower6.png"" style=""width:200px; border:14px solid green;"">","null","","","","","",""
"1258.199999988079","","image-keyboard-response","10","91937","0.0-10.0","31T4R4OBOT29QUCBVUIBZ81ZGHM7C9","A2LMQ4497NMK3S","3S829FDFT2NBOHQMM1CIOU0HZYXDXL","","","img/flower6.png","76","1259.3999999761581","3","1","3","",""
"null","","html-keyboard-response","11","92240","0.0-11.0","31T4R4OBOT29QUCBVUIBZ81ZGHM7C9","A2LMQ4497NMK3S","3S829FDFT2NBOHQMM1CIOU0HZYXDXL","","","<img src=""img/flower6.png"" style=""width:200px; border:14px solid green;"">","null","","","","","",""
"927.5999999642372","","image-keyboard-response","12","93169","0.0-12.0","31T4R4OBOT29QUCBVUIBZ81ZGHM7C9","A2LMQ4497NMK3S","3S829FDFT2NBOHQMM1CIOU0HZYXDXL","","","img/flower5.png","75","928.6999999880791","2","1","2","",""
"null","","html-keyboard-response","13","93476","0.0-13.0","31T4R4OBOT29QUCBVUIBZ81ZGHM7C9","A2LMQ4497NMK3S","3S829FDFT2NBOHQMM1CIOU0HZYXDXL","","","<img src=""img/flower5.png"" style=""width:200px; border:14px solid green;"">","null","","","","","",""
"1084.1000000238419","","image-keyboard-response","14","94561","0.0-14.0","31T4R4OBOT29QUCBVUIBZ81ZGHM7C9","A2LMQ4497NMK3S","3S829FDFT2NBOHQMM1CIOU0HZYXDXL","","","img/flower4.png","74","1084.9000000357628","1","1","1","",""
"null","","html-keyboard-response","15","94870","0.0-15.0","31T4R4OBOT29QUCBVUIBZ81ZGHM7C9","A2LMQ4497NMK3S","3S829FDFT2NBOHQMM1CIOU0HZYXDXL","","","<img src=""img/flower4.png"" style=""width:200px; border:14px solid green;"">","null","","","","","",""
"809.8000000119209","","image-keyboard-response","16","95681","0.0-16.0","31T4R4OBOT29QUCBVUIBZ81ZGHM7C9","A2LMQ4497NMK3S","3S829FDFT2NBOHQMM1CIOU0HZYXDXL","","","img/flower4.png","74","810.6000000238419","1","1","1","",""
"null","","html-keyboard-response","17","95984","0.0-17.0","31T4R4OBOT29QUCBVUIBZ81ZGHM7C9","A2LMQ4497NMK3S","3S829FDFT2NBOHQMM1CIOU0HZYXDXL","","","<img src=""img/flower4.png"" style=""width:200px; border:14px solid green;"">","null","","","","","",""
"887.9000000357628","","image-keyboard-response","18","96873","0.0-18.0","31T4R4OBOT29QUCBVUIBZ81ZGHM7C9","A2LMQ4497NMK3S","3S829FDFT2NBOHQMM1CIOU0HZYXDXL","","","img/flower4.png","74","888.8999999761581","1","1","1","",""
"null","","html-keyboard-response","19","97185","0.0-19.0","31T4R4OBOT29QUCBVUIBZ81ZGHM7C9","A2LMQ4497NMK3S","3S829FDFT2NBOHQMM1CIOU0HZYXDXL","","","<img src=""img/flower4.png"" style=""width:200px; border:14px solid green;"">","null","","","","","",""
"1015.5","","image-keyboard-response","20","98201","0.0-20.0","31T4R4OBOT29QUCBVUIBZ81ZGHM7C9","A2LMQ4497NMK3S","3S829FDFT2NBOHQMM1CIOU0HZYXDXL","","","img/flower5.png","75","1016.3999999761581","2","1","2","",""
"null","","html-keyboard-response","21","98506","0.0-21.0","31T4R4OBOT29QUCBVUIBZ81ZGHM7C9","A2LMQ4497NMK3S","3S829FDFT2NBOHQMM1CIOU0HZYXDXL","","","<img src=""img/flower5.png"" style=""width:200px; border:14px solid green;"">","null","","","","","",""
"774.0999999642372","","image-keyboard-response","22","99281","0.0-22.0","31T4R4OBOT29QUCBVUIBZ81ZGHM7C9","A2LMQ4497NMK3S","3S829FDFT2NBOHQMM1CIOU0HZYXDXL","","","img/flower6.png","76","775.1000000238419","3","1","3","",""
"null","","html-keyboard-response","23","99591","0.0-23.0","31T4R4OBOT29QUCBVUIBZ81ZGHM7C9","A2LMQ4497NMK3S","3S829FDFT2NBOHQMM1CIOU0HZYXDXL","","","<img src=""img/flower6.png"" style=""width:200px; border:14px solid green;"">","null","","","","","",""
"960.3000000119209","","image-keyboard-response","24","100553","0.0-24.0","31T4R4OBOT29QUCBVUIBZ81ZGHM7C9","A2LMQ4497NMK3S","3S829FDFT2NBOHQMM1CIOU0HZYXDXL","","","img/flower4.png","74","961.2000000476837","1","1","1","",""
"null","","html-keyboard-response","25","100859","0.0-25.0","31T4R4OBOT29QUCBVUIBZ81ZGHM7C9","A2LMQ4497NMK3S","3S829FDFT2NBOHQMM1CIOU0HZYXDXL","","","<img src=""img/flower4.png"" style=""width:200px; border:14px solid green;"">","null","","","","","",""
"788.1999999880791","","image-keyboard-response","26","101649","0.0-26.0","31T4R4OBOT29QUCBVUIBZ81ZGHM7C9","A2LMQ4497NMK3S","3S829FDFT2NBOHQMM1CIOU0HZYXDXL","","","img/flower5.png","75","789.1000000238419","2","1","2","",""
"null","","html-keyboard-response","27","101954","0.0-27.0","31T4R4OBOT29QUCBVUIBZ81ZGHM7C9","A2LMQ4497NMK3S","3S829FDFT2NBOHQMM1CIOU0HZYXDXL","","","<img src=""img/flower5.png"" style=""width:200px; border:14px solid green;"">","null","","","","","",""
"781.6999999880791","","image-keyboard-response","28","102737","0.0-28.0","31T4R4OBOT29QUCBVUIBZ81ZGHM7C9","A2LMQ4497NMK3S","3S829FDFT2NBOHQMM1CIOU0HZYXDXL","","","img/flower5.png","75","782.6000000238419","2","1","2","",""
"null","","html-keyboard-response","29","103050","0.0-29.0","31T4R4OBOT29QUCBVUIBZ81ZGHM7C9","A2LMQ4497NMK3S","3S829FDFT2NBOHQMM1CIOU0HZYXDXL","","","<img src=""img/flower5.png"" style=""width:200px; border:14px solid green;"">","null","","","","","",""
"534.1999999880791","","image-keyboard-response","30","103585","0.0-30.0","31T4R4OBOT29QUCBVUIBZ81ZGHM7C9","A2LMQ4497NMK3S","3S829FDFT2NBOHQMM1CIOU0HZYXDXL","","","img/flower5.png","75","535.1999999880791","2","1","2","",""
"null","","html-keyboard-response","31","103899","0.0-31.0","31T4R4OBOT29QUCBVUIBZ81ZGHM7C9","A2LMQ4497NMK3S","3S829FDFT2NBOHQMM1CIOU0HZYXDXL","","","<img src=""img/flower5.png"" style=""width:200px; border:14px solid green;"">","null","","","","","",""
"580.7999999523163","","image-keyboard-response","32","104481","0.0-32.0","31T4R4OBOT29QUCBVUIBZ81ZGHM7C9","A2LMQ4497NMK3S","3S829FDFT2NBOHQMM1CIOU0HZYXDXL","","","img/flower4.png","74","581.6999999880791","1","1","1","",""
"null","","html-keyboard-response","33","104791","0.0-33.0","31T4R4OBOT29QUCBVUIBZ81ZGHM7C9","A2LMQ4497NMK3S","3S829FDFT2NBOHQMM1CIOU0HZYXDXL","","","<img src=""img/flower4.png"" style=""width:200px; border:14px solid green;"">","null","","","","","",""
"672.2999999523163","","image-keyboard-response","34","105465","0.0-34.0","31T4R4OBOT29QUCBVUIBZ81ZGHM7C9","A2LMQ4497NMK3S","3S829FDFT2NBOHQMM1CIOU0HZYXDXL","","","img/flower6.png","76","673.1999999880791","3","0","3","",""
"null","","html-keyboard-response","35","105775","0.0-35.0","31T4R4OBOT29QUCBVUIBZ81ZGHM7C9","A2LMQ4497NMK3S","3S829FDFT2NBOHQMM1CIOU0HZYXDXL","","","<img src=""img/flower6.png"" style=""width:200px;border:14px solid red;"">","null","","","","","",""
"808.3999999761581","","image-keyboard-response","36","106585","0.0-36.0","31T4R4OBOT29QUCBVUIBZ81ZGHM7C9","A2LMQ4497NMK3S","3S829FDFT2NBOHQMM1CIOU0HZYXDXL","","","img/flower4.png","74","809.3000000119209","1","1","1","",""
"null","","html-keyboard-response","37","106889","0.0-37.0","31T4R4OBOT29QUCBVUIBZ81ZGHM7C9","A2LMQ4497NMK3S","3S829FDFT2NBOHQMM1CIOU0HZYXDXL","","","<img src=""img/flower4.png"" style=""width:200px; border:14px solid green;"">","null","","","","","",""
"998.5","","image-keyboard-response","38","107889","0.0-38.0","31T4R4OBOT29QUCBVUIBZ81ZGHM7C9","A2LMQ4497NMK3S","3S829FDFT2NBOHQMM1CIOU0HZYXDXL","","","img/flower4.png","74","999.5","1","1","1","",""
"null","","html-keyboard-response","39","108205","0.0-39.0","31T4R4OBOT29QUCBVUIBZ81ZGHM7C9","A2LMQ4497NMK3S","3S829FDFT2NBOHQMM1CIOU0HZYXDXL","","","<img src=""img/flower4.png"" style=""width:200px; border:14px solid green;"">","null","","","","","",""
"578.6999999880791","","image-keyboard-response","40","108785","0.0-40.0","31T4R4OBOT29QUCBVUIBZ81ZGHM7C9","A2LMQ4497NMK3S","3S829FDFT2NBOHQMM1CIOU0HZYXDXL","","","img/flower4.png","74","579.5999999642372","1","1","1","",""
"null","","html-keyboard-response","41","109090","0.0-41.0","31T4R4OBOT29QUCBVUIBZ81ZGHM7C9","A2LMQ4497NMK3S","3S829FDFT2NBOHQMM1CIOU0HZYXDXL","","","<img src=""img/flower4.png"" style=""width:200px; border:14px solid green;"">","null","","","","","",""
"717.5","","image-keyboard-response","42","109809","0.0-42.0","31T4R4OBOT29QUCBVUIBZ81ZGHM7C9","A2LMQ4497NMK3S","3S829FDFT2NBOHQMM1CIOU0HZYXDXL","","","img/flower5.png","75","718.2000000476837","2","1","2","",""
"null","","html-keyboard-response","43","110127","0.0-43.0","31T4R4OBOT29QUCBVUIBZ81ZGHM7C9","A2LMQ4497NMK3S","3S829FDFT2NBOHQMM1CIOU0HZYXDXL","","","<img src=""img/flower5.png"" style=""width:200px; border:14px solid green;"">","null","","","","","",""
"632.5999999642372","","image-keyboard-response","44","110761","0.0-44.0","31T4R4OBOT29QUCBVUIBZ81ZGHM7C9","A2LMQ4497NMK3S","3S829FDFT2NBOHQMM1CIOU0HZYXDXL","","","img/flower6.png","76","633.5","3","1","3","",""
"null","","html-keyboard-response","45","111074","0.0-45.0","31T4R4OBOT29QUCBVUIBZ81ZGHM7C9","A2LMQ4497NMK3S","3S829FDFT2NBOHQMM1CIOU0HZYXDXL","","","<img src=""img/flower6.png"" style=""width:200px; border:14px solid green;"">","null","","","","","",""
"805.5","","image-keyboard-response","46","111881","0.0-46.0","31T4R4OBOT29QUCBVUIBZ81ZGHM7C9","A2LMQ4497NMK3S","3S829FDFT2NBOHQMM1CIOU0HZYXDXL","","","img/flower6.png","76","806.6000000238419","3","1","3","",""
"null","","html-keyboard-response","47","112190","0.0-47.0","31T4R4OBOT29QUCBVUIBZ81ZGHM7C9","A2LMQ4497NMK3S","3S829FDFT2NBOHQMM1CIOU0HZYXDXL","","","<img src=""img/flower6.png"" style=""width:200px; border:14px solid green;"">","null","","","","","",""
"370.10000002384186","","image-keyboard-response","48","112561","0.0-48.0","31T4R4OBOT29QUCBVUIBZ81ZGHM7C9","A2LMQ4497NMK3S","3S829FDFT2NBOHQMM1CIOU0HZYXDXL","","","img/flower6.png","76","370.9000000357628","3","1","3","",""
"null","","html-keyboard-response","49","112872","0.0-49.0","31T4R4OBOT29QUCBVUIBZ81ZGHM7C9","A2LMQ4497NMK3S","3S829FDFT2NBOHQMM1CIOU0HZYXDXL","","","<img src=""img/flower6.png"" style=""width:200px; border:14px solid green;"">","null","","","","","",""
"360.19999998807907","","image-keyboard-response","50","113233","0.0-50.0","31T4R4OBOT29QUCBVUIBZ81ZGHM7C9","A2LMQ4497NMK3S","3S829FDFT2NBOHQMM1CIOU0HZYXDXL","","","img/flower6.png","76","361.10000002384186","3","1","3","",""
"null","","html-keyboard-response","51","113550","0.0-51.0","31T4R4OBOT29QUCBVUIBZ81ZGHM7C9","A2LMQ4497NMK3S","3S829FDFT2NBOHQMM1CIOU0HZYXDXL","","","<img src=""img/flower6.png"" style=""width:200px; border:14px solid green;"">","null","","","","","",""
"785.6999999880791","","image-keyboard-response","52","114337","0.0-52.0","31T4R4OBOT29QUCBVUIBZ81ZGHM7C9","A2LMQ4497NMK3S","3S829FDFT2NBOHQMM1CIOU0HZYXDXL","","","img/flower5.png","75","786.6999999880791","2","1","2","",""
"null","","html-keyboard-response","53","114641","0.0-53.0","31T4R4OBOT29QUCBVUIBZ81ZGHM7C9","A2LMQ4497NMK3S","3S829FDFT2NBOHQMM1CIOU0HZYXDXL","","","<img src=""img/flower5.png"" style=""width:200px; border:14px solid green;"">","null","","","","","",""
"1006.6999999880791","","image-keyboard-response","54","115649","0.0-54.0","31T4R4OBOT29QUCBVUIBZ81ZGHM7C9","A2LMQ4497NMK3S","3S829FDFT2NBOHQMM1CIOU0HZYXDXL","","","img/flower6.png","76","1007.5","3","1","3","",""
"null","","html-keyboard-response","55","115956","0.0-55.0","31T4R4OBOT29QUCBVUIBZ81ZGHM7C9","A2LMQ4497NMK3S","3S829FDFT2NBOHQMM1CIOU0HZYXDXL","","","<img src=""img/flower6.png"" style=""width:200px; border:14px solid green;"">","null","","","","","",""
"1444.199999988079","","image-keyboard-response","56","117401","0.0-56.0","31T4R4OBOT29QUCBVUIBZ81ZGHM7C9","A2LMQ4497NMK3S","3S829FDFT2NBOHQMM1CIOU0HZYXDXL","","","img/flower5.png","75","1445","2","1","2","",""
"null","","html-keyboard-response","57","117706","0.0-57.0","31T4R4OBOT29QUCBVUIBZ81ZGHM7C9","A2LMQ4497NMK3S","3S829FDFT2NBOHQMM1CIOU0HZYXDXL","","","<img src=""img/flower5.png"" style=""width:200px; border:14px solid green;"">","null","","","","","",""
"478","","image-keyboard-response","58","118185","0.0-58.0","31T4R4OBOT29QUCBVUIBZ81ZGHM7C9","A2LMQ4497NMK3S","3S829FDFT2NBOHQMM1CIOU0HZYXDXL","","","img/flower5.png","75","478.89999997615814","2","1","2","",""
"null","","html-keyboard-response","59","118491","0.0-59.0","31T4R4OBOT29QUCBVUIBZ81ZGHM7C9","A2LMQ4497NMK3S","3S829FDFT2NBOHQMM1CIOU0HZYXDXL","","","<img src=""img/flower5.png"" style=""width:200px; border:14px solid green;"">","null","","","","","",""
"349","","image-keyboard-response","60","118841","0.0-60.0","31T4R4OBOT29QUCBVUIBZ81ZGHM7C9","A2LMQ4497NMK3S","3S829FDFT2NBOHQMM1CIOU0HZYXDXL","","","img/flower5.png","75","349.69999998807907","2","1","2","",""
"null","","html-keyboard-response","61","119154","0.0-61.0","31T4R4OBOT29QUCBVUIBZ81ZGHM7C9","A2LMQ4497NMK3S","3S829FDFT2NBOHQMM1CIOU0HZYXDXL","","","<img src=""img/flower5.png"" style=""width:200px; border:14px solid green;"">","null","","","","","",""
"598","","image-keyboard-response","62","119753","0.0-62.0","31T4R4OBOT29QUCBVUIBZ81ZGHM7C9","A2LMQ4497NMK3S","3S829FDFT2NBOHQMM1CIOU0HZYXDXL","","","img/flower4.png","74","599","1","1","1","",""
"null","","html-keyboard-response","63","120069","0.0-63.0","31T4R4OBOT29QUCBVUIBZ81ZGHM7C9","A2LMQ4497NMK3S","3S829FDFT2NBOHQMM1CIOU0HZYXDXL","","","<img src=""img/flower4.png"" style=""width:200px; border:14px solid green;"">","null","","","","","",""
"15204.199999988079","","instructions","64","135274","0.0-64.0","31T4R4OBOT29QUCBVUIBZ81ZGHM7C9","A2LMQ4497NMK3S","3S829FDFT2NBOHQMM1CIOU0HZYXDXL","","[{""page_index"":0,""viewing_time"":5105.699999988079},{""page_index"":1,""viewing_time"":10098}]","","","","","","","",""
"1574.0999999642372","","image-keyboard-response","65","136849","0.0-65.0","31T4R4OBOT29QUCBVUIBZ81ZGHM7C9","A2LMQ4497NMK3S","3S829FDFT2NBOHQMM1CIOU0HZYXDXL","","","img/flower5.png","76","1575.199999988079","3","1","2","",""
"null","","html-keyboard-response","66","137158","0.0-66.0","31T4R4OBOT29QUCBVUIBZ81ZGHM7C9","A2LMQ4497NMK3S","3S829FDFT2NBOHQMM1CIOU0HZYXDXL","","","<img src=""img/flower5.png"" style=""width:200px; border:14px solid green;"">","null","","","","","",""
"706","","image-keyboard-response","67","137865","0.0-67.0","31T4R4OBOT29QUCBVUIBZ81ZGHM7C9","A2LMQ4497NMK3S","3S829FDFT2NBOHQMM1CIOU0HZYXDXL","","","img/flower4.png","74","706.8000000119209","1","1","1","",""
"null","","html-keyboard-response","68","138175","0.0-68.0","31T4R4OBOT29QUCBVUIBZ81ZGHM7C9","A2LMQ4497NMK3S","3S829FDFT2NBOHQMM1CIOU0HZYXDXL","","","<img src=""img/flower4.png"" style=""width:200px; border:14px solid green;"">","null","","","","","",""
"657.0999999642372","","image-keyboard-response","69","138833","0.0-69.0","31T4R4OBOT29QUCBVUIBZ81ZGHM7C9","A2LMQ4497NMK3S","3S829FDFT2NBOHQMM1CIOU0HZYXDXL","","","img/flower5.png","75","658","2","1","2","",""
"null","","html-keyboard-response","70","139148","0.0-70.0","31T4R4OBOT29QUCBVUIBZ81ZGHM7C9","A2LMQ4497NMK3S","3S829FDFT2NBOHQMM1CIOU0HZYXDXL","","","<img src=""img/flower5.png"" style=""width:200px; border:14px solid green;"">","null","","","","","",""
"644.0999999642372","","image-keyboard-response","71","139793","0.0-71.0","31T4R4OBOT29QUCBVUIBZ81ZGHM7C9","A2LMQ4497NMK3S","3S829FDFT2NBOHQMM1CIOU0HZYXDXL","","","img/flower6.png","76","645","3","1","3","",""
"null","","html-keyboard-response","72","140104","0.0-72.0","31T4R4OBOT29QUCBVUIBZ81ZGHM7C9","A2LMQ4497NMK3S","3S829FDFT2NBOHQMM1CIOU0HZYXDXL","","","<img src=""img/flower6.png"" style=""width:200px; border:14px solid green;"">","null","","","","","",""
"600.5","","image-keyboard-response","73","140705","0.0-73.0","31T4R4OBOT29QUCBVUIBZ81ZGHM7C9","A2LMQ4497NMK3S","3S829FDFT2NBOHQMM1CIOU0HZYXDXL","","","img/flower6.png","76","601.3999999761581","3","1","3","",""
"null","","html-keyboard-response","74","141012","0.0-74.0","31T4R4OBOT29QUCBVUIBZ81ZGHM7C9","A2LMQ4497NMK3S","3S829FDFT2NBOHQMM1CIOU0HZYXDXL","","","<img src=""img/flower6.png"" style=""width:200px; border:14px solid green;"">","null","","","","","",""
"732","","image-keyboard-response","75","141745","0.0-75.0","31T4R4OBOT29QUCBVUIBZ81ZGHM7C9","A2LMQ4497NMK3S","3S829FDFT2NBOHQMM1CIOU0HZYXDXL","","","img/flower5.png","75","732.8000000119209","2","1","2","",""
"null","","html-keyboard-response","76","142057","0.0-76.0","31T4R4OBOT29QUCBVUIBZ81ZGHM7C9","A2LMQ4497NMK3S","3S829FDFT2NBOHQMM1CIOU0HZYXDXL","","","<img src=""img/flower5.png"" style=""width:200px; border:14px solid green;"">","null","","","","","",""
"504","","image-keyboard-response","77","142562","0.0-77.0","31T4R4OBOT29QUCBVUIBZ81ZGHM7C9","A2LMQ4497NMK3S","3S829FDFT2NBOHQMM1CIOU0HZYXDXL","","","img/flower5.png","75","504.9000000357628","2","1","2","",""
"null","","html-keyboard-response","78","142865","0.0-78.0","31T4R4OBOT29QUCBVUIBZ81ZGHM7C9","A2LMQ4497NMK3S","3S829FDFT2NBOHQMM1CIOU0HZYXDXL","","","<img src=""img/flower5.png"" style=""width:200px; border:14px solid green;"">","null","","","","","",""
"454.89999997615814","","image-keyboard-response","79","143321","0.0-79.0","31T4R4OBOT29QUCBVUIBZ81ZGHM7C9","A2LMQ4497NMK3S","3S829FDFT2NBOHQMM1CIOU0HZYXDXL","","","img/flower5.png","76","455.69999998807907","3","1","2","",""
"null","","html-keyboard-response","80","143626","0.0-80.0","31T4R4OBOT29QUCBVUIBZ81ZGHM7C9","A2LMQ4497NMK3S","3S829FDFT2NBOHQMM1CIOU0HZYXDXL","","","<img src=""img/flower5.png"" style=""width:200px; border:14px solid green;"">","null","","","","","",""
"382","","image-keyboard-response","81","144009","0.0-81.0","31T4R4OBOT29QUCBVUIBZ81ZGHM7C9","A2LMQ4497NMK3S","3S829FDFT2NBOHQMM1CIOU0HZYXDXL","","","img/flower5.png","76","382.89999997615814","3","1","2","",""
"null","","html-keyboard-response","82","144316","0.0-82.0","31T4R4OBOT29QUCBVUIBZ81ZGHM7C9","A2LMQ4497NMK3S","3S829FDFT2NBOHQMM1CIOU0HZYXDXL","","","<img src=""img/flower5.png"" style=""width:200px; border:14px solid green;"">","null","","","","","",""
"324.69999998807907","","image-keyboard-response","83","144641","0.0-83.0","31T4R4OBOT29QUCBVUIBZ81ZGHM7C9","A2LMQ4497NMK3S","3S829FDFT2NBOHQMM1CIOU0HZYXDXL","","","img/flower5.png","76","325.5","3","1","2","",""
"null","","html-keyboard-response","84","144949","0.0-84.0","31T4R4OBOT29QUCBVUIBZ81ZGHM7C9","A2LMQ4497NMK3S","3S829FDFT2NBOHQMM1CIOU0HZYXDXL","","","<img src=""img/flower5.png"" style=""width:200px; border:14px solid green;"">","null","","","","","",""
"643.1999999880791","","image-keyboard-response","85","145594","0.0-85.0","31T4R4OBOT29QUCBVUIBZ81ZGHM7C9","A2LMQ4497NMK3S","3S829FDFT2NBOHQMM1CIOU0HZYXDXL","","","img/flower4.png","74","644.1999999880791","1","1","1","",""
"null","","html-keyboard-response","86","145905","0.0-86.0","31T4R4OBOT29QUCBVUIBZ81ZGHM7C9","A2LMQ4497NMK3S","3S829FDFT2NBOHQMM1CIOU0HZYXDXL","","","<img src=""img/flower4.png"" style=""width:200px; border:14px solid green;"">","null","","","","","",""
"423.60000002384186","","image-keyboard-response","87","146329","0.0-87.0","31T4R4OBOT29QUCBVUIBZ81ZGHM7C9","A2LMQ4497NMK3S","3S829FDFT2NBOHQMM1CIOU0HZYXDXL","","","img/flower4.png","74","424.5999999642372","1","0","1","",""
"null","","html-keyboard-response","88","146642","0.0-88.0","31T4R4OBOT29QUCBVUIBZ81ZGHM7C9","A2LMQ4497NMK3S","3S829FDFT2NBOHQMM1CIOU0HZYXDXL","","","<img src=""img/flower4.png"" style=""width:200px;border:14px solid red;"">","null","","","","","",""
"1414","","image-keyboard-response","89","148057","0.0-89.0","31T4R4OBOT29QUCBVUIBZ81ZGHM7C9","A2LMQ4497NMK3S","3S829FDFT2NBOHQMM1CIOU0HZYXDXL","","","img/flower6.png","76","1414.9000000357628","3","1","3","",""
"null","","html-keyboard-response","90","148366","0.0-90.0","31T4R4OBOT29QUCBVUIBZ81ZGHM7C9","A2LMQ4497NMK3S","3S829FDFT2NBOHQMM1CIOU0HZYXDXL","","","<img src=""img/flower6.png"" style=""width:200px; border:14px solid green;"">","null","","","","","",""
"602.6999999880791","","image-keyboard-response","91","148969","0.0-91.0","31T4R4OBOT29QUCBVUIBZ81ZGHM7C9","A2LMQ4497NMK3S","3S829FDFT2NBOHQMM1CIOU0HZYXDXL","","","img/flower5.png","75","603.6000000238419","2","1","2","",""
"null","","html-keyboard-response","92","149280","0.0-92.0","31T4R4OBOT29QUCBVUIBZ81ZGHM7C9","A2LMQ4497NMK3S","3S829FDFT2NBOHQMM1CIOU0HZYXDXL","","","<img src=""img/flower5.png"" style=""width:200px; border:14px solid green;"">","null","","","","","",""
"672","","image-keyboard-response","93","149953","0.0-93.0","31T4R4OBOT29QUCBVUIBZ81ZGHM7C9","A2LMQ4497NMK3S","3S829FDFT2NBOHQMM1CIOU0HZYXDXL","","","img/flower6.png","76","672.8999999761581","3","0","3","",""
"null","","html-keyboard-response","94","150267","0.0-94.0","31T4R4OBOT29QUCBVUIBZ81ZGHM7C9","A2LMQ4497NMK3S","3S829FDFT2NBOHQMM1CIOU0HZYXDXL","","","<img src=""img/flower6.png"" style=""width:200px;border:14px solid red;"">","null","","","","","",""
"1293.699999988079","","image-keyboard-response","95","151561","0.0-95.0","31T4R4OBOT29QUCBVUIBZ81ZGHM7C9","A2LMQ4497NMK3S","3S829FDFT2NBOHQMM1CIOU0HZYXDXL","","","img/flower4.png","74","1294.5999999642372","1","1","1","",""
"null","","html-keyboard-response","96","151878","0.0-96.0","31T4R4OBOT29QUCBVUIBZ81ZGHM7C9","A2LMQ4497NMK3S","3S829FDFT2NBOHQMM1CIOU0HZYXDXL","","","<img src=""img/flower4.png"" style=""width:200px; border:14px solid green;"">","null","","","","","",""
"1058.5","","image-keyboard-response","97","152937","0.0-97.0","31T4R4OBOT29QUCBVUIBZ81ZGHM7C9","A2LMQ4497NMK3S","3S829FDFT2NBOHQMM1CIOU0HZYXDXL","","","img/flower5.png","75","1059.5","2","1","2","",""
"null","","html-keyboard-response","98","153248","0.0-98.0","31T4R4OBOT29QUCBVUIBZ81ZGHM7C9","A2LMQ4497NMK3S","3S829FDFT2NBOHQMM1CIOU0HZYXDXL","","","<img src=""img/flower5.png"" style=""width:200px; border:14px solid green;"">","null","","","","","",""
"655.7999999523163","","image-keyboard-response","99","153905","0.0-99.0","31T4R4OBOT29QUCBVUIBZ81ZGHM7C9","A2LMQ4497NMK3S","3S829FDFT2NBOHQMM1CIOU0HZYXDXL","","","img/flower6.png","76","656.8000000119209","3","1","3","",""
"null","","html-keyboard-response","100","154221","0.0-100.0","31T4R4OBOT29QUCBVUIBZ81ZGHM7C9","A2LMQ4497NMK3S","3S829FDFT2NBOHQMM1CIOU0HZYXDXL","","","<img src=""img/flower6.png"" style=""width:200px; border:14px solid green;"">","null","","","","","",""
"995.3000000119209","","image-keyboard-response","101","155217","0.0-101.0","31T4R4OBOT29QUCBVUIBZ81ZGHM7C9","A2LMQ4497NMK3S","3S829FDFT2NBOHQMM1CIOU0HZYXDXL","","","img/flower5.png","75","996.1000000238419","2","1","2","",""
"null","","html-keyboard-response","102","155530","0.0-102.0","31T4R4OBOT29QUCBVUIBZ81ZGHM7C9","A2LMQ4497NMK3S","3S829FDFT2NBOHQMM1CIOU0HZYXDXL","","","<img src=""img/flower5.png"" style=""width:200px; border:14px solid green;"">","null","","","","","",""
"606.5","","image-keyboard-response","103","156137","0.0-103.0","31T4R4OBOT29QUCBVUIBZ81ZGHM7C9","A2LMQ4497NMK3S","3S829FDFT2NBOHQMM1CIOU0HZYXDXL","","","img/flower6.png","76","607.3000000119209","3","1","3","",""
"null","","html-keyboard-response","104","156449","0.0-104.0","31T4R4OBOT29QUCBVUIBZ81ZGHM7C9","A2LMQ4497NMK3S","3S829FDFT2NBOHQMM1CIOU0HZYXDXL","","","<img src=""img/flower6.png"" style=""width:200px; border:14px solid green;"">","null","","","","","",""
"607.3999999761581","","image-keyboard-response","105","157057","0.0-105.0","31T4R4OBOT29QUCBVUIBZ81ZGHM7C9","A2LMQ4497NMK3S","3S829FDFT2NBOHQMM1CIOU0HZYXDXL","","","img/flower6.png","76","608.4000000357628","3","1","3","",""
"null","","html-keyboard-response","106","157373","0.0-106.0","31T4R4OBOT29QUCBVUIBZ81ZGHM7C9","A2LMQ4497NMK3S","3S829FDFT2NBOHQMM1CIOU0HZYXDXL","","","<img src=""img/flower6.png"" style=""width:200px; border:14px solid green;"">","null","","","","","",""
"651.3000000119209","","image-keyboard-response","107","158025","0.0-107.0","31T4R4OBOT29QUCBVUIBZ81ZGHM7C9","A2LMQ4497NMK3S","3S829FDFT2NBOHQMM1CIOU0HZYXDXL","","","img/flower4.png","74","652.1999999880791","1","1","1","",""
"null","","html-keyboard-response","108","158337","0.0-108.0","31T4R4OBOT29QUCBVUIBZ81ZGHM7C9","A2LMQ4497NMK3S","3S829FDFT2NBOHQMM1CIOU0HZYXDXL","","","<img src=""img/flower4.png"" style=""width:200px; border:14px solid green;"">","null","","","","","",""
"607.3999999761581","","image-keyboard-response","109","158945","0.0-109.0","31T4R4OBOT29QUCBVUIBZ81ZGHM7C9","A2LMQ4497NMK3S","3S829FDFT2NBOHQMM1CIOU0HZYXDXL","","","img/flower4.png","74","608.4000000357628","1","1","1","",""
"null","","html-keyboard-response","110","159262","0.0-110.0","31T4R4OBOT29QUCBVUIBZ81ZGHM7C9","A2LMQ4497NMK3S","3S829FDFT2NBOHQMM1CIOU0HZYXDXL","","","<img src=""img/flower4.png"" style=""width:200px; border:14px solid green;"">","null","","","","","",""
"665.8999999761581","","image-keyboard-response","111","159929","0.0-111.0","31T4R4OBOT29QUCBVUIBZ81ZGHM7C9","A2LMQ4497NMK3S","3S829FDFT2NBOHQMM1CIOU0HZYXDXL","","","img/flower6.png","76","667","3","1","3","",""
"null","","html-keyboard-response","112","160236","0.0-112.0","31T4R4OBOT29QUCBVUIBZ81ZGHM7C9","A2LMQ4497NMK3S","3S829FDFT2NBOHQMM1CIOU0HZYXDXL","","","<img src=""img/flower6.png"" style=""width:200px; border:14px solid green;"">","null","","","","","",""
"548.6000000238419","","image-keyboard-response","113","160785","0.0-113.0","31T4R4OBOT29QUCBVUIBZ81ZGHM7C9","A2LMQ4497NMK3S","3S829FDFT2NBOHQMM1CIOU0HZYXDXL","","","img/flower6.png","76","549.5","3","0","3","",""
"null","","html-keyboard-response","114","161097","0.0-114.0","31T4R4OBOT29QUCBVUIBZ81ZGHM7C9","A2LMQ4497NMK3S","3S829FDFT2NBOHQMM1CIOU0HZYXDXL","","","<img src=""img/flower6.png"" style=""width:200px;border:14px solid red;"">","null","","","","","",""
"623.6999999880791","","image-keyboard-response","115","161721","0.0-115.0","31T4R4OBOT29QUCBVUIBZ81ZGHM7C9","A2LMQ4497NMK3S","3S829FDFT2NBOHQMM1CIOU0HZYXDXL","","","img/flower6.png","76","624.5","3","1","3","",""
"null","","html-keyboard-response","116","162026","0.0-116.0","31T4R4OBOT29QUCBVUIBZ81ZGHM7C9","A2LMQ4497NMK3S","3S829FDFT2NBOHQMM1CIOU0HZYXDXL","","","<img src=""img/flower6.png"" style=""width:200px; border:14px solid green;"">","null","","","","","",""
"951.1999999880791","","image-keyboard-response","117","162978","0.0-117.0","31T4R4OBOT29QUCBVUIBZ81ZGHM7C9","A2LMQ4497NMK3S","3S829FDFT2NBOHQMM1CIOU0HZYXDXL","","","img/flower4.png","75","952.1000000238419","2","1","1","",""
"null","","html-keyboard-response","118","163285","0.0-118.0","31T4R4OBOT29QUCBVUIBZ81ZGHM7C9","A2LMQ4497NMK3S","3S829FDFT2NBOHQMM1CIOU0HZYXDXL","","","<img src=""img/flower4.png"" style=""width:200px; border:14px solid green;"">","null","","","","","",""
"363.10000002384186","","image-keyboard-response","119","163649","0.0-119.0","31T4R4OBOT29QUCBVUIBZ81ZGHM7C9","A2LMQ4497NMK3S","3S829FDFT2NBOHQMM1CIOU0HZYXDXL","","","img/flower4.png","75","364","2","1","1","",""
"null","","html-keyboard-response","120","163958","0.0-120.0","31T4R4OBOT29QUCBVUIBZ81ZGHM7C9","A2LMQ4497NMK3S","3S829FDFT2NBOHQMM1CIOU0HZYXDXL","","","<img src=""img/flower4.png"" style=""width:200px; border:14px solid green;"">","null","","","","","",""
"370.19999998807907","","image-keyboard-response","121","164329","0.0-121.0","31T4R4OBOT29QUCBVUIBZ81ZGHM7C9","A2LMQ4497NMK3S","3S829FDFT2NBOHQMM1CIOU0HZYXDXL","","","img/flower4.png","75","371","2","0","1","",""
"null","","html-keyboard-response","122","164635","0.0-122.0","31T4R4OBOT29QUCBVUIBZ81ZGHM7C9","A2LMQ4497NMK3S","3S829FDFT2NBOHQMM1CIOU0HZYXDXL","","","<img src=""img/flower4.png"" style=""width:200px;border:14px solid red;"">","null","","","","","",""
"421.30000001192093","","image-keyboard-response","123","165057","0.0-123.0","31T4R4OBOT29QUCBVUIBZ81ZGHM7C9","A2LMQ4497NMK3S","3S829FDFT2NBOHQMM1CIOU0HZYXDXL","","","img/flower4.png","75","422.10000002384186","2","0","1","",""
"null","","html-keyboard-response","124","165364","0.0-124.0","31T4R4OBOT29QUCBVUIBZ81ZGHM7C9","A2LMQ4497NMK3S","3S829FDFT2NBOHQMM1CIOU0HZYXDXL","","","<img src=""img/flower4.png"" style=""width:200px;border:14px solid red;"">","null","","","","","",""
"3367.5","","instructions","125","168732","0.0-125.0","31T4R4OBOT29QUCBVUIBZ81ZGHM7C9","A2LMQ4497NMK3S","3S829FDFT2NBOHQMM1CIOU0HZYXDXL","","[{""page_index"":0,""viewing_time"":3367.199999988079}]","","","","","","","",""
"1012.5","","image-keyboard-response","126","169745","0.0-126.0","31T4R4OBOT29QUCBVUIBZ81ZGHM7C9","A2LMQ4497NMK3S","3S829FDFT2NBOHQMM1CIOU0HZYXDXL","","","img/flower9.png","74","1013.5999999642372","1","0","3","0.8,0.2,0.2,0.2,0.8,0.2,0.2,0.2,0.8",""
"null","","html-keyboard-response","127","170057","0.0-127.0","31T4R4OBOT29QUCBVUIBZ81ZGHM7C9","A2LMQ4497NMK3S","3S829FDFT2NBOHQMM1CIOU0HZYXDXL","","","<img src=""img/flower9.png"" style=""width:200px;border:14px solid red;"">","null","","","","","",""
"830.5","","image-keyboard-response","128","170889","0.0-128.0","31T4R4OBOT29QUCBVUIBZ81ZGHM7C9","A2LMQ4497NMK3S","3S829FDFT2NBOHQMM1CIOU0HZYXDXL","","","img/flower6.png","76","831.5999999642372","3","0","1","0.8,0.2,0.2,0.2,0.8,0.2,0.2,0.2,0.8",""
"null","","html-keyboard-response","129","171202","0.0-129.0","31T4R4OBOT29QUCBVUIBZ81ZGHM7C9","A2LMQ4497NMK3S","3S829FDFT2NBOHQMM1CIOU0HZYXDXL","","","<img src=""img/flower6.png"" style=""width:200px;border:14px solid red;"">","null","","","","","",""
"614.5","","image-keyboard-response","130","171817","0.0-130.0","31T4R4OBOT29QUCBVUIBZ81ZGHM7C9","A2LMQ4497NMK3S","3S829FDFT2NBOHQMM1CIOU0HZYXDXL","","","img/flower6.png","75","615.5","2","0","1","0.8,0.2,0.2,0.2,0.8,0.2,0.2,0.2,0.8",""
"null","","html-keyboard-response","131","172130","0.0-131.0","31T4R4OBOT29QUCBVUIBZ81ZGHM7C9","A2LMQ4497NMK3S","3S829FDFT2NBOHQMM1CIOU0HZYXDXL","","","<img src=""img/flower6.png"" style=""width:200px;border:14px solid red;"">","null","","","","","",""
"854.3999999761581","","image-keyboard-response","132","172985","0.0-132.0","31T4R4OBOT29QUCBVUIBZ81ZGHM7C9","A2LMQ4497NMK3S","3S829FDFT2NBOHQMM1CIOU0HZYXDXL","","","img/flower6.png","74","855.3000000119209","1","0","1","0.8,0.2,0.2,0.2,0.8,0.2,0.2,0.2,0.8",""
"null","","html-keyboard-response","133","173301","0.0-133.0","31T4R4OBOT29QUCBVUIBZ81ZGHM7C9","A2LMQ4497NMK3S","3S829FDFT2NBOHQMM1CIOU0HZYXDXL","","","<img src=""img/flower6.png"" style=""width:200px;border:14px solid red;"">","null","","","","","",""
"1275","","image-keyboard-response","134","174577","0.0-134.0","31T4R4OBOT29QUCBVUIBZ81ZGHM7C9","A2LMQ4497NMK3S","3S829FDFT2NBOHQMM1CIOU0HZYXDXL","","","img/flower5.png","75","1275.800000011921","2","1","2","0.8,0.2,0.2,0.2,0.8,0.2,0.2,0.2,0.8",""
"null","","html-keyboard-response","135","174891","0.0-135.0","31T4R4OBOT29QUCBVUIBZ81ZGHM7C9","A2LMQ4497NMK3S","3S829FDFT2NBOHQMM1CIOU0HZYXDXL","","","<img src=""img/flower5.png"" style=""width:200px; border:14px solid green;"">","null","","","","","",""
"1045.699999988079","","image-keyboard-response","136","175937","0.0-136.0","31T4R4OBOT29QUCBVUIBZ81ZGHM7C9","A2LMQ4497NMK3S","3S829FDFT2NBOHQMM1CIOU0HZYXDXL","","","img/flower9.png","74","1046.699999988079","1","1","3","0.8,0.2,0.2,0.2,0.8,0.2,0.2,0.2,0.8",""
"null","","html-keyboard-response","137","176249","0.0-137.0","31T4R4OBOT29QUCBVUIBZ81ZGHM7C9","A2LMQ4497NMK3S","3S829FDFT2NBOHQMM1CIOU0HZYXDXL","","","<img src=""img/flower9.png"" style=""width:200px; border:14px solid green;"">","null","","","","","",""
"879.7999999523163","","image-keyboard-response","138","177129","0.0-138.0","31T4R4OBOT29QUCBVUIBZ81ZGHM7C9","A2LMQ4497NMK3S","3S829FDFT2NBOHQMM1CIOU0HZYXDXL","","","img/flower5.png","75","880.7999999523163","2","0","2","0.8,0.2,0.2,0.2,0.8,0.2,0.2,0.2,0.8",""
"null","","html-keyboard-response","139","177441","0.0-139.0","31T4R4OBOT29QUCBVUIBZ81ZGHM7C9","A2LMQ4497NMK3S","3S829FDFT2NBOHQMM1CIOU0HZYXDXL","","","<img src=""img/flower5.png"" style=""width:200px;border:14px solid red;"">","null","","","","","",""
"751.3999999761581","","image-keyboard-response","140","178193","0.0-140.0","31T4R4OBOT29QUCBVUIBZ81ZGHM7C9","A2LMQ4497NMK3S","3S829FDFT2NBOHQMM1CIOU0HZYXDXL","","","img/flower6.png","76","752.4000000357628","3","0","1","0.8,0.2,0.2,0.2,0.8,0.2,0.2,0.2,0.8",""
"null","","html-keyboard-response","141","178505","0.0-141.0","31T4R4OBOT29QUCBVUIBZ81ZGHM7C9","A2LMQ4497NMK3S","3S829FDFT2NBOHQMM1CIOU0HZYXDXL","","","<img src=""img/flower6.png"" style=""width:200px;border:14px solid red;"">","null","","","","","",""
"1359.4000000357628","","image-keyboard-response","142","179866","0.0-142.0","31T4R4OBOT29QUCBVUIBZ81ZGHM7C9","A2LMQ4497NMK3S","3S829FDFT2NBOHQMM1CIOU0HZYXDXL","","","img/flower5.png","75","1360.300000011921","2","1","2","0.8,0.2,0.2,0.2,0.8,0.2,0.2,0.2,0.8",""
"null","","html-keyboard-response","143","180171","0.0-143.0","31T4R4OBOT29QUCBVUIBZ81ZGHM7C9","A2LMQ4497NMK3S","3S829FDFT2NBOHQMM1CIOU0HZYXDXL","","","<img src=""img/flower5.png"" style=""width:200px; border:14px solid green;"">","null","","","","","",""
"2460.899999976158","","image-keyboard-response","144","182633","0.0-144.0","31T4R4OBOT29QUCBVUIBZ81ZGHM7C9","A2LMQ4497NMK3S","3S829FDFT2NBOHQMM1CIOU0HZYXDXL","","","img/flower6.png","75","2461.800000011921","2","1","1","0.8,0.2,0.2,0.2,0.8,0.2,0.2,0.2,0.8",""
"null","","html-keyboard-response","145","182944","0.0-145.0","31T4R4OBOT29QUCBVUIBZ81ZGHM7C9","A2LMQ4497NMK3S","3S829FDFT2NBOHQMM1CIOU0HZYXDXL","","","<img src=""img/flower6.png"" style=""width:200px; border:14px solid green;"">","null","","","","","",""
"720.1999999880791","","image-keyboard-response","146","183665","0.0-146.0","31T4R4OBOT29QUCBVUIBZ81ZGHM7C9","A2LMQ4497NMK3S","3S829FDFT2NBOHQMM1CIOU0HZYXDXL","","","img/flower9.png","75","721","2","0","3","0.8,0.2,0.2,0.2,0.8,0.2,0.2,0.2,0.8",""
"null","","html-keyboard-response","147","183969","0.0-147.0","31T4R4OBOT29QUCBVUIBZ81ZGHM7C9","A2LMQ4497NMK3S","3S829FDFT2NBOHQMM1CIOU0HZYXDXL","","","<img src=""img/flower9.png"" style=""width:200px;border:14px solid red;"">","null","","","","","",""
"727.3000000119209","","image-keyboard-response","148","184697","0.0-148.0","31T4R4OBOT29QUCBVUIBZ81ZGHM7C9","A2LMQ4497NMK3S","3S829FDFT2NBOHQMM1CIOU0HZYXDXL","","","img/flower6.png","75","728.2999999523163","2","1","1","0.8,0.2,0.2,0.2,0.8,0.2,0.2,0.2,0.8",""
"null","","html-keyboard-response","149","185007","0.0-149.0","31T4R4OBOT29QUCBVUIBZ81ZGHM7C9","A2LMQ4497NMK3S","3S829FDFT2NBOHQMM1CIOU0HZYXDXL","","","<img src=""img/flower6.png"" style=""width:200px; border:14px solid green;"">","null","","","","","",""
"761.3999999761581","","image-keyboard-response","150","185769","0.0-150.0","31T4R4OBOT29QUCBVUIBZ81ZGHM7C9","A2LMQ4497NMK3S","3S829FDFT2NBOHQMM1CIOU0HZYXDXL","","","img/flower9.png","74","762.5","1","1","3","0.8,0.2,0.2,0.2,0.8,0.2,0.2,0.2,0.8",""
"null","","html-keyboard-response","151","186084","0.0-151.0","31T4R4OBOT29QUCBVUIBZ81ZGHM7C9","A2LMQ4497NMK3S","3S829FDFT2NBOHQMM1CIOU0HZYXDXL","","","<img src=""img/flower9.png"" style=""width:200px; border:14px solid green;"">","null","","","","","",""
"467.7999999523163","","image-keyboard-response","152","186553","0.0-152.0","31T4R4OBOT29QUCBVUIBZ81ZGHM7C9","A2LMQ4497NMK3S","3S829FDFT2NBOHQMM1CIOU0HZYXDXL","","","img/flower6.png","75","468.9000000357628","2","0","1","0.8,0.2,0.2,0.2,0.8,0.2,0.2,0.2,0.8",""
"null","","html-keyboard-response","153","186858","0.0-153.0","31T4R4OBOT29QUCBVUIBZ81ZGHM7C9","A2LMQ4497NMK3S","3S829FDFT2NBOHQMM1CIOU0HZYXDXL","","","<img src=""img/flower6.png"" style=""width:200px;border:14px solid red;"">","null","","","","","",""
"1198.199999988079","","image-keyboard-response","154","188057","0.0-154.0","31T4R4OBOT29QUCBVUIBZ81ZGHM7C9","A2LMQ4497NMK3S","3S829FDFT2NBOHQMM1CIOU0HZYXDXL","","","img/flower5.png","75","1199.199999988079","2","1","2","0.8,0.2,0.2,0.2,0.8,0.2,0.2,0.2,0.8",""
"null","","html-keyboard-response","155","188373","0.0-155.0","31T4R4OBOT29QUCBVUIBZ81ZGHM7C9","A2LMQ4497NMK3S","3S829FDFT2NBOHQMM1CIOU0HZYXDXL","","","<img src=""img/flower5.png"" style=""width:200px; border:14px solid green;"">","null","","","","","",""
"642.8999999761581","","image-keyboard-response","156","189017","0.0-156.0","31T4R4OBOT29QUCBVUIBZ81ZGHM7C9","A2LMQ4497NMK3S","3S829FDFT2NBOHQMM1CIOU0HZYXDXL","","","img/flower6.png","75","643.8000000119209","2","0","1","0.8,0.2,0.2,0.2,0.8,0.2,0.2,0.2,0.8",""
"null","","html-keyboard-response","157","189329","0.0-157.0","31T4R4OBOT29QUCBVUIBZ81ZGHM7C9","A2LMQ4497NMK3S","3S829FDFT2NBOHQMM1CIOU0HZYXDXL","","","<img src=""img/flower6.png"" style=""width:200px;border:14px solid red;"">","null","","","","","",""
"1151.2000000476837","","image-keyboard-response","158","190482","0.0-158.0","31T4R4OBOT29QUCBVUIBZ81ZGHM7C9","A2LMQ4497NMK3S","3S829FDFT2NBOHQMM1CIOU0HZYXDXL","","","img/flower5.png","75","1152.2000000476837","2","1","2","0.8,0.2,0.2,0.2,0.8,0.2,0.2,0.2,0.8",""
"null","","html-keyboard-response","159","190789","0.0-159.0","31T4R4OBOT29QUCBVUIBZ81ZGHM7C9","A2LMQ4497NMK3S","3S829FDFT2NBOHQMM1CIOU0HZYXDXL","","","<img src=""img/flower5.png"" style=""width:200px; border:14px solid green;"">","null","","","","","",""
"962.1000000238419","","image-keyboard-response","160","191753","0.0-160.0","31T4R4OBOT29QUCBVUIBZ81ZGHM7C9","A2LMQ4497NMK3S","3S829FDFT2NBOHQMM1CIOU0HZYXDXL","","","img/flower6.png","76","963.1000000238419","3","0","1","0.8,0.2,0.2,0.2,0.8,0.2,0.2,0.2,0.8",""
"null","","html-keyboard-response","161","192064","0.0-161.0","31T4R4OBOT29QUCBVUIBZ81ZGHM7C9","A2LMQ4497NMK3S","3S829FDFT2NBOHQMM1CIOU0HZYXDXL","","","<img src=""img/flower6.png"" style=""width:200px;border:14px solid red;"">","null","","","","","",""
"775.1999999880791","","image-keyboard-response","162","192840","0.0-162.0","31T4R4OBOT29QUCBVUIBZ81ZGHM7C9","A2LMQ4497NMK3S","3S829FDFT2NBOHQMM1CIOU0HZYXDXL","","","img/flower6.png","76","775.7999999523163","3","1","1","0.8,0.2,0.2,0.2,0.8,0.2,0.2,0.2,0.8",""
"null","","html-keyboard-response","163","193148","0.0-163.0","31T4R4OBOT29QUCBVUIBZ81ZGHM7C9","A2LMQ4497NMK3S","3S829FDFT2NBOHQMM1CIOU0HZYXDXL","","","<img src=""img/flower6.png"" style=""width:200px; border:14px solid green;"">","null","","","","","",""
"587.6999999880791","","image-keyboard-response","164","193737","0.0-164.0","31T4R4OBOT29QUCBVUIBZ81ZGHM7C9","A2LMQ4497NMK3S","3S829FDFT2NBOHQMM1CIOU0HZYXDXL","","","img/flower6.png","76","588.6000000238419","3","0","1","0.8,0.2,0.2,0.2,0.8,0.2,0.2,0.2,0.8",""
"null","","html-keyboard-response","165","194049","0.0-165.0","31T4R4OBOT29QUCBVUIBZ81ZGHM7C9","A2LMQ4497NMK3S","3S829FDFT2NBOHQMM1CIOU0HZYXDXL","","","<img src=""img/flower6.png"" style=""width:200px;border:14px solid red;"">","null","","","","","",""
"318.60000002384186","","image-keyboard-response","166","194369","0.0-166.0","31T4R4OBOT29QUCBVUIBZ81ZGHM7C9","A2LMQ4497NMK3S","3S829FDFT2NBOHQMM1CIOU0HZYXDXL","","","img/flower6.png","76","319.69999998807907","3","0","1","0.8,0.2,0.2,0.2,0.8,0.2,0.2,0.2,0.8",""
"null","","html-keyboard-response","167","194681","0.0-167.0","31T4R4OBOT29QUCBVUIBZ81ZGHM7C9","A2LMQ4497NMK3S","3S829FDFT2NBOHQMM1CIOU0HZYXDXL","","","<img src=""img/flower6.png"" style=""width:200px;border:14px solid red;"">","null","","","","","",""
"350.69999998807907","","image-keyboard-response","168","195033","0.0-168.0","31T4R4OBOT29QUCBVUIBZ81ZGHM7C9","A2LMQ4497NMK3S","3S829FDFT2NBOHQMM1CIOU0HZYXDXL","","","img/flower6.png","76","351.69999998807907","3","1","1","0.8,0.2,0.2,0.2,0.8,0.2,0.2,0.2,0.8",""
"null","","html-keyboard-response","169","195346","0.0-169.0","31T4R4OBOT29QUCBVUIBZ81ZGHM7C9","A2LMQ4497NMK3S","3S829FDFT2NBOHQMM1CIOU0HZYXDXL","","","<img src=""img/flower6.png"" style=""width:200px; border:14px solid green;"">","null","","","","","",""
"1174.1000000238419","","image-keyboard-response","170","196521","0.0-170.0","31T4R4OBOT29QUCBVUIBZ81ZGHM7C9","A2LMQ4497NMK3S","3S829FDFT2NBOHQMM1CIOU0HZYXDXL","","","img/flower9.png","74","1175.2000000476837","1","0","3","0.8,0.2,0.2,0.2,0.8,0.2,0.2,0.2,0.8",""
"null","","html-keyboard-response","171","196836","0.0-171.0","31T4R4OBOT29QUCBVUIBZ81ZGHM7C9","A2LMQ4497NMK3S","3S829FDFT2NBOHQMM1CIOU0HZYXDXL","","","<img src=""img/flower9.png"" style=""width:200px;border:14px solid red;"">","null","","","","","",""
"771.7999999523163","","image-keyboard-response","172","197609","0.0-172.0","31T4R4OBOT29QUCBVUIBZ81ZGHM7C9","A2LMQ4497NMK3S","3S829FDFT2NBOHQMM1CIOU0HZYXDXL","","","img/flower9.png","74","772.6999999880791","1","0","3","0.8,0.2,0.2,0.2,0.8,0.2,0.2,0.2,0.8",""
"null","","html-keyboard-response","173","197911","0.0-173.0","31T4R4OBOT29QUCBVUIBZ81ZGHM7C9","A2LMQ4497NMK3S","3S829FDFT2NBOHQMM1CIOU0HZYXDXL","","","<img src=""img/flower9.png"" style=""width:200px;border:14px solid red;"">","null","","","","","",""
"728.3000000119209","","image-keyboard-response","174","198641","0.0-174.0","31T4R4OBOT29QUCBVUIBZ81ZGHM7C9","A2LMQ4497NMK3S","3S829FDFT2NBOHQMM1CIOU0HZYXDXL","","","img/flower5.png","75","729.3000000119209","2","1","2","0.8,0.2,0.2,0.2,0.8,0.2,0.2,0.2,0.8",""
"null","","html-keyboard-response","175","198947","0.0-175.0","31T4R4OBOT29QUCBVUIBZ81ZGHM7C9","A2LMQ4497NMK3S","3S829FDFT2NBOHQMM1CIOU0HZYXDXL","","","<img src=""img/flower5.png"" style=""width:200px; border:14px solid green;"">","null","","","","","",""
"1076.7999999523163","","image-keyboard-response","176","200025","0.0-176.0","31T4R4OBOT29QUCBVUIBZ81ZGHM7C9","A2LMQ4497NMK3S","3S829FDFT2NBOHQMM1CIOU0HZYXDXL","","","img/flower9.png","74","1077.9000000357628","1","0","3","0.8,0.2,0.2,0.2,0.8,0.2,0.2,0.2,0.8",""
"null","","html-keyboard-response","177","200327","0.0-177.0","31T4R4OBOT29QUCBVUIBZ81ZGHM7C9","A2LMQ4497NMK3S","3S829FDFT2NBOHQMM1CIOU0HZYXDXL","","","<img src=""img/flower9.png"" style=""width:200px;border:14px solid red;"">","null","","","","","",""
"561","","image-keyboard-response","178","200889","0.0-178.0","31T4R4OBOT29QUCBVUIBZ81ZGHM7C9","A2LMQ4497NMK3S","3S829FDFT2NBOHQMM1CIOU0HZYXDXL","","","img/flower9.png","75","562","2","0","3","0.8,0.2,0.2,0.2,0.8,0.2,0.2,0.2,0.8",""
"null","","html-keyboard-response","179","201194","0.0-179.0","31T4R4OBOT29QUCBVUIBZ81ZGHM7C9","A2LMQ4497NMK3S","3S829FDFT2NBOHQMM1CIOU0HZYXDXL","","","<img src=""img/flower9.png"" style=""width:200px;border:14px solid red;"">","null","","","","","",""
"757.7000000476837","","image-keyboard-response","180","201953","0.0-180.0","31T4R4OBOT29QUCBVUIBZ81ZGHM7C9","A2LMQ4497NMK3S","3S829FDFT2NBOHQMM1CIOU0HZYXDXL","","","img/flower6.png","76","758.5999999642372","3","0","1","0.8,0.2,0.2,0.2,0.8,0.2,0.2,0.2,0.8",""
"null","","html-keyboard-response","181","202269","0.0-181.0","31T4R4OBOT29QUCBVUIBZ81ZGHM7C9","A2LMQ4497NMK3S","3S829FDFT2NBOHQMM1CIOU0HZYXDXL","","","<img src=""img/flower6.png"" style=""width:200px;border:14px solid red;"">","null","","","","","",""
"794.1999999880791","","image-keyboard-response","182","203065","0.0-182.0","31T4R4OBOT29QUCBVUIBZ81ZGHM7C9","A2LMQ4497NMK3S","3S829FDFT2NBOHQMM1CIOU0HZYXDXL","","","img/flower5.png","75","795.1999999880791","2","1","2","0.8,0.2,0.2,0.2,0.8,0.2,0.2,0.2,0.8",""
"null","","html-keyboard-response","183","203380","0.0-183.0","31T4R4OBOT29QUCBVUIBZ81ZGHM7C9","A2LMQ4497NMK3S","3S829FDFT2NBOHQMM1CIOU0HZYXDXL","","","<img src=""img/flower5.png"" style=""width:200px; border:14px solid green;"">","null","","","","","",""
"411.39999997615814","","image-keyboard-response","184","203793","0.0-184.0","31T4R4OBOT29QUCBVUIBZ81ZGHM7C9","A2LMQ4497NMK3S","3S829FDFT2NBOHQMM1CIOU0HZYXDXL","","","img/flower5.png","75","413.19999998807907","2","1","2","0.8,0.2,0.2,0.2,0.8,0.2,0.2,0.2,0.8",""
"null","","html-keyboard-response","185","204096","0.0-185.0","31T4R4OBOT29QUCBVUIBZ81ZGHM7C9","A2LMQ4497NMK3S","3S829FDFT2NBOHQMM1CIOU0HZYXDXL","","","<img src=""img/flower5.png"" style=""width:200px; border:14px solid green;"">","null","","","","","",""
"1775.2999999523163","","image-keyboard-response","186","205873","0.0-186.0","31T4R4OBOT29QUCBVUIBZ81ZGHM7C9","A2LMQ4497NMK3S","3S829FDFT2NBOHQMM1CIOU0HZYXDXL","","","img/flower9.png","74","1776.199999988079","1","0","3","0.8,0.2,0.2,0.2,0.8,0.2,0.2,0.2,0.8",""
"null","","html-keyboard-response","187","206187","0.0-187.0","31T4R4OBOT29QUCBVUIBZ81ZGHM7C9","A2LMQ4497NMK3S","3S829FDFT2NBOHQMM1CIOU0HZYXDXL","","","<img src=""img/flower9.png"" style=""width:200px;border:14px solid red;"">","null","","","","","",""
"732.7999999523163","","image-keyboard-response","188","206921","0.0-188.0","31T4R4OBOT29QUCBVUIBZ81ZGHM7C9","A2LMQ4497NMK3S","3S829FDFT2NBOHQMM1CIOU0HZYXDXL","","","img/flower6.png","76","733.8999999761581","3","0","1","0.8,0.2,0.2,0.2,0.8,0.2,0.2,0.2,0.8",""
"null","","html-keyboard-response","189","207237","0.0-189.0","31T4R4OBOT29QUCBVUIBZ81ZGHM7C9","A2LMQ4497NMK3S","3S829FDFT2NBOHQMM1CIOU0HZYXDXL","","","<img src=""img/flower6.png"" style=""width:200px;border:14px solid red;"">","null","","","","","",""
"730.3999999761581","","image-keyboard-response","190","207969","0.0-190.0","31T4R4OBOT29QUCBVUIBZ81ZGHM7C9","A2LMQ4497NMK3S","3S829FDFT2NBOHQMM1CIOU0HZYXDXL","","","img/flower9.png","75","731.3999999761581","2","0","3","0.8,0.2,0.2,0.2,0.8,0.2,0.2,0.2,0.8",""
"null","","html-keyboard-response","191","208272","0.0-191.0","31T4R4OBOT29QUCBVUIBZ81ZGHM7C9","A2LMQ4497NMK3S","3S829FDFT2NBOHQMM1CIOU0HZYXDXL","","","<img src=""img/flower9.png"" style=""width:200px;border:14px solid red;"">","null","","","","","",""
"695.7999999523163","","image-keyboard-response","192","208969","0.0-192.0","31T4R4OBOT29QUCBVUIBZ81ZGHM7C9","A2LMQ4497NMK3S","3S829FDFT2NBOHQMM1CIOU0HZYXDXL","","","img/flower9.png","75","696.6999999880791","2","1","3","0.8,0.2,0.2,0.2,0.8,0.2,0.2,0.2,0.8",""
"null","","html-keyboard-response","193","209280","0.0-193.0","31T4R4OBOT29QUCBVUIBZ81ZGHM7C9","A2LMQ4497NMK3S","3S829FDFT2NBOHQMM1CIOU0HZYXDXL","","","<img src=""img/flower9.png"" style=""width:200px; border:14px solid green;"">","null","","","","","",""
"2127.699999988079","","image-keyboard-response","194","211409","0.0-194.0","31T4R4OBOT29QUCBVUIBZ81ZGHM7C9","A2LMQ4497NMK3S","3S829FDFT2NBOHQMM1CIOU0HZYXDXL","","","img/flower6.png","74","2128.599999964237","1","1","1","0.8,0.2,0.2,0.2,0.8,0.2,0.2,0.2,0.8",""
"null","","html-keyboard-response","195","211721","0.0-195.0","31T4R4OBOT29QUCBVUIBZ81ZGHM7C9","A2LMQ4497NMK3S","3S829FDFT2NBOHQMM1CIOU0HZYXDXL","","","<img src=""img/flower6.png"" style=""width:200px; border:14px solid green;"">","null","","","","","",""
"558.8000000119209","","image-keyboard-response","196","212281","0.0-196.0","31T4R4OBOT29QUCBVUIBZ81ZGHM7C9","A2LMQ4497NMK3S","3S829FDFT2NBOHQMM1CIOU0HZYXDXL","","","img/flower9.png","74","559.7000000476837","1","1","3","0.8,0.2,0.2,0.2,0.8,0.2,0.2,0.2,0.8",""
"null","","html-keyboard-response","197","212597","0.0-197.0","31T4R4OBOT29QUCBVUIBZ81ZGHM7C9","A2LMQ4497NMK3S","3S829FDFT2NBOHQMM1CIOU0HZYXDXL","","","<img src=""img/flower9.png"" style=""width:200px; border:14px solid green;"">","null","","","","","",""
"746.5","","image-keyboard-response","198","213345","0.0-198.0","31T4R4OBOT29QUCBVUIBZ81ZGHM7C9","A2LMQ4497NMK3S","3S829FDFT2NBOHQMM1CIOU0HZYXDXL","","","img/flower5.png","75","747.3999999761581","2","1","2","0.8,0.2,0.2,0.2,0.8,0.2,0.2,0.2,0.8",""
"null","","html-keyboard-response","199","213662","0.0-199.0","31T4R4OBOT29QUCBVUIBZ81ZGHM7C9","A2LMQ4497NMK3S","3S829FDFT2NBOHQMM1CIOU0HZYXDXL","","","<img src=""img/flower5.png"" style=""width:200px; border:14px solid green;"">","null","","","","","",""
"505.69999998807907","","image-keyboard-response","200","214169","0.0-200.0","31T4R4OBOT29QUCBVUIBZ81ZGHM7C9","A2LMQ4497NMK3S","3S829FDFT2NBOHQMM1CIOU0HZYXDXL","","","img/flower6.png","74","506.80000001192093","1","1","1","0.8,0.2,0.2,0.2,0.8,0.2,0.2,0.2,0.8",""
"null","","html-keyboard-response","201","214486","0.0-201.0","31T4R4OBOT29QUCBVUIBZ81ZGHM7C9","A2LMQ4497NMK3S","3S829FDFT2NBOHQMM1CIOU0HZYXDXL","","","<img src=""img/flower6.png"" style=""width:200px; border:14px solid green;"">","null","","","","","",""
"1034.0999999642372","","image-keyboard-response","202","215521","0.0-202.0","31T4R4OBOT29QUCBVUIBZ81ZGHM7C9","A2LMQ4497NMK3S","3S829FDFT2NBOHQMM1CIOU0HZYXDXL","","","img/flower5.png","74","1035.1000000238419","1","0","2","0.8,0.2,0.2,0.2,0.8,0.2,0.2,0.2,0.8",""
"null","","html-keyboard-response","203","215836","0.0-203.0","31T4R4OBOT29QUCBVUIBZ81ZGHM7C9","A2LMQ4497NMK3S","3S829FDFT2NBOHQMM1CIOU0HZYXDXL","","","<img src=""img/flower5.png"" style=""width:200px;border:14px solid red;"">","null","","","","","",""
"572.0999999642372","","image-keyboard-response","204","216409","0.0-204.0","31T4R4OBOT29QUCBVUIBZ81ZGHM7C9","A2LMQ4497NMK3S","3S829FDFT2NBOHQMM1CIOU0HZYXDXL","","","img/flower5.png","75","573.1000000238419","2","0","2","0.8,0.2,0.2,0.2,0.8,0.2,0.2,0.2,0.8",""
"null","","html-keyboard-response","205","216712","0.0-205.0","31T4R4OBOT29QUCBVUIBZ81ZGHM7C9","A2LMQ4497NMK3S","3S829FDFT2NBOHQMM1CIOU0HZYXDXL","","","<img src=""img/flower5.png"" style=""width:200px;border:14px solid red;"">","null","","","","","",""
"400.19999998807907","","image-keyboard-response","206","217113","0.0-206.0","31T4R4OBOT29QUCBVUIBZ81ZGHM7C9","A2LMQ4497NMK3S","3S829FDFT2NBOHQMM1CIOU0HZYXDXL","","","img/flower5.png","75","401.19999998807907","2","1","2","0.8,0.2,0.2,0.2,0.8,0.2,0.2,0.2,0.8",""
"null","","html-keyboard-response","207","217423","0.0-207.0","31T4R4OBOT29QUCBVUIBZ81ZGHM7C9","A2LMQ4497NMK3S","3S829FDFT2NBOHQMM1CIOU0HZYXDXL","","","<img src=""img/flower5.png"" style=""width:200px; border:14px solid green;"">","null","","","","","",""
"777","","image-keyboard-response","208","218201","0.0-208.0","31T4R4OBOT29QUCBVUIBZ81ZGHM7C9","A2LMQ4497NMK3S","3S829FDFT2NBOHQMM1CIOU0HZYXDXL","","","img/flower6.png","74","778","1","0","1","0.8,0.2,0.2,0.2,0.8,0.2,0.2,0.2,0.8",""
"null","","html-keyboard-response","209","218511","0.0-209.0","31T4R4OBOT29QUCBVUIBZ81ZGHM7C9","A2LMQ4497NMK3S","3S829FDFT2NBOHQMM1CIOU0HZYXDXL","","","<img src=""img/flower6.png"" style=""width:200px;border:14px solid red;"">","null","","","","","",""
"552.8000000119209","","image-keyboard-response","210","219065","0.0-210.0","31T4R4OBOT29QUCBVUIBZ81ZGHM7C9","A2LMQ4497NMK3S","3S829FDFT2NBOHQMM1CIOU0HZYXDXL","","","img/flower9.png","74","553.7999999523163","1","0","3","0.8,0.2,0.2,0.2,0.8,0.2,0.2,0.2,0.8",""
"null","","html-keyboard-response","211","219367","0.0-211.0","31T4R4OBOT29QUCBVUIBZ81ZGHM7C9","A2LMQ4497NMK3S","3S829FDFT2NBOHQMM1CIOU0HZYXDXL","","","<img src=""img/flower9.png"" style=""width:200px;border:14px solid red;"">","null","","","","","",""
"1968.2999999523163","","image-keyboard-response","212","221337","0.0-212.0","31T4R4OBOT29QUCBVUIBZ81ZGHM7C9","A2LMQ4497NMK3S","3S829FDFT2NBOHQMM1CIOU0HZYXDXL","","","img/flower5.png","75","1969.199999988079","2","0","2","0.8,0.2,0.2,0.2,0.8,0.2,0.2,0.2,0.8",""
"null","","html-keyboard-response","213","221649","0.0-213.0","31T4R4OBOT29QUCBVUIBZ81ZGHM7C9","A2LMQ4497NMK3S","3S829FDFT2NBOHQMM1CIOU0HZYXDXL","","","<img src=""img/flower5.png"" style=""width:200px;border:14px solid red;"">","null","","","","","",""
"814.6999999880791","","image-keyboard-response","214","222465","0.0-214.0","31T4R4OBOT29QUCBVUIBZ81ZGHM7C9","A2LMQ4497NMK3S","3S829FDFT2NBOHQMM1CIOU0HZYXDXL","","","img/flower5.png","75","815.5","2","1","2","0.8,0.2,0.2,0.2,0.8,0.2,0.2,0.2,0.8",""
"null","","html-keyboard-response","215","222776","0.0-215.0","31T4R4OBOT29QUCBVUIBZ81ZGHM7C9","A2LMQ4497NMK3S","3S829FDFT2NBOHQMM1CIOU0HZYXDXL","","","<img src=""img/flower5.png"" style=""width:200px; border:14px solid green;"">","null","","","","","",""
"968.0999999642372","","image-keyboard-response","216","223745","0.0-216.0","31T4R4OBOT29QUCBVUIBZ81ZGHM7C9","A2LMQ4497NMK3S","3S829FDFT2NBOHQMM1CIOU0HZYXDXL","","","img/flower6.png","74","969.1000000238419","1","1","1","0.8,0.2,0.2,0.2,0.8,0.2,0.2,0.2,0.8",""
"null","","html-keyboard-response","217","224057","0.0-217.0","31T4R4OBOT29QUCBVUIBZ81ZGHM7C9","A2LMQ4497NMK3S","3S829FDFT2NBOHQMM1CIOU0HZYXDXL","","","<img src=""img/flower6.png"" style=""width:200px; border:14px solid green;"">","null","","","","","",""
"998.3000000119209","","image-keyboard-response","218","225057","0.0-218.0","31T4R4OBOT29QUCBVUIBZ81ZGHM7C9","A2LMQ4497NMK3S","3S829FDFT2NBOHQMM1CIOU0HZYXDXL","","","img/flower5.png","75","999.1999999880791","2","1","2","0.8,0.2,0.2,0.2,0.8,0.2,0.2,0.2,0.8",""
"null","","html-keyboard-response","219","225373","0.0-219.0","31T4R4OBOT29QUCBVUIBZ81ZGHM7C9","A2LMQ4497NMK3S","3S829FDFT2NBOHQMM1CIOU0HZYXDXL","","","<img src=""img/flower5.png"" style=""width:200px; border:14px solid green;"">","null","","","","","",""
"354.80000001192093","","image-keyboard-response","220","225729","0.0-220.0","31T4R4OBOT29QUCBVUIBZ81ZGHM7C9","A2LMQ4497NMK3S","3S829FDFT2NBOHQMM1CIOU0HZYXDXL","","","img/flower5.png","75","355.80000001192093","2","0","2","0.8,0.2,0.2,0.2,0.8,0.2,0.2,0.2,0.8",""
"null","","html-keyboard-response","221","226035","0.0-221.0","31T4R4OBOT29QUCBVUIBZ81ZGHM7C9","A2LMQ4497NMK3S","3S829FDFT2NBOHQMM1CIOU0HZYXDXL","","","<img src=""img/flower5.png"" style=""width:200px;border:14px solid red;"">","null","","","","","",""
"733.7000000476837","","image-keyboard-response","222","226769","0.0-222.0","31T4R4OBOT29QUCBVUIBZ81ZGHM7C9","A2LMQ4497NMK3S","3S829FDFT2NBOHQMM1CIOU0HZYXDXL","","","img/flower6.png","74","734.5","1","1","1","0.8,0.2,0.2,0.2,0.8,0.2,0.2,0.2,0.8",""
"null","","html-keyboard-response","223","227083","0.0-223.0","31T4R4OBOT29QUCBVUIBZ81ZGHM7C9","A2LMQ4497NMK3S","3S829FDFT2NBOHQMM1CIOU0HZYXDXL","","","<img src=""img/flower6.png"" style=""width:200px; border:14px solid green;"">","null","","","","","",""
"509.5999999642372","","image-keyboard-response","224","227593","0.0-224.0","31T4R4OBOT29QUCBVUIBZ81ZGHM7C9","A2LMQ4497NMK3S","3S829FDFT2NBOHQMM1CIOU0HZYXDXL","","","img/flower9.png","74","510.5999999642372","1","0","3","0.8,0.2,0.2,0.2,0.8,0.2,0.2,0.2,0.8",""
"null","","html-keyboard-response","225","227916","0.0-225.0","31T4R4OBOT29QUCBVUIBZ81ZGHM7C9","A2LMQ4497NMK3S","3S829FDFT2NBOHQMM1CIOU0HZYXDXL","","","<img src=""img/flower9.png"" style=""width:200px;border:14px solid red;"">","null","","","","","",""
"699.1999999880791","","image-keyboard-response","226","228617","0.0-226.0","31T4R4OBOT29QUCBVUIBZ81ZGHM7C9","A2LMQ4497NMK3S","3S829FDFT2NBOHQMM1CIOU0HZYXDXL","","","img/flower5.png","75","700.1000000238419","2","1","2","0.8,0.2,0.2,0.2,0.8,0.2,0.2,0.2,0.8",""
"null","","html-keyboard-response","227","228921","0.0-227.0","31T4R4OBOT29QUCBVUIBZ81ZGHM7C9","A2LMQ4497NMK3S","3S829FDFT2NBOHQMM1CIOU0HZYXDXL","","","<img src=""img/flower5.png"" style=""width:200px; border:14px solid green;"">","null","","","","","",""
"870.5","","image-keyboard-response","228","229793","0.0-228.0","31T4R4OBOT29QUCBVUIBZ81ZGHM7C9","A2LMQ4497NMK3S","3S829FDFT2NBOHQMM1CIOU0HZYXDXL","","","img/flower6.png","74","871.4000000357628","1","0","1","0.8,0.2,0.2,0.2,0.8,0.2,0.2,0.2,0.8",""
"null","","html-keyboard-response","229","230100","0.0-229.0","31T4R4OBOT29QUCBVUIBZ81ZGHM7C9","A2LMQ4497NMK3S","3S829FDFT2NBOHQMM1CIOU0HZYXDXL","","","<img src=""img/flower6.png"" style=""width:200px;border:14px solid red;"">","null","","","","","",""
"403.39999997615814","","image-keyboard-response","230","230505","0.0-230.0","31T4R4OBOT29QUCBVUIBZ81ZGHM7C9","A2LMQ4497NMK3S","3S829FDFT2NBOHQMM1CIOU0HZYXDXL","","","img/flower6.png","74","404.19999998807907","1","1","1","0.8,0.2,0.2,0.2,0.8,0.2,0.2,0.2,0.8",""
"null","","html-keyboard-response","231","230811","0.0-231.0","31T4R4OBOT29QUCBVUIBZ81ZGHM7C9","A2LMQ4497NMK3S","3S829FDFT2NBOHQMM1CIOU0HZYXDXL","","","<img src=""img/flower6.png"" style=""width:200px; border:14px solid green;"">","null","","","","","",""
"844.7999999523163","","image-keyboard-response","232","231657","0.0-232.0","31T4R4OBOT29QUCBVUIBZ81ZGHM7C9","A2LMQ4497NMK3S","3S829FDFT2NBOHQMM1CIOU0HZYXDXL","","","img/flower5.png","75","845.6999999880791","2","0","2","0.8,0.2,0.2,0.2,0.8,0.2,0.2,0.2,0.8",""
"null","","html-keyboard-response","233","231972","0.0-233.0","31T4R4OBOT29QUCBVUIBZ81ZGHM7C9","A2LMQ4497NMK3S","3S829FDFT2NBOHQMM1CIOU0HZYXDXL","","","<img src=""img/flower5.png"" style=""width:200px;border:14px solid red;"">","null","","","","","",""
"1235.800000011921","","image-keyboard-response","234","233209","0.0-234.0","31T4R4OBOT29QUCBVUIBZ81ZGHM7C9","A2LMQ4497NMK3S","3S829FDFT2NBOHQMM1CIOU0HZYXDXL","","","img/flower6.png","74","1236.800000011921","1","1","1","0.8,0.2,0.2,0.2,0.8,0.2,0.2,0.2,0.8",""
"null","","html-keyboard-response","235","233530","0.0-235.0","31T4R4OBOT29QUCBVUIBZ81ZGHM7C9","A2LMQ4497NMK3S","3S829FDFT2NBOHQMM1CIOU0HZYXDXL","","","<img src=""img/flower6.png"" style=""width:200px; border:14px solid green;"">","null","","","","","",""
"437","","image-keyboard-response","236","233969","0.0-236.0","31T4R4OBOT29QUCBVUIBZ81ZGHM7C9","A2LMQ4497NMK3S","3S829FDFT2NBOHQMM1CIOU0HZYXDXL","","","img/flower5.png","74","438","1","0","2","0.8,0.2,0.2,0.2,0.8,0.2,0.2,0.2,0.8",""
"null","","html-keyboard-response","237","234279","0.0-237.0","31T4R4OBOT29QUCBVUIBZ81ZGHM7C9","A2LMQ4497NMK3S","3S829FDFT2NBOHQMM1CIOU0HZYXDXL","","","<img src=""img/flower5.png"" style=""width:200px;border:14px solid red;"">","null","","","","","",""
"336.5999999642372","","image-keyboard-response","238","234617","0.0-238.0","31T4R4OBOT29QUCBVUIBZ81ZGHM7C9","A2LMQ4497NMK3S","3S829FDFT2NBOHQMM1CIOU0HZYXDXL","","","img/flower5.png","75","337.39999997615814","2","1","2","0.8,0.2,0.2,0.2,0.8,0.2,0.2,0.2,0.8",""
"null","","html-keyboard-response","239","234921","0.0-239.0","31T4R4OBOT29QUCBVUIBZ81ZGHM7C9","A2LMQ4497NMK3S","3S829FDFT2NBOHQMM1CIOU0HZYXDXL","","","<img src=""img/flower5.png"" style=""width:200px; border:14px solid green;"">","null","","","","","",""
"758.7999999523163","","image-keyboard-response","240","235681","0.0-240.0","31T4R4OBOT29QUCBVUIBZ81ZGHM7C9","A2LMQ4497NMK3S","3S829FDFT2NBOHQMM1CIOU0HZYXDXL","","","img/flower9.png","76","759.8000000119209","3","1","3","0.8,0.2,0.2,0.2,0.8,0.2,0.2,0.2,0.8",""
"null","","html-keyboard-response","241","235984","0.0-241.0","31T4R4OBOT29QUCBVUIBZ81ZGHM7C9","A2LMQ4497NMK3S","3S829FDFT2NBOHQMM1CIOU0HZYXDXL","","","<img src=""img/flower9.png"" style=""width:200px; border:14px solid green;"">","null","","","","","",""
"1167.5","","image-keyboard-response","242","237153","0.0-242.0","31T4R4OBOT29QUCBVUIBZ81ZGHM7C9","A2LMQ4497NMK3S","3S829FDFT2NBOHQMM1CIOU0HZYXDXL","","","img/flower6.png","74","1168.5","1","1","1","0.8,0.2,0.2,0.2,0.8,0.2,0.2,0.2,0.8",""
"null","","html-keyboard-response","243","237456","0.0-243.0","31T4R4OBOT29QUCBVUIBZ81ZGHM7C9","A2LMQ4497NMK3S","3S829FDFT2NBOHQMM1CIOU0HZYXDXL","","","<img src=""img/flower6.png"" style=""width:200px; border:14px solid green;"">","null","","","","","",""
"848.3000000119209","","image-keyboard-response","244","238305","0.0-244.0","31T4R4OBOT29QUCBVUIBZ81ZGHM7C9","A2LMQ4497NMK3S","3S829FDFT2NBOHQMM1CIOU0HZYXDXL","","","img/flower9.png","76","849.1999999880791","3","1","3","0.8,0.2,0.2,0.2,0.8,0.2,0.2,0.2,0.8",""
"null","","html-keyboard-response","245","238617","0.0-245.0","31T4R4OBOT29QUCBVUIBZ81ZGHM7C9","A2LMQ4497NMK3S","3S829FDFT2NBOHQMM1CIOU0HZYXDXL","","","<img src=""img/flower9.png"" style=""width:200px; border:14px solid green;"">","null","","","","","",""
"958.5","","image-keyboard-response","246","239577","0.0-246.0","31T4R4OBOT29QUCBVUIBZ81ZGHM7C9","A2LMQ4497NMK3S","3S829FDFT2NBOHQMM1CIOU0HZYXDXL","","","img/flower6.png","74","959.1999999880791","1","1","1","0.8,0.2,0.2,0.2,0.8,0.2,0.2,0.2,0.8",""
"null","","html-keyboard-response","247","239879","0.0-247.0","31T4R4OBOT29QUCBVUIBZ81ZGHM7C9","A2LMQ4497NMK3S","3S829FDFT2NBOHQMM1CIOU0HZYXDXL","","","<img src=""img/flower6.png"" style=""width:200px; border:14px solid green;"">","null","","","","","",""
"584.6999999880791","","image-keyboard-response","248","240465","0.0-248.0","31T4R4OBOT29QUCBVUIBZ81ZGHM7C9","A2LMQ4497NMK3S","3S829FDFT2NBOHQMM1CIOU0HZYXDXL","","","img/flower5.png","75","585.6999999880791","2","1","2","0.8,0.2,0.2,0.2,0.8,0.2,0.2,0.2,0.8",""
"null","","html-keyboard-response","249","240778","0.0-249.0","31T4R4OBOT29QUCBVUIBZ81ZGHM7C9","A2LMQ4497NMK3S","3S829FDFT2NBOHQMM1CIOU0HZYXDXL","","","<img src=""img/flower5.png"" style=""width:200px; border:14px solid green;"">","null","","","","","",""
"693.3999999761581","","image-keyboard-response","250","241473","0.0-250.0","31T4R4OBOT29QUCBVUIBZ81ZGHM7C9","A2LMQ4497NMK3S","3S829FDFT2NBOHQMM1CIOU0HZYXDXL","","","img/flower9.png","76","694.4000000357628","3","1","3","0.8,0.2,0.2,0.2,0.8,0.2,0.2,0.2,0.8",""
"null","","html-keyboard-response","251","241774","0.0-251.0","31T4R4OBOT29QUCBVUIBZ81ZGHM7C9","A2LMQ4497NMK3S","3S829FDFT2NBOHQMM1CIOU0HZYXDXL","","","<img src=""img/flower9.png"" style=""width:200px; border:14px solid green;"">","null","","","","","",""
"529.2999999523163","","image-keyboard-response","252","242305","0.0-252.0","31T4R4OBOT29QUCBVUIBZ81ZGHM7C9","A2LMQ4497NMK3S","3S829FDFT2NBOHQMM1CIOU0HZYXDXL","","","img/flower9.png","76","530.1999999880791","3","0","3","0.8,0.2,0.2,0.2,0.8,0.2,0.2,0.2,0.8",""
"null","","html-keyboard-response","253","242609","0.0-253.0","31T4R4OBOT29QUCBVUIBZ81ZGHM7C9","A2LMQ4497NMK3S","3S829FDFT2NBOHQMM1CIOU0HZYXDXL","","","<img src=""img/flower9.png"" style=""width:200px;border:14px solid red;"">","null","","","","","",""
"398.30000001192093","","image-keyboard-response","254","243008","0.0-254.0","31T4R4OBOT29QUCBVUIBZ81ZGHM7C9","A2LMQ4497NMK3S","3S829FDFT2NBOHQMM1CIOU0HZYXDXL","","","img/flower9.png","76","399.4000000357628","3","1","3","0.8,0.2,0.2,0.2,0.8,0.2,0.2,0.2,0.8",""
"null","","html-keyboard-response","255","243318","0.0-255.0","31T4R4OBOT29QUCBVUIBZ81ZGHM7C9","A2LMQ4497NMK3S","3S829FDFT2NBOHQMM1CIOU0HZYXDXL","","","<img src=""img/flower9.png"" style=""width:200px; border:14px solid green;"">","null","","","","","",""
"1002.3000000119209","","image-keyboard-response","256","244321","0.0-256.0","31T4R4OBOT29QUCBVUIBZ81ZGHM7C9","A2LMQ4497NMK3S","3S829FDFT2NBOHQMM1CIOU0HZYXDXL","","","img/flower5.png","74","1003.4000000357628","1","0","2","0.8,0.2,0.2,0.2,0.8,0.2,0.2,0.2,0.8",""
"null","","html-keyboard-response","257","244638","0.0-257.0","31T4R4OBOT29QUCBVUIBZ81ZGHM7C9","A2LMQ4497NMK3S","3S829FDFT2NBOHQMM1CIOU0HZYXDXL","","","<img src=""img/flower5.png"" style=""width:200px;border:14px solid red;"">","null","","","","","",""
"3305.7999999523163","","image-keyboard-response","258","247945","0.0-258.0","31T4R4OBOT29QUCBVUIBZ81ZGHM7C9","A2LMQ4497NMK3S","3S829FDFT2NBOHQMM1CIOU0HZYXDXL","","","img/flower9.png","76","3306.699999988079","3","1","3","0.8,0.2,0.2,0.2,0.8,0.2,0.2,0.2,0.8",""
"null","","html-keyboard-response","259","248247","0.0-259.0","31T4R4OBOT29QUCBVUIBZ81ZGHM7C9","A2LMQ4497NMK3S","3S829FDFT2NBOHQMM1CIOU0HZYXDXL","","","<img src=""img/flower9.png"" style=""width:200px; border:14px solid green;"">","null","","","","","",""
"416.7999999523163","","image-keyboard-response","260","248665","0.0-260.0","31T4R4OBOT29QUCBVUIBZ81ZGHM7C9","A2LMQ4497NMK3S","3S829FDFT2NBOHQMM1CIOU0HZYXDXL","","","img/flower9.png","76","417.69999998807907","3","0","3","0.8,0.2,0.2,0.2,0.8,0.2,0.2,0.2,0.8",""
"null","","html-keyboard-response","261","248972","0.0-261.0","31T4R4OBOT29QUCBVUIBZ81ZGHM7C9","A2LMQ4497NMK3S","3S829FDFT2NBOHQMM1CIOU0HZYXDXL","","","<img src=""img/flower9.png"" style=""width:200px;border:14px solid red;"">","null","","","","","",""
"676.0999999642372","","image-keyboard-response","262","249649","0.0-262.0","31T4R4OBOT29QUCBVUIBZ81ZGHM7C9","A2LMQ4497NMK3S","3S829FDFT2NBOHQMM1CIOU0HZYXDXL","","","img/flower5.png","75","677","2","1","2","0.8,0.2,0.2,0.2,0.8,0.2,0.2,0.2,0.8",""
"null","","html-keyboard-response","263","249965","0.0-263.0","31T4R4OBOT29QUCBVUIBZ81ZGHM7C9","A2LMQ4497NMK3S","3S829FDFT2NBOHQMM1CIOU0HZYXDXL","","","<img src=""img/flower5.png"" style=""width:200px; border:14px solid green;"">","null","","","","","",""
"834.3999999761581","","image-keyboard-response","264","250801","0.0-264.0","31T4R4OBOT29QUCBVUIBZ81ZGHM7C9","A2LMQ4497NMK3S","3S829FDFT2NBOHQMM1CIOU0HZYXDXL","","","img/flower6.png","74","835.3999999761581","1","1","1","0.8,0.2,0.2,0.2,0.8,0.2,0.2,0.2,0.8",""
"null","","html-keyboard-response","265","251108","0.0-265.0","31T4R4OBOT29QUCBVUIBZ81ZGHM7C9","A2LMQ4497NMK3S","3S829FDFT2NBOHQMM1CIOU0HZYXDXL","","","<img src=""img/flower6.png"" style=""width:200px; border:14px solid green;"">","null","","","","","",""
"1524.2999999523163","","image-keyboard-response","266","252633","0.0-266.0","31T4R4OBOT29QUCBVUIBZ81ZGHM7C9","A2LMQ4497NMK3S","3S829FDFT2NBOHQMM1CIOU0HZYXDXL","","","img/flower5.png","75","1525.199999988079","2","1","2","0.8,0.2,0.2,0.2,0.8,0.2,0.2,0.2,0.8",""
"null","","html-keyboard-response","267","252935","0.0-267.0","31T4R4OBOT29QUCBVUIBZ81ZGHM7C9","A2LMQ4497NMK3S","3S829FDFT2NBOHQMM1CIOU0HZYXDXL","","","<img src=""img/flower5.png"" style=""width:200px; border:14px solid green;"">","null","","","","","",""
"488.69999998807907","","image-keyboard-response","268","253425","0.0-268.0","31T4R4OBOT29QUCBVUIBZ81ZGHM7C9","A2LMQ4497NMK3S","3S829FDFT2NBOHQMM1CIOU0HZYXDXL","","","img/flower5.png","75","489.69999998807907","2","0","2","0.8,0.2,0.2,0.2,0.8,0.2,0.2,0.2,0.8",""
"null","","html-keyboard-response","269","253741","0.0-269.0","31T4R4OBOT29QUCBVUIBZ81ZGHM7C9","A2LMQ4497NMK3S","3S829FDFT2NBOHQMM1CIOU0HZYXDXL","","","<img src=""img/flower5.png"" style=""width:200px;border:14px solid red;"">","null","","","","","",""
"316.7000000476837","","image-keyboard-response","270","254059","0.0-270.0","31T4R4OBOT29QUCBVUIBZ81ZGHM7C9","A2LMQ4497NMK3S","3S829FDFT2NBOHQMM1CIOU0HZYXDXL","","","img/flower5.png","75","317.80000001192093","2","1","2","0.8,0.2,0.2,0.2,0.8,0.2,0.2,0.2,0.8",""
"null","","html-keyboard-response","271","254364","0.0-271.0","31T4R4OBOT29QUCBVUIBZ81ZGHM7C9","A2LMQ4497NMK3S","3S829FDFT2NBOHQMM1CIOU0HZYXDXL","","","<img src=""img/flower5.png"" style=""width:200px; border:14px solid green;"">","null","","","","","",""
"1180.5","","image-keyboard-response","272","255545","0.0-272.0","31T4R4OBOT29QUCBVUIBZ81ZGHM7C9","A2LMQ4497NMK3S","3S829FDFT2NBOHQMM1CIOU0HZYXDXL","","","img/flower6.png","74","1181.3999999761581","1","1","1","0.8,0.2,0.2,0.2,0.8,0.2,0.2,0.2,0.8",""
"null","","html-keyboard-response","273","255849","0.0-273.0","31T4R4OBOT29QUCBVUIBZ81ZGHM7C9","A2LMQ4497NMK3S","3S829FDFT2NBOHQMM1CIOU0HZYXDXL","","","<img src=""img/flower6.png"" style=""width:200px; border:14px solid green;"">","null","","","","","",""
"559","","image-keyboard-response","274","256409","0.0-274.0","31T4R4OBOT29QUCBVUIBZ81ZGHM7C9","A2LMQ4497NMK3S","3S829FDFT2NBOHQMM1CIOU0HZYXDXL","","","img/flower9.png","76","559.9000000357628","3","1","3","0.8,0.2,0.2,0.2,0.8,0.2,0.2,0.2,0.8",""
"null","","html-keyboard-response","275","256714","0.0-275.0","31T4R4OBOT29QUCBVUIBZ81ZGHM7C9","A2LMQ4497NMK3S","3S829FDFT2NBOHQMM1CIOU0HZYXDXL","","","<img src=""img/flower9.png"" style=""width:200px; border:14px solid green;"">","null","","","","","",""
"1366.0999999642372","","image-keyboard-response","276","258081","0.0-276.0","31T4R4OBOT29QUCBVUIBZ81ZGHM7C9","A2LMQ4497NMK3S","3S829FDFT2NBOHQMM1CIOU0HZYXDXL","","","img/flower6.png","74","1367.2999999523163","1","1","1","0.8,0.2,0.2,0.2,0.8,0.2,0.2,0.2,0.8",""
"null","","html-keyboard-response","277","258385","0.0-277.0","31T4R4OBOT29QUCBVUIBZ81ZGHM7C9","A2LMQ4497NMK3S","3S829FDFT2NBOHQMM1CIOU0HZYXDXL","","","<img src=""img/flower6.png"" style=""width:200px; border:14px solid green;"">","null","","","","","",""
"694.8999999761581","","image-keyboard-response","278","259081","0.0-278.0","31T4R4OBOT29QUCBVUIBZ81ZGHM7C9","A2LMQ4497NMK3S","3S829FDFT2NBOHQMM1CIOU0HZYXDXL","","","img/flower9.png","76","696","3","1","3","0.8,0.2,0.2,0.2,0.8,0.2,0.2,0.2,0.8",""
"null","","html-keyboard-response","279","259395","0.0-279.0","31T4R4OBOT29QUCBVUIBZ81ZGHM7C9","A2LMQ4497NMK3S","3S829FDFT2NBOHQMM1CIOU0HZYXDXL","","","<img src=""img/flower9.png"" style=""width:200px; border:14px solid green;"">","null","","","","","",""
"508.80000001192093","","image-keyboard-response","280","259905","0.0-280.0","31T4R4OBOT29QUCBVUIBZ81ZGHM7C9","A2LMQ4497NMK3S","3S829FDFT2NBOHQMM1CIOU0HZYXDXL","","","img/flower9.png","76","509.89999997615814","3","1","3","0.8,0.2,0.2,0.2,0.8,0.2,0.2,0.2,0.8",""
"null","","html-keyboard-response","281","260222","0.0-281.0","31T4R4OBOT29QUCBVUIBZ81ZGHM7C9","A2LMQ4497NMK3S","3S829FDFT2NBOHQMM1CIOU0HZYXDXL","","","<img src=""img/flower9.png"" style=""width:200px; border:14px solid green;"">","null","","","","","",""
"353.69999998807907","","image-keyboard-response","282","260577","0.0-282.0","31T4R4OBOT29QUCBVUIBZ81ZGHM7C9","A2LMQ4497NMK3S","3S829FDFT2NBOHQMM1CIOU0HZYXDXL","","","img/flower9.png","76","354.80000001192093","3","0","3","0.8,0.2,0.2,0.2,0.8,0.2,0.2,0.2,0.8",""
"null","","html-keyboard-response","283","260891","0.0-283.0","31T4R4OBOT29QUCBVUIBZ81ZGHM7C9","A2LMQ4497NMK3S","3S829FDFT2NBOHQMM1CIOU0HZYXDXL","","","<img src=""img/flower9.png"" style=""width:200px;border:14px solid red;"">","null","","","","","",""
"813.3999999761581","","image-keyboard-response","284","261705","0.0-284.0","31T4R4OBOT29QUCBVUIBZ81ZGHM7C9","A2LMQ4497NMK3S","3S829FDFT2NBOHQMM1CIOU0HZYXDXL","","","img/flower9.png","76","814.3000000119209","3","1","3","0.8,0.2,0.2,0.2,0.8,0.2,0.2,0.2,0.8",""
"null","","html-keyboard-response","285","262019","0.0-285.0","31T4R4OBOT29QUCBVUIBZ81ZGHM7C9","A2LMQ4497NMK3S","3S829FDFT2NBOHQMM1CIOU0HZYXDXL","","","<img src=""img/flower9.png"" style=""width:200px; border:14px solid green;"">","null","","","","","",""
"741.5","","image-keyboard-response","286","262761","0.0-286.0","31T4R4OBOT29QUCBVUIBZ81ZGHM7C9","A2LMQ4497NMK3S","3S829FDFT2NBOHQMM1CIOU0HZYXDXL","","","img/flower5.png","75","742.3000000119209","2","1","2","0.8,0.2,0.2,0.2,0.8,0.2,0.2,0.2,0.8",""
"null","","html-keyboard-response","287","263069","0.0-287.0","31T4R4OBOT29QUCBVUIBZ81ZGHM7C9","A2LMQ4497NMK3S","3S829FDFT2NBOHQMM1CIOU0HZYXDXL","","","<img src=""img/flower5.png"" style=""width:200px; border:14px solid green;"">","null","","","","","",""
"859.0999999642372","","image-keyboard-response","288","263929","0.0-288.0","31T4R4OBOT29QUCBVUIBZ81ZGHM7C9","A2LMQ4497NMK3S","3S829FDFT2NBOHQMM1CIOU0HZYXDXL","","","img/flower6.png","74","860","1","1","1","0.8,0.2,0.2,0.2,0.8,0.2,0.2,0.2,0.8",""
"null","","html-keyboard-response","289","264238","0.0-289.0","31T4R4OBOT29QUCBVUIBZ81ZGHM7C9","A2LMQ4497NMK3S","3S829FDFT2NBOHQMM1CIOU0HZYXDXL","","","<img src=""img/flower6.png"" style=""width:200px; border:14px solid green;"">","null","","","","","",""
"666.5999999642372","","image-keyboard-response","290","264905","0.0-290.0","31T4R4OBOT29QUCBVUIBZ81ZGHM7C9","A2LMQ4497NMK3S","3S829FDFT2NBOHQMM1CIOU0HZYXDXL","","","img/flower5.png","75","667.4000000357628","2","1","2","0.8,0.2,0.2,0.2,0.8,0.2,0.2,0.2,0.8",""
"null","","html-keyboard-response","291","265214","0.0-291.0","31T4R4OBOT29QUCBVUIBZ81ZGHM7C9","A2LMQ4497NMK3S","3S829FDFT2NBOHQMM1CIOU0HZYXDXL","","","<img src=""img/flower5.png"" style=""width:200px; border:14px solid green;"">","null","","","","","",""
"1594.5","","image-keyboard-response","292","266809","0.0-292.0","31T4R4OBOT29QUCBVUIBZ81ZGHM7C9","A2LMQ4497NMK3S","3S829FDFT2NBOHQMM1CIOU0HZYXDXL","","","img/flower9.png","76","1595.699999988079","3","1","3","0.8,0.2,0.2,0.2,0.8,0.2,0.2,0.2,0.8",""
"null","","html-keyboard-response","293","267118","0.0-293.0","31T4R4OBOT29QUCBVUIBZ81ZGHM7C9","A2LMQ4497NMK3S","3S829FDFT2NBOHQMM1CIOU0HZYXDXL","","","<img src=""img/flower9.png"" style=""width:200px; border:14px solid green;"">","null","","","","","",""
"418.19999998807907","","image-keyboard-response","294","267537","0.0-294.0","31T4R4OBOT29QUCBVUIBZ81ZGHM7C9","A2LMQ4497NMK3S","3S829FDFT2NBOHQMM1CIOU0HZYXDXL","","","img/flower9.png","76","419.30000001192093","3","0","3","0.8,0.2,0.2,0.2,0.8,0.2,0.2,0.2,0.8",""
"null","","html-keyboard-response","295","267842","0.0-295.0","31T4R4OBOT29QUCBVUIBZ81ZGHM7C9","A2LMQ4497NMK3S","3S829FDFT2NBOHQMM1CIOU0HZYXDXL","","","<img src=""img/flower9.png"" style=""width:200px;border:14px solid red;"">","null","","","","","",""
"1078.5","","image-keyboard-response","296","268921","0.0-296.0","31T4R4OBOT29QUCBVUIBZ81ZGHM7C9","A2LMQ4497NMK3S","3S829FDFT2NBOHQMM1CIOU0HZYXDXL","","","img/flower5.png","75","1079.5","2","1","2","0.8,0.2,0.2,0.2,0.8,0.2,0.2,0.2,0.8",""
"null","","html-keyboard-response","297","269237","0.0-297.0","31T4R4OBOT29QUCBVUIBZ81ZGHM7C9","A2LMQ4497NMK3S","3S829FDFT2NBOHQMM1CIOU0HZYXDXL","","","<img src=""img/flower5.png"" style=""width:200px; border:14px solid green;"">","null","","","","","",""
"371.5999999642372","","image-keyboard-response","298","269609","0.0-298.0","31T4R4OBOT29QUCBVUIBZ81ZGHM7C9","A2LMQ4497NMK3S","3S829FDFT2NBOHQMM1CIOU0HZYXDXL","","","img/flower5.png","75","372.5","2","1","2","0.8,0.2,0.2,0.2,0.8,0.2,0.2,0.2,0.8",""
"null","","html-keyboard-response","299","269917","0.0-299.0","31T4R4OBOT29QUCBVUIBZ81ZGHM7C9","A2LMQ4497NMK3S","3S829FDFT2NBOHQMM1CIOU0HZYXDXL","","","<img src=""img/flower5.png"" style=""width:200px; border:14px solid green;"">","null","","","","","",""
"882.6000000238419","","image-keyboard-response","300","270801","0.0-300.0","31T4R4OBOT29QUCBVUIBZ81ZGHM7C9","A2LMQ4497NMK3S","3S829FDFT2NBOHQMM1CIOU0HZYXDXL","","","img/flower9.png","76","883.6000000238419","3","1","3","0.8,0.2,0.2,0.2,0.8,0.2,0.2,0.2,0.8",""
"null","","html-keyboard-response","301","271107","0.0-301.0","31T4R4OBOT29QUCBVUIBZ81ZGHM7C9","A2LMQ4497NMK3S","3S829FDFT2NBOHQMM1CIOU0HZYXDXL","","","<img src=""img/flower9.png"" style=""width:200px; border:14px solid green;"">","null","","","","","",""
"628.7999999523163","","image-keyboard-response","302","271737","0.0-302.0","31T4R4OBOT29QUCBVUIBZ81ZGHM7C9","A2LMQ4497NMK3S","3S829FDFT2NBOHQMM1CIOU0HZYXDXL","","","img/flower6.png","74","629.8000000119209","1","1","1","0.8,0.2,0.2,0.2,0.8,0.2,0.2,0.2,0.8",""
"null","","html-keyboard-response","303","272052","0.0-303.0","31T4R4OBOT29QUCBVUIBZ81ZGHM7C9","A2LMQ4497NMK3S","3S829FDFT2NBOHQMM1CIOU0HZYXDXL","","","<img src=""img/flower6.png"" style=""width:200px; border:14px solid green;"">","null","","","","","",""
"756.3999999761581","","image-keyboard-response","304","272809","0.0-304.0","31T4R4OBOT29QUCBVUIBZ81ZGHM7C9","A2LMQ4497NMK3S","3S829FDFT2NBOHQMM1CIOU0HZYXDXL","","","img/flower9.png","76","757.1999999880791","3","1","3","0.8,0.2,0.2,0.2,0.8,0.2,0.2,0.2,0.8",""
"null","","html-keyboard-response","305","273111","0.0-305.0","31T4R4OBOT29QUCBVUIBZ81ZGHM7C9","A2LMQ4497NMK3S","3S829FDFT2NBOHQMM1CIOU0HZYXDXL","","","<img src=""img/flower9.png"" style=""width:200px; border:14px solid green;"">","null","","","","","",""
"","","html-keyboard-response","306","278811","0.0-306.0","31T4R4OBOT29QUCBVUIBZ81ZGHM7C9","A2LMQ4497NMK3S","3S829FDFT2NBOHQMM1CIOU0HZYXDXL","","","","","","","","","",""
"1380.800000011921","","image-keyboard-response","307","280193","0.0-307.0","31T4R4OBOT29QUCBVUIBZ81ZGHM7C9","A2LMQ4497NMK3S","3S829FDFT2NBOHQMM1CIOU0HZYXDXL","","","img/flower8.png","74","1382","1","0","1","0.6,0.6,0,0,0.6,0.6,0.6,0,0.6",""
"null","","html-keyboard-response","308","280497","0.0-308.0","31T4R4OBOT29QUCBVUIBZ81ZGHM7C9","A2LMQ4497NMK3S","3S829FDFT2NBOHQMM1CIOU0HZYXDXL","","","<img src=""img/flower8.png"" style=""width:200px;border:14px solid red;"">","null","","","","","",""
"614.2999999523163","","image-keyboard-response","309","281113","0.0-309.0","31T4R4OBOT29QUCBVUIBZ81ZGHM7C9","A2LMQ4497NMK3S","3S829FDFT2NBOHQMM1CIOU0HZYXDXL","","","img/flower8.png","75","615.7999999523163","2","0","1","0.6,0.6,0,0,0.6,0.6,0.6,0,0.6",""
"null","","html-keyboard-response","310","281421","0.0-310.0","31T4R4OBOT29QUCBVUIBZ81ZGHM7C9","A2LMQ4497NMK3S","3S829FDFT2NBOHQMM1CIOU0HZYXDXL","","","<img src=""img/flower8.png"" style=""width:200px;border:14px solid red;"">","null","","","","","",""
"1058.8999999761581","","image-keyboard-response","311","282481","0.0-311.0","31T4R4OBOT29QUCBVUIBZ81ZGHM7C9","A2LMQ4497NMK3S","3S829FDFT2NBOHQMM1CIOU0HZYXDXL","","","img/flower4.png","74","1059.800000011921","1","0","2","0.6,0.6,0,0,0.6,0.6,0.6,0,0.6",""
"null","","html-keyboard-response","312","282797","0.0-312.0","31T4R4OBOT29QUCBVUIBZ81ZGHM7C9","A2LMQ4497NMK3S","3S829FDFT2NBOHQMM1CIOU0HZYXDXL","","","<img src=""img/flower4.png"" style=""width:200px;border:14px solid red;"">","null","","","","","",""
"1315.300000011921","","image-keyboard-response","313","284113","0.0-313.0","31T4R4OBOT29QUCBVUIBZ81ZGHM7C9","A2LMQ4497NMK3S","3S829FDFT2NBOHQMM1CIOU0HZYXDXL","","","img/flower7.png","74","1316","1","0","3","0.6,0.6,0,0,0.6,0.6,0.6,0,0.6",""
"null","","html-keyboard-response","314","284425","0.0-314.0","31T4R4OBOT29QUCBVUIBZ81ZGHM7C9","A2LMQ4497NMK3S","3S829FDFT2NBOHQMM1CIOU0HZYXDXL","","","<img src=""img/flower7.png"" style=""width:200px;border:14px solid red;"">","null","","","","","",""
"1191.300000011921","","image-keyboard-response","315","285617","0.0-315.0","31T4R4OBOT29QUCBVUIBZ81ZGHM7C9","A2LMQ4497NMK3S","3S829FDFT2NBOHQMM1CIOU0HZYXDXL","","","img/flower8.png","75","1192.2000000476837","2","1","1","0.6,0.6,0,0,0.6,0.6,0.6,0,0.6",""
"null","","html-keyboard-response","316","285927","0.0-316.0","31T4R4OBOT29QUCBVUIBZ81ZGHM7C9","A2LMQ4497NMK3S","3S829FDFT2NBOHQMM1CIOU0HZYXDXL","","","<img src=""img/flower8.png"" style=""width:200px; border:14px solid green;"">","null","","","","","",""
"1385","","image-keyboard-response","317","287313","0.0-317.0","31T4R4OBOT29QUCBVUIBZ81ZGHM7C9","A2LMQ4497NMK3S","3S829FDFT2NBOHQMM1CIOU0HZYXDXL","","","img/flower4.png","76","1385.7999999523163","3","1","2","0.6,0.6,0,0,0.6,0.6,0.6,0,0.6",""
"null","","html-keyboard-response","318","287620","0.0-318.0","31T4R4OBOT29QUCBVUIBZ81ZGHM7C9","A2LMQ4497NMK3S","3S829FDFT2NBOHQMM1CIOU0HZYXDXL","","","<img src=""img/flower4.png"" style=""width:200px; border:14px solid green;"">","null","","","","","",""
"884.1999999880791","","image-keyboard-response","319","288505","0.0-319.0","31T4R4OBOT29QUCBVUIBZ81ZGHM7C9","A2LMQ4497NMK3S","3S829FDFT2NBOHQMM1CIOU0HZYXDXL","","","img/flower7.png","74","885","1","1","3","0.6,0.6,0,0,0.6,0.6,0.6,0,0.6",""
"null","","html-keyboard-response","320","288811","0.0-320.0","31T4R4OBOT29QUCBVUIBZ81ZGHM7C9","A2LMQ4497NMK3S","3S829FDFT2NBOHQMM1CIOU0HZYXDXL","","","<img src=""img/flower7.png"" style=""width:200px; border:14px solid green;"">","null","","","","","",""
"549.1999999880791","","image-keyboard-response","321","289361","0.0-321.0","31T4R4OBOT29QUCBVUIBZ81ZGHM7C9","A2LMQ4497NMK3S","3S829FDFT2NBOHQMM1CIOU0HZYXDXL","","","img/flower7.png","74","550","1","1","3","0.6,0.6,0,0,0.6,0.6,0.6,0,0.6",""
"null","","html-keyboard-response","322","289665","0.0-322.0","31T4R4OBOT29QUCBVUIBZ81ZGHM7C9","A2LMQ4497NMK3S","3S829FDFT2NBOHQMM1CIOU0HZYXDXL","","","<img src=""img/flower7.png"" style=""width:200px; border:14px solid green;"">","null","","","","","",""
"415.10000002384186","","image-keyboard-response","323","290081","0.0-323.0","31T4R4OBOT29QUCBVUIBZ81ZGHM7C9","A2LMQ4497NMK3S","3S829FDFT2NBOHQMM1CIOU0HZYXDXL","","","img/flower7.png","74","416.19999998807907","1","1","3","0.6,0.6,0,0,0.6,0.6,0.6,0,0.6",""
"null","","html-keyboard-response","324","290386","0.0-324.0","31T4R4OBOT29QUCBVUIBZ81ZGHM7C9","A2LMQ4497NMK3S","3S829FDFT2NBOHQMM1CIOU0HZYXDXL","","","<img src=""img/flower7.png"" style=""width:200px; border:14px solid green;"">","null","","","","","",""
"1181.5999999642372","","image-keyboard-response","325","291569","0.0-325.0","31T4R4OBOT29QUCBVUIBZ81ZGHM7C9","A2LMQ4497NMK3S","3S829FDFT2NBOHQMM1CIOU0HZYXDXL","","","img/flower4.png","76","1182.5","3","0","2","0.6,0.6,0,0,0.6,0.6,0.6,0,0.6",""
"null","","html-keyboard-response","326","291881","0.0-326.0","31T4R4OBOT29QUCBVUIBZ81ZGHM7C9","A2LMQ4497NMK3S","3S829FDFT2NBOHQMM1CIOU0HZYXDXL","","","<img src=""img/flower4.png"" style=""width:200px;border:14px solid red;"">","null","","","","","",""
"439","","image-keyboard-response","327","292321","0.0-327.0","31T4R4OBOT29QUCBVUIBZ81ZGHM7C9","A2LMQ4497NMK3S","3S829FDFT2NBOHQMM1CIOU0HZYXDXL","","","img/flower4.png","76","439.89999997615814","3","0","2","0.6,0.6,0,0,0.6,0.6,0.6,0,0.6",""
"null","","html-keyboard-response","328","292625","0.0-328.0","31T4R4OBOT29QUCBVUIBZ81ZGHM7C9","A2LMQ4497NMK3S","3S829FDFT2NBOHQMM1CIOU0HZYXDXL","","","<img src=""img/flower4.png"" style=""width:200px;border:14px solid red;"">","null","","","","","",""
"463.5","","image-keyboard-response","329","293089","0.0-329.0","31T4R4OBOT29QUCBVUIBZ81ZGHM7C9","A2LMQ4497NMK3S","3S829FDFT2NBOHQMM1CIOU0HZYXDXL","","","img/flower4.png","75","464.5","2","0","2","0.6,0.6,0,0,0.6,0.6,0.6,0,0.6",""
"null","","html-keyboard-response","330","293395","0.0-330.0","31T4R4OBOT29QUCBVUIBZ81ZGHM7C9","A2LMQ4497NMK3S","3S829FDFT2NBOHQMM1CIOU0HZYXDXL","","","<img src=""img/flower4.png"" style=""width:200px;border:14px solid red;"">","null","","","","","",""
"1197.199999988079","","image-keyboard-response","331","294593","0.0-331.0","31T4R4OBOT29QUCBVUIBZ81ZGHM7C9","A2LMQ4497NMK3S","3S829FDFT2NBOHQMM1CIOU0HZYXDXL","","","img/flower8.png","75","1198.199999988079","2","0","1","0.6,0.6,0,0,0.6,0.6,0.6,0,0.6",""
"null","","html-keyboard-response","332","294903","0.0-332.0","31T4R4OBOT29QUCBVUIBZ81ZGHM7C9","A2LMQ4497NMK3S","3S829FDFT2NBOHQMM1CIOU0HZYXDXL","","","<img src=""img/flower8.png"" style=""width:200px;border:14px solid red;"">","null","","","","","",""
"824.8999999761581","","image-keyboard-response","333","295729","0.0-333.0","31T4R4OBOT29QUCBVUIBZ81ZGHM7C9","A2LMQ4497NMK3S","3S829FDFT2NBOHQMM1CIOU0HZYXDXL","","","img/flower7.png","76","825.8999999761581","3","1","3","0.6,0.6,0,0,0.6,0.6,0.6,0,0.6",""
"null","","html-keyboard-response","334","296033","0.0-334.0","31T4R4OBOT29QUCBVUIBZ81ZGHM7C9","A2LMQ4497NMK3S","3S829FDFT2NBOHQMM1CIOU0HZYXDXL","","","<img src=""img/flower7.png"" style=""width:200px; border:14px solid green;"">","null","","","","","",""
"1527.5","","image-keyboard-response","335","297561","0.0-335.0","31T4R4OBOT29QUCBVUIBZ81ZGHM7C9","A2LMQ4497NMK3S","3S829FDFT2NBOHQMM1CIOU0HZYXDXL","","","img/flower4.png","74","1528.4000000357628","1","0","2","0.6,0.6,0,0,0.6,0.6,0.6,0,0.6",""
"null","","html-keyboard-response","336","297868","0.0-336.0","31T4R4OBOT29QUCBVUIBZ81ZGHM7C9","A2LMQ4497NMK3S","3S829FDFT2NBOHQMM1CIOU0HZYXDXL","","","<img src=""img/flower4.png"" style=""width:200px;border:14px solid red;"">","null","","","","","",""
"964","","image-keyboard-response","337","298833","0.0-337.0","31T4R4OBOT29QUCBVUIBZ81ZGHM7C9","A2LMQ4497NMK3S","3S829FDFT2NBOHQMM1CIOU0HZYXDXL","","","img/flower7.png","76","964.8000000119209","3","1","3","0.6,0.6,0,0,0.6,0.6,0.6,0,0.6",""
"null","","html-keyboard-response","338","299144","0.0-338.0","31T4R4OBOT29QUCBVUIBZ81ZGHM7C9","A2LMQ4497NMK3S","3S829FDFT2NBOHQMM1CIOU0HZYXDXL","","","<img src=""img/flower7.png"" style=""width:200px; border:14px solid green;"">","null","","","","","",""
"975.8999999761581","","image-keyboard-response","339","300121","0.0-339.0","31T4R4OBOT29QUCBVUIBZ81ZGHM7C9","A2LMQ4497NMK3S","3S829FDFT2NBOHQMM1CIOU0HZYXDXL","","","img/flower8.png","74","976.6999999880791","1","1","1","0.6,0.6,0,0,0.6,0.6,0.6,0,0.6",""
"null","","html-keyboard-response","340","300450","0.0-340.0","31T4R4OBOT29QUCBVUIBZ81ZGHM7C9","A2LMQ4497NMK3S","3S829FDFT2NBOHQMM1CIOU0HZYXDXL","","","<img src=""img/flower8.png"" style=""width:200px; border:14px solid green;"">","null","","","","","",""
"718.3000000119209","","image-keyboard-response","341","301169","0.0-341.0","31T4R4OBOT29QUCBVUIBZ81ZGHM7C9","A2LMQ4497NMK3S","3S829FDFT2NBOHQMM1CIOU0HZYXDXL","","","img/flower7.png","76","719.1999999880791","3","0","3","0.6,0.6,0,0,0.6,0.6,0.6,0,0.6",""
"null","","html-keyboard-response","342","301480","0.0-342.0","31T4R4OBOT29QUCBVUIBZ81ZGHM7C9","A2LMQ4497NMK3S","3S829FDFT2NBOHQMM1CIOU0HZYXDXL","","","<img src=""img/flower7.png"" style=""width:200px;border:14px solid red;"">","null","","","","","",""
"1128.5","","image-keyboard-response","343","302609","0.0-343.0","31T4R4OBOT29QUCBVUIBZ81ZGHM7C9","A2LMQ4497NMK3S","3S829FDFT2NBOHQMM1CIOU0HZYXDXL","","","img/flower8.png","74","1129.300000011921","1","1","1","0.6,0.6,0,0,0.6,0.6,0.6,0,0.6",""
"null","","html-keyboard-response","344","302925","0.0-344.0","31T4R4OBOT29QUCBVUIBZ81ZGHM7C9","A2LMQ4497NMK3S","3S829FDFT2NBOHQMM1CIOU0HZYXDXL","","","<img src=""img/flower8.png"" style=""width:200px; border:14px solid green;"">","null","","","","","",""
"491.60000002384186","","image-keyboard-response","345","303417","0.0-345.0","31T4R4OBOT29QUCBVUIBZ81ZGHM7C9","A2LMQ4497NMK3S","3S829FDFT2NBOHQMM1CIOU0HZYXDXL","","","img/flower8.png","74","492.30000001192093","1","1","1","0.6,0.6,0,0,0.6,0.6,0.6,0,0.6",""
"null","","html-keyboard-response","346","303733","0.0-346.0","31T4R4OBOT29QUCBVUIBZ81ZGHM7C9","A2LMQ4497NMK3S","3S829FDFT2NBOHQMM1CIOU0HZYXDXL","","","<img src=""img/flower8.png"" style=""width:200px; border:14px solid green;"">","null","","","","","",""
"875.6000000238419","","image-keyboard-response","347","304609","0.0-347.0","31T4R4OBOT29QUCBVUIBZ81ZGHM7C9","A2LMQ4497NMK3S","3S829FDFT2NBOHQMM1CIOU0HZYXDXL","","","img/flower7.png","76","876.4000000357628","3","1","3","0.6,0.6,0,0,0.6,0.6,0.6,0,0.6",""
"null","","html-keyboard-response","348","304926","0.0-348.0","31T4R4OBOT29QUCBVUIBZ81ZGHM7C9","A2LMQ4497NMK3S","3S829FDFT2NBOHQMM1CIOU0HZYXDXL","","","<img src=""img/flower7.png"" style=""width:200px; border:14px solid green;"">","null","","","","","",""
"753.9000000357628","","image-keyboard-response","349","305681","0.0-349.0","31T4R4OBOT29QUCBVUIBZ81ZGHM7C9","A2LMQ4497NMK3S","3S829FDFT2NBOHQMM1CIOU0HZYXDXL","","","img/flower4.png","75","755","2","1","2","0.6,0.6,0,0,0.6,0.6,0.6,0,0.6",""
"null","","html-keyboard-response","350","305983","0.0-350.0","31T4R4OBOT29QUCBVUIBZ81ZGHM7C9","A2LMQ4497NMK3S","3S829FDFT2NBOHQMM1CIOU0HZYXDXL","","","<img src=""img/flower4.png"" style=""width:200px; border:14px solid green;"">","null","","","","","",""
"1024.9000000357628","","image-keyboard-response","351","307009","0.0-351.0","31T4R4OBOT29QUCBVUIBZ81ZGHM7C9","A2LMQ4497NMK3S","3S829FDFT2NBOHQMM1CIOU0HZYXDXL","","","img/flower8.png","74","1025.800000011921","1","1","1","0.6,0.6,0,0,0.6,0.6,0.6,0,0.6",""
"null","","html-keyboard-response","352","307317","0.0-352.0","31T4R4OBOT29QUCBVUIBZ81ZGHM7C9","A2LMQ4497NMK3S","3S829FDFT2NBOHQMM1CIOU0HZYXDXL","","","<img src=""img/flower8.png"" style=""width:200px; border:14px solid green;"">","null","","","","","",""
"370.69999998807907","","image-keyboard-response","353","307689","0.0-353.0","31T4R4OBOT29QUCBVUIBZ81ZGHM7C9","A2LMQ4497NMK3S","3S829FDFT2NBOHQMM1CIOU0HZYXDXL","","","img/flower8.png","74","371.69999998807907","1","1","1","0.6,0.6,0,0,0.6,0.6,0.6,0,0.6",""
"null","","html-keyboard-response","354","307998","0.0-354.0","31T4R4OBOT29QUCBVUIBZ81ZGHM7C9","A2LMQ4497NMK3S","3S829FDFT2NBOHQMM1CIOU0HZYXDXL","","","<img src=""img/flower8.png"" style=""width:200px; border:14px solid green;"">","null","","","","","",""
"905.8000000119209","","image-keyboard-response","355","308905","0.0-355.0","31T4R4OBOT29QUCBVUIBZ81ZGHM7C9","A2LMQ4497NMK3S","3S829FDFT2NBOHQMM1CIOU0HZYXDXL","","","img/flower4.png","76","906.9000000357628","3","0","2","0.6,0.6,0,0,0.6,0.6,0.6,0,0.6",""
"null","","html-keyboard-response","356","309219","0.0-356.0","31T4R4OBOT29QUCBVUIBZ81ZGHM7C9","A2LMQ4497NMK3S","3S829FDFT2NBOHQMM1CIOU0HZYXDXL","","","<img src=""img/flower4.png"" style=""width:200px;border:14px solid red;"">","null","","","","","",""
"653.3999999761581","","image-keyboard-response","357","309873","0.0-357.0","31T4R4OBOT29QUCBVUIBZ81ZGHM7C9","A2LMQ4497NMK3S","3S829FDFT2NBOHQMM1CIOU0HZYXDXL","","","img/flower7.png","76","654.1000000238419","3","1","3","0.6,0.6,0,0,0.6,0.6,0.6,0,0.6",""
"null","","html-keyboard-response","358","310182","0.0-358.0","31T4R4OBOT29QUCBVUIBZ81ZGHM7C9","A2LMQ4497NMK3S","3S829FDFT2NBOHQMM1CIOU0HZYXDXL","","","<img src=""img/flower7.png"" style=""width:200px; border:14px solid green;"">","null","","","","","",""
"562.3000000119209","","image-keyboard-response","359","310746","0.0-359.0","31T4R4OBOT29QUCBVUIBZ81ZGHM7C9","A2LMQ4497NMK3S","3S829FDFT2NBOHQMM1CIOU0HZYXDXL","","","img/flower4.png","74","563.3000000119209","1","0","2","0.6,0.6,0,0,0.6,0.6,0.6,0,0.6",""
"null","","html-keyboard-response","360","311056","0.0-360.0","31T4R4OBOT29QUCBVUIBZ81ZGHM7C9","A2LMQ4497NMK3S","3S829FDFT2NBOHQMM1CIOU0HZYXDXL","","","<img src=""img/flower4.png"" style=""width:200px;border:14px solid red;"">","null","","","","","",""
"1503.8999999761581","","image-keyboard-response","361","312561","0.0-361.0","31T4R4OBOT29QUCBVUIBZ81ZGHM7C9","A2LMQ4497NMK3S","3S829FDFT2NBOHQMM1CIOU0HZYXDXL","","","img/flower8.png","74","1504.9000000357628","1","1","1","0.6,0.6,0,0,0.6,0.6,0.6,0,0.6",""
"null","","html-keyboard-response","362","312869","0.0-362.0","31T4R4OBOT29QUCBVUIBZ81ZGHM7C9","A2LMQ4497NMK3S","3S829FDFT2NBOHQMM1CIOU0HZYXDXL","","","<img src=""img/flower8.png"" style=""width:200px; border:14px solid green;"">","null","","","","","",""
"379","","image-keyboard-response","363","313249","0.0-363.0","31T4R4OBOT29QUCBVUIBZ81ZGHM7C9","A2LMQ4497NMK3S","3S829FDFT2NBOHQMM1CIOU0HZYXDXL","","","img/flower8.png","74","379.9000000357628","1","1","1","0.6,0.6,0,0,0.6,0.6,0.6,0,0.6",""
"null","","html-keyboard-response","364","313566","0.0-364.0","31T4R4OBOT29QUCBVUIBZ81ZGHM7C9","A2LMQ4497NMK3S","3S829FDFT2NBOHQMM1CIOU0HZYXDXL","","","<img src=""img/flower8.png"" style=""width:200px; border:14px solid green;"">","null","","","","","",""
"321.2999999523163","","image-keyboard-response","365","313889","0.0-365.0","31T4R4OBOT29QUCBVUIBZ81ZGHM7C9","A2LMQ4497NMK3S","3S829FDFT2NBOHQMM1CIOU0HZYXDXL","","","img/flower8.png","74","322.2999999523163","1","1","1","0.6,0.6,0,0,0.6,0.6,0.6,0,0.6",""
"null","","html-keyboard-response","366","314201","0.0-366.0","31T4R4OBOT29QUCBVUIBZ81ZGHM7C9","A2LMQ4497NMK3S","3S829FDFT2NBOHQMM1CIOU0HZYXDXL","","","<img src=""img/flower8.png"" style=""width:200px; border:14px solid green;"">","null","","","","","",""
"415.19999998807907","","image-keyboard-response","367","314617","0.0-367.0","31T4R4OBOT29QUCBVUIBZ81ZGHM7C9","A2LMQ4497NMK3S","3S829FDFT2NBOHQMM1CIOU0HZYXDXL","","","img/flower8.png","74","416.19999998807907","1","1","1","0.6,0.6,0,0,0.6,0.6,0.6,0,0.6",""
"null","","html-keyboard-response","368","314931","0.0-368.0","31T4R4OBOT29QUCBVUIBZ81ZGHM7C9","A2LMQ4497NMK3S","3S829FDFT2NBOHQMM1CIOU0HZYXDXL","","","<img src=""img/flower8.png"" style=""width:200px; border:14px solid green;"">","null","","","","","",""
"604.6999999880791","","image-keyboard-response","369","315537","0.0-369.0","31T4R4OBOT29QUCBVUIBZ81ZGHM7C9","A2LMQ4497NMK3S","3S829FDFT2NBOHQMM1CIOU0HZYXDXL","","","img/flower4.png","75","605.5999999642372","2","0","2","0.6,0.6,0,0,0.6,0.6,0.6,0,0.6",""
"null","","html-keyboard-response","370","315854","0.0-370.0","31T4R4OBOT29QUCBVUIBZ81ZGHM7C9","A2LMQ4497NMK3S","3S829FDFT2NBOHQMM1CIOU0HZYXDXL","","","<img src=""img/flower4.png"" style=""width:200px;border:14px solid red;"">","null","","","","","",""
"593.5","","image-keyboard-response","371","316449","0.0-371.0","31T4R4OBOT29QUCBVUIBZ81ZGHM7C9","A2LMQ4497NMK3S","3S829FDFT2NBOHQMM1CIOU0HZYXDXL","","","img/flower7.png","76","594.4000000357628","3","1","3","0.6,0.6,0,0,0.6,0.6,0.6,0,0.6",""
"null","","html-keyboard-response","372","316752","0.0-372.0","31T4R4OBOT29QUCBVUIBZ81ZGHM7C9","A2LMQ4497NMK3S","3S829FDFT2NBOHQMM1CIOU0HZYXDXL","","","<img src=""img/flower7.png"" style=""width:200px; border:14px solid green;"">","null","","","","","",""
"791.8000000119209","","image-keyboard-response","373","317545","0.0-373.0","31T4R4OBOT29QUCBVUIBZ81ZGHM7C9","A2LMQ4497NMK3S","3S829FDFT2NBOHQMM1CIOU0HZYXDXL","","","img/flower8.png","74","792.8999999761581","1","1","1","0.6,0.6,0,0,0.6,0.6,0.6,0,0.6",""
"null","","html-keyboard-response","374","317853","0.0-374.0","31T4R4OBOT29QUCBVUIBZ81ZGHM7C9","A2LMQ4497NMK3S","3S829FDFT2NBOHQMM1CIOU0HZYXDXL","","","<img src=""img/flower8.png"" style=""width:200px; border:14px solid green;"">","null","","","","","",""
"642.3999999761581","","image-keyboard-response","375","318497","0.0-375.0","31T4R4OBOT29QUCBVUIBZ81ZGHM7C9","A2LMQ4497NMK3S","3S829FDFT2NBOHQMM1CIOU0HZYXDXL","","","img/flower7.png","76","643.5","3","0","3","0.6,0.6,0,0,0.6,0.6,0.6,0,0.6",""
"null","","html-keyboard-response","376","318800","0.0-376.0","31T4R4OBOT29QUCBVUIBZ81ZGHM7C9","A2LMQ4497NMK3S","3S829FDFT2NBOHQMM1CIOU0HZYXDXL","","","<img src=""img/flower7.png"" style=""width:200px;border:14px solid red;"">","null","","","","","",""
"463.80000001192093","","image-keyboard-response","377","319265","0.0-377.0","31T4R4OBOT29QUCBVUIBZ81ZGHM7C9","A2LMQ4497NMK3S","3S829FDFT2NBOHQMM1CIOU0HZYXDXL","","","img/flower7.png","76","464.60000002384186","3","0","3","0.6,0.6,0,0,0.6,0.6,0.6,0,0.6",""
"null","","html-keyboard-response","378","319570","0.0-378.0","31T4R4OBOT29QUCBVUIBZ81ZGHM7C9","A2LMQ4497NMK3S","3S829FDFT2NBOHQMM1CIOU0HZYXDXL","","","<img src=""img/flower7.png"" style=""width:200px;border:14px solid red;"">","null","","","","","",""
"1278.4000000357628","","image-keyboard-response","379","320849","0.0-379.0","31T4R4OBOT29QUCBVUIBZ81ZGHM7C9","A2LMQ4497NMK3S","3S829FDFT2NBOHQMM1CIOU0HZYXDXL","","","img/flower8.png","74","1279.5","1","0","1","0.6,0.6,0,0,0.6,0.6,0.6,0,0.6",""
"null","","html-keyboard-response","380","321152","0.0-380.0","31T4R4OBOT29QUCBVUIBZ81ZGHM7C9","A2LMQ4497NMK3S","3S829FDFT2NBOHQMM1CIOU0HZYXDXL","","","<img src=""img/flower8.png"" style=""width:200px;border:14px solid red;"">","null","","","","","",""
"983.3999999761581","","image-keyboard-response","381","322137","0.0-381.0","31T4R4OBOT29QUCBVUIBZ81ZGHM7C9","A2LMQ4497NMK3S","3S829FDFT2NBOHQMM1CIOU0HZYXDXL","","","img/flower4.png","75","984.3000000119209","2","0","2","0.6,0.6,0,0,0.6,0.6,0.6,0,0.6",""
"null","","html-keyboard-response","382","322458","0.0-382.0","31T4R4OBOT29QUCBVUIBZ81ZGHM7C9","A2LMQ4497NMK3S","3S829FDFT2NBOHQMM1CIOU0HZYXDXL","","","<img src=""img/flower4.png"" style=""width:200px;border:14px solid red;"">","null","","","","","",""
"917.8999999761581","","image-keyboard-response","383","323377","0.0-383.0","31T4R4OBOT29QUCBVUIBZ81ZGHM7C9","A2LMQ4497NMK3S","3S829FDFT2NBOHQMM1CIOU0HZYXDXL","","","img/flower8.png","74","918.7999999523163","1","0","1","0.6,0.6,0,0,0.6,0.6,0.6,0,0.6",""
"null","","html-keyboard-response","384","323684","0.0-384.0","31T4R4OBOT29QUCBVUIBZ81ZGHM7C9","A2LMQ4497NMK3S","3S829FDFT2NBOHQMM1CIOU0HZYXDXL","","","<img src=""img/flower8.png"" style=""width:200px;border:14px solid red;"">","null","","","","","",""
"1019.8999999761581","","image-keyboard-response","385","324705","0.0-385.0","31T4R4OBOT29QUCBVUIBZ81ZGHM7C9","A2LMQ4497NMK3S","3S829FDFT2NBOHQMM1CIOU0HZYXDXL","","","img/flower4.png","76","1020.8000000119209","3","1","2","0.6,0.6,0,0,0.6,0.6,0.6,0,0.6",""
"null","","html-keyboard-response","386","325016","0.0-386.0","31T4R4OBOT29QUCBVUIBZ81ZGHM7C9","A2LMQ4497NMK3S","3S829FDFT2NBOHQMM1CIOU0HZYXDXL","","","<img src=""img/flower4.png"" style=""width:200px; border:14px solid green;"">","null","","","","","",""
"728.1999999880791","","image-keyboard-response","387","325745","0.0-387.0","31T4R4OBOT29QUCBVUIBZ81ZGHM7C9","A2LMQ4497NMK3S","3S829FDFT2NBOHQMM1CIOU0HZYXDXL","","","img/flower7.png","76","729.0999999642372","3","1","3","0.6,0.6,0,0,0.6,0.6,0.6,0,0.6",""
"null","","html-keyboard-response","388","326057","0.0-388.0","31T4R4OBOT29QUCBVUIBZ81ZGHM7C9","A2LMQ4497NMK3S","3S829FDFT2NBOHQMM1CIOU0HZYXDXL","","","<img src=""img/flower7.png"" style=""width:200px; border:14px solid green;"">","null","","","","","",""
"503.19999998807907","","image-keyboard-response","389","326561","0.0-389.0","31T4R4OBOT29QUCBVUIBZ81ZGHM7C9","A2LMQ4497NMK3S","3S829FDFT2NBOHQMM1CIOU0HZYXDXL","","","img/flower7.png","76","504.10000002384186","3","0","3","0.6,0.6,0,0,0.6,0.6,0.6,0,0.6",""
"null","","html-keyboard-response","390","326874","0.0-390.0","31T4R4OBOT29QUCBVUIBZ81ZGHM7C9","A2LMQ4497NMK3S","3S829FDFT2NBOHQMM1CIOU0HZYXDXL","","","<img src=""img/flower7.png"" style=""width:200px;border:14px solid red;"">","null","","","","","",""
"997.6999999880791","","image-keyboard-response","391","327873","0.0-391.0","31T4R4OBOT29QUCBVUIBZ81ZGHM7C9","A2LMQ4497NMK3S","3S829FDFT2NBOHQMM1CIOU0HZYXDXL","","","img/flower8.png","74","998.5","1","1","1","0.6,0.6,0,0,0.6,0.6,0.6,0,0.6",""
"null","","html-keyboard-response","392","328177","0.0-392.0","31T4R4OBOT29QUCBVUIBZ81ZGHM7C9","A2LMQ4497NMK3S","3S829FDFT2NBOHQMM1CIOU0HZYXDXL","","","<img src=""img/flower8.png"" style=""width:200px; border:14px solid green;"">","null","","","","","",""
"1134.699999988079","","image-keyboard-response","393","329313","0.0-393.0","31T4R4OBOT29QUCBVUIBZ81ZGHM7C9","A2LMQ4497NMK3S","3S829FDFT2NBOHQMM1CIOU0HZYXDXL","","","img/flower4.png","76","1136.2999999523163","3","0","2","0.6,0.6,0,0,0.6,0.6,0.6,0,0.6",""
"null","","html-keyboard-response","394","329627","0.0-394.0","31T4R4OBOT29QUCBVUIBZ81ZGHM7C9","A2LMQ4497NMK3S","3S829FDFT2NBOHQMM1CIOU0HZYXDXL","","","<img src=""img/flower4.png"" style=""width:200px;border:14px solid red;"">","null","","","","","",""
"684.5","","image-keyboard-response","395","330313","0.0-395.0","31T4R4OBOT29QUCBVUIBZ81ZGHM7C9","A2LMQ4497NMK3S","3S829FDFT2NBOHQMM1CIOU0HZYXDXL","","","img/flower7.png","76","685.3999999761581","3","1","3","0.6,0.6,0,0,0.6,0.6,0.6,0,0.6",""
"null","","html-keyboard-response","396","330617","0.0-396.0","31T4R4OBOT29QUCBVUIBZ81ZGHM7C9","A2LMQ4497NMK3S","3S829FDFT2NBOHQMM1CIOU0HZYXDXL","","","<img src=""img/flower7.png"" style=""width:200px; border:14px solid green;"">","null","","","","","",""
"471","","image-keyboard-response","397","331089","0.0-397.0","31T4R4OBOT29QUCBVUIBZ81ZGHM7C9","A2LMQ4497NMK3S","3S829FDFT2NBOHQMM1CIOU0HZYXDXL","","","img/flower4.png","76","472","3","0","2","0.6,0.6,0,0,0.6,0.6,0.6,0,0.6",""
"null","","html-keyboard-response","398","331395","0.0-398.0","31T4R4OBOT29QUCBVUIBZ81ZGHM7C9","A2LMQ4497NMK3S","3S829FDFT2NBOHQMM1CIOU0HZYXDXL","","","<img src=""img/flower4.png"" style=""width:200px;border:14px solid red;"">","null","","","","","",""
"805.2000000476837","","image-keyboard-response","399","332201","0.0-399.0","31T4R4OBOT29QUCBVUIBZ81ZGHM7C9","A2LMQ4497NMK3S","3S829FDFT2NBOHQMM1CIOU0HZYXDXL","","","img/flower7.png","76","806.1999999880791","3","0","3","0.6,0.6,0,0,0.6,0.6,0.6,0,0.6",""
