"success","trial_type","trial_index","time_elapsed","internal_node_id","assignmentID","mturkID","hitID","view_history","rt","stimulus","key_press","reactionTime","a","r","s","cond","reward_cond","reward_cond_actual","reward_matrix_idx","responses"
"true","fullscreen","0","1690","0.0-0.0","326O153BMJK441XZIYRSPOBYRKFEDF","A2M2U7XUBA4CAN","3UUIU9GZC5R93N292LT21FRJ9VS5TN","","","","","","","","","","","","",""
"","instructions","1","18092","0.0-1.0","326O153BMJK441XZIYRSPOBYRKFEDF","A2M2U7XUBA4CAN","3UUIU9GZC5R93N292LT21FRJ9VS5TN","[{""page_index"":0,""viewing_time"":1415.800000011921},{""page_index"":1,""viewing_time"":11508.099999964237},{""page_index"":2,""viewing_time"":546},{""page_index"":3,""viewing_time"":296.2000000476837},{""page_index"":4,""viewing_time"":850.5999999642372},{""page_index"":5,""viewing_time"":687.6999999880791},{""page_index"":6,""viewing_time"":564.4000000357628},{""page_index"":7,""viewing_time"":532.0999999642372}]","16401.19999998808","","","","","","","","","","",""
"","image-keyboard-response","2","18465","0.0-2.0","326O153BMJK441XZIYRSPOBYRKFEDF","A2M2U7XUBA4CAN","3UUIU9GZC5R93N292LT21FRJ9VS5TN","","371.9000000357628","img/flower5.png","74","372.9000000357628","1","1","3","2","1,0,0,1,1,0,1,0,1","1,0,0,1,1,0,1,0,1","1",""
"","html-keyboard-response","3","18782","0.0-3.0","326O153BMJK441XZIYRSPOBYRKFEDF","A2M2U7XUBA4CAN","3UUIU9GZC5R93N292LT21FRJ9VS5TN","","null","<img src=""img/flower5.png"" style=""width:200px; border:14px solid green;"">","null","","","","","","","","",""
"","image-keyboard-response","4","18993","0.0-4.0","326O153BMJK441XZIYRSPOBYRKFEDF","A2M2U7XUBA4CAN","3UUIU9GZC5R93N292LT21FRJ9VS5TN","","209.39999997615814","img/flower3.png","74","210.10000002384186","1","1","1","2","1,0,0,1,1,0,1,0,1","1,0,0,1,1,0,1,0,1","1",""
"","html-keyboard-response","5","19299","0.0-5.0","326O153BMJK441XZIYRSPOBYRKFEDF","A2M2U7XUBA4CAN","3UUIU9GZC5R93N292LT21FRJ9VS5TN","","null","<img src=""img/flower3.png"" style=""width:200px; border:14px solid green;"">","null","","","","","","","","",""
"","image-keyboard-response","6","19320","0.0-6.0","326O153BMJK441XZIYRSPOBYRKFEDF","A2M2U7XUBA4CAN","3UUIU9GZC5R93N292LT21FRJ9VS5TN","","20.69999998807907","img/flower2.png","75","21.100000023841858","2","1","2","2","1,0,0,1,1,0,1,0,1","1,0,0,1,1,0,1,0,1","1",""
"","html-keyboard-response","7","19626","0.0-7.0","326O153BMJK441XZIYRSPOBYRKFEDF","A2M2U7XUBA4CAN","3UUIU9GZC5R93N292LT21FRJ9VS5TN","","null","<img src=""img/flower2.png"" style=""width:200px; border:14px solid green;"">","null","","","","","","","","",""
"","image-keyboard-response","8","19665","0.0-8.0","326O153BMJK441XZIYRSPOBYRKFEDF","A2M2U7XUBA4CAN","3UUIU9GZC5R93N292LT21FRJ9VS5TN","","37.80000001192093","img/flower2.png","76","38.19999998807907","3","0","2","2","1,0,0,1,1,0,1,0,1","1,0,0,1,1,0,1,0,1","1",""
"","html-keyboard-response","9","19973","0.0-9.0","326O153BMJK441XZIYRSPOBYRKFEDF","A2M2U7XUBA4CAN","3UUIU9GZC5R93N292LT21FRJ9VS5TN","","null","<img src=""img/flower2.png"" style=""width:200px;border:14px solid red;"">","null","","","","","","","","",""
"","image-keyboard-response","10","20057","0.0-10.0","326O153BMJK441XZIYRSPOBYRKFEDF","A2M2U7XUBA4CAN","3UUIU9GZC5R93N292LT21FRJ9VS5TN","","83","img/flower3.png","74","83.5","1","1","1","2","1,0,0,1,1,0,1,0,1","1,0,0,1,1,0,1,0,1","1",""
"","html-keyboard-response","11","20361","0.0-11.0","326O153BMJK441XZIYRSPOBYRKFEDF","A2M2U7XUBA4CAN","3UUIU9GZC5R93N292LT21FRJ9VS5TN","","null","<img src=""img/flower3.png"" style=""width:200px; border:14px solid green;"">","null","","","","","","","","",""
"","image-keyboard-response","12","20425","0.0-12.0","326O153BMJK441XZIYRSPOBYRKFEDF","A2M2U7XUBA4CAN","3UUIU9GZC5R93N292LT21FRJ9VS5TN","","63.39999997615814","img/flower2.png","75","64","2","1","2","2","1,0,0,1,1,0,1,0,1","1,0,0,1,1,0,1,0,1","1",""
"","html-keyboard-response","13","20727","0.0-13.0","326O153BMJK441XZIYRSPOBYRKFEDF","A2M2U7XUBA4CAN","3UUIU9GZC5R93N292LT21FRJ9VS5TN","","null","<img src=""img/flower2.png"" style=""width:200px; border:14px solid green;"">","null","","","","","","","","",""
"","image-keyboard-response","14","20745","0.0-14.0","326O153BMJK441XZIYRSPOBYRKFEDF","A2M2U7XUBA4CAN","3UUIU9GZC5R93N292LT21FRJ9VS5TN","","16.600000023841858","img/flower3.png","75","17.19999998807907","2","0","1","2","1,0,0,1,1,0,1,0,1","1,0,0,1,1,0,1,0,1","1",""
"","html-keyboard-response","15","21049","0.0-15.0","326O153BMJK441XZIYRSPOBYRKFEDF","A2M2U7XUBA4CAN","3UUIU9GZC5R93N292LT21FRJ9VS5TN","","null","<img src=""img/flower3.png"" style=""width:200px;border:14px solid red;"">","null","","","","","","","","",""
"","image-keyboard-response","16","21177","0.0-16.0","326O153BMJK441XZIYRSPOBYRKFEDF","A2M2U7XUBA4CAN","3UUIU9GZC5R93N292LT21FRJ9VS5TN","","126.80000001192093","img/flower5.png","76","127.60000002384186","3","1","3","2","1,0,0,1,1,0,1,0,1","1,0,0,1,1,0,1,0,1","1",""
"","html-keyboard-response","17","21481","0.0-17.0","326O153BMJK441XZIYRSPOBYRKFEDF","A2M2U7XUBA4CAN","3UUIU9GZC5R93N292LT21FRJ9VS5TN","","null","<img src=""img/flower5.png"" style=""width:200px; border:14px solid green;"">","null","","","","","","","","",""
"","image-keyboard-response","18","21577","0.0-18.0","326O153BMJK441XZIYRSPOBYRKFEDF","A2M2U7XUBA4CAN","3UUIU9GZC5R93N292LT21FRJ9VS5TN","","95.70000004768372","img/flower2.png","75","96.19999998807907","2","1","2","2","1,0,0,1,1,0,1,0,1","1,0,0,1,1,0,1,0,1","1",""
"","html-keyboard-response","19","21893","0.0-19.0","326O153BMJK441XZIYRSPOBYRKFEDF","A2M2U7XUBA4CAN","3UUIU9GZC5R93N292LT21FRJ9VS5TN","","null","<img src=""img/flower2.png"" style=""width:200px; border:14px solid green;"">","null","","","","","","","","",""
"","image-keyboard-response","20","21897","0.0-20.0","326O153BMJK441XZIYRSPOBYRKFEDF","A2M2U7XUBA4CAN","3UUIU9GZC5R93N292LT21FRJ9VS5TN","","3","img/flower5.png","75","3.5","2","0","3","2","1,0,0,1,1,0,1,0,1","1,0,0,1,1,0,1,0,1","1",""
"","html-keyboard-response","21","22207","0.0-21.0","326O153BMJK441XZIYRSPOBYRKFEDF","A2M2U7XUBA4CAN","3UUIU9GZC5R93N292LT21FRJ9VS5TN","","null","<img src=""img/flower5.png"" style=""width:200px;border:14px solid red;"">","null","","","","","","","","",""
"","image-keyboard-response","22","22217","0.0-22.0","326O153BMJK441XZIYRSPOBYRKFEDF","A2M2U7XUBA4CAN","3UUIU9GZC5R93N292LT21FRJ9VS5TN","","9.400000035762787","img/flower5.png","75","9.899999976158142","2","0","3","2","1,0,0,1,1,0,1,0,1","1,0,0,1,1,0,1,0,1","1",""
"","html-keyboard-response","23","22533","0.0-23.0","326O153BMJK441XZIYRSPOBYRKFEDF","A2M2U7XUBA4CAN","3UUIU9GZC5R93N292LT21FRJ9VS5TN","","null","<img src=""img/flower5.png"" style=""width:200px;border:14px solid red;"">","null","","","","","","","","",""
"","image-keyboard-response","24","22553","0.0-24.0","326O153BMJK441XZIYRSPOBYRKFEDF","A2M2U7XUBA4CAN","3UUIU9GZC5R93N292LT21FRJ9VS5TN","","18.69999998807907","img/flower3.png","75","19.5","2","0","1","2","1,0,0,1,1,0,1,0,1","1,0,0,1,1,0,1,0,1","1",""
"","html-keyboard-response","25","22865","0.0-25.0","326O153BMJK441XZIYRSPOBYRKFEDF","A2M2U7XUBA4CAN","3UUIU9GZC5R93N292LT21FRJ9VS5TN","","null","<img src=""img/flower3.png"" style=""width:200px;border:14px solid red;"">","null","","","","","","","","",""
"","image-keyboard-response","26","22913","0.0-26.0","326O153BMJK441XZIYRSPOBYRKFEDF","A2M2U7XUBA4CAN","3UUIU9GZC5R93N292LT21FRJ9VS5TN","","46.60000002384186","img/flower3.png","75","47.10000002384186","2","0","1","2","1,0,0,1,1,0,1,0,1","1,0,0,1,1,0,1,0,1","1",""
"","html-keyboard-response","27","23229","0.0-27.0","326O153BMJK441XZIYRSPOBYRKFEDF","A2M2U7XUBA4CAN","3UUIU9GZC5R93N292LT21FRJ9VS5TN","","null","<img src=""img/flower3.png"" style=""width:200px;border:14px solid red;"">","null","","","","","","","","",""
"","image-keyboard-response","28","23273","0.0-28.0","326O153BMJK441XZIYRSPOBYRKFEDF","A2M2U7XUBA4CAN","3UUIU9GZC5R93N292LT21FRJ9VS5TN","","43.30000001192093","img/flower3.png","74","43.90000003576279","1","1","1","2","1,0,0,1,1,0,1,0,1","1,0,0,1,1,0,1,0,1","1",""
"","html-keyboard-response","29","23587","0.0-29.0","326O153BMJK441XZIYRSPOBYRKFEDF","A2M2U7XUBA4CAN","3UUIU9GZC5R93N292LT21FRJ9VS5TN","","null","<img src=""img/flower3.png"" style=""width:200px; border:14px solid green;"">","null","","","","","","","","",""
"","image-keyboard-response","30","23608","0.0-30.0","326O153BMJK441XZIYRSPOBYRKFEDF","A2M2U7XUBA4CAN","3UUIU9GZC5R93N292LT21FRJ9VS5TN","","21.099999964237213","img/flower2.png","74","21.600000023841858","1","1","2","2","1,0,0,1,1,0,1,0,1","1,0,0,1,1,0,1,0,1","1",""
"","html-keyboard-response","31","23916","0.0-31.0","326O153BMJK441XZIYRSPOBYRKFEDF","A2M2U7XUBA4CAN","3UUIU9GZC5R93N292LT21FRJ9VS5TN","","null","<img src=""img/flower2.png"" style=""width:200px; border:14px solid green;"">","null","","","","","","","","",""
"","image-keyboard-response","32","23969","0.0-32.0","326O153BMJK441XZIYRSPOBYRKFEDF","A2M2U7XUBA4CAN","3UUIU9GZC5R93N292LT21FRJ9VS5TN","","51.69999998807907","img/flower3.png","74","52.30000001192093","1","1","1","2","1,0,0,1,1,0,1,0,1","1,0,0,1,1,0,1,0,1","1",""
"","html-keyboard-response","33","24276","0.0-33.0","326O153BMJK441XZIYRSPOBYRKFEDF","A2M2U7XUBA4CAN","3UUIU9GZC5R93N292LT21FRJ9VS5TN","","null","<img src=""img/flower3.png"" style=""width:200px; border:14px solid green;"">","null","","","","","","","","",""
"","image-keyboard-response","34","24321","0.0-34.0","326O153BMJK441XZIYRSPOBYRKFEDF","A2M2U7XUBA4CAN","3UUIU9GZC5R93N292LT21FRJ9VS5TN","","44.89999997615814","img/flower3.png","74","45.5","1","1","1","2","1,0,0,1,1,0,1,0,1","1,0,0,1,1,0,1,0,1","1",""
"","html-keyboard-response","35","24635","0.0-35.0","326O153BMJK441XZIYRSPOBYRKFEDF","A2M2U7XUBA4CAN","3UUIU9GZC5R93N292LT21FRJ9VS5TN","","null","<img src=""img/flower3.png"" style=""width:200px; border:14px solid green;"">","null","","","","","","","","",""
"","image-keyboard-response","36","24705","0.0-36.0","326O153BMJK441XZIYRSPOBYRKFEDF","A2M2U7XUBA4CAN","3UUIU9GZC5R93N292LT21FRJ9VS5TN","","69.39999997615814","img/flower2.png","74","70.10000002384186","1","1","2","2","1,0,0,1,1,0,1,0,1","1,0,0,1,1,0,1,0,1","1",""
"","html-keyboard-response","37","25009","0.0-37.0","326O153BMJK441XZIYRSPOBYRKFEDF","A2M2U7XUBA4CAN","3UUIU9GZC5R93N292LT21FRJ9VS5TN","","null","<img src=""img/flower2.png"" style=""width:200px; border:14px solid green;"">","null","","","","","","","","",""
"","image-keyboard-response","38","25073","0.0-38.0","326O153BMJK441XZIYRSPOBYRKFEDF","A2M2U7XUBA4CAN","3UUIU9GZC5R93N292LT21FRJ9VS5TN","","63.30000001192093","img/flower3.png","74","64","1","1","1","2","1,0,0,1,1,0,1,0,1","1,0,0,1,1,0,1,0,1","1",""
"","html-keyboard-response","39","25386","0.0-39.0","326O153BMJK441XZIYRSPOBYRKFEDF","A2M2U7XUBA4CAN","3UUIU9GZC5R93N292LT21FRJ9VS5TN","","null","<img src=""img/flower3.png"" style=""width:200px; border:14px solid green;"">","null","","","","","","","","",""
"","image-keyboard-response","40","25392","0.0-40.0","326O153BMJK441XZIYRSPOBYRKFEDF","A2M2U7XUBA4CAN","3UUIU9GZC5R93N292LT21FRJ9VS5TN","","5.5","img/flower2.png","76","6","3","0","2","2","1,0,0,1,1,0,1,0,1","1,0,0,1,1,0,1,0,1","1",""
"","html-keyboard-response","41","25700","0.0-41.0","326O153BMJK441XZIYRSPOBYRKFEDF","A2M2U7XUBA4CAN","3UUIU9GZC5R93N292LT21FRJ9VS5TN","","null","<img src=""img/flower2.png"" style=""width:200px;border:14px solid red;"">","null","","","","","","","","",""
"","image-keyboard-response","42","25921","0.0-42.0","326O153BMJK441XZIYRSPOBYRKFEDF","A2M2U7XUBA4CAN","3UUIU9GZC5R93N292LT21FRJ9VS5TN","","220.20000004768372","img/flower2.png","74","220.9000000357628","1","1","2","2","1,0,0,1,1,0,1,0,1","1,0,0,1,1,0,1,0,1","1",""
"","html-keyboard-response","43","26228","0.0-43.0","326O153BMJK441XZIYRSPOBYRKFEDF","A2M2U7XUBA4CAN","3UUIU9GZC5R93N292LT21FRJ9VS5TN","","null","<img src=""img/flower2.png"" style=""width:200px; border:14px solid green;"">","null","","","","","","","","",""
"","image-keyboard-response","44","26249","0.0-44.0","326O153BMJK441XZIYRSPOBYRKFEDF","A2M2U7XUBA4CAN","3UUIU9GZC5R93N292LT21FRJ9VS5TN","","20.400000035762787","img/flower2.png","76","21","3","0","2","2","1,0,0,1,1,0,1,0,1","1,0,0,1,1,0,1,0,1","1",""
"","html-keyboard-response","45","26559","0.0-45.0","326O153BMJK441XZIYRSPOBYRKFEDF","A2M2U7XUBA4CAN","3UUIU9GZC5R93N292LT21FRJ9VS5TN","","null","<img src=""img/flower2.png"" style=""width:200px;border:14px solid red;"">","null","","","","","","","","",""
"","image-keyboard-response","46","26745","0.0-46.0","326O153BMJK441XZIYRSPOBYRKFEDF","A2M2U7XUBA4CAN","3UUIU9GZC5R93N292LT21FRJ9VS5TN","","185.39999997615814","img/flower3.png","74","185.79999995231628","1","1","1","2","1,0,0,1,1,0,1,0,1","1,0,0,1,1,0,1,0,1","1",""
"","html-keyboard-response","47","27047","0.0-47.0","326O153BMJK441XZIYRSPOBYRKFEDF","A2M2U7XUBA4CAN","3UUIU9GZC5R93N292LT21FRJ9VS5TN","","null","<img src=""img/flower3.png"" style=""width:200px; border:14px solid green;"">","null","","","","","","","","",""
"","image-keyboard-response","48","27161","0.0-48.0","326O153BMJK441XZIYRSPOBYRKFEDF","A2M2U7XUBA4CAN","3UUIU9GZC5R93N292LT21FRJ9VS5TN","","112.69999998807907","img/flower3.png","74","113.30000001192093","1","1","1","2","1,0,0,1,1,0,1,0,1","1,0,0,1,1,0,1,0,1","1",""
"","html-keyboard-response","49","27471","0.0-49.0","326O153BMJK441XZIYRSPOBYRKFEDF","A2M2U7XUBA4CAN","3UUIU9GZC5R93N292LT21FRJ9VS5TN","","null","<img src=""img/flower3.png"" style=""width:200px; border:14px solid green;"">","null","","","","","","","","",""
"","image-keyboard-response","50","27689","0.0-50.0","326O153BMJK441XZIYRSPOBYRKFEDF","A2M2U7XUBA4CAN","3UUIU9GZC5R93N292LT21FRJ9VS5TN","","218.10000002384186","img/flower3.png","75","218.5","2","0","1","2","1,0,0,1,1,0,1,0,1","1,0,0,1,1,0,1,0,1","1",""
"","html-keyboard-response","51","27990","0.0-51.0","326O153BMJK441XZIYRSPOBYRKFEDF","A2M2U7XUBA4CAN","3UUIU9GZC5R93N292LT21FRJ9VS5TN","","null","<img src=""img/flower3.png"" style=""width:200px;border:14px solid red;"">","null","","","","","","","","",""
"","image-keyboard-response","52","28121","0.0-52.0","326O153BMJK441XZIYRSPOBYRKFEDF","A2M2U7XUBA4CAN","3UUIU9GZC5R93N292LT21FRJ9VS5TN","","129.89999997615814","img/flower5.png","74","130.69999998807907","1","1","3","2","1,0,0,1,1,0,1,0,1","1,0,0,1,1,0,1,0,1","1",""
"","html-keyboard-response","53","28422","0.0-53.0","326O153BMJK441XZIYRSPOBYRKFEDF","A2M2U7XUBA4CAN","3UUIU9GZC5R93N292LT21FRJ9VS5TN","","null","<img src=""img/flower5.png"" style=""width:200px; border:14px solid green;"">","null","","","","","","","","",""
"","image-keyboard-response","54","28625","0.0-54.0","326O153BMJK441XZIYRSPOBYRKFEDF","A2M2U7XUBA4CAN","3UUIU9GZC5R93N292LT21FRJ9VS5TN","","202.5999999642372","img/flower2.png","76","203.10000002384186","3","0","2","2","1,0,0,1,1,0,1,0,1","1,0,0,1,1,0,1,0,1","1",""
"","html-keyboard-response","55","28927","0.0-55.0","326O153BMJK441XZIYRSPOBYRKFEDF","A2M2U7XUBA4CAN","3UUIU9GZC5R93N292LT21FRJ9VS5TN","","null","<img src=""img/flower2.png"" style=""width:200px;border:14px solid red;"">","null","","","","","","","","",""
"","image-keyboard-response","56","29065","0.0-56.0","326O153BMJK441XZIYRSPOBYRKFEDF","A2M2U7XUBA4CAN","3UUIU9GZC5R93N292LT21FRJ9VS5TN","","137.20000004768372","img/flower3.png","74","137.69999998807907","1","1","1","2","1,0,0,1,1,0,1,0,1","1,0,0,1,1,0,1,0,1","1",""
"","html-keyboard-response","57","29367","0.0-57.0","326O153BMJK441XZIYRSPOBYRKFEDF","A2M2U7XUBA4CAN","3UUIU9GZC5R93N292LT21FRJ9VS5TN","","null","<img src=""img/flower3.png"" style=""width:200px; border:14px solid green;"">","null","","","","","","","","",""
"","image-keyboard-response","58","29448","0.0-58.0","326O153BMJK441XZIYRSPOBYRKFEDF","A2M2U7XUBA4CAN","3UUIU9GZC5R93N292LT21FRJ9VS5TN","","81.30000001192093","img/flower2.png","75","81.59999996423721","2","1","2","2","1,0,0,1,1,0,1,0,1","1,0,0,1,1,0,1,0,1","1",""
"","html-keyboard-response","59","29750","0.0-59.0","326O153BMJK441XZIYRSPOBYRKFEDF","A2M2U7XUBA4CAN","3UUIU9GZC5R93N292LT21FRJ9VS5TN","","null","<img src=""img/flower2.png"" style=""width:200px; border:14px solid green;"">","null","","","","","","","","",""
"","image-keyboard-response","60","29801","0.0-60.0","326O153BMJK441XZIYRSPOBYRKFEDF","A2M2U7XUBA4CAN","3UUIU9GZC5R93N292LT21FRJ9VS5TN","","50","img/flower2.png","75","50.69999998807907","2","1","2","2","1,0,0,1,1,0,1,0,1","1,0,0,1,1,0,1,0,1","1",""
"","html-keyboard-response","61","30115","0.0-61.0","326O153BMJK441XZIYRSPOBYRKFEDF","A2M2U7XUBA4CAN","3UUIU9GZC5R93N292LT21FRJ9VS5TN","","null","<img src=""img/flower2.png"" style=""width:200px; border:14px solid green;"">","null","","","","","","","","",""
"","image-keyboard-response","62","30121","0.0-62.0","326O153BMJK441XZIYRSPOBYRKFEDF","A2M2U7XUBA4CAN","3UUIU9GZC5R93N292LT21FRJ9VS5TN","","5.300000011920929","img/flower3.png","75","5.700000047683716","2","0","1","2","1,0,0,1,1,0,1,0,1","1,0,0,1,1,0,1,0,1","1",""
"","html-keyboard-response","63","30422","0.0-63.0","326O153BMJK441XZIYRSPOBYRKFEDF","A2M2U7XUBA4CAN","3UUIU9GZC5R93N292LT21FRJ9VS5TN","","null","<img src=""img/flower3.png"" style=""width:200px;border:14px solid red;"">","null","","","","","","","","",""
"","image-keyboard-response","64","30440","0.0-64.0","326O153BMJK441XZIYRSPOBYRKFEDF","A2M2U7XUBA4CAN","3UUIU9GZC5R93N292LT21FRJ9VS5TN","","18.30000001192093","img/flower5.png","75","18.599999964237213","2","0","3","2","1,0,0,1,1,0,1,0,1","1,0,0,1,1,0,1,0,1","1",""
"","html-keyboard-response","65","30742","0.0-65.0","326O153BMJK441XZIYRSPOBYRKFEDF","A2M2U7XUBA4CAN","3UUIU9GZC5R93N292LT21FRJ9VS5TN","","null","<img src=""img/flower5.png"" style=""width:200px;border:14px solid red;"">","null","","","","","","","","",""
"","image-keyboard-response","66","30913","0.0-66.0","326O153BMJK441XZIYRSPOBYRKFEDF","A2M2U7XUBA4CAN","3UUIU9GZC5R93N292LT21FRJ9VS5TN","","170.39999997615814","img/flower5.png","76","171","3","1","3","2","1,0,0,1,1,0,1,0,1","1,0,0,1,1,0,1,0,1","1",""
"","html-keyboard-response","67","31214","0.0-67.0","326O153BMJK441XZIYRSPOBYRKFEDF","A2M2U7XUBA4CAN","3UUIU9GZC5R93N292LT21FRJ9VS5TN","","null","<img src=""img/flower5.png"" style=""width:200px; border:14px solid green;"">","null","","","","","","","","",""
"","image-keyboard-response","68","31265","0.0-68.0","326O153BMJK441XZIYRSPOBYRKFEDF","A2M2U7XUBA4CAN","3UUIU9GZC5R93N292LT21FRJ9VS5TN","","50.200000047683716","img/flower5.png","74","51","1","1","3","2","1,0,0,1,1,0,1,0,1","1,0,0,1,1,0,1,0,1","1",""
"","html-keyboard-response","69","31566","0.0-69.0","326O153BMJK441XZIYRSPOBYRKFEDF","A2M2U7XUBA4CAN","3UUIU9GZC5R93N292LT21FRJ9VS5TN","","null","<img src=""img/flower5.png"" style=""width:200px; border:14px solid green;"">","null","","","","","","","","",""
"","image-keyboard-response","70","31761","0.0-70.0","326O153BMJK441XZIYRSPOBYRKFEDF","A2M2U7XUBA4CAN","3UUIU9GZC5R93N292LT21FRJ9VS5TN","","194.19999998807907","img/flower3.png","74","194.60000002384186","1","1","1","2","1,0,0,1,1,0,1,0,1","1,0,0,1,1,0,1,0,1","1",""
"","html-keyboard-response","71","32063","0.0-71.0","326O153BMJK441XZIYRSPOBYRKFEDF","A2M2U7XUBA4CAN","3UUIU9GZC5R93N292LT21FRJ9VS5TN","","null","<img src=""img/flower3.png"" style=""width:200px; border:14px solid green;"">","null","","","","","","","","",""
"","image-keyboard-response","72","32217","0.0-72.0","326O153BMJK441XZIYRSPOBYRKFEDF","A2M2U7XUBA4CAN","3UUIU9GZC5R93N292LT21FRJ9VS5TN","","153.19999998807907","img/flower2.png","74","153.60000002384186","1","1","2","2","1,0,0,1,1,0,1,0,1","1,0,0,1,1,0,1,0,1","1",""
"","html-keyboard-response","73","32519","0.0-73.0","326O153BMJK441XZIYRSPOBYRKFEDF","A2M2U7XUBA4CAN","3UUIU9GZC5R93N292LT21FRJ9VS5TN","","null","<img src=""img/flower2.png"" style=""width:200px; border:14px solid green;"">","null","","","","","","","","",""
"","image-keyboard-response","74","32753","0.0-74.0","326O153BMJK441XZIYRSPOBYRKFEDF","A2M2U7XUBA4CAN","3UUIU9GZC5R93N292LT21FRJ9VS5TN","","233.19999998807907","img/flower5.png","74","233.69999998807907","1","1","3","2","1,0,0,1,1,0,1,0,1","1,0,0,1,1,0,1,0,1","1",""
"","html-keyboard-response","75","33054","0.0-75.0","326O153BMJK441XZIYRSPOBYRKFEDF","A2M2U7XUBA4CAN","3UUIU9GZC5R93N292LT21FRJ9VS5TN","","null","<img src=""img/flower5.png"" style=""width:200px; border:14px solid green;"">","null","","","","","","","","",""
"","image-keyboard-response","76","33233","0.0-76.0","326O153BMJK441XZIYRSPOBYRKFEDF","A2M2U7XUBA4CAN","3UUIU9GZC5R93N292LT21FRJ9VS5TN","","178.30000001192093","img/flower2.png","74","179","1","1","2","2","1,0,0,1,1,0,1,0,1","1,0,0,1,1,0,1,0,1","1",""
"","html-keyboard-response","77","33535","0.0-77.0","326O153BMJK441XZIYRSPOBYRKFEDF","A2M2U7XUBA4CAN","3UUIU9GZC5R93N292LT21FRJ9VS5TN","","null","<img src=""img/flower2.png"" style=""width:200px; border:14px solid green;"">","null","","","","","","","","",""
"","image-keyboard-response","78","33689","0.0-78.0","326O153BMJK441XZIYRSPOBYRKFEDF","A2M2U7XUBA4CAN","3UUIU9GZC5R93N292LT21FRJ9VS5TN","","153.5999999642372","img/flower5.png","75","154.10000002384186","2","0","3","2","1,0,0,1,1,0,1,0,1","1,0,0,1,1,0,1,0,1","1",""
"","html-keyboard-response","79","33990","0.0-79.0","326O153BMJK441XZIYRSPOBYRKFEDF","A2M2U7XUBA4CAN","3UUIU9GZC5R93N292LT21FRJ9VS5TN","","null","<img src=""img/flower5.png"" style=""width:200px;border:14px solid red;"">","null","","","","","","","","",""
"","image-keyboard-response","80","34057","0.0-80.0","326O153BMJK441XZIYRSPOBYRKFEDF","A2M2U7XUBA4CAN","3UUIU9GZC5R93N292LT21FRJ9VS5TN","","65.69999998807907","img/flower5.png","74","66.5","1","1","3","2","1,0,0,1,1,0,1,0,1","1,0,0,1,1,0,1,0,1","1",""
"","html-keyboard-response","81","34358","0.0-81.0","326O153BMJK441XZIYRSPOBYRKFEDF","A2M2U7XUBA4CAN","3UUIU9GZC5R93N292LT21FRJ9VS5TN","","null","<img src=""img/flower5.png"" style=""width:200px; border:14px solid green;"">","null","","","","","","","","",""
"","image-keyboard-response","82","34488","0.0-82.0","326O153BMJK441XZIYRSPOBYRKFEDF","A2M2U7XUBA4CAN","3UUIU9GZC5R93N292LT21FRJ9VS5TN","","129.4000000357628","img/flower2.png","74","130","1","1","2","2","1,0,0,1,1,0,1,0,1","1,0,0,1,1,0,1,0,1","1",""
"","html-keyboard-response","83","34789","0.0-83.0","326O153BMJK441XZIYRSPOBYRKFEDF","A2M2U7XUBA4CAN","3UUIU9GZC5R93N292LT21FRJ9VS5TN","","null","<img src=""img/flower2.png"" style=""width:200px; border:14px solid green;"">","null","","","","","","","","",""
"","image-keyboard-response","84","34873","0.0-84.0","326O153BMJK441XZIYRSPOBYRKFEDF","A2M2U7XUBA4CAN","3UUIU9GZC5R93N292LT21FRJ9VS5TN","","82.40000003576279","img/flower2.png","74","83.30000001192093","1","1","2","2","1,0,0,1,1,0,1,0,1","1,0,0,1,1,0,1,0,1","1",""
"","html-keyboard-response","85","35174","0.0-85.0","326O153BMJK441XZIYRSPOBYRKFEDF","A2M2U7XUBA4CAN","3UUIU9GZC5R93N292LT21FRJ9VS5TN","","null","<img src=""img/flower2.png"" style=""width:200px; border:14px solid green;"">","null","","","","","","","","",""
"","image-keyboard-response","86","35249","0.0-86.0","326O153BMJK441XZIYRSPOBYRKFEDF","A2M2U7XUBA4CAN","3UUIU9GZC5R93N292LT21FRJ9VS5TN","","74.5","img/flower3.png","74","75.19999998807907","1","1","1","2","1,0,0,1,1,0,1,0,1","1,0,0,1,1,0,1,0,1","1",""
"","html-keyboard-response","87","35551","0.0-87.0","326O153BMJK441XZIYRSPOBYRKFEDF","A2M2U7XUBA4CAN","3UUIU9GZC5R93N292LT21FRJ9VS5TN","","null","<img src=""img/flower3.png"" style=""width:200px; border:14px solid green;"">","null","","","","","","","","",""
"","image-keyboard-response","88","35569","0.0-88.0","326O153BMJK441XZIYRSPOBYRKFEDF","A2M2U7XUBA4CAN","3UUIU9GZC5R93N292LT21FRJ9VS5TN","","16.69999998807907","img/flower5.png","76","17.200000047683716","3","1","3","2","1,0,0,1,1,0,1,0,1","1,0,0,1,1,0,1,0,1","1",""
"","html-keyboard-response","89","35871","0.0-89.0","326O153BMJK441XZIYRSPOBYRKFEDF","A2M2U7XUBA4CAN","3UUIU9GZC5R93N292LT21FRJ9VS5TN","","null","<img src=""img/flower5.png"" style=""width:200px; border:14px solid green;"">","null","","","","","","","","",""
"","image-keyboard-response","90","35945","0.0-90.0","326O153BMJK441XZIYRSPOBYRKFEDF","A2M2U7XUBA4CAN","3UUIU9GZC5R93N292LT21FRJ9VS5TN","","73.5","img/flower5.png","75","73.90000003576279","2","0","3","2","1,0,0,1,1,0,1,0,1","1,0,0,1,1,0,1,0,1","1",""
"","html-keyboard-response","91","36246","0.0-91.0","326O153BMJK441XZIYRSPOBYRKFEDF","A2M2U7XUBA4CAN","3UUIU9GZC5R93N292LT21FRJ9VS5TN","","null","<img src=""img/flower5.png"" style=""width:200px;border:14px solid red;"">","null","","","","","","","","",""
"","image-keyboard-response","92","36329","0.0-92.0","326O153BMJK441XZIYRSPOBYRKFEDF","A2M2U7XUBA4CAN","3UUIU9GZC5R93N292LT21FRJ9VS5TN","","81.90000003576279","img/flower3.png","74","82.5","1","1","1","2","1,0,0,1,1,0,1,0,1","1,0,0,1,1,0,1,0,1","1",""
"","html-keyboard-response","93","36631","0.0-93.0","326O153BMJK441XZIYRSPOBYRKFEDF","A2M2U7XUBA4CAN","3UUIU9GZC5R93N292LT21FRJ9VS5TN","","null","<img src=""img/flower3.png"" style=""width:200px; border:14px solid green;"">","null","","","","","","","","",""
"","image-keyboard-response","94","36697","0.0-94.0","326O153BMJK441XZIYRSPOBYRKFEDF","A2M2U7XUBA4CAN","3UUIU9GZC5R93N292LT21FRJ9VS5TN","","65.30000001192093","img/flower2.png","74","65.80000001192093","1","1","2","2","1,0,0,1,1,0,1,0,1","1,0,0,1,1,0,1,0,1","1",""
"","html-keyboard-response","95","36998","0.0-95.0","326O153BMJK441XZIYRSPOBYRKFEDF","A2M2U7XUBA4CAN","3UUIU9GZC5R93N292LT21FRJ9VS5TN","","null","<img src=""img/flower2.png"" style=""width:200px; border:14px solid green;"">","null","","","","","","","","",""
"","image-keyboard-response","96","37129","0.0-96.0","326O153BMJK441XZIYRSPOBYRKFEDF","A2M2U7XUBA4CAN","3UUIU9GZC5R93N292LT21FRJ9VS5TN","","129.89999997615814","img/flower2.png","75","130.5","2","1","2","2","1,0,0,1,1,0,1,0,1","1,0,0,1,1,0,1,0,1","1",""
"","html-keyboard-response","97","37430","0.0-97.0","326O153BMJK441XZIYRSPOBYRKFEDF","A2M2U7XUBA4CAN","3UUIU9GZC5R93N292LT21FRJ9VS5TN","","null","<img src=""img/flower2.png"" style=""width:200px; border:14px solid green;"">","null","","","","","","","","",""
"","image-keyboard-response","98","37465","0.0-98.0","326O153BMJK441XZIYRSPOBYRKFEDF","A2M2U7XUBA4CAN","3UUIU9GZC5R93N292LT21FRJ9VS5TN","","34.10000002384186","img/flower2.png","74","34.59999996423721","1","1","2","2","1,0,0,1,1,0,1,0,1","1,0,0,1,1,0,1,0,1","1",""
"","html-keyboard-response","99","37767","0.0-99.0","326O153BMJK441XZIYRSPOBYRKFEDF","A2M2U7XUBA4CAN","3UUIU9GZC5R93N292LT21FRJ9VS5TN","","null","<img src=""img/flower2.png"" style=""width:200px; border:14px solid green;"">","null","","","","","","","","",""
"","image-keyboard-response","100","37945","0.0-100.0","326O153BMJK441XZIYRSPOBYRKFEDF","A2M2U7XUBA4CAN","3UUIU9GZC5R93N292LT21FRJ9VS5TN","","177.10000002384186","img/flower5.png","74","177.80000001192093","1","1","3","2","1,0,0,1,1,0,1,0,1","1,0,0,1,1,0,1,0,1","1",""
"","html-keyboard-response","101","38246","0.0-101.0","326O153BMJK441XZIYRSPOBYRKFEDF","A2M2U7XUBA4CAN","3UUIU9GZC5R93N292LT21FRJ9VS5TN","","null","<img src=""img/flower5.png"" style=""width:200px; border:14px solid green;"">","null","","","","","","","","",""
"","image-keyboard-response","102","38313","0.0-102.0","326O153BMJK441XZIYRSPOBYRKFEDF","A2M2U7XUBA4CAN","3UUIU9GZC5R93N292LT21FRJ9VS5TN","","65.80000001192093","img/flower3.png","74","66.5","1","1","1","2","1,0,0,1,1,0,1,0,1","1,0,0,1,1,0,1,0,1","1",""
"","html-keyboard-response","103","38614","0.0-103.0","326O153BMJK441XZIYRSPOBYRKFEDF","A2M2U7XUBA4CAN","3UUIU9GZC5R93N292LT21FRJ9VS5TN","","null","<img src=""img/flower3.png"" style=""width:200px; border:14px solid green;"">","null","","","","","","","","",""
"","image-keyboard-response","104","38689","0.0-104.0","326O153BMJK441XZIYRSPOBYRKFEDF","A2M2U7XUBA4CAN","3UUIU9GZC5R93N292LT21FRJ9VS5TN","","73.80000001192093","img/flower2.png","74","74.39999997615814","1","1","2","2","1,0,0,1,1,0,1,0,1","1,0,0,1,1,0,1,0,1","1",""
"","html-keyboard-response","105","38990","0.0-105.0","326O153BMJK441XZIYRSPOBYRKFEDF","A2M2U7XUBA4CAN","3UUIU9GZC5R93N292LT21FRJ9VS5TN","","null","<img src=""img/flower2.png"" style=""width:200px; border:14px solid green;"">","null","","","","","","","","",""
"","image-keyboard-response","106","39193","0.0-106.0","326O153BMJK441XZIYRSPOBYRKFEDF","A2M2U7XUBA4CAN","3UUIU9GZC5R93N292LT21FRJ9VS5TN","","201.80000001192093","img/flower3.png","76","202.5","3","0","1","2","1,0,0,1,1,0,1,0,1","1,0,0,1,1,0,1,0,1","1",""
"","html-keyboard-response","107","39494","0.0-107.0","326O153BMJK441XZIYRSPOBYRKFEDF","A2M2U7XUBA4CAN","3UUIU9GZC5R93N292LT21FRJ9VS5TN","","null","<img src=""img/flower3.png"" style=""width:200px;border:14px solid red;"">","null","","","","","","","","",""
"","image-keyboard-response","108","39521","0.0-108.0","326O153BMJK441XZIYRSPOBYRKFEDF","A2M2U7XUBA4CAN","3UUIU9GZC5R93N292LT21FRJ9VS5TN","","26.30000001192093","img/flower3.png","75","26.900000035762787","2","0","1","2","1,0,0,1,1,0,1,0,1","1,0,0,1,1,0,1,0,1","1",""
"","html-keyboard-response","109","39822","0.0-109.0","326O153BMJK441XZIYRSPOBYRKFEDF","A2M2U7XUBA4CAN","3UUIU9GZC5R93N292LT21FRJ9VS5TN","","null","<img src=""img/flower3.png"" style=""width:200px;border:14px solid red;"">","null","","","","","","","","",""
"","image-keyboard-response","110","40121","0.0-110.0","326O153BMJK441XZIYRSPOBYRKFEDF","A2M2U7XUBA4CAN","3UUIU9GZC5R93N292LT21FRJ9VS5TN","","298.7000000476837","img/flower5.png","74","299.19999998807907","1","1","3","2","1,0,0,1,1,0,1,0,1","1,0,0,1,1,0,1,0,1","1",""
"","html-keyboard-response","111","40422","0.0-111.0","326O153BMJK441XZIYRSPOBYRKFEDF","A2M2U7XUBA4CAN","3UUIU9GZC5R93N292LT21FRJ9VS5TN","","null","<img src=""img/flower5.png"" style=""width:200px; border:14px solid green;"">","null","","","","","","","","",""
"","image-keyboard-response","112","40577","0.0-112.0","326O153BMJK441XZIYRSPOBYRKFEDF","A2M2U7XUBA4CAN","3UUIU9GZC5R93N292LT21FRJ9VS5TN","","153.60000002384186","img/flower5.png","74","154.10000002384186","1","1","3","2","1,0,0,1,1,0,1,0,1","1,0,0,1,1,0,1,0,1","1",""
"","html-keyboard-response","113","40879","0.0-113.0","326O153BMJK441XZIYRSPOBYRKFEDF","A2M2U7XUBA4CAN","3UUIU9GZC5R93N292LT21FRJ9VS5TN","","null","<img src=""img/flower5.png"" style=""width:200px; border:14px solid green;"">","null","","","","","","","","",""
"","image-keyboard-response","114","40953","0.0-114.0","326O153BMJK441XZIYRSPOBYRKFEDF","A2M2U7XUBA4CAN","3UUIU9GZC5R93N292LT21FRJ9VS5TN","","73.10000002384186","img/flower2.png","76","73.69999998807907","3","0","2","2","1,0,0,1,1,0,1,0,1","1,0,0,1,1,0,1,0,1","1",""
"","html-keyboard-response","115","41255","0.0-115.0","326O153BMJK441XZIYRSPOBYRKFEDF","A2M2U7XUBA4CAN","3UUIU9GZC5R93N292LT21FRJ9VS5TN","","null","<img src=""img/flower2.png"" style=""width:200px;border:14px solid red;"">","null","","","","","","","","",""
"","image-keyboard-response","116","41480","0.0-116.0","326O153BMJK441XZIYRSPOBYRKFEDF","A2M2U7XUBA4CAN","3UUIU9GZC5R93N292LT21FRJ9VS5TN","","225.30000001192093","img/flower3.png","74","225.69999998807907","1","1","1","2","1,0,0,1,1,0,1,0,1","1,0,0,1,1,0,1,0,1","1",""
"","html-keyboard-response","117","41782","0.0-117.0","326O153BMJK441XZIYRSPOBYRKFEDF","A2M2U7XUBA4CAN","3UUIU9GZC5R93N292LT21FRJ9VS5TN","","null","<img src=""img/flower3.png"" style=""width:200px; border:14px solid green;"">","null","","","","","","","","",""
"","image-keyboard-response","118","41817","0.0-118.0","326O153BMJK441XZIYRSPOBYRKFEDF","A2M2U7XUBA4CAN","3UUIU9GZC5R93N292LT21FRJ9VS5TN","","33.69999998807907","img/flower3.png","76","34.30000001192093","3","0","1","2","1,0,0,1,1,0,1,0,1","1,0,0,1,1,0,1,0,1","1",""
"","html-keyboard-response","119","42117","0.0-119.0","326O153BMJK441XZIYRSPOBYRKFEDF","A2M2U7XUBA4CAN","3UUIU9GZC5R93N292LT21FRJ9VS5TN","","null","<img src=""img/flower3.png"" style=""width:200px;border:14px solid red;"">","null","","","","","","","","",""
"","image-keyboard-response","120","42328","0.0-120.0","326O153BMJK441XZIYRSPOBYRKFEDF","A2M2U7XUBA4CAN","3UUIU9GZC5R93N292LT21FRJ9VS5TN","","210.4000000357628","img/flower5.png","75","210.89999997615814","2","0","3","2","1,0,0,1,1,0,1,0,1","1,0,0,1,1,0,1,0,1","1",""
"","html-keyboard-response","121","42631","0.0-121.0","326O153BMJK441XZIYRSPOBYRKFEDF","A2M2U7XUBA4CAN","3UUIU9GZC5R93N292LT21FRJ9VS5TN","","null","<img src=""img/flower5.png"" style=""width:200px;border:14px solid red;"">","null","","","","","","","","",""
"","image-keyboard-response","122","42817","0.0-122.0","326O153BMJK441XZIYRSPOBYRKFEDF","A2M2U7XUBA4CAN","3UUIU9GZC5R93N292LT21FRJ9VS5TN","","185.30000001192093","img/flower5.png","75","185.80000001192093","2","0","3","2","1,0,0,1,1,0,1,0,1","1,0,0,1,1,0,1,0,1","1",""
"","html-keyboard-response","123","43118","0.0-123.0","326O153BMJK441XZIYRSPOBYRKFEDF","A2M2U7XUBA4CAN","3UUIU9GZC5R93N292LT21FRJ9VS5TN","","null","<img src=""img/flower5.png"" style=""width:200px;border:14px solid red;"">","null","","","","","","","","",""
"","image-keyboard-response","124","43273","0.0-124.0","326O153BMJK441XZIYRSPOBYRKFEDF","A2M2U7XUBA4CAN","3UUIU9GZC5R93N292LT21FRJ9VS5TN","","153.80000001192093","img/flower5.png","74","154.29999995231628","1","1","3","2","1,0,0,1,1,0,1,0,1","1,0,0,1,1,0,1,0,1","1",""
"","html-keyboard-response","125","43574","0.0-125.0","326O153BMJK441XZIYRSPOBYRKFEDF","A2M2U7XUBA4CAN","3UUIU9GZC5R93N292LT21FRJ9VS5TN","","null","<img src=""img/flower5.png"" style=""width:200px; border:14px solid green;"">","null","","","","","","","","",""
"","image-keyboard-response","126","43633","0.0-126.0","326O153BMJK441XZIYRSPOBYRKFEDF","A2M2U7XUBA4CAN","3UUIU9GZC5R93N292LT21FRJ9VS5TN","","58.09999996423721","img/flower3.png","74","58.60000002384186","1","1","1","2","1,0,0,1,1,0,1,0,1","1,0,0,1,1,0,1,0,1","1",""
"","html-keyboard-response","127","43934","0.0-127.0","326O153BMJK441XZIYRSPOBYRKFEDF","A2M2U7XUBA4CAN","3UUIU9GZC5R93N292LT21FRJ9VS5TN","","null","<img src=""img/flower3.png"" style=""width:200px; border:14px solid green;"">","null","","","","","","","","",""
"","image-keyboard-response","128","43985","0.0-128.0","326O153BMJK441XZIYRSPOBYRKFEDF","A2M2U7XUBA4CAN","3UUIU9GZC5R93N292LT21FRJ9VS5TN","","49.5","img/flower5.png","76","50.10000002384186","3","1","3","2","1,0,0,1,1,0,1,0,1","1,0,0,1,1,0,1,0,1","1",""
"","html-keyboard-response","129","44286","0.0-129.0","326O153BMJK441XZIYRSPOBYRKFEDF","A2M2U7XUBA4CAN","3UUIU9GZC5R93N292LT21FRJ9VS5TN","","null","<img src=""img/flower5.png"" style=""width:200px; border:14px solid green;"">","null","","","","","","","","",""
"","image-keyboard-response","130","44513","0.0-130.0","326O153BMJK441XZIYRSPOBYRKFEDF","A2M2U7XUBA4CAN","3UUIU9GZC5R93N292LT21FRJ9VS5TN","","225.89999997615814","img/flower5.png","74","226.5","1","1","3","2","1,0,0,1,1,0,1,0,1","1,0,0,1,1,0,1,0,1","1",""
"","html-keyboard-response","131","44814","0.0-131.0","326O153BMJK441XZIYRSPOBYRKFEDF","A2M2U7XUBA4CAN","3UUIU9GZC5R93N292LT21FRJ9VS5TN","","null","<img src=""img/flower5.png"" style=""width:200px; border:14px solid green;"">","null","","","","","","","","",""
"","image-keyboard-response","132","45089","0.0-132.0","326O153BMJK441XZIYRSPOBYRKFEDF","A2M2U7XUBA4CAN","3UUIU9GZC5R93N292LT21FRJ9VS5TN","","273.80000001192093","img/flower3.png","74","274.5","1","1","1","2","1,0,0,1,1,0,1,0,1","1,0,0,1,1,0,1,0,1","1",""
"","html-keyboard-response","133","45390","0.0-133.0","326O153BMJK441XZIYRSPOBYRKFEDF","A2M2U7XUBA4CAN","3UUIU9GZC5R93N292LT21FRJ9VS5TN","","null","<img src=""img/flower3.png"" style=""width:200px; border:14px solid green;"">","null","","","","","","","","",""
"","image-keyboard-response","134","45513","0.0-134.0","326O153BMJK441XZIYRSPOBYRKFEDF","A2M2U7XUBA4CAN","3UUIU9GZC5R93N292LT21FRJ9VS5TN","","122.39999997615814","img/flower3.png","76","122.90000003576279","3","0","1","2","1,0,0,1,1,0,1,0,1","1,0,0,1,1,0,1,0,1","1",""
"","html-keyboard-response","135","45814","0.0-135.0","326O153BMJK441XZIYRSPOBYRKFEDF","A2M2U7XUBA4CAN","3UUIU9GZC5R93N292LT21FRJ9VS5TN","","null","<img src=""img/flower3.png"" style=""width:200px;border:14px solid red;"">","null","","","","","","","","",""
"","image-keyboard-response","136","45945","0.0-136.0","326O153BMJK441XZIYRSPOBYRKFEDF","A2M2U7XUBA4CAN","3UUIU9GZC5R93N292LT21FRJ9VS5TN","","130.30000001192093","img/flower3.png","76","130.9000000357628","3","0","1","2","1,0,0,1,1,0,1,0,1","1,0,0,1,1,0,1,0,1","1",""
"","html-keyboard-response","137","46247","0.0-137.0","326O153BMJK441XZIYRSPOBYRKFEDF","A2M2U7XUBA4CAN","3UUIU9GZC5R93N292LT21FRJ9VS5TN","","null","<img src=""img/flower3.png"" style=""width:200px;border:14px solid red;"">","null","","","","","","","","",""
"","image-keyboard-response","138","46272","0.0-138.0","326O153BMJK441XZIYRSPOBYRKFEDF","A2M2U7XUBA4CAN","3UUIU9GZC5R93N292LT21FRJ9VS5TN","","24.599999964237213","img/flower5.png","75","25.200000047683716","2","0","3","2","1,0,0,1,1,0,1,0,1","1,0,0,1,1,0,1,0,1","1",""
"","html-keyboard-response","139","46576","0.0-139.0","326O153BMJK441XZIYRSPOBYRKFEDF","A2M2U7XUBA4CAN","3UUIU9GZC5R93N292LT21FRJ9VS5TN","","null","<img src=""img/flower5.png"" style=""width:200px;border:14px solid red;"">","null","","","","","","","","",""
"","image-keyboard-response","140","46609","0.0-140.0","326O153BMJK441XZIYRSPOBYRKFEDF","A2M2U7XUBA4CAN","3UUIU9GZC5R93N292LT21FRJ9VS5TN","","32.30000001192093","img/flower5.png","74","32.69999998807907","1","1","3","2","1,0,0,1,1,0,1,0,1","1,0,0,1,1,0,1,0,1","1",""
"","html-keyboard-response","141","46910","0.0-141.0","326O153BMJK441XZIYRSPOBYRKFEDF","A2M2U7XUBA4CAN","3UUIU9GZC5R93N292LT21FRJ9VS5TN","","null","<img src=""img/flower5.png"" style=""width:200px; border:14px solid green;"">","null","","","","","","","","",""
"","image-keyboard-response","142","47137","0.0-142.0","326O153BMJK441XZIYRSPOBYRKFEDF","A2M2U7XUBA4CAN","3UUIU9GZC5R93N292LT21FRJ9VS5TN","","225.39999997615814","img/flower5.png","74","226.0999999642372","1","1","3","2","1,0,0,1,1,0,1,0,1","1,0,0,1,1,0,1,0,1","1",""
"","html-keyboard-response","143","47438","0.0-143.0","326O153BMJK441XZIYRSPOBYRKFEDF","A2M2U7XUBA4CAN","3UUIU9GZC5R93N292LT21FRJ9VS5TN","","null","<img src=""img/flower5.png"" style=""width:200px; border:14px solid green;"">","null","","","","","","","","",""
"","image-keyboard-response","144","47601","0.0-144.0","326O153BMJK441XZIYRSPOBYRKFEDF","A2M2U7XUBA4CAN","3UUIU9GZC5R93N292LT21FRJ9VS5TN","","162","img/flower5.png","74","162.60000002384186","1","1","3","2","1,0,0,1,1,0,1,0,1","1,0,0,1,1,0,1,0,1","1",""
"","html-keyboard-response","145","47902","0.0-145.0","326O153BMJK441XZIYRSPOBYRKFEDF","A2M2U7XUBA4CAN","3UUIU9GZC5R93N292LT21FRJ9VS5TN","","null","<img src=""img/flower5.png"" style=""width:200px; border:14px solid green;"">","null","","","","","","","","",""
"","image-keyboard-response","146","48088","0.0-146.0","326O153BMJK441XZIYRSPOBYRKFEDF","A2M2U7XUBA4CAN","3UUIU9GZC5R93N292LT21FRJ9VS5TN","","185.80000001192093","img/flower2.png","74","186.5","1","1","2","2","1,0,0,1,1,0,1,0,1","1,0,0,1,1,0,1,0,1","1",""
"","html-keyboard-response","147","48389","0.0-147.0","326O153BMJK441XZIYRSPOBYRKFEDF","A2M2U7XUBA4CAN","3UUIU9GZC5R93N292LT21FRJ9VS5TN","","null","<img src=""img/flower2.png"" style=""width:200px; border:14px solid green;"">","null","","","","","","","","",""
"","image-keyboard-response","148","48553","0.0-148.0","326O153BMJK441XZIYRSPOBYRKFEDF","A2M2U7XUBA4CAN","3UUIU9GZC5R93N292LT21FRJ9VS5TN","","162.5","img/flower2.png","74","163","1","1","2","2","1,0,0,1,1,0,1,0,1","1,0,0,1,1,0,1,0,1","1",""
"","html-keyboard-response","149","48853","0.0-149.0","326O153BMJK441XZIYRSPOBYRKFEDF","A2M2U7XUBA4CAN","3UUIU9GZC5R93N292LT21FRJ9VS5TN","","null","<img src=""img/flower2.png"" style=""width:200px; border:14px solid green;"">","null","","","","","","","","",""
"","image-keyboard-response","150","48969","0.0-150.0","326O153BMJK441XZIYRSPOBYRKFEDF","A2M2U7XUBA4CAN","3UUIU9GZC5R93N292LT21FRJ9VS5TN","","114.80000001192093","img/flower5.png","74","115.39999997615814","1","1","3","2","1,0,0,1,1,0,1,0,1","1,0,0,1,1,0,1,0,1","1",""
"","html-keyboard-response","151","49270","0.0-151.0","326O153BMJK441XZIYRSPOBYRKFEDF","A2M2U7XUBA4CAN","3UUIU9GZC5R93N292LT21FRJ9VS5TN","","null","<img src=""img/flower5.png"" style=""width:200px; border:14px solid green;"">","null","","","","","","","","",""
"","image-keyboard-response","152","49449","0.0-152.0","326O153BMJK441XZIYRSPOBYRKFEDF","A2M2U7XUBA4CAN","3UUIU9GZC5R93N292LT21FRJ9VS5TN","","177.69999998807907","img/flower2.png","74","178.79999995231628","1","1","2","2","1,0,0,1,1,0,1,0,1","1,0,0,1,1,0,1,0,1","1",""
"","html-keyboard-response","153","49751","0.0-153.0","326O153BMJK441XZIYRSPOBYRKFEDF","A2M2U7XUBA4CAN","3UUIU9GZC5R93N292LT21FRJ9VS5TN","","null","<img src=""img/flower2.png"" style=""width:200px; border:14px solid green;"">","null","","","","","","","","",""
"","image-keyboard-response","154","49953","0.0-154.0","326O153BMJK441XZIYRSPOBYRKFEDF","A2M2U7XUBA4CAN","3UUIU9GZC5R93N292LT21FRJ9VS5TN","","201.30000001192093","img/flower3.png","74","201.89999997615814","1","1","1","2","1,0,0,1,1,0,1,0,1","1,0,0,1,1,0,1,0,1","1",""
"","html-keyboard-response","155","50255","0.0-155.0","326O153BMJK441XZIYRSPOBYRKFEDF","A2M2U7XUBA4CAN","3UUIU9GZC5R93N292LT21FRJ9VS5TN","","null","<img src=""img/flower3.png"" style=""width:200px; border:14px solid green;"">","null","","","","","","","","",""
"","image-keyboard-response","156","50401","0.0-156.0","326O153BMJK441XZIYRSPOBYRKFEDF","A2M2U7XUBA4CAN","3UUIU9GZC5R93N292LT21FRJ9VS5TN","","145.10000002384186","img/flower5.png","74","145.69999998807907","1","1","3","2","1,0,0,1,1,0,1,0,1","1,0,0,1,1,0,1,0,1","1",""
"","html-keyboard-response","157","50702","0.0-157.0","326O153BMJK441XZIYRSPOBYRKFEDF","A2M2U7XUBA4CAN","3UUIU9GZC5R93N292LT21FRJ9VS5TN","","null","<img src=""img/flower5.png"" style=""width:200px; border:14px solid green;"">","null","","","","","","","","",""
"","image-keyboard-response","158","50801","0.0-158.0","326O153BMJK441XZIYRSPOBYRKFEDF","A2M2U7XUBA4CAN","3UUIU9GZC5R93N292LT21FRJ9VS5TN","","97.90000003576279","img/flower2.png","74","98.60000002384186","1","1","2","2","1,0,0,1,1,0,1,0,1","1,0,0,1,1,0,1,0,1","1",""
"","html-keyboard-response","159","51102","0.0-159.0","326O153BMJK441XZIYRSPOBYRKFEDF","A2M2U7XUBA4CAN","3UUIU9GZC5R93N292LT21FRJ9VS5TN","","null","<img src=""img/flower2.png"" style=""width:200px; border:14px solid green;"">","null","","","","","","","","",""
"","image-keyboard-response","160","51217","0.0-160.0","326O153BMJK441XZIYRSPOBYRKFEDF","A2M2U7XUBA4CAN","3UUIU9GZC5R93N292LT21FRJ9VS5TN","","114.19999998807907","img/flower3.png","74","114.70000004768372","1","1","1","2","1,0,0,1,1,0,1,0,1","1,0,0,1,1,0,1,0,1","1",""
"","html-keyboard-response","161","51518","0.0-161.0","326O153BMJK441XZIYRSPOBYRKFEDF","A2M2U7XUBA4CAN","3UUIU9GZC5R93N292LT21FRJ9VS5TN","","null","<img src=""img/flower3.png"" style=""width:200px; border:14px solid green;"">","null","","","","","","","","",""
"","image-keyboard-response","162","51609","0.0-162.0","326O153BMJK441XZIYRSPOBYRKFEDF","A2M2U7XUBA4CAN","3UUIU9GZC5R93N292LT21FRJ9VS5TN","","89.80000001192093","img/flower2.png","74","90.40000003576279","1","1","2","2","1,0,0,1,1,0,1,0,1","1,0,0,1,1,0,1,0,1","1",""
"","html-keyboard-response","163","51910","0.0-163.0","326O153BMJK441XZIYRSPOBYRKFEDF","A2M2U7XUBA4CAN","3UUIU9GZC5R93N292LT21FRJ9VS5TN","","null","<img src=""img/flower2.png"" style=""width:200px; border:14px solid green;"">","null","","","","","","","","",""
"","image-keyboard-response","164","51928","0.0-164.0","326O153BMJK441XZIYRSPOBYRKFEDF","A2M2U7XUBA4CAN","3UUIU9GZC5R93N292LT21FRJ9VS5TN","","18.19999998807907","img/flower5.png","76","18.69999998807907","3","1","3","2","1,0,0,1,1,0,1,0,1","1,0,0,1,1,0,1,0,1","1",""
"","html-keyboard-response","165","52230","0.0-165.0","326O153BMJK441XZIYRSPOBYRKFEDF","A2M2U7XUBA4CAN","3UUIU9GZC5R93N292LT21FRJ9VS5TN","","null","<img src=""img/flower5.png"" style=""width:200px; border:14px solid green;"">","null","","","","","","","","",""
"","image-keyboard-response","166","52337","0.0-166.0","326O153BMJK441XZIYRSPOBYRKFEDF","A2M2U7XUBA4CAN","3UUIU9GZC5R93N292LT21FRJ9VS5TN","","105.80000001192093","img/flower2.png","74","106.5","1","1","2","2","1,0,0,1,1,0,1,0,1","1,0,0,1,1,0,1,0,1","1",""
"","html-keyboard-response","167","52638","0.0-167.0","326O153BMJK441XZIYRSPOBYRKFEDF","A2M2U7XUBA4CAN","3UUIU9GZC5R93N292LT21FRJ9VS5TN","","null","<img src=""img/flower2.png"" style=""width:200px; border:14px solid green;"">","null","","","","","","","","",""
"","image-keyboard-response","168","52737","0.0-168.0","326O153BMJK441XZIYRSPOBYRKFEDF","A2M2U7XUBA4CAN","3UUIU9GZC5R93N292LT21FRJ9VS5TN","","97.69999998807907","img/flower5.png","74","98.20000004768372","1","1","3","2","1,0,0,1,1,0,1,0,1","1,0,0,1,1,0,1,0,1","1",""
"","html-keyboard-response","169","53037","0.0-169.0","326O153BMJK441XZIYRSPOBYRKFEDF","A2M2U7XUBA4CAN","3UUIU9GZC5R93N292LT21FRJ9VS5TN","","null","<img src=""img/flower5.png"" style=""width:200px; border:14px solid green;"">","null","","","","","","","","",""
"","image-keyboard-response","170","53185","0.0-170.0","326O153BMJK441XZIYRSPOBYRKFEDF","A2M2U7XUBA4CAN","3UUIU9GZC5R93N292LT21FRJ9VS5TN","","146.60000002384186","img/flower2.png","74","147.0999999642372","1","1","2","2","1,0,0,1,1,0,1,0,1","1,0,0,1,1,0,1,0,1","1",""
"","html-keyboard-response","171","53486","0.0-171.0","326O153BMJK441XZIYRSPOBYRKFEDF","A2M2U7XUBA4CAN","3UUIU9GZC5R93N292LT21FRJ9VS5TN","","null","<img src=""img/flower2.png"" style=""width:200px; border:14px solid green;"">","null","","","","","","","","",""
"","image-keyboard-response","172","53505","0.0-172.0","326O153BMJK441XZIYRSPOBYRKFEDF","A2M2U7XUBA4CAN","3UUIU9GZC5R93N292LT21FRJ9VS5TN","","18.399999976158142","img/flower3.png","76","19","3","0","1","2","1,0,0,1,1,0,1,0,1","1,0,0,1,1,0,1,0,1","1",""
"","html-keyboard-response","173","53807","0.0-173.0","326O153BMJK441XZIYRSPOBYRKFEDF","A2M2U7XUBA4CAN","3UUIU9GZC5R93N292LT21FRJ9VS5TN","","null","<img src=""img/flower3.png"" style=""width:200px;border:14px solid red;"">","null","","","","","","","","",""
"","image-keyboard-response","174","53953","0.0-174.0","326O153BMJK441XZIYRSPOBYRKFEDF","A2M2U7XUBA4CAN","3UUIU9GZC5R93N292LT21FRJ9VS5TN","","145","img/flower2.png","76","145.69999998807907","3","0","2","2","1,0,0,1,1,0,1,0,1","1,0,0,1,1,0,1,0,1","1",""
"","html-keyboard-response","175","54254","0.0-175.0","326O153BMJK441XZIYRSPOBYRKFEDF","A2M2U7XUBA4CAN","3UUIU9GZC5R93N292LT21FRJ9VS5TN","","null","<img src=""img/flower2.png"" style=""width:200px;border:14px solid red;"">","null","","","","","","","","",""
"","image-keyboard-response","176","54385","0.0-176.0","326O153BMJK441XZIYRSPOBYRKFEDF","A2M2U7XUBA4CAN","3UUIU9GZC5R93N292LT21FRJ9VS5TN","","130","img/flower3.png","74","131.19999998807907","1","1","1","2","1,0,0,1,1,0,1,0,1","1,0,0,1,1,0,1,0,1","1",""
"","html-keyboard-response","177","54686","0.0-177.0","326O153BMJK441XZIYRSPOBYRKFEDF","A2M2U7XUBA4CAN","3UUIU9GZC5R93N292LT21FRJ9VS5TN","","null","<img src=""img/flower3.png"" style=""width:200px; border:14px solid green;"">","null","","","","","","","","",""
"","image-keyboard-response","178","54721","0.0-178.0","326O153BMJK441XZIYRSPOBYRKFEDF","A2M2U7XUBA4CAN","3UUIU9GZC5R93N292LT21FRJ9VS5TN","","34.10000002384186","img/flower2.png","74","34.60000002384186","1","1","2","2","1,0,0,1,1,0,1,0,1","1,0,0,1,1,0,1,0,1","1",""
"","html-keyboard-response","179","55022","0.0-179.0","326O153BMJK441XZIYRSPOBYRKFEDF","A2M2U7XUBA4CAN","3UUIU9GZC5R93N292LT21FRJ9VS5TN","","null","<img src=""img/flower2.png"" style=""width:200px; border:14px solid green;"">","null","","","","","","","","",""
"","image-keyboard-response","180","55129","0.0-180.0","326O153BMJK441XZIYRSPOBYRKFEDF","A2M2U7XUBA4CAN","3UUIU9GZC5R93N292LT21FRJ9VS5TN","","106.30000001192093","img/flower5.png","74","107.09999996423721","1","1","3","2","1,0,0,1,1,0,1,0,1","1,0,0,1,1,0,1,0,1","1",""
"","html-keyboard-response","181","55430","0.0-181.0","326O153BMJK441XZIYRSPOBYRKFEDF","A2M2U7XUBA4CAN","3UUIU9GZC5R93N292LT21FRJ9VS5TN","","null","<img src=""img/flower5.png"" style=""width:200px; border:14px solid green;"">","null","","","","","","","","",""
"","image-keyboard-response","182","55464","0.0-182.0","326O153BMJK441XZIYRSPOBYRKFEDF","A2M2U7XUBA4CAN","3UUIU9GZC5R93N292LT21FRJ9VS5TN","","33.60000002384186","img/flower1.png","74","34.10000002384186","1","0","3","1","1,0.333,0.333,0.333,1,0.333,0.333,0.333,1","1,0.333,0.333,0.333,1,0.333,0.333,0.333,1","1",""
"","html-keyboard-response","183","55766","0.0-183.0","326O153BMJK441XZIYRSPOBYRKFEDF","A2M2U7XUBA4CAN","3UUIU9GZC5R93N292LT21FRJ9VS5TN","","null","<img src=""img/flower1.png"" style=""width:200px;border:14px solid red;"">","null","","","","","","","","",""
"","image-keyboard-response","184","55897","0.0-184.0","326O153BMJK441XZIYRSPOBYRKFEDF","A2M2U7XUBA4CAN","3UUIU9GZC5R93N292LT21FRJ9VS5TN","","130.10000002384186","img/flower4.png","74","130.60000002384186","1","0","2","1","1,0.333,0.333,0.333,1,0.333,0.333,0.333,1","1,0.333,0.333,0.333,1,0.333,0.333,0.333,1","1",""
"","html-keyboard-response","185","56198","0.0-185.0","326O153BMJK441XZIYRSPOBYRKFEDF","A2M2U7XUBA4CAN","3UUIU9GZC5R93N292LT21FRJ9VS5TN","","null","<img src=""img/flower4.png"" style=""width:200px;border:14px solid red;"">","null","","","","","","","","",""
"","image-keyboard-response","186","56345","0.0-186.0","326O153BMJK441XZIYRSPOBYRKFEDF","A2M2U7XUBA4CAN","3UUIU9GZC5R93N292LT21FRJ9VS5TN","","145.9000000357628","img/flower6.png","74","146.5999999642372","1","1","1","1","1,0.333,0.333,0.333,1,0.333,0.333,0.333,1","1,0.333,0.333,0.333,1,0.333,0.333,0.333,1","1",""
"","html-keyboard-response","187","56647","0.0-187.0","326O153BMJK441XZIYRSPOBYRKFEDF","A2M2U7XUBA4CAN","3UUIU9GZC5R93N292LT21FRJ9VS5TN","","null","<img src=""img/flower6.png"" style=""width:200px; border:14px solid green;"">","null","","","","","","","","",""
"","image-keyboard-response","188","56761","0.0-188.0","326O153BMJK441XZIYRSPOBYRKFEDF","A2M2U7XUBA4CAN","3UUIU9GZC5R93N292LT21FRJ9VS5TN","","112.89999997615814","img/flower4.png","76","113.60000002384186","3","1","2","1","1,0.333,0.333,0.333,1,0.333,0.333,0.333,1","1,0.333,0.333,0.333,1,0.333,0.333,0.333,1","1",""
"","html-keyboard-response","189","57062","0.0-189.0","326O153BMJK441XZIYRSPOBYRKFEDF","A2M2U7XUBA4CAN","3UUIU9GZC5R93N292LT21FRJ9VS5TN","","null","<img src=""img/flower4.png"" style=""width:200px; border:14px solid green;"">","null","","","","","","","","",""
"","image-keyboard-response","190","57105","0.0-190.0","326O153BMJK441XZIYRSPOBYRKFEDF","A2M2U7XUBA4CAN","3UUIU9GZC5R93N292LT21FRJ9VS5TN","","41.5","img/flower6.png","74","42.19999998807907","1","1","1","1","1,0.333,0.333,0.333,1,0.333,0.333,0.333,1","1,0.333,0.333,0.333,1,0.333,0.333,0.333,1","1",""
"","html-keyboard-response","191","57407","0.0-191.0","326O153BMJK441XZIYRSPOBYRKFEDF","A2M2U7XUBA4CAN","3UUIU9GZC5R93N292LT21FRJ9VS5TN","","null","<img src=""img/flower6.png"" style=""width:200px; border:14px solid green;"">","null","","","","","","","","",""
"","image-keyboard-response","192","57561","0.0-192.0","326O153BMJK441XZIYRSPOBYRKFEDF","A2M2U7XUBA4CAN","3UUIU9GZC5R93N292LT21FRJ9VS5TN","","153.19999998807907","img/flower1.png","74","153.89999997615814","1","0","3","1","1,0.333,0.333,0.333,1,0.333,0.333,0.333,1","1,0.333,0.333,0.333,1,0.333,0.333,0.333,1","1",""
"","html-keyboard-response","193","57862","0.0-193.0","326O153BMJK441XZIYRSPOBYRKFEDF","A2M2U7XUBA4CAN","3UUIU9GZC5R93N292LT21FRJ9VS5TN","","null","<img src=""img/flower1.png"" style=""width:200px;border:14px solid red;"">","null","","","","","","","","",""
"","image-keyboard-response","194","57961","0.0-194.0","326O153BMJK441XZIYRSPOBYRKFEDF","A2M2U7XUBA4CAN","3UUIU9GZC5R93N292LT21FRJ9VS5TN","","98.19999998807907","img/flower4.png","74","98.80000001192093","1","0","2","1","1,0.333,0.333,0.333,1,0.333,0.333,0.333,1","1,0.333,0.333,0.333,1,0.333,0.333,0.333,1","1",""
"","html-keyboard-response","195","58264","0.0-195.0","326O153BMJK441XZIYRSPOBYRKFEDF","A2M2U7XUBA4CAN","3UUIU9GZC5R93N292LT21FRJ9VS5TN","","null","<img src=""img/flower4.png"" style=""width:200px;border:14px solid red;"">","null","","","","","","","","",""
"","image-keyboard-response","196","58345","0.0-196.0","326O153BMJK441XZIYRSPOBYRKFEDF","A2M2U7XUBA4CAN","3UUIU9GZC5R93N292LT21FRJ9VS5TN","","80.60000002384186","img/flower6.png","74","81.40000003576279","1","1","1","1","1,0.333,0.333,0.333,1,0.333,0.333,0.333,1","1,0.333,0.333,0.333,1,0.333,0.333,0.333,1","1",""
"","html-keyboard-response","197","58647","0.0-197.0","326O153BMJK441XZIYRSPOBYRKFEDF","A2M2U7XUBA4CAN","3UUIU9GZC5R93N292LT21FRJ9VS5TN","","null","<img src=""img/flower6.png"" style=""width:200px; border:14px solid green;"">","null","","","","","","","","",""
"","image-keyboard-response","198","58650","0.0-198.0","326O153BMJK441XZIYRSPOBYRKFEDF","A2M2U7XUBA4CAN","3UUIU9GZC5R93N292LT21FRJ9VS5TN","","2.199999988079071","img/flower1.png","74","2.600000023841858","1","0","3","1","1,0.333,0.333,0.333,1,0.333,0.333,0.333,1","1,0.333,0.333,0.333,1,0.333,0.333,0.333,1","1",""
"","html-keyboard-response","199","58952","0.0-199.0","326O153BMJK441XZIYRSPOBYRKFEDF","A2M2U7XUBA4CAN","3UUIU9GZC5R93N292LT21FRJ9VS5TN","","null","<img src=""img/flower1.png"" style=""width:200px;border:14px solid red;"">","null","","","","","","","","",""
"","image-keyboard-response","200","59017","0.0-200.0","326O153BMJK441XZIYRSPOBYRKFEDF","A2M2U7XUBA4CAN","3UUIU9GZC5R93N292LT21FRJ9VS5TN","","65.10000002384186","img/flower1.png","74","65.69999998807907","1","1","3","1","1,0.333,0.333,0.333,1,0.333,0.333,0.333,1","1,0.333,0.333,0.333,1,0.333,0.333,0.333,1","1",""
"","html-keyboard-response","201","59318","0.0-201.0","326O153BMJK441XZIYRSPOBYRKFEDF","A2M2U7XUBA4CAN","3UUIU9GZC5R93N292LT21FRJ9VS5TN","","null","<img src=""img/flower1.png"" style=""width:200px; border:14px solid green;"">","null","","","","","","","","",""
"","image-keyboard-response","202","59345","0.0-202.0","326O153BMJK441XZIYRSPOBYRKFEDF","A2M2U7XUBA4CAN","3UUIU9GZC5R93N292LT21FRJ9VS5TN","","26.19999998807907","img/flower6.png","74","26.80000001192093","1","1","1","1","1,0.333,0.333,0.333,1,0.333,0.333,0.333,1","1,0.333,0.333,0.333,1,0.333,0.333,0.333,1","1",""
"","html-keyboard-response","203","59646","0.0-203.0","326O153BMJK441XZIYRSPOBYRKFEDF","A2M2U7XUBA4CAN","3UUIU9GZC5R93N292LT21FRJ9VS5TN","","null","<img src=""img/flower6.png"" style=""width:200px; border:14px solid green;"">","null","","","","","","","","",""
"","image-keyboard-response","204","59833","0.0-204.0","326O153BMJK441XZIYRSPOBYRKFEDF","A2M2U7XUBA4CAN","3UUIU9GZC5R93N292LT21FRJ9VS5TN","","186.79999995231628","img/flower1.png","74","187.19999998807907","1","1","3","1","1,0.333,0.333,0.333,1,0.333,0.333,0.333,1","1,0.333,0.333,0.333,1,0.333,0.333,0.333,1","1",""
"","html-keyboard-response","205","60135","0.0-205.0","326O153BMJK441XZIYRSPOBYRKFEDF","A2M2U7XUBA4CAN","3UUIU9GZC5R93N292LT21FRJ9VS5TN","","null","<img src=""img/flower1.png"" style=""width:200px; border:14px solid green;"">","null","","","","","","","","",""
"","image-keyboard-response","206","60281","0.0-206.0","326O153BMJK441XZIYRSPOBYRKFEDF","A2M2U7XUBA4CAN","3UUIU9GZC5R93N292LT21FRJ9VS5TN","","145.60000002384186","img/flower6.png","74","146.0999999642372","1","1","1","1","1,0.333,0.333,0.333,1,0.333,0.333,0.333,1","1,0.333,0.333,0.333,1,0.333,0.333,0.333,1","1",""
"","html-keyboard-response","207","60582","0.0-207.0","326O153BMJK441XZIYRSPOBYRKFEDF","A2M2U7XUBA4CAN","3UUIU9GZC5R93N292LT21FRJ9VS5TN","","null","<img src=""img/flower6.png"" style=""width:200px; border:14px solid green;"">","null","","","","","","","","",""
"","image-keyboard-response","208","60641","0.0-208.0","326O153BMJK441XZIYRSPOBYRKFEDF","A2M2U7XUBA4CAN","3UUIU9GZC5R93N292LT21FRJ9VS5TN","","58.5","img/flower1.png","74","59.10000002384186","1","1","3","1","1,0.333,0.333,0.333,1,0.333,0.333,0.333,1","1,0.333,0.333,0.333,1,0.333,0.333,0.333,1","1",""
"","html-keyboard-response","209","60942","0.0-209.0","326O153BMJK441XZIYRSPOBYRKFEDF","A2M2U7XUBA4CAN","3UUIU9GZC5R93N292LT21FRJ9VS5TN","","null","<img src=""img/flower1.png"" style=""width:200px; border:14px solid green;"">","null","","","","","","","","",""
"","image-keyboard-response","210","61057","0.0-210.0","326O153BMJK441XZIYRSPOBYRKFEDF","A2M2U7XUBA4CAN","3UUIU9GZC5R93N292LT21FRJ9VS5TN","","114.09999996423721","img/flower6.png","74","114.80000001192093","1","1","1","1","1,0.333,0.333,0.333,1,0.333,0.333,0.333,1","1,0.333,0.333,0.333,1,0.333,0.333,0.333,1","1",""
"","html-keyboard-response","211","61358","0.0-211.0","326O153BMJK441XZIYRSPOBYRKFEDF","A2M2U7XUBA4CAN","3UUIU9GZC5R93N292LT21FRJ9VS5TN","","null","<img src=""img/flower6.png"" style=""width:200px; border:14px solid green;"">","null","","","","","","","","",""
"","image-keyboard-response","212","61433","0.0-212.0","326O153BMJK441XZIYRSPOBYRKFEDF","A2M2U7XUBA4CAN","3UUIU9GZC5R93N292LT21FRJ9VS5TN","","74.10000002384186","img/flower6.png","74","74.89999997615814","1","1","1","1","1,0.333,0.333,0.333,1,0.333,0.333,0.333,1","1,0.333,0.333,0.333,1,0.333,0.333,0.333,1","1",""
"","html-keyboard-response","213","61734","0.0-213.0","326O153BMJK441XZIYRSPOBYRKFEDF","A2M2U7XUBA4CAN","3UUIU9GZC5R93N292LT21FRJ9VS5TN","","null","<img src=""img/flower6.png"" style=""width:200px; border:14px solid green;"">","null","","","","","","","","",""
"","image-keyboard-response","214","61881","0.0-214.0","326O153BMJK441XZIYRSPOBYRKFEDF","A2M2U7XUBA4CAN","3UUIU9GZC5R93N292LT21FRJ9VS5TN","","146.69999998807907","img/flower6.png","74","147.4000000357628","1","1","1","1","1,0.333,0.333,0.333,1,0.333,0.333,0.333,1","1,0.333,0.333,0.333,1,0.333,0.333,0.333,1","1",""
"","html-keyboard-response","215","62182","0.0-215.0","326O153BMJK441XZIYRSPOBYRKFEDF","A2M2U7XUBA4CAN","3UUIU9GZC5R93N292LT21FRJ9VS5TN","","null","<img src=""img/flower6.png"" style=""width:200px; border:14px solid green;"">","null","","","","","","","","",""
"","image-keyboard-response","216","62273","0.0-216.0","326O153BMJK441XZIYRSPOBYRKFEDF","A2M2U7XUBA4CAN","3UUIU9GZC5R93N292LT21FRJ9VS5TN","","90.10000002384186","img/flower1.png","74","90.80000001192093","1","1","3","1","1,0.333,0.333,0.333,1,0.333,0.333,0.333,1","1,0.333,0.333,0.333,1,0.333,0.333,0.333,1","1",""
"","html-keyboard-response","217","62575","0.0-217.0","326O153BMJK441XZIYRSPOBYRKFEDF","A2M2U7XUBA4CAN","3UUIU9GZC5R93N292LT21FRJ9VS5TN","","null","<img src=""img/flower1.png"" style=""width:200px; border:14px solid green;"">","null","","","","","","","","",""
"","image-keyboard-response","218","62641","0.0-218.0","326O153BMJK441XZIYRSPOBYRKFEDF","A2M2U7XUBA4CAN","3UUIU9GZC5R93N292LT21FRJ9VS5TN","","65.39999997615814","img/flower4.png","74","65.89999997615814","1","0","2","1","1,0.333,0.333,0.333,1,0.333,0.333,0.333,1","1,0.333,0.333,0.333,1,0.333,0.333,0.333,1","1",""
"","html-keyboard-response","219","62943","0.0-219.0","326O153BMJK441XZIYRSPOBYRKFEDF","A2M2U7XUBA4CAN","3UUIU9GZC5R93N292LT21FRJ9VS5TN","","null","<img src=""img/flower4.png"" style=""width:200px;border:14px solid red;"">","null","","","","","","","","",""
"","image-keyboard-response","220","63033","0.0-220.0","326O153BMJK441XZIYRSPOBYRKFEDF","A2M2U7XUBA4CAN","3UUIU9GZC5R93N292LT21FRJ9VS5TN","","89.90000003576279","img/flower1.png","74","90.30000001192093","1","0","3","1","1,0.333,0.333,0.333,1,0.333,0.333,0.333,1","1,0.333,0.333,0.333,1,0.333,0.333,0.333,1","1",""
"","html-keyboard-response","221","63335","0.0-221.0","326O153BMJK441XZIYRSPOBYRKFEDF","A2M2U7XUBA4CAN","3UUIU9GZC5R93N292LT21FRJ9VS5TN","","null","<img src=""img/flower1.png"" style=""width:200px;border:14px solid red;"">","null","","","","","","","","",""
"","image-keyboard-response","222","63465","0.0-222.0","326O153BMJK441XZIYRSPOBYRKFEDF","A2M2U7XUBA4CAN","3UUIU9GZC5R93N292LT21FRJ9VS5TN","","129.5","img/flower4.png","74","130","1","1","2","1","1,0.333,0.333,0.333,1,0.333,0.333,0.333,1","1,0.333,0.333,0.333,1,0.333,0.333,0.333,1","1",""
"","html-keyboard-response","223","63767","0.0-223.0","326O153BMJK441XZIYRSPOBYRKFEDF","A2M2U7XUBA4CAN","3UUIU9GZC5R93N292LT21FRJ9VS5TN","","null","<img src=""img/flower4.png"" style=""width:200px; border:14px solid green;"">","null","","","","","","","","",""
"","image-keyboard-response","224","63945","0.0-224.0","326O153BMJK441XZIYRSPOBYRKFEDF","A2M2U7XUBA4CAN","3UUIU9GZC5R93N292LT21FRJ9VS5TN","","177.10000002384186","img/flower1.png","75","177.80000001192093","2","1","3","1","1,0.333,0.333,0.333,1,0.333,0.333,0.333,1","1,0.333,0.333,0.333,1,0.333,0.333,0.333,1","1",""
"","html-keyboard-response","225","64247","0.0-225.0","326O153BMJK441XZIYRSPOBYRKFEDF","A2M2U7XUBA4CAN","3UUIU9GZC5R93N292LT21FRJ9VS5TN","","null","<img src=""img/flower1.png"" style=""width:200px; border:14px solid green;"">","null","","","","","","","","",""
"","image-keyboard-response","226","64441","0.0-226.0","326O153BMJK441XZIYRSPOBYRKFEDF","A2M2U7XUBA4CAN","3UUIU9GZC5R93N292LT21FRJ9VS5TN","","194","img/flower1.png","75","194.69999998807907","2","0","3","1","1,0.333,0.333,0.333,1,0.333,0.333,0.333,1","1,0.333,0.333,0.333,1,0.333,0.333,0.333,1","1",""
"","html-keyboard-response","227","64744","0.0-227.0","326O153BMJK441XZIYRSPOBYRKFEDF","A2M2U7XUBA4CAN","3UUIU9GZC5R93N292LT21FRJ9VS5TN","","null","<img src=""img/flower1.png"" style=""width:200px;border:14px solid red;"">","null","","","","","","","","",""
"","image-keyboard-response","228","64761","0.0-228.0","326O153BMJK441XZIYRSPOBYRKFEDF","A2M2U7XUBA4CAN","3UUIU9GZC5R93N292LT21FRJ9VS5TN","","16.899999976158142","img/flower4.png","76","17.599999964237213","3","0","2","1","1,0.333,0.333,0.333,1,0.333,0.333,0.333,1","1,0.333,0.333,0.333,1,0.333,0.333,0.333,1","1",""
"","html-keyboard-response","229","65063","0.0-229.0","326O153BMJK441XZIYRSPOBYRKFEDF","A2M2U7XUBA4CAN","3UUIU9GZC5R93N292LT21FRJ9VS5TN","","null","<img src=""img/flower4.png"" style=""width:200px;border:14px solid red;"">","null","","","","","","","","",""
"","image-keyboard-response","230","65073","0.0-230.0","326O153BMJK441XZIYRSPOBYRKFEDF","A2M2U7XUBA4CAN","3UUIU9GZC5R93N292LT21FRJ9VS5TN","","10","img/flower6.png","75","10.399999976158142","2","1","1","1","1,0.333,0.333,0.333,1,0.333,0.333,0.333,1","1,0.333,0.333,0.333,1,0.333,0.333,0.333,1","1",""
"","html-keyboard-response","231","65374","0.0-231.0","326O153BMJK441XZIYRSPOBYRKFEDF","A2M2U7XUBA4CAN","3UUIU9GZC5R93N292LT21FRJ9VS5TN","","null","<img src=""img/flower6.png"" style=""width:200px; border:14px solid green;"">","null","","","","","","","","",""
"","image-keyboard-response","232","65417","0.0-232.0","326O153BMJK441XZIYRSPOBYRKFEDF","A2M2U7XUBA4CAN","3UUIU9GZC5R93N292LT21FRJ9VS5TN","","42.10000002384186","img/flower6.png","74","42.700000047683716","1","1","1","1","1,0.333,0.333,0.333,1,0.333,0.333,0.333,1","1,0.333,0.333,0.333,1,0.333,0.333,0.333,1","1",""
"","html-keyboard-response","233","65719","0.0-233.0","326O153BMJK441XZIYRSPOBYRKFEDF","A2M2U7XUBA4CAN","3UUIU9GZC5R93N292LT21FRJ9VS5TN","","null","<img src=""img/flower6.png"" style=""width:200px; border:14px solid green;"">","null","","","","","","","","",""
"","image-keyboard-response","234","65865","0.0-234.0","326O153BMJK441XZIYRSPOBYRKFEDF","A2M2U7XUBA4CAN","3UUIU9GZC5R93N292LT21FRJ9VS5TN","","146","img/flower6.png","74","146.5","1","1","1","1","1,0.333,0.333,0.333,1,0.333,0.333,0.333,1","1,0.333,0.333,0.333,1,0.333,0.333,0.333,1","1",""
"","html-keyboard-response","235","66169","0.0-235.0","326O153BMJK441XZIYRSPOBYRKFEDF","A2M2U7XUBA4CAN","3UUIU9GZC5R93N292LT21FRJ9VS5TN","","null","<img src=""img/flower6.png"" style=""width:200px; border:14px solid green;"">","null","","","","","","","","",""
"","image-keyboard-response","236","66297","0.0-236.0","326O153BMJK441XZIYRSPOBYRKFEDF","A2M2U7XUBA4CAN","3UUIU9GZC5R93N292LT21FRJ9VS5TN","","127.39999997615814","img/flower4.png","74","128.19999998807907","1","0","2","1","1,0.333,0.333,0.333,1,0.333,0.333,0.333,1","1,0.333,0.333,0.333,1,0.333,0.333,0.333,1","1",""
"","html-keyboard-response","237","66599","0.0-237.0","326O153BMJK441XZIYRSPOBYRKFEDF","A2M2U7XUBA4CAN","3UUIU9GZC5R93N292LT21FRJ9VS5TN","","null","<img src=""img/flower4.png"" style=""width:200px;border:14px solid red;"">","null","","","","","","","","",""
"","image-keyboard-response","238","66673","0.0-238.0","326O153BMJK441XZIYRSPOBYRKFEDF","A2M2U7XUBA4CAN","3UUIU9GZC5R93N292LT21FRJ9VS5TN","","73.89999997615814","img/flower1.png","74","74.39999997615814","1","0","3","1","1,0.333,0.333,0.333,1,0.333,0.333,0.333,1","1,0.333,0.333,0.333,1,0.333,0.333,0.333,1","1",""
"","html-keyboard-response","239","66975","0.0-239.0","326O153BMJK441XZIYRSPOBYRKFEDF","A2M2U7XUBA4CAN","3UUIU9GZC5R93N292LT21FRJ9VS5TN","","null","<img src=""img/flower1.png"" style=""width:200px;border:14px solid red;"">","null","","","","","","","","",""
"","image-keyboard-response","240","67217","0.0-240.0","326O153BMJK441XZIYRSPOBYRKFEDF","A2M2U7XUBA4CAN","3UUIU9GZC5R93N292LT21FRJ9VS5TN","","242.10000002384186","img/flower4.png","75","242.80000001192093","2","1","2","1","1,0.333,0.333,0.333,1,0.333,0.333,0.333,1","1,0.333,0.333,0.333,1,0.333,0.333,0.333,1","1",""
"","html-keyboard-response","241","67519","0.0-241.0","326O153BMJK441XZIYRSPOBYRKFEDF","A2M2U7XUBA4CAN","3UUIU9GZC5R93N292LT21FRJ9VS5TN","","null","<img src=""img/flower4.png"" style=""width:200px; border:14px solid green;"">","null","","","","","","","","",""
"","image-keyboard-response","242","67713","0.0-242.0","326O153BMJK441XZIYRSPOBYRKFEDF","A2M2U7XUBA4CAN","3UUIU9GZC5R93N292LT21FRJ9VS5TN","","194","img/flower6.png","74","194.5","1","1","1","1","1,0.333,0.333,0.333,1,0.333,0.333,0.333,1","1,0.333,0.333,0.333,1,0.333,0.333,0.333,1","1",""
"","html-keyboard-response","243","68014","0.0-243.0","326O153BMJK441XZIYRSPOBYRKFEDF","A2M2U7XUBA4CAN","3UUIU9GZC5R93N292LT21FRJ9VS5TN","","null","<img src=""img/flower6.png"" style=""width:200px; border:14px solid green;"">","null","","","","","","","","",""
"","image-keyboard-response","244","68097","0.0-244.0","326O153BMJK441XZIYRSPOBYRKFEDF","A2M2U7XUBA4CAN","3UUIU9GZC5R93N292LT21FRJ9VS5TN","","82.20000004768372","img/flower6.png","75","82.80000001192093","2","0","1","1","1,0.333,0.333,0.333,1,0.333,0.333,0.333,1","1,0.333,0.333,0.333,1,0.333,0.333,0.333,1","1",""
"","html-keyboard-response","245","68399","0.0-245.0","326O153BMJK441XZIYRSPOBYRKFEDF","A2M2U7XUBA4CAN","3UUIU9GZC5R93N292LT21FRJ9VS5TN","","null","<img src=""img/flower6.png"" style=""width:200px;border:14px solid red;"">","null","","","","","","","","",""
"","image-keyboard-response","246","68442","0.0-246.0","326O153BMJK441XZIYRSPOBYRKFEDF","A2M2U7XUBA4CAN","3UUIU9GZC5R93N292LT21FRJ9VS5TN","","42.09999996423721","img/flower1.png","75","42.799999952316284","2","1","3","1","1,0.333,0.333,0.333,1,0.333,0.333,0.333,1","1,0.333,0.333,0.333,1,0.333,0.333,0.333,1","1",""
"","html-keyboard-response","247","68743","0.0-247.0","326O153BMJK441XZIYRSPOBYRKFEDF","A2M2U7XUBA4CAN","3UUIU9GZC5R93N292LT21FRJ9VS5TN","","null","<img src=""img/flower1.png"" style=""width:200px; border:14px solid green;"">","null","","","","","","","","",""
"","image-keyboard-response","248","68826","0.0-248.0","326O153BMJK441XZIYRSPOBYRKFEDF","A2M2U7XUBA4CAN","3UUIU9GZC5R93N292LT21FRJ9VS5TN","","81.80000001192093","img/flower4.png","74","82.5","1","0","2","1","1,0.333,0.333,0.333,1,0.333,0.333,0.333,1","1,0.333,0.333,0.333,1,0.333,0.333,0.333,1","1",""
"","html-keyboard-response","249","69127","0.0-249.0","326O153BMJK441XZIYRSPOBYRKFEDF","A2M2U7XUBA4CAN","3UUIU9GZC5R93N292LT21FRJ9VS5TN","","null","<img src=""img/flower4.png"" style=""width:200px;border:14px solid red;"">","null","","","","","","","","",""
"","image-keyboard-response","250","69337","0.0-250.0","326O153BMJK441XZIYRSPOBYRKFEDF","A2M2U7XUBA4CAN","3UUIU9GZC5R93N292LT21FRJ9VS5TN","","209.30000001192093","img/flower6.png","74","209.89999997615814","1","1","1","1","1,0.333,0.333,0.333,1,0.333,0.333,0.333,1","1,0.333,0.333,0.333,1,0.333,0.333,0.333,1","1",""
"","html-keyboard-response","251","69640","0.0-251.0","326O153BMJK441XZIYRSPOBYRKFEDF","A2M2U7XUBA4CAN","3UUIU9GZC5R93N292LT21FRJ9VS5TN","","null","<img src=""img/flower6.png"" style=""width:200px; border:14px solid green;"">","null","","","","","","","","",""
"","image-keyboard-response","252","69769","0.0-252.0","326O153BMJK441XZIYRSPOBYRKFEDF","A2M2U7XUBA4CAN","3UUIU9GZC5R93N292LT21FRJ9VS5TN","","128.60000002384186","img/flower4.png","74","129.19999998807907","1","1","2","1","1,0.333,0.333,0.333,1,0.333,0.333,0.333,1","1,0.333,0.333,0.333,1,0.333,0.333,0.333,1","1",""
"","html-keyboard-response","253","70072","0.0-253.0","326O153BMJK441XZIYRSPOBYRKFEDF","A2M2U7XUBA4CAN","3UUIU9GZC5R93N292LT21FRJ9VS5TN","","null","<img src=""img/flower4.png"" style=""width:200px; border:14px solid green;"">","null","","","","","","","","",""
"","image-keyboard-response","254","70185","0.0-254.0","326O153BMJK441XZIYRSPOBYRKFEDF","A2M2U7XUBA4CAN","3UUIU9GZC5R93N292LT21FRJ9VS5TN","","112.5","img/flower1.png","74","113.20000004768372","1","1","3","1","1,0.333,0.333,0.333,1,0.333,0.333,0.333,1","1,0.333,0.333,0.333,1,0.333,0.333,0.333,1","1",""
"","html-keyboard-response","255","70487","0.0-255.0","326O153BMJK441XZIYRSPOBYRKFEDF","A2M2U7XUBA4CAN","3UUIU9GZC5R93N292LT21FRJ9VS5TN","","null","<img src=""img/flower1.png"" style=""width:200px; border:14px solid green;"">","null","","","","","","","","",""
"","image-keyboard-response","256","70609","0.0-256.0","326O153BMJK441XZIYRSPOBYRKFEDF","A2M2U7XUBA4CAN","3UUIU9GZC5R93N292LT21FRJ9VS5TN","","121.29999995231628","img/flower1.png","74","121.80000001192093","1","0","3","1","1,0.333,0.333,0.333,1,0.333,0.333,0.333,1","1,0.333,0.333,0.333,1,0.333,0.333,0.333,1","1",""
"","html-keyboard-response","257","70911","0.0-257.0","326O153BMJK441XZIYRSPOBYRKFEDF","A2M2U7XUBA4CAN","3UUIU9GZC5R93N292LT21FRJ9VS5TN","","null","<img src=""img/flower1.png"" style=""width:200px;border:14px solid red;"">","null","","","","","","","","",""
"","image-keyboard-response","258","71034","0.0-258.0","326O153BMJK441XZIYRSPOBYRKFEDF","A2M2U7XUBA4CAN","3UUIU9GZC5R93N292LT21FRJ9VS5TN","","122.09999996423721","img/flower4.png","74","122.69999998807907","1","1","2","1","1,0.333,0.333,0.333,1,0.333,0.333,0.333,1","1,0.333,0.333,0.333,1,0.333,0.333,0.333,1","1",""
"","html-keyboard-response","259","71334","0.0-259.0","326O153BMJK441XZIYRSPOBYRKFEDF","A2M2U7XUBA4CAN","3UUIU9GZC5R93N292LT21FRJ9VS5TN","","null","<img src=""img/flower4.png"" style=""width:200px; border:14px solid green;"">","null","","","","","","","","",""
"","image-keyboard-response","260","71497","0.0-260.0","326O153BMJK441XZIYRSPOBYRKFEDF","A2M2U7XUBA4CAN","3UUIU9GZC5R93N292LT21FRJ9VS5TN","","162.20000004768372","img/flower1.png","74","163.5999999642372","1","1","3","1","1,0.333,0.333,0.333,1,0.333,0.333,0.333,1","1,0.333,0.333,0.333,1,0.333,0.333,0.333,1","1",""
"","html-keyboard-response","261","71800","0.0-261.0","326O153BMJK441XZIYRSPOBYRKFEDF","A2M2U7XUBA4CAN","3UUIU9GZC5R93N292LT21FRJ9VS5TN","","null","<img src=""img/flower1.png"" style=""width:200px; border:14px solid green;"">","null","","","","","","","","",""
"","image-keyboard-response","262","71897","0.0-262.0","326O153BMJK441XZIYRSPOBYRKFEDF","A2M2U7XUBA4CAN","3UUIU9GZC5R93N292LT21FRJ9VS5TN","","97","img/flower1.png","74","97.69999998807907","1","0","3","1","1,0.333,0.333,0.333,1,0.333,0.333,0.333,1","1,0.333,0.333,0.333,1,0.333,0.333,0.333,1","1",""
"","html-keyboard-response","263","72199","0.0-263.0","326O153BMJK441XZIYRSPOBYRKFEDF","A2M2U7XUBA4CAN","3UUIU9GZC5R93N292LT21FRJ9VS5TN","","null","<img src=""img/flower1.png"" style=""width:200px;border:14px solid red;"">","null","","","","","","","","",""
"","image-keyboard-response","264","72345","0.0-264.0","326O153BMJK441XZIYRSPOBYRKFEDF","A2M2U7XUBA4CAN","3UUIU9GZC5R93N292LT21FRJ9VS5TN","","145.5","img/flower4.png","74","146.19999998807907","1","0","2","1","1,0.333,0.333,0.333,1,0.333,0.333,0.333,1","1,0.333,0.333,0.333,1,0.333,0.333,0.333,1","1",""
"","html-keyboard-response","265","72646","0.0-265.0","326O153BMJK441XZIYRSPOBYRKFEDF","A2M2U7XUBA4CAN","3UUIU9GZC5R93N292LT21FRJ9VS5TN","","null","<img src=""img/flower4.png"" style=""width:200px;border:14px solid red;"">","null","","","","","","","","",""
"","image-keyboard-response","266","72777","0.0-266.0","326O153BMJK441XZIYRSPOBYRKFEDF","A2M2U7XUBA4CAN","3UUIU9GZC5R93N292LT21FRJ9VS5TN","","130.70000004768372","img/flower4.png","74","131.0999999642372","1","0","2","1","1,0.333,0.333,0.333,1,0.333,0.333,0.333,1","1,0.333,0.333,0.333,1,0.333,0.333,0.333,1","1",""
"","html-keyboard-response","267","73079","0.0-267.0","326O153BMJK441XZIYRSPOBYRKFEDF","A2M2U7XUBA4CAN","3UUIU9GZC5R93N292LT21FRJ9VS5TN","","null","<img src=""img/flower4.png"" style=""width:200px;border:14px solid red;"">","null","","","","","","","","",""
"","image-keyboard-response","268","73217","0.0-268.0","326O153BMJK441XZIYRSPOBYRKFEDF","A2M2U7XUBA4CAN","3UUIU9GZC5R93N292LT21FRJ9VS5TN","","137.69999998807907","img/flower6.png","74","138.29999995231628","1","1","1","1","1,0.333,0.333,0.333,1,0.333,0.333,0.333,1","1,0.333,0.333,0.333,1,0.333,0.333,0.333,1","1",""
"","html-keyboard-response","269","73518","0.0-269.0","326O153BMJK441XZIYRSPOBYRKFEDF","A2M2U7XUBA4CAN","3UUIU9GZC5R93N292LT21FRJ9VS5TN","","null","<img src=""img/flower6.png"" style=""width:200px; border:14px solid green;"">","null","","","","","","","","",""
"","image-keyboard-response","270","73673","0.0-270.0","326O153BMJK441XZIYRSPOBYRKFEDF","A2M2U7XUBA4CAN","3UUIU9GZC5R93N292LT21FRJ9VS5TN","","154.5","img/flower1.png","74","154.80000001192093","1","1","3","1","1,0.333,0.333,0.333,1,0.333,0.333,0.333,1","1,0.333,0.333,0.333,1,0.333,0.333,0.333,1","1",""
"","html-keyboard-response","271","73974","0.0-271.0","326O153BMJK441XZIYRSPOBYRKFEDF","A2M2U7XUBA4CAN","3UUIU9GZC5R93N292LT21FRJ9VS5TN","","null","<img src=""img/flower1.png"" style=""width:200px; border:14px solid green;"">","null","","","","","","","","",""
"","image-keyboard-response","272","74121","0.0-272.0","326O153BMJK441XZIYRSPOBYRKFEDF","A2M2U7XUBA4CAN","3UUIU9GZC5R93N292LT21FRJ9VS5TN","","146.30000001192093","img/flower6.png","74","147","1","1","1","1","1,0.333,0.333,0.333,1,0.333,0.333,0.333,1","1,0.333,0.333,0.333,1,0.333,0.333,0.333,1","1",""
"","html-keyboard-response","273","74423","0.0-273.0","326O153BMJK441XZIYRSPOBYRKFEDF","A2M2U7XUBA4CAN","3UUIU9GZC5R93N292LT21FRJ9VS5TN","","null","<img src=""img/flower6.png"" style=""width:200px; border:14px solid green;"">","null","","","","","","","","",""
"","image-keyboard-response","274","74593","0.0-274.0","326O153BMJK441XZIYRSPOBYRKFEDF","A2M2U7XUBA4CAN","3UUIU9GZC5R93N292LT21FRJ9VS5TN","","169.29999995231628","img/flower1.png","74","169.69999998807907","1","0","3","1","1,0.333,0.333,0.333,1,0.333,0.333,0.333,1","1,0.333,0.333,0.333,1,0.333,0.333,0.333,1","1",""
"","html-keyboard-response","275","74895","0.0-275.0","326O153BMJK441XZIYRSPOBYRKFEDF","A2M2U7XUBA4CAN","3UUIU9GZC5R93N292LT21FRJ9VS5TN","","null","<img src=""img/flower1.png"" style=""width:200px;border:14px solid red;"">","null","","","","","","","","",""
"","image-keyboard-response","276","75193","0.0-276.0","326O153BMJK441XZIYRSPOBYRKFEDF","A2M2U7XUBA4CAN","3UUIU9GZC5R93N292LT21FRJ9VS5TN","","298","img/flower4.png","75","298.4000000357628","2","1","2","1","1,0.333,0.333,0.333,1,0.333,0.333,0.333,1","1,0.333,0.333,0.333,1,0.333,0.333,0.333,1","1",""
"","html-keyboard-response","277","75495","0.0-277.0","326O153BMJK441XZIYRSPOBYRKFEDF","A2M2U7XUBA4CAN","3UUIU9GZC5R93N292LT21FRJ9VS5TN","","null","<img src=""img/flower4.png"" style=""width:200px; border:14px solid green;"">","null","","","","","","","","",""
"","image-keyboard-response","278","75569","0.0-278.0","326O153BMJK441XZIYRSPOBYRKFEDF","A2M2U7XUBA4CAN","3UUIU9GZC5R93N292LT21FRJ9VS5TN","","74.10000002384186","img/flower6.png","74","74.60000002384186","1","1","1","1","1,0.333,0.333,0.333,1,0.333,0.333,0.333,1","1,0.333,0.333,0.333,1,0.333,0.333,0.333,1","1",""
"","html-keyboard-response","279","75870","0.0-279.0","326O153BMJK441XZIYRSPOBYRKFEDF","A2M2U7XUBA4CAN","3UUIU9GZC5R93N292LT21FRJ9VS5TN","","null","<img src=""img/flower6.png"" style=""width:200px; border:14px solid green;"">","null","","","","","","","","",""
"","image-keyboard-response","280","76065","0.0-280.0","326O153BMJK441XZIYRSPOBYRKFEDF","A2M2U7XUBA4CAN","3UUIU9GZC5R93N292LT21FRJ9VS5TN","","194.30000001192093","img/flower6.png","74","195.0999999642372","1","1","1","1","1,0.333,0.333,0.333,1,0.333,0.333,0.333,1","1,0.333,0.333,0.333,1,0.333,0.333,0.333,1","1",""
"","html-keyboard-response","281","76367","0.0-281.0","326O153BMJK441XZIYRSPOBYRKFEDF","A2M2U7XUBA4CAN","3UUIU9GZC5R93N292LT21FRJ9VS5TN","","null","<img src=""img/flower6.png"" style=""width:200px; border:14px solid green;"">","null","","","","","","","","",""
"","image-keyboard-response","282","76521","0.0-282.0","326O153BMJK441XZIYRSPOBYRKFEDF","A2M2U7XUBA4CAN","3UUIU9GZC5R93N292LT21FRJ9VS5TN","","154.20000004768372","img/flower1.png","76","154.80000001192093","3","1","3","1","1,0.333,0.333,0.333,1,0.333,0.333,0.333,1","1,0.333,0.333,0.333,1,0.333,0.333,0.333,1","1",""
"","html-keyboard-response","283","76823","0.0-283.0","326O153BMJK441XZIYRSPOBYRKFEDF","A2M2U7XUBA4CAN","3UUIU9GZC5R93N292LT21FRJ9VS5TN","","null","<img src=""img/flower1.png"" style=""width:200px; border:14px solid green;"">","null","","","","","","","","",""
"","image-keyboard-response","284","76833","0.0-284.0","326O153BMJK441XZIYRSPOBYRKFEDF","A2M2U7XUBA4CAN","3UUIU9GZC5R93N292LT21FRJ9VS5TN","","10","img/flower1.png","74","10.5","1","0","3","1","1,0.333,0.333,0.333,1,0.333,0.333,0.333,1","1,0.333,0.333,0.333,1,0.333,0.333,0.333,1","1",""
"","html-keyboard-response","285","77134","0.0-285.0","326O153BMJK441XZIYRSPOBYRKFEDF","A2M2U7XUBA4CAN","3UUIU9GZC5R93N292LT21FRJ9VS5TN","","null","<img src=""img/flower1.png"" style=""width:200px;border:14px solid red;"">","null","","","","","","","","",""
"","image-keyboard-response","286","77145","0.0-286.0","326O153BMJK441XZIYRSPOBYRKFEDF","A2M2U7XUBA4CAN","3UUIU9GZC5R93N292LT21FRJ9VS5TN","","10.399999976158142","img/flower6.png","76","10.899999976158142","3","1","1","1","1,0.333,0.333,0.333,1,0.333,0.333,0.333,1","1,0.333,0.333,0.333,1,0.333,0.333,0.333,1","1",""
"","html-keyboard-response","287","77447","0.0-287.0","326O153BMJK441XZIYRSPOBYRKFEDF","A2M2U7XUBA4CAN","3UUIU9GZC5R93N292LT21FRJ9VS5TN","","null","<img src=""img/flower6.png"" style=""width:200px; border:14px solid green;"">","null","","","","","","","","",""
"","image-keyboard-response","288","77513","0.0-288.0","326O153BMJK441XZIYRSPOBYRKFEDF","A2M2U7XUBA4CAN","3UUIU9GZC5R93N292LT21FRJ9VS5TN","","65","img/flower1.png","76","65.5","3","1","3","1","1,0.333,0.333,0.333,1,0.333,0.333,0.333,1","1,0.333,0.333,0.333,1,0.333,0.333,0.333,1","1",""
"","html-keyboard-response","289","77815","0.0-289.0","326O153BMJK441XZIYRSPOBYRKFEDF","A2M2U7XUBA4CAN","3UUIU9GZC5R93N292LT21FRJ9VS5TN","","null","<img src=""img/flower1.png"" style=""width:200px; border:14px solid green;"">","null","","","","","","","","",""
"","image-keyboard-response","290","77833","0.0-290.0","326O153BMJK441XZIYRSPOBYRKFEDF","A2M2U7XUBA4CAN","3UUIU9GZC5R93N292LT21FRJ9VS5TN","","17.30000001192093","img/flower4.png","74","17.69999998807907","1","0","2","1","1,0.333,0.333,0.333,1,0.333,0.333,0.333,1","1,0.333,0.333,0.333,1,0.333,0.333,0.333,1","1",""
"","html-keyboard-response","291","78134","0.0-291.0","326O153BMJK441XZIYRSPOBYRKFEDF","A2M2U7XUBA4CAN","3UUIU9GZC5R93N292LT21FRJ9VS5TN","","null","<img src=""img/flower4.png"" style=""width:200px;border:14px solid red;"">","null","","","","","","","","",""
"","image-keyboard-response","292","78337","0.0-292.0","326O153BMJK441XZIYRSPOBYRKFEDF","A2M2U7XUBA4CAN","3UUIU9GZC5R93N292LT21FRJ9VS5TN","","202.4000000357628","img/flower4.png","74","203","1","1","2","1","1,0.333,0.333,0.333,1,0.333,0.333,0.333,1","1,0.333,0.333,0.333,1,0.333,0.333,0.333,1","1",""
"","html-keyboard-response","293","78639","0.0-293.0","326O153BMJK441XZIYRSPOBYRKFEDF","A2M2U7XUBA4CAN","3UUIU9GZC5R93N292LT21FRJ9VS5TN","","null","<img src=""img/flower4.png"" style=""width:200px; border:14px solid green;"">","null","","","","","","","","",""
"","image-keyboard-response","294","78825","0.0-294.0","326O153BMJK441XZIYRSPOBYRKFEDF","A2M2U7XUBA4CAN","3UUIU9GZC5R93N292LT21FRJ9VS5TN","","185.80000001192093","img/flower6.png","76","186.5","3","0","1","1","1,0.333,0.333,0.333,1,0.333,0.333,0.333,1","1,0.333,0.333,0.333,1,0.333,0.333,0.333,1","1",""
"","html-keyboard-response","295","79127","0.0-295.0","326O153BMJK441XZIYRSPOBYRKFEDF","A2M2U7XUBA4CAN","3UUIU9GZC5R93N292LT21FRJ9VS5TN","","null","<img src=""img/flower6.png"" style=""width:200px;border:14px solid red;"">","null","","","","","","","","",""
"","image-keyboard-response","296","79257","0.0-296.0","326O153BMJK441XZIYRSPOBYRKFEDF","A2M2U7XUBA4CAN","3UUIU9GZC5R93N292LT21FRJ9VS5TN","","129.69999998807907","img/flower4.png","76","130.19999998807907","3","1","2","1","1,0.333,0.333,0.333,1,0.333,0.333,0.333,1","1,0.333,0.333,0.333,1,0.333,0.333,0.333,1","1",""
"","html-keyboard-response","297","79559","0.0-297.0","326O153BMJK441XZIYRSPOBYRKFEDF","A2M2U7XUBA4CAN","3UUIU9GZC5R93N292LT21FRJ9VS5TN","","null","<img src=""img/flower4.png"" style=""width:200px; border:14px solid green;"">","null","","","","","","","","",""
"","image-keyboard-response","298","79649","0.0-298.0","326O153BMJK441XZIYRSPOBYRKFEDF","A2M2U7XUBA4CAN","3UUIU9GZC5R93N292LT21FRJ9VS5TN","","89.30000001192093","img/flower4.png","75","89.90000003576279","2","1","2","1","1,0.333,0.333,0.333,1,0.333,0.333,0.333,1","1,0.333,0.333,0.333,1,0.333,0.333,0.333,1","1",""
"","html-keyboard-response","299","79950","0.0-299.0","326O153BMJK441XZIYRSPOBYRKFEDF","A2M2U7XUBA4CAN","3UUIU9GZC5R93N292LT21FRJ9VS5TN","","null","<img src=""img/flower4.png"" style=""width:200px; border:14px solid green;"">","null","","","","","","","","",""
"","image-keyboard-response","300","80289","0.0-300.0","326O153BMJK441XZIYRSPOBYRKFEDF","A2M2U7XUBA4CAN","3UUIU9GZC5R93N292LT21FRJ9VS5TN","","338.60000002384186","img/flower4.png","75","339","2","1","2","1","1,0.333,0.333,0.333,1,0.333,0.333,0.333,1","1,0.333,0.333,0.333,1,0.333,0.333,0.333,1","1",""
"","html-keyboard-response","301","80591","0.0-301.0","326O153BMJK441XZIYRSPOBYRKFEDF","A2M2U7XUBA4CAN","3UUIU9GZC5R93N292LT21FRJ9VS5TN","","null","<img src=""img/flower4.png"" style=""width:200px; border:14px solid green;"">","null","","","","","","","","",""
"","image-keyboard-response","302","80681","0.0-302.0","326O153BMJK441XZIYRSPOBYRKFEDF","A2M2U7XUBA4CAN","3UUIU9GZC5R93N292LT21FRJ9VS5TN","","90.30000001192093","img/flower6.png","74","90.80000001192093","1","1","1","1","1,0.333,0.333,0.333,1,0.333,0.333,0.333,1","1,0.333,0.333,0.333,1,0.333,0.333,0.333,1","1",""
"","html-keyboard-response","303","80983","0.0-303.0","326O153BMJK441XZIYRSPOBYRKFEDF","A2M2U7XUBA4CAN","3UUIU9GZC5R93N292LT21FRJ9VS5TN","","null","<img src=""img/flower6.png"" style=""width:200px; border:14px solid green;"">","null","","","","","","","","",""
"","image-keyboard-response","304","81105","0.0-304.0","326O153BMJK441XZIYRSPOBYRKFEDF","A2M2U7XUBA4CAN","3UUIU9GZC5R93N292LT21FRJ9VS5TN","","121.30000001192093","img/flower4.png","76","121.89999997615814","3","0","2","1","1,0.333,0.333,0.333,1,0.333,0.333,0.333,1","1,0.333,0.333,0.333,1,0.333,0.333,0.333,1","1",""
"","html-keyboard-response","305","81407","0.0-305.0","326O153BMJK441XZIYRSPOBYRKFEDF","A2M2U7XUBA4CAN","3UUIU9GZC5R93N292LT21FRJ9VS5TN","","null","<img src=""img/flower4.png"" style=""width:200px;border:14px solid red;"">","null","","","","","","","","",""
"","image-keyboard-response","306","81457","0.0-306.0","326O153BMJK441XZIYRSPOBYRKFEDF","A2M2U7XUBA4CAN","3UUIU9GZC5R93N292LT21FRJ9VS5TN","","49.09999996423721","img/flower4.png","74","49.60000002384186","1","1","2","1","1,0.333,0.333,0.333,1,0.333,0.333,0.333,1","1,0.333,0.333,0.333,1,0.333,0.333,0.333,1","1",""
"","html-keyboard-response","307","81758","0.0-307.0","326O153BMJK441XZIYRSPOBYRKFEDF","A2M2U7XUBA4CAN","3UUIU9GZC5R93N292LT21FRJ9VS5TN","","null","<img src=""img/flower4.png"" style=""width:200px; border:14px solid green;"">","null","","","","","","","","",""
"","image-keyboard-response","308","81929","0.0-308.0","326O153BMJK441XZIYRSPOBYRKFEDF","A2M2U7XUBA4CAN","3UUIU9GZC5R93N292LT21FRJ9VS5TN","","170.89999997615814","img/flower4.png","74","171.5999999642372","1","0","2","1","1,0.333,0.333,0.333,1,0.333,0.333,0.333,1","1,0.333,0.333,0.333,1,0.333,0.333,0.333,1","1",""
"","html-keyboard-response","309","82231","0.0-309.0","326O153BMJK441XZIYRSPOBYRKFEDF","A2M2U7XUBA4CAN","3UUIU9GZC5R93N292LT21FRJ9VS5TN","","null","<img src=""img/flower4.png"" style=""width:200px;border:14px solid red;"">","null","","","","","","","","",""
"","image-keyboard-response","310","82305","0.0-310.0","326O153BMJK441XZIYRSPOBYRKFEDF","A2M2U7XUBA4CAN","3UUIU9GZC5R93N292LT21FRJ9VS5TN","","73.19999998807907","img/flower6.png","74","73.70000004768372","1","1","1","1","1,0.333,0.333,0.333,1,0.333,0.333,0.333,1","1,0.333,0.333,0.333,1,0.333,0.333,0.333,1","1",""
"","html-keyboard-response","311","82606","0.0-311.0","326O153BMJK441XZIYRSPOBYRKFEDF","A2M2U7XUBA4CAN","3UUIU9GZC5R93N292LT21FRJ9VS5TN","","null","<img src=""img/flower6.png"" style=""width:200px; border:14px solid green;"">","null","","","","","","","","",""
"","image-keyboard-response","312","82801","0.0-312.0","326O153BMJK441XZIYRSPOBYRKFEDF","A2M2U7XUBA4CAN","3UUIU9GZC5R93N292LT21FRJ9VS5TN","","194.30000001192093","img/flower1.png","75","194.9000000357628","2","0","3","1","1,0.333,0.333,0.333,1,0.333,0.333,0.333,1","1,0.333,0.333,0.333,1,0.333,0.333,0.333,1","1",""
"","html-keyboard-response","313","83102","0.0-313.0","326O153BMJK441XZIYRSPOBYRKFEDF","A2M2U7XUBA4CAN","3UUIU9GZC5R93N292LT21FRJ9VS5TN","","null","<img src=""img/flower1.png"" style=""width:200px;border:14px solid red;"">","null","","","","","","","","",""
"","image-keyboard-response","314","83153","0.0-314.0","326O153BMJK441XZIYRSPOBYRKFEDF","A2M2U7XUBA4CAN","3UUIU9GZC5R93N292LT21FRJ9VS5TN","","50.40000003576279","img/flower1.png","74","51","1","1","3","1","1,0.333,0.333,0.333,1,0.333,0.333,0.333,1","1,0.333,0.333,0.333,1,0.333,0.333,0.333,1","1",""
"","html-keyboard-response","315","83455","0.0-315.0","326O153BMJK441XZIYRSPOBYRKFEDF","A2M2U7XUBA4CAN","3UUIU9GZC5R93N292LT21FRJ9VS5TN","","null","<img src=""img/flower1.png"" style=""width:200px; border:14px solid green;"">","null","","","","","","","","",""
"","image-keyboard-response","316","83633","0.0-316.0","326O153BMJK441XZIYRSPOBYRKFEDF","A2M2U7XUBA4CAN","3UUIU9GZC5R93N292LT21FRJ9VS5TN","","177.5","img/flower4.png","75","178.10000002384186","2","1","2","1","1,0.333,0.333,0.333,1,0.333,0.333,0.333,1","1,0.333,0.333,0.333,1,0.333,0.333,0.333,1","1",""
"","html-keyboard-response","317","83935","0.0-317.0","326O153BMJK441XZIYRSPOBYRKFEDF","A2M2U7XUBA4CAN","3UUIU9GZC5R93N292LT21FRJ9VS5TN","","null","<img src=""img/flower4.png"" style=""width:200px; border:14px solid green;"">","null","","","","","","","","",""
"","image-keyboard-response","318","83993","0.0-318.0","326O153BMJK441XZIYRSPOBYRKFEDF","A2M2U7XUBA4CAN","3UUIU9GZC5R93N292LT21FRJ9VS5TN","","57.299999952316284","img/flower1.png","74","57.90000003576279","1","1","3","1","1,0.333,0.333,0.333,1,0.333,0.333,0.333,1","1,0.333,0.333,0.333,1,0.333,0.333,0.333,1","1",""
"","html-keyboard-response","319","84296","0.0-319.0","326O153BMJK441XZIYRSPOBYRKFEDF","A2M2U7XUBA4CAN","3UUIU9GZC5R93N292LT21FRJ9VS5TN","","null","<img src=""img/flower1.png"" style=""width:200px; border:14px solid green;"">","null","","","","","","","","",""
"","image-keyboard-response","320","84449","0.0-320.0","326O153BMJK441XZIYRSPOBYRKFEDF","A2M2U7XUBA4CAN","3UUIU9GZC5R93N292LT21FRJ9VS5TN","","152.0999999642372","img/flower4.png","74","152.80000001192093","1","0","2","1","1,0.333,0.333,0.333,1,0.333,0.333,0.333,1","1,0.333,0.333,0.333,1,0.333,0.333,0.333,1","1",""
"","html-keyboard-response","321","84751","0.0-321.0","326O153BMJK441XZIYRSPOBYRKFEDF","A2M2U7XUBA4CAN","3UUIU9GZC5R93N292LT21FRJ9VS5TN","","null","<img src=""img/flower4.png"" style=""width:200px;border:14px solid red;"">","null","","","","","","","","",""
"","image-keyboard-response","322","84874","0.0-322.0","326O153BMJK441XZIYRSPOBYRKFEDF","A2M2U7XUBA4CAN","3UUIU9GZC5R93N292LT21FRJ9VS5TN","","121.5","img/flower4.png","74","122.30000001192093","1","0","2","1","1,0.333,0.333,0.333,1,0.333,0.333,0.333,1","1,0.333,0.333,0.333,1,0.333,0.333,0.333,1","1",""
"","html-keyboard-response","323","85175","0.0-323.0","326O153BMJK441XZIYRSPOBYRKFEDF","A2M2U7XUBA4CAN","3UUIU9GZC5R93N292LT21FRJ9VS5TN","","null","<img src=""img/flower4.png"" style=""width:200px;border:14px solid red;"">","null","","","","","","","","",""
"","image-keyboard-response","324","85329","0.0-324.0","326O153BMJK441XZIYRSPOBYRKFEDF","A2M2U7XUBA4CAN","3UUIU9GZC5R93N292LT21FRJ9VS5TN","","153.89999997615814","img/flower4.png","74","154.5","1","0","2","1","1,0.333,0.333,0.333,1,0.333,0.333,0.333,1","1,0.333,0.333,0.333,1,0.333,0.333,0.333,1","1",""
"","html-keyboard-response","325","85632","0.0-325.0","326O153BMJK441XZIYRSPOBYRKFEDF","A2M2U7XUBA4CAN","3UUIU9GZC5R93N292LT21FRJ9VS5TN","","null","<img src=""img/flower4.png"" style=""width:200px;border:14px solid red;"">","null","","","","","","","","",""
"","image-keyboard-response","326","85889","0.0-326.0","326O153BMJK441XZIYRSPOBYRKFEDF","A2M2U7XUBA4CAN","3UUIU9GZC5R93N292LT21FRJ9VS5TN","","256.7999999523163","img/flower1.png","75","257.5","2","0","3","1","1,0.333,0.333,0.333,1,0.333,0.333,0.333,1","1,0.333,0.333,0.333,1,0.333,0.333,0.333,1","1",""
"","html-keyboard-response","327","86191","0.0-327.0","326O153BMJK441XZIYRSPOBYRKFEDF","A2M2U7XUBA4CAN","3UUIU9GZC5R93N292LT21FRJ9VS5TN","","null","<img src=""img/flower1.png"" style=""width:200px;border:14px solid red;"">","null","","","","","","","","",""
"","image-keyboard-response","328","86322","0.0-328.0","326O153BMJK441XZIYRSPOBYRKFEDF","A2M2U7XUBA4CAN","3UUIU9GZC5R93N292LT21FRJ9VS5TN","","129.5","img/flower1.png","74","130.30000001192093","1","0","3","1","1,0.333,0.333,0.333,1,0.333,0.333,0.333,1","1,0.333,0.333,0.333,1,0.333,0.333,0.333,1","1",""
"","html-keyboard-response","329","86622","0.0-329.0","326O153BMJK441XZIYRSPOBYRKFEDF","A2M2U7XUBA4CAN","3UUIU9GZC5R93N292LT21FRJ9VS5TN","","null","<img src=""img/flower1.png"" style=""width:200px;border:14px solid red;"">","null","","","","","","","","",""
"","image-keyboard-response","330","86769","0.0-330.0","326O153BMJK441XZIYRSPOBYRKFEDF","A2M2U7XUBA4CAN","3UUIU9GZC5R93N292LT21FRJ9VS5TN","","146.5","img/flower6.png","74","147.0999999642372","1","1","1","1","1,0.333,0.333,0.333,1,0.333,0.333,0.333,1","1,0.333,0.333,0.333,1,0.333,0.333,0.333,1","1",""
"","html-keyboard-response","331","87071","0.0-331.0","326O153BMJK441XZIYRSPOBYRKFEDF","A2M2U7XUBA4CAN","3UUIU9GZC5R93N292LT21FRJ9VS5TN","","null","<img src=""img/flower6.png"" style=""width:200px; border:14px solid green;"">","null","","","","","","","","",""
"","image-keyboard-response","332","87242","0.0-332.0","326O153BMJK441XZIYRSPOBYRKFEDF","A2M2U7XUBA4CAN","3UUIU9GZC5R93N292LT21FRJ9VS5TN","","169.5999999642372","img/flower4.png","75","170.19999998807907","2","1","2","1","1,0.333,0.333,0.333,1,0.333,0.333,0.333,1","1,0.333,0.333,0.333,1,0.333,0.333,0.333,1","1",""
"","html-keyboard-response","333","87543","0.0-333.0","326O153BMJK441XZIYRSPOBYRKFEDF","A2M2U7XUBA4CAN","3UUIU9GZC5R93N292LT21FRJ9VS5TN","","null","<img src=""img/flower4.png"" style=""width:200px; border:14px solid green;"">","null","","","","","","","","",""
"","image-keyboard-response","334","87593","0.0-334.0","326O153BMJK441XZIYRSPOBYRKFEDF","A2M2U7XUBA4CAN","3UUIU9GZC5R93N292LT21FRJ9VS5TN","","49.30000001192093","img/flower6.png","75","49.80000001192093","2","1","1","1","1,0.333,0.333,0.333,1,0.333,0.333,0.333,1","1,0.333,0.333,0.333,1,0.333,0.333,0.333,1","1",""
"","html-keyboard-response","335","87894","0.0-335.0","326O153BMJK441XZIYRSPOBYRKFEDF","A2M2U7XUBA4CAN","3UUIU9GZC5R93N292LT21FRJ9VS5TN","","null","<img src=""img/flower6.png"" style=""width:200px; border:14px solid green;"">","null","","","","","","","","",""
"","image-keyboard-response","336","87905","0.0-336.0","326O153BMJK441XZIYRSPOBYRKFEDF","A2M2U7XUBA4CAN","3UUIU9GZC5R93N292LT21FRJ9VS5TN","","10.399999976158142","img/flower6.png","76","10.899999976158142","3","0","1","1","1,0.333,0.333,0.333,1,0.333,0.333,0.333,1","1,0.333,0.333,0.333,1,0.333,0.333,0.333,1","1",""
"","html-keyboard-response","337","88207","0.0-337.0","326O153BMJK441XZIYRSPOBYRKFEDF","A2M2U7XUBA4CAN","3UUIU9GZC5R93N292LT21FRJ9VS5TN","","null","<img src=""img/flower6.png"" style=""width:200px;border:14px solid red;"">","null","","","","","","","","",""
"","image-keyboard-response","338","88281","0.0-338.0","326O153BMJK441XZIYRSPOBYRKFEDF","A2M2U7XUBA4CAN","3UUIU9GZC5R93N292LT21FRJ9VS5TN","","73.70000004768372","img/flower1.png","76","74.19999998807907","3","1","3","1","1,0.333,0.333,0.333,1,0.333,0.333,0.333,1","1,0.333,0.333,0.333,1,0.333,0.333,0.333,1","1",""
"","html-keyboard-response","339","88583","0.0-339.0","326O153BMJK441XZIYRSPOBYRKFEDF","A2M2U7XUBA4CAN","3UUIU9GZC5R93N292LT21FRJ9VS5TN","","null","<img src=""img/flower1.png"" style=""width:200px; border:14px solid green;"">","null","","","","","","","","",""
"","image-keyboard-response","340","88649","0.0-340.0","326O153BMJK441XZIYRSPOBYRKFEDF","A2M2U7XUBA4CAN","3UUIU9GZC5R93N292LT21FRJ9VS5TN","","65.5","img/flower4.png","76","66.20000004768372","3","0","2","1","1,0.333,0.333,0.333,1,0.333,0.333,0.333,1","1,0.333,0.333,0.333,1,0.333,0.333,0.333,1","1",""
"","html-keyboard-response","341","88952","0.0-341.0","326O153BMJK441XZIYRSPOBYRKFEDF","A2M2U7XUBA4CAN","3UUIU9GZC5R93N292LT21FRJ9VS5TN","","null","<img src=""img/flower4.png"" style=""width:200px;border:14px solid red;"">","null","","","","","","","","",""
"","image-keyboard-response","342","88993","0.0-342.0","326O153BMJK441XZIYRSPOBYRKFEDF","A2M2U7XUBA4CAN","3UUIU9GZC5R93N292LT21FRJ9VS5TN","","39.89999997615814","img/flower6.png","75","40.40000003576279","2","1","1","1","1,0.333,0.333,0.333,1,0.333,0.333,0.333,1","1,0.333,0.333,0.333,1,0.333,0.333,0.333,1","1",""
"","html-keyboard-response","343","89296","0.0-343.0","326O153BMJK441XZIYRSPOBYRKFEDF","A2M2U7XUBA4CAN","3UUIU9GZC5R93N292LT21FRJ9VS5TN","","null","<img src=""img/flower6.png"" style=""width:200px; border:14px solid green;"">","null","","","","","","","","",""
"","image-keyboard-response","344","89297","0.0-344.0","326O153BMJK441XZIYRSPOBYRKFEDF","A2M2U7XUBA4CAN","3UUIU9GZC5R93N292LT21FRJ9VS5TN","","1.2000000476837158","img/flower4.png","74","1.699999988079071","1","1","2","1","1,0.333,0.333,0.333,1,0.333,0.333,0.333,1","1,0.333,0.333,0.333,1,0.333,0.333,0.333,1","1",""
"","html-keyboard-response","345","89598","0.0-345.0","326O153BMJK441XZIYRSPOBYRKFEDF","A2M2U7XUBA4CAN","3UUIU9GZC5R93N292LT21FRJ9VS5TN","","null","<img src=""img/flower4.png"" style=""width:200px; border:14px solid green;"">","null","","","","","","","","",""
"","image-keyboard-response","346","89713","0.0-346.0","326O153BMJK441XZIYRSPOBYRKFEDF","A2M2U7XUBA4CAN","3UUIU9GZC5R93N292LT21FRJ9VS5TN","","114.20000004768372","img/flower4.png","74","114.80000001192093","1","0","2","1","1,0.333,0.333,0.333,1,0.333,0.333,0.333,1","1,0.333,0.333,0.333,1,0.333,0.333,0.333,1","1",""
"","html-keyboard-response","347","90015","0.0-347.0","326O153BMJK441XZIYRSPOBYRKFEDF","A2M2U7XUBA4CAN","3UUIU9GZC5R93N292LT21FRJ9VS5TN","","null","<img src=""img/flower4.png"" style=""width:200px;border:14px solid red;"">","null","","","","","","","","",""
"","image-keyboard-response","348","90041","0.0-348.0","326O153BMJK441XZIYRSPOBYRKFEDF","A2M2U7XUBA4CAN","3UUIU9GZC5R93N292LT21FRJ9VS5TN","","25.5","img/flower1.png","74","26.19999998807907","1","1","3","1","1,0.333,0.333,0.333,1,0.333,0.333,0.333,1","1,0.333,0.333,0.333,1,0.333,0.333,0.333,1","1",""
"","html-keyboard-response","349","90343","0.0-349.0","326O153BMJK441XZIYRSPOBYRKFEDF","A2M2U7XUBA4CAN","3UUIU9GZC5R93N292LT21FRJ9VS5TN","","null","<img src=""img/flower1.png"" style=""width:200px; border:14px solid green;"">","null","","","","","","","","",""
"","image-keyboard-response","350","90377","0.0-350.0","326O153BMJK441XZIYRSPOBYRKFEDF","A2M2U7XUBA4CAN","3UUIU9GZC5R93N292LT21FRJ9VS5TN","","33.5","img/flower1.png","75","34","2","1","3","1","1,0.333,0.333,0.333,1,0.333,0.333,0.333,1","1,0.333,0.333,0.333,1,0.333,0.333,0.333,1","1",""
"","html-keyboard-response","351","90679","0.0-351.0","326O153BMJK441XZIYRSPOBYRKFEDF","A2M2U7XUBA4CAN","3UUIU9GZC5R93N292LT21FRJ9VS5TN","","null","<img src=""img/flower1.png"" style=""width:200px; border:14px solid green;"">","null","","","","","","","","",""
"","image-keyboard-response","352","90849","0.0-352.0","326O153BMJK441XZIYRSPOBYRKFEDF","A2M2U7XUBA4CAN","3UUIU9GZC5R93N292LT21FRJ9VS5TN","","169.30000001192093","img/flower6.png","76","170.4000000357628","3","1","1","1","1,0.333,0.333,0.333,1,0.333,0.333,0.333,1","1,0.333,0.333,0.333,1,0.333,0.333,0.333,1","1",""
"","html-keyboard-response","353","91151","0.0-353.0","326O153BMJK441XZIYRSPOBYRKFEDF","A2M2U7XUBA4CAN","3UUIU9GZC5R93N292LT21FRJ9VS5TN","","null","<img src=""img/flower6.png"" style=""width:200px; border:14px solid green;"">","null","","","","","","","","",""
"","image-keyboard-response","354","91169","0.0-354.0","326O153BMJK441XZIYRSPOBYRKFEDF","A2M2U7XUBA4CAN","3UUIU9GZC5R93N292LT21FRJ9VS5TN","","17.69999998807907","img/flower6.png","75","18.30000001192093","2","0","1","1","1,0.333,0.333,0.333,1,0.333,0.333,0.333,1","1,0.333,0.333,0.333,1,0.333,0.333,0.333,1","1",""
"","html-keyboard-response","355","91472","0.0-355.0","326O153BMJK441XZIYRSPOBYRKFEDF","A2M2U7XUBA4CAN","3UUIU9GZC5R93N292LT21FRJ9VS5TN","","null","<img src=""img/flower6.png"" style=""width:200px;border:14px solid red;"">","null","","","","","","","","",""
"","image-keyboard-response","356","91473","0.0-356.0","326O153BMJK441XZIYRSPOBYRKFEDF","A2M2U7XUBA4CAN","3UUIU9GZC5R93N292LT21FRJ9VS5TN","","1.0999999642372131","img/flower1.png","75","1.5","2","0","3","1","1,0.333,0.333,0.333,1,0.333,0.333,0.333,1","1,0.333,0.333,0.333,1,0.333,0.333,0.333,1","1",""
"","html-keyboard-response","357","91774","0.0-357.0","326O153BMJK441XZIYRSPOBYRKFEDF","A2M2U7XUBA4CAN","3UUIU9GZC5R93N292LT21FRJ9VS5TN","","null","<img src=""img/flower1.png"" style=""width:200px;border:14px solid red;"">","null","","","","","","","","",""
"","image-keyboard-response","358","91785","0.0-358.0","326O153BMJK441XZIYRSPOBYRKFEDF","A2M2U7XUBA4CAN","3UUIU9GZC5R93N292LT21FRJ9VS5TN","","10.199999988079071","img/flower6.png","74","10.899999976158142","1","1","1","1","1,0.333,0.333,0.333,1,0.333,0.333,0.333,1","1,0.333,0.333,0.333,1,0.333,0.333,0.333,1","1",""
"","html-keyboard-response","359","92086","0.0-359.0","326O153BMJK441XZIYRSPOBYRKFEDF","A2M2U7XUBA4CAN","3UUIU9GZC5R93N292LT21FRJ9VS5TN","","null","<img src=""img/flower6.png"" style=""width:200px; border:14px solid green;"">","null","","","","","","","","",""
"","image-keyboard-response","360","92089","0.0-360.0","326O153BMJK441XZIYRSPOBYRKFEDF","A2M2U7XUBA4CAN","3UUIU9GZC5R93N292LT21FRJ9VS5TN","","2.600000023841858","img/flower6.png","74","3.300000011920929","1","1","1","1","1,0.333,0.333,0.333,1,0.333,0.333,0.333,1","1,0.333,0.333,0.333,1,0.333,0.333,0.333,1","1",""
"","html-keyboard-response","361","92392","0.0-361.0","326O153BMJK441XZIYRSPOBYRKFEDF","A2M2U7XUBA4CAN","3UUIU9GZC5R93N292LT21FRJ9VS5TN","","null","<img src=""img/flower6.png"" style=""width:200px; border:14px solid green;"">","null","","","","","","","","",""
"","html-keyboard-response","362","94543","0.0-362.0","326O153BMJK441XZIYRSPOBYRKFEDF","A2M2U7XUBA4CAN","3UUIU9GZC5R93N292LT21FRJ9VS5TN","","","","","","","","","","","","",""
"","instructions","363","95261","0.0-363.0","326O153BMJK441XZIYRSPOBYRKFEDF","A2M2U7XUBA4CAN","3UUIU9GZC5R93N292LT21FRJ9VS5TN","[{""page_index"":0,""viewing_time"":717.6000000238419}]","717.8000000119209","","","","","","","","","","",""
"","survey-text","364","101780","0.0-364.0","326O153BMJK441XZIYRSPOBYRKFEDF","A2M2U7XUBA4CAN","3UUIU9GZC5R93N292LT21FRJ9VS5TN","","6517.399999976158","","","","","","","","","","","{""Q0"":""A2M2U7XUBA4CAN""}"
