"success","trial_type","trial_index","time_elapsed","internal_node_id","assignmentID","mturkID","hitID","view_history","rt","stimulus","key_press","reactionTime","a","r","s","cond","reward_cond","reward_cond_actual","reward_matrix_idx","responses"
"true","fullscreen","0","3566","0.0-0.0","3AZHRG4CU567VJG8H2M1RQNI67R03U","A2MJ0X6M3VSFVN","3WRBLBQ2GRU63BU2LFOJL1G32T90GO","","","","","","","","","","","","",""
"","instructions","1","27530","0.0-1.0","3AZHRG4CU567VJG8H2M1RQNI67R03U","A2MJ0X6M3VSFVN","3WRBLBQ2GRU63BU2LFOJL1G32T90GO","[{""page_index"":0,""viewing_time"":7956.799999982119},{""page_index"":1,""viewing_time"":1435},{""page_index"":2,""viewing_time"":913.4000000059605},{""page_index"":3,""viewing_time"":646.4000000059605},{""page_index"":4,""viewing_time"":3885.800000011921},{""page_index"":5,""viewing_time"":2810.5},{""page_index"":6,""viewing_time"":3300},{""page_index"":7,""viewing_time"":2997.399999976158}]","23952.09999999404","","","","","","","","","","",""
"","image-keyboard-response","2","28738","0.0-2.0","3AZHRG4CU567VJG8H2M1RQNI67R03U","A2MJ0X6M3VSFVN","3WRBLBQ2GRU63BU2LFOJL1G32T90GO","","1201.800000011921","img/flower1.png","74","1207.5","1","0","3","1","1,0.333,0.333,0.333,1,0.333,0.333,0.333,1","1,0.333,0.333,0.333,1,0.333,0.333,0.333,1","1",""
"","html-keyboard-response","3","29047","0.0-3.0","3AZHRG4CU567VJG8H2M1RQNI67R03U","A2MJ0X6M3VSFVN","3WRBLBQ2GRU63BU2LFOJL1G32T90GO","","null","<img src=""img/flower1.png"" style=""width:200px;border:14px solid red;"">","null","","","","","","","","",""
"","image-keyboard-response","4","29500","0.0-4.0","3AZHRG4CU567VJG8H2M1RQNI67R03U","A2MJ0X6M3VSFVN","3WRBLBQ2GRU63BU2LFOJL1G32T90GO","","441.2999999821186","img/flower4.png","75","446","2","1","1","1","1,0.333,0.333,0.333,1,0.333,0.333,0.333,1","1,0.333,0.333,0.333,1,0.333,0.333,0.333,1","1",""
"","html-keyboard-response","5","29808","0.0-5.0","3AZHRG4CU567VJG8H2M1RQNI67R03U","A2MJ0X6M3VSFVN","3WRBLBQ2GRU63BU2LFOJL1G32T90GO","","null","<img src=""img/flower4.png"" style=""width:200px; border:14px solid green;"">","null","","","","","","","","",""
"","image-keyboard-response","6","30151","0.0-6.0","3AZHRG4CU567VJG8H2M1RQNI67R03U","A2MJ0X6M3VSFVN","3WRBLBQ2GRU63BU2LFOJL1G32T90GO","","333.59999999403954","img/flower3.png","76","340.39999997615814","3","0","2","1","1,0.333,0.333,0.333,1,0.333,0.333,0.333,1","1,0.333,0.333,0.333,1,0.333,0.333,0.333,1","1",""
"","html-keyboard-response","7","30455","0.0-7.0","3AZHRG4CU567VJG8H2M1RQNI67R03U","A2MJ0X6M3VSFVN","3WRBLBQ2GRU63BU2LFOJL1G32T90GO","","null","<img src=""img/flower3.png"" style=""width:200px;border:14px solid red;"">","null","","","","","","","","",""
"","image-keyboard-response","8","31675","0.0-8.0","3AZHRG4CU567VJG8H2M1RQNI67R03U","A2MJ0X6M3VSFVN","3WRBLBQ2GRU63BU2LFOJL1G32T90GO","","1214","img/flower1.png","74","1220.300000011921","1","0","3","1","1,0.333,0.333,0.333,1,0.333,0.333,0.333,1","1,0.333,0.333,0.333,1,0.333,0.333,0.333,1","1",""
"","html-keyboard-response","9","31982","0.0-9.0","3AZHRG4CU567VJG8H2M1RQNI67R03U","A2MJ0X6M3VSFVN","3WRBLBQ2GRU63BU2LFOJL1G32T90GO","","null","<img src=""img/flower1.png"" style=""width:200px;border:14px solid red;"">","null","","","","","","","","",""
"","image-keyboard-response","10","32379","0.0-10.0","3AZHRG4CU567VJG8H2M1RQNI67R03U","A2MJ0X6M3VSFVN","3WRBLBQ2GRU63BU2LFOJL1G32T90GO","","386.5","img/flower1.png","76","394","3","1","3","1","1,0.333,0.333,0.333,1,0.333,0.333,0.333,1","1,0.333,0.333,0.333,1,0.333,0.333,0.333,1","1",""
"","html-keyboard-response","11","32686","0.0-11.0","3AZHRG4CU567VJG8H2M1RQNI67R03U","A2MJ0X6M3VSFVN","3WRBLBQ2GRU63BU2LFOJL1G32T90GO","","null","<img src=""img/flower1.png"" style=""width:200px; border:14px solid green;"">","null","","","","","","","","",""
"","image-keyboard-response","12","33075","0.0-12.0","3AZHRG4CU567VJG8H2M1RQNI67R03U","A2MJ0X6M3VSFVN","3WRBLBQ2GRU63BU2LFOJL1G32T90GO","","381.59999999403954","img/flower4.png","76","387.2999999821186","3","0","1","1","1,0.333,0.333,0.333,1,0.333,0.333,0.333,1","1,0.333,0.333,0.333,1,0.333,0.333,0.333,1","1",""
"","html-keyboard-response","13","33380","0.0-13.0","3AZHRG4CU567VJG8H2M1RQNI67R03U","A2MJ0X6M3VSFVN","3WRBLBQ2GRU63BU2LFOJL1G32T90GO","","null","<img src=""img/flower4.png"" style=""width:200px;border:14px solid red;"">","null","","","","","","","","",""
"","image-keyboard-response","14","34938","0.0-14.0","3AZHRG4CU567VJG8H2M1RQNI67R03U","A2MJ0X6M3VSFVN","3WRBLBQ2GRU63BU2LFOJL1G32T90GO","","1550.4000000059605","img/flower4.png","76","1557","3","0","1","1","1,0.333,0.333,0.333,1,0.333,0.333,0.333,1","1,0.333,0.333,0.333,1,0.333,0.333,0.333,1","1",""
"","html-keyboard-response","15","35247","0.0-15.0","3AZHRG4CU567VJG8H2M1RQNI67R03U","A2MJ0X6M3VSFVN","3WRBLBQ2GRU63BU2LFOJL1G32T90GO","","null","<img src=""img/flower4.png"" style=""width:200px;border:14px solid red;"">","null","","","","","","","","",""
"","image-keyboard-response","16","35525","0.0-16.0","3AZHRG4CU567VJG8H2M1RQNI67R03U","A2MJ0X6M3VSFVN","3WRBLBQ2GRU63BU2LFOJL1G32T90GO","","271.39999997615814","img/flower1.png","76","277.09999999403954","3","1","3","1","1,0.333,0.333,0.333,1,0.333,0.333,0.333,1","1,0.333,0.333,0.333,1,0.333,0.333,0.333,1","1",""
"","html-keyboard-response","17","35832","0.0-17.0","3AZHRG4CU567VJG8H2M1RQNI67R03U","A2MJ0X6M3VSFVN","3WRBLBQ2GRU63BU2LFOJL1G32T90GO","","null","<img src=""img/flower1.png"" style=""width:200px; border:14px solid green;"">","null","","","","","","","","",""
"","image-keyboard-response","18","36298","0.0-18.0","3AZHRG4CU567VJG8H2M1RQNI67R03U","A2MJ0X6M3VSFVN","3WRBLBQ2GRU63BU2LFOJL1G32T90GO","","460.40000000596046","img/flower4.png","74","465.2000000178814","1","1","1","1","1,0.333,0.333,0.333,1,0.333,0.333,0.333,1","1,0.333,0.333,0.333,1,0.333,0.333,0.333,1","1",""
"","html-keyboard-response","19","36602","0.0-19.0","3AZHRG4CU567VJG8H2M1RQNI67R03U","A2MJ0X6M3VSFVN","3WRBLBQ2GRU63BU2LFOJL1G32T90GO","","null","<img src=""img/flower4.png"" style=""width:200px; border:14px solid green;"">","null","","","","","","","","",""
"","image-keyboard-response","20","36924","0.0-20.0","3AZHRG4CU567VJG8H2M1RQNI67R03U","A2MJ0X6M3VSFVN","3WRBLBQ2GRU63BU2LFOJL1G32T90GO","","313.80000001192093","img/flower1.png","74","320.09999999403954","1","0","3","1","1,0.333,0.333,0.333,1,0.333,0.333,0.333,1","1,0.333,0.333,0.333,1,0.333,0.333,0.333,1","1",""
"","html-keyboard-response","21","37230","0.0-21.0","3AZHRG4CU567VJG8H2M1RQNI67R03U","A2MJ0X6M3VSFVN","3WRBLBQ2GRU63BU2LFOJL1G32T90GO","","null","<img src=""img/flower1.png"" style=""width:200px;border:14px solid red;"">","null","","","","","","","","",""
"","image-keyboard-response","22","37624","0.0-22.0","3AZHRG4CU567VJG8H2M1RQNI67R03U","A2MJ0X6M3VSFVN","3WRBLBQ2GRU63BU2LFOJL1G32T90GO","","386.7000000178814","img/flower1.png","75","392.59999999403954","2","0","3","1","1,0.333,0.333,0.333,1,0.333,0.333,0.333,1","1,0.333,0.333,0.333,1,0.333,0.333,0.333,1","1",""
"","html-keyboard-response","23","37934","0.0-23.0","3AZHRG4CU567VJG8H2M1RQNI67R03U","A2MJ0X6M3VSFVN","3WRBLBQ2GRU63BU2LFOJL1G32T90GO","","null","<img src=""img/flower1.png"" style=""width:200px;border:14px solid red;"">","null","","","","","","","","",""
"","image-keyboard-response","24","38124","0.0-24.0","3AZHRG4CU567VJG8H2M1RQNI67R03U","A2MJ0X6M3VSFVN","3WRBLBQ2GRU63BU2LFOJL1G32T90GO","","182.30000001192093","img/flower1.png","76","188.90000000596046","3","1","3","1","1,0.333,0.333,0.333,1,0.333,0.333,0.333,1","1,0.333,0.333,0.333,1,0.333,0.333,0.333,1","1",""
"","html-keyboard-response","25","38431","0.0-25.0","3AZHRG4CU567VJG8H2M1RQNI67R03U","A2MJ0X6M3VSFVN","3WRBLBQ2GRU63BU2LFOJL1G32T90GO","","null","<img src=""img/flower1.png"" style=""width:200px; border:14px solid green;"">","null","","","","","","","","",""
"","image-keyboard-response","26","38767","0.0-26.0","3AZHRG4CU567VJG8H2M1RQNI67R03U","A2MJ0X6M3VSFVN","3WRBLBQ2GRU63BU2LFOJL1G32T90GO","","326.59999999403954","img/flower3.png","74","333.5","1","0","2","1","1,0.333,0.333,0.333,1,0.333,0.333,0.333,1","1,0.333,0.333,0.333,1,0.333,0.333,0.333,1","1",""
"","html-keyboard-response","27","39073","0.0-27.0","3AZHRG4CU567VJG8H2M1RQNI67R03U","A2MJ0X6M3VSFVN","3WRBLBQ2GRU63BU2LFOJL1G32T90GO","","null","<img src=""img/flower3.png"" style=""width:200px;border:14px solid red;"">","null","","","","","","","","",""
"","image-keyboard-response","28","39309","0.0-28.0","3AZHRG4CU567VJG8H2M1RQNI67R03U","A2MJ0X6M3VSFVN","3WRBLBQ2GRU63BU2LFOJL1G32T90GO","","227.40000000596046","img/flower1.png","76","233.09999999403954","3","1","3","1","1,0.333,0.333,0.333,1,0.333,0.333,0.333,1","1,0.333,0.333,0.333,1,0.333,0.333,0.333,1","1",""
"","html-keyboard-response","29","39614","0.0-29.0","3AZHRG4CU567VJG8H2M1RQNI67R03U","A2MJ0X6M3VSFVN","3WRBLBQ2GRU63BU2LFOJL1G32T90GO","","null","<img src=""img/flower1.png"" style=""width:200px; border:14px solid green;"">","null","","","","","","","","",""
"","image-keyboard-response","30","39774","0.0-30.0","3AZHRG4CU567VJG8H2M1RQNI67R03U","A2MJ0X6M3VSFVN","3WRBLBQ2GRU63BU2LFOJL1G32T90GO","","152.09999999403954","img/flower1.png","76","157.7999999821186","3","1","3","1","1,0.333,0.333,0.333,1,0.333,0.333,0.333,1","1,0.333,0.333,0.333,1,0.333,0.333,0.333,1","1",""
"","html-keyboard-response","31","40080","0.0-31.0","3AZHRG4CU567VJG8H2M1RQNI67R03U","A2MJ0X6M3VSFVN","3WRBLBQ2GRU63BU2LFOJL1G32T90GO","","null","<img src=""img/flower1.png"" style=""width:200px; border:14px solid green;"">","null","","","","","","","","",""
"","image-keyboard-response","32","40598","0.0-32.0","3AZHRG4CU567VJG8H2M1RQNI67R03U","A2MJ0X6M3VSFVN","3WRBLBQ2GRU63BU2LFOJL1G32T90GO","","513.6999999880791","img/flower3.png","76","517.8000000119209","3","0","2","1","1,0.333,0.333,0.333,1,0.333,0.333,0.333,1","1,0.333,0.333,0.333,1,0.333,0.333,0.333,1","1",""
"","html-keyboard-response","33","40902","0.0-33.0","3AZHRG4CU567VJG8H2M1RQNI67R03U","A2MJ0X6M3VSFVN","3WRBLBQ2GRU63BU2LFOJL1G32T90GO","","null","<img src=""img/flower3.png"" style=""width:200px;border:14px solid red;"">","null","","","","","","","","",""
"","image-keyboard-response","34","41219","0.0-34.0","3AZHRG4CU567VJG8H2M1RQNI67R03U","A2MJ0X6M3VSFVN","3WRBLBQ2GRU63BU2LFOJL1G32T90GO","","307.40000000596046","img/flower4.png","75","315.89999997615814","2","1","1","1","1,0.333,0.333,0.333,1,0.333,0.333,0.333,1","1,0.333,0.333,0.333,1,0.333,0.333,0.333,1","1",""
"","html-keyboard-response","35","41528","0.0-35.0","3AZHRG4CU567VJG8H2M1RQNI67R03U","A2MJ0X6M3VSFVN","3WRBLBQ2GRU63BU2LFOJL1G32T90GO","","null","<img src=""img/flower4.png"" style=""width:200px; border:14px solid green;"">","null","","","","","","","","",""
"","image-keyboard-response","36","41914","0.0-36.0","3AZHRG4CU567VJG8H2M1RQNI67R03U","A2MJ0X6M3VSFVN","3WRBLBQ2GRU63BU2LFOJL1G32T90GO","","377.19999998807907","img/flower1.png","75","384.39999997615814","2","0","3","1","1,0.333,0.333,0.333,1,0.333,0.333,0.333,1","1,0.333,0.333,0.333,1,0.333,0.333,0.333,1","1",""
"","html-keyboard-response","37","42222","0.0-37.0","3AZHRG4CU567VJG8H2M1RQNI67R03U","A2MJ0X6M3VSFVN","3WRBLBQ2GRU63BU2LFOJL1G32T90GO","","null","<img src=""img/flower1.png"" style=""width:200px;border:14px solid red;"">","null","","","","","","","","",""
"","image-keyboard-response","38","42279","0.0-38.0","3AZHRG4CU567VJG8H2M1RQNI67R03U","A2MJ0X6M3VSFVN","3WRBLBQ2GRU63BU2LFOJL1G32T90GO","","48","img/flower4.png","74","55.30000001192093","1","1","1","1","1,0.333,0.333,0.333,1,0.333,0.333,0.333,1","1,0.333,0.333,0.333,1,0.333,0.333,0.333,1","1",""
"","html-keyboard-response","39","42586","0.0-39.0","3AZHRG4CU567VJG8H2M1RQNI67R03U","A2MJ0X6M3VSFVN","3WRBLBQ2GRU63BU2LFOJL1G32T90GO","","null","<img src=""img/flower4.png"" style=""width:200px; border:14px solid green;"">","null","","","","","","","","",""
"","image-keyboard-response","40","42843","0.0-40.0","3AZHRG4CU567VJG8H2M1RQNI67R03U","A2MJ0X6M3VSFVN","3WRBLBQ2GRU63BU2LFOJL1G32T90GO","","245.09999999403954","img/flower4.png","74","253.69999998807907","1","1","1","1","1,0.333,0.333,0.333,1,0.333,0.333,0.333,1","1,0.333,0.333,0.333,1,0.333,0.333,0.333,1","1",""
"","html-keyboard-response","41","43150","0.0-41.0","3AZHRG4CU567VJG8H2M1RQNI67R03U","A2MJ0X6M3VSFVN","3WRBLBQ2GRU63BU2LFOJL1G32T90GO","","null","<img src=""img/flower4.png"" style=""width:200px; border:14px solid green;"">","null","","","","","","","","",""
"","image-keyboard-response","42","43164","0.0-42.0","3AZHRG4CU567VJG8H2M1RQNI67R03U","A2MJ0X6M3VSFVN","3WRBLBQ2GRU63BU2LFOJL1G32T90GO","","3.899999976158142","img/flower3.png","75","12.100000023841858","2","1","2","1","1,0.333,0.333,0.333,1,0.333,0.333,0.333,1","1,0.333,0.333,0.333,1,0.333,0.333,0.333,1","1",""
"","html-keyboard-response","43","43469","0.0-43.0","3AZHRG4CU567VJG8H2M1RQNI67R03U","A2MJ0X6M3VSFVN","3WRBLBQ2GRU63BU2LFOJL1G32T90GO","","null","<img src=""img/flower3.png"" style=""width:200px; border:14px solid green;"">","null","","","","","","","","",""
"","image-keyboard-response","44","43665","0.0-44.0","3AZHRG4CU567VJG8H2M1RQNI67R03U","A2MJ0X6M3VSFVN","3WRBLBQ2GRU63BU2LFOJL1G32T90GO","","185.89999997615814","img/flower1.png","76","193.2999999821186","3","1","3","1","1,0.333,0.333,0.333,1,0.333,0.333,0.333,1","1,0.333,0.333,0.333,1,0.333,0.333,0.333,1","1",""
"","html-keyboard-response","45","43970","0.0-45.0","3AZHRG4CU567VJG8H2M1RQNI67R03U","A2MJ0X6M3VSFVN","3WRBLBQ2GRU63BU2LFOJL1G32T90GO","","null","<img src=""img/flower1.png"" style=""width:200px; border:14px solid green;"">","null","","","","","","","","",""
"","image-keyboard-response","46","44343","0.0-46.0","3AZHRG4CU567VJG8H2M1RQNI67R03U","A2MJ0X6M3VSFVN","3WRBLBQ2GRU63BU2LFOJL1G32T90GO","","365.90000000596046","img/flower3.png","76","371.5","3","1","2","1","1,0.333,0.333,0.333,1,0.333,0.333,0.333,1","1,0.333,0.333,0.333,1,0.333,0.333,0.333,1","1",""
"","html-keyboard-response","47","44647","0.0-47.0","3AZHRG4CU567VJG8H2M1RQNI67R03U","A2MJ0X6M3VSFVN","3WRBLBQ2GRU63BU2LFOJL1G32T90GO","","null","<img src=""img/flower3.png"" style=""width:200px; border:14px solid green;"">","null","","","","","","","","",""
"","image-keyboard-response","48","45007","0.0-48.0","3AZHRG4CU567VJG8H2M1RQNI67R03U","A2MJ0X6M3VSFVN","3WRBLBQ2GRU63BU2LFOJL1G32T90GO","","352.5","img/flower4.png","76","357.69999998807907","3","0","1","1","1,0.333,0.333,0.333,1,0.333,0.333,0.333,1","1,0.333,0.333,0.333,1,0.333,0.333,0.333,1","1",""
"","html-keyboard-response","49","45313","0.0-49.0","3AZHRG4CU567VJG8H2M1RQNI67R03U","A2MJ0X6M3VSFVN","3WRBLBQ2GRU63BU2LFOJL1G32T90GO","","null","<img src=""img/flower4.png"" style=""width:200px;border:14px solid red;"">","null","","","","","","","","",""
"","image-keyboard-response","50","47320","0.0-50.0","3AZHRG4CU567VJG8H2M1RQNI67R03U","A2MJ0X6M3VSFVN","3WRBLBQ2GRU63BU2LFOJL1G32T90GO","","","img/flower3.png","","2006.300000011921","-1","0","2","1","1,0.333,0.333,0.333,1,0.333,0.333,0.333,1","1,0.333,0.333,0.333,1,0.333,0.333,0.333,1","1",""
"","html-keyboard-response","51","47628","0.0-51.0","3AZHRG4CU567VJG8H2M1RQNI67R03U","A2MJ0X6M3VSFVN","3WRBLBQ2GRU63BU2LFOJL1G32T90GO","","null","<img src=""img/flower3.png"" style=""width:200px;border:14px solid red;"">","null","","","","","","","","",""
"","image-keyboard-response","52","47738","0.0-52.0","3AZHRG4CU567VJG8H2M1RQNI67R03U","A2MJ0X6M3VSFVN","3WRBLBQ2GRU63BU2LFOJL1G32T90GO","","101.5","img/flower3.png","76","108.90000000596046","3","0","2","1","1,0.333,0.333,0.333,1,0.333,0.333,0.333,1","1,0.333,0.333,0.333,1,0.333,0.333,0.333,1","1",""
"","html-keyboard-response","53","48047","0.0-53.0","3AZHRG4CU567VJG8H2M1RQNI67R03U","A2MJ0X6M3VSFVN","3WRBLBQ2GRU63BU2LFOJL1G32T90GO","","null","<img src=""img/flower3.png"" style=""width:200px;border:14px solid red;"">","null","","","","","","","","",""
"","image-keyboard-response","54","48528","0.0-54.0","3AZHRG4CU567VJG8H2M1RQNI67R03U","A2MJ0X6M3VSFVN","3WRBLBQ2GRU63BU2LFOJL1G32T90GO","","472","img/flower4.png","75","479.5","2","0","1","1","1,0.333,0.333,0.333,1,0.333,0.333,0.333,1","1,0.333,0.333,0.333,1,0.333,0.333,0.333,1","1",""
"","html-keyboard-response","55","48833","0.0-55.0","3AZHRG4CU567VJG8H2M1RQNI67R03U","A2MJ0X6M3VSFVN","3WRBLBQ2GRU63BU2LFOJL1G32T90GO","","null","<img src=""img/flower4.png"" style=""width:200px;border:14px solid red;"">","null","","","","","","","","",""
"","image-keyboard-response","56","48930","0.0-56.0","3AZHRG4CU567VJG8H2M1RQNI67R03U","A2MJ0X6M3VSFVN","3WRBLBQ2GRU63BU2LFOJL1G32T90GO","","90","img/flower4.png","74","94.10000002384186","1","1","1","1","1,0.333,0.333,0.333,1,0.333,0.333,0.333,1","1,0.333,0.333,0.333,1,0.333,0.333,0.333,1","1",""
"","html-keyboard-response","57","49234","0.0-57.0","3AZHRG4CU567VJG8H2M1RQNI67R03U","A2MJ0X6M3VSFVN","3WRBLBQ2GRU63BU2LFOJL1G32T90GO","","null","<img src=""img/flower4.png"" style=""width:200px; border:14px solid green;"">","null","","","","","","","","",""
"","image-keyboard-response","58","49547","0.0-58.0","3AZHRG4CU567VJG8H2M1RQNI67R03U","A2MJ0X6M3VSFVN","3WRBLBQ2GRU63BU2LFOJL1G32T90GO","","308.40000000596046","img/flower4.png","75","312","2","0","1","1","1,0.333,0.333,0.333,1,0.333,0.333,0.333,1","1,0.333,0.333,0.333,1,0.333,0.333,0.333,1","1",""
"","html-keyboard-response","59","49853","0.0-59.0","3AZHRG4CU567VJG8H2M1RQNI67R03U","A2MJ0X6M3VSFVN","3WRBLBQ2GRU63BU2LFOJL1G32T90GO","","null","<img src=""img/flower4.png"" style=""width:200px;border:14px solid red;"">","null","","","","","","","","",""
"","image-keyboard-response","60","49947","0.0-60.0","3AZHRG4CU567VJG8H2M1RQNI67R03U","A2MJ0X6M3VSFVN","3WRBLBQ2GRU63BU2LFOJL1G32T90GO","","85.30000001192093","img/flower1.png","76","91.90000000596046","3","1","3","1","1,0.333,0.333,0.333,1,0.333,0.333,0.333,1","1,0.333,0.333,0.333,1,0.333,0.333,0.333,1","1",""
"","html-keyboard-response","61","50254","0.0-61.0","3AZHRG4CU567VJG8H2M1RQNI67R03U","A2MJ0X6M3VSFVN","3WRBLBQ2GRU63BU2LFOJL1G32T90GO","","null","<img src=""img/flower1.png"" style=""width:200px; border:14px solid green;"">","null","","","","","","","","",""
"","image-keyboard-response","62","50329","0.0-62.0","3AZHRG4CU567VJG8H2M1RQNI67R03U","A2MJ0X6M3VSFVN","3WRBLBQ2GRU63BU2LFOJL1G32T90GO","","67.2000000178814","img/flower3.png","76","73.5","3","0","2","1","1,0.333,0.333,0.333,1,0.333,0.333,0.333,1","1,0.333,0.333,0.333,1,0.333,0.333,0.333,1","1",""
"","html-keyboard-response","63","50636","0.0-63.0","3AZHRG4CU567VJG8H2M1RQNI67R03U","A2MJ0X6M3VSFVN","3WRBLBQ2GRU63BU2LFOJL1G32T90GO","","null","<img src=""img/flower3.png"" style=""width:200px;border:14px solid red;"">","null","","","","","","","","",""
"","image-keyboard-response","64","51926","0.0-64.0","3AZHRG4CU567VJG8H2M1RQNI67R03U","A2MJ0X6M3VSFVN","3WRBLBQ2GRU63BU2LFOJL1G32T90GO","","1281","img/flower1.png","76","1288.7000000178814","3","1","3","1","1,0.333,0.333,0.333,1,0.333,0.333,0.333,1","1,0.333,0.333,0.333,1,0.333,0.333,0.333,1","1",""
"","html-keyboard-response","65","52231","0.0-65.0","3AZHRG4CU567VJG8H2M1RQNI67R03U","A2MJ0X6M3VSFVN","3WRBLBQ2GRU63BU2LFOJL1G32T90GO","","null","<img src=""img/flower1.png"" style=""width:200px; border:14px solid green;"">","null","","","","","","","","",""
"","image-keyboard-response","66","52535","0.0-66.0","3AZHRG4CU567VJG8H2M1RQNI67R03U","A2MJ0X6M3VSFVN","3WRBLBQ2GRU63BU2LFOJL1G32T90GO","","295.90000000596046","img/flower3.png","76","300.69999998807907","3","0","2","1","1,0.333,0.333,0.333,1,0.333,0.333,0.333,1","1,0.333,0.333,0.333,1,0.333,0.333,0.333,1","1",""
"","html-keyboard-response","67","52841","0.0-67.0","3AZHRG4CU567VJG8H2M1RQNI67R03U","A2MJ0X6M3VSFVN","3WRBLBQ2GRU63BU2LFOJL1G32T90GO","","null","<img src=""img/flower3.png"" style=""width:200px;border:14px solid red;"">","null","","","","","","","","",""
"","image-keyboard-response","68","52943","0.0-68.0","3AZHRG4CU567VJG8H2M1RQNI67R03U","A2MJ0X6M3VSFVN","3WRBLBQ2GRU63BU2LFOJL1G32T90GO","","96.5","img/flower1.png","75","101.10000002384186","2","0","3","1","1,0.333,0.333,0.333,1,0.333,0.333,0.333,1","1,0.333,0.333,0.333,1,0.333,0.333,0.333,1","1",""
"","html-keyboard-response","69","53248","0.0-69.0","3AZHRG4CU567VJG8H2M1RQNI67R03U","A2MJ0X6M3VSFVN","3WRBLBQ2GRU63BU2LFOJL1G32T90GO","","null","<img src=""img/flower1.png"" style=""width:200px;border:14px solid red;"">","null","","","","","","","","",""
"","image-keyboard-response","70","53313","0.0-70.0","3AZHRG4CU567VJG8H2M1RQNI67R03U","A2MJ0X6M3VSFVN","3WRBLBQ2GRU63BU2LFOJL1G32T90GO","","57.30000001192093","img/flower4.png","74","63","1","1","1","1","1,0.333,0.333,0.333,1,0.333,0.333,0.333,1","1,0.333,0.333,0.333,1,0.333,0.333,0.333,1","1",""
"","html-keyboard-response","71","53620","0.0-71.0","3AZHRG4CU567VJG8H2M1RQNI67R03U","A2MJ0X6M3VSFVN","3WRBLBQ2GRU63BU2LFOJL1G32T90GO","","null","<img src=""img/flower4.png"" style=""width:200px; border:14px solid green;"">","null","","","","","","","","",""
"","image-keyboard-response","72","53780","0.0-72.0","3AZHRG4CU567VJG8H2M1RQNI67R03U","A2MJ0X6M3VSFVN","3WRBLBQ2GRU63BU2LFOJL1G32T90GO","","152.7000000178814","img/flower3.png","74","158.40000000596046","1","0","2","1","1,0.333,0.333,0.333,1,0.333,0.333,0.333,1","1,0.333,0.333,0.333,1,0.333,0.333,0.333,1","1",""
"","html-keyboard-response","73","54085","0.0-73.0","3AZHRG4CU567VJG8H2M1RQNI67R03U","A2MJ0X6M3VSFVN","3WRBLBQ2GRU63BU2LFOJL1G32T90GO","","null","<img src=""img/flower3.png"" style=""width:200px;border:14px solid red;"">","null","","","","","","","","",""
"","image-keyboard-response","74","54107","0.0-74.0","3AZHRG4CU567VJG8H2M1RQNI67R03U","A2MJ0X6M3VSFVN","3WRBLBQ2GRU63BU2LFOJL1G32T90GO","","18.900000005960464","img/flower4.png","75","21.599999994039536","2","0","1","1","1,0.333,0.333,0.333,1,0.333,0.333,0.333,1","1,0.333,0.333,0.333,1,0.333,0.333,0.333,1","1",""
"","html-keyboard-response","75","54411","0.0-75.0","3AZHRG4CU567VJG8H2M1RQNI67R03U","A2MJ0X6M3VSFVN","3WRBLBQ2GRU63BU2LFOJL1G32T90GO","","null","<img src=""img/flower4.png"" style=""width:200px;border:14px solid red;"">","null","","","","","","","","",""
"","image-keyboard-response","76","54630","0.0-76.0","3AZHRG4CU567VJG8H2M1RQNI67R03U","A2MJ0X6M3VSFVN","3WRBLBQ2GRU63BU2LFOJL1G32T90GO","","209.90000000596046","img/flower4.png","74","218","1","1","1","1","1,0.333,0.333,0.333,1,0.333,0.333,0.333,1","1,0.333,0.333,0.333,1,0.333,0.333,0.333,1","1",""
"","html-keyboard-response","77","54936","0.0-77.0","3AZHRG4CU567VJG8H2M1RQNI67R03U","A2MJ0X6M3VSFVN","3WRBLBQ2GRU63BU2LFOJL1G32T90GO","","null","<img src=""img/flower4.png"" style=""width:200px; border:14px solid green;"">","null","","","","","","","","",""
"","image-keyboard-response","78","55296","0.0-78.0","3AZHRG4CU567VJG8H2M1RQNI67R03U","A2MJ0X6M3VSFVN","3WRBLBQ2GRU63BU2LFOJL1G32T90GO","","353.90000000596046","img/flower3.png","76","358.7000000178814","3","1","2","1","1,0.333,0.333,0.333,1,0.333,0.333,0.333,1","1,0.333,0.333,0.333,1,0.333,0.333,0.333,1","1",""
"","html-keyboard-response","79","55601","0.0-79.0","3AZHRG4CU567VJG8H2M1RQNI67R03U","A2MJ0X6M3VSFVN","3WRBLBQ2GRU63BU2LFOJL1G32T90GO","","null","<img src=""img/flower3.png"" style=""width:200px; border:14px solid green;"">","null","","","","","","","","",""
"","image-keyboard-response","80","55758","0.0-80.0","3AZHRG4CU567VJG8H2M1RQNI67R03U","A2MJ0X6M3VSFVN","3WRBLBQ2GRU63BU2LFOJL1G32T90GO","","151.59999999403954","img/flower3.png","75","156","2","1","2","1","1,0.333,0.333,0.333,1,0.333,0.333,0.333,1","1,0.333,0.333,0.333,1,0.333,0.333,0.333,1","1",""
"","html-keyboard-response","81","56066","0.0-81.0","3AZHRG4CU567VJG8H2M1RQNI67R03U","A2MJ0X6M3VSFVN","3WRBLBQ2GRU63BU2LFOJL1G32T90GO","","null","<img src=""img/flower3.png"" style=""width:200px; border:14px solid green;"">","null","","","","","","","","",""
"","image-keyboard-response","82","56102","0.0-82.0","3AZHRG4CU567VJG8H2M1RQNI67R03U","A2MJ0X6M3VSFVN","3WRBLBQ2GRU63BU2LFOJL1G32T90GO","","29.100000023841858","img/flower1.png","75","34.5","2","0","3","1","1,0.333,0.333,0.333,1,0.333,0.333,0.333,1","1,0.333,0.333,0.333,1,0.333,0.333,0.333,1","1",""
"","html-keyboard-response","83","56406","0.0-83.0","3AZHRG4CU567VJG8H2M1RQNI67R03U","A2MJ0X6M3VSFVN","3WRBLBQ2GRU63BU2LFOJL1G32T90GO","","null","<img src=""img/flower1.png"" style=""width:200px;border:14px solid red;"">","null","","","","","","","","",""
"","image-keyboard-response","84","56465","0.0-84.0","3AZHRG4CU567VJG8H2M1RQNI67R03U","A2MJ0X6M3VSFVN","3WRBLBQ2GRU63BU2LFOJL1G32T90GO","","50","img/flower4.png","76","57.20000001788139","3","0","1","1","1,0.333,0.333,0.333,1,0.333,0.333,0.333,1","1,0.333,0.333,0.333,1,0.333,0.333,0.333,1","1",""
"","html-keyboard-response","85","56774","0.0-85.0","3AZHRG4CU567VJG8H2M1RQNI67R03U","A2MJ0X6M3VSFVN","3WRBLBQ2GRU63BU2LFOJL1G32T90GO","","null","<img src=""img/flower4.png"" style=""width:200px;border:14px solid red;"">","null","","","","","","","","",""
"","image-keyboard-response","86","56924","0.0-86.0","3AZHRG4CU567VJG8H2M1RQNI67R03U","A2MJ0X6M3VSFVN","3WRBLBQ2GRU63BU2LFOJL1G32T90GO","","142.5","img/flower3.png","75","148.7999999821186","2","1","2","1","1,0.333,0.333,0.333,1,0.333,0.333,0.333,1","1,0.333,0.333,0.333,1,0.333,0.333,0.333,1","1",""
"","html-keyboard-response","87","57231","0.0-87.0","3AZHRG4CU567VJG8H2M1RQNI67R03U","A2MJ0X6M3VSFVN","3WRBLBQ2GRU63BU2LFOJL1G32T90GO","","null","<img src=""img/flower3.png"" style=""width:200px; border:14px solid green;"">","null","","","","","","","","",""
"","image-keyboard-response","88","57352","0.0-88.0","3AZHRG4CU567VJG8H2M1RQNI67R03U","A2MJ0X6M3VSFVN","3WRBLBQ2GRU63BU2LFOJL1G32T90GO","","111.60000002384186","img/flower1.png","75","118.7000000178814","2","0","3","1","1,0.333,0.333,0.333,1,0.333,0.333,0.333,1","1,0.333,0.333,0.333,1,0.333,0.333,0.333,1","1",""
"","html-keyboard-response","89","57657","0.0-89.0","3AZHRG4CU567VJG8H2M1RQNI67R03U","A2MJ0X6M3VSFVN","3WRBLBQ2GRU63BU2LFOJL1G32T90GO","","null","<img src=""img/flower1.png"" style=""width:200px;border:14px solid red;"">","null","","","","","","","","",""
"","image-keyboard-response","90","58064","0.0-90.0","3AZHRG4CU567VJG8H2M1RQNI67R03U","A2MJ0X6M3VSFVN","3WRBLBQ2GRU63BU2LFOJL1G32T90GO","","399.5","img/flower4.png","74","404.80000001192093","1","1","1","1","1,0.333,0.333,0.333,1,0.333,0.333,0.333,1","1,0.333,0.333,0.333,1,0.333,0.333,0.333,1","1",""
"","html-keyboard-response","91","58369","0.0-91.0","3AZHRG4CU567VJG8H2M1RQNI67R03U","A2MJ0X6M3VSFVN","3WRBLBQ2GRU63BU2LFOJL1G32T90GO","","null","<img src=""img/flower4.png"" style=""width:200px; border:14px solid green;"">","null","","","","","","","","",""
"","image-keyboard-response","92","58552","0.0-92.0","3AZHRG4CU567VJG8H2M1RQNI67R03U","A2MJ0X6M3VSFVN","3WRBLBQ2GRU63BU2LFOJL1G32T90GO","","173.40000000596046","img/flower3.png","74","180.7000000178814","1","1","2","1","1,0.333,0.333,0.333,1,0.333,0.333,0.333,1","1,0.333,0.333,0.333,1,0.333,0.333,0.333,1","1",""
"","html-keyboard-response","93","58860","0.0-93.0","3AZHRG4CU567VJG8H2M1RQNI67R03U","A2MJ0X6M3VSFVN","3WRBLBQ2GRU63BU2LFOJL1G32T90GO","","null","<img src=""img/flower3.png"" style=""width:200px; border:14px solid green;"">","null","","","","","","","","",""
"","image-keyboard-response","94","58872","0.0-94.0","3AZHRG4CU567VJG8H2M1RQNI67R03U","A2MJ0X6M3VSFVN","3WRBLBQ2GRU63BU2LFOJL1G32T90GO","","4.199999988079071","img/flower1.png","74","9.400000005960464","1","0","3","1","1,0.333,0.333,0.333,1,0.333,0.333,0.333,1","1,0.333,0.333,0.333,1,0.333,0.333,0.333,1","1",""
"","html-keyboard-response","95","59176","0.0-95.0","3AZHRG4CU567VJG8H2M1RQNI67R03U","A2MJ0X6M3VSFVN","3WRBLBQ2GRU63BU2LFOJL1G32T90GO","","null","<img src=""img/flower1.png"" style=""width:200px;border:14px solid red;"">","null","","","","","","","","",""
"","image-keyboard-response","96","59488","0.0-96.0","3AZHRG4CU567VJG8H2M1RQNI67R03U","A2MJ0X6M3VSFVN","3WRBLBQ2GRU63BU2LFOJL1G32T90GO","","306.19999998807907","img/flower3.png","75","310.90000000596046","2","1","2","1","1,0.333,0.333,0.333,1,0.333,0.333,0.333,1","1,0.333,0.333,0.333,1,0.333,0.333,0.333,1","1",""
"","html-keyboard-response","97","59794","0.0-97.0","3AZHRG4CU567VJG8H2M1RQNI67R03U","A2MJ0X6M3VSFVN","3WRBLBQ2GRU63BU2LFOJL1G32T90GO","","null","<img src=""img/flower3.png"" style=""width:200px; border:14px solid green;"">","null","","","","","","","","",""
"","image-keyboard-response","98","59801","0.0-98.0","3AZHRG4CU567VJG8H2M1RQNI67R03U","A2MJ0X6M3VSFVN","3WRBLBQ2GRU63BU2LFOJL1G32T90GO","","1","img/flower4.png","75","7","2","0","1","1","1,0.333,0.333,0.333,1,0.333,0.333,0.333,1","1,0.333,0.333,0.333,1,0.333,0.333,0.333,1","1",""
"","html-keyboard-response","99","60104","0.0-99.0","3AZHRG4CU567VJG8H2M1RQNI67R03U","A2MJ0X6M3VSFVN","3WRBLBQ2GRU63BU2LFOJL1G32T90GO","","null","<img src=""img/flower4.png"" style=""width:200px;border:14px solid red;"">","null","","","","","","","","",""
"","image-keyboard-response","100","60316","0.0-100.0","3AZHRG4CU567VJG8H2M1RQNI67R03U","A2MJ0X6M3VSFVN","3WRBLBQ2GRU63BU2LFOJL1G32T90GO","","205.90000000596046","img/flower1.png","74","210.09999999403954","1","1","3","1","1,0.333,0.333,0.333,1,0.333,0.333,0.333,1","1,0.333,0.333,0.333,1,0.333,0.333,0.333,1","1",""
"","html-keyboard-response","101","60623","0.0-101.0","3AZHRG4CU567VJG8H2M1RQNI67R03U","A2MJ0X6M3VSFVN","3WRBLBQ2GRU63BU2LFOJL1G32T90GO","","null","<img src=""img/flower1.png"" style=""width:200px; border:14px solid green;"">","null","","","","","","","","",""
"","image-keyboard-response","102","61076","0.0-102.0","3AZHRG4CU567VJG8H2M1RQNI67R03U","A2MJ0X6M3VSFVN","3WRBLBQ2GRU63BU2LFOJL1G32T90GO","","443.40000000596046","img/flower3.png","74","451.30000001192093","1","0","2","1","1,0.333,0.333,0.333,1,0.333,0.333,0.333,1","1,0.333,0.333,0.333,1,0.333,0.333,0.333,1","1",""
"","html-keyboard-response","103","61381","0.0-103.0","3AZHRG4CU567VJG8H2M1RQNI67R03U","A2MJ0X6M3VSFVN","3WRBLBQ2GRU63BU2LFOJL1G32T90GO","","null","<img src=""img/flower3.png"" style=""width:200px;border:14px solid red;"">","null","","","","","","","","",""
"","image-keyboard-response","104","61652","0.0-104.0","3AZHRG4CU567VJG8H2M1RQNI67R03U","A2MJ0X6M3VSFVN","3WRBLBQ2GRU63BU2LFOJL1G32T90GO","","262.69999998807907","img/flower3.png","75","268.60000002384186","2","1","2","1","1,0.333,0.333,0.333,1,0.333,0.333,0.333,1","1,0.333,0.333,0.333,1,0.333,0.333,0.333,1","1",""
"","html-keyboard-response","105","61955","0.0-105.0","3AZHRG4CU567VJG8H2M1RQNI67R03U","A2MJ0X6M3VSFVN","3WRBLBQ2GRU63BU2LFOJL1G32T90GO","","null","<img src=""img/flower3.png"" style=""width:200px; border:14px solid green;"">","null","","","","","","","","",""
"","image-keyboard-response","106","62476","0.0-106.0","3AZHRG4CU567VJG8H2M1RQNI67R03U","A2MJ0X6M3VSFVN","3WRBLBQ2GRU63BU2LFOJL1G32T90GO","","515.1999999880791","img/flower4.png","74","519.5","1","1","1","1","1,0.333,0.333,0.333,1,0.333,0.333,0.333,1","1,0.333,0.333,0.333,1,0.333,0.333,0.333,1","1",""
"","html-keyboard-response","107","62785","0.0-107.0","3AZHRG4CU567VJG8H2M1RQNI67R03U","A2MJ0X6M3VSFVN","3WRBLBQ2GRU63BU2LFOJL1G32T90GO","","null","<img src=""img/flower4.png"" style=""width:200px; border:14px solid green;"">","null","","","","","","","","",""
"","image-keyboard-response","108","63292","0.0-108.0","3AZHRG4CU567VJG8H2M1RQNI67R03U","A2MJ0X6M3VSFVN","3WRBLBQ2GRU63BU2LFOJL1G32T90GO","","500.5","img/flower3.png","74","506.19999998807907","1","1","2","1","1,0.333,0.333,0.333,1,0.333,0.333,0.333,1","1,0.333,0.333,0.333,1,0.333,0.333,0.333,1","1",""
"","html-keyboard-response","109","63598","0.0-109.0","3AZHRG4CU567VJG8H2M1RQNI67R03U","A2MJ0X6M3VSFVN","3WRBLBQ2GRU63BU2LFOJL1G32T90GO","","null","<img src=""img/flower3.png"" style=""width:200px; border:14px solid green;"">","null","","","","","","","","",""
"","image-keyboard-response","110","64204","0.0-110.0","3AZHRG4CU567VJG8H2M1RQNI67R03U","A2MJ0X6M3VSFVN","3WRBLBQ2GRU63BU2LFOJL1G32T90GO","","599.0999999940395","img/flower3.png","74","603.6999999880791","1","0","2","1","1,0.333,0.333,0.333,1,0.333,0.333,0.333,1","1,0.333,0.333,0.333,1,0.333,0.333,0.333,1","1",""
"","html-keyboard-response","111","64508","0.0-111.0","3AZHRG4CU567VJG8H2M1RQNI67R03U","A2MJ0X6M3VSFVN","3WRBLBQ2GRU63BU2LFOJL1G32T90GO","","null","<img src=""img/flower3.png"" style=""width:200px;border:14px solid red;"">","null","","","","","","","","",""
"","image-keyboard-response","112","64883","0.0-112.0","3AZHRG4CU567VJG8H2M1RQNI67R03U","A2MJ0X6M3VSFVN","3WRBLBQ2GRU63BU2LFOJL1G32T90GO","","367.80000001192093","img/flower4.png","74","373.60000002384186","1","1","1","1","1,0.333,0.333,0.333,1,0.333,0.333,0.333,1","1,0.333,0.333,0.333,1,0.333,0.333,0.333,1","1",""
"","html-keyboard-response","113","65187","0.0-113.0","3AZHRG4CU567VJG8H2M1RQNI67R03U","A2MJ0X6M3VSFVN","3WRBLBQ2GRU63BU2LFOJL1G32T90GO","","null","<img src=""img/flower4.png"" style=""width:200px; border:14px solid green;"">","null","","","","","","","","",""
"","image-keyboard-response","114","65538","0.0-114.0","3AZHRG4CU567VJG8H2M1RQNI67R03U","A2MJ0X6M3VSFVN","3WRBLBQ2GRU63BU2LFOJL1G32T90GO","","341.69999998807907","img/flower3.png","74","348.90000000596046","1","1","2","1","1,0.333,0.333,0.333,1,0.333,0.333,0.333,1","1,0.333,0.333,0.333,1,0.333,0.333,0.333,1","1",""
"","html-keyboard-response","115","65844","0.0-115.0","3AZHRG4CU567VJG8H2M1RQNI67R03U","A2MJ0X6M3VSFVN","3WRBLBQ2GRU63BU2LFOJL1G32T90GO","","null","<img src=""img/flower3.png"" style=""width:200px; border:14px solid green;"">","null","","","","","","","","",""
"","image-keyboard-response","116","66202","0.0-116.0","3AZHRG4CU567VJG8H2M1RQNI67R03U","A2MJ0X6M3VSFVN","3WRBLBQ2GRU63BU2LFOJL1G32T90GO","","354.09999999403954","img/flower3.png","74","357.90000000596046","1","0","2","1","1,0.333,0.333,0.333,1,0.333,0.333,0.333,1","1,0.333,0.333,0.333,1,0.333,0.333,0.333,1","1",""
"","html-keyboard-response","117","66510","0.0-117.0","3AZHRG4CU567VJG8H2M1RQNI67R03U","A2MJ0X6M3VSFVN","3WRBLBQ2GRU63BU2LFOJL1G32T90GO","","null","<img src=""img/flower3.png"" style=""width:200px;border:14px solid red;"">","null","","","","","","","","",""
"","image-keyboard-response","118","66804","0.0-118.0","3AZHRG4CU567VJG8H2M1RQNI67R03U","A2MJ0X6M3VSFVN","3WRBLBQ2GRU63BU2LFOJL1G32T90GO","","286.90000000596046","img/flower4.png","74","292.7999999821186","1","1","1","1","1,0.333,0.333,0.333,1,0.333,0.333,0.333,1","1,0.333,0.333,0.333,1,0.333,0.333,0.333,1","1",""
"","html-keyboard-response","119","67111","0.0-119.0","3AZHRG4CU567VJG8H2M1RQNI67R03U","A2MJ0X6M3VSFVN","3WRBLBQ2GRU63BU2LFOJL1G32T90GO","","null","<img src=""img/flower4.png"" style=""width:200px; border:14px solid green;"">","null","","","","","","","","",""
"","image-keyboard-response","120","67319","0.0-120.0","3AZHRG4CU567VJG8H2M1RQNI67R03U","A2MJ0X6M3VSFVN","3WRBLBQ2GRU63BU2LFOJL1G32T90GO","","202.40000000596046","img/flower3.png","74","206.40000000596046","1","0","2","1","1,0.333,0.333,0.333,1,0.333,0.333,0.333,1","1,0.333,0.333,0.333,1,0.333,0.333,0.333,1","1",""
"","html-keyboard-response","121","67623","0.0-121.0","3AZHRG4CU567VJG8H2M1RQNI67R03U","A2MJ0X6M3VSFVN","3WRBLBQ2GRU63BU2LFOJL1G32T90GO","","null","<img src=""img/flower3.png"" style=""width:200px;border:14px solid red;"">","null","","","","","","","","",""
"","image-keyboard-response","122","67798","0.0-122.0","3AZHRG4CU567VJG8H2M1RQNI67R03U","A2MJ0X6M3VSFVN","3WRBLBQ2GRU63BU2LFOJL1G32T90GO","","168.39999997615814","img/flower3.png","74","173.59999999403954","1","0","2","1","1,0.333,0.333,0.333,1,0.333,0.333,0.333,1","1,0.333,0.333,0.333,1,0.333,0.333,0.333,1","1",""
"","html-keyboard-response","123","68114","0.0-123.0","3AZHRG4CU567VJG8H2M1RQNI67R03U","A2MJ0X6M3VSFVN","3WRBLBQ2GRU63BU2LFOJL1G32T90GO","","null","<img src=""img/flower3.png"" style=""width:200px;border:14px solid red;"">","null","","","","","","","","",""
"","image-keyboard-response","124","68378","0.0-124.0","3AZHRG4CU567VJG8H2M1RQNI67R03U","A2MJ0X6M3VSFVN","3WRBLBQ2GRU63BU2LFOJL1G32T90GO","","255.5","img/flower3.png","74","262.7000000178814","1","0","2","1","1,0.333,0.333,0.333,1,0.333,0.333,0.333,1","1,0.333,0.333,0.333,1,0.333,0.333,0.333,1","1",""
"","html-keyboard-response","125","68686","0.0-125.0","3AZHRG4CU567VJG8H2M1RQNI67R03U","A2MJ0X6M3VSFVN","3WRBLBQ2GRU63BU2LFOJL1G32T90GO","","null","<img src=""img/flower3.png"" style=""width:200px;border:14px solid red;"">","null","","","","","","","","",""
"","image-keyboard-response","126","68914","0.0-126.0","3AZHRG4CU567VJG8H2M1RQNI67R03U","A2MJ0X6M3VSFVN","3WRBLBQ2GRU63BU2LFOJL1G32T90GO","","219.40000000596046","img/flower3.png","74","227.5","1","1","2","1","1,0.333,0.333,0.333,1,0.333,0.333,0.333,1","1,0.333,0.333,0.333,1,0.333,0.333,0.333,1","1",""
"","html-keyboard-response","127","69220","0.0-127.0","3AZHRG4CU567VJG8H2M1RQNI67R03U","A2MJ0X6M3VSFVN","3WRBLBQ2GRU63BU2LFOJL1G32T90GO","","null","<img src=""img/flower3.png"" style=""width:200px; border:14px solid green;"">","null","","","","","","","","",""
"","image-keyboard-response","128","69614","0.0-128.0","3AZHRG4CU567VJG8H2M1RQNI67R03U","A2MJ0X6M3VSFVN","3WRBLBQ2GRU63BU2LFOJL1G32T90GO","","387.59999999403954","img/flower1.png","76","391.89999997615814","3","1","3","1","1,0.333,0.333,0.333,1,0.333,0.333,0.333,1","1,0.333,0.333,0.333,1,0.333,0.333,0.333,1","1",""
"","html-keyboard-response","129","69919","0.0-129.0","3AZHRG4CU567VJG8H2M1RQNI67R03U","A2MJ0X6M3VSFVN","3WRBLBQ2GRU63BU2LFOJL1G32T90GO","","null","<img src=""img/flower1.png"" style=""width:200px; border:14px solid green;"">","null","","","","","","","","",""
"","image-keyboard-response","130","70071","0.0-130.0","3AZHRG4CU567VJG8H2M1RQNI67R03U","A2MJ0X6M3VSFVN","3WRBLBQ2GRU63BU2LFOJL1G32T90GO","","139.80000001192093","img/flower1.png","75","143.69999998807907","2","0","3","1","1,0.333,0.333,0.333,1,0.333,0.333,0.333,1","1,0.333,0.333,0.333,1,0.333,0.333,0.333,1","1",""
"","html-keyboard-response","131","70380","0.0-131.0","3AZHRG4CU567VJG8H2M1RQNI67R03U","A2MJ0X6M3VSFVN","3WRBLBQ2GRU63BU2LFOJL1G32T90GO","","null","<img src=""img/flower1.png"" style=""width:200px;border:14px solid red;"">","null","","","","","","","","",""
"","image-keyboard-response","132","70551","0.0-132.0","3AZHRG4CU567VJG8H2M1RQNI67R03U","A2MJ0X6M3VSFVN","3WRBLBQ2GRU63BU2LFOJL1G32T90GO","","163.2999999821186","img/flower3.png","76","169.2999999821186","3","0","2","1","1,0.333,0.333,0.333,1,0.333,0.333,0.333,1","1,0.333,0.333,0.333,1,0.333,0.333,0.333,1","1",""
"","html-keyboard-response","133","70858","0.0-133.0","3AZHRG4CU567VJG8H2M1RQNI67R03U","A2MJ0X6M3VSFVN","3WRBLBQ2GRU63BU2LFOJL1G32T90GO","","null","<img src=""img/flower3.png"" style=""width:200px;border:14px solid red;"">","null","","","","","","","","",""
"","image-keyboard-response","134","70953","0.0-134.0","3AZHRG4CU567VJG8H2M1RQNI67R03U","A2MJ0X6M3VSFVN","3WRBLBQ2GRU63BU2LFOJL1G32T90GO","","91.09999999403954","img/flower1.png","75","94.19999998807907","2","0","3","1","1,0.333,0.333,0.333,1,0.333,0.333,0.333,1","1,0.333,0.333,0.333,1,0.333,0.333,0.333,1","1",""
"","html-keyboard-response","135","71260","0.0-135.0","3AZHRG4CU567VJG8H2M1RQNI67R03U","A2MJ0X6M3VSFVN","3WRBLBQ2GRU63BU2LFOJL1G32T90GO","","null","<img src=""img/flower1.png"" style=""width:200px;border:14px solid red;"">","null","","","","","","","","",""
"","image-keyboard-response","136","71414","0.0-136.0","3AZHRG4CU567VJG8H2M1RQNI67R03U","A2MJ0X6M3VSFVN","3WRBLBQ2GRU63BU2LFOJL1G32T90GO","","148.40000000596046","img/flower4.png","74","152.09999999403954","1","1","1","1","1,0.333,0.333,0.333,1,0.333,0.333,0.333,1","1,0.333,0.333,0.333,1,0.333,0.333,0.333,1","1",""
"","html-keyboard-response","137","71718","0.0-137.0","3AZHRG4CU567VJG8H2M1RQNI67R03U","A2MJ0X6M3VSFVN","3WRBLBQ2GRU63BU2LFOJL1G32T90GO","","null","<img src=""img/flower4.png"" style=""width:200px; border:14px solid green;"">","null","","","","","","","","",""
"","image-keyboard-response","138","71971","0.0-138.0","3AZHRG4CU567VJG8H2M1RQNI67R03U","A2MJ0X6M3VSFVN","3WRBLBQ2GRU63BU2LFOJL1G32T90GO","","247.59999999403954","img/flower1.png","74","252.19999998807907","1","0","3","1","1,0.333,0.333,0.333,1,0.333,0.333,0.333,1","1,0.333,0.333,0.333,1,0.333,0.333,0.333,1","1",""
"","html-keyboard-response","139","72276","0.0-139.0","3AZHRG4CU567VJG8H2M1RQNI67R03U","A2MJ0X6M3VSFVN","3WRBLBQ2GRU63BU2LFOJL1G32T90GO","","null","<img src=""img/flower1.png"" style=""width:200px;border:14px solid red;"">","null","","","","","","","","",""
"","image-keyboard-response","140","72439","0.0-140.0","3AZHRG4CU567VJG8H2M1RQNI67R03U","A2MJ0X6M3VSFVN","3WRBLBQ2GRU63BU2LFOJL1G32T90GO","","157.19999998807907","img/flower1.png","74","161.10000002384186","1","0","3","1","1,0.333,0.333,0.333,1,0.333,0.333,0.333,1","1,0.333,0.333,0.333,1,0.333,0.333,0.333,1","1",""
"","html-keyboard-response","141","72745","0.0-141.0","3AZHRG4CU567VJG8H2M1RQNI67R03U","A2MJ0X6M3VSFVN","3WRBLBQ2GRU63BU2LFOJL1G32T90GO","","null","<img src=""img/flower1.png"" style=""width:200px;border:14px solid red;"">","null","","","","","","","","",""
"","image-keyboard-response","142","73009","0.0-142.0","3AZHRG4CU567VJG8H2M1RQNI67R03U","A2MJ0X6M3VSFVN","3WRBLBQ2GRU63BU2LFOJL1G32T90GO","","258.30000001192093","img/flower4.png","74","263.69999998807907","1","1","1","1","1,0.333,0.333,0.333,1,0.333,0.333,0.333,1","1,0.333,0.333,0.333,1,0.333,0.333,0.333,1","1",""
"","html-keyboard-response","143","73315","0.0-143.0","3AZHRG4CU567VJG8H2M1RQNI67R03U","A2MJ0X6M3VSFVN","3WRBLBQ2GRU63BU2LFOJL1G32T90GO","","null","<img src=""img/flower4.png"" style=""width:200px; border:14px solid green;"">","null","","","","","","","","",""
"","image-keyboard-response","144","73406","0.0-144.0","3AZHRG4CU567VJG8H2M1RQNI67R03U","A2MJ0X6M3VSFVN","3WRBLBQ2GRU63BU2LFOJL1G32T90GO","","79.90000000596046","img/flower1.png","75","89.09999999403954","2","0","3","1","1,0.333,0.333,0.333,1,0.333,0.333,0.333,1","1,0.333,0.333,0.333,1,0.333,0.333,0.333,1","1",""
"","html-keyboard-response","145","73710","0.0-145.0","3AZHRG4CU567VJG8H2M1RQNI67R03U","A2MJ0X6M3VSFVN","3WRBLBQ2GRU63BU2LFOJL1G32T90GO","","null","<img src=""img/flower1.png"" style=""width:200px;border:14px solid red;"">","null","","","","","","","","",""
"","image-keyboard-response","146","73921","0.0-146.0","3AZHRG4CU567VJG8H2M1RQNI67R03U","A2MJ0X6M3VSFVN","3WRBLBQ2GRU63BU2LFOJL1G32T90GO","","203.90000000596046","img/flower1.png","75","209.59999999403954","2","1","3","1","1,0.333,0.333,0.333,1,0.333,0.333,0.333,1","1,0.333,0.333,0.333,1,0.333,0.333,0.333,1","1",""
"","html-keyboard-response","147","74227","0.0-147.0","3AZHRG4CU567VJG8H2M1RQNI67R03U","A2MJ0X6M3VSFVN","3WRBLBQ2GRU63BU2LFOJL1G32T90GO","","null","<img src=""img/flower1.png"" style=""width:200px; border:14px solid green;"">","null","","","","","","","","",""
"","image-keyboard-response","148","74370","0.0-148.0","3AZHRG4CU567VJG8H2M1RQNI67R03U","A2MJ0X6M3VSFVN","3WRBLBQ2GRU63BU2LFOJL1G32T90GO","","138.40000000596046","img/flower1.png","74","142","1","0","3","1","1,0.333,0.333,0.333,1,0.333,0.333,0.333,1","1,0.333,0.333,0.333,1,0.333,0.333,0.333,1","1",""
"","html-keyboard-response","149","74675","0.0-149.0","3AZHRG4CU567VJG8H2M1RQNI67R03U","A2MJ0X6M3VSFVN","3WRBLBQ2GRU63BU2LFOJL1G32T90GO","","null","<img src=""img/flower1.png"" style=""width:200px;border:14px solid red;"">","null","","","","","","","","",""
"","image-keyboard-response","150","74865","0.0-150.0","3AZHRG4CU567VJG8H2M1RQNI67R03U","A2MJ0X6M3VSFVN","3WRBLBQ2GRU63BU2LFOJL1G32T90GO","","182.59999999403954","img/flower3.png","76","188.40000000596046","3","1","2","1","1,0.333,0.333,0.333,1,0.333,0.333,0.333,1","1,0.333,0.333,0.333,1,0.333,0.333,0.333,1","1",""
"","html-keyboard-response","151","75173","0.0-151.0","3AZHRG4CU567VJG8H2M1RQNI67R03U","A2MJ0X6M3VSFVN","3WRBLBQ2GRU63BU2LFOJL1G32T90GO","","null","<img src=""img/flower3.png"" style=""width:200px; border:14px solid green;"">","null","","","","","","","","",""
"","image-keyboard-response","152","75358","0.0-152.0","3AZHRG4CU567VJG8H2M1RQNI67R03U","A2MJ0X6M3VSFVN","3WRBLBQ2GRU63BU2LFOJL1G32T90GO","","178.5","img/flower4.png","75","183.10000002384186","2","0","1","1","1,0.333,0.333,0.333,1,0.333,0.333,0.333,1","1,0.333,0.333,0.333,1,0.333,0.333,0.333,1","1",""
"","html-keyboard-response","153","75665","0.0-153.0","3AZHRG4CU567VJG8H2M1RQNI67R03U","A2MJ0X6M3VSFVN","3WRBLBQ2GRU63BU2LFOJL1G32T90GO","","null","<img src=""img/flower4.png"" style=""width:200px;border:14px solid red;"">","null","","","","","","","","",""
"","image-keyboard-response","154","75706","0.0-154.0","3AZHRG4CU567VJG8H2M1RQNI67R03U","A2MJ0X6M3VSFVN","3WRBLBQ2GRU63BU2LFOJL1G32T90GO","","34.69999998807907","img/flower4.png","74","39.19999998807907","1","1","1","1","1,0.333,0.333,0.333,1,0.333,0.333,0.333,1","1,0.333,0.333,0.333,1,0.333,0.333,0.333,1","1",""
"","html-keyboard-response","155","76011","0.0-155.0","3AZHRG4CU567VJG8H2M1RQNI67R03U","A2MJ0X6M3VSFVN","3WRBLBQ2GRU63BU2LFOJL1G32T90GO","","null","<img src=""img/flower4.png"" style=""width:200px; border:14px solid green;"">","null","","","","","","","","",""
"","image-keyboard-response","156","76168","0.0-156.0","3AZHRG4CU567VJG8H2M1RQNI67R03U","A2MJ0X6M3VSFVN","3WRBLBQ2GRU63BU2LFOJL1G32T90GO","","148.80000001192093","img/flower4.png","75","156.69999998807907","2","0","1","1","1,0.333,0.333,0.333,1,0.333,0.333,0.333,1","1,0.333,0.333,0.333,1,0.333,0.333,0.333,1","1",""
"","html-keyboard-response","157","76474","0.0-157.0","3AZHRG4CU567VJG8H2M1RQNI67R03U","A2MJ0X6M3VSFVN","3WRBLBQ2GRU63BU2LFOJL1G32T90GO","","null","<img src=""img/flower4.png"" style=""width:200px;border:14px solid red;"">","null","","","","","","","","",""
"","image-keyboard-response","158","76671","0.0-158.0","3AZHRG4CU567VJG8H2M1RQNI67R03U","A2MJ0X6M3VSFVN","3WRBLBQ2GRU63BU2LFOJL1G32T90GO","","190.89999997615814","img/flower3.png","74","195.30000001192093","1","0","2","1","1,0.333,0.333,0.333,1,0.333,0.333,0.333,1","1,0.333,0.333,0.333,1,0.333,0.333,0.333,1","1",""
"","html-keyboard-response","159","76974","0.0-159.0","3AZHRG4CU567VJG8H2M1RQNI67R03U","A2MJ0X6M3VSFVN","3WRBLBQ2GRU63BU2LFOJL1G32T90GO","","null","<img src=""img/flower3.png"" style=""width:200px;border:14px solid red;"">","null","","","","","","","","",""
"","image-keyboard-response","160","77149","0.0-160.0","3AZHRG4CU567VJG8H2M1RQNI67R03U","A2MJ0X6M3VSFVN","3WRBLBQ2GRU63BU2LFOJL1G32T90GO","","167.2000000178814","img/flower1.png","75","173.2000000178814","2","0","3","1","1,0.333,0.333,0.333,1,0.333,0.333,0.333,1","1,0.333,0.333,0.333,1,0.333,0.333,0.333,1","1",""
"","html-keyboard-response","161","77456","0.0-161.0","3AZHRG4CU567VJG8H2M1RQNI67R03U","A2MJ0X6M3VSFVN","3WRBLBQ2GRU63BU2LFOJL1G32T90GO","","null","<img src=""img/flower1.png"" style=""width:200px;border:14px solid red;"">","null","","","","","","","","",""
"","image-keyboard-response","162","77511","0.0-162.0","3AZHRG4CU567VJG8H2M1RQNI67R03U","A2MJ0X6M3VSFVN","3WRBLBQ2GRU63BU2LFOJL1G32T90GO","","47.599999994039536","img/flower1.png","75","53.60000002384186","2","0","3","1","1,0.333,0.333,0.333,1,0.333,0.333,0.333,1","1,0.333,0.333,0.333,1,0.333,0.333,0.333,1","1",""
"","html-keyboard-response","163","77816","0.0-163.0","3AZHRG4CU567VJG8H2M1RQNI67R03U","A2MJ0X6M3VSFVN","3WRBLBQ2GRU63BU2LFOJL1G32T90GO","","null","<img src=""img/flower1.png"" style=""width:200px;border:14px solid red;"">","null","","","","","","","","",""
"","image-keyboard-response","164","77949","0.0-164.0","3AZHRG4CU567VJG8H2M1RQNI67R03U","A2MJ0X6M3VSFVN","3WRBLBQ2GRU63BU2LFOJL1G32T90GO","","127.40000000596046","img/flower1.png","76","133.09999999403954","3","1","3","1","1,0.333,0.333,0.333,1,0.333,0.333,0.333,1","1,0.333,0.333,0.333,1,0.333,0.333,0.333,1","1",""
"","html-keyboard-response","165","78255","0.0-165.0","3AZHRG4CU567VJG8H2M1RQNI67R03U","A2MJ0X6M3VSFVN","3WRBLBQ2GRU63BU2LFOJL1G32T90GO","","null","<img src=""img/flower1.png"" style=""width:200px; border:14px solid green;"">","null","","","","","","","","",""
"","image-keyboard-response","166","78543","0.0-166.0","3AZHRG4CU567VJG8H2M1RQNI67R03U","A2MJ0X6M3VSFVN","3WRBLBQ2GRU63BU2LFOJL1G32T90GO","","281.09999999403954","img/flower4.png","75","285.89999997615814","2","0","1","1","1,0.333,0.333,0.333,1,0.333,0.333,0.333,1","1,0.333,0.333,0.333,1,0.333,0.333,0.333,1","1",""
"","html-keyboard-response","167","78850","0.0-167.0","3AZHRG4CU567VJG8H2M1RQNI67R03U","A2MJ0X6M3VSFVN","3WRBLBQ2GRU63BU2LFOJL1G32T90GO","","null","<img src=""img/flower4.png"" style=""width:200px;border:14px solid red;"">","null","","","","","","","","",""
"","image-keyboard-response","168","79028","0.0-168.0","3AZHRG4CU567VJG8H2M1RQNI67R03U","A2MJ0X6M3VSFVN","3WRBLBQ2GRU63BU2LFOJL1G32T90GO","","170.30000001192093","img/flower4.png","76","177.80000001192093","3","0","1","1","1,0.333,0.333,0.333,1,0.333,0.333,0.333,1","1,0.333,0.333,0.333,1,0.333,0.333,0.333,1","1",""
"","html-keyboard-response","169","79333","0.0-169.0","3AZHRG4CU567VJG8H2M1RQNI67R03U","A2MJ0X6M3VSFVN","3WRBLBQ2GRU63BU2LFOJL1G32T90GO","","null","<img src=""img/flower4.png"" style=""width:200px;border:14px solid red;"">","null","","","","","","","","",""
"","image-keyboard-response","170","79407","0.0-170.0","3AZHRG4CU567VJG8H2M1RQNI67R03U","A2MJ0X6M3VSFVN","3WRBLBQ2GRU63BU2LFOJL1G32T90GO","","65.2000000178814","img/flower3.png","75","72.59999999403954","2","1","2","1","1,0.333,0.333,0.333,1,0.333,0.333,0.333,1","1,0.333,0.333,0.333,1,0.333,0.333,0.333,1","1",""
"","html-keyboard-response","171","79715","0.0-171.0","3AZHRG4CU567VJG8H2M1RQNI67R03U","A2MJ0X6M3VSFVN","3WRBLBQ2GRU63BU2LFOJL1G32T90GO","","null","<img src=""img/flower3.png"" style=""width:200px; border:14px solid green;"">","null","","","","","","","","",""
"","image-keyboard-response","172","80046","0.0-172.0","3AZHRG4CU567VJG8H2M1RQNI67R03U","A2MJ0X6M3VSFVN","3WRBLBQ2GRU63BU2LFOJL1G32T90GO","","324.09999999403954","img/flower3.png","75","330.09999999403954","2","1","2","1","1,0.333,0.333,0.333,1,0.333,0.333,0.333,1","1,0.333,0.333,0.333,1,0.333,0.333,0.333,1","1",""
"","html-keyboard-response","173","80352","0.0-173.0","3AZHRG4CU567VJG8H2M1RQNI67R03U","A2MJ0X6M3VSFVN","3WRBLBQ2GRU63BU2LFOJL1G32T90GO","","null","<img src=""img/flower3.png"" style=""width:200px; border:14px solid green;"">","null","","","","","","","","",""
"","image-keyboard-response","174","80491","0.0-174.0","3AZHRG4CU567VJG8H2M1RQNI67R03U","A2MJ0X6M3VSFVN","3WRBLBQ2GRU63BU2LFOJL1G32T90GO","","132","img/flower1.png","76","136.2000000178814","3","1","3","1","1,0.333,0.333,0.333,1,0.333,0.333,0.333,1","1,0.333,0.333,0.333,1,0.333,0.333,0.333,1","1",""
"","html-keyboard-response","175","80795","0.0-175.0","3AZHRG4CU567VJG8H2M1RQNI67R03U","A2MJ0X6M3VSFVN","3WRBLBQ2GRU63BU2LFOJL1G32T90GO","","null","<img src=""img/flower1.png"" style=""width:200px; border:14px solid green;"">","null","","","","","","","","",""
"","image-keyboard-response","176","80955","0.0-176.0","3AZHRG4CU567VJG8H2M1RQNI67R03U","A2MJ0X6M3VSFVN","3WRBLBQ2GRU63BU2LFOJL1G32T90GO","","152.5","img/flower4.png","76","157.90000000596046","3","0","1","1","1,0.333,0.333,0.333,1,0.333,0.333,0.333,1","1,0.333,0.333,0.333,1,0.333,0.333,0.333,1","1",""
"","html-keyboard-response","177","81263","0.0-177.0","3AZHRG4CU567VJG8H2M1RQNI67R03U","A2MJ0X6M3VSFVN","3WRBLBQ2GRU63BU2LFOJL1G32T90GO","","null","<img src=""img/flower4.png"" style=""width:200px;border:14px solid red;"">","null","","","","","","","","",""
"","image-keyboard-response","178","81327","0.0-178.0","3AZHRG4CU567VJG8H2M1RQNI67R03U","A2MJ0X6M3VSFVN","3WRBLBQ2GRU63BU2LFOJL1G32T90GO","","54.5","img/flower4.png","76","62.400000005960464","3","0","1","1","1,0.333,0.333,0.333,1,0.333,0.333,0.333,1","1,0.333,0.333,0.333,1,0.333,0.333,0.333,1","1",""
"","html-keyboard-response","179","81634","0.0-179.0","3AZHRG4CU567VJG8H2M1RQNI67R03U","A2MJ0X6M3VSFVN","3WRBLBQ2GRU63BU2LFOJL1G32T90GO","","null","<img src=""img/flower4.png"" style=""width:200px;border:14px solid red;"">","null","","","","","","","","",""
"","image-keyboard-response","180","81670","0.0-180.0","3AZHRG4CU567VJG8H2M1RQNI67R03U","A2MJ0X6M3VSFVN","3WRBLBQ2GRU63BU2LFOJL1G32T90GO","","28.200000017881393","img/flower4.png","76","34.10000002384186","3","0","1","1","1,0.333,0.333,0.333,1,0.333,0.333,0.333,1","1,0.333,0.333,0.333,1,0.333,0.333,0.333,1","1",""
"","html-keyboard-response","181","81975","0.0-181.0","3AZHRG4CU567VJG8H2M1RQNI67R03U","A2MJ0X6M3VSFVN","3WRBLBQ2GRU63BU2LFOJL1G32T90GO","","null","<img src=""img/flower4.png"" style=""width:200px;border:14px solid red;"">","null","","","","","","","","",""
"","html-keyboard-response","182","84933","0.0-182.0","3AZHRG4CU567VJG8H2M1RQNI67R03U","A2MJ0X6M3VSFVN","3WRBLBQ2GRU63BU2LFOJL1G32T90GO","","","","","","","","","","","","",""
"","image-keyboard-response","183","85842","0.0-183.0","3AZHRG4CU567VJG8H2M1RQNI67R03U","A2MJ0X6M3VSFVN","3WRBLBQ2GRU63BU2LFOJL1G32T90GO","","901.9000000059605","img/flower5.png","75","908.5999999940395","2","1","3","2","1,0,0,1,1,0,1,0,1","0,0,1,1,0,1,0,1,1","2",""
"","html-keyboard-response","184","86147","0.0-184.0","3AZHRG4CU567VJG8H2M1RQNI67R03U","A2MJ0X6M3VSFVN","3WRBLBQ2GRU63BU2LFOJL1G32T90GO","","null","<img src=""img/flower5.png"" style=""width:200px; border:14px solid green;"">","null","","","","","","","","",""
"","image-keyboard-response","185","86641","0.0-185.0","3AZHRG4CU567VJG8H2M1RQNI67R03U","A2MJ0X6M3VSFVN","3WRBLBQ2GRU63BU2LFOJL1G32T90GO","","486.30000001192093","img/flower2.png","75","492.2000000178814","2","0","2","2","1,0,0,1,1,0,1,0,1","0,0,1,1,0,1,0,1,1","2",""
"","html-keyboard-response","186","86948","0.0-186.0","3AZHRG4CU567VJG8H2M1RQNI67R03U","A2MJ0X6M3VSFVN","3WRBLBQ2GRU63BU2LFOJL1G32T90GO","","null","<img src=""img/flower2.png"" style=""width:200px;border:14px solid red;"">","null","","","","","","","","",""
"","image-keyboard-response","187","87254","0.0-187.0","3AZHRG4CU567VJG8H2M1RQNI67R03U","A2MJ0X6M3VSFVN","3WRBLBQ2GRU63BU2LFOJL1G32T90GO","","299.30000001192093","img/flower5.png","76","305.5","3","1","3","2","1,0,0,1,1,0,1,0,1","0,0,1,1,0,1,0,1,1","2",""
"","html-keyboard-response","188","87562","0.0-188.0","3AZHRG4CU567VJG8H2M1RQNI67R03U","A2MJ0X6M3VSFVN","3WRBLBQ2GRU63BU2LFOJL1G32T90GO","","null","<img src=""img/flower5.png"" style=""width:200px; border:14px solid green;"">","null","","","","","","","","",""
"","image-keyboard-response","189","87901","0.0-189.0","3AZHRG4CU567VJG8H2M1RQNI67R03U","A2MJ0X6M3VSFVN","3WRBLBQ2GRU63BU2LFOJL1G32T90GO","","331","img/flower5.png","76","337.59999999403954","3","1","3","2","1,0,0,1,1,0,1,0,1","0,0,1,1,0,1,0,1,1","2",""
"","html-keyboard-response","190","88208","0.0-190.0","3AZHRG4CU567VJG8H2M1RQNI67R03U","A2MJ0X6M3VSFVN","3WRBLBQ2GRU63BU2LFOJL1G32T90GO","","null","<img src=""img/flower5.png"" style=""width:200px; border:14px solid green;"">","null","","","","","","","","",""
"","image-keyboard-response","191","88303","0.0-191.0","3AZHRG4CU567VJG8H2M1RQNI67R03U","A2MJ0X6M3VSFVN","3WRBLBQ2GRU63BU2LFOJL1G32T90GO","","87.09999999403954","img/flower6.png","75","93.80000001192093","2","0","1","2","1,0,0,1,1,0,1,0,1","0,0,1,1,0,1,0,1,1","2",""
"","html-keyboard-response","192","88613","0.0-192.0","3AZHRG4CU567VJG8H2M1RQNI67R03U","A2MJ0X6M3VSFVN","3WRBLBQ2GRU63BU2LFOJL1G32T90GO","","null","<img src=""img/flower6.png"" style=""width:200px;border:14px solid red;"">","null","","","","","","","","",""
"","image-keyboard-response","193","88776","0.0-193.0","3AZHRG4CU567VJG8H2M1RQNI67R03U","A2MJ0X6M3VSFVN","3WRBLBQ2GRU63BU2LFOJL1G32T90GO","","156.59999999403954","img/flower6.png","75","161.90000000596046","2","0","1","2","1,0,0,1,1,0,1,0,1","0,0,1,1,0,1,0,1,1","2",""
"","html-keyboard-response","194","89086","0.0-194.0","3AZHRG4CU567VJG8H2M1RQNI67R03U","A2MJ0X6M3VSFVN","3WRBLBQ2GRU63BU2LFOJL1G32T90GO","","null","<img src=""img/flower6.png"" style=""width:200px;border:14px solid red;"">","null","","","","","","","","",""
"","image-keyboard-response","195","89091","0.0-195.0","3AZHRG4CU567VJG8H2M1RQNI67R03U","A2MJ0X6M3VSFVN","3WRBLBQ2GRU63BU2LFOJL1G32T90GO","","0.5","img/flower6.png","76","3.899999976158142","3","1","1","2","1,0,0,1,1,0,1,0,1","0,0,1,1,0,1,0,1,1","2",""
"","html-keyboard-response","196","89398","0.0-196.0","3AZHRG4CU567VJG8H2M1RQNI67R03U","A2MJ0X6M3VSFVN","3WRBLBQ2GRU63BU2LFOJL1G32T90GO","","null","<img src=""img/flower6.png"" style=""width:200px; border:14px solid green;"">","null","","","","","","","","",""
"","image-keyboard-response","197","89846","0.0-197.0","3AZHRG4CU567VJG8H2M1RQNI67R03U","A2MJ0X6M3VSFVN","3WRBLBQ2GRU63BU2LFOJL1G32T90GO","","441.89999997615814","img/flower6.png","75","447.19999998807907","2","0","1","2","1,0,0,1,1,0,1,0,1","0,0,1,1,0,1,0,1,1","2",""
"","html-keyboard-response","198","90153","0.0-198.0","3AZHRG4CU567VJG8H2M1RQNI67R03U","A2MJ0X6M3VSFVN","3WRBLBQ2GRU63BU2LFOJL1G32T90GO","","null","<img src=""img/flower6.png"" style=""width:200px;border:14px solid red;"">","null","","","","","","","","",""
"","image-keyboard-response","199","90988","0.0-199.0","3AZHRG4CU567VJG8H2M1RQNI67R03U","A2MJ0X6M3VSFVN","3WRBLBQ2GRU63BU2LFOJL1G32T90GO","","826.5","img/flower6.png","75","833.5","2","0","1","2","1,0,0,1,1,0,1,0,1","0,0,1,1,0,1,0,1,1","2",""
"","html-keyboard-response","200","91292","0.0-200.0","3AZHRG4CU567VJG8H2M1RQNI67R03U","A2MJ0X6M3VSFVN","3WRBLBQ2GRU63BU2LFOJL1G32T90GO","","null","<img src=""img/flower6.png"" style=""width:200px;border:14px solid red;"">","null","","","","","","","","",""
"","image-keyboard-response","201","91451","0.0-201.0","3AZHRG4CU567VJG8H2M1RQNI67R03U","A2MJ0X6M3VSFVN","3WRBLBQ2GRU63BU2LFOJL1G32T90GO","","153.2999999821186","img/flower5.png","74","157.89999997615814","1","0","3","2","1,0,0,1,1,0,1,0,1","0,0,1,1,0,1,0,1,1","2",""
"","html-keyboard-response","202","91758","0.0-202.0","3AZHRG4CU567VJG8H2M1RQNI67R03U","A2MJ0X6M3VSFVN","3WRBLBQ2GRU63BU2LFOJL1G32T90GO","","null","<img src=""img/flower5.png"" style=""width:200px;border:14px solid red;"">","null","","","","","","","","",""
"","image-keyboard-response","203","91790","0.0-203.0","3AZHRG4CU567VJG8H2M1RQNI67R03U","A2MJ0X6M3VSFVN","3WRBLBQ2GRU63BU2LFOJL1G32T90GO","","26","img/flower2.png","74","30.19999998807907","1","1","2","2","1,0,0,1,1,0,1,0,1","0,0,1,1,0,1,0,1,1","2",""
"","html-keyboard-response","204","92096","0.0-204.0","3AZHRG4CU567VJG8H2M1RQNI67R03U","A2MJ0X6M3VSFVN","3WRBLBQ2GRU63BU2LFOJL1G32T90GO","","null","<img src=""img/flower2.png"" style=""width:200px; border:14px solid green;"">","null","","","","","","","","",""
"","image-keyboard-response","205","92106","0.0-205.0","3AZHRG4CU567VJG8H2M1RQNI67R03U","A2MJ0X6M3VSFVN","3WRBLBQ2GRU63BU2LFOJL1G32T90GO","","2.699999988079071","img/flower5.png","75","6.0999999940395355","2","1","3","2","1,0,0,1,1,0,1,0,1","0,0,1,1,0,1,0,1,1","2",""
"","html-keyboard-response","206","92409","0.0-206.0","3AZHRG4CU567VJG8H2M1RQNI67R03U","A2MJ0X6M3VSFVN","3WRBLBQ2GRU63BU2LFOJL1G32T90GO","","null","<img src=""img/flower5.png"" style=""width:200px; border:14px solid green;"">","null","","","","","","","","",""
"","image-keyboard-response","207","92464","0.0-207.0","3AZHRG4CU567VJG8H2M1RQNI67R03U","A2MJ0X6M3VSFVN","3WRBLBQ2GRU63BU2LFOJL1G32T90GO","","49.70000001788139","img/flower5.png","76","54.10000002384186","3","1","3","2","1,0,0,1,1,0,1,0,1","0,0,1,1,0,1,0,1,1","2",""
"","html-keyboard-response","208","92769","0.0-208.0","3AZHRG4CU567VJG8H2M1RQNI67R03U","A2MJ0X6M3VSFVN","3WRBLBQ2GRU63BU2LFOJL1G32T90GO","","null","<img src=""img/flower5.png"" style=""width:200px; border:14px solid green;"">","null","","","","","","","","",""
"","image-keyboard-response","209","92910","0.0-209.0","3AZHRG4CU567VJG8H2M1RQNI67R03U","A2MJ0X6M3VSFVN","3WRBLBQ2GRU63BU2LFOJL1G32T90GO","","137.2000000178814","img/flower6.png","75","143.40000000596046","2","0","1","2","1,0,0,1,1,0,1,0,1","0,0,1,1,0,1,0,1,1","2",""
"","html-keyboard-response","210","93220","0.0-210.0","3AZHRG4CU567VJG8H2M1RQNI67R03U","A2MJ0X6M3VSFVN","3WRBLBQ2GRU63BU2LFOJL1G32T90GO","","null","<img src=""img/flower6.png"" style=""width:200px;border:14px solid red;"">","null","","","","","","","","",""
"","image-keyboard-response","211","93297","0.0-211.0","3AZHRG4CU567VJG8H2M1RQNI67R03U","A2MJ0X6M3VSFVN","3WRBLBQ2GRU63BU2LFOJL1G32T90GO","","70.40000000596046","img/flower5.png","74","75.69999998807907","1","0","3","2","1,0,0,1,1,0,1,0,1","0,0,1,1,0,1,0,1,1","2",""
"","html-keyboard-response","212","93603","0.0-212.0","3AZHRG4CU567VJG8H2M1RQNI67R03U","A2MJ0X6M3VSFVN","3WRBLBQ2GRU63BU2LFOJL1G32T90GO","","null","<img src=""img/flower5.png"" style=""width:200px;border:14px solid red;"">","null","","","","","","","","",""
"","image-keyboard-response","213","93716","0.0-213.0","3AZHRG4CU567VJG8H2M1RQNI67R03U","A2MJ0X6M3VSFVN","3WRBLBQ2GRU63BU2LFOJL1G32T90GO","","103.7000000178814","img/flower6.png","75","111.5","2","0","1","2","1,0,0,1,1,0,1,0,1","0,0,1,1,0,1,0,1,1","2",""
"","html-keyboard-response","214","94020","0.0-214.0","3AZHRG4CU567VJG8H2M1RQNI67R03U","A2MJ0X6M3VSFVN","3WRBLBQ2GRU63BU2LFOJL1G32T90GO","","null","<img src=""img/flower6.png"" style=""width:200px;border:14px solid red;"">","null","","","","","","","","",""
"","image-keyboard-response","215","94121","0.0-215.0","3AZHRG4CU567VJG8H2M1RQNI67R03U","A2MJ0X6M3VSFVN","3WRBLBQ2GRU63BU2LFOJL1G32T90GO","","98.40000000596046","img/flower2.png","76","101.60000002384186","3","1","2","2","1,0,0,1,1,0,1,0,1","0,0,1,1,0,1,0,1,1","2",""
"","html-keyboard-response","216","94426","0.0-216.0","3AZHRG4CU567VJG8H2M1RQNI67R03U","A2MJ0X6M3VSFVN","3WRBLBQ2GRU63BU2LFOJL1G32T90GO","","null","<img src=""img/flower2.png"" style=""width:200px; border:14px solid green;"">","null","","","","","","","","",""
"","image-keyboard-response","217","94642","0.0-217.0","3AZHRG4CU567VJG8H2M1RQNI67R03U","A2MJ0X6M3VSFVN","3WRBLBQ2GRU63BU2LFOJL1G32T90GO","","209","img/flower2.png","75","213.59999999403954","2","0","2","2","1,0,0,1,1,0,1,0,1","0,0,1,1,0,1,0,1,1","2",""
"","html-keyboard-response","218","94947","0.0-218.0","3AZHRG4CU567VJG8H2M1RQNI67R03U","A2MJ0X6M3VSFVN","3WRBLBQ2GRU63BU2LFOJL1G32T90GO","","null","<img src=""img/flower2.png"" style=""width:200px;border:14px solid red;"">","null","","","","","","","","",""
"","image-keyboard-response","219","95067","0.0-219.0","3AZHRG4CU567VJG8H2M1RQNI67R03U","A2MJ0X6M3VSFVN","3WRBLBQ2GRU63BU2LFOJL1G32T90GO","","113.59999999403954","img/flower5.png","75","119.09999999403954","2","1","3","2","1,0,0,1,1,0,1,0,1","0,0,1,1,0,1,0,1,1","2",""
"","html-keyboard-response","220","95372","0.0-220.0","3AZHRG4CU567VJG8H2M1RQNI67R03U","A2MJ0X6M3VSFVN","3WRBLBQ2GRU63BU2LFOJL1G32T90GO","","null","<img src=""img/flower5.png"" style=""width:200px; border:14px solid green;"">","null","","","","","","","","",""
"","image-keyboard-response","221","95450","0.0-221.0","3AZHRG4CU567VJG8H2M1RQNI67R03U","A2MJ0X6M3VSFVN","3WRBLBQ2GRU63BU2LFOJL1G32T90GO","","69","img/flower5.png","74","75.80000001192093","1","0","3","2","1,0,0,1,1,0,1,0,1","0,0,1,1,0,1,0,1,1","2",""
"","html-keyboard-response","222","95759","0.0-222.0","3AZHRG4CU567VJG8H2M1RQNI67R03U","A2MJ0X6M3VSFVN","3WRBLBQ2GRU63BU2LFOJL1G32T90GO","","null","<img src=""img/flower5.png"" style=""width:200px;border:14px solid red;"">","null","","","","","","","","",""
"","image-keyboard-response","223","95768","0.0-223.0","3AZHRG4CU567VJG8H2M1RQNI67R03U","A2MJ0X6M3VSFVN","3WRBLBQ2GRU63BU2LFOJL1G32T90GO","","3","img/flower6.png","75","7.0999999940395355","2","0","1","2","1,0,0,1,1,0,1,0,1","0,0,1,1,0,1,0,1,1","2",""
"","html-keyboard-response","224","96073","0.0-224.0","3AZHRG4CU567VJG8H2M1RQNI67R03U","A2MJ0X6M3VSFVN","3WRBLBQ2GRU63BU2LFOJL1G32T90GO","","null","<img src=""img/flower6.png"" style=""width:200px;border:14px solid red;"">","null","","","","","","","","",""
"","image-keyboard-response","225","96219","0.0-225.0","3AZHRG4CU567VJG8H2M1RQNI67R03U","A2MJ0X6M3VSFVN","3WRBLBQ2GRU63BU2LFOJL1G32T90GO","","139.39999997615814","img/flower2.png","76","144.2000000178814","3","1","2","2","1,0,0,1,1,0,1,0,1","0,0,1,1,0,1,0,1,1","2",""
"","html-keyboard-response","226","96527","0.0-226.0","3AZHRG4CU567VJG8H2M1RQNI67R03U","A2MJ0X6M3VSFVN","3WRBLBQ2GRU63BU2LFOJL1G32T90GO","","null","<img src=""img/flower2.png"" style=""width:200px; border:14px solid green;"">","null","","","","","","","","",""
"","image-keyboard-response","227","96637","0.0-227.0","3AZHRG4CU567VJG8H2M1RQNI67R03U","A2MJ0X6M3VSFVN","3WRBLBQ2GRU63BU2LFOJL1G32T90GO","","102.90000000596046","img/flower6.png","75","109.2000000178814","2","0","1","2","1,0,0,1,1,0,1,0,1","0,0,1,1,0,1,0,1,1","2",""
"","html-keyboard-response","228","96943","0.0-228.0","3AZHRG4CU567VJG8H2M1RQNI67R03U","A2MJ0X6M3VSFVN","3WRBLBQ2GRU63BU2LFOJL1G32T90GO","","null","<img src=""img/flower6.png"" style=""width:200px;border:14px solid red;"">","null","","","","","","","","",""
"","image-keyboard-response","229","97036","0.0-229.0","3AZHRG4CU567VJG8H2M1RQNI67R03U","A2MJ0X6M3VSFVN","3WRBLBQ2GRU63BU2LFOJL1G32T90GO","","87","img/flower5.png","74","90.69999998807907","1","0","3","2","1,0,0,1,1,0,1,0,1","0,0,1,1,0,1,0,1,1","2",""
"","html-keyboard-response","230","97341","0.0-230.0","3AZHRG4CU567VJG8H2M1RQNI67R03U","A2MJ0X6M3VSFVN","3WRBLBQ2GRU63BU2LFOJL1G32T90GO","","null","<img src=""img/flower5.png"" style=""width:200px;border:14px solid red;"">","null","","","","","","","","",""
"","image-keyboard-response","231","98084","0.0-231.0","3AZHRG4CU567VJG8H2M1RQNI67R03U","A2MJ0X6M3VSFVN","3WRBLBQ2GRU63BU2LFOJL1G32T90GO","","734.3999999761581","img/flower2.png","74","741.7999999821186","1","1","2","2","1,0,0,1,1,0,1,0,1","0,0,1,1,0,1,0,1,1","2",""
"","html-keyboard-response","232","98390","0.0-232.0","3AZHRG4CU567VJG8H2M1RQNI67R03U","A2MJ0X6M3VSFVN","3WRBLBQ2GRU63BU2LFOJL1G32T90GO","","null","<img src=""img/flower2.png"" style=""width:200px; border:14px solid green;"">","null","","","","","","","","",""
"","image-keyboard-response","233","98487","0.0-233.0","3AZHRG4CU567VJG8H2M1RQNI67R03U","A2MJ0X6M3VSFVN","3WRBLBQ2GRU63BU2LFOJL1G32T90GO","","88.59999999403954","img/flower5.png","75","96.09999999403954","2","1","3","2","1,0,0,1,1,0,1,0,1","0,0,1,1,0,1,0,1,1","2",""
"","html-keyboard-response","234","98795","0.0-234.0","3AZHRG4CU567VJG8H2M1RQNI67R03U","A2MJ0X6M3VSFVN","3WRBLBQ2GRU63BU2LFOJL1G32T90GO","","null","<img src=""img/flower5.png"" style=""width:200px; border:14px solid green;"">","null","","","","","","","","",""
"","image-keyboard-response","235","98842","0.0-235.0","3AZHRG4CU567VJG8H2M1RQNI67R03U","A2MJ0X6M3VSFVN","3WRBLBQ2GRU63BU2LFOJL1G32T90GO","","41.39999997615814","img/flower5.png","75","46.69999998807907","2","1","3","2","1,0,0,1,1,0,1,0,1","0,0,1,1,0,1,0,1,1","2",""
"","html-keyboard-response","236","99149","0.0-236.0","3AZHRG4CU567VJG8H2M1RQNI67R03U","A2MJ0X6M3VSFVN","3WRBLBQ2GRU63BU2LFOJL1G32T90GO","","null","<img src=""img/flower5.png"" style=""width:200px; border:14px solid green;"">","null","","","","","","","","",""
"","image-keyboard-response","237","99315","0.0-237.0","3AZHRG4CU567VJG8H2M1RQNI67R03U","A2MJ0X6M3VSFVN","3WRBLBQ2GRU63BU2LFOJL1G32T90GO","","158.39999997615814","img/flower6.png","74","164.90000000596046","1","0","1","2","1,0,0,1,1,0,1,0,1","0,0,1,1,0,1,0,1,1","2",""
"","html-keyboard-response","238","99622","0.0-238.0","3AZHRG4CU567VJG8H2M1RQNI67R03U","A2MJ0X6M3VSFVN","3WRBLBQ2GRU63BU2LFOJL1G32T90GO","","null","<img src=""img/flower6.png"" style=""width:200px;border:14px solid red;"">","null","","","","","","","","",""
"","image-keyboard-response","239","99702","0.0-239.0","3AZHRG4CU567VJG8H2M1RQNI67R03U","A2MJ0X6M3VSFVN","3WRBLBQ2GRU63BU2LFOJL1G32T90GO","","72","img/flower2.png","74","76.69999998807907","1","1","2","2","1,0,0,1,1,0,1,0,1","0,0,1,1,0,1,0,1,1","2",""
"","html-keyboard-response","240","100007","0.0-240.0","3AZHRG4CU567VJG8H2M1RQNI67R03U","A2MJ0X6M3VSFVN","3WRBLBQ2GRU63BU2LFOJL1G32T90GO","","null","<img src=""img/flower2.png"" style=""width:200px; border:14px solid green;"">","null","","","","","","","","",""
"","image-keyboard-response","241","100416","0.0-241.0","3AZHRG4CU567VJG8H2M1RQNI67R03U","A2MJ0X6M3VSFVN","3WRBLBQ2GRU63BU2LFOJL1G32T90GO","","402.80000001192093","img/flower2.png","75","407.5","2","0","2","2","1,0,0,1,1,0,1,0,1","0,0,1,1,0,1,0,1,1","2",""
"","html-keyboard-response","242","100722","0.0-242.0","3AZHRG4CU567VJG8H2M1RQNI67R03U","A2MJ0X6M3VSFVN","3WRBLBQ2GRU63BU2LFOJL1G32T90GO","","null","<img src=""img/flower2.png"" style=""width:200px;border:14px solid red;"">","null","","","","","","","","",""
"","image-keyboard-response","243","100799","0.0-243.0","3AZHRG4CU567VJG8H2M1RQNI67R03U","A2MJ0X6M3VSFVN","3WRBLBQ2GRU63BU2LFOJL1G32T90GO","","70.09999999403954","img/flower6.png","76","74.69999998807907","3","1","1","2","1,0,0,1,1,0,1,0,1","0,0,1,1,0,1,0,1,1","2",""
"","html-keyboard-response","244","101106","0.0-244.0","3AZHRG4CU567VJG8H2M1RQNI67R03U","A2MJ0X6M3VSFVN","3WRBLBQ2GRU63BU2LFOJL1G32T90GO","","null","<img src=""img/flower6.png"" style=""width:200px; border:14px solid green;"">","null","","","","","","","","",""
"","image-keyboard-response","245","101171","0.0-245.0","3AZHRG4CU567VJG8H2M1RQNI67R03U","A2MJ0X6M3VSFVN","3WRBLBQ2GRU63BU2LFOJL1G32T90GO","","57.5","img/flower5.png","75","61.69999998807907","2","1","3","2","1,0,0,1,1,0,1,0,1","0,0,1,1,0,1,0,1,1","2",""
"","html-keyboard-response","246","101476","0.0-246.0","3AZHRG4CU567VJG8H2M1RQNI67R03U","A2MJ0X6M3VSFVN","3WRBLBQ2GRU63BU2LFOJL1G32T90GO","","null","<img src=""img/flower5.png"" style=""width:200px; border:14px solid green;"">","null","","","","","","","","",""
"","image-keyboard-response","247","101587","0.0-247.0","3AZHRG4CU567VJG8H2M1RQNI67R03U","A2MJ0X6M3VSFVN","3WRBLBQ2GRU63BU2LFOJL1G32T90GO","","106.2000000178814","img/flower6.png","76","110.40000000596046","3","1","1","2","1,0,0,1,1,0,1,0,1","0,0,1,1,0,1,0,1,1","2",""
"","html-keyboard-response","248","101892","0.0-248.0","3AZHRG4CU567VJG8H2M1RQNI67R03U","A2MJ0X6M3VSFVN","3WRBLBQ2GRU63BU2LFOJL1G32T90GO","","null","<img src=""img/flower6.png"" style=""width:200px; border:14px solid green;"">","null","","","","","","","","",""
"","image-keyboard-response","249","102021","0.0-249.0","3AZHRG4CU567VJG8H2M1RQNI67R03U","A2MJ0X6M3VSFVN","3WRBLBQ2GRU63BU2LFOJL1G32T90GO","","121.7999999821186","img/flower6.png","76","128.60000002384186","3","1","1","2","1,0,0,1,1,0,1,0,1","0,0,1,1,0,1,0,1,1","2",""
"","html-keyboard-response","250","102328","0.0-250.0","3AZHRG4CU567VJG8H2M1RQNI67R03U","A2MJ0X6M3VSFVN","3WRBLBQ2GRU63BU2LFOJL1G32T90GO","","null","<img src=""img/flower6.png"" style=""width:200px; border:14px solid green;"">","null","","","","","","","","",""
"","image-keyboard-response","251","102417","0.0-251.0","3AZHRG4CU567VJG8H2M1RQNI67R03U","A2MJ0X6M3VSFVN","3WRBLBQ2GRU63BU2LFOJL1G32T90GO","","80.19999998807907","img/flower6.png","75","86.40000000596046","2","0","1","2","1,0,0,1,1,0,1,0,1","0,0,1,1,0,1,0,1,1","2",""
"","html-keyboard-response","252","102722","0.0-252.0","3AZHRG4CU567VJG8H2M1RQNI67R03U","A2MJ0X6M3VSFVN","3WRBLBQ2GRU63BU2LFOJL1G32T90GO","","null","<img src=""img/flower6.png"" style=""width:200px;border:14px solid red;"">","null","","","","","","","","",""
"","image-keyboard-response","253","102748","0.0-253.0","3AZHRG4CU567VJG8H2M1RQNI67R03U","A2MJ0X6M3VSFVN","3WRBLBQ2GRU63BU2LFOJL1G32T90GO","","18.5","img/flower5.png","74","23.5","1","0","3","2","1,0,0,1,1,0,1,0,1","0,0,1,1,0,1,0,1,1","2",""
"","html-keyboard-response","254","103053","0.0-254.0","3AZHRG4CU567VJG8H2M1RQNI67R03U","A2MJ0X6M3VSFVN","3WRBLBQ2GRU63BU2LFOJL1G32T90GO","","null","<img src=""img/flower5.png"" style=""width:200px;border:14px solid red;"">","null","","","","","","","","",""
"","image-keyboard-response","255","103082","0.0-255.0","3AZHRG4CU567VJG8H2M1RQNI67R03U","A2MJ0X6M3VSFVN","3WRBLBQ2GRU63BU2LFOJL1G32T90GO","","20.5","img/flower2.png","75","26.399999976158142","2","0","2","2","1,0,0,1,1,0,1,0,1","0,0,1,1,0,1,0,1,1","2",""
"","html-keyboard-response","256","103388","0.0-256.0","3AZHRG4CU567VJG8H2M1RQNI67R03U","A2MJ0X6M3VSFVN","3WRBLBQ2GRU63BU2LFOJL1G32T90GO","","null","<img src=""img/flower2.png"" style=""width:200px;border:14px solid red;"">","null","","","","","","","","",""
"","image-keyboard-response","257","103457","0.0-257.0","3AZHRG4CU567VJG8H2M1RQNI67R03U","A2MJ0X6M3VSFVN","3WRBLBQ2GRU63BU2LFOJL1G32T90GO","","59.30000001192093","img/flower2.png","75","67.40000000596046","2","0","2","2","1,0,0,1,1,0,1,0,1","0,0,1,1,0,1,0,1,1","2",""
"","html-keyboard-response","258","103763","0.0-258.0","3AZHRG4CU567VJG8H2M1RQNI67R03U","A2MJ0X6M3VSFVN","3WRBLBQ2GRU63BU2LFOJL1G32T90GO","","null","<img src=""img/flower2.png"" style=""width:200px;border:14px solid red;"">","null","","","","","","","","",""
"","image-keyboard-response","259","103824","0.0-259.0","3AZHRG4CU567VJG8H2M1RQNI67R03U","A2MJ0X6M3VSFVN","3WRBLBQ2GRU63BU2LFOJL1G32T90GO","","53.5","img/flower2.png","75","60.20000001788139","2","0","2","2","1,0,0,1,1,0,1,0,1","0,0,1,1,0,1,0,1,1","2",""
"","html-keyboard-response","260","104129","0.0-260.0","3AZHRG4CU567VJG8H2M1RQNI67R03U","A2MJ0X6M3VSFVN","3WRBLBQ2GRU63BU2LFOJL1G32T90GO","","null","<img src=""img/flower2.png"" style=""width:200px;border:14px solid red;"">","null","","","","","","","","",""
"","image-keyboard-response","261","104532","0.0-261.0","3AZHRG4CU567VJG8H2M1RQNI67R03U","A2MJ0X6M3VSFVN","3WRBLBQ2GRU63BU2LFOJL1G32T90GO","","397.69999998807907","img/flower6.png","75","402.59999999403954","2","0","1","2","1,0,0,1,1,0,1,0,1","0,0,1,1,0,1,0,1,1","2",""
"","html-keyboard-response","262","104839","0.0-262.0","3AZHRG4CU567VJG8H2M1RQNI67R03U","A2MJ0X6M3VSFVN","3WRBLBQ2GRU63BU2LFOJL1G32T90GO","","null","<img src=""img/flower6.png"" style=""width:200px;border:14px solid red;"">","null","","","","","","","","",""
"","image-keyboard-response","263","104881","0.0-263.0","3AZHRG4CU567VJG8H2M1RQNI67R03U","A2MJ0X6M3VSFVN","3WRBLBQ2GRU63BU2LFOJL1G32T90GO","","35.69999998807907","img/flower2.png","75","39.80000001192093","2","0","2","2","1,0,0,1,1,0,1,0,1","0,0,1,1,0,1,0,1,1","2",""
"","html-keyboard-response","264","105187","0.0-264.0","3AZHRG4CU567VJG8H2M1RQNI67R03U","A2MJ0X6M3VSFVN","3WRBLBQ2GRU63BU2LFOJL1G32T90GO","","null","<img src=""img/flower2.png"" style=""width:200px;border:14px solid red;"">","null","","","","","","","","",""
"","image-keyboard-response","265","105627","0.0-265.0","3AZHRG4CU567VJG8H2M1RQNI67R03U","A2MJ0X6M3VSFVN","3WRBLBQ2GRU63BU2LFOJL1G32T90GO","","431.5","img/flower6.png","75","438.59999999403954","2","0","1","2","1,0,0,1,1,0,1,0,1","0,0,1,1,0,1,0,1,1","2",""
"","html-keyboard-response","266","105934","0.0-266.0","3AZHRG4CU567VJG8H2M1RQNI67R03U","A2MJ0X6M3VSFVN","3WRBLBQ2GRU63BU2LFOJL1G32T90GO","","null","<img src=""img/flower6.png"" style=""width:200px;border:14px solid red;"">","null","","","","","","","","",""
"","image-keyboard-response","267","106090","0.0-267.0","3AZHRG4CU567VJG8H2M1RQNI67R03U","A2MJ0X6M3VSFVN","3WRBLBQ2GRU63BU2LFOJL1G32T90GO","","146.30000001192093","img/flower5.png","75","153.40000000596046","2","1","3","2","1,0,0,1,1,0,1,0,1","0,0,1,1,0,1,0,1,1","2",""
"","html-keyboard-response","268","106396","0.0-268.0","3AZHRG4CU567VJG8H2M1RQNI67R03U","A2MJ0X6M3VSFVN","3WRBLBQ2GRU63BU2LFOJL1G32T90GO","","null","<img src=""img/flower5.png"" style=""width:200px; border:14px solid green;"">","null","","","","","","","","",""
"","image-keyboard-response","269","106464","0.0-269.0","3AZHRG4CU567VJG8H2M1RQNI67R03U","A2MJ0X6M3VSFVN","3WRBLBQ2GRU63BU2LFOJL1G32T90GO","","62.79999998211861","img/flower6.png","75","67","2","0","1","2","1,0,0,1,1,0,1,0,1","0,0,1,1,0,1,0,1,1","2",""
"","html-keyboard-response","270","106772","0.0-270.0","3AZHRG4CU567VJG8H2M1RQNI67R03U","A2MJ0X6M3VSFVN","3WRBLBQ2GRU63BU2LFOJL1G32T90GO","","null","<img src=""img/flower6.png"" style=""width:200px;border:14px solid red;"">","null","","","","","","","","",""
"","image-keyboard-response","271","106814","0.0-271.0","3AZHRG4CU567VJG8H2M1RQNI67R03U","A2MJ0X6M3VSFVN","3WRBLBQ2GRU63BU2LFOJL1G32T90GO","","37.599999994039536","img/flower2.png","75","41.80000001192093","2","0","2","2","1,0,0,1,1,0,1,0,1","0,0,1,1,0,1,0,1,1","2",""
"","html-keyboard-response","272","107120","0.0-272.0","3AZHRG4CU567VJG8H2M1RQNI67R03U","A2MJ0X6M3VSFVN","3WRBLBQ2GRU63BU2LFOJL1G32T90GO","","null","<img src=""img/flower2.png"" style=""width:200px;border:14px solid red;"">","null","","","","","","","","",""
"","image-keyboard-response","273","107233","0.0-273.0","3AZHRG4CU567VJG8H2M1RQNI67R03U","A2MJ0X6M3VSFVN","3WRBLBQ2GRU63BU2LFOJL1G32T90GO","","105.2000000178814","img/flower6.png","75","110.5","2","0","1","2","1,0,0,1,1,0,1,0,1","0,0,1,1,0,1,0,1,1","2",""
"","html-keyboard-response","274","107539","0.0-274.0","3AZHRG4CU567VJG8H2M1RQNI67R03U","A2MJ0X6M3VSFVN","3WRBLBQ2GRU63BU2LFOJL1G32T90GO","","null","<img src=""img/flower6.png"" style=""width:200px;border:14px solid red;"">","null","","","","","","","","",""
"","image-keyboard-response","275","107633","0.0-275.0","3AZHRG4CU567VJG8H2M1RQNI67R03U","A2MJ0X6M3VSFVN","3WRBLBQ2GRU63BU2LFOJL1G32T90GO","","82.69999998807907","img/flower5.png","74","91.60000002384186","1","0","3","2","1,0,0,1,1,0,1,0,1","0,0,1,1,0,1,0,1,1","2",""
"","html-keyboard-response","276","107938","0.0-276.0","3AZHRG4CU567VJG8H2M1RQNI67R03U","A2MJ0X6M3VSFVN","3WRBLBQ2GRU63BU2LFOJL1G32T90GO","","null","<img src=""img/flower5.png"" style=""width:200px;border:14px solid red;"">","null","","","","","","","","",""
"","image-keyboard-response","277","108336","0.0-277.0","3AZHRG4CU567VJG8H2M1RQNI67R03U","A2MJ0X6M3VSFVN","3WRBLBQ2GRU63BU2LFOJL1G32T90GO","","392.40000000596046","img/flower5.png","74","397.60000002384186","1","0","3","2","1,0,0,1,1,0,1,0,1","0,0,1,1,0,1,0,1,1","2",""
"","html-keyboard-response","278","108642","0.0-278.0","3AZHRG4CU567VJG8H2M1RQNI67R03U","A2MJ0X6M3VSFVN","3WRBLBQ2GRU63BU2LFOJL1G32T90GO","","null","<img src=""img/flower5.png"" style=""width:200px;border:14px solid red;"">","null","","","","","","","","",""
"","image-keyboard-response","279","108671","0.0-279.0","3AZHRG4CU567VJG8H2M1RQNI67R03U","A2MJ0X6M3VSFVN","3WRBLBQ2GRU63BU2LFOJL1G32T90GO","","22.799999982118607","img/flower6.png","75","27.80000001192093","2","0","1","2","1,0,0,1,1,0,1,0,1","0,0,1,1,0,1,0,1,1","2",""
"","html-keyboard-response","280","108977","0.0-280.0","3AZHRG4CU567VJG8H2M1RQNI67R03U","A2MJ0X6M3VSFVN","3WRBLBQ2GRU63BU2LFOJL1G32T90GO","","null","<img src=""img/flower6.png"" style=""width:200px;border:14px solid red;"">","null","","","","","","","","",""
"","image-keyboard-response","281","109177","0.0-281.0","3AZHRG4CU567VJG8H2M1RQNI67R03U","A2MJ0X6M3VSFVN","3WRBLBQ2GRU63BU2LFOJL1G32T90GO","","194.09999999403954","img/flower2.png","75","198.7999999821186","2","0","2","2","1,0,0,1,1,0,1,0,1","0,0,1,1,0,1,0,1,1","2",""
"","html-keyboard-response","282","109485","0.0-282.0","3AZHRG4CU567VJG8H2M1RQNI67R03U","A2MJ0X6M3VSFVN","3WRBLBQ2GRU63BU2LFOJL1G32T90GO","","null","<img src=""img/flower2.png"" style=""width:200px;border:14px solid red;"">","null","","","","","","","","",""
"","image-keyboard-response","283","109694","0.0-283.0","3AZHRG4CU567VJG8H2M1RQNI67R03U","A2MJ0X6M3VSFVN","3WRBLBQ2GRU63BU2LFOJL1G32T90GO","","194.69999998807907","img/flower5.png","74","200.30000001192093","1","0","3","2","1,0,0,1,1,0,1,0,1","0,0,1,1,0,1,0,1,1","2",""
"","html-keyboard-response","284","109999","0.0-284.0","3AZHRG4CU567VJG8H2M1RQNI67R03U","A2MJ0X6M3VSFVN","3WRBLBQ2GRU63BU2LFOJL1G32T90GO","","null","<img src=""img/flower5.png"" style=""width:200px;border:14px solid red;"">","null","","","","","","","","",""
"","image-keyboard-response","285","110087","0.0-285.0","3AZHRG4CU567VJG8H2M1RQNI67R03U","A2MJ0X6M3VSFVN","3WRBLBQ2GRU63BU2LFOJL1G32T90GO","","80.19999998807907","img/flower2.png","74","86.5","1","1","2","2","1,0,0,1,1,0,1,0,1","0,0,1,1,0,1,0,1,1","2",""
"","html-keyboard-response","286","110394","0.0-286.0","3AZHRG4CU567VJG8H2M1RQNI67R03U","A2MJ0X6M3VSFVN","3WRBLBQ2GRU63BU2LFOJL1G32T90GO","","null","<img src=""img/flower2.png"" style=""width:200px; border:14px solid green;"">","null","","","","","","","","",""
"","image-keyboard-response","287","110490","0.0-287.0","3AZHRG4CU567VJG8H2M1RQNI67R03U","A2MJ0X6M3VSFVN","3WRBLBQ2GRU63BU2LFOJL1G32T90GO","","90.2000000178814","img/flower2.png","74","95","1","1","2","2","1,0,0,1,1,0,1,0,1","0,0,1,1,0,1,0,1,1","2",""
"","html-keyboard-response","288","110799","0.0-288.0","3AZHRG4CU567VJG8H2M1RQNI67R03U","A2MJ0X6M3VSFVN","3WRBLBQ2GRU63BU2LFOJL1G32T90GO","","null","<img src=""img/flower2.png"" style=""width:200px; border:14px solid green;"">","null","","","","","","","","",""
"","image-keyboard-response","289","111120","0.0-289.0","3AZHRG4CU567VJG8H2M1RQNI67R03U","A2MJ0X6M3VSFVN","3WRBLBQ2GRU63BU2LFOJL1G32T90GO","","314.40000000596046","img/flower6.png","76","319.90000000596046","3","1","1","2","1,0,0,1,1,0,1,0,1","0,0,1,1,0,1,0,1,1","2",""
"","html-keyboard-response","290","111427","0.0-290.0","3AZHRG4CU567VJG8H2M1RQNI67R03U","A2MJ0X6M3VSFVN","3WRBLBQ2GRU63BU2LFOJL1G32T90GO","","null","<img src=""img/flower6.png"" style=""width:200px; border:14px solid green;"">","null","","","","","","","","",""
"","image-keyboard-response","291","111518","0.0-291.0","3AZHRG4CU567VJG8H2M1RQNI67R03U","A2MJ0X6M3VSFVN","3WRBLBQ2GRU63BU2LFOJL1G32T90GO","","82.7000000178814","img/flower5.png","75","89.5","2","1","3","2","1,0,0,1,1,0,1,0,1","0,0,1,1,0,1,0,1,1","2",""
"","html-keyboard-response","292","111825","0.0-292.0","3AZHRG4CU567VJG8H2M1RQNI67R03U","A2MJ0X6M3VSFVN","3WRBLBQ2GRU63BU2LFOJL1G32T90GO","","null","<img src=""img/flower5.png"" style=""width:200px; border:14px solid green;"">","null","","","","","","","","",""
"","image-keyboard-response","293","112122","0.0-293.0","3AZHRG4CU567VJG8H2M1RQNI67R03U","A2MJ0X6M3VSFVN","3WRBLBQ2GRU63BU2LFOJL1G32T90GO","","290.2000000178814","img/flower5.png","75","295.7999999821186","2","1","3","2","1,0,0,1,1,0,1,0,1","0,0,1,1,0,1,0,1,1","2",""
"","html-keyboard-response","294","112431","0.0-294.0","3AZHRG4CU567VJG8H2M1RQNI67R03U","A2MJ0X6M3VSFVN","3WRBLBQ2GRU63BU2LFOJL1G32T90GO","","null","<img src=""img/flower5.png"" style=""width:200px; border:14px solid green;"">","null","","","","","","","","",""
"","image-keyboard-response","295","112501","0.0-295.0","3AZHRG4CU567VJG8H2M1RQNI67R03U","A2MJ0X6M3VSFVN","3WRBLBQ2GRU63BU2LFOJL1G32T90GO","","61.69999998807907","img/flower6.png","75","67.10000002384186","2","0","1","2","1,0,0,1,1,0,1,0,1","0,0,1,1,0,1,0,1,1","2",""
"","html-keyboard-response","296","112806","0.0-296.0","3AZHRG4CU567VJG8H2M1RQNI67R03U","A2MJ0X6M3VSFVN","3WRBLBQ2GRU63BU2LFOJL1G32T90GO","","null","<img src=""img/flower6.png"" style=""width:200px;border:14px solid red;"">","null","","","","","","","","",""
"","image-keyboard-response","297","113417","0.0-297.0","3AZHRG4CU567VJG8H2M1RQNI67R03U","A2MJ0X6M3VSFVN","3WRBLBQ2GRU63BU2LFOJL1G32T90GO","","605.1999999880791","img/flower6.png","76","610.0999999940395","3","1","1","2","1,0,0,1,1,0,1,0,1","0,0,1,1,0,1,0,1,1","2",""
"","html-keyboard-response","298","113723","0.0-298.0","3AZHRG4CU567VJG8H2M1RQNI67R03U","A2MJ0X6M3VSFVN","3WRBLBQ2GRU63BU2LFOJL1G32T90GO","","null","<img src=""img/flower6.png"" style=""width:200px; border:14px solid green;"">","null","","","","","","","","",""
"","image-keyboard-response","299","113758","0.0-299.0","3AZHRG4CU567VJG8H2M1RQNI67R03U","A2MJ0X6M3VSFVN","3WRBLBQ2GRU63BU2LFOJL1G32T90GO","","28.400000005960464","img/flower2.png","74","32.79999998211861","1","1","2","2","1,0,0,1,1,0,1,0,1","0,0,1,1,0,1,0,1,1","2",""
"","html-keyboard-response","300","114063","0.0-300.0","3AZHRG4CU567VJG8H2M1RQNI67R03U","A2MJ0X6M3VSFVN","3WRBLBQ2GRU63BU2LFOJL1G32T90GO","","null","<img src=""img/flower2.png"" style=""width:200px; border:14px solid green;"">","null","","","","","","","","",""
"","image-keyboard-response","301","114383","0.0-301.0","3AZHRG4CU567VJG8H2M1RQNI67R03U","A2MJ0X6M3VSFVN","3WRBLBQ2GRU63BU2LFOJL1G32T90GO","","313.09999999403954","img/flower6.png","74","318.10000002384186","1","0","1","2","1,0,0,1,1,0,1,0,1","0,0,1,1,0,1,0,1,1","2",""
"","html-keyboard-response","302","114689","0.0-302.0","3AZHRG4CU567VJG8H2M1RQNI67R03U","A2MJ0X6M3VSFVN","3WRBLBQ2GRU63BU2LFOJL1G32T90GO","","null","<img src=""img/flower6.png"" style=""width:200px;border:14px solid red;"">","null","","","","","","","","",""
"","image-keyboard-response","303","114900","0.0-303.0","3AZHRG4CU567VJG8H2M1RQNI67R03U","A2MJ0X6M3VSFVN","3WRBLBQ2GRU63BU2LFOJL1G32T90GO","","200.30000001192093","img/flower2.png","74","208.5","1","1","2","2","1,0,0,1,1,0,1,0,1","0,0,1,1,0,1,0,1,1","2",""
"","html-keyboard-response","304","115206","0.0-304.0","3AZHRG4CU567VJG8H2M1RQNI67R03U","A2MJ0X6M3VSFVN","3WRBLBQ2GRU63BU2LFOJL1G32T90GO","","null","<img src=""img/flower2.png"" style=""width:200px; border:14px solid green;"">","null","","","","","","","","",""
"","image-keyboard-response","305","115263","0.0-305.0","3AZHRG4CU567VJG8H2M1RQNI67R03U","A2MJ0X6M3VSFVN","3WRBLBQ2GRU63BU2LFOJL1G32T90GO","","51.30000001192093","img/flower6.png","75","55.80000001192093","2","0","1","2","1,0,0,1,1,0,1,0,1","0,0,1,1,0,1,0,1,1","2",""
"","html-keyboard-response","306","115569","0.0-306.0","3AZHRG4CU567VJG8H2M1RQNI67R03U","A2MJ0X6M3VSFVN","3WRBLBQ2GRU63BU2LFOJL1G32T90GO","","null","<img src=""img/flower6.png"" style=""width:200px;border:14px solid red;"">","null","","","","","","","","",""
"","image-keyboard-response","307","115649","0.0-307.0","3AZHRG4CU567VJG8H2M1RQNI67R03U","A2MJ0X6M3VSFVN","3WRBLBQ2GRU63BU2LFOJL1G32T90GO","","73.5","img/flower2.png","74","77.69999998807907","1","1","2","2","1,0,0,1,1,0,1,0,1","0,0,1,1,0,1,0,1,1","2",""
"","html-keyboard-response","308","115954","0.0-308.0","3AZHRG4CU567VJG8H2M1RQNI67R03U","A2MJ0X6M3VSFVN","3WRBLBQ2GRU63BU2LFOJL1G32T90GO","","null","<img src=""img/flower2.png"" style=""width:200px; border:14px solid green;"">","null","","","","","","","","",""
"","image-keyboard-response","309","115989","0.0-309.0","3AZHRG4CU567VJG8H2M1RQNI67R03U","A2MJ0X6M3VSFVN","3WRBLBQ2GRU63BU2LFOJL1G32T90GO","","29.900000005960464","img/flower5.png","74","34","1","0","3","2","1,0,0,1,1,0,1,0,1","0,0,1,1,0,1,0,1,1","2",""
"","html-keyboard-response","310","116295","0.0-310.0","3AZHRG4CU567VJG8H2M1RQNI67R03U","A2MJ0X6M3VSFVN","3WRBLBQ2GRU63BU2LFOJL1G32T90GO","","null","<img src=""img/flower5.png"" style=""width:200px;border:14px solid red;"">","null","","","","","","","","",""
"","image-keyboard-response","311","116316","0.0-311.0","3AZHRG4CU567VJG8H2M1RQNI67R03U","A2MJ0X6M3VSFVN","3WRBLBQ2GRU63BU2LFOJL1G32T90GO","","14.5","img/flower2.png","74","19.5","1","1","2","2","1,0,0,1,1,0,1,0,1","0,0,1,1,0,1,0,1,1","2",""
"","html-keyboard-response","312","116622","0.0-312.0","3AZHRG4CU567VJG8H2M1RQNI67R03U","A2MJ0X6M3VSFVN","3WRBLBQ2GRU63BU2LFOJL1G32T90GO","","null","<img src=""img/flower2.png"" style=""width:200px; border:14px solid green;"">","null","","","","","","","","",""
"","image-keyboard-response","313","116910","0.0-313.0","3AZHRG4CU567VJG8H2M1RQNI67R03U","A2MJ0X6M3VSFVN","3WRBLBQ2GRU63BU2LFOJL1G32T90GO","","281.09999999403954","img/flower6.png","74","286.5","1","0","1","2","1,0,0,1,1,0,1,0,1","0,0,1,1,0,1,0,1,1","2",""
"","html-keyboard-response","314","117216","0.0-314.0","3AZHRG4CU567VJG8H2M1RQNI67R03U","A2MJ0X6M3VSFVN","3WRBLBQ2GRU63BU2LFOJL1G32T90GO","","null","<img src=""img/flower6.png"" style=""width:200px;border:14px solid red;"">","null","","","","","","","","",""
"","image-keyboard-response","315","117490","0.0-315.0","3AZHRG4CU567VJG8H2M1RQNI67R03U","A2MJ0X6M3VSFVN","3WRBLBQ2GRU63BU2LFOJL1G32T90GO","","267.90000000596046","img/flower2.png","75","273.7999999821186","2","0","2","2","1,0,0,1,1,0,1,0,1","0,0,1,1,0,1,0,1,1","2",""
"","html-keyboard-response","316","117799","0.0-316.0","3AZHRG4CU567VJG8H2M1RQNI67R03U","A2MJ0X6M3VSFVN","3WRBLBQ2GRU63BU2LFOJL1G32T90GO","","null","<img src=""img/flower2.png"" style=""width:200px;border:14px solid red;"">","null","","","","","","","","",""
"","image-keyboard-response","317","117946","0.0-317.0","3AZHRG4CU567VJG8H2M1RQNI67R03U","A2MJ0X6M3VSFVN","3WRBLBQ2GRU63BU2LFOJL1G32T90GO","","141.5","img/flower5.png","76","146.7999999821186","3","1","3","2","1,0,0,1,1,0,1,0,1","0,0,1,1,0,1,0,1,1","2",""
"","html-keyboard-response","318","118254","0.0-318.0","3AZHRG4CU567VJG8H2M1RQNI67R03U","A2MJ0X6M3VSFVN","3WRBLBQ2GRU63BU2LFOJL1G32T90GO","","null","<img src=""img/flower5.png"" style=""width:200px; border:14px solid green;"">","null","","","","","","","","",""
"","image-keyboard-response","319","118515","0.0-319.0","3AZHRG4CU567VJG8H2M1RQNI67R03U","A2MJ0X6M3VSFVN","3WRBLBQ2GRU63BU2LFOJL1G32T90GO","","252.90000000596046","img/flower5.png","75","259.5","2","1","3","2","1,0,0,1,1,0,1,0,1","0,0,1,1,0,1,0,1,1","2",""
"","html-keyboard-response","320","118820","0.0-320.0","3AZHRG4CU567VJG8H2M1RQNI67R03U","A2MJ0X6M3VSFVN","3WRBLBQ2GRU63BU2LFOJL1G32T90GO","","null","<img src=""img/flower5.png"" style=""width:200px; border:14px solid green;"">","null","","","","","","","","",""
"","image-keyboard-response","321","118862","0.0-321.0","3AZHRG4CU567VJG8H2M1RQNI67R03U","A2MJ0X6M3VSFVN","3WRBLBQ2GRU63BU2LFOJL1G32T90GO","","35.599999994039536","img/flower2.png","76","41","3","1","2","2","1,0,0,1,1,0,1,0,1","0,0,1,1,0,1,0,1,1","2",""
"","html-keyboard-response","322","119168","0.0-322.0","3AZHRG4CU567VJG8H2M1RQNI67R03U","A2MJ0X6M3VSFVN","3WRBLBQ2GRU63BU2LFOJL1G32T90GO","","null","<img src=""img/flower2.png"" style=""width:200px; border:14px solid green;"">","null","","","","","","","","",""
"","image-keyboard-response","323","119461","0.0-323.0","3AZHRG4CU567VJG8H2M1RQNI67R03U","A2MJ0X6M3VSFVN","3WRBLBQ2GRU63BU2LFOJL1G32T90GO","","287.69999998807907","img/flower5.png","76","292.19999998807907","3","1","3","2","1,0,0,1,1,0,1,0,1","0,0,1,1,0,1,0,1,1","2",""
"","html-keyboard-response","324","119768","0.0-324.0","3AZHRG4CU567VJG8H2M1RQNI67R03U","A2MJ0X6M3VSFVN","3WRBLBQ2GRU63BU2LFOJL1G32T90GO","","null","<img src=""img/flower5.png"" style=""width:200px; border:14px solid green;"">","null","","","","","","","","",""
"","image-keyboard-response","325","119786","0.0-325.0","3AZHRG4CU567VJG8H2M1RQNI67R03U","A2MJ0X6M3VSFVN","3WRBLBQ2GRU63BU2LFOJL1G32T90GO","","12.799999982118607","img/flower2.png","76","16.69999998807907","3","1","2","2","1,0,0,1,1,0,1,0,1","0,0,1,1,0,1,0,1,1","2",""
"","html-keyboard-response","326","120090","0.0-326.0","3AZHRG4CU567VJG8H2M1RQNI67R03U","A2MJ0X6M3VSFVN","3WRBLBQ2GRU63BU2LFOJL1G32T90GO","","null","<img src=""img/flower2.png"" style=""width:200px; border:14px solid green;"">","null","","","","","","","","",""
"","image-keyboard-response","327","120390","0.0-327.0","3AZHRG4CU567VJG8H2M1RQNI67R03U","A2MJ0X6M3VSFVN","3WRBLBQ2GRU63BU2LFOJL1G32T90GO","","296.7999999821186","img/flower6.png","76","299.40000000596046","3","1","1","2","1,0,0,1,1,0,1,0,1","0,0,1,1,0,1,0,1,1","2",""
"","html-keyboard-response","328","120696","0.0-328.0","3AZHRG4CU567VJG8H2M1RQNI67R03U","A2MJ0X6M3VSFVN","3WRBLBQ2GRU63BU2LFOJL1G32T90GO","","null","<img src=""img/flower6.png"" style=""width:200px; border:14px solid green;"">","null","","","","","","","","",""
"","image-keyboard-response","329","120739","0.0-329.0","3AZHRG4CU567VJG8H2M1RQNI67R03U","A2MJ0X6M3VSFVN","3WRBLBQ2GRU63BU2LFOJL1G32T90GO","","33.900000005960464","img/flower5.png","76","40.900000005960464","3","1","3","2","1,0,0,1,1,0,1,0,1","0,0,1,1,0,1,0,1,1","2",""
"","html-keyboard-response","330","121044","0.0-330.0","3AZHRG4CU567VJG8H2M1RQNI67R03U","A2MJ0X6M3VSFVN","3WRBLBQ2GRU63BU2LFOJL1G32T90GO","","null","<img src=""img/flower5.png"" style=""width:200px; border:14px solid green;"">","null","","","","","","","","",""
"","image-keyboard-response","331","121326","0.0-331.0","3AZHRG4CU567VJG8H2M1RQNI67R03U","A2MJ0X6M3VSFVN","3WRBLBQ2GRU63BU2LFOJL1G32T90GO","","275.59999999403954","img/flower2.png","76","280.80000001192093","3","1","2","2","1,0,0,1,1,0,1,0,1","0,0,1,1,0,1,0,1,1","2",""
"","html-keyboard-response","332","121631","0.0-332.0","3AZHRG4CU567VJG8H2M1RQNI67R03U","A2MJ0X6M3VSFVN","3WRBLBQ2GRU63BU2LFOJL1G32T90GO","","null","<img src=""img/flower2.png"" style=""width:200px; border:14px solid green;"">","null","","","","","","","","",""
"","image-keyboard-response","333","121890","0.0-333.0","3AZHRG4CU567VJG8H2M1RQNI67R03U","A2MJ0X6M3VSFVN","3WRBLBQ2GRU63BU2LFOJL1G32T90GO","","252.5","img/flower2.png","76","258.19999998807907","3","1","2","2","1,0,0,1,1,0,1,0,1","0,0,1,1,0,1,0,1,1","2",""
"","html-keyboard-response","334","122199","0.0-334.0","3AZHRG4CU567VJG8H2M1RQNI67R03U","A2MJ0X6M3VSFVN","3WRBLBQ2GRU63BU2LFOJL1G32T90GO","","null","<img src=""img/flower2.png"" style=""width:200px; border:14px solid green;"">","null","","","","","","","","",""
"","image-keyboard-response","335","122206","0.0-335.0","3AZHRG4CU567VJG8H2M1RQNI67R03U","A2MJ0X6M3VSFVN","3WRBLBQ2GRU63BU2LFOJL1G32T90GO","","0.5","img/flower2.png","76","5.699999988079071","3","1","2","2","1,0,0,1,1,0,1,0,1","0,0,1,1,0,1,0,1,1","2",""
"","html-keyboard-response","336","122511","0.0-336.0","3AZHRG4CU567VJG8H2M1RQNI67R03U","A2MJ0X6M3VSFVN","3WRBLBQ2GRU63BU2LFOJL1G32T90GO","","null","<img src=""img/flower2.png"" style=""width:200px; border:14px solid green;"">","null","","","","","","","","",""
"","image-keyboard-response","337","122888","0.0-337.0","3AZHRG4CU567VJG8H2M1RQNI67R03U","A2MJ0X6M3VSFVN","3WRBLBQ2GRU63BU2LFOJL1G32T90GO","","369.30000001192093","img/flower5.png","76","376.10000002384186","3","1","3","2","1,0,0,1,1,0,1,0,1","0,0,1,1,0,1,0,1,1","2",""
"","html-keyboard-response","338","123196","0.0-338.0","3AZHRG4CU567VJG8H2M1RQNI67R03U","A2MJ0X6M3VSFVN","3WRBLBQ2GRU63BU2LFOJL1G32T90GO","","null","<img src=""img/flower5.png"" style=""width:200px; border:14px solid green;"">","null","","","","","","","","",""
"","image-keyboard-response","339","123377","0.0-339.0","3AZHRG4CU567VJG8H2M1RQNI67R03U","A2MJ0X6M3VSFVN","3WRBLBQ2GRU63BU2LFOJL1G32T90GO","","175.5","img/flower6.png","76","179.19999998807907","3","1","1","2","1,0,0,1,1,0,1,0,1","0,0,1,1,0,1,0,1,1","2",""
"","html-keyboard-response","340","123683","0.0-340.0","3AZHRG4CU567VJG8H2M1RQNI67R03U","A2MJ0X6M3VSFVN","3WRBLBQ2GRU63BU2LFOJL1G32T90GO","","null","<img src=""img/flower6.png"" style=""width:200px; border:14px solid green;"">","null","","","","","","","","",""
"","image-keyboard-response","341","123903","0.0-341.0","3AZHRG4CU567VJG8H2M1RQNI67R03U","A2MJ0X6M3VSFVN","3WRBLBQ2GRU63BU2LFOJL1G32T90GO","","211","img/flower6.png","76","217.5","3","1","1","2","1,0,0,1,1,0,1,0,1","0,0,1,1,0,1,0,1,1","2",""
"","html-keyboard-response","342","124206","0.0-342.0","3AZHRG4CU567VJG8H2M1RQNI67R03U","A2MJ0X6M3VSFVN","3WRBLBQ2GRU63BU2LFOJL1G32T90GO","","null","<img src=""img/flower6.png"" style=""width:200px; border:14px solid green;"">","null","","","","","","","","",""
"","image-keyboard-response","343","124477","0.0-343.0","3AZHRG4CU567VJG8H2M1RQNI67R03U","A2MJ0X6M3VSFVN","3WRBLBQ2GRU63BU2LFOJL1G32T90GO","","265.59999999403954","img/flower5.png","76","270.90000000596046","3","1","3","2","1,0,0,1,1,0,1,0,1","0,0,1,1,0,1,0,1,1","2",""
"","html-keyboard-response","344","124782","0.0-344.0","3AZHRG4CU567VJG8H2M1RQNI67R03U","A2MJ0X6M3VSFVN","3WRBLBQ2GRU63BU2LFOJL1G32T90GO","","null","<img src=""img/flower5.png"" style=""width:200px; border:14px solid green;"">","null","","","","","","","","",""
"","image-keyboard-response","345","124915","0.0-345.0","3AZHRG4CU567VJG8H2M1RQNI67R03U","A2MJ0X6M3VSFVN","3WRBLBQ2GRU63BU2LFOJL1G32T90GO","","125.30000001192093","img/flower5.png","76","131.2000000178814","3","1","3","2","1,0,0,1,1,0,1,0,1","0,0,1,1,0,1,0,1,1","2",""
"","html-keyboard-response","346","125220","0.0-346.0","3AZHRG4CU567VJG8H2M1RQNI67R03U","A2MJ0X6M3VSFVN","3WRBLBQ2GRU63BU2LFOJL1G32T90GO","","null","<img src=""img/flower5.png"" style=""width:200px; border:14px solid green;"">","null","","","","","","","","",""
"","image-keyboard-response","347","125371","0.0-347.0","3AZHRG4CU567VJG8H2M1RQNI67R03U","A2MJ0X6M3VSFVN","3WRBLBQ2GRU63BU2LFOJL1G32T90GO","","144.90000000596046","img/flower2.png","76","149.60000002384186","3","1","2","2","1,0,0,1,1,0,1,0,1","0,0,1,1,0,1,0,1,1","2",""
"","html-keyboard-response","348","125678","0.0-348.0","3AZHRG4CU567VJG8H2M1RQNI67R03U","A2MJ0X6M3VSFVN","3WRBLBQ2GRU63BU2LFOJL1G32T90GO","","null","<img src=""img/flower2.png"" style=""width:200px; border:14px solid green;"">","null","","","","","","","","",""
"","image-keyboard-response","349","125874","0.0-349.0","3AZHRG4CU567VJG8H2M1RQNI67R03U","A2MJ0X6M3VSFVN","3WRBLBQ2GRU63BU2LFOJL1G32T90GO","","187.7000000178814","img/flower5.png","76","195","3","1","3","2","1,0,0,1,1,0,1,0,1","0,0,1,1,0,1,0,1,1","2",""
"","html-keyboard-response","350","126180","0.0-350.0","3AZHRG4CU567VJG8H2M1RQNI67R03U","A2MJ0X6M3VSFVN","3WRBLBQ2GRU63BU2LFOJL1G32T90GO","","null","<img src=""img/flower5.png"" style=""width:200px; border:14px solid green;"">","null","","","","","","","","",""
"","image-keyboard-response","351","126301","0.0-351.0","3AZHRG4CU567VJG8H2M1RQNI67R03U","A2MJ0X6M3VSFVN","3WRBLBQ2GRU63BU2LFOJL1G32T90GO","","114.90000000596046","img/flower2.png","76","119.69999998807907","3","1","2","2","1,0,0,1,1,0,1,0,1","0,0,1,1,0,1,0,1,1","2",""
"","html-keyboard-response","352","126606","0.0-352.0","3AZHRG4CU567VJG8H2M1RQNI67R03U","A2MJ0X6M3VSFVN","3WRBLBQ2GRU63BU2LFOJL1G32T90GO","","null","<img src=""img/flower2.png"" style=""width:200px; border:14px solid green;"">","null","","","","","","","","",""
"","image-keyboard-response","353","126735","0.0-353.0","3AZHRG4CU567VJG8H2M1RQNI67R03U","A2MJ0X6M3VSFVN","3WRBLBQ2GRU63BU2LFOJL1G32T90GO","","121.2999999821186","img/flower2.png","76","124.5","3","1","2","2","1,0,0,1,1,0,1,0,1","0,0,1,1,0,1,0,1,1","2",""
"","html-keyboard-response","354","127042","0.0-354.0","3AZHRG4CU567VJG8H2M1RQNI67R03U","A2MJ0X6M3VSFVN","3WRBLBQ2GRU63BU2LFOJL1G32T90GO","","null","<img src=""img/flower2.png"" style=""width:200px; border:14px solid green;"">","null","","","","","","","","",""
"","image-keyboard-response","355","127142","0.0-355.0","3AZHRG4CU567VJG8H2M1RQNI67R03U","A2MJ0X6M3VSFVN","3WRBLBQ2GRU63BU2LFOJL1G32T90GO","","93.5","img/flower6.png","76","98.69999998807907","3","1","1","2","1,0,0,1,1,0,1,0,1","0,0,1,1,0,1,0,1,1","2",""
"","html-keyboard-response","356","127451","0.0-356.0","3AZHRG4CU567VJG8H2M1RQNI67R03U","A2MJ0X6M3VSFVN","3WRBLBQ2GRU63BU2LFOJL1G32T90GO","","null","<img src=""img/flower6.png"" style=""width:200px; border:14px solid green;"">","null","","","","","","","","",""
"","image-keyboard-response","357","127573","0.0-357.0","3AZHRG4CU567VJG8H2M1RQNI67R03U","A2MJ0X6M3VSFVN","3WRBLBQ2GRU63BU2LFOJL1G32T90GO","","116.2999999821186","img/flower2.png","76","119.09999999403954","3","1","2","2","1,0,0,1,1,0,1,0,1","0,0,1,1,0,1,0,1,1","2",""
"","html-keyboard-response","358","127877","0.0-358.0","3AZHRG4CU567VJG8H2M1RQNI67R03U","A2MJ0X6M3VSFVN","3WRBLBQ2GRU63BU2LFOJL1G32T90GO","","null","<img src=""img/flower2.png"" style=""width:200px; border:14px solid green;"">","null","","","","","","","","",""
"","image-keyboard-response","359","128028","0.0-359.0","3AZHRG4CU567VJG8H2M1RQNI67R03U","A2MJ0X6M3VSFVN","3WRBLBQ2GRU63BU2LFOJL1G32T90GO","","143.7000000178814","img/flower5.png","76","149.69999998807907","3","1","3","2","1,0,0,1,1,0,1,0,1","0,0,1,1,0,1,0,1,1","2",""
"","html-keyboard-response","360","128333","0.0-360.0","3AZHRG4CU567VJG8H2M1RQNI67R03U","A2MJ0X6M3VSFVN","3WRBLBQ2GRU63BU2LFOJL1G32T90GO","","null","<img src=""img/flower5.png"" style=""width:200px; border:14px solid green;"">","null","","","","","","","","",""
"","image-keyboard-response","361","128446","0.0-361.0","3AZHRG4CU567VJG8H2M1RQNI67R03U","A2MJ0X6M3VSFVN","3WRBLBQ2GRU63BU2LFOJL1G32T90GO","","106.80000001192093","img/flower6.png","76","113.2000000178814","3","1","1","2","1,0,0,1,1,0,1,0,1","0,0,1,1,0,1,0,1,1","2",""
"","html-keyboard-response","362","128750","0.0-362.0","3AZHRG4CU567VJG8H2M1RQNI67R03U","A2MJ0X6M3VSFVN","3WRBLBQ2GRU63BU2LFOJL1G32T90GO","","null","<img src=""img/flower6.png"" style=""width:200px; border:14px solid green;"">","null","","","","","","","","",""
"","instructions","363","131199","0.0-363.0","3AZHRG4CU567VJG8H2M1RQNI67R03U","A2MJ0X6M3VSFVN","3WRBLBQ2GRU63BU2LFOJL1G32T90GO","[{""page_index"":0,""viewing_time"":2439.5}]","2441.9000000059605","","","","","","","","","","",""
"","survey-text","364","157564","0.0-364.0","3AZHRG4CU567VJG8H2M1RQNI67R03U","A2MJ0X6M3VSFVN","3WRBLBQ2GRU63BU2LFOJL1G32T90GO","","26349.40000000596","","","","","","","","","","","{""Q0"":""A2MJ0X6M3VSFVN""}"
