"rt","url","trial_type","trial_index","time_elapsed","internal_node_id","assignmentID","mturkID","hitID","success","view_history","stimulus","key_press","reactionTime","a","r","s","reward_cond","responses"
"103672.69999998808","consent.html","external-html","0","103775","0.0-0.0","3QXNC7EIPJHTAL5OYBNBI3Q43YJ90X","A2MX0EF342FY3P","3H6W48L9F4B5OEOMH57RM53Z4H1WP0","","","","","","","","","",""
"","","fullscreen","1","108575","0.0-1.0","3QXNC7EIPJHTAL5OYBNBI3Q43YJ90X","A2MX0EF342FY3P","3H6W48L9F4B5OEOMH57RM53Z4H1WP0","true","","","","","","","","",""
"129305.5","","instructions","2","237882","0.0-2.0","3QXNC7EIPJHTAL5OYBNBI3Q43YJ90X","A2MX0EF342FY3P","3H6W48L9F4B5OEOMH57RM53Z4H1WP0","","[{""page_index"":0,""viewing_time"":20682.899999976158},{""page_index"":1,""viewing_time"":15342.199999988079},{""page_index"":2,""viewing_time"":15652.200000047684},{""page_index"":3,""viewing_time"":23375.899999976158},{""page_index"":4,""viewing_time"":11424.100000023842},{""page_index"":5,""viewing_time"":29140.19999998808},{""page_index"":6,""viewing_time"":13687.5}]","","","","","","","",""
"48469.59999996424","","instructions","3","286352","0.0-3.0","3QXNC7EIPJHTAL5OYBNBI3Q43YJ90X","A2MX0EF342FY3P","3H6W48L9F4B5OEOMH57RM53Z4H1WP0","","[{""page_index"":0,""viewing_time"":48469.30000001192}]","","","","","","","",""
"1587.3999999761581","","image-keyboard-response","4","287941","0.0-4.0","3QXNC7EIPJHTAL5OYBNBI3Q43YJ90X","A2MX0EF342FY3P","3H6W48L9F4B5OEOMH57RM53Z4H1WP0","","","img/flower5.png","75","1588.199999988079","2","1","2","",""
"null","","html-keyboard-response","5","288242","0.0-5.0","3QXNC7EIPJHTAL5OYBNBI3Q43YJ90X","A2MX0EF342FY3P","3H6W48L9F4B5OEOMH57RM53Z4H1WP0","","","<img src=""img/flower5.png"" style=""width:200px; border:14px solid green;"">","null","","","","","",""
"1264.8999999761581","","image-keyboard-response","6","289509","0.0-6.0","3QXNC7EIPJHTAL5OYBNBI3Q43YJ90X","A2MX0EF342FY3P","3H6W48L9F4B5OEOMH57RM53Z4H1WP0","","","img/flower6.png","76","1266.5","3","1","3","",""
"null","","html-keyboard-response","7","289822","0.0-7.0","3QXNC7EIPJHTAL5OYBNBI3Q43YJ90X","A2MX0EF342FY3P","3H6W48L9F4B5OEOMH57RM53Z4H1WP0","","","<img src=""img/flower6.png"" style=""width:200px; border:14px solid green;"">","null","","","","","",""
"1293.4000000357628","","image-keyboard-response","8","291117","0.0-8.0","3QXNC7EIPJHTAL5OYBNBI3Q43YJ90X","A2MX0EF342FY3P","3H6W48L9F4B5OEOMH57RM53Z4H1WP0","","","img/flower5.png","75","1294.800000011921","2","1","2","",""
"null","","html-keyboard-response","9","291426","0.0-9.0","3QXNC7EIPJHTAL5OYBNBI3Q43YJ90X","A2MX0EF342FY3P","3H6W48L9F4B5OEOMH57RM53Z4H1WP0","","","<img src=""img/flower5.png"" style=""width:200px; border:14px solid green;"">","null","","","","","",""
"922","","image-keyboard-response","10","292349","0.0-10.0","3QXNC7EIPJHTAL5OYBNBI3Q43YJ90X","A2MX0EF342FY3P","3H6W48L9F4B5OEOMH57RM53Z4H1WP0","","","img/flower4.png","74","922.8999999761581","1","1","1","",""
"null","","html-keyboard-response","11","292659","0.0-11.0","3QXNC7EIPJHTAL5OYBNBI3Q43YJ90X","A2MX0EF342FY3P","3H6W48L9F4B5OEOMH57RM53Z4H1WP0","","","<img src=""img/flower4.png"" style=""width:200px; border:14px solid green;"">","null","","","","","",""
"864.6000000238419","","image-keyboard-response","12","293525","0.0-12.0","3QXNC7EIPJHTAL5OYBNBI3Q43YJ90X","A2MX0EF342FY3P","3H6W48L9F4B5OEOMH57RM53Z4H1WP0","","","img/flower6.png","76","866.5","3","1","3","",""
"null","","html-keyboard-response","13","293829","0.0-13.0","3QXNC7EIPJHTAL5OYBNBI3Q43YJ90X","A2MX0EF342FY3P","3H6W48L9F4B5OEOMH57RM53Z4H1WP0","","","<img src=""img/flower6.png"" style=""width:200px; border:14px solid green;"">","null","","","","","",""
"1174.199999988079","","image-keyboard-response","14","295005","0.0-14.0","3QXNC7EIPJHTAL5OYBNBI3Q43YJ90X","A2MX0EF342FY3P","3H6W48L9F4B5OEOMH57RM53Z4H1WP0","","","img/flower6.png","76","1175.5999999642372","3","1","3","",""
"null","","html-keyboard-response","15","295322","0.0-15.0","3QXNC7EIPJHTAL5OYBNBI3Q43YJ90X","A2MX0EF342FY3P","3H6W48L9F4B5OEOMH57RM53Z4H1WP0","","","<img src=""img/flower6.png"" style=""width:200px; border:14px solid green;"">","null","","","","","",""
"1138.800000011921","","image-keyboard-response","16","296462","0.0-16.0","3QXNC7EIPJHTAL5OYBNBI3Q43YJ90X","A2MX0EF342FY3P","3H6W48L9F4B5OEOMH57RM53Z4H1WP0","","","img/flower5.png","75","1139.699999988079","2","1","2","",""
"null","","html-keyboard-response","17","296775","0.0-17.0","3QXNC7EIPJHTAL5OYBNBI3Q43YJ90X","A2MX0EF342FY3P","3H6W48L9F4B5OEOMH57RM53Z4H1WP0","","","<img src=""img/flower5.png"" style=""width:200px; border:14px solid green;"">","null","","","","","",""
"1260.699999988079","","image-keyboard-response","18","298036","0.0-18.0","3QXNC7EIPJHTAL5OYBNBI3Q43YJ90X","A2MX0EF342FY3P","3H6W48L9F4B5OEOMH57RM53Z4H1WP0","","","img/flower4.png","74","1261.300000011921","1","0","1","",""
"null","","html-keyboard-response","19","298351","0.0-19.0","3QXNC7EIPJHTAL5OYBNBI3Q43YJ90X","A2MX0EF342FY3P","3H6W48L9F4B5OEOMH57RM53Z4H1WP0","","","<img src=""img/flower4.png"" style=""width:200px;border:14px solid red;"">","null","","","","","",""
"2347.699999988079","","image-keyboard-response","20","300700","0.0-20.0","3QXNC7EIPJHTAL5OYBNBI3Q43YJ90X","A2MX0EF342FY3P","3H6W48L9F4B5OEOMH57RM53Z4H1WP0","","","img/flower5.png","75","2348.7999999523163","2","1","2","",""
"null","","html-keyboard-response","21","301001","0.0-21.0","3QXNC7EIPJHTAL5OYBNBI3Q43YJ90X","A2MX0EF342FY3P","3H6W48L9F4B5OEOMH57RM53Z4H1WP0","","","<img src=""img/flower5.png"" style=""width:200px; border:14px solid green;"">","null","","","","","",""
"1073.300000011921","","image-keyboard-response","22","302076","0.0-22.0","3QXNC7EIPJHTAL5OYBNBI3Q43YJ90X","A2MX0EF342FY3P","3H6W48L9F4B5OEOMH57RM53Z4H1WP0","","","img/flower6.png","76","1074.5","3","1","3","",""
"null","","html-keyboard-response","23","302377","0.0-23.0","3QXNC7EIPJHTAL5OYBNBI3Q43YJ90X","A2MX0EF342FY3P","3H6W48L9F4B5OEOMH57RM53Z4H1WP0","","","<img src=""img/flower6.png"" style=""width:200px; border:14px solid green;"">","null","","","","","",""
"1593.9000000357628","","image-keyboard-response","24","303972","0.0-24.0","3QXNC7EIPJHTAL5OYBNBI3Q43YJ90X","A2MX0EF342FY3P","3H6W48L9F4B5OEOMH57RM53Z4H1WP0","","","img/flower4.png","74","1595","1","1","1","",""
"null","","html-keyboard-response","25","304290","0.0-25.0","3QXNC7EIPJHTAL5OYBNBI3Q43YJ90X","A2MX0EF342FY3P","3H6W48L9F4B5OEOMH57RM53Z4H1WP0","","","<img src=""img/flower4.png"" style=""width:200px; border:14px solid green;"">","null","","","","","",""
"953","","image-keyboard-response","26","305245","0.0-26.0","3QXNC7EIPJHTAL5OYBNBI3Q43YJ90X","A2MX0EF342FY3P","3H6W48L9F4B5OEOMH57RM53Z4H1WP0","","","img/flower5.png","75","954.4000000357628","2","1","2","",""
"null","","html-keyboard-response","27","305562","0.0-27.0","3QXNC7EIPJHTAL5OYBNBI3Q43YJ90X","A2MX0EF342FY3P","3H6W48L9F4B5OEOMH57RM53Z4H1WP0","","","<img src=""img/flower5.png"" style=""width:200px; border:14px solid green;"">","null","","","","","",""
"953.6999999880791","","image-keyboard-response","28","306518","0.0-28.0","3QXNC7EIPJHTAL5OYBNBI3Q43YJ90X","A2MX0EF342FY3P","3H6W48L9F4B5OEOMH57RM53Z4H1WP0","","","img/flower5.png","75","955.0999999642372","2","1","2","",""
"null","","html-keyboard-response","29","306826","0.0-29.0","3QXNC7EIPJHTAL5OYBNBI3Q43YJ90X","A2MX0EF342FY3P","3H6W48L9F4B5OEOMH57RM53Z4H1WP0","","","<img src=""img/flower5.png"" style=""width:200px; border:14px solid green;"">","null","","","","","",""
"1416.6000000238419","","image-keyboard-response","30","308244","0.0-30.0","3QXNC7EIPJHTAL5OYBNBI3Q43YJ90X","A2MX0EF342FY3P","3H6W48L9F4B5OEOMH57RM53Z4H1WP0","","","img/flower4.png","74","1417.8999999761581","1","1","1","",""
"null","","html-keyboard-response","31","308560","0.0-31.0","3QXNC7EIPJHTAL5OYBNBI3Q43YJ90X","A2MX0EF342FY3P","3H6W48L9F4B5OEOMH57RM53Z4H1WP0","","","<img src=""img/flower4.png"" style=""width:200px; border:14px solid green;"">","null","","","","","",""
"867.1999999880791","","image-keyboard-response","32","309428","0.0-32.0","3QXNC7EIPJHTAL5OYBNBI3Q43YJ90X","A2MX0EF342FY3P","3H6W48L9F4B5OEOMH57RM53Z4H1WP0","","","img/flower6.png","76","867.7000000476837","3","1","3","",""
"null","","html-keyboard-response","33","309739","0.0-33.0","3QXNC7EIPJHTAL5OYBNBI3Q43YJ90X","A2MX0EF342FY3P","3H6W48L9F4B5OEOMH57RM53Z4H1WP0","","","<img src=""img/flower6.png"" style=""width:200px; border:14px solid green;"">","null","","","","","",""
"968.3999999761581","","image-keyboard-response","34","310708","0.0-34.0","3QXNC7EIPJHTAL5OYBNBI3Q43YJ90X","A2MX0EF342FY3P","3H6W48L9F4B5OEOMH57RM53Z4H1WP0","","","img/flower6.png","76","969.1000000238419","3","0","3","",""
"null","","html-keyboard-response","35","311015","0.0-35.0","3QXNC7EIPJHTAL5OYBNBI3Q43YJ90X","A2MX0EF342FY3P","3H6W48L9F4B5OEOMH57RM53Z4H1WP0","","","<img src=""img/flower6.png"" style=""width:200px;border:14px solid red;"">","null","","","","","",""
"1660.7999999523163","","image-keyboard-response","36","312677","0.0-36.0","3QXNC7EIPJHTAL5OYBNBI3Q43YJ90X","A2MX0EF342FY3P","3H6W48L9F4B5OEOMH57RM53Z4H1WP0","","","img/flower4.png","75","1661.699999988079","2","0","1","",""
"null","","html-keyboard-response","37","312984","0.0-37.0","3QXNC7EIPJHTAL5OYBNBI3Q43YJ90X","A2MX0EF342FY3P","3H6W48L9F4B5OEOMH57RM53Z4H1WP0","","","<img src=""img/flower4.png"" style=""width:200px;border:14px solid red;"">","null","","","","","",""
"1274.699999988079","","image-keyboard-response","38","314260","0.0-38.0","3QXNC7EIPJHTAL5OYBNBI3Q43YJ90X","A2MX0EF342FY3P","3H6W48L9F4B5OEOMH57RM53Z4H1WP0","","","img/flower6.png","76","1275.800000011921","3","1","3","",""
"null","","html-keyboard-response","39","314575","0.0-39.0","3QXNC7EIPJHTAL5OYBNBI3Q43YJ90X","A2MX0EF342FY3P","3H6W48L9F4B5OEOMH57RM53Z4H1WP0","","","<img src=""img/flower6.png"" style=""width:200px; border:14px solid green;"">","null","","","","","",""
"828.3000000119209","","image-keyboard-response","40","315405","0.0-40.0","3QXNC7EIPJHTAL5OYBNBI3Q43YJ90X","A2MX0EF342FY3P","3H6W48L9F4B5OEOMH57RM53Z4H1WP0","","","img/flower6.png","76","829.8999999761581","3","0","3","",""
"null","","html-keyboard-response","41","315718","0.0-41.0","3QXNC7EIPJHTAL5OYBNBI3Q43YJ90X","A2MX0EF342FY3P","3H6W48L9F4B5OEOMH57RM53Z4H1WP0","","","<img src=""img/flower6.png"" style=""width:200px;border:14px solid red;"">","null","","","","","",""
"2341.599999964237","","image-keyboard-response","42","318061","0.0-42.0","3QXNC7EIPJHTAL5OYBNBI3Q43YJ90X","A2MX0EF342FY3P","3H6W48L9F4B5OEOMH57RM53Z4H1WP0","","","img/flower4.png","74","2343","1","1","1","",""
"null","","html-keyboard-response","43","318368","0.0-43.0","3QXNC7EIPJHTAL5OYBNBI3Q43YJ90X","A2MX0EF342FY3P","3H6W48L9F4B5OEOMH57RM53Z4H1WP0","","","<img src=""img/flower4.png"" style=""width:200px; border:14px solid green;"">","null","","","","","",""
"787.4000000357628","","image-keyboard-response","44","319157","0.0-44.0","3QXNC7EIPJHTAL5OYBNBI3Q43YJ90X","A2MX0EF342FY3P","3H6W48L9F4B5OEOMH57RM53Z4H1WP0","","","img/flower5.png","75","788.6999999880791","2","1","2","",""
"null","","html-keyboard-response","45","319459","0.0-45.0","3QXNC7EIPJHTAL5OYBNBI3Q43YJ90X","A2MX0EF342FY3P","3H6W48L9F4B5OEOMH57RM53Z4H1WP0","","","<img src=""img/flower5.png"" style=""width:200px; border:14px solid green;"">","null","","","","","",""
"1016.1999999880791","","image-keyboard-response","46","320477","0.0-46.0","3QXNC7EIPJHTAL5OYBNBI3Q43YJ90X","A2MX0EF342FY3P","3H6W48L9F4B5OEOMH57RM53Z4H1WP0","","","img/flower4.png","74","1017.6000000238419","1","1","1","",""
"null","","html-keyboard-response","47","320791","0.0-47.0","3QXNC7EIPJHTAL5OYBNBI3Q43YJ90X","A2MX0EF342FY3P","3H6W48L9F4B5OEOMH57RM53Z4H1WP0","","","<img src=""img/flower4.png"" style=""width:200px; border:14px solid green;"">","null","","","","","",""
"667.5","","image-keyboard-response","48","321460","0.0-48.0","3QXNC7EIPJHTAL5OYBNBI3Q43YJ90X","A2MX0EF342FY3P","3H6W48L9F4B5OEOMH57RM53Z4H1WP0","","","img/flower4.png","74","668.5","1","1","1","",""
"null","","html-keyboard-response","49","321774","0.0-49.0","3QXNC7EIPJHTAL5OYBNBI3Q43YJ90X","A2MX0EF342FY3P","3H6W48L9F4B5OEOMH57RM53Z4H1WP0","","","<img src=""img/flower4.png"" style=""width:200px; border:14px solid green;"">","null","","","","","",""
"772.2999999523163","","image-keyboard-response","50","322548","0.0-50.0","3QXNC7EIPJHTAL5OYBNBI3Q43YJ90X","A2MX0EF342FY3P","3H6W48L9F4B5OEOMH57RM53Z4H1WP0","","","img/flower5.png","75","773.4000000357628","2","1","2","",""
"null","","html-keyboard-response","51","322856","0.0-51.0","3QXNC7EIPJHTAL5OYBNBI3Q43YJ90X","A2MX0EF342FY3P","3H6W48L9F4B5OEOMH57RM53Z4H1WP0","","","<img src=""img/flower5.png"" style=""width:200px; border:14px solid green;"">","null","","","","","",""
"707.1999999880791","","image-keyboard-response","52","323565","0.0-52.0","3QXNC7EIPJHTAL5OYBNBI3Q43YJ90X","A2MX0EF342FY3P","3H6W48L9F4B5OEOMH57RM53Z4H1WP0","","","img/flower4.png","74","708.3999999761581","1","1","1","",""
"null","","html-keyboard-response","53","323877","0.0-53.0","3QXNC7EIPJHTAL5OYBNBI3Q43YJ90X","A2MX0EF342FY3P","3H6W48L9F4B5OEOMH57RM53Z4H1WP0","","","<img src=""img/flower4.png"" style=""width:200px; border:14px solid green;"">","null","","","","","",""
"790.8999999761581","","image-keyboard-response","54","324669","0.0-54.0","3QXNC7EIPJHTAL5OYBNBI3Q43YJ90X","A2MX0EF342FY3P","3H6W48L9F4B5OEOMH57RM53Z4H1WP0","","","img/flower6.png","76","791.5","3","1","3","",""
"null","","html-keyboard-response","55","324982","0.0-55.0","3QXNC7EIPJHTAL5OYBNBI3Q43YJ90X","A2MX0EF342FY3P","3H6W48L9F4B5OEOMH57RM53Z4H1WP0","","","<img src=""img/flower6.png"" style=""width:200px; border:14px solid green;"">","null","","","","","",""
"734","","image-keyboard-response","56","325717","0.0-56.0","3QXNC7EIPJHTAL5OYBNBI3Q43YJ90X","A2MX0EF342FY3P","3H6W48L9F4B5OEOMH57RM53Z4H1WP0","","","img/flower6.png","76","734.6999999880791","3","1","3","",""
"null","","html-keyboard-response","57","326025","0.0-57.0","3QXNC7EIPJHTAL5OYBNBI3Q43YJ90X","A2MX0EF342FY3P","3H6W48L9F4B5OEOMH57RM53Z4H1WP0","","","<img src=""img/flower6.png"" style=""width:200px; border:14px solid green;"">","null","","","","","",""
"1721.4000000357628","","image-keyboard-response","58","327748","0.0-58.0","3QXNC7EIPJHTAL5OYBNBI3Q43YJ90X","A2MX0EF342FY3P","3H6W48L9F4B5OEOMH57RM53Z4H1WP0","","","img/flower5.png","75","1722.199999988079","2","1","2","",""
"null","","html-keyboard-response","59","328058","0.0-59.0","3QXNC7EIPJHTAL5OYBNBI3Q43YJ90X","A2MX0EF342FY3P","3H6W48L9F4B5OEOMH57RM53Z4H1WP0","","","<img src=""img/flower5.png"" style=""width:200px; border:14px solid green;"">","null","","","","","",""
"800.8999999761581","","image-keyboard-response","60","328860","0.0-60.0","3QXNC7EIPJHTAL5OYBNBI3Q43YJ90X","A2MX0EF342FY3P","3H6W48L9F4B5OEOMH57RM53Z4H1WP0","","","img/flower4.png","74","802.0999999642372","1","1","1","",""
"null","","html-keyboard-response","61","329168","0.0-61.0","3QXNC7EIPJHTAL5OYBNBI3Q43YJ90X","A2MX0EF342FY3P","3H6W48L9F4B5OEOMH57RM53Z4H1WP0","","","<img src=""img/flower4.png"" style=""width:200px; border:14px solid green;"">","null","","","","","",""
"811","","image-keyboard-response","62","329981","0.0-62.0","3QXNC7EIPJHTAL5OYBNBI3Q43YJ90X","A2MX0EF342FY3P","3H6W48L9F4B5OEOMH57RM53Z4H1WP0","","","img/flower5.png","75","812.5","2","1","2","",""
"null","","html-keyboard-response","63","330287","0.0-63.0","3QXNC7EIPJHTAL5OYBNBI3Q43YJ90X","A2MX0EF342FY3P","3H6W48L9F4B5OEOMH57RM53Z4H1WP0","","","<img src=""img/flower5.png"" style=""width:200px; border:14px solid green;"">","null","","","","","",""
"40907.200000047684","","instructions","64","371194","0.0-64.0","3QXNC7EIPJHTAL5OYBNBI3Q43YJ90X","A2MX0EF342FY3P","3H6W48L9F4B5OEOMH57RM53Z4H1WP0","","[{""page_index"":0,""viewing_time"":11411.200000047684},{""page_index"":1,""viewing_time"":29495.799999952316}]","","","","","","","",""
"1473.5","","image-keyboard-response","65","372668","0.0-65.0","3QXNC7EIPJHTAL5OYBNBI3Q43YJ90X","A2MX0EF342FY3P","3H6W48L9F4B5OEOMH57RM53Z4H1WP0","","","img/flower6.png","75","1474.7000000476837","2","0","3","",""
"null","","html-keyboard-response","66","372980","0.0-66.0","3QXNC7EIPJHTAL5OYBNBI3Q43YJ90X","A2MX0EF342FY3P","3H6W48L9F4B5OEOMH57RM53Z4H1WP0","","","<img src=""img/flower6.png"" style=""width:200px;border:14px solid red;"">","null","","","","","",""
"1095.300000011921","","image-keyboard-response","67","374077","0.0-67.0","3QXNC7EIPJHTAL5OYBNBI3Q43YJ90X","A2MX0EF342FY3P","3H6W48L9F4B5OEOMH57RM53Z4H1WP0","","","img/flower5.png","75","1096.5999999642372","2","1","2","",""
"null","","html-keyboard-response","68","374391","0.0-68.0","3QXNC7EIPJHTAL5OYBNBI3Q43YJ90X","A2MX0EF342FY3P","3H6W48L9F4B5OEOMH57RM53Z4H1WP0","","","<img src=""img/flower5.png"" style=""width:200px; border:14px solid green;"">","null","","","","","",""
"1195.7999999523163","","image-keyboard-response","69","375589","0.0-69.0","3QXNC7EIPJHTAL5OYBNBI3Q43YJ90X","A2MX0EF342FY3P","3H6W48L9F4B5OEOMH57RM53Z4H1WP0","","","img/flower6.png","76","1197.0999999642372","3","1","3","",""
"null","","html-keyboard-response","70","375896","0.0-70.0","3QXNC7EIPJHTAL5OYBNBI3Q43YJ90X","A2MX0EF342FY3P","3H6W48L9F4B5OEOMH57RM53Z4H1WP0","","","<img src=""img/flower6.png"" style=""width:200px; border:14px solid green;"">","null","","","","","",""
"1227.5","","image-keyboard-response","71","377125","0.0-71.0","3QXNC7EIPJHTAL5OYBNBI3Q43YJ90X","A2MX0EF342FY3P","3H6W48L9F4B5OEOMH57RM53Z4H1WP0","","","img/flower5.png","75","1228.8999999761581","2","1","2","",""
"null","","html-keyboard-response","72","377432","0.0-72.0","3QXNC7EIPJHTAL5OYBNBI3Q43YJ90X","A2MX0EF342FY3P","3H6W48L9F4B5OEOMH57RM53Z4H1WP0","","","<img src=""img/flower5.png"" style=""width:200px; border:14px solid green;"">","null","","","","","",""
"907.6000000238419","","image-keyboard-response","73","378341","0.0-73.0","3QXNC7EIPJHTAL5OYBNBI3Q43YJ90X","A2MX0EF342FY3P","3H6W48L9F4B5OEOMH57RM53Z4H1WP0","","","img/flower6.png","76","908.7999999523163","3","1","3","",""
"null","","html-keyboard-response","74","378652","0.0-74.0","3QXNC7EIPJHTAL5OYBNBI3Q43YJ90X","A2MX0EF342FY3P","3H6W48L9F4B5OEOMH57RM53Z4H1WP0","","","<img src=""img/flower6.png"" style=""width:200px; border:14px solid green;"">","null","","","","","",""
"671.5","","image-keyboard-response","75","379325","0.0-75.0","3QXNC7EIPJHTAL5OYBNBI3Q43YJ90X","A2MX0EF342FY3P","3H6W48L9F4B5OEOMH57RM53Z4H1WP0","","","img/flower4.png","74","672.1000000238419","1","1","1","",""
"null","","html-keyboard-response","76","379639","0.0-76.0","3QXNC7EIPJHTAL5OYBNBI3Q43YJ90X","A2MX0EF342FY3P","3H6W48L9F4B5OEOMH57RM53Z4H1WP0","","","<img src=""img/flower4.png"" style=""width:200px; border:14px solid green;"">","null","","","","","",""
"843.5","","image-keyboard-response","77","380484","0.0-77.0","3QXNC7EIPJHTAL5OYBNBI3Q43YJ90X","A2MX0EF342FY3P","3H6W48L9F4B5OEOMH57RM53Z4H1WP0","","","img/flower6.png","76","844.5","3","1","3","",""
"null","","html-keyboard-response","78","380789","0.0-78.0","3QXNC7EIPJHTAL5OYBNBI3Q43YJ90X","A2MX0EF342FY3P","3H6W48L9F4B5OEOMH57RM53Z4H1WP0","","","<img src=""img/flower6.png"" style=""width:200px; border:14px solid green;"">","null","","","","","",""
"1087.5","","image-keyboard-response","79","381877","0.0-79.0","3QXNC7EIPJHTAL5OYBNBI3Q43YJ90X","A2MX0EF342FY3P","3H6W48L9F4B5OEOMH57RM53Z4H1WP0","","","img/flower4.png","74","1088.1000000238419","1","0","1","",""
"null","","html-keyboard-response","80","382184","0.0-80.0","3QXNC7EIPJHTAL5OYBNBI3Q43YJ90X","A2MX0EF342FY3P","3H6W48L9F4B5OEOMH57RM53Z4H1WP0","","","<img src=""img/flower4.png"" style=""width:200px;border:14px solid red;"">","null","","","","","",""
"849.6000000238419","","image-keyboard-response","81","383035","0.0-81.0","3QXNC7EIPJHTAL5OYBNBI3Q43YJ90X","A2MX0EF342FY3P","3H6W48L9F4B5OEOMH57RM53Z4H1WP0","","","img/flower4.png","74","850.6999999880791","1","1","1","",""
"null","","html-keyboard-response","82","383345","0.0-82.0","3QXNC7EIPJHTAL5OYBNBI3Q43YJ90X","A2MX0EF342FY3P","3H6W48L9F4B5OEOMH57RM53Z4H1WP0","","","<img src=""img/flower4.png"" style=""width:200px; border:14px solid green;"">","null","","","","","",""
"761.1000000238419","","image-keyboard-response","83","384108","0.0-83.0","3QXNC7EIPJHTAL5OYBNBI3Q43YJ90X","A2MX0EF342FY3P","3H6W48L9F4B5OEOMH57RM53Z4H1WP0","","","img/flower5.png","75","762.1999999880791","2","1","2","",""
"null","","html-keyboard-response","84","384413","0.0-84.0","3QXNC7EIPJHTAL5OYBNBI3Q43YJ90X","A2MX0EF342FY3P","3H6W48L9F4B5OEOMH57RM53Z4H1WP0","","","<img src=""img/flower5.png"" style=""width:200px; border:14px solid green;"">","null","","","","","",""
"821.5999999642372","","image-keyboard-response","85","385237","0.0-85.0","3QXNC7EIPJHTAL5OYBNBI3Q43YJ90X","A2MX0EF342FY3P","3H6W48L9F4B5OEOMH57RM53Z4H1WP0","","","img/flower5.png","75","822.9000000357628","2","1","2","",""
"null","","html-keyboard-response","86","385541","0.0-86.0","3QXNC7EIPJHTAL5OYBNBI3Q43YJ90X","A2MX0EF342FY3P","3H6W48L9F4B5OEOMH57RM53Z4H1WP0","","","<img src=""img/flower5.png"" style=""width:200px; border:14px solid green;"">","null","","","","","",""
"1302.199999988079","","image-keyboard-response","87","386844","0.0-87.0","3QXNC7EIPJHTAL5OYBNBI3Q43YJ90X","A2MX0EF342FY3P","3H6W48L9F4B5OEOMH57RM53Z4H1WP0","","","img/flower4.png","74","1302.5","1","1","1","",""
"null","","html-keyboard-response","88","387154","0.0-88.0","3QXNC7EIPJHTAL5OYBNBI3Q43YJ90X","A2MX0EF342FY3P","3H6W48L9F4B5OEOMH57RM53Z4H1WP0","","","<img src=""img/flower4.png"" style=""width:200px; border:14px solid green;"">","null","","","","","",""
"856.3000000119209","","image-keyboard-response","89","388011","0.0-89.0","3QXNC7EIPJHTAL5OYBNBI3Q43YJ90X","A2MX0EF342FY3P","3H6W48L9F4B5OEOMH57RM53Z4H1WP0","","","img/flower5.png","75","857.3999999761581","2","1","2","",""
"null","","html-keyboard-response","90","388318","0.0-90.0","3QXNC7EIPJHTAL5OYBNBI3Q43YJ90X","A2MX0EF342FY3P","3H6W48L9F4B5OEOMH57RM53Z4H1WP0","","","<img src=""img/flower5.png"" style=""width:200px; border:14px solid green;"">","null","","","","","",""
"813","","image-keyboard-response","91","389133","0.0-91.0","3QXNC7EIPJHTAL5OYBNBI3Q43YJ90X","A2MX0EF342FY3P","3H6W48L9F4B5OEOMH57RM53Z4H1WP0","","","img/flower6.png","76","814.5","3","0","3","",""
"null","","html-keyboard-response","92","389443","0.0-92.0","3QXNC7EIPJHTAL5OYBNBI3Q43YJ90X","A2MX0EF342FY3P","3H6W48L9F4B5OEOMH57RM53Z4H1WP0","","","<img src=""img/flower6.png"" style=""width:200px;border:14px solid red;"">","null","","","","","",""
"1120.9000000357628","","image-keyboard-response","93","390565","0.0-93.0","3QXNC7EIPJHTAL5OYBNBI3Q43YJ90X","A2MX0EF342FY3P","3H6W48L9F4B5OEOMH57RM53Z4H1WP0","","","img/flower5.png","75","1121.9000000357628","2","1","2","",""
"null","","html-keyboard-response","94","390872","0.0-94.0","3QXNC7EIPJHTAL5OYBNBI3Q43YJ90X","A2MX0EF342FY3P","3H6W48L9F4B5OEOMH57RM53Z4H1WP0","","","<img src=""img/flower5.png"" style=""width:200px; border:14px solid green;"">","null","","","","","",""
"835.1999999880791","","image-keyboard-response","95","391709","0.0-95.0","3QXNC7EIPJHTAL5OYBNBI3Q43YJ90X","A2MX0EF342FY3P","3H6W48L9F4B5OEOMH57RM53Z4H1WP0","","","img/flower4.png","74","836.5999999642372","1","1","1","",""
"null","","html-keyboard-response","96","392023","0.0-96.0","3QXNC7EIPJHTAL5OYBNBI3Q43YJ90X","A2MX0EF342FY3P","3H6W48L9F4B5OEOMH57RM53Z4H1WP0","","","<img src=""img/flower4.png"" style=""width:200px; border:14px solid green;"">","null","","","","","",""
"789.8000000119209","","image-keyboard-response","97","392813","0.0-97.0","3QXNC7EIPJHTAL5OYBNBI3Q43YJ90X","A2MX0EF342FY3P","3H6W48L9F4B5OEOMH57RM53Z4H1WP0","","","img/flower4.png","74","790.5999999642372","1","1","1","",""
"null","","html-keyboard-response","98","393116","0.0-98.0","3QXNC7EIPJHTAL5OYBNBI3Q43YJ90X","A2MX0EF342FY3P","3H6W48L9F4B5OEOMH57RM53Z4H1WP0","","","<img src=""img/flower4.png"" style=""width:200px; border:14px solid green;"">","null","","","","","",""
"743.1999999880791","","image-keyboard-response","99","393861","0.0-99.0","3QXNC7EIPJHTAL5OYBNBI3Q43YJ90X","A2MX0EF342FY3P","3H6W48L9F4B5OEOMH57RM53Z4H1WP0","","","img/flower5.png","75","744.0999999642372","2","1","2","",""
"null","","html-keyboard-response","100","394169","0.0-100.0","3QXNC7EIPJHTAL5OYBNBI3Q43YJ90X","A2MX0EF342FY3P","3H6W48L9F4B5OEOMH57RM53Z4H1WP0","","","<img src=""img/flower5.png"" style=""width:200px; border:14px solid green;"">","null","","","","","",""
"962.2999999523163","","image-keyboard-response","101","395133","0.0-101.0","3QXNC7EIPJHTAL5OYBNBI3Q43YJ90X","A2MX0EF342FY3P","3H6W48L9F4B5OEOMH57RM53Z4H1WP0","","","img/flower4.png","74","963.6999999880791","1","1","1","",""
"null","","html-keyboard-response","102","395448","0.0-102.0","3QXNC7EIPJHTAL5OYBNBI3Q43YJ90X","A2MX0EF342FY3P","3H6W48L9F4B5OEOMH57RM53Z4H1WP0","","","<img src=""img/flower4.png"" style=""width:200px; border:14px solid green;"">","null","","","","","",""
"699.0999999642372","","image-keyboard-response","103","396149","0.0-103.0","3QXNC7EIPJHTAL5OYBNBI3Q43YJ90X","A2MX0EF342FY3P","3H6W48L9F4B5OEOMH57RM53Z4H1WP0","","","img/flower6.png","76","700.1999999880791","3","1","3","",""
"null","","html-keyboard-response","104","396459","0.0-104.0","3QXNC7EIPJHTAL5OYBNBI3Q43YJ90X","A2MX0EF342FY3P","3H6W48L9F4B5OEOMH57RM53Z4H1WP0","","","<img src=""img/flower6.png"" style=""width:200px; border:14px solid green;"">","null","","","","","",""
"855.8999999761581","","image-keyboard-response","105","397317","0.0-105.0","3QXNC7EIPJHTAL5OYBNBI3Q43YJ90X","A2MX0EF342FY3P","3H6W48L9F4B5OEOMH57RM53Z4H1WP0","","","img/flower5.png","75","857.3000000119209","2","1","2","",""
"null","","html-keyboard-response","106","397623","0.0-106.0","3QXNC7EIPJHTAL5OYBNBI3Q43YJ90X","A2MX0EF342FY3P","3H6W48L9F4B5OEOMH57RM53Z4H1WP0","","","<img src=""img/flower5.png"" style=""width:200px; border:14px solid green;"">","null","","","","","",""
"1116.3999999761581","","image-keyboard-response","107","398741","0.0-107.0","3QXNC7EIPJHTAL5OYBNBI3Q43YJ90X","A2MX0EF342FY3P","3H6W48L9F4B5OEOMH57RM53Z4H1WP0","","","img/flower6.png","76","1117.7999999523163","3","1","3","",""
"null","","html-keyboard-response","108","399056","0.0-108.0","3QXNC7EIPJHTAL5OYBNBI3Q43YJ90X","A2MX0EF342FY3P","3H6W48L9F4B5OEOMH57RM53Z4H1WP0","","","<img src=""img/flower6.png"" style=""width:200px; border:14px solid green;"">","null","","","","","",""
"914.1000000238419","","image-keyboard-response","109","399972","0.0-109.0","3QXNC7EIPJHTAL5OYBNBI3Q43YJ90X","A2MX0EF342FY3P","3H6W48L9F4B5OEOMH57RM53Z4H1WP0","","","img/flower4.png","74","915.3000000119209","1","0","1","",""
"null","","html-keyboard-response","110","400286","0.0-110.0","3QXNC7EIPJHTAL5OYBNBI3Q43YJ90X","A2MX0EF342FY3P","3H6W48L9F4B5OEOMH57RM53Z4H1WP0","","","<img src=""img/flower4.png"" style=""width:200px;border:14px solid red;"">","null","","","","","",""
"949.3999999761581","","image-keyboard-response","111","401237","0.0-111.0","3QXNC7EIPJHTAL5OYBNBI3Q43YJ90X","A2MX0EF342FY3P","3H6W48L9F4B5OEOMH57RM53Z4H1WP0","","","img/flower5.png","75","950.8000000119209","2","0","2","",""
"null","","html-keyboard-response","112","401542","0.0-112.0","3QXNC7EIPJHTAL5OYBNBI3Q43YJ90X","A2MX0EF342FY3P","3H6W48L9F4B5OEOMH57RM53Z4H1WP0","","","<img src=""img/flower5.png"" style=""width:200px;border:14px solid red;"">","null","","","","","",""
"941.6999999880791","","image-keyboard-response","113","402485","0.0-113.0","3QXNC7EIPJHTAL5OYBNBI3Q43YJ90X","A2MX0EF342FY3P","3H6W48L9F4B5OEOMH57RM53Z4H1WP0","","","img/flower6.png","76","942.4000000357628","3","1","3","",""
"null","","html-keyboard-response","114","402794","0.0-114.0","3QXNC7EIPJHTAL5OYBNBI3Q43YJ90X","A2MX0EF342FY3P","3H6W48L9F4B5OEOMH57RM53Z4H1WP0","","","<img src=""img/flower6.png"" style=""width:200px; border:14px solid green;"">","null","","","","","",""
"800.5","","image-keyboard-response","115","403596","0.0-115.0","3QXNC7EIPJHTAL5OYBNBI3Q43YJ90X","A2MX0EF342FY3P","3H6W48L9F4B5OEOMH57RM53Z4H1WP0","","","img/flower6.png","76","801.5999999642372","3","1","3","",""
"null","","html-keyboard-response","116","403907","0.0-116.0","3QXNC7EIPJHTAL5OYBNBI3Q43YJ90X","A2MX0EF342FY3P","3H6W48L9F4B5OEOMH57RM53Z4H1WP0","","","<img src=""img/flower6.png"" style=""width:200px; border:14px solid green;"">","null","","","","","",""
"1519.8999999761581","","image-keyboard-response","117","405429","0.0-117.0","3QXNC7EIPJHTAL5OYBNBI3Q43YJ90X","A2MX0EF342FY3P","3H6W48L9F4B5OEOMH57RM53Z4H1WP0","","","img/flower5.png","75","1521.1000000238419","2","1","2","",""
"null","","html-keyboard-response","118","405739","0.0-118.0","3QXNC7EIPJHTAL5OYBNBI3Q43YJ90X","A2MX0EF342FY3P","3H6W48L9F4B5OEOMH57RM53Z4H1WP0","","","<img src=""img/flower5.png"" style=""width:200px; border:14px solid green;"">","null","","","","","",""
"840","","image-keyboard-response","119","406581","0.0-119.0","3QXNC7EIPJHTAL5OYBNBI3Q43YJ90X","A2MX0EF342FY3P","3H6W48L9F4B5OEOMH57RM53Z4H1WP0","","","img/flower6.png","76","841.2999999523163","3","1","3","",""
"null","","html-keyboard-response","120","406892","0.0-120.0","3QXNC7EIPJHTAL5OYBNBI3Q43YJ90X","A2MX0EF342FY3P","3H6W48L9F4B5OEOMH57RM53Z4H1WP0","","","<img src=""img/flower6.png"" style=""width:200px; border:14px solid green;"">","null","","","","","",""
"743","","image-keyboard-response","121","407637","0.0-121.0","3QXNC7EIPJHTAL5OYBNBI3Q43YJ90X","A2MX0EF342FY3P","3H6W48L9F4B5OEOMH57RM53Z4H1WP0","","","img/flower4.png","74","744.1000000238419","1","1","1","",""
"null","","html-keyboard-response","122","407948","0.0-122.0","3QXNC7EIPJHTAL5OYBNBI3Q43YJ90X","A2MX0EF342FY3P","3H6W48L9F4B5OEOMH57RM53Z4H1WP0","","","<img src=""img/flower4.png"" style=""width:200px; border:14px solid green;"">","null","","","","","",""
"822.8000000119209","","image-keyboard-response","123","408772","0.0-123.0","3QXNC7EIPJHTAL5OYBNBI3Q43YJ90X","A2MX0EF342FY3P","3H6W48L9F4B5OEOMH57RM53Z4H1WP0","","","img/flower4.png","74","823.8000000119209","1","1","1","",""
"null","","html-keyboard-response","124","409083","0.0-124.0","3QXNC7EIPJHTAL5OYBNBI3Q43YJ90X","A2MX0EF342FY3P","3H6W48L9F4B5OEOMH57RM53Z4H1WP0","","","<img src=""img/flower4.png"" style=""width:200px; border:14px solid green;"">","null","","","","","",""
"5055.800000011921","","instructions","125","414140","0.0-125.0","3QXNC7EIPJHTAL5OYBNBI3Q43YJ90X","A2MX0EF342FY3P","3H6W48L9F4B5OEOMH57RM53Z4H1WP0","","[{""page_index"":0,""viewing_time"":5055.700000047684}]","","","","","","","",""
"2551.800000011921","","image-keyboard-response","126","416693","0.0-126.0","3QXNC7EIPJHTAL5OYBNBI3Q43YJ90X","A2MX0EF342FY3P","3H6W48L9F4B5OEOMH57RM53Z4H1WP0","","","img/flower4.png","75","2553","2","0","3","1,1,0,0,1,1,1,0,1",""
"null","","html-keyboard-response","127","416995","0.0-127.0","3QXNC7EIPJHTAL5OYBNBI3Q43YJ90X","A2MX0EF342FY3P","3H6W48L9F4B5OEOMH57RM53Z4H1WP0","","","<img src=""img/flower4.png"" style=""width:200px;border:14px solid red;"">","null","","","","","",""
"1216.1000000238419","","image-keyboard-response","128","418213","0.0-128.0","3QXNC7EIPJHTAL5OYBNBI3Q43YJ90X","A2MX0EF342FY3P","3H6W48L9F4B5OEOMH57RM53Z4H1WP0","","","img/flower4.png","76","1217.3999999761581","3","1","3","1,1,0,0,1,1,1,0,1",""
"null","","html-keyboard-response","129","418521","0.0-129.0","3QXNC7EIPJHTAL5OYBNBI3Q43YJ90X","A2MX0EF342FY3P","3H6W48L9F4B5OEOMH57RM53Z4H1WP0","","","<img src=""img/flower4.png"" style=""width:200px; border:14px solid green;"">","null","","","","","",""
"1938.6000000238419","","image-keyboard-response","130","420461","0.0-130.0","3QXNC7EIPJHTAL5OYBNBI3Q43YJ90X","A2MX0EF342FY3P","3H6W48L9F4B5OEOMH57RM53Z4H1WP0","","","img/flower2.png","75","1939.7999999523163","2","1","1","1,1,0,0,1,1,1,0,1",""
"null","","html-keyboard-response","131","420771","0.0-131.0","3QXNC7EIPJHTAL5OYBNBI3Q43YJ90X","A2MX0EF342FY3P","3H6W48L9F4B5OEOMH57RM53Z4H1WP0","","","<img src=""img/flower2.png"" style=""width:200px; border:14px solid green;"">","null","","","","","",""
"1263","","image-keyboard-response","132","422036","0.0-132.0","3QXNC7EIPJHTAL5OYBNBI3Q43YJ90X","A2MX0EF342FY3P","3H6W48L9F4B5OEOMH57RM53Z4H1WP0","","","img/flower2.png","75","1264.1000000238419","2","1","1","1,1,0,0,1,1,1,0,1",""
"null","","html-keyboard-response","133","422351","0.0-133.0","3QXNC7EIPJHTAL5OYBNBI3Q43YJ90X","A2MX0EF342FY3P","3H6W48L9F4B5OEOMH57RM53Z4H1WP0","","","<img src=""img/flower2.png"" style=""width:200px; border:14px solid green;"">","null","","","","","",""
"988.1000000238419","","image-keyboard-response","134","423341","0.0-134.0","3QXNC7EIPJHTAL5OYBNBI3Q43YJ90X","A2MX0EF342FY3P","3H6W48L9F4B5OEOMH57RM53Z4H1WP0","","","img/flower6.png","74","989.1999999880791","1","0","2","1,1,0,0,1,1,1,0,1",""
"null","","html-keyboard-response","135","423655","0.0-135.0","3QXNC7EIPJHTAL5OYBNBI3Q43YJ90X","A2MX0EF342FY3P","3H6W48L9F4B5OEOMH57RM53Z4H1WP0","","","<img src=""img/flower6.png"" style=""width:200px;border:14px solid red;"">","null","","","","","",""
"2316.599999964237","","image-keyboard-response","136","425973","0.0-136.0","3QXNC7EIPJHTAL5OYBNBI3Q43YJ90X","A2MX0EF342FY3P","3H6W48L9F4B5OEOMH57RM53Z4H1WP0","","","img/flower2.png","75","2318.099999964237","2","1","1","1,1,0,0,1,1,1,0,1",""
"null","","html-keyboard-response","137","426286","0.0-137.0","3QXNC7EIPJHTAL5OYBNBI3Q43YJ90X","A2MX0EF342FY3P","3H6W48L9F4B5OEOMH57RM53Z4H1WP0","","","<img src=""img/flower2.png"" style=""width:200px; border:14px solid green;"">","null","","","","","",""
"901.0999999642372","","image-keyboard-response","138","427189","0.0-138.0","3QXNC7EIPJHTAL5OYBNBI3Q43YJ90X","A2MX0EF342FY3P","3H6W48L9F4B5OEOMH57RM53Z4H1WP0","","","img/flower4.png","76","902.4000000357628","3","1","3","1,1,0,0,1,1,1,0,1",""
"null","","html-keyboard-response","139","427506","0.0-139.0","3QXNC7EIPJHTAL5OYBNBI3Q43YJ90X","A2MX0EF342FY3P","3H6W48L9F4B5OEOMH57RM53Z4H1WP0","","","<img src=""img/flower4.png"" style=""width:200px; border:14px solid green;"">","null","","","","","",""
"832.6000000238419","","image-keyboard-response","140","428341","0.0-140.0","3QXNC7EIPJHTAL5OYBNBI3Q43YJ90X","A2MX0EF342FY3P","3H6W48L9F4B5OEOMH57RM53Z4H1WP0","","","img/flower4.png","76","834","3","1","3","1,1,0,0,1,1,1,0,1",""
"null","","html-keyboard-response","141","428654","0.0-141.0","3QXNC7EIPJHTAL5OYBNBI3Q43YJ90X","A2MX0EF342FY3P","3H6W48L9F4B5OEOMH57RM53Z4H1WP0","","","<img src=""img/flower4.png"" style=""width:200px; border:14px solid green;"">","null","","","","","",""
"885.1000000238419","","image-keyboard-response","142","429541","0.0-142.0","3QXNC7EIPJHTAL5OYBNBI3Q43YJ90X","A2MX0EF342FY3P","3H6W48L9F4B5OEOMH57RM53Z4H1WP0","","","img/flower6.png","74","886.2999999523163","1","0","2","1,1,0,0,1,1,1,0,1",""
"null","","html-keyboard-response","143","429854","0.0-143.0","3QXNC7EIPJHTAL5OYBNBI3Q43YJ90X","A2MX0EF342FY3P","3H6W48L9F4B5OEOMH57RM53Z4H1WP0","","","<img src=""img/flower6.png"" style=""width:200px;border:14px solid red;"">","null","","","","","",""
"973","","image-keyboard-response","144","430829","0.0-144.0","3QXNC7EIPJHTAL5OYBNBI3Q43YJ90X","A2MX0EF342FY3P","3H6W48L9F4B5OEOMH57RM53Z4H1WP0","","","img/flower6.png","74","974.3999999761581","1","0","2","1,1,0,0,1,1,1,0,1",""
"null","","html-keyboard-response","145","431134","0.0-145.0","3QXNC7EIPJHTAL5OYBNBI3Q43YJ90X","A2MX0EF342FY3P","3H6W48L9F4B5OEOMH57RM53Z4H1WP0","","","<img src=""img/flower6.png"" style=""width:200px;border:14px solid red;"">","null","","","","","",""
"1205.8999999761581","","image-keyboard-response","146","432341","0.0-146.0","3QXNC7EIPJHTAL5OYBNBI3Q43YJ90X","A2MX0EF342FY3P","3H6W48L9F4B5OEOMH57RM53Z4H1WP0","","","img/flower6.png","75","1206.8999999761581","2","1","2","1,1,0,0,1,1,1,0,1",""
"null","","html-keyboard-response","147","432647","0.0-147.0","3QXNC7EIPJHTAL5OYBNBI3Q43YJ90X","A2MX0EF342FY3P","3H6W48L9F4B5OEOMH57RM53Z4H1WP0","","","<img src=""img/flower6.png"" style=""width:200px; border:14px solid green;"">","null","","","","","",""
"866.6999999880791","","image-keyboard-response","148","433516","0.0-148.0","3QXNC7EIPJHTAL5OYBNBI3Q43YJ90X","A2MX0EF342FY3P","3H6W48L9F4B5OEOMH57RM53Z4H1WP0","","","img/flower4.png","75","867.7000000476837","2","0","3","1,1,0,0,1,1,1,0,1",""
"null","","html-keyboard-response","149","433824","0.0-149.0","3QXNC7EIPJHTAL5OYBNBI3Q43YJ90X","A2MX0EF342FY3P","3H6W48L9F4B5OEOMH57RM53Z4H1WP0","","","<img src=""img/flower4.png"" style=""width:200px;border:14px solid red;"">","null","","","","","",""
"1227.6000000238419","","image-keyboard-response","150","435053","0.0-150.0","3QXNC7EIPJHTAL5OYBNBI3Q43YJ90X","A2MX0EF342FY3P","3H6W48L9F4B5OEOMH57RM53Z4H1WP0","","","img/flower2.png","75","1229","2","1","1","1,1,0,0,1,1,1,0,1",""
"null","","html-keyboard-response","151","435356","0.0-151.0","3QXNC7EIPJHTAL5OYBNBI3Q43YJ90X","A2MX0EF342FY3P","3H6W48L9F4B5OEOMH57RM53Z4H1WP0","","","<img src=""img/flower2.png"" style=""width:200px; border:14px solid green;"">","null","","","","","",""
"631.5","","image-keyboard-response","152","435989","0.0-152.0","3QXNC7EIPJHTAL5OYBNBI3Q43YJ90X","A2MX0EF342FY3P","3H6W48L9F4B5OEOMH57RM53Z4H1WP0","","","img/flower2.png","75","632.7000000476837","2","1","1","1,1,0,0,1,1,1,0,1",""
"null","","html-keyboard-response","153","436300","0.0-153.0","3QXNC7EIPJHTAL5OYBNBI3Q43YJ90X","A2MX0EF342FY3P","3H6W48L9F4B5OEOMH57RM53Z4H1WP0","","","<img src=""img/flower2.png"" style=""width:200px; border:14px solid green;"">","null","","","","","",""
"453.69999998807907","","image-keyboard-response","154","436755","0.0-154.0","3QXNC7EIPJHTAL5OYBNBI3Q43YJ90X","A2MX0EF342FY3P","3H6W48L9F4B5OEOMH57RM53Z4H1WP0","","","img/flower2.png","75","454.80000001192093","2","1","1","1,1,0,0,1,1,1,0,1",""
"null","","html-keyboard-response","155","437060","0.0-155.0","3QXNC7EIPJHTAL5OYBNBI3Q43YJ90X","A2MX0EF342FY3P","3H6W48L9F4B5OEOMH57RM53Z4H1WP0","","","<img src=""img/flower2.png"" style=""width:200px; border:14px solid green;"">","null","","","","","",""
"606.6999999880791","","image-keyboard-response","156","437669","0.0-156.0","3QXNC7EIPJHTAL5OYBNBI3Q43YJ90X","A2MX0EF342FY3P","3H6W48L9F4B5OEOMH57RM53Z4H1WP0","","","img/flower4.png","76","608.1999999880791","3","1","3","1,1,0,0,1,1,1,0,1",""
"null","","html-keyboard-response","157","437983","0.0-157.0","3QXNC7EIPJHTAL5OYBNBI3Q43YJ90X","A2MX0EF342FY3P","3H6W48L9F4B5OEOMH57RM53Z4H1WP0","","","<img src=""img/flower4.png"" style=""width:200px; border:14px solid green;"">","null","","","","","",""
"1587.5999999642372","","image-keyboard-response","158","439572","0.0-158.0","3QXNC7EIPJHTAL5OYBNBI3Q43YJ90X","A2MX0EF342FY3P","3H6W48L9F4B5OEOMH57RM53Z4H1WP0","","","img/flower6.png","75","1588.5","2","1","2","1,1,0,0,1,1,1,0,1",""
"null","","html-keyboard-response","159","439876","0.0-159.0","3QXNC7EIPJHTAL5OYBNBI3Q43YJ90X","A2MX0EF342FY3P","3H6W48L9F4B5OEOMH57RM53Z4H1WP0","","","<img src=""img/flower6.png"" style=""width:200px; border:14px solid green;"">","null","","","","","",""
"662.3999999761581","","image-keyboard-response","160","440541","0.0-160.0","3QXNC7EIPJHTAL5OYBNBI3Q43YJ90X","A2MX0EF342FY3P","3H6W48L9F4B5OEOMH57RM53Z4H1WP0","","","img/flower6.png","75","663.8000000119209","2","1","2","1,1,0,0,1,1,1,0,1",""
"null","","html-keyboard-response","161","440854","0.0-161.0","3QXNC7EIPJHTAL5OYBNBI3Q43YJ90X","A2MX0EF342FY3P","3H6W48L9F4B5OEOMH57RM53Z4H1WP0","","","<img src=""img/flower6.png"" style=""width:200px; border:14px solid green;"">","null","","","","","",""
"1859.800000011921","","image-keyboard-response","162","442716","0.0-162.0","3QXNC7EIPJHTAL5OYBNBI3Q43YJ90X","A2MX0EF342FY3P","3H6W48L9F4B5OEOMH57RM53Z4H1WP0","","","img/flower2.png","74","1860.9000000357628","1","1","1","1,1,0,0,1,1,1,0,1",""
"null","","html-keyboard-response","163","443022","0.0-163.0","3QXNC7EIPJHTAL5OYBNBI3Q43YJ90X","A2MX0EF342FY3P","3H6W48L9F4B5OEOMH57RM53Z4H1WP0","","","<img src=""img/flower2.png"" style=""width:200px; border:14px solid green;"">","null","","","","","",""
"1253","","image-keyboard-response","164","444277","0.0-164.0","3QXNC7EIPJHTAL5OYBNBI3Q43YJ90X","A2MX0EF342FY3P","3H6W48L9F4B5OEOMH57RM53Z4H1WP0","","","img/flower4.png","76","1254.2999999523163","3","1","3","1,1,0,0,1,1,1,0,1",""
"null","","html-keyboard-response","165","444588","0.0-165.0","3QXNC7EIPJHTAL5OYBNBI3Q43YJ90X","A2MX0EF342FY3P","3H6W48L9F4B5OEOMH57RM53Z4H1WP0","","","<img src=""img/flower4.png"" style=""width:200px; border:14px solid green;"">","null","","","","","",""
"768","","image-keyboard-response","166","445357","0.0-166.0","3QXNC7EIPJHTAL5OYBNBI3Q43YJ90X","A2MX0EF342FY3P","3H6W48L9F4B5OEOMH57RM53Z4H1WP0","","","img/flower4.png","76","768.7999999523163","3","1","3","1,1,0,0,1,1,1,0,1",""
"null","","html-keyboard-response","167","445671","0.0-167.0","3QXNC7EIPJHTAL5OYBNBI3Q43YJ90X","A2MX0EF342FY3P","3H6W48L9F4B5OEOMH57RM53Z4H1WP0","","","<img src=""img/flower4.png"" style=""width:200px; border:14px solid green;"">","null","","","","","",""
"1539.3999999761581","","image-keyboard-response","168","447212","0.0-168.0","3QXNC7EIPJHTAL5OYBNBI3Q43YJ90X","A2MX0EF342FY3P","3H6W48L9F4B5OEOMH57RM53Z4H1WP0","","","img/flower6.png","74","1540.199999988079","1","0","2","1,1,0,0,1,1,1,0,1",""
"null","","html-keyboard-response","169","447516","0.0-169.0","3QXNC7EIPJHTAL5OYBNBI3Q43YJ90X","A2MX0EF342FY3P","3H6W48L9F4B5OEOMH57RM53Z4H1WP0","","","<img src=""img/flower6.png"" style=""width:200px;border:14px solid red;"">","null","","","","","",""
"1062.199999988079","","image-keyboard-response","170","448580","0.0-170.0","3QXNC7EIPJHTAL5OYBNBI3Q43YJ90X","A2MX0EF342FY3P","3H6W48L9F4B5OEOMH57RM53Z4H1WP0","","","img/flower2.png","75","1063.300000011921","2","1","1","1,1,0,0,1,1,1,0,1",""
"null","","html-keyboard-response","171","448894","0.0-171.0","3QXNC7EIPJHTAL5OYBNBI3Q43YJ90X","A2MX0EF342FY3P","3H6W48L9F4B5OEOMH57RM53Z4H1WP0","","","<img src=""img/flower2.png"" style=""width:200px; border:14px solid green;"">","null","","","","","",""
"1173.5","","image-keyboard-response","172","450069","0.0-172.0","3QXNC7EIPJHTAL5OYBNBI3Q43YJ90X","A2MX0EF342FY3P","3H6W48L9F4B5OEOMH57RM53Z4H1WP0","","","img/flower4.png","74","1175","1","1","3","1,1,0,0,1,1,1,0,1",""
"null","","html-keyboard-response","173","450378","0.0-173.0","3QXNC7EIPJHTAL5OYBNBI3Q43YJ90X","A2MX0EF342FY3P","3H6W48L9F4B5OEOMH57RM53Z4H1WP0","","","<img src=""img/flower4.png"" style=""width:200px; border:14px solid green;"">","null","","","","","",""
"1209","","image-keyboard-response","174","451589","0.0-174.0","3QXNC7EIPJHTAL5OYBNBI3Q43YJ90X","A2MX0EF342FY3P","3H6W48L9F4B5OEOMH57RM53Z4H1WP0","","","img/flower6.png","76","1210.199999988079","3","1","2","1,1,0,0,1,1,1,0,1",""
"null","","html-keyboard-response","175","451907","0.0-175.0","3QXNC7EIPJHTAL5OYBNBI3Q43YJ90X","A2MX0EF342FY3P","3H6W48L9F4B5OEOMH57RM53Z4H1WP0","","","<img src=""img/flower6.png"" style=""width:200px; border:14px solid green;"">","null","","","","","",""
"1632.2000000476837","","image-keyboard-response","176","453540","0.0-176.0","3QXNC7EIPJHTAL5OYBNBI3Q43YJ90X","A2MX0EF342FY3P","3H6W48L9F4B5OEOMH57RM53Z4H1WP0","","","img/flower4.png","75","1632.800000011921","2","0","3","1,1,0,0,1,1,1,0,1",""
"null","","html-keyboard-response","177","453854","0.0-177.0","3QXNC7EIPJHTAL5OYBNBI3Q43YJ90X","A2MX0EF342FY3P","3H6W48L9F4B5OEOMH57RM53Z4H1WP0","","","<img src=""img/flower4.png"" style=""width:200px;border:14px solid red;"">","null","","","","","",""
"892.9000000357628","","image-keyboard-response","178","454749","0.0-178.0","3QXNC7EIPJHTAL5OYBNBI3Q43YJ90X","A2MX0EF342FY3P","3H6W48L9F4B5OEOMH57RM53Z4H1WP0","","","img/flower2.png","75","894.3999999761581","2","1","1","1,1,0,0,1,1,1,0,1",""
"null","","html-keyboard-response","179","455053","0.0-179.0","3QXNC7EIPJHTAL5OYBNBI3Q43YJ90X","A2MX0EF342FY3P","3H6W48L9F4B5OEOMH57RM53Z4H1WP0","","","<img src=""img/flower2.png"" style=""width:200px; border:14px solid green;"">","null","","","","","",""
"1124.699999988079","","image-keyboard-response","180","456179","0.0-180.0","3QXNC7EIPJHTAL5OYBNBI3Q43YJ90X","A2MX0EF342FY3P","3H6W48L9F4B5OEOMH57RM53Z4H1WP0","","","img/flower4.png","74","1125.3999999761581","1","1","3","1,1,0,0,1,1,1,0,1",""
"null","","html-keyboard-response","181","456487","0.0-181.0","3QXNC7EIPJHTAL5OYBNBI3Q43YJ90X","A2MX0EF342FY3P","3H6W48L9F4B5OEOMH57RM53Z4H1WP0","","","<img src=""img/flower4.png"" style=""width:200px; border:14px solid green;"">","null","","","","","",""
"829.1999999880791","","image-keyboard-response","182","457317","0.0-182.0","3QXNC7EIPJHTAL5OYBNBI3Q43YJ90X","A2MX0EF342FY3P","3H6W48L9F4B5OEOMH57RM53Z4H1WP0","","","img/flower6.png","76","830.3999999761581","3","1","2","1,1,0,0,1,1,1,0,1",""
"null","","html-keyboard-response","183","457624","0.0-183.0","3QXNC7EIPJHTAL5OYBNBI3Q43YJ90X","A2MX0EF342FY3P","3H6W48L9F4B5OEOMH57RM53Z4H1WP0","","","<img src=""img/flower6.png"" style=""width:200px; border:14px solid green;"">","null","","","","","",""
"931.0999999642372","","image-keyboard-response","184","458556","0.0-184.0","3QXNC7EIPJHTAL5OYBNBI3Q43YJ90X","A2MX0EF342FY3P","3H6W48L9F4B5OEOMH57RM53Z4H1WP0","","","img/flower6.png","76","931.7000000476837","3","1","2","1,1,0,0,1,1,1,0,1",""
"null","","html-keyboard-response","185","458873","0.0-185.0","3QXNC7EIPJHTAL5OYBNBI3Q43YJ90X","A2MX0EF342FY3P","3H6W48L9F4B5OEOMH57RM53Z4H1WP0","","","<img src=""img/flower6.png"" style=""width:200px; border:14px solid green;"">","null","","","","","",""
"1266.4000000357628","","image-keyboard-response","186","460140","0.0-186.0","3QXNC7EIPJHTAL5OYBNBI3Q43YJ90X","A2MX0EF342FY3P","3H6W48L9F4B5OEOMH57RM53Z4H1WP0","","","img/flower2.png","74","1267","1","1","1","1,1,0,0,1,1,1,0,1",""
"null","","html-keyboard-response","187","460445","0.0-187.0","3QXNC7EIPJHTAL5OYBNBI3Q43YJ90X","A2MX0EF342FY3P","3H6W48L9F4B5OEOMH57RM53Z4H1WP0","","","<img src=""img/flower2.png"" style=""width:200px; border:14px solid green;"">","null","","","","","",""
"1470.2999999523163","","image-keyboard-response","188","461917","0.0-188.0","3QXNC7EIPJHTAL5OYBNBI3Q43YJ90X","A2MX0EF342FY3P","3H6W48L9F4B5OEOMH57RM53Z4H1WP0","","","img/flower6.png","75","1471.800000011921","2","1","2","1,1,0,0,1,1,1,0,1",""
"null","","html-keyboard-response","189","462221","0.0-189.0","3QXNC7EIPJHTAL5OYBNBI3Q43YJ90X","A2MX0EF342FY3P","3H6W48L9F4B5OEOMH57RM53Z4H1WP0","","","<img src=""img/flower6.png"" style=""width:200px; border:14px solid green;"">","null","","","","","",""
"1197.5999999642372","","image-keyboard-response","190","463421","0.0-190.0","3QXNC7EIPJHTAL5OYBNBI3Q43YJ90X","A2MX0EF342FY3P","3H6W48L9F4B5OEOMH57RM53Z4H1WP0","","","img/flower2.png","74","1198.9000000357628","1","1","1","1,1,0,0,1,1,1,0,1",""
"null","","html-keyboard-response","191","463737","0.0-191.0","3QXNC7EIPJHTAL5OYBNBI3Q43YJ90X","A2MX0EF342FY3P","3H6W48L9F4B5OEOMH57RM53Z4H1WP0","","","<img src=""img/flower2.png"" style=""width:200px; border:14px solid green;"">","null","","","","","",""
"1370.300000011921","","image-keyboard-response","192","465108","0.0-192.0","3QXNC7EIPJHTAL5OYBNBI3Q43YJ90X","A2MX0EF342FY3P","3H6W48L9F4B5OEOMH57RM53Z4H1WP0","","","img/flower6.png","74","1370.800000011921","1","0","2","1,1,0,0,1,1,1,0,1",""
"null","","html-keyboard-response","193","465419","0.0-193.0","3QXNC7EIPJHTAL5OYBNBI3Q43YJ90X","A2MX0EF342FY3P","3H6W48L9F4B5OEOMH57RM53Z4H1WP0","","","<img src=""img/flower6.png"" style=""width:200px;border:14px solid red;"">","null","","","","","",""
"1640.7999999523163","","image-keyboard-response","194","467061","0.0-194.0","3QXNC7EIPJHTAL5OYBNBI3Q43YJ90X","A2MX0EF342FY3P","3H6W48L9F4B5OEOMH57RM53Z4H1WP0","","","img/flower2.png","74","1641.4000000357628","1","1","1","1,1,0,0,1,1,1,0,1",""
"null","","html-keyboard-response","195","467368","0.0-195.0","3QXNC7EIPJHTAL5OYBNBI3Q43YJ90X","A2MX0EF342FY3P","3H6W48L9F4B5OEOMH57RM53Z4H1WP0","","","<img src=""img/flower2.png"" style=""width:200px; border:14px solid green;"">","null","","","","","",""
"739.8000000119209","","image-keyboard-response","196","468109","0.0-196.0","3QXNC7EIPJHTAL5OYBNBI3Q43YJ90X","A2MX0EF342FY3P","3H6W48L9F4B5OEOMH57RM53Z4H1WP0","","","img/flower2.png","74","741.0999999642372","1","1","1","1,1,0,0,1,1,1,0,1",""
"null","","html-keyboard-response","197","468426","0.0-197.0","3QXNC7EIPJHTAL5OYBNBI3Q43YJ90X","A2MX0EF342FY3P","3H6W48L9F4B5OEOMH57RM53Z4H1WP0","","","<img src=""img/flower2.png"" style=""width:200px; border:14px solid green;"">","null","","","","","",""
"688.8000000119209","","image-keyboard-response","198","469116","0.0-198.0","3QXNC7EIPJHTAL5OYBNBI3Q43YJ90X","A2MX0EF342FY3P","3H6W48L9F4B5OEOMH57RM53Z4H1WP0","","","img/flower4.png","75","689.8999999761581","2","0","3","1,1,0,0,1,1,1,0,1",""
"null","","html-keyboard-response","199","469420","0.0-199.0","3QXNC7EIPJHTAL5OYBNBI3Q43YJ90X","A2MX0EF342FY3P","3H6W48L9F4B5OEOMH57RM53Z4H1WP0","","","<img src=""img/flower4.png"" style=""width:200px;border:14px solid red;"">","null","","","","","",""
"1134.7999999523163","","image-keyboard-response","200","470557","0.0-200.0","3QXNC7EIPJHTAL5OYBNBI3Q43YJ90X","A2MX0EF342FY3P","3H6W48L9F4B5OEOMH57RM53Z4H1WP0","","","img/flower4.png","74","1136.1000000238419","1","1","3","1,1,0,0,1,1,1,0,1",""
"null","","html-keyboard-response","201","470870","0.0-201.0","3QXNC7EIPJHTAL5OYBNBI3Q43YJ90X","A2MX0EF342FY3P","3H6W48L9F4B5OEOMH57RM53Z4H1WP0","","","<img src=""img/flower4.png"" style=""width:200px; border:14px solid green;"">","null","","","","","",""
"1253.0999999642372","","image-keyboard-response","202","472125","0.0-202.0","3QXNC7EIPJHTAL5OYBNBI3Q43YJ90X","A2MX0EF342FY3P","3H6W48L9F4B5OEOMH57RM53Z4H1WP0","","","img/flower2.png","75","1254.4000000357628","2","1","1","1,1,0,0,1,1,1,0,1",""
"null","","html-keyboard-response","203","472440","0.0-203.0","3QXNC7EIPJHTAL5OYBNBI3Q43YJ90X","A2MX0EF342FY3P","3H6W48L9F4B5OEOMH57RM53Z4H1WP0","","","<img src=""img/flower2.png"" style=""width:200px; border:14px solid green;"">","null","","","","","",""
"867.3999999761581","","image-keyboard-response","204","473309","0.0-204.0","3QXNC7EIPJHTAL5OYBNBI3Q43YJ90X","A2MX0EF342FY3P","3H6W48L9F4B5OEOMH57RM53Z4H1WP0","","","img/flower6.png","76","868.1000000238419","3","1","2","1,1,0,0,1,1,1,0,1",""
"null","","html-keyboard-response","205","473620","0.0-205.0","3QXNC7EIPJHTAL5OYBNBI3Q43YJ90X","A2MX0EF342FY3P","3H6W48L9F4B5OEOMH57RM53Z4H1WP0","","","<img src=""img/flower6.png"" style=""width:200px; border:14px solid green;"">","null","","","","","",""
"1479.199999988079","","image-keyboard-response","206","475101","0.0-206.0","3QXNC7EIPJHTAL5OYBNBI3Q43YJ90X","A2MX0EF342FY3P","3H6W48L9F4B5OEOMH57RM53Z4H1WP0","","","img/flower4.png","75","1480.7999999523163","2","0","3","1,1,0,0,1,1,1,0,1",""
"null","","html-keyboard-response","207","475404","0.0-207.0","3QXNC7EIPJHTAL5OYBNBI3Q43YJ90X","A2MX0EF342FY3P","3H6W48L9F4B5OEOMH57RM53Z4H1WP0","","","<img src=""img/flower4.png"" style=""width:200px;border:14px solid red;"">","null","","","","","",""
"1375.6000000238419","","image-keyboard-response","208","476781","0.0-208.0","3QXNC7EIPJHTAL5OYBNBI3Q43YJ90X","A2MX0EF342FY3P","3H6W48L9F4B5OEOMH57RM53Z4H1WP0","","","img/flower6.png","74","1376.5","1","0","2","1,1,0,0,1,1,1,0,1",""
"null","","html-keyboard-response","209","477086","0.0-209.0","3QXNC7EIPJHTAL5OYBNBI3Q43YJ90X","A2MX0EF342FY3P","3H6W48L9F4B5OEOMH57RM53Z4H1WP0","","","<img src=""img/flower6.png"" style=""width:200px;border:14px solid red;"">","null","","","","","",""
"1086.5999999642372","","image-keyboard-response","210","478173","0.0-210.0","3QXNC7EIPJHTAL5OYBNBI3Q43YJ90X","A2MX0EF342FY3P","3H6W48L9F4B5OEOMH57RM53Z4H1WP0","","","img/flower6.png","76","1087.3999999761581","3","1","2","1,1,0,0,1,1,1,0,1",""
"null","","html-keyboard-response","211","478488","0.0-211.0","3QXNC7EIPJHTAL5OYBNBI3Q43YJ90X","A2MX0EF342FY3P","3H6W48L9F4B5OEOMH57RM53Z4H1WP0","","","<img src=""img/flower6.png"" style=""width:200px; border:14px solid green;"">","null","","","","","",""
"746.1999999880791","","image-keyboard-response","212","479235","0.0-212.0","3QXNC7EIPJHTAL5OYBNBI3Q43YJ90X","A2MX0EF342FY3P","3H6W48L9F4B5OEOMH57RM53Z4H1WP0","","","img/flower2.png","75","747.4000000357628","2","1","1","1,1,0,0,1,1,1,0,1",""
"null","","html-keyboard-response","213","479539","0.0-213.0","3QXNC7EIPJHTAL5OYBNBI3Q43YJ90X","A2MX0EF342FY3P","3H6W48L9F4B5OEOMH57RM53Z4H1WP0","","","<img src=""img/flower2.png"" style=""width:200px; border:14px solid green;"">","null","","","","","",""
"679.0999999642372","","image-keyboard-response","214","480220","0.0-214.0","3QXNC7EIPJHTAL5OYBNBI3Q43YJ90X","A2MX0EF342FY3P","3H6W48L9F4B5OEOMH57RM53Z4H1WP0","","","img/flower2.png","75","680.3000000119209","2","1","1","1,1,0,0,1,1,1,0,1",""
"null","","html-keyboard-response","215","480536","0.0-215.0","3QXNC7EIPJHTAL5OYBNBI3Q43YJ90X","A2MX0EF342FY3P","3H6W48L9F4B5OEOMH57RM53Z4H1WP0","","","<img src=""img/flower2.png"" style=""width:200px; border:14px solid green;"">","null","","","","","",""
"971","","image-keyboard-response","216","481508","0.0-216.0","3QXNC7EIPJHTAL5OYBNBI3Q43YJ90X","A2MX0EF342FY3P","3H6W48L9F4B5OEOMH57RM53Z4H1WP0","","","img/flower4.png","74","971.5","1","1","3","1,1,0,0,1,1,1,0,1",""
"null","","html-keyboard-response","217","481820","0.0-217.0","3QXNC7EIPJHTAL5OYBNBI3Q43YJ90X","A2MX0EF342FY3P","3H6W48L9F4B5OEOMH57RM53Z4H1WP0","","","<img src=""img/flower4.png"" style=""width:200px; border:14px solid green;"">","null","","","","","",""
"1086.1000000238419","","image-keyboard-response","218","482908","0.0-218.0","3QXNC7EIPJHTAL5OYBNBI3Q43YJ90X","A2MX0EF342FY3P","3H6W48L9F4B5OEOMH57RM53Z4H1WP0","","","img/flower6.png","75","1087.199999988079","2","1","2","1,1,0,0,1,1,1,0,1",""
"null","","html-keyboard-response","219","483210","0.0-219.0","3QXNC7EIPJHTAL5OYBNBI3Q43YJ90X","A2MX0EF342FY3P","3H6W48L9F4B5OEOMH57RM53Z4H1WP0","","","<img src=""img/flower6.png"" style=""width:200px; border:14px solid green;"">","null","","","","","",""
"1696.7999999523163","","image-keyboard-response","220","484909","0.0-220.0","3QXNC7EIPJHTAL5OYBNBI3Q43YJ90X","A2MX0EF342FY3P","3H6W48L9F4B5OEOMH57RM53Z4H1WP0","","","img/flower2.png","75","1698.300000011921","2","1","1","1,1,0,0,1,1,1,0,1",""
"null","","html-keyboard-response","221","485211","0.0-221.0","3QXNC7EIPJHTAL5OYBNBI3Q43YJ90X","A2MX0EF342FY3P","3H6W48L9F4B5OEOMH57RM53Z4H1WP0","","","<img src=""img/flower2.png"" style=""width:200px; border:14px solid green;"">","null","","","","","",""
"1487.300000011921","","image-keyboard-response","222","486700","0.0-222.0","3QXNC7EIPJHTAL5OYBNBI3Q43YJ90X","A2MX0EF342FY3P","3H6W48L9F4B5OEOMH57RM53Z4H1WP0","","","img/flower6.png","75","1488.4000000357628","2","1","2","1,1,0,0,1,1,1,0,1",""
"null","","html-keyboard-response","223","487011","0.0-223.0","3QXNC7EIPJHTAL5OYBNBI3Q43YJ90X","A2MX0EF342FY3P","3H6W48L9F4B5OEOMH57RM53Z4H1WP0","","","<img src=""img/flower6.png"" style=""width:200px; border:14px solid green;"">","null","","","","","",""
"959.6000000238419","","image-keyboard-response","224","487972","0.0-224.0","3QXNC7EIPJHTAL5OYBNBI3Q43YJ90X","A2MX0EF342FY3P","3H6W48L9F4B5OEOMH57RM53Z4H1WP0","","","img/flower2.png","75","960.8000000119209","2","1","1","1,1,0,0,1,1,1,0,1",""
"null","","html-keyboard-response","225","488283","0.0-225.0","3QXNC7EIPJHTAL5OYBNBI3Q43YJ90X","A2MX0EF342FY3P","3H6W48L9F4B5OEOMH57RM53Z4H1WP0","","","<img src=""img/flower2.png"" style=""width:200px; border:14px solid green;"">","null","","","","","",""
"823.6999999880791","","image-keyboard-response","226","489109","0.0-226.0","3QXNC7EIPJHTAL5OYBNBI3Q43YJ90X","A2MX0EF342FY3P","3H6W48L9F4B5OEOMH57RM53Z4H1WP0","","","img/flower2.png","75","825.2000000476837","2","1","1","1,1,0,0,1,1,1,0,1",""
"null","","html-keyboard-response","227","489420","0.0-227.0","3QXNC7EIPJHTAL5OYBNBI3Q43YJ90X","A2MX0EF342FY3P","3H6W48L9F4B5OEOMH57RM53Z4H1WP0","","","<img src=""img/flower2.png"" style=""width:200px; border:14px solid green;"">","null","","","","","",""
"1069.8999999761581","","image-keyboard-response","228","490487","0.0-228.0","3QXNC7EIPJHTAL5OYBNBI3Q43YJ90X","A2MX0EF342FY3P","3H6W48L9F4B5OEOMH57RM53Z4H1WP0","","","img/flower6.png","75","1071","2","1","2","1,1,0,0,1,1,1,0,1",""
"null","","html-keyboard-response","229","490790","0.0-229.0","3QXNC7EIPJHTAL5OYBNBI3Q43YJ90X","A2MX0EF342FY3P","3H6W48L9F4B5OEOMH57RM53Z4H1WP0","","","<img src=""img/flower6.png"" style=""width:200px; border:14px solid green;"">","null","","","","","",""
"809.3000000119209","","image-keyboard-response","230","491600","0.0-230.0","3QXNC7EIPJHTAL5OYBNBI3Q43YJ90X","A2MX0EF342FY3P","3H6W48L9F4B5OEOMH57RM53Z4H1WP0","","","img/flower2.png","75","810.1999999880791","2","1","1","1,1,0,0,1,1,1,0,1",""
"null","","html-keyboard-response","231","491912","0.0-231.0","3QXNC7EIPJHTAL5OYBNBI3Q43YJ90X","A2MX0EF342FY3P","3H6W48L9F4B5OEOMH57RM53Z4H1WP0","","","<img src=""img/flower2.png"" style=""width:200px; border:14px solid green;"">","null","","","","","",""
"615.9000000357628","","image-keyboard-response","232","492529","0.0-232.0","3QXNC7EIPJHTAL5OYBNBI3Q43YJ90X","A2MX0EF342FY3P","3H6W48L9F4B5OEOMH57RM53Z4H1WP0","","","img/flower6.png","75","616.8999999761581","2","1","2","1,1,0,0,1,1,1,0,1",""
"null","","html-keyboard-response","233","492837","0.0-233.0","3QXNC7EIPJHTAL5OYBNBI3Q43YJ90X","A2MX0EF342FY3P","3H6W48L9F4B5OEOMH57RM53Z4H1WP0","","","<img src=""img/flower6.png"" style=""width:200px; border:14px solid green;"">","null","","","","","",""
"601.8999999761581","","image-keyboard-response","234","493441","0.0-234.0","3QXNC7EIPJHTAL5OYBNBI3Q43YJ90X","A2MX0EF342FY3P","3H6W48L9F4B5OEOMH57RM53Z4H1WP0","","","img/flower4.png","76","603.1999999880791","3","1","3","1,1,0,0,1,1,1,0,1",""
"null","","html-keyboard-response","235","493750","0.0-235.0","3QXNC7EIPJHTAL5OYBNBI3Q43YJ90X","A2MX0EF342FY3P","3H6W48L9F4B5OEOMH57RM53Z4H1WP0","","","<img src=""img/flower4.png"" style=""width:200px; border:14px solid green;"">","null","","","","","",""
"744.2999999523163","","image-keyboard-response","236","494495","0.0-236.0","3QXNC7EIPJHTAL5OYBNBI3Q43YJ90X","A2MX0EF342FY3P","3H6W48L9F4B5OEOMH57RM53Z4H1WP0","","","img/flower4.png","76","745.3000000119209","3","1","3","1,1,0,0,1,1,1,0,1",""
"null","","html-keyboard-response","237","494799","0.0-237.0","3QXNC7EIPJHTAL5OYBNBI3Q43YJ90X","A2MX0EF342FY3P","3H6W48L9F4B5OEOMH57RM53Z4H1WP0","","","<img src=""img/flower4.png"" style=""width:200px; border:14px solid green;"">","null","","","","","",""
"743","","image-keyboard-response","238","495543","0.0-238.0","3QXNC7EIPJHTAL5OYBNBI3Q43YJ90X","A2MX0EF342FY3P","3H6W48L9F4B5OEOMH57RM53Z4H1WP0","","","img/flower2.png","75","744.1000000238419","2","1","1","1,1,0,0,1,1,1,0,1",""
"null","","html-keyboard-response","239","495849","0.0-239.0","3QXNC7EIPJHTAL5OYBNBI3Q43YJ90X","A2MX0EF342FY3P","3H6W48L9F4B5OEOMH57RM53Z4H1WP0","","","<img src=""img/flower2.png"" style=""width:200px; border:14px solid green;"">","null","","","","","",""
"854.0999999642372","","image-keyboard-response","240","496705","0.0-240.0","3QXNC7EIPJHTAL5OYBNBI3Q43YJ90X","A2MX0EF342FY3P","3H6W48L9F4B5OEOMH57RM53Z4H1WP0","","","img/flower6.png","75","855.5999999642372","2","1","2","1,1,0,0,1,1,1,0,1",""
"null","","html-keyboard-response","241","497008","0.0-241.0","3QXNC7EIPJHTAL5OYBNBI3Q43YJ90X","A2MX0EF342FY3P","3H6W48L9F4B5OEOMH57RM53Z4H1WP0","","","<img src=""img/flower6.png"" style=""width:200px; border:14px solid green;"">","null","","","","","",""
"1055.1000000238419","","image-keyboard-response","242","498063","0.0-242.0","3QXNC7EIPJHTAL5OYBNBI3Q43YJ90X","A2MX0EF342FY3P","3H6W48L9F4B5OEOMH57RM53Z4H1WP0","","","img/flower4.png","76","1055.699999988079","3","1","3","1,1,0,0,1,1,1,0,1",""
"null","","html-keyboard-response","243","498375","0.0-243.0","3QXNC7EIPJHTAL5OYBNBI3Q43YJ90X","A2MX0EF342FY3P","3H6W48L9F4B5OEOMH57RM53Z4H1WP0","","","<img src=""img/flower4.png"" style=""width:200px; border:14px solid green;"">","null","","","","","",""
"607.3999999761581","","image-keyboard-response","244","498985","0.0-244.0","3QXNC7EIPJHTAL5OYBNBI3Q43YJ90X","A2MX0EF342FY3P","3H6W48L9F4B5OEOMH57RM53Z4H1WP0","","","img/flower2.png","75","608.7999999523163","2","1","1","1,1,0,0,1,1,1,0,1",""
"null","","html-keyboard-response","245","499296","0.0-245.0","3QXNC7EIPJHTAL5OYBNBI3Q43YJ90X","A2MX0EF342FY3P","3H6W48L9F4B5OEOMH57RM53Z4H1WP0","","","<img src=""img/flower2.png"" style=""width:200px; border:14px solid green;"">","null","","","","","",""
"1016.1000000238419","","image-keyboard-response","246","500313","0.0-246.0","3QXNC7EIPJHTAL5OYBNBI3Q43YJ90X","A2MX0EF342FY3P","3H6W48L9F4B5OEOMH57RM53Z4H1WP0","","","img/flower4.png","76","1017","3","1","3","1,1,0,0,1,1,1,0,1",""
"null","","html-keyboard-response","247","500616","0.0-247.0","3QXNC7EIPJHTAL5OYBNBI3Q43YJ90X","A2MX0EF342FY3P","3H6W48L9F4B5OEOMH57RM53Z4H1WP0","","","<img src=""img/flower4.png"" style=""width:200px; border:14px solid green;"">","null","","","","","",""
"391.69999998807907","","image-keyboard-response","248","501009","0.0-248.0","3QXNC7EIPJHTAL5OYBNBI3Q43YJ90X","A2MX0EF342FY3P","3H6W48L9F4B5OEOMH57RM53Z4H1WP0","","","img/flower2.png","75","392.39999997615814","2","1","1","1,1,0,0,1,1,1,0,1",""
"null","","html-keyboard-response","249","501319","0.0-249.0","3QXNC7EIPJHTAL5OYBNBI3Q43YJ90X","A2MX0EF342FY3P","3H6W48L9F4B5OEOMH57RM53Z4H1WP0","","","<img src=""img/flower2.png"" style=""width:200px; border:14px solid green;"">","null","","","","","",""
"654.6999999880791","","image-keyboard-response","250","501975","0.0-250.0","3QXNC7EIPJHTAL5OYBNBI3Q43YJ90X","A2MX0EF342FY3P","3H6W48L9F4B5OEOMH57RM53Z4H1WP0","","","img/flower4.png","76","655.7000000476837","3","1","3","1,1,0,0,1,1,1,0,1",""
"null","","html-keyboard-response","251","502278","0.0-251.0","3QXNC7EIPJHTAL5OYBNBI3Q43YJ90X","A2MX0EF342FY3P","3H6W48L9F4B5OEOMH57RM53Z4H1WP0","","","<img src=""img/flower4.png"" style=""width:200px; border:14px solid green;"">","null","","","","","",""
"744.7000000476837","","image-keyboard-response","252","503025","0.0-252.0","3QXNC7EIPJHTAL5OYBNBI3Q43YJ90X","A2MX0EF342FY3P","3H6W48L9F4B5OEOMH57RM53Z4H1WP0","","","img/flower4.png","76","746.1000000238419","3","1","3","1,1,0,0,1,1,1,0,1",""
"null","","html-keyboard-response","253","503332","0.0-253.0","3QXNC7EIPJHTAL5OYBNBI3Q43YJ90X","A2MX0EF342FY3P","3H6W48L9F4B5OEOMH57RM53Z4H1WP0","","","<img src=""img/flower4.png"" style=""width:200px; border:14px solid green;"">","null","","","","","",""
"587.6999999880791","","image-keyboard-response","254","503921","0.0-254.0","3QXNC7EIPJHTAL5OYBNBI3Q43YJ90X","A2MX0EF342FY3P","3H6W48L9F4B5OEOMH57RM53Z4H1WP0","","","img/flower4.png","76","588.5","3","1","3","1,1,0,0,1,1,1,0,1",""
"null","","html-keyboard-response","255","504232","0.0-255.0","3QXNC7EIPJHTAL5OYBNBI3Q43YJ90X","A2MX0EF342FY3P","3H6W48L9F4B5OEOMH57RM53Z4H1WP0","","","<img src=""img/flower4.png"" style=""width:200px; border:14px solid green;"">","null","","","","","",""
"566.5","","image-keyboard-response","256","504801","0.0-256.0","3QXNC7EIPJHTAL5OYBNBI3Q43YJ90X","A2MX0EF342FY3P","3H6W48L9F4B5OEOMH57RM53Z4H1WP0","","","img/flower4.png","76","568","3","1","3","1,1,0,0,1,1,1,0,1",""
"null","","html-keyboard-response","257","505122","0.0-257.0","3QXNC7EIPJHTAL5OYBNBI3Q43YJ90X","A2MX0EF342FY3P","3H6W48L9F4B5OEOMH57RM53Z4H1WP0","","","<img src=""img/flower4.png"" style=""width:200px; border:14px solid green;"">","null","","","","","",""
"884.5999999642372","","image-keyboard-response","258","506009","0.0-258.0","3QXNC7EIPJHTAL5OYBNBI3Q43YJ90X","A2MX0EF342FY3P","3H6W48L9F4B5OEOMH57RM53Z4H1WP0","","","img/flower4.png","76","886.0999999642372","3","1","3","1,1,0,0,1,1,1,0,1",""
"null","","html-keyboard-response","259","506320","0.0-259.0","3QXNC7EIPJHTAL5OYBNBI3Q43YJ90X","A2MX0EF342FY3P","3H6W48L9F4B5OEOMH57RM53Z4H1WP0","","","<img src=""img/flower4.png"" style=""width:200px; border:14px solid green;"">","null","","","","","",""
"910.8000000119209","","image-keyboard-response","260","507233","0.0-260.0","3QXNC7EIPJHTAL5OYBNBI3Q43YJ90X","A2MX0EF342FY3P","3H6W48L9F4B5OEOMH57RM53Z4H1WP0","","","img/flower2.png","75","912.0999999642372","2","1","1","1,1,0,0,1,1,1,0,1",""
"null","","html-keyboard-response","261","507547","0.0-261.0","3QXNC7EIPJHTAL5OYBNBI3Q43YJ90X","A2MX0EF342FY3P","3H6W48L9F4B5OEOMH57RM53Z4H1WP0","","","<img src=""img/flower2.png"" style=""width:200px; border:14px solid green;"">","null","","","","","",""
"867.5","","image-keyboard-response","262","508416","0.0-262.0","3QXNC7EIPJHTAL5OYBNBI3Q43YJ90X","A2MX0EF342FY3P","3H6W48L9F4B5OEOMH57RM53Z4H1WP0","","","img/flower4.png","76","868.6000000238419","3","1","3","1,1,0,0,1,1,1,0,1",""
"null","","html-keyboard-response","263","508733","0.0-263.0","3QXNC7EIPJHTAL5OYBNBI3Q43YJ90X","A2MX0EF342FY3P","3H6W48L9F4B5OEOMH57RM53Z4H1WP0","","","<img src=""img/flower4.png"" style=""width:200px; border:14px solid green;"">","null","","","","","",""
"978","","image-keyboard-response","264","509712","0.0-264.0","3QXNC7EIPJHTAL5OYBNBI3Q43YJ90X","A2MX0EF342FY3P","3H6W48L9F4B5OEOMH57RM53Z4H1WP0","","","img/flower6.png","75","979.6000000238419","2","1","2","1,1,0,0,1,1,1,0,1",""
"null","","html-keyboard-response","265","510021","0.0-265.0","3QXNC7EIPJHTAL5OYBNBI3Q43YJ90X","A2MX0EF342FY3P","3H6W48L9F4B5OEOMH57RM53Z4H1WP0","","","<img src=""img/flower6.png"" style=""width:200px; border:14px solid green;"">","null","","","","","",""
"1091.0999999642372","","image-keyboard-response","266","511113","0.0-266.0","3QXNC7EIPJHTAL5OYBNBI3Q43YJ90X","A2MX0EF342FY3P","3H6W48L9F4B5OEOMH57RM53Z4H1WP0","","","img/flower2.png","75","1092","2","1","1","1,1,0,0,1,1,1,0,1",""
"null","","html-keyboard-response","267","511417","0.0-267.0","3QXNC7EIPJHTAL5OYBNBI3Q43YJ90X","A2MX0EF342FY3P","3H6W48L9F4B5OEOMH57RM53Z4H1WP0","","","<img src=""img/flower2.png"" style=""width:200px; border:14px solid green;"">","null","","","","","",""
"1086.699999988079","","image-keyboard-response","268","512505","0.0-268.0","3QXNC7EIPJHTAL5OYBNBI3Q43YJ90X","A2MX0EF342FY3P","3H6W48L9F4B5OEOMH57RM53Z4H1WP0","","","img/flower6.png","76","1087.5","3","1","2","1,1,0,0,1,1,1,0,1",""
"null","","html-keyboard-response","269","512815","0.0-269.0","3QXNC7EIPJHTAL5OYBNBI3Q43YJ90X","A2MX0EF342FY3P","3H6W48L9F4B5OEOMH57RM53Z4H1WP0","","","<img src=""img/flower6.png"" style=""width:200px; border:14px solid green;"">","null","","","","","",""
"663.3999999761581","","image-keyboard-response","270","513479","0.0-270.0","3QXNC7EIPJHTAL5OYBNBI3Q43YJ90X","A2MX0EF342FY3P","3H6W48L9F4B5OEOMH57RM53Z4H1WP0","","","img/flower2.png","75","664.5","2","1","1","1,1,0,0,1,1,1,0,1",""
"null","","html-keyboard-response","271","513795","0.0-271.0","3QXNC7EIPJHTAL5OYBNBI3Q43YJ90X","A2MX0EF342FY3P","3H6W48L9F4B5OEOMH57RM53Z4H1WP0","","","<img src=""img/flower2.png"" style=""width:200px; border:14px solid green;"">","null","","","","","",""
"1835.5","","image-keyboard-response","272","515632","0.0-272.0","3QXNC7EIPJHTAL5OYBNBI3Q43YJ90X","A2MX0EF342FY3P","3H6W48L9F4B5OEOMH57RM53Z4H1WP0","","","img/flower4.png","74","1837","1","1","3","1,1,0,0,1,1,1,0,1",""
"null","","html-keyboard-response","273","515941","0.0-273.0","3QXNC7EIPJHTAL5OYBNBI3Q43YJ90X","A2MX0EF342FY3P","3H6W48L9F4B5OEOMH57RM53Z4H1WP0","","","<img src=""img/flower4.png"" style=""width:200px; border:14px solid green;"">","null","","","","","",""
"1738.8999999761581","","image-keyboard-response","274","517681","0.0-274.0","3QXNC7EIPJHTAL5OYBNBI3Q43YJ90X","A2MX0EF342FY3P","3H6W48L9F4B5OEOMH57RM53Z4H1WP0","","","img/flower6.png","75","1739.699999988079","2","1","2","1,1,0,0,1,1,1,0,1",""
"null","","html-keyboard-response","275","517993","0.0-275.0","3QXNC7EIPJHTAL5OYBNBI3Q43YJ90X","A2MX0EF342FY3P","3H6W48L9F4B5OEOMH57RM53Z4H1WP0","","","<img src=""img/flower6.png"" style=""width:200px; border:14px solid green;"">","null","","","","","",""
"813.5","","image-keyboard-response","276","518809","0.0-276.0","3QXNC7EIPJHTAL5OYBNBI3Q43YJ90X","A2MX0EF342FY3P","3H6W48L9F4B5OEOMH57RM53Z4H1WP0","","","img/flower4.png","74","814.7999999523163","1","1","3","1,1,0,0,1,1,1,0,1",""
"null","","html-keyboard-response","277","519111","0.0-277.0","3QXNC7EIPJHTAL5OYBNBI3Q43YJ90X","A2MX0EF342FY3P","3H6W48L9F4B5OEOMH57RM53Z4H1WP0","","","<img src=""img/flower4.png"" style=""width:200px; border:14px solid green;"">","null","","","","","",""
"895.3000000119209","","image-keyboard-response","278","520008","0.0-278.0","3QXNC7EIPJHTAL5OYBNBI3Q43YJ90X","A2MX0EF342FY3P","3H6W48L9F4B5OEOMH57RM53Z4H1WP0","","","img/flower2.png","75","896.8000000119209","2","1","1","1,1,0,0,1,1,1,0,1",""
"null","","html-keyboard-response","279","520325","0.0-279.0","3QXNC7EIPJHTAL5OYBNBI3Q43YJ90X","A2MX0EF342FY3P","3H6W48L9F4B5OEOMH57RM53Z4H1WP0","","","<img src=""img/flower2.png"" style=""width:200px; border:14px solid green;"">","null","","","","","",""
"512.9000000357628","","image-keyboard-response","280","520840","0.0-280.0","3QXNC7EIPJHTAL5OYBNBI3Q43YJ90X","A2MX0EF342FY3P","3H6W48L9F4B5OEOMH57RM53Z4H1WP0","","","img/flower2.png","75","514.3000000119209","2","1","1","1,1,0,0,1,1,1,0,1",""
"null","","html-keyboard-response","281","521143","0.0-281.0","3QXNC7EIPJHTAL5OYBNBI3Q43YJ90X","A2MX0EF342FY3P","3H6W48L9F4B5OEOMH57RM53Z4H1WP0","","","<img src=""img/flower2.png"" style=""width:200px; border:14px solid green;"">","null","","","","","",""
"960.3000000119209","","image-keyboard-response","282","522105","0.0-282.0","3QXNC7EIPJHTAL5OYBNBI3Q43YJ90X","A2MX0EF342FY3P","3H6W48L9F4B5OEOMH57RM53Z4H1WP0","","","img/flower6.png","75","961.7000000476837","2","1","2","1,1,0,0,1,1,1,0,1",""
"null","","html-keyboard-response","283","522418","0.0-283.0","3QXNC7EIPJHTAL5OYBNBI3Q43YJ90X","A2MX0EF342FY3P","3H6W48L9F4B5OEOMH57RM53Z4H1WP0","","","<img src=""img/flower6.png"" style=""width:200px; border:14px solid green;"">","null","","","","","",""
"701.5","","image-keyboard-response","284","523121","0.0-284.0","3QXNC7EIPJHTAL5OYBNBI3Q43YJ90X","A2MX0EF342FY3P","3H6W48L9F4B5OEOMH57RM53Z4H1WP0","","","img/flower6.png","75","702.3999999761581","2","1","2","1,1,0,0,1,1,1,0,1",""
"null","","html-keyboard-response","285","523432","0.0-285.0","3QXNC7EIPJHTAL5OYBNBI3Q43YJ90X","A2MX0EF342FY3P","3H6W48L9F4B5OEOMH57RM53Z4H1WP0","","","<img src=""img/flower6.png"" style=""width:200px; border:14px solid green;"">","null","","","","","",""
"663","","image-keyboard-response","286","524097","0.0-286.0","3QXNC7EIPJHTAL5OYBNBI3Q43YJ90X","A2MX0EF342FY3P","3H6W48L9F4B5OEOMH57RM53Z4H1WP0","","","img/flower6.png","75","664.3999999761581","2","1","2","1,1,0,0,1,1,1,0,1",""
"null","","html-keyboard-response","287","524407","0.0-287.0","3QXNC7EIPJHTAL5OYBNBI3Q43YJ90X","A2MX0EF342FY3P","3H6W48L9F4B5OEOMH57RM53Z4H1WP0","","","<img src=""img/flower6.png"" style=""width:200px; border:14px solid green;"">","null","","","","","",""
"559.0999999642372","","image-keyboard-response","288","524967","0.0-288.0","3QXNC7EIPJHTAL5OYBNBI3Q43YJ90X","A2MX0EF342FY3P","3H6W48L9F4B5OEOMH57RM53Z4H1WP0","","","img/flower6.png","75","560.2000000476837","2","1","2","1,1,0,0,1,1,1,0,1",""
"null","","html-keyboard-response","289","525269","0.0-289.0","3QXNC7EIPJHTAL5OYBNBI3Q43YJ90X","A2MX0EF342FY3P","3H6W48L9F4B5OEOMH57RM53Z4H1WP0","","","<img src=""img/flower6.png"" style=""width:200px; border:14px solid green;"">","null","","","","","",""
"968.8999999761581","","image-keyboard-response","290","526239","0.0-290.0","3QXNC7EIPJHTAL5OYBNBI3Q43YJ90X","A2MX0EF342FY3P","3H6W48L9F4B5OEOMH57RM53Z4H1WP0","","","img/flower2.png","75","970.1000000238419","2","1","1","1,1,0,0,1,1,1,0,1",""
"null","","html-keyboard-response","291","526551","0.0-291.0","3QXNC7EIPJHTAL5OYBNBI3Q43YJ90X","A2MX0EF342FY3P","3H6W48L9F4B5OEOMH57RM53Z4H1WP0","","","<img src=""img/flower2.png"" style=""width:200px; border:14px solid green;"">","null","","","","","",""
"751.9000000357628","","image-keyboard-response","292","527304","0.0-292.0","3QXNC7EIPJHTAL5OYBNBI3Q43YJ90X","A2MX0EF342FY3P","3H6W48L9F4B5OEOMH57RM53Z4H1WP0","","","img/flower6.png","75","752.7999999523163","2","1","2","1,1,0,0,1,1,1,0,1",""
"null","","html-keyboard-response","293","527615","0.0-293.0","3QXNC7EIPJHTAL5OYBNBI3Q43YJ90X","A2MX0EF342FY3P","3H6W48L9F4B5OEOMH57RM53Z4H1WP0","","","<img src=""img/flower6.png"" style=""width:200px; border:14px solid green;"">","null","","","","","",""
"552.1000000238419","","image-keyboard-response","294","528169","0.0-294.0","3QXNC7EIPJHTAL5OYBNBI3Q43YJ90X","A2MX0EF342FY3P","3H6W48L9F4B5OEOMH57RM53Z4H1WP0","","","img/flower6.png","75","553.5","2","1","2","1,1,0,0,1,1,1,0,1",""
"null","","html-keyboard-response","295","528482","0.0-295.0","3QXNC7EIPJHTAL5OYBNBI3Q43YJ90X","A2MX0EF342FY3P","3H6W48L9F4B5OEOMH57RM53Z4H1WP0","","","<img src=""img/flower6.png"" style=""width:200px; border:14px solid green;"">","null","","","","","",""
"692.4000000357628","","image-keyboard-response","296","529177","0.0-296.0","3QXNC7EIPJHTAL5OYBNBI3Q43YJ90X","A2MX0EF342FY3P","3H6W48L9F4B5OEOMH57RM53Z4H1WP0","","","img/flower2.png","75","694.0999999642372","2","1","1","1,1,0,0,1,1,1,0,1",""
"null","","html-keyboard-response","297","529481","0.0-297.0","3QXNC7EIPJHTAL5OYBNBI3Q43YJ90X","A2MX0EF342FY3P","3H6W48L9F4B5OEOMH57RM53Z4H1WP0","","","<img src=""img/flower2.png"" style=""width:200px; border:14px solid green;"">","null","","","","","",""
"565.9000000357628","","image-keyboard-response","298","530047","0.0-298.0","3QXNC7EIPJHTAL5OYBNBI3Q43YJ90X","A2MX0EF342FY3P","3H6W48L9F4B5OEOMH57RM53Z4H1WP0","","","img/flower4.png","74","566.5","1","1","3","1,1,0,0,1,1,1,0,1",""
"null","","html-keyboard-response","299","530356","0.0-299.0","3QXNC7EIPJHTAL5OYBNBI3Q43YJ90X","A2MX0EF342FY3P","3H6W48L9F4B5OEOMH57RM53Z4H1WP0","","","<img src=""img/flower4.png"" style=""width:200px; border:14px solid green;"">","null","","","","","",""
"578.6999999880791","","image-keyboard-response","300","530937","0.0-300.0","3QXNC7EIPJHTAL5OYBNBI3Q43YJ90X","A2MX0EF342FY3P","3H6W48L9F4B5OEOMH57RM53Z4H1WP0","","","img/flower6.png","75","580","2","1","2","1,1,0,0,1,1,1,0,1",""
"null","","html-keyboard-response","301","531251","0.0-301.0","3QXNC7EIPJHTAL5OYBNBI3Q43YJ90X","A2MX0EF342FY3P","3H6W48L9F4B5OEOMH57RM53Z4H1WP0","","","<img src=""img/flower6.png"" style=""width:200px; border:14px solid green;"">","null","","","","","",""
"981.5","","image-keyboard-response","302","532233","0.0-302.0","3QXNC7EIPJHTAL5OYBNBI3Q43YJ90X","A2MX0EF342FY3P","3H6W48L9F4B5OEOMH57RM53Z4H1WP0","","","img/flower4.png","74","982.3999999761581","1","1","3","1,1,0,0,1,1,1,0,1",""
"null","","html-keyboard-response","303","532547","0.0-303.0","3QXNC7EIPJHTAL5OYBNBI3Q43YJ90X","A2MX0EF342FY3P","3H6W48L9F4B5OEOMH57RM53Z4H1WP0","","","<img src=""img/flower4.png"" style=""width:200px; border:14px solid green;"">","null","","","","","",""
"717","","image-keyboard-response","304","533265","0.0-304.0","3QXNC7EIPJHTAL5OYBNBI3Q43YJ90X","A2MX0EF342FY3P","3H6W48L9F4B5OEOMH57RM53Z4H1WP0","","","img/flower4.png","74","717.8999999761581","1","1","3","1,1,0,0,1,1,1,0,1",""
"null","","html-keyboard-response","305","533569","0.0-305.0","3QXNC7EIPJHTAL5OYBNBI3Q43YJ90X","A2MX0EF342FY3P","3H6W48L9F4B5OEOMH57RM53Z4H1WP0","","","<img src=""img/flower4.png"" style=""width:200px; border:14px solid green;"">","null","","","","","",""
"","","html-keyboard-response","306","541064","0.0-306.0","3QXNC7EIPJHTAL5OYBNBI3Q43YJ90X","A2MX0EF342FY3P","3H6W48L9F4B5OEOMH57RM53Z4H1WP0","","","","","","","","","",""
"2632.300000011921","","image-keyboard-response","307","543697","0.0-307.0","3QXNC7EIPJHTAL5OYBNBI3Q43YJ90X","A2MX0EF342FY3P","3H6W48L9F4B5OEOMH57RM53Z4H1WP0","","","img/flower1.png","75","2633.199999988079","2","1","3","1,0.5,0.5,0.5,1,0.5,0.5,0.5,1",""
"null","","html-keyboard-response","308","544014","0.0-308.0","3QXNC7EIPJHTAL5OYBNBI3Q43YJ90X","A2MX0EF342FY3P","3H6W48L9F4B5OEOMH57RM53Z4H1WP0","","","<img src=""img/flower1.png"" style=""width:200px; border:14px solid green;"">","null","","","","","",""
"881.0999999642372","","image-keyboard-response","309","544896","0.0-309.0","3QXNC7EIPJHTAL5OYBNBI3Q43YJ90X","A2MX0EF342FY3P","3H6W48L9F4B5OEOMH57RM53Z4H1WP0","","","img/flower1.png","75","882.0999999642372","2","0","3","1,0.5,0.5,0.5,1,0.5,0.5,0.5,1",""
"null","","html-keyboard-response","310","545202","0.0-310.0","3QXNC7EIPJHTAL5OYBNBI3Q43YJ90X","A2MX0EF342FY3P","3H6W48L9F4B5OEOMH57RM53Z4H1WP0","","","<img src=""img/flower1.png"" style=""width:200px;border:14px solid red;"">","null","","","","","",""
"1539.8999999761581","","image-keyboard-response","311","546744","0.0-311.0","3QXNC7EIPJHTAL5OYBNBI3Q43YJ90X","A2MX0EF342FY3P","3H6W48L9F4B5OEOMH57RM53Z4H1WP0","","","img/flower5.png","75","1541.1000000238419","2","1","2","1,0.5,0.5,0.5,1,0.5,0.5,0.5,1",""
"null","","html-keyboard-response","312","547049","0.0-312.0","3QXNC7EIPJHTAL5OYBNBI3Q43YJ90X","A2MX0EF342FY3P","3H6W48L9F4B5OEOMH57RM53Z4H1WP0","","","<img src=""img/flower5.png"" style=""width:200px; border:14px solid green;"">","null","","","","","",""
"1229.300000011921","","image-keyboard-response","313","548280","0.0-313.0","3QXNC7EIPJHTAL5OYBNBI3Q43YJ90X","A2MX0EF342FY3P","3H6W48L9F4B5OEOMH57RM53Z4H1WP0","","","img/flower3.png","74","1232","1","1","1","1,0.5,0.5,0.5,1,0.5,0.5,0.5,1",""
"null","","html-keyboard-response","314","548599","0.0-314.0","3QXNC7EIPJHTAL5OYBNBI3Q43YJ90X","A2MX0EF342FY3P","3H6W48L9F4B5OEOMH57RM53Z4H1WP0","","","<img src=""img/flower3.png"" style=""width:200px; border:14px solid green;"">","null","","","","","",""
"783.6999999880791","","image-keyboard-response","315","549385","0.0-315.0","3QXNC7EIPJHTAL5OYBNBI3Q43YJ90X","A2MX0EF342FY3P","3H6W48L9F4B5OEOMH57RM53Z4H1WP0","","","img/flower1.png","75","785.1999999880791","2","1","3","1,0.5,0.5,0.5,1,0.5,0.5,0.5,1",""
"null","","html-keyboard-response","316","549702","0.0-316.0","3QXNC7EIPJHTAL5OYBNBI3Q43YJ90X","A2MX0EF342FY3P","3H6W48L9F4B5OEOMH57RM53Z4H1WP0","","","<img src=""img/flower1.png"" style=""width:200px; border:14px solid green;"">","null","","","","","",""
"785.1000000238419","","image-keyboard-response","317","550487","0.0-317.0","3QXNC7EIPJHTAL5OYBNBI3Q43YJ90X","A2MX0EF342FY3P","3H6W48L9F4B5OEOMH57RM53Z4H1WP0","","","img/flower3.png","74","786.5","1","1","1","1,0.5,0.5,0.5,1,0.5,0.5,0.5,1",""
"null","","html-keyboard-response","318","550796","0.0-318.0","3QXNC7EIPJHTAL5OYBNBI3Q43YJ90X","A2MX0EF342FY3P","3H6W48L9F4B5OEOMH57RM53Z4H1WP0","","","<img src=""img/flower3.png"" style=""width:200px; border:14px solid green;"">","null","","","","","",""
"584.6999999880791","","image-keyboard-response","319","551383","0.0-319.0","3QXNC7EIPJHTAL5OYBNBI3Q43YJ90X","A2MX0EF342FY3P","3H6W48L9F4B5OEOMH57RM53Z4H1WP0","","","img/flower5.png","75","586.0999999642372","2","1","2","1,0.5,0.5,0.5,1,0.5,0.5,0.5,1",""
"null","","html-keyboard-response","320","551695","0.0-320.0","3QXNC7EIPJHTAL5OYBNBI3Q43YJ90X","A2MX0EF342FY3P","3H6W48L9F4B5OEOMH57RM53Z4H1WP0","","","<img src=""img/flower5.png"" style=""width:200px; border:14px solid green;"">","null","","","","","",""
"526.1999999880791","","image-keyboard-response","321","552222","0.0-321.0","3QXNC7EIPJHTAL5OYBNBI3Q43YJ90X","A2MX0EF342FY3P","3H6W48L9F4B5OEOMH57RM53Z4H1WP0","","","img/flower3.png","74","527","1","1","1","1,0.5,0.5,0.5,1,0.5,0.5,0.5,1",""
"null","","html-keyboard-response","322","552529","0.0-322.0","3QXNC7EIPJHTAL5OYBNBI3Q43YJ90X","A2MX0EF342FY3P","3H6W48L9F4B5OEOMH57RM53Z4H1WP0","","","<img src=""img/flower3.png"" style=""width:200px; border:14px solid green;"">","null","","","","","",""
"700.3999999761581","","image-keyboard-response","323","553231","0.0-323.0","3QXNC7EIPJHTAL5OYBNBI3Q43YJ90X","A2MX0EF342FY3P","3H6W48L9F4B5OEOMH57RM53Z4H1WP0","","","img/flower1.png","75","701.6999999880791","2","0","3","1,0.5,0.5,0.5,1,0.5,0.5,0.5,1",""
"null","","html-keyboard-response","324","553545","0.0-324.0","3QXNC7EIPJHTAL5OYBNBI3Q43YJ90X","A2MX0EF342FY3P","3H6W48L9F4B5OEOMH57RM53Z4H1WP0","","","<img src=""img/flower1.png"" style=""width:200px;border:14px solid red;"">","null","","","","","",""
"1724.199999988079","","image-keyboard-response","325","555271","0.0-325.0","3QXNC7EIPJHTAL5OYBNBI3Q43YJ90X","A2MX0EF342FY3P","3H6W48L9F4B5OEOMH57RM53Z4H1WP0","","","img/flower5.png","75","1725.699999988079","2","1","2","1,0.5,0.5,0.5,1,0.5,0.5,0.5,1",""
"null","","html-keyboard-response","326","555579","0.0-326.0","3QXNC7EIPJHTAL5OYBNBI3Q43YJ90X","A2MX0EF342FY3P","3H6W48L9F4B5OEOMH57RM53Z4H1WP0","","","<img src=""img/flower5.png"" style=""width:200px; border:14px solid green;"">","null","","","","","",""
"458.89999997615814","","image-keyboard-response","327","556039","0.0-327.0","3QXNC7EIPJHTAL5OYBNBI3Q43YJ90X","A2MX0EF342FY3P","3H6W48L9F4B5OEOMH57RM53Z4H1WP0","","","img/flower5.png","75","459.69999998807907","2","1","2","1,0.5,0.5,0.5,1,0.5,0.5,0.5,1",""
"null","","html-keyboard-response","328","556355","0.0-328.0","3QXNC7EIPJHTAL5OYBNBI3Q43YJ90X","A2MX0EF342FY3P","3H6W48L9F4B5OEOMH57RM53Z4H1WP0","","","<img src=""img/flower5.png"" style=""width:200px; border:14px solid green;"">","null","","","","","",""
"449","","image-keyboard-response","329","556805","0.0-329.0","3QXNC7EIPJHTAL5OYBNBI3Q43YJ90X","A2MX0EF342FY3P","3H6W48L9F4B5OEOMH57RM53Z4H1WP0","","","img/flower5.png","75","450.2000000476837","2","1","2","1,0.5,0.5,0.5,1,0.5,0.5,0.5,1",""
"null","","html-keyboard-response","330","557109","0.0-330.0","3QXNC7EIPJHTAL5OYBNBI3Q43YJ90X","A2MX0EF342FY3P","3H6W48L9F4B5OEOMH57RM53Z4H1WP0","","","<img src=""img/flower5.png"" style=""width:200px; border:14px solid green;"">","null","","","","","",""
"942.2999999523163","","image-keyboard-response","331","558053","0.0-331.0","3QXNC7EIPJHTAL5OYBNBI3Q43YJ90X","A2MX0EF342FY3P","3H6W48L9F4B5OEOMH57RM53Z4H1WP0","","","img/flower3.png","74","943.5","1","1","1","1,0.5,0.5,0.5,1,0.5,0.5,0.5,1",""
"null","","html-keyboard-response","332","558369","0.0-332.0","3QXNC7EIPJHTAL5OYBNBI3Q43YJ90X","A2MX0EF342FY3P","3H6W48L9F4B5OEOMH57RM53Z4H1WP0","","","<img src=""img/flower3.png"" style=""width:200px; border:14px solid green;"">","null","","","","","",""
"722.8999999761581","","image-keyboard-response","333","559093","0.0-333.0","3QXNC7EIPJHTAL5OYBNBI3Q43YJ90X","A2MX0EF342FY3P","3H6W48L9F4B5OEOMH57RM53Z4H1WP0","","","img/flower3.png","74","724","1","1","1","1,0.5,0.5,0.5,1,0.5,0.5,0.5,1",""
"null","","html-keyboard-response","334","559410","0.0-334.0","3QXNC7EIPJHTAL5OYBNBI3Q43YJ90X","A2MX0EF342FY3P","3H6W48L9F4B5OEOMH57RM53Z4H1WP0","","","<img src=""img/flower3.png"" style=""width:200px; border:14px solid green;"">","null","","","","","",""
"899.8999999761581","","image-keyboard-response","335","560311","0.0-335.0","3QXNC7EIPJHTAL5OYBNBI3Q43YJ90X","A2MX0EF342FY3P","3H6W48L9F4B5OEOMH57RM53Z4H1WP0","","","img/flower5.png","75","900.6999999880791","2","1","2","1,0.5,0.5,0.5,1,0.5,0.5,0.5,1",""
"null","","html-keyboard-response","336","560613","0.0-336.0","3QXNC7EIPJHTAL5OYBNBI3Q43YJ90X","A2MX0EF342FY3P","3H6W48L9F4B5OEOMH57RM53Z4H1WP0","","","<img src=""img/flower5.png"" style=""width:200px; border:14px solid green;"">","null","","","","","",""
"632.5","","image-keyboard-response","337","561247","0.0-337.0","3QXNC7EIPJHTAL5OYBNBI3Q43YJ90X","A2MX0EF342FY3P","3H6W48L9F4B5OEOMH57RM53Z4H1WP0","","","img/flower1.png","76","633.5","3","1","3","1,0.5,0.5,0.5,1,0.5,0.5,0.5,1",""
"null","","html-keyboard-response","338","561561","0.0-338.0","3QXNC7EIPJHTAL5OYBNBI3Q43YJ90X","A2MX0EF342FY3P","3H6W48L9F4B5OEOMH57RM53Z4H1WP0","","","<img src=""img/flower1.png"" style=""width:200px; border:14px solid green;"">","null","","","","","",""
"644.5999999642372","","image-keyboard-response","339","562207","0.0-339.0","3QXNC7EIPJHTAL5OYBNBI3Q43YJ90X","A2MX0EF342FY3P","3H6W48L9F4B5OEOMH57RM53Z4H1WP0","","","img/flower5.png","75","645.6999999880791","2","1","2","1,0.5,0.5,0.5,1,0.5,0.5,0.5,1",""
"null","","html-keyboard-response","340","562511","0.0-340.0","3QXNC7EIPJHTAL5OYBNBI3Q43YJ90X","A2MX0EF342FY3P","3H6W48L9F4B5OEOMH57RM53Z4H1WP0","","","<img src=""img/flower5.png"" style=""width:200px; border:14px solid green;"">","null","","","","","",""
"990","","image-keyboard-response","341","563502","0.0-341.0","3QXNC7EIPJHTAL5OYBNBI3Q43YJ90X","A2MX0EF342FY3P","3H6W48L9F4B5OEOMH57RM53Z4H1WP0","","","img/flower3.png","74","991.5","1","1","1","1,0.5,0.5,0.5,1,0.5,0.5,0.5,1",""
"null","","html-keyboard-response","342","563812","0.0-342.0","3QXNC7EIPJHTAL5OYBNBI3Q43YJ90X","A2MX0EF342FY3P","3H6W48L9F4B5OEOMH57RM53Z4H1WP0","","","<img src=""img/flower3.png"" style=""width:200px; border:14px solid green;"">","null","","","","","",""
"857.3000000119209","","image-keyboard-response","343","564669","0.0-343.0","3QXNC7EIPJHTAL5OYBNBI3Q43YJ90X","A2MX0EF342FY3P","3H6W48L9F4B5OEOMH57RM53Z4H1WP0","","","img/flower1.png","76","857.8000000119209","3","1","3","1,0.5,0.5,0.5,1,0.5,0.5,0.5,1",""
"null","","html-keyboard-response","344","564985","0.0-344.0","3QXNC7EIPJHTAL5OYBNBI3Q43YJ90X","A2MX0EF342FY3P","3H6W48L9F4B5OEOMH57RM53Z4H1WP0","","","<img src=""img/flower1.png"" style=""width:200px; border:14px solid green;"">","null","","","","","",""
"2123","","image-keyboard-response","345","567110","0.0-345.0","3QXNC7EIPJHTAL5OYBNBI3Q43YJ90X","A2MX0EF342FY3P","3H6W48L9F4B5OEOMH57RM53Z4H1WP0","","","img/flower3.png","74","2124.399999976158","1","1","1","1,0.5,0.5,0.5,1,0.5,0.5,0.5,1",""
"null","","html-keyboard-response","346","567416","0.0-346.0","3QXNC7EIPJHTAL5OYBNBI3Q43YJ90X","A2MX0EF342FY3P","3H6W48L9F4B5OEOMH57RM53Z4H1WP0","","","<img src=""img/flower3.png"" style=""width:200px; border:14px solid green;"">","null","","","","","",""
"1197.300000011921","","image-keyboard-response","347","568615","0.0-347.0","3QXNC7EIPJHTAL5OYBNBI3Q43YJ90X","A2MX0EF342FY3P","3H6W48L9F4B5OEOMH57RM53Z4H1WP0","","","img/flower1.png","76","1198.7000000476837","3","1","3","1,0.5,0.5,0.5,1,0.5,0.5,0.5,1",""
"null","","html-keyboard-response","348","568919","0.0-348.0","3QXNC7EIPJHTAL5OYBNBI3Q43YJ90X","A2MX0EF342FY3P","3H6W48L9F4B5OEOMH57RM53Z4H1WP0","","","<img src=""img/flower1.png"" style=""width:200px; border:14px solid green;"">","null","","","","","",""
"748.5","","image-keyboard-response","349","569669","0.0-349.0","3QXNC7EIPJHTAL5OYBNBI3Q43YJ90X","A2MX0EF342FY3P","3H6W48L9F4B5OEOMH57RM53Z4H1WP0","","","img/flower3.png","74","749.5999999642372","1","1","1","1,0.5,0.5,0.5,1,0.5,0.5,0.5,1",""
"null","","html-keyboard-response","350","569974","0.0-350.0","3QXNC7EIPJHTAL5OYBNBI3Q43YJ90X","A2MX0EF342FY3P","3H6W48L9F4B5OEOMH57RM53Z4H1WP0","","","<img src=""img/flower3.png"" style=""width:200px; border:14px solid green;"">","null","","","","","",""
"901.8999999761581","","image-keyboard-response","351","570877","0.0-351.0","3QXNC7EIPJHTAL5OYBNBI3Q43YJ90X","A2MX0EF342FY3P","3H6W48L9F4B5OEOMH57RM53Z4H1WP0","","","img/flower1.png","76","903.0999999642372","3","1","3","1,0.5,0.5,0.5,1,0.5,0.5,0.5,1",""
"null","","html-keyboard-response","352","571189","0.0-352.0","3QXNC7EIPJHTAL5OYBNBI3Q43YJ90X","A2MX0EF342FY3P","3H6W48L9F4B5OEOMH57RM53Z4H1WP0","","","<img src=""img/flower1.png"" style=""width:200px; border:14px solid green;"">","null","","","","","",""
"799.1999999880791","","image-keyboard-response","353","571990","0.0-353.0","3QXNC7EIPJHTAL5OYBNBI3Q43YJ90X","A2MX0EF342FY3P","3H6W48L9F4B5OEOMH57RM53Z4H1WP0","","","img/flower5.png","75","800.5999999642372","2","1","2","1,0.5,0.5,0.5,1,0.5,0.5,0.5,1",""
"null","","html-keyboard-response","354","572306","0.0-354.0","3QXNC7EIPJHTAL5OYBNBI3Q43YJ90X","A2MX0EF342FY3P","3H6W48L9F4B5OEOMH57RM53Z4H1WP0","","","<img src=""img/flower5.png"" style=""width:200px; border:14px solid green;"">","null","","","","","",""
"666","","image-keyboard-response","355","572974","0.0-355.0","3QXNC7EIPJHTAL5OYBNBI3Q43YJ90X","A2MX0EF342FY3P","3H6W48L9F4B5OEOMH57RM53Z4H1WP0","","","img/flower5.png","75","667.3000000119209","2","1","2","1,0.5,0.5,0.5,1,0.5,0.5,0.5,1",""
"null","","html-keyboard-response","356","573279","0.0-356.0","3QXNC7EIPJHTAL5OYBNBI3Q43YJ90X","A2MX0EF342FY3P","3H6W48L9F4B5OEOMH57RM53Z4H1WP0","","","<img src=""img/flower5.png"" style=""width:200px; border:14px solid green;"">","null","","","","","",""
"757.5999999642372","","image-keyboard-response","357","574038","0.0-357.0","3QXNC7EIPJHTAL5OYBNBI3Q43YJ90X","A2MX0EF342FY3P","3H6W48L9F4B5OEOMH57RM53Z4H1WP0","","","img/flower1.png","76","758.3000000119209","3","1","3","1,0.5,0.5,0.5,1,0.5,0.5,0.5,1",""
"null","","html-keyboard-response","358","574343","0.0-358.0","3QXNC7EIPJHTAL5OYBNBI3Q43YJ90X","A2MX0EF342FY3P","3H6W48L9F4B5OEOMH57RM53Z4H1WP0","","","<img src=""img/flower1.png"" style=""width:200px; border:14px solid green;"">","null","","","","","",""
"925.3999999761581","","image-keyboard-response","359","575270","0.0-359.0","3QXNC7EIPJHTAL5OYBNBI3Q43YJ90X","A2MX0EF342FY3P","3H6W48L9F4B5OEOMH57RM53Z4H1WP0","","","img/flower3.png","74","926.5","1","1","1","1,0.5,0.5,0.5,1,0.5,0.5,0.5,1",""
"null","","html-keyboard-response","360","575578","0.0-360.0","3QXNC7EIPJHTAL5OYBNBI3Q43YJ90X","A2MX0EF342FY3P","3H6W48L9F4B5OEOMH57RM53Z4H1WP0","","","<img src=""img/flower3.png"" style=""width:200px; border:14px solid green;"">","null","","","","","",""
"698.3999999761581","","image-keyboard-response","361","576279","0.0-361.0","3QXNC7EIPJHTAL5OYBNBI3Q43YJ90X","A2MX0EF342FY3P","3H6W48L9F4B5OEOMH57RM53Z4H1WP0","","","img/flower5.png","75","699.7999999523163","2","1","2","1,0.5,0.5,0.5,1,0.5,0.5,0.5,1",""
"null","","html-keyboard-response","362","576594","0.0-362.0","3QXNC7EIPJHTAL5OYBNBI3Q43YJ90X","A2MX0EF342FY3P","3H6W48L9F4B5OEOMH57RM53Z4H1WP0","","","<img src=""img/flower5.png"" style=""width:200px; border:14px solid green;"">","null","","","","","",""
"747.3000000119209","","image-keyboard-response","363","577343","0.0-363.0","3QXNC7EIPJHTAL5OYBNBI3Q43YJ90X","A2MX0EF342FY3P","3H6W48L9F4B5OEOMH57RM53Z4H1WP0","","","img/flower1.png","76","748.8000000119209","3","1","3","1,0.5,0.5,0.5,1,0.5,0.5,0.5,1",""
"null","","html-keyboard-response","364","577646","0.0-364.0","3QXNC7EIPJHTAL5OYBNBI3Q43YJ90X","A2MX0EF342FY3P","3H6W48L9F4B5OEOMH57RM53Z4H1WP0","","","<img src=""img/flower1.png"" style=""width:200px; border:14px solid green;"">","null","","","","","",""
"823","","image-keyboard-response","365","578469","0.0-365.0","3QXNC7EIPJHTAL5OYBNBI3Q43YJ90X","A2MX0EF342FY3P","3H6W48L9F4B5OEOMH57RM53Z4H1WP0","","","img/flower5.png","75","823.4000000357628","2","1","2","1,0.5,0.5,0.5,1,0.5,0.5,0.5,1",""
"null","","html-keyboard-response","366","578778","0.0-366.0","3QXNC7EIPJHTAL5OYBNBI3Q43YJ90X","A2MX0EF342FY3P","3H6W48L9F4B5OEOMH57RM53Z4H1WP0","","","<img src=""img/flower5.png"" style=""width:200px; border:14px solid green;"">","null","","","","","",""
"1322.800000011921","","image-keyboard-response","367","580103","0.0-367.0","3QXNC7EIPJHTAL5OYBNBI3Q43YJ90X","A2MX0EF342FY3P","3H6W48L9F4B5OEOMH57RM53Z4H1WP0","","","img/flower1.png","76","1324.3999999761581","3","1","3","1,0.5,0.5,0.5,1,0.5,0.5,0.5,1",""
"null","","html-keyboard-response","368","580415","0.0-368.0","3QXNC7EIPJHTAL5OYBNBI3Q43YJ90X","A2MX0EF342FY3P","3H6W48L9F4B5OEOMH57RM53Z4H1WP0","","","<img src=""img/flower1.png"" style=""width:200px; border:14px solid green;"">","null","","","","","",""
"732.3000000119209","","image-keyboard-response","369","581150","0.0-369.0","3QXNC7EIPJHTAL5OYBNBI3Q43YJ90X","A2MX0EF342FY3P","3H6W48L9F4B5OEOMH57RM53Z4H1WP0","","","img/flower1.png","76","733.6999999880791","3","1","3","1,0.5,0.5,0.5,1,0.5,0.5,0.5,1",""
"null","","html-keyboard-response","370","581457","0.0-370.0","3QXNC7EIPJHTAL5OYBNBI3Q43YJ90X","A2MX0EF342FY3P","3H6W48L9F4B5OEOMH57RM53Z4H1WP0","","","<img src=""img/flower1.png"" style=""width:200px; border:14px solid green;"">","null","","","","","",""
"779.3999999761581","","image-keyboard-response","371","582237","0.0-371.0","3QXNC7EIPJHTAL5OYBNBI3Q43YJ90X","A2MX0EF342FY3P","3H6W48L9F4B5OEOMH57RM53Z4H1WP0","","","img/flower1.png","76","780.4000000357628","3","1","3","1,0.5,0.5,0.5,1,0.5,0.5,0.5,1",""
"null","","html-keyboard-response","372","582542","0.0-372.0","3QXNC7EIPJHTAL5OYBNBI3Q43YJ90X","A2MX0EF342FY3P","3H6W48L9F4B5OEOMH57RM53Z4H1WP0","","","<img src=""img/flower1.png"" style=""width:200px; border:14px solid green;"">","null","","","","","",""
"686.5","","image-keyboard-response","373","583231","0.0-373.0","3QXNC7EIPJHTAL5OYBNBI3Q43YJ90X","A2MX0EF342FY3P","3H6W48L9F4B5OEOMH57RM53Z4H1WP0","","","img/flower1.png","76","688.1000000238419","3","1","3","1,0.5,0.5,0.5,1,0.5,0.5,0.5,1",""
"null","","html-keyboard-response","374","583544","0.0-374.0","3QXNC7EIPJHTAL5OYBNBI3Q43YJ90X","A2MX0EF342FY3P","3H6W48L9F4B5OEOMH57RM53Z4H1WP0","","","<img src=""img/flower1.png"" style=""width:200px; border:14px solid green;"">","null","","","","","",""
"757.1999999880791","","image-keyboard-response","375","584303","0.0-375.0","3QXNC7EIPJHTAL5OYBNBI3Q43YJ90X","A2MX0EF342FY3P","3H6W48L9F4B5OEOMH57RM53Z4H1WP0","","","img/flower5.png","75","758.1000000238419","2","1","2","1,0.5,0.5,0.5,1,0.5,0.5,0.5,1",""
"null","","html-keyboard-response","376","584611","0.0-376.0","3QXNC7EIPJHTAL5OYBNBI3Q43YJ90X","A2MX0EF342FY3P","3H6W48L9F4B5OEOMH57RM53Z4H1WP0","","","<img src=""img/flower5.png"" style=""width:200px; border:14px solid green;"">","null","","","","","",""
"690.4000000357628","","image-keyboard-response","377","585302","0.0-377.0","3QXNC7EIPJHTAL5OYBNBI3Q43YJ90X","A2MX0EF342FY3P","3H6W48L9F4B5OEOMH57RM53Z4H1WP0","","","img/flower5.png","75","691.2999999523163","2","1","2","1,0.5,0.5,0.5,1,0.5,0.5,0.5,1",""
"null","","html-keyboard-response","378","585615","0.0-378.0","3QXNC7EIPJHTAL5OYBNBI3Q43YJ90X","A2MX0EF342FY3P","3H6W48L9F4B5OEOMH57RM53Z4H1WP0","","","<img src=""img/flower5.png"" style=""width:200px; border:14px solid green;"">","null","","","","","",""
"742","","image-keyboard-response","379","586359","0.0-379.0","3QXNC7EIPJHTAL5OYBNBI3Q43YJ90X","A2MX0EF342FY3P","3H6W48L9F4B5OEOMH57RM53Z4H1WP0","","","img/flower3.png","74","743.5","1","1","1","1,0.5,0.5,0.5,1,0.5,0.5,0.5,1",""
"null","","html-keyboard-response","380","586662","0.0-380.0","3QXNC7EIPJHTAL5OYBNBI3Q43YJ90X","A2MX0EF342FY3P","3H6W48L9F4B5OEOMH57RM53Z4H1WP0","","","<img src=""img/flower3.png"" style=""width:200px; border:14px solid green;"">","null","","","","","",""
"638.5","","image-keyboard-response","381","587302","0.0-381.0","3QXNC7EIPJHTAL5OYBNBI3Q43YJ90X","A2MX0EF342FY3P","3H6W48L9F4B5OEOMH57RM53Z4H1WP0","","","img/flower3.png","74","639.1000000238419","1","1","1","1,0.5,0.5,0.5,1,0.5,0.5,0.5,1",""
"null","","html-keyboard-response","382","587612","0.0-382.0","3QXNC7EIPJHTAL5OYBNBI3Q43YJ90X","A2MX0EF342FY3P","3H6W48L9F4B5OEOMH57RM53Z4H1WP0","","","<img src=""img/flower3.png"" style=""width:200px; border:14px solid green;"">","null","","","","","",""
"801.6999999880791","","image-keyboard-response","383","588415","0.0-383.0","3QXNC7EIPJHTAL5OYBNBI3Q43YJ90X","A2MX0EF342FY3P","3H6W48L9F4B5OEOMH57RM53Z4H1WP0","","","img/flower1.png","76","803.1999999880791","3","1","3","1,0.5,0.5,0.5,1,0.5,0.5,0.5,1",""
"null","","html-keyboard-response","384","588720","0.0-384.0","3QXNC7EIPJHTAL5OYBNBI3Q43YJ90X","A2MX0EF342FY3P","3H6W48L9F4B5OEOMH57RM53Z4H1WP0","","","<img src=""img/flower1.png"" style=""width:200px; border:14px solid green;"">","null","","","","","",""
"733.7000000476837","","image-keyboard-response","385","589455","0.0-385.0","3QXNC7EIPJHTAL5OYBNBI3Q43YJ90X","A2MX0EF342FY3P","3H6W48L9F4B5OEOMH57RM53Z4H1WP0","","","img/flower3.png","74","734.6000000238419","1","1","1","1,0.5,0.5,0.5,1,0.5,0.5,0.5,1",""
"null","","html-keyboard-response","386","589761","0.0-386.0","3QXNC7EIPJHTAL5OYBNBI3Q43YJ90X","A2MX0EF342FY3P","3H6W48L9F4B5OEOMH57RM53Z4H1WP0","","","<img src=""img/flower3.png"" style=""width:200px; border:14px solid green;"">","null","","","","","",""
"755.3999999761581","","image-keyboard-response","387","590519","0.0-387.0","3QXNC7EIPJHTAL5OYBNBI3Q43YJ90X","A2MX0EF342FY3P","3H6W48L9F4B5OEOMH57RM53Z4H1WP0","","","img/flower3.png","74","756.9000000357628","1","1","1","1,0.5,0.5,0.5,1,0.5,0.5,0.5,1",""
"null","","html-keyboard-response","388","590829","0.0-388.0","3QXNC7EIPJHTAL5OYBNBI3Q43YJ90X","A2MX0EF342FY3P","3H6W48L9F4B5OEOMH57RM53Z4H1WP0","","","<img src=""img/flower3.png"" style=""width:200px; border:14px solid green;"">","null","","","","","",""
"768.5","","image-keyboard-response","389","591599","0.0-389.0","3QXNC7EIPJHTAL5OYBNBI3Q43YJ90X","A2MX0EF342FY3P","3H6W48L9F4B5OEOMH57RM53Z4H1WP0","","","img/flower5.png","75","769.8000000119209","2","1","2","1,0.5,0.5,0.5,1,0.5,0.5,0.5,1",""
"null","","html-keyboard-response","390","591904","0.0-390.0","3QXNC7EIPJHTAL5OYBNBI3Q43YJ90X","A2MX0EF342FY3P","3H6W48L9F4B5OEOMH57RM53Z4H1WP0","","","<img src=""img/flower5.png"" style=""width:200px; border:14px solid green;"">","null","","","","","",""
"756","","image-keyboard-response","391","592661","0.0-391.0","3QXNC7EIPJHTAL5OYBNBI3Q43YJ90X","A2MX0EF342FY3P","3H6W48L9F4B5OEOMH57RM53Z4H1WP0","","","img/flower1.png","76","757","3","1","3","1,0.5,0.5,0.5,1,0.5,0.5,0.5,1",""
"null","","html-keyboard-response","392","592972","0.0-392.0","3QXNC7EIPJHTAL5OYBNBI3Q43YJ90X","A2MX0EF342FY3P","3H6W48L9F4B5OEOMH57RM53Z4H1WP0","","","<img src=""img/flower1.png"" style=""width:200px; border:14px solid green;"">","null","","","","","",""
"791.3999999761581","","image-keyboard-response","393","593765","0.0-393.0","3QXNC7EIPJHTAL5OYBNBI3Q43YJ90X","A2MX0EF342FY3P","3H6W48L9F4B5OEOMH57RM53Z4H1WP0","","","img/flower3.png","74","792.5999999642372","1","1","1","1,0.5,0.5,0.5,1,0.5,0.5,0.5,1",""
"null","","html-keyboard-response","394","594078","0.0-394.0","3QXNC7EIPJHTAL5OYBNBI3Q43YJ90X","A2MX0EF342FY3P","3H6W48L9F4B5OEOMH57RM53Z4H1WP0","","","<img src=""img/flower3.png"" style=""width:200px; border:14px solid green;"">","null","","","","","",""
"734.7999999523163","","image-keyboard-response","395","594815","0.0-395.0","3QXNC7EIPJHTAL5OYBNBI3Q43YJ90X","A2MX0EF342FY3P","3H6W48L9F4B5OEOMH57RM53Z4H1WP0","","","img/flower5.png","75","736.3999999761581","2","1","2","1,0.5,0.5,0.5,1,0.5,0.5,0.5,1",""
"null","","html-keyboard-response","396","595133","0.0-396.0","3QXNC7EIPJHTAL5OYBNBI3Q43YJ90X","A2MX0EF342FY3P","3H6W48L9F4B5OEOMH57RM53Z4H1WP0","","","<img src=""img/flower5.png"" style=""width:200px; border:14px solid green;"">","null","","","","","",""
"703.6999999880791","","image-keyboard-response","397","595838","0.0-397.0","3QXNC7EIPJHTAL5OYBNBI3Q43YJ90X","A2MX0EF342FY3P","3H6W48L9F4B5OEOMH57RM53Z4H1WP0","","","img/flower1.png","76","704.3000000119209","3","1","3","1,0.5,0.5,0.5,1,0.5,0.5,0.5,1",""
"null","","html-keyboard-response","398","596142","0.0-398.0","3QXNC7EIPJHTAL5OYBNBI3Q43YJ90X","A2MX0EF342FY3P","3H6W48L9F4B5OEOMH57RM53Z4H1WP0","","","<img src=""img/flower1.png"" style=""width:200px; border:14px solid green;"">","null","","","","","",""
"903.3000000119209","","image-keyboard-response","399","597047","0.0-399.0","3QXNC7EIPJHTAL5OYBNBI3Q43YJ90X","A2MX0EF342FY3P","3H6W48L9F4B5OEOMH57RM53Z4H1WP0","","","img/flower5.png","75","904.3999999761581","2","1","2","1,0.5,0.5,0.5,1,0.5,0.5,0.5,1",""
"null","","html-keyboard-response","400","597361","0.0-400.0","3QXNC7EIPJHTAL5OYBNBI3Q43YJ90X","A2MX0EF342FY3P","3H6W48L9F4B5OEOMH57RM53Z4H1WP0","","","<img src=""img/flower5.png"" style=""width:200px; border:14px solid green;"">","null","","","","","",""
"907.3000000119209","","image-keyboard-response","401","598271","0.0-401.0","3QXNC7EIPJHTAL5OYBNBI3Q43YJ90X","A2MX0EF342FY3P","3H6W48L9F4B5OEOMH57RM53Z4H1WP0","","","img/flower1.png","76","908.8000000119209","3","1","3","1,0.5,0.5,0.5,1,0.5,0.5,0.5,1",""
"null","","html-keyboard-response","402","598578","0.0-402.0","3QXNC7EIPJHTAL5OYBNBI3Q43YJ90X","A2MX0EF342FY3P","3H6W48L9F4B5OEOMH57RM53Z4H1WP0","","","<img src=""img/flower1.png"" style=""width:200px; border:14px solid green;"">","null","","","","","",""
"763","","image-keyboard-response","403","599343","0.0-403.0","3QXNC7EIPJHTAL5OYBNBI3Q43YJ90X","A2MX0EF342FY3P","3H6W48L9F4B5OEOMH57RM53Z4H1WP0","","","img/flower1.png","76","764.6000000238419","3","1","3","1,0.5,0.5,0.5,1,0.5,0.5,0.5,1",""
"null","","html-keyboard-response","404","599653","0.0-404.0","3QXNC7EIPJHTAL5OYBNBI3Q43YJ90X","A2MX0EF342FY3P","3H6W48L9F4B5OEOMH57RM53Z4H1WP0","","","<img src=""img/flower1.png"" style=""width:200px; border:14px solid green;"">","null","","","","","",""
"815.3999999761581","","image-keyboard-response","405","600471","0.0-405.0","3QXNC7EIPJHTAL5OYBNBI3Q43YJ90X","A2MX0EF342FY3P","3H6W48L9F4B5OEOMH57RM53Z4H1WP0","","","img/flower5.png","75","816.9000000357628","2","1","2","1,0.5,0.5,0.5,1,0.5,0.5,0.5,1",""
