"success","trial_type","trial_index","time_elapsed","internal_node_id","assignmentID","mturkID","hitID","view_history","rt","stimulus","key_press","reactionTime","a","r","s","cond","reward_cond","reward_cond_actual","reward_matrix_idx","responses"
"true","fullscreen","0","8201","0.0-0.0","","","","","","","","","","","","","","","",""
"","instructions","1","15445","0.0-1.0","","","","[{""page_index"":0,""viewing_time"":846.1000000238419},{""page_index"":1,""viewing_time"":695.3999999761581},{""page_index"":2,""viewing_time"":528.5},{""page_index"":3,""viewing_time"":423.89999997615814},{""page_index"":4,""viewing_time"":991.6000000238419},{""page_index"":5,""viewing_time"":1024.199999988079},{""page_index"":6,""viewing_time"":1088},{""page_index"":7,""viewing_time"":1643.6000000238419}]","7242.699999988079","","","","","","","","","","",""
"","image-keyboard-response","2","16747","0.0-2.0","","","","","1298.800000011921","img/flower1.png","74","1300.699999988079","1","0","2","1","1,0.333,0.333,0.333,1,0.333,0.333,0.333,1","1,0.333,0.333,0.333,1,0.333,0.333,0.333,1","1",""
"","html-keyboard-response","3","17050","0.0-3.0","","","","","null","<img src=""img/flower1.png"" style=""width:200px;border:14px solid red;"">","null","","","","","","","","",""
"","image-keyboard-response","4","17064","0.0-4.0","","","","","12.400000035762787","img/flower1.png","74","13.600000023841858","1","1","2","1","1,0.333,0.333,0.333,1,0.333,0.333,0.333,1","1,0.333,0.333,0.333,1,0.333,0.333,0.333,1","1",""
"","html-keyboard-response","5","17369","0.0-5.0","","","","","null","<img src=""img/flower1.png"" style=""width:200px; border:14px solid green;"">","null","","","","","","","","",""
"","image-keyboard-response","6","17568","0.0-6.0","","","","","197.60000002384186","img/flower3.png","76","198.9000000357628","3","0","1","1","1,0.333,0.333,0.333,1,0.333,0.333,0.333,1","1,0.333,0.333,0.333,1,0.333,0.333,0.333,1","1",""
"","html-keyboard-response","7","17874","0.0-7.0","","","","","null","<img src=""img/flower3.png"" style=""width:200px;border:14px solid red;"">","null","","","","","","","","",""
"","image-keyboard-response","8","17946","0.0-8.0","","","","","70.59999996423721","img/flower1.png","74","72.39999997615814","1","1","2","1","1,0.333,0.333,0.333,1,0.333,0.333,0.333,1","1,0.333,0.333,0.333,1,0.333,0.333,0.333,1","1",""
"","html-keyboard-response","9","18249","0.0-9.0","","","","","null","<img src=""img/flower1.png"" style=""width:200px; border:14px solid green;"">","null","","","","","","","","",""
"","image-keyboard-response","10","18350","0.0-10.0","","","","","97.60000002384186","img/flower4.png","76","99.60000002384186","3","1","3","1","1,0.333,0.333,0.333,1,0.333,0.333,0.333,1","1,0.333,0.333,0.333,1,0.333,0.333,0.333,1","1",""
"","html-keyboard-response","11","18657","0.0-11.0","","","","","null","<img src=""img/flower4.png"" style=""width:200px; border:14px solid green;"">","null","","","","","","","","",""
"","image-keyboard-response","12","18766","0.0-12.0","","","","","107.30000001192093","img/flower1.png","74","108.69999998807907","1","0","2","1","1,0.333,0.333,0.333,1,0.333,0.333,0.333,1","1,0.333,0.333,0.333,1,0.333,0.333,0.333,1","1",""
"","html-keyboard-response","13","19073","0.0-13.0","","","","","null","<img src=""img/flower1.png"" style=""width:200px;border:14px solid red;"">","null","","","","","","","","",""
"","image-keyboard-response","14","19123","0.0-14.0","","","","","48.89999997615814","img/flower4.png","76","50.09999996423721","3","1","3","1","1,0.333,0.333,0.333,1,0.333,0.333,0.333,1","1,0.333,0.333,0.333,1,0.333,0.333,0.333,1","1",""
"","html-keyboard-response","15","19425","0.0-15.0","","","","","null","<img src=""img/flower4.png"" style=""width:200px; border:14px solid green;"">","null","","","","","","","","",""
"","image-keyboard-response","16","19441","0.0-16.0","","","","","14.600000023841858","img/flower4.png","76","15.699999988079071","3","1","3","1","1,0.333,0.333,0.333,1,0.333,0.333,0.333,1","1,0.333,0.333,0.333,1,0.333,0.333,0.333,1","1",""
"","html-keyboard-response","17","19745","0.0-17.0","","","","","null","<img src=""img/flower4.png"" style=""width:200px; border:14px solid green;"">","null","","","","","","","","",""
"","image-keyboard-response","18","19810","0.0-18.0","","","","","63.80000001192093","img/flower1.png","75","65","2","1","2","1","1,0.333,0.333,0.333,1,0.333,0.333,0.333,1","1,0.333,0.333,0.333,1,0.333,0.333,0.333,1","1",""
"","html-keyboard-response","19","20113","0.0-19.0","","","","","null","<img src=""img/flower1.png"" style=""width:200px; border:14px solid green;"">","null","","","","","","","","",""
"","image-keyboard-response","20","20128","0.0-20.0","","","","","12.800000011920929","img/flower4.png","74","14.100000023841858","1","1","3","1","1,0.333,0.333,0.333,1,0.333,0.333,0.333,1","1,0.333,0.333,0.333,1,0.333,0.333,0.333,1","1",""
"","html-keyboard-response","21","20433","0.0-21.0","","","","","null","<img src=""img/flower4.png"" style=""width:200px; border:14px solid green;"">","null","","","","","","","","",""
"","image-keyboard-response","22","20497","0.0-22.0","","","","","62.80000001192093","img/flower4.png","76","64.09999996423721","3","1","3","1","1,0.333,0.333,0.333,1,0.333,0.333,0.333,1","1,0.333,0.333,0.333,1,0.333,0.333,0.333,1","1",""
"","html-keyboard-response","23","20801","0.0-23.0","","","","","null","<img src=""img/flower4.png"" style=""width:200px; border:14px solid green;"">","null","","","","","","","","",""
"","image-keyboard-response","24","20870","0.0-24.0","","","","","67.70000004768372","img/flower1.png","74","68.90000003576279","1","0","2","1","1,0.333,0.333,0.333,1,0.333,0.333,0.333,1","1,0.333,0.333,0.333,1,0.333,0.333,0.333,1","1",""
"","html-keyboard-response","25","21177","0.0-25.0","","","","","null","<img src=""img/flower1.png"" style=""width:200px;border:14px solid red;"">","null","","","","","","","","",""
"","image-keyboard-response","26","21318","0.0-26.0","","","","","139.39999997615814","img/flower4.png","75","140.70000004768372","2","1","3","1","1,0.333,0.333,0.333,1,0.333,0.333,0.333,1","1,0.333,0.333,0.333,1,0.333,0.333,0.333,1","1",""
"","html-keyboard-response","27","21625","0.0-27.0","","","","","null","<img src=""img/flower4.png"" style=""width:200px; border:14px solid green;"">","null","","","","","","","","",""
"","image-keyboard-response","28","21679","0.0-28.0","","","","","52.69999998807907","img/flower3.png","74","53.90000003576279","1","1","1","1","1,0.333,0.333,0.333,1,0.333,0.333,0.333,1","1,0.333,0.333,0.333,1,0.333,0.333,0.333,1","1",""
"","html-keyboard-response","29","21985","0.0-29.0","","","","","null","<img src=""img/flower3.png"" style=""width:200px; border:14px solid green;"">","null","","","","","","","","",""
"","image-keyboard-response","30","22081","0.0-30.0","","","","","95","img/flower1.png","76","96.19999998807907","3","0","2","1","1,0.333,0.333,0.333,1,0.333,0.333,0.333,1","1,0.333,0.333,0.333,1,0.333,0.333,0.333,1","1",""
"","html-keyboard-response","31","22385","0.0-31.0","","","","","null","<img src=""img/flower1.png"" style=""width:200px;border:14px solid red;"">","null","","","","","","","","",""
"","image-keyboard-response","32","22449","0.0-32.0","","","","","62.69999998807907","img/flower4.png","74","63.80000001192093","1","0","3","1","1,0.333,0.333,0.333,1,0.333,0.333,0.333,1","1,0.333,0.333,0.333,1,0.333,0.333,0.333,1","1",""
"","html-keyboard-response","33","22752","0.0-33.0","","","","","null","<img src=""img/flower4.png"" style=""width:200px;border:14px solid red;"">","null","","","","","","","","",""
"","image-keyboard-response","34","22889","0.0-34.0","","","","","135.19999998807907","img/flower1.png","75","136.29999995231628","2","1","2","1","1,0.333,0.333,0.333,1,0.333,0.333,0.333,1","1,0.333,0.333,0.333,1,0.333,0.333,0.333,1","1",""
"","html-keyboard-response","35","23194","0.0-35.0","","","","","null","<img src=""img/flower1.png"" style=""width:200px; border:14px solid green;"">","null","","","","","","","","",""
"","image-keyboard-response","36","23263","0.0-36.0","","","","","67.60000002384186","img/flower3.png","74","68.80000001192093","1","1","1","1","1,0.333,0.333,0.333,1,0.333,0.333,0.333,1","1,0.333,0.333,0.333,1,0.333,0.333,0.333,1","1",""
"","html-keyboard-response","37","23569","0.0-37.0","","","","","null","<img src=""img/flower3.png"" style=""width:200px; border:14px solid green;"">","null","","","","","","","","",""
"","image-keyboard-response","38","23630","0.0-38.0","","","","","59.5","img/flower1.png","76","60.69999998807907","3","0","2","1","1,0.333,0.333,0.333,1,0.333,0.333,0.333,1","1,0.333,0.333,0.333,1,0.333,0.333,0.333,1","1",""
"","html-keyboard-response","39","23937","0.0-39.0","","","","","null","<img src=""img/flower1.png"" style=""width:200px;border:14px solid red;"">","null","","","","","","","","",""
"","image-keyboard-response","40","23957","0.0-40.0","","","","","18.80000001192093","img/flower4.png","75","20.099999964237213","2","1","3","1","1,0.333,0.333,0.333,1,0.333,0.333,0.333,1","1,0.333,0.333,0.333,1,0.333,0.333,0.333,1","1",""
"","html-keyboard-response","41","24265","0.0-41.0","","","","","null","<img src=""img/flower4.png"" style=""width:200px; border:14px solid green;"">","null","","","","","","","","",""
"","image-keyboard-response","42","24382","0.0-42.0","","","","","116.10000002384186","img/flower3.png","76","117.30000001192093","3","1","1","1","1,0.333,0.333,0.333,1,0.333,0.333,0.333,1","1,0.333,0.333,0.333,1,0.333,0.333,0.333,1","1",""
"","html-keyboard-response","43","24689","0.0-43.0","","","","","null","<img src=""img/flower3.png"" style=""width:200px; border:14px solid green;"">","null","","","","","","","","",""
"","image-keyboard-response","44","24708","0.0-44.0","","","","","17.100000023841858","img/flower3.png","74","18.19999998807907","1","1","1","1","1,0.333,0.333,0.333,1,0.333,0.333,0.333,1","1,0.333,0.333,0.333,1,0.333,0.333,0.333,1","1",""
"","html-keyboard-response","45","25018","0.0-45.0","","","","","null","<img src=""img/flower3.png"" style=""width:200px; border:14px solid green;"">","null","","","","","","","","",""
"","image-keyboard-response","46","25105","0.0-46.0","","","","","85.29999995231628","img/flower3.png","76","86.69999998807907","3","0","1","1","1,0.333,0.333,0.333,1,0.333,0.333,0.333,1","1,0.333,0.333,0.333,1,0.333,0.333,0.333,1","1",""
"","html-keyboard-response","47","25409","0.0-47.0","","","","","null","<img src=""img/flower3.png"" style=""width:200px;border:14px solid red;"">","null","","","","","","","","",""
"","image-keyboard-response","48","25483","0.0-48.0","","","","","73.20000004768372","img/flower1.png","74","74.40000003576279","1","0","2","1","1,0.333,0.333,0.333,1,0.333,0.333,0.333,1","1,0.333,0.333,0.333,1,0.333,0.333,0.333,1","1",""
"","html-keyboard-response","49","25785","0.0-49.0","","","","","null","<img src=""img/flower1.png"" style=""width:200px;border:14px solid red;"">","null","","","","","","","","",""
"","image-keyboard-response","50","25876","0.0-50.0","","","","","89.40000003576279","img/flower1.png","76","90.5","3","0","2","1","1,0.333,0.333,0.333,1,0.333,0.333,0.333,1","1,0.333,0.333,0.333,1,0.333,0.333,0.333,1","1",""
"","html-keyboard-response","51","26185","0.0-51.0","","","","","null","<img src=""img/flower1.png"" style=""width:200px;border:14px solid red;"">","null","","","","","","","","",""
"","image-keyboard-response","52","26224","0.0-52.0","","","","","38","img/flower3.png","74","39.10000002384186","1","1","1","1","1,0.333,0.333,0.333,1,0.333,0.333,0.333,1","1,0.333,0.333,0.333,1,0.333,0.333,0.333,1","1",""
"","html-keyboard-response","53","26529","0.0-53.0","","","","","null","<img src=""img/flower3.png"" style=""width:200px; border:14px solid green;"">","null","","","","","","","","",""
"","image-keyboard-response","54","26598","0.0-54.0","","","","","67.90000003576279","img/flower4.png","76","69.10000002384186","3","1","3","1","1,0.333,0.333,0.333,1,0.333,0.333,0.333,1","1,0.333,0.333,0.333,1,0.333,0.333,0.333,1","1",""
"","html-keyboard-response","55","26905","0.0-55.0","","","","","null","<img src=""img/flower4.png"" style=""width:200px; border:14px solid green;"">","null","","","","","","","","",""
"","image-keyboard-response","56","26917","0.0-56.0","","","","","10.399999976158142","img/flower4.png","75","11.5","2","0","3","1","1,0.333,0.333,0.333,1,0.333,0.333,0.333,1","1,0.333,0.333,0.333,1,0.333,0.333,0.333,1","1",""
"","html-keyboard-response","57","27225","0.0-57.0","","","","","null","<img src=""img/flower4.png"" style=""width:200px;border:14px solid red;"">","null","","","","","","","","",""
"","image-keyboard-response","58","27342","0.0-58.0","","","","","115.79999995231628","img/flower3.png","74","116.89999997615814","1","1","1","1","1,0.333,0.333,0.333,1,0.333,0.333,0.333,1","1,0.333,0.333,0.333,1,0.333,0.333,0.333,1","1",""
"","html-keyboard-response","59","27649","0.0-59.0","","","","","null","<img src=""img/flower3.png"" style=""width:200px; border:14px solid green;"">","null","","","","","","","","",""
"","image-keyboard-response","60","27706","0.0-60.0","","","","","55.80000001192093","img/flower1.png","76","57.19999998807907","3","0","2","1","1,0.333,0.333,0.333,1,0.333,0.333,0.333,1","1,0.333,0.333,0.333,1,0.333,0.333,0.333,1","1",""
"","html-keyboard-response","61","28010","0.0-61.0","","","","","null","<img src=""img/flower1.png"" style=""width:200px;border:14px solid red;"">","null","","","","","","","","",""
"","image-keyboard-response","62","28077","0.0-62.0","","","","","65.30000001192093","img/flower1.png","74","66.80000001192093","1","1","2","1","1,0.333,0.333,0.333,1,0.333,0.333,0.333,1","1,0.333,0.333,0.333,1,0.333,0.333,0.333,1","1",""
"","html-keyboard-response","63","28385","0.0-63.0","","","","","null","<img src=""img/flower1.png"" style=""width:200px; border:14px solid green;"">","null","","","","","","","","",""
"","image-keyboard-response","64","28458","0.0-64.0","","","","","71.90000003576279","img/flower1.png","76","73.10000002384186","3","0","2","1","1,0.333,0.333,0.333,1,0.333,0.333,0.333,1","1,0.333,0.333,0.333,1,0.333,0.333,0.333,1","1",""
"","html-keyboard-response","65","28761","0.0-65.0","","","","","null","<img src=""img/flower1.png"" style=""width:200px;border:14px solid red;"">","null","","","","","","","","",""
"","image-keyboard-response","66","28810","0.0-66.0","","","","","47.30000001192093","img/flower1.png","74","48.40000003576279","1","1","2","1","1,0.333,0.333,0.333,1,0.333,0.333,0.333,1","1,0.333,0.333,0.333,1,0.333,0.333,0.333,1","1",""
"","html-keyboard-response","67","29114","0.0-67.0","","","","","null","<img src=""img/flower1.png"" style=""width:200px; border:14px solid green;"">","null","","","","","","","","",""
"","image-keyboard-response","68","29228","0.0-68.0","","","","","112.59999996423721","img/flower1.png","74","113.69999998807907","1","0","2","1","1,0.333,0.333,0.333,1,0.333,0.333,0.333,1","1,0.333,0.333,0.333,1,0.333,0.333,0.333,1","1",""
"","html-keyboard-response","69","29530","0.0-69.0","","","","","null","<img src=""img/flower1.png"" style=""width:200px;border:14px solid red;"">","null","","","","","","","","",""
"","image-keyboard-response","70","29617","0.0-70.0","","","","","85.29999995231628","img/flower3.png","76","86.40000003576279","3","1","1","1","1,0.333,0.333,0.333,1,0.333,0.333,0.333,1","1,0.333,0.333,0.333,1,0.333,0.333,0.333,1","1",""
"","html-keyboard-response","71","29921","0.0-71.0","","","","","null","<img src=""img/flower3.png"" style=""width:200px; border:14px solid green;"">","null","","","","","","","","",""
"","image-keyboard-response","72","29929","0.0-72.0","","","","","6.400000035762787","img/flower3.png","75","7.5","2","0","1","1","1,0.333,0.333,0.333,1,0.333,0.333,0.333,1","1,0.333,0.333,0.333,1,0.333,0.333,0.333,1","1",""
"","html-keyboard-response","73","30233","0.0-73.0","","","","","null","<img src=""img/flower3.png"" style=""width:200px;border:14px solid red;"">","null","","","","","","","","",""
"","image-keyboard-response","74","30293","0.0-74.0","","","","","58.19999998807907","img/flower3.png","74","59.39999997615814","1","1","1","1","1,0.333,0.333,0.333,1,0.333,0.333,0.333,1","1,0.333,0.333,0.333,1,0.333,0.333,0.333,1","1",""
"","html-keyboard-response","75","30596","0.0-75.0","","","","","null","<img src=""img/flower3.png"" style=""width:200px; border:14px solid green;"">","null","","","","","","","","",""
"","image-keyboard-response","76","30687","0.0-76.0","","","","","89.30000001192093","img/flower1.png","76","90.40000003576279","3","1","2","1","1,0.333,0.333,0.333,1,0.333,0.333,0.333,1","1,0.333,0.333,0.333,1,0.333,0.333,0.333,1","1",""
"","html-keyboard-response","77","30993","0.0-77.0","","","","","null","<img src=""img/flower1.png"" style=""width:200px; border:14px solid green;"">","null","","","","","","","","",""
"","image-keyboard-response","78","31096","0.0-78.0","","","","","100.80000001192093","img/flower1.png","74","102","1","1","2","1","1,0.333,0.333,0.333,1,0.333,0.333,0.333,1","1,0.333,0.333,0.333,1,0.333,0.333,0.333,1","1",""
"","html-keyboard-response","79","31402","0.0-79.0","","","","","null","<img src=""img/flower1.png"" style=""width:200px; border:14px solid green;"">","null","","","","","","","","",""
"","image-keyboard-response","80","31496","0.0-80.0","","","","","92.60000002384186","img/flower3.png","76","94","3","0","1","1","1,0.333,0.333,0.333,1,0.333,0.333,0.333,1","1,0.333,0.333,0.333,1,0.333,0.333,0.333,1","1",""
"","html-keyboard-response","81","31800","0.0-81.0","","","","","null","<img src=""img/flower3.png"" style=""width:200px;border:14px solid red;"">","null","","","","","","","","",""
"","image-keyboard-response","82","31875","0.0-82.0","","","","","72.69999998807907","img/flower3.png","74","74","1","1","1","1","1,0.333,0.333,0.333,1,0.333,0.333,0.333,1","1,0.333,0.333,0.333,1,0.333,0.333,0.333,1","1",""
"","html-keyboard-response","83","32177","0.0-83.0","","","","","null","<img src=""img/flower3.png"" style=""width:200px; border:14px solid green;"">","null","","","","","","","","",""
"","image-keyboard-response","84","32253","0.0-84.0","","","","","74","img/flower4.png","74","75.30000001192093","1","0","3","1","1,0.333,0.333,0.333,1,0.333,0.333,0.333,1","1,0.333,0.333,0.333,1,0.333,0.333,0.333,1","1",""
"","html-keyboard-response","85","32554","0.0-85.0","","","","","null","<img src=""img/flower4.png"" style=""width:200px;border:14px solid red;"">","null","","","","","","","","",""
"","image-keyboard-response","86","32687","0.0-86.0","","","","","131","img/flower4.png","75","132.0999999642372","2","0","3","1","1,0.333,0.333,0.333,1,0.333,0.333,0.333,1","1,0.333,0.333,0.333,1,0.333,0.333,0.333,1","1",""
"","html-keyboard-response","87","32993","0.0-87.0","","","","","null","<img src=""img/flower4.png"" style=""width:200px;border:14px solid red;"">","null","","","","","","","","",""
"","image-keyboard-response","88","33016","0.0-88.0","","","","","21.19999998807907","img/flower4.png","75","22.30000001192093","2","0","3","1","1,0.333,0.333,0.333,1,0.333,0.333,0.333,1","1,0.333,0.333,0.333,1,0.333,0.333,0.333,1","1",""
"","html-keyboard-response","89","33321","0.0-89.0","","","","","null","<img src=""img/flower4.png"" style=""width:200px;border:14px solid red;"">","null","","","","","","","","",""
"","image-keyboard-response","90","33339","0.0-90.0","","","","","16.19999998807907","img/flower4.png","75","17.19999998807907","2","0","3","1","1,0.333,0.333,0.333,1,0.333,0.333,0.333,1","1,0.333,0.333,0.333,1,0.333,0.333,0.333,1","1",""
"","html-keyboard-response","91","33642","0.0-91.0","","","","","null","<img src=""img/flower4.png"" style=""width:200px;border:14px solid red;"">","null","","","","","","","","",""
"","image-keyboard-response","92","33773","0.0-92.0","","","","","129","img/flower3.png","74","130.0999999642372","1","1","1","1","1,0.333,0.333,0.333,1,0.333,0.333,0.333,1","1,0.333,0.333,0.333,1,0.333,0.333,0.333,1","1",""
"","html-keyboard-response","93","34082","0.0-93.0","","","","","null","<img src=""img/flower3.png"" style=""width:200px; border:14px solid green;"">","null","","","","","","","","",""
"","image-keyboard-response","94","34199","0.0-94.0","","","","","116.10000002384186","img/flower3.png","76","117.5","3","0","1","1","1,0.333,0.333,0.333,1,0.333,0.333,0.333,1","1,0.333,0.333,0.333,1,0.333,0.333,0.333,1","1",""
"","html-keyboard-response","95","34505","0.0-95.0","","","","","null","<img src=""img/flower3.png"" style=""width:200px;border:14px solid red;"">","null","","","","","","","","",""
"","image-keyboard-response","96","34648","0.0-96.0","","","","","141.5","img/flower3.png","74","142.80000001192093","1","1","1","1","1,0.333,0.333,0.333,1,0.333,0.333,0.333,1","1,0.333,0.333,0.333,1,0.333,0.333,0.333,1","1",""
"","html-keyboard-response","97","34953","0.0-97.0","","","","","null","<img src=""img/flower3.png"" style=""width:200px; border:14px solid green;"">","null","","","","","","","","",""
"","image-keyboard-response","98","35040","0.0-98.0","","","","","85.59999996423721","img/flower3.png","76","86.80000001192093","3","0","1","1","1,0.333,0.333,0.333,1,0.333,0.333,0.333,1","1,0.333,0.333,0.333,1,0.333,0.333,0.333,1","1",""
"","html-keyboard-response","99","35345","0.0-99.0","","","","","null","<img src=""img/flower3.png"" style=""width:200px;border:14px solid red;"">","null","","","","","","","","",""
"","image-keyboard-response","100","35455","0.0-100.0","","","","","108.19999998807907","img/flower4.png","74","109.30000001192093","1","1","3","1","1,0.333,0.333,0.333,1,0.333,0.333,0.333,1","1,0.333,0.333,0.333,1,0.333,0.333,0.333,1","1",""
"","html-keyboard-response","101","35761","0.0-101.0","","","","","null","<img src=""img/flower4.png"" style=""width:200px; border:14px solid green;"">","null","","","","","","","","",""
"","image-keyboard-response","102","35904","0.0-102.0","","","","","140.69999998807907","img/flower1.png","76","142.30000001192093","3","1","2","1","1,0.333,0.333,0.333,1,0.333,0.333,0.333,1","1,0.333,0.333,0.333,1,0.333,0.333,0.333,1","1",""
"","html-keyboard-response","103","36209","0.0-103.0","","","","","null","<img src=""img/flower1.png"" style=""width:200px; border:14px solid green;"">","null","","","","","","","","",""
"","image-keyboard-response","104","36299","0.0-104.0","","","","","88.70000004768372","img/flower4.png","74","89.90000003576279","1","1","3","1","1,0.333,0.333,0.333,1,0.333,0.333,0.333,1","1,0.333,0.333,0.333,1,0.333,0.333,0.333,1","1",""
"","html-keyboard-response","105","36601","0.0-105.0","","","","","null","<img src=""img/flower4.png"" style=""width:200px; border:14px solid green;"">","null","","","","","","","","",""
"","image-keyboard-response","106","36615","0.0-106.0","","","","","12.900000035762787","img/flower3.png","74","13.900000035762787","1","1","1","1","1,0.333,0.333,0.333,1,0.333,0.333,0.333,1","1,0.333,0.333,0.333,1,0.333,0.333,0.333,1","1",""
"","html-keyboard-response","107","36921","0.0-107.0","","","","","null","<img src=""img/flower3.png"" style=""width:200px; border:14px solid green;"">","null","","","","","","","","",""
"","image-keyboard-response","108","37020","0.0-108.0","","","","","97.19999998807907","img/flower3.png","76","98.39999997615814","3","0","1","1","1,0.333,0.333,0.333,1,0.333,0.333,0.333,1","1,0.333,0.333,0.333,1,0.333,0.333,0.333,1","1",""
"","html-keyboard-response","109","37325","0.0-109.0","","","","","null","<img src=""img/flower3.png"" style=""width:200px;border:14px solid red;"">","null","","","","","","","","",""
"","image-keyboard-response","110","37331","0.0-110.0","","","","","4.199999988079071","img/flower1.png","76","5.199999988079071","3","1","2","1","1,0.333,0.333,0.333,1,0.333,0.333,0.333,1","1,0.333,0.333,0.333,1,0.333,0.333,0.333,1","1",""
"","html-keyboard-response","111","37633","0.0-111.0","","","","","null","<img src=""img/flower1.png"" style=""width:200px; border:14px solid green;"">","null","","","","","","","","",""
"","image-keyboard-response","112","37644","0.0-112.0","","","","","8.5","img/flower4.png","76","10.399999976158142","3","1","3","1","1,0.333,0.333,0.333,1,0.333,0.333,0.333,1","1,0.333,0.333,0.333,1,0.333,0.333,0.333,1","1",""
"","html-keyboard-response","113","37953","0.0-113.0","","","","","null","<img src=""img/flower4.png"" style=""width:200px; border:14px solid green;"">","null","","","","","","","","",""
"","image-keyboard-response","114","38021","0.0-114.0","","","","","66.10000002384186","img/flower3.png","74","67.5","1","1","1","1","1,0.333,0.333,0.333,1,0.333,0.333,0.333,1","1,0.333,0.333,0.333,1,0.333,0.333,0.333,1","1",""
"","html-keyboard-response","115","38329","0.0-115.0","","","","","null","<img src=""img/flower3.png"" style=""width:200px; border:14px solid green;"">","null","","","","","","","","",""
"","image-keyboard-response","116","38611","0.0-116.0","","","","","280.80000001192093","img/flower4.png","74","281.9000000357628","1","1","3","1","1,0.333,0.333,0.333,1,0.333,0.333,0.333,1","1,0.333,0.333,0.333,1,0.333,0.333,0.333,1","1",""
"","html-keyboard-response","117","38920","0.0-117.0","","","","","null","<img src=""img/flower4.png"" style=""width:200px; border:14px solid green;"">","null","","","","","","","","",""
"","image-keyboard-response","118","38940","0.0-118.0","","","","","18.799999952316284","img/flower1.png","74","20.19999998807907","1","1","2","1","1,0.333,0.333,0.333,1,0.333,0.333,0.333,1","1,0.333,0.333,0.333,1,0.333,0.333,0.333,1","1",""
"","html-keyboard-response","119","39249","0.0-119.0","","","","","null","<img src=""img/flower1.png"" style=""width:200px; border:14px solid green;"">","null","","","","","","","","",""
"","image-keyboard-response","120","39434","0.0-120.0","","","","","183.69999998807907","img/flower3.png","75","184.80000001192093","2","0","1","1","1,0.333,0.333,0.333,1,0.333,0.333,0.333,1","1,0.333,0.333,0.333,1,0.333,0.333,0.333,1","1",""
"","html-keyboard-response","121","39737","0.0-121.0","","","","","null","<img src=""img/flower3.png"" style=""width:200px;border:14px solid red;"">","null","","","","","","","","",""
"","image-keyboard-response","122","39824","0.0-122.0","","","","","84.69999998807907","img/flower4.png","74","85.89999997615814","1","0","3","1","1,0.333,0.333,0.333,1,0.333,0.333,0.333,1","1,0.333,0.333,0.333,1,0.333,0.333,0.333,1","1",""
"","html-keyboard-response","123","40129","0.0-123.0","","","","","null","<img src=""img/flower4.png"" style=""width:200px;border:14px solid red;"">","null","","","","","","","","",""
"","image-keyboard-response","124","40218","0.0-124.0","","","","","87.60000002384186","img/flower1.png","76","89","3","0","2","1","1,0.333,0.333,0.333,1,0.333,0.333,0.333,1","1,0.333,0.333,0.333,1,0.333,0.333,0.333,1","1",""
"","html-keyboard-response","125","40521","0.0-125.0","","","","","null","<img src=""img/flower1.png"" style=""width:200px;border:14px solid red;"">","null","","","","","","","","",""
"","image-keyboard-response","126","40616","0.0-126.0","","","","","92.80000001192093","img/flower4.png","74","94","1","1","3","1","1,0.333,0.333,0.333,1,0.333,0.333,0.333,1","1,0.333,0.333,0.333,1,0.333,0.333,0.333,1","1",""
"","html-keyboard-response","127","40921","0.0-127.0","","","","","null","<img src=""img/flower4.png"" style=""width:200px; border:14px solid green;"">","null","","","","","","","","",""
"","image-keyboard-response","128","41013","0.0-128.0","","","","","89.80000001192093","img/flower4.png","75","91.29999995231628","2","1","3","1","1,0.333,0.333,0.333,1,0.333,0.333,0.333,1","1,0.333,0.333,0.333,1,0.333,0.333,0.333,1","1",""
"","html-keyboard-response","129","41320","0.0-129.0","","","","","null","<img src=""img/flower4.png"" style=""width:200px; border:14px solid green;"">","null","","","","","","","","",""
"","image-keyboard-response","130","41326","0.0-130.0","","","","","3.600000023841858","img/flower1.png","75","5.800000011920929","2","1","2","1","1,0.333,0.333,0.333,1,0.333,0.333,0.333,1","1,0.333,0.333,0.333,1,0.333,0.333,0.333,1","1",""
"","html-keyboard-response","131","41633","0.0-131.0","","","","","null","<img src=""img/flower1.png"" style=""width:200px; border:14px solid green;"">","null","","","","","","","","",""
"","image-keyboard-response","132","41717","0.0-132.0","","","","","82.5","img/flower1.png","74","84","1","0","2","1","1,0.333,0.333,0.333,1,0.333,0.333,0.333,1","1,0.333,0.333,0.333,1,0.333,0.333,0.333,1","1",""
"","html-keyboard-response","133","42019","0.0-133.0","","","","","null","<img src=""img/flower1.png"" style=""width:200px;border:14px solid red;"">","null","","","","","","","","",""
"","image-keyboard-response","134","42096","0.0-134.0","","","","","75.5","img/flower3.png","76","76.80000001192093","3","0","1","1","1,0.333,0.333,0.333,1,0.333,0.333,0.333,1","1,0.333,0.333,0.333,1,0.333,0.333,0.333,1","1",""
"","html-keyboard-response","135","42399","0.0-135.0","","","","","null","<img src=""img/flower3.png"" style=""width:200px;border:14px solid red;"">","null","","","","","","","","",""
"","image-keyboard-response","136","42683","0.0-136.0","","","","","282.2999999523163","img/flower1.png","75","283.5999999642372","2","1","2","1","1,0.333,0.333,0.333,1,0.333,0.333,0.333,1","1,0.333,0.333,0.333,1,0.333,0.333,0.333,1","1",""
"","html-keyboard-response","137","42985","0.0-137.0","","","","","null","<img src=""img/flower1.png"" style=""width:200px; border:14px solid green;"">","null","","","","","","","","",""
"","image-keyboard-response","138","43066","0.0-138.0","","","","","79.69999998807907","img/flower4.png","75","80.80000001192093","2","0","3","1","1,0.333,0.333,0.333,1,0.333,0.333,0.333,1","1,0.333,0.333,0.333,1,0.333,0.333,0.333,1","1",""
"","html-keyboard-response","139","43367","0.0-139.0","","","","","null","<img src=""img/flower4.png"" style=""width:200px;border:14px solid red;"">","null","","","","","","","","",""
"","image-keyboard-response","140","43546","0.0-140.0","","","","","177","img/flower4.png","75","178.10000002384186","2","1","3","1","1,0.333,0.333,0.333,1,0.333,0.333,0.333,1","1,0.333,0.333,0.333,1,0.333,0.333,0.333,1","1",""
"","html-keyboard-response","141","43850","0.0-141.0","","","","","null","<img src=""img/flower4.png"" style=""width:200px; border:14px solid green;"">","null","","","","","","","","",""
"","image-keyboard-response","142","43912","0.0-142.0","","","","","61.5","img/flower4.png","74","62.69999998807907","1","0","3","1","1,0.333,0.333,0.333,1,0.333,0.333,0.333,1","1,0.333,0.333,0.333,1,0.333,0.333,0.333,1","1",""
"","html-keyboard-response","143","44218","0.0-143.0","","","","","null","<img src=""img/flower4.png"" style=""width:200px;border:14px solid red;"">","null","","","","","","","","",""
"","image-keyboard-response","144","44312","0.0-144.0","","","","","92.60000002384186","img/flower3.png","75","93.80000001192093","2","1","1","1","1,0.333,0.333,0.333,1,0.333,0.333,0.333,1","1,0.333,0.333,0.333,1,0.333,0.333,0.333,1","1",""
"","html-keyboard-response","145","44618","0.0-145.0","","","","","null","<img src=""img/flower3.png"" style=""width:200px; border:14px solid green;"">","null","","","","","","","","",""
"","image-keyboard-response","146","44658","0.0-146.0","","","","","39.09999996423721","img/flower1.png","74","40.10000002384186","1","0","2","1","1,0.333,0.333,0.333,1,0.333,0.333,0.333,1","1,0.333,0.333,0.333,1,0.333,0.333,0.333,1","1",""
"","html-keyboard-response","147","44961","0.0-147.0","","","","","null","<img src=""img/flower1.png"" style=""width:200px;border:14px solid red;"">","null","","","","","","","","",""
"","image-keyboard-response","148","45117","0.0-148.0","","","","","155","img/flower3.png","74","156.10000002384186","1","1","1","1","1,0.333,0.333,0.333,1,0.333,0.333,0.333,1","1,0.333,0.333,0.333,1,0.333,0.333,0.333,1","1",""
"","html-keyboard-response","149","45425","0.0-149.0","","","","","null","<img src=""img/flower3.png"" style=""width:200px; border:14px solid green;"">","null","","","","","","","","",""
"","image-keyboard-response","150","45506","0.0-150.0","","","","","79.19999998807907","img/flower4.png","74","80.30000001192093","1","0","3","1","1,0.333,0.333,0.333,1,0.333,0.333,0.333,1","1,0.333,0.333,0.333,1,0.333,0.333,0.333,1","1",""
"","html-keyboard-response","151","45811","0.0-151.0","","","","","null","<img src=""img/flower4.png"" style=""width:200px;border:14px solid red;"">","null","","","","","","","","",""
"","image-keyboard-response","152","45881","0.0-152.0","","","","","68.69999998807907","img/flower1.png","75","70.10000002384186","2","1","2","1","1,0.333,0.333,0.333,1,0.333,0.333,0.333,1","1,0.333,0.333,0.333,1,0.333,0.333,0.333,1","1",""
"","html-keyboard-response","153","46186","0.0-153.0","","","","","null","<img src=""img/flower1.png"" style=""width:200px; border:14px solid green;"">","null","","","","","","","","",""
"","image-keyboard-response","154","46238","0.0-154.0","","","","","51.30000001192093","img/flower1.png","74","52.89999997615814","1","1","2","1","1,0.333,0.333,0.333,1,0.333,0.333,0.333,1","1,0.333,0.333,0.333,1,0.333,0.333,0.333,1","1",""
"","html-keyboard-response","155","46546","0.0-155.0","","","","","null","<img src=""img/flower1.png"" style=""width:200px; border:14px solid green;"">","null","","","","","","","","",""
"","image-keyboard-response","156","46660","0.0-156.0","","","","","112.69999998807907","img/flower4.png","75","113.90000003576279","2","0","3","1","1,0.333,0.333,0.333,1,0.333,0.333,0.333,1","1,0.333,0.333,0.333,1,0.333,0.333,0.333,1","1",""
"","html-keyboard-response","157","46962","0.0-157.0","","","","","null","<img src=""img/flower4.png"" style=""width:200px;border:14px solid red;"">","null","","","","","","","","",""
"","image-keyboard-response","158","47131","0.0-158.0","","","","","166.89999997615814","img/flower1.png","74","168.39999997615814","1","0","2","1","1,0.333,0.333,0.333,1,0.333,0.333,0.333,1","1,0.333,0.333,0.333,1,0.333,0.333,0.333,1","1",""
"","html-keyboard-response","159","47434","0.0-159.0","","","","","null","<img src=""img/flower1.png"" style=""width:200px;border:14px solid red;"">","null","","","","","","","","",""
"","image-keyboard-response","160","47497","0.0-160.0","","","","","62.5","img/flower3.png","75","63.69999998807907","2","0","1","1","1,0.333,0.333,0.333,1,0.333,0.333,0.333,1","1,0.333,0.333,0.333,1,0.333,0.333,0.333,1","1",""
"","html-keyboard-response","161","47802","0.0-161.0","","","","","null","<img src=""img/flower3.png"" style=""width:200px;border:14px solid red;"">","null","","","","","","","","",""
"","image-keyboard-response","162","47902","0.0-162.0","","","","","99","img/flower3.png","74","100.29999995231628","1","1","1","1","1,0.333,0.333,0.333,1,0.333,0.333,0.333,1","1,0.333,0.333,0.333,1,0.333,0.333,0.333,1","1",""
"","html-keyboard-response","163","48209","0.0-163.0","","","","","null","<img src=""img/flower3.png"" style=""width:200px; border:14px solid green;"">","null","","","","","","","","",""
"","image-keyboard-response","164","48334","0.0-164.0","","","","","123.10000002384186","img/flower4.png","74","124.40000003576279","1","1","3","1","1,0.333,0.333,0.333,1,0.333,0.333,0.333,1","1,0.333,0.333,0.333,1,0.333,0.333,0.333,1","1",""
"","html-keyboard-response","165","48643","0.0-165.0","","","","","null","<img src=""img/flower4.png"" style=""width:200px; border:14px solid green;"">","null","","","","","","","","",""
"","image-keyboard-response","166","48710","0.0-166.0","","","","","66.10000002384186","img/flower3.png","74","67.5","1","1","1","1","1,0.333,0.333,0.333,1,0.333,0.333,0.333,1","1,0.333,0.333,0.333,1,0.333,0.333,0.333,1","1",""
"","html-keyboard-response","167","49018","0.0-167.0","","","","","null","<img src=""img/flower3.png"" style=""width:200px; border:14px solid green;"">","null","","","","","","","","",""
"","image-keyboard-response","168","49207","0.0-168.0","","","","","187.5","img/flower3.png","74","188.69999998807907","1","1","1","1","1,0.333,0.333,0.333,1,0.333,0.333,0.333,1","1,0.333,0.333,0.333,1,0.333,0.333,0.333,1","1",""
"","html-keyboard-response","169","49514","0.0-169.0","","","","","null","<img src=""img/flower3.png"" style=""width:200px; border:14px solid green;"">","null","","","","","","","","",""
"","image-keyboard-response","170","49643","0.0-170.0","","","","","127.90000003576279","img/flower3.png","75","129.0999999642372","2","0","1","1","1,0.333,0.333,0.333,1,0.333,0.333,0.333,1","1,0.333,0.333,0.333,1,0.333,0.333,0.333,1","1",""
"","html-keyboard-response","171","49946","0.0-171.0","","","","","null","<img src=""img/flower3.png"" style=""width:200px;border:14px solid red;"">","null","","","","","","","","",""
"","image-keyboard-response","172","50009","0.0-172.0","","","","","62","img/flower4.png","76","63.30000001192093","3","1","3","1","1,0.333,0.333,0.333,1,0.333,0.333,0.333,1","1,0.333,0.333,0.333,1,0.333,0.333,0.333,1","1",""
"","html-keyboard-response","173","50314","0.0-173.0","","","","","null","<img src=""img/flower4.png"" style=""width:200px; border:14px solid green;"">","null","","","","","","","","",""
"","image-keyboard-response","174","50320","0.0-174.0","","","","","5.199999988079071","img/flower4.png","76","6.399999976158142","3","1","3","1","1,0.333,0.333,0.333,1,0.333,0.333,0.333,1","1,0.333,0.333,0.333,1,0.333,0.333,0.333,1","1",""
"","html-keyboard-response","175","50625","0.0-175.0","","","","","null","<img src=""img/flower4.png"" style=""width:200px; border:14px solid green;"">","null","","","","","","","","",""
"","image-keyboard-response","176","50802","0.0-176.0","","","","","174.60000002384186","img/flower4.png","74","176","1","0","3","1","1,0.333,0.333,0.333,1,0.333,0.333,0.333,1","1,0.333,0.333,0.333,1,0.333,0.333,0.333,1","1",""
"","html-keyboard-response","177","51105","0.0-177.0","","","","","null","<img src=""img/flower4.png"" style=""width:200px;border:14px solid red;"">","null","","","","","","","","",""
"","image-keyboard-response","178","51198","0.0-178.0","","","","","91.29999995231628","img/flower1.png","75","92.69999998807907","2","1","2","1","1,0.333,0.333,0.333,1,0.333,0.333,0.333,1","1,0.333,0.333,0.333,1,0.333,0.333,0.333,1","1",""
"","html-keyboard-response","179","51506","0.0-179.0","","","","","null","<img src=""img/flower1.png"" style=""width:200px; border:14px solid green;"">","null","","","","","","","","",""
"","image-keyboard-response","180","51629","0.0-180.0","","","","","121","img/flower3.png","74","122.5","1","1","1","1","1,0.333,0.333,0.333,1,0.333,0.333,0.333,1","1,0.333,0.333,0.333,1,0.333,0.333,0.333,1","1",""
"","html-keyboard-response","181","51938","0.0-181.0","","","","","null","<img src=""img/flower3.png"" style=""width:200px; border:14px solid green;"">","null","","","","","","","","",""
"","html-keyboard-response","182","54640","0.0-182.0","","","","","","","","","","","","","","","",""
"","image-keyboard-response","183","55933","0.0-183.0","","","","","1290.6000000238419","img/flower6.png","75","1292.199999988079","2","0","1","2","1,0,0,1,1,0,1,0,1","0,0,1,1,0,1,0,1,1","2",""
"","html-keyboard-response","184","56241","0.0-184.0","","","","","null","<img src=""img/flower6.png"" style=""width:200px;border:14px solid red;"">","null","","","","","","","","",""
"","image-keyboard-response","185","56314","0.0-185.0","","","","","71.59999996423721","img/flower6.png","76","73","3","1","1","2","1,0,0,1,1,0,1,0,1","0,0,1,1,0,1,0,1,1","2",""
"","html-keyboard-response","186","56619","0.0-186.0","","","","","null","<img src=""img/flower6.png"" style=""width:200px; border:14px solid green;"">","null","","","","","","","","",""
"","image-keyboard-response","187","56842","0.0-187.0","","","","","222","img/flower5.png","74","223.30000001192093","1","0","3","2","1,0,0,1,1,0,1,0,1","0,0,1,1,0,1,0,1,1","2",""
"","html-keyboard-response","188","57145","0.0-188.0","","","","","null","<img src=""img/flower5.png"" style=""width:200px;border:14px solid red;"">","null","","","","","","","","",""
"","image-keyboard-response","189","57161","0.0-189.0","","","","","13.800000011920929","img/flower2.png","76","14.899999976158142","3","1","2","2","1,0,0,1,1,0,1,0,1","0,0,1,1,0,1,0,1,1","2",""
"","html-keyboard-response","190","57465","0.0-190.0","","","","","null","<img src=""img/flower2.png"" style=""width:200px; border:14px solid green;"">","null","","","","","","","","",""
"","image-keyboard-response","191","57598","0.0-191.0","","","","","130.80000001192093","img/flower2.png","76","132.19999998807907","3","1","2","2","1,0,0,1,1,0,1,0,1","0,0,1,1,0,1,0,1,1","2",""
"","html-keyboard-response","192","57906","0.0-192.0","","","","","null","<img src=""img/flower2.png"" style=""width:200px; border:14px solid green;"">","null","","","","","","","","",""
"","image-keyboard-response","193","57948","0.0-193.0","","","","","40.59999996423721","img/flower5.png","74","41.799999952316284","1","0","3","2","1,0,0,1,1,0,1,0,1","0,0,1,1,0,1,0,1,1","2",""
"","html-keyboard-response","194","58257","0.0-194.0","","","","","null","<img src=""img/flower5.png"" style=""width:200px;border:14px solid red;"">","null","","","","","","","","",""
"","image-keyboard-response","195","58361","0.0-195.0","","","","","102.39999997615814","img/flower6.png","76","103.69999998807907","3","1","1","2","1,0,0,1,1,0,1,0,1","0,0,1,1,0,1,0,1,1","2",""
"","html-keyboard-response","196","58666","0.0-196.0","","","","","null","<img src=""img/flower6.png"" style=""width:200px; border:14px solid green;"">","null","","","","","","","","",""
"","image-keyboard-response","197","58824","0.0-197.0","","","","","156.19999998807907","img/flower6.png","75","157.5","2","0","1","2","1,0,0,1,1,0,1,0,1","0,0,1,1,0,1,0,1,1","2",""
"","html-keyboard-response","198","59129","0.0-198.0","","","","","null","<img src=""img/flower6.png"" style=""width:200px;border:14px solid red;"">","null","","","","","","","","",""
"","image-keyboard-response","199","59279","0.0-199.0","","","","","148.60000002384186","img/flower5.png","76","149.80000001192093","3","1","3","2","1,0,0,1,1,0,1,0,1","0,0,1,1,0,1,0,1,1","2",""
"","html-keyboard-response","200","59586","0.0-200.0","","","","","null","<img src=""img/flower5.png"" style=""width:200px; border:14px solid green;"">","null","","","","","","","","",""
"","image-keyboard-response","201","59592","0.0-201.0","","","","","4.600000023841858","img/flower6.png","74","5.900000035762787","1","0","1","2","1,0,0,1,1,0,1,0,1","0,0,1,1,0,1,0,1,1","2",""
"","html-keyboard-response","202","59898","0.0-202.0","","","","","null","<img src=""img/flower6.png"" style=""width:200px;border:14px solid red;"">","null","","","","","","","","",""
"","image-keyboard-response","203","60016","0.0-203.0","","","","","116.5","img/flower6.png","76","117.80000001192093","3","1","1","2","1,0,0,1,1,0,1,0,1","0,0,1,1,0,1,0,1,1","2",""
"","html-keyboard-response","204","60322","0.0-204.0","","","","","null","<img src=""img/flower6.png"" style=""width:200px; border:14px solid green;"">","null","","","","","","","","",""
"","image-keyboard-response","205","60435","0.0-205.0","","","","","110.19999998807907","img/flower2.png","74","112.20000004768372","1","1","2","2","1,0,0,1,1,0,1,0,1","0,0,1,1,0,1,0,1,1","2",""
"","html-keyboard-response","206","60737","0.0-206.0","","","","","null","<img src=""img/flower2.png"" style=""width:200px; border:14px solid green;"">","null","","","","","","","","",""
"","image-keyboard-response","207","60806","0.0-207.0","","","","","67.19999998807907","img/flower6.png","76","68.39999997615814","3","1","1","2","1,0,0,1,1,0,1,0,1","0,0,1,1,0,1,0,1,1","2",""
"","html-keyboard-response","208","61109","0.0-208.0","","","","","null","<img src=""img/flower6.png"" style=""width:200px; border:14px solid green;"">","null","","","","","","","","",""
"","image-keyboard-response","209","61114","0.0-209.0","","","","","3.199999988079071","img/flower2.png","74","5","1","1","2","2","1,0,0,1,1,0,1,0,1","0,0,1,1,0,1,0,1,1","2",""
"","html-keyboard-response","210","61418","0.0-210.0","","","","","null","<img src=""img/flower2.png"" style=""width:200px; border:14px solid green;"">","null","","","","","","","","",""
"","image-keyboard-response","211","61460","0.0-211.0","","","","","40.39999997615814","img/flower6.png","75","41.60000002384186","2","0","1","2","1,0,0,1,1,0,1,0,1","0,0,1,1,0,1,0,1,1","2",""
"","html-keyboard-response","212","61762","0.0-212.0","","","","","null","<img src=""img/flower6.png"" style=""width:200px;border:14px solid red;"">","null","","","","","","","","",""
"","image-keyboard-response","213","61884","0.0-213.0","","","","","120.60000002384186","img/flower6.png","74","121.70000004768372","1","0","1","2","1,0,0,1,1,0,1,0,1","0,0,1,1,0,1,0,1,1","2",""
"","html-keyboard-response","214","62194","0.0-214.0","","","","","null","<img src=""img/flower6.png"" style=""width:200px;border:14px solid red;"">","null","","","","","","","","",""
"","image-keyboard-response","215","62206","0.0-215.0","","","","","11.300000011920929","img/flower2.png","76","12.599999964237213","3","1","2","2","1,0,0,1,1,0,1,0,1","0,0,1,1,0,1,0,1,1","2",""
"","html-keyboard-response","216","62514","0.0-216.0","","","","","null","<img src=""img/flower2.png"" style=""width:200px; border:14px solid green;"">","null","","","","","","","","",""
"","image-keyboard-response","217","62622","0.0-217.0","","","","","106.5","img/flower6.png","74","107.79999995231628","1","0","1","2","1,0,0,1,1,0,1,0,1","0,0,1,1,0,1,0,1,1","2",""
"","html-keyboard-response","218","62930","0.0-218.0","","","","","null","<img src=""img/flower6.png"" style=""width:200px;border:14px solid red;"">","null","","","","","","","","",""
"","image-keyboard-response","219","63027","0.0-219.0","","","","","94.59999996423721","img/flower5.png","75","96","2","1","3","2","1,0,0,1,1,0,1,0,1","0,0,1,1,0,1,0,1,1","2",""
"","html-keyboard-response","220","63330","0.0-220.0","","","","","null","<img src=""img/flower5.png"" style=""width:200px; border:14px solid green;"">","null","","","","","","","","",""
"","image-keyboard-response","221","63411","0.0-221.0","","","","","78","img/flower2.png","74","79.89999997615814","1","1","2","2","1,0,0,1,1,0,1,0,1","0,0,1,1,0,1,0,1,1","2",""
"","html-keyboard-response","222","63715","0.0-222.0","","","","","null","<img src=""img/flower2.png"" style=""width:200px; border:14px solid green;"">","null","","","","","","","","",""
"","image-keyboard-response","223","63810","0.0-223.0","","","","","94.40000003576279","img/flower2.png","76","95.5","3","1","2","2","1,0,0,1,1,0,1,0,1","0,0,1,1,0,1,0,1,1","2",""
"","html-keyboard-response","224","64113","0.0-224.0","","","","","null","<img src=""img/flower2.png"" style=""width:200px; border:14px solid green;"">","null","","","","","","","","",""
"","image-keyboard-response","225","64213","0.0-225.0","","","","","97.80000001192093","img/flower5.png","74","99.10000002384186","1","0","3","2","1,0,0,1,1,0,1,0,1","0,0,1,1,0,1,0,1,1","2",""
"","html-keyboard-response","226","64522","0.0-226.0","","","","","null","<img src=""img/flower5.png"" style=""width:200px;border:14px solid red;"">","null","","","","","","","","",""
"","image-keyboard-response","227","64641","0.0-227.0","","","","","117.89999997615814","img/flower2.png","75","119.40000003576279","2","0","2","2","1,0,0,1,1,0,1,0,1","0,0,1,1,0,1,0,1,1","2",""
"","html-keyboard-response","228","64946","0.0-228.0","","","","","null","<img src=""img/flower2.png"" style=""width:200px;border:14px solid red;"">","null","","","","","","","","",""
"","image-keyboard-response","229","65117","0.0-229.0","","","","","169.10000002384186","img/flower6.png","76","170.4000000357628","3","1","1","2","1,0,0,1,1,0,1,0,1","0,0,1,1,0,1,0,1,1","2",""
"","html-keyboard-response","230","65427","0.0-230.0","","","","","null","<img src=""img/flower6.png"" style=""width:200px; border:14px solid green;"">","null","","","","","","","","",""
"","image-keyboard-response","231","65430","0.0-231.0","","","","","0.2999999523162842","img/flower6.png","74","3.100000023841858","1","0","1","2","1,0,0,1,1,0,1,0,1","0,0,1,1,0,1,0,1,1","2",""
"","html-keyboard-response","232","65738","0.0-232.0","","","","","null","<img src=""img/flower6.png"" style=""width:200px;border:14px solid red;"">","null","","","","","","","","",""
"","image-keyboard-response","233","65831","0.0-233.0","","","","","91.79999995231628","img/flower2.png","76","93.5","3","1","2","2","1,0,0,1,1,0,1,0,1","0,0,1,1,0,1,0,1,1","2",""
"","html-keyboard-response","234","66138","0.0-234.0","","","","","null","<img src=""img/flower2.png"" style=""width:200px; border:14px solid green;"">","null","","","","","","","","",""
"","image-keyboard-response","235","66162","0.0-235.0","","","","","22.5","img/flower2.png","75","23.69999998807907","2","0","2","2","1,0,0,1,1,0,1,0,1","0,0,1,1,0,1,0,1,1","2",""
"","html-keyboard-response","236","66465","0.0-236.0","","","","","null","<img src=""img/flower2.png"" style=""width:200px;border:14px solid red;"">","null","","","","","","","","",""
"","image-keyboard-response","237","66504","0.0-237.0","","","","","36.60000002384186","img/flower2.png","74","38","1","1","2","2","1,0,0,1,1,0,1,0,1","0,0,1,1,0,1,0,1,1","2",""
"","html-keyboard-response","238","66811","0.0-238.0","","","","","null","<img src=""img/flower2.png"" style=""width:200px; border:14px solid green;"">","null","","","","","","","","",""
"","image-keyboard-response","239","67023","0.0-239.0","","","","","210.80000001192093","img/flower6.png","74","212.0999999642372","1","0","1","2","1,0,0,1,1,0,1,0,1","0,0,1,1,0,1,0,1,1","2",""
"","html-keyboard-response","240","67330","0.0-240.0","","","","","null","<img src=""img/flower6.png"" style=""width:200px;border:14px solid red;"">","null","","","","","","","","",""
"","image-keyboard-response","241","67400","0.0-241.0","","","","","69.09999996423721","img/flower5.png","76","70.19999998807907","3","1","3","2","1,0,0,1,1,0,1,0,1","0,0,1,1,0,1,0,1,1","2",""
"","html-keyboard-response","242","67707","0.0-242.0","","","","","null","<img src=""img/flower5.png"" style=""width:200px; border:14px solid green;"">","null","","","","","","","","",""
"","image-keyboard-response","243","67753","0.0-243.0","","","","","44.299999952316284","img/flower5.png","75","45.60000002384186","2","1","3","2","1,0,0,1,1,0,1,0,1","0,0,1,1,0,1,0,1,1","2",""
"","html-keyboard-response","244","68057","0.0-244.0","","","","","null","<img src=""img/flower5.png"" style=""width:200px; border:14px solid green;"">","null","","","","","","","","",""
"","image-keyboard-response","245","68092","0.0-245.0","","","","","33.89999997615814","img/flower2.png","74","35","1","1","2","2","1,0,0,1,1,0,1,0,1","0,0,1,1,0,1,0,1,1","2",""
"","html-keyboard-response","246","68401","0.0-246.0","","","","","null","<img src=""img/flower2.png"" style=""width:200px; border:14px solid green;"">","null","","","","","","","","",""
"","image-keyboard-response","247","68542","0.0-247.0","","","","","139.30000001192093","img/flower6.png","76","140.5","3","1","1","2","1,0,0,1,1,0,1,0,1","0,0,1,1,0,1,0,1,1","2",""
"","html-keyboard-response","248","68849","0.0-248.0","","","","","null","<img src=""img/flower6.png"" style=""width:200px; border:14px solid green;"">","null","","","","","","","","",""
"","image-keyboard-response","249","68923","0.0-249.0","","","","","72.19999998807907","img/flower6.png","74","73.59999996423721","1","0","1","2","1,0,0,1,1,0,1,0,1","0,0,1,1,0,1,0,1,1","2",""
"","html-keyboard-response","250","69226","0.0-250.0","","","","","null","<img src=""img/flower6.png"" style=""width:200px;border:14px solid red;"">","null","","","","","","","","",""
"","image-keyboard-response","251","69359","0.0-251.0","","","","","131.39999997615814","img/flower6.png","76","132.80000001192093","3","1","1","2","1,0,0,1,1,0,1,0,1","0,0,1,1,0,1,0,1,1","2",""
"","html-keyboard-response","252","69661","0.0-252.0","","","","","null","<img src=""img/flower6.png"" style=""width:200px; border:14px solid green;"">","null","","","","","","","","",""
"","image-keyboard-response","253","69763","0.0-253.0","","","","","100.39999997615814","img/flower5.png","74","101.70000004768372","1","0","3","2","1,0,0,1,1,0,1,0,1","0,0,1,1,0,1,0,1,1","2",""
"","html-keyboard-response","254","70065","0.0-254.0","","","","","null","<img src=""img/flower5.png"" style=""width:200px;border:14px solid red;"">","null","","","","","","","","",""
"","image-keyboard-response","255","70141","0.0-255.0","","","","","74.09999996423721","img/flower5.png","76","75.29999995231628","3","1","3","2","1,0,0,1,1,0,1,0,1","0,0,1,1,0,1,0,1,1","2",""
"","html-keyboard-response","256","70450","0.0-256.0","","","","","null","<img src=""img/flower5.png"" style=""width:200px; border:14px solid green;"">","null","","","","","","","","",""
"","image-keyboard-response","257","70455","0.0-257.0","","","","","3.5","img/flower6.png","74","5.399999976158142","1","0","1","2","1,0,0,1,1,0,1,0,1","0,0,1,1,0,1,0,1,1","2",""
"","html-keyboard-response","258","70761","0.0-258.0","","","","","null","<img src=""img/flower6.png"" style=""width:200px;border:14px solid red;"">","null","","","","","","","","",""
"","image-keyboard-response","259","70866","0.0-259.0","","","","","103.10000002384186","img/flower6.png","76","104.40000003576279","3","1","1","2","1,0,0,1,1,0,1,0,1","0,0,1,1,0,1,0,1,1","2",""
"","html-keyboard-response","260","71169","0.0-260.0","","","","","null","<img src=""img/flower6.png"" style=""width:200px; border:14px solid green;"">","null","","","","","","","","",""
"","image-keyboard-response","261","71184","0.0-261.0","","","","","12.900000035762787","img/flower2.png","75","14.100000023841858","2","0","2","2","1,0,0,1,1,0,1,0,1","0,0,1,1,0,1,0,1,1","2",""
"","html-keyboard-response","262","71489","0.0-262.0","","","","","null","<img src=""img/flower2.png"" style=""width:200px;border:14px solid red;"">","null","","","","","","","","",""
"","image-keyboard-response","263","71565","0.0-263.0","","","","","74.39999997615814","img/flower6.png","74","75.69999998807907","1","0","1","2","1,0,0,1,1,0,1,0,1","0,0,1,1,0,1,0,1,1","2",""
"","html-keyboard-response","264","71873","0.0-264.0","","","","","null","<img src=""img/flower6.png"" style=""width:200px;border:14px solid red;"">","null","","","","","","","","",""
"","image-keyboard-response","265","71962","0.0-265.0","","","","","87.5","img/flower5.png","76","88.69999998807907","3","1","3","2","1,0,0,1,1,0,1,0,1","0,0,1,1,0,1,0,1,1","2",""
"","html-keyboard-response","266","72266","0.0-266.0","","","","","null","<img src=""img/flower5.png"" style=""width:200px; border:14px solid green;"">","null","","","","","","","","",""
"","image-keyboard-response","267","72328","0.0-267.0","","","","","59.5","img/flower2.png","74","61.30000001192093","1","1","2","2","1,0,0,1,1,0,1,0,1","0,0,1,1,0,1,0,1,1","2",""
"","html-keyboard-response","268","72633","0.0-268.0","","","","","null","<img src=""img/flower2.png"" style=""width:200px; border:14px solid green;"">","null","","","","","","","","",""
"","image-keyboard-response","269","72716","0.0-269.0","","","","","81.09999996423721","img/flower6.png","76","82.5","3","1","1","2","1,0,0,1,1,0,1,0,1","0,0,1,1,0,1,0,1,1","2",""
"","html-keyboard-response","270","73026","0.0-270.0","","","","","null","<img src=""img/flower6.png"" style=""width:200px; border:14px solid green;"">","null","","","","","","","","",""
"","image-keyboard-response","271","73057","0.0-271.0","","","","","29.80000001192093","img/flower2.png","76","31","3","1","2","2","1,0,0,1,1,0,1,0,1","0,0,1,1,0,1,0,1,1","2",""
"","html-keyboard-response","272","73362","0.0-272.0","","","","","null","<img src=""img/flower2.png"" style=""width:200px; border:14px solid green;"">","null","","","","","","","","",""
"","image-keyboard-response","273","73413","0.0-273.0","","","","","49.60000002384186","img/flower6.png","74","50.89999997615814","1","0","1","2","1,0,0,1,1,0,1,0,1","0,0,1,1,0,1,0,1,1","2",""
"","html-keyboard-response","274","73719","0.0-274.0","","","","","null","<img src=""img/flower6.png"" style=""width:200px;border:14px solid red;"">","null","","","","","","","","",""
"","image-keyboard-response","275","73814","0.0-275.0","","","","","93.39999997615814","img/flower6.png","76","95.10000002384186","3","1","1","2","1,0,0,1,1,0,1,0,1","0,0,1,1,0,1,0,1,1","2",""
"","html-keyboard-response","276","74120","0.0-276.0","","","","","null","<img src=""img/flower6.png"" style=""width:200px; border:14px solid green;"">","null","","","","","","","","",""
"","image-keyboard-response","277","74126","0.0-277.0","","","","","5.099999964237213","img/flower5.png","75","6.200000047683716","2","1","3","2","1,0,0,1,1,0,1,0,1","0,0,1,1,0,1,0,1,1","2",""
"","html-keyboard-response","278","74433","0.0-278.0","","","","","null","<img src=""img/flower5.png"" style=""width:200px; border:14px solid green;"">","null","","","","","","","","",""
"","image-keyboard-response","279","74541","0.0-279.0","","","","","106.30000001192093","img/flower5.png","74","107.5","1","0","3","2","1,0,0,1,1,0,1,0,1","0,0,1,1,0,1,0,1,1","2",""
"","html-keyboard-response","280","74850","0.0-280.0","","","","","null","<img src=""img/flower5.png"" style=""width:200px;border:14px solid red;"">","null","","","","","","","","",""
"","image-keyboard-response","281","74942","0.0-281.0","","","","","90.69999998807907","img/flower2.png","76","92.10000002384186","3","1","2","2","1,0,0,1,1,0,1,0,1","0,0,1,1,0,1,0,1,1","2",""
"","html-keyboard-response","282","75250","0.0-282.0","","","","","null","<img src=""img/flower2.png"" style=""width:200px; border:14px solid green;"">","null","","","","","","","","",""
"","image-keyboard-response","283","75316","0.0-283.0","","","","","64.5","img/flower5.png","74","65.90000003576279","1","0","3","2","1,0,0,1,1,0,1,0,1","0,0,1,1,0,1,0,1,1","2",""
"","html-keyboard-response","284","75623","0.0-284.0","","","","","null","<img src=""img/flower5.png"" style=""width:200px;border:14px solid red;"">","null","","","","","","","","",""
"","image-keyboard-response","285","75788","0.0-285.0","","","","","163.89999997615814","img/flower2.png","76","165","3","1","2","2","1,0,0,1,1,0,1,0,1","0,0,1,1,0,1,0,1,1","2",""
"","html-keyboard-response","286","76098","0.0-286.0","","","","","null","<img src=""img/flower2.png"" style=""width:200px; border:14px solid green;"">","null","","","","","","","","",""
"","image-keyboard-response","287","76213","0.0-287.0","","","","","114.30000001192093","img/flower2.png","74","115.5","1","1","2","2","1,0,0,1,1,0,1,0,1","0,0,1,1,0,1,0,1,1","2",""
"","html-keyboard-response","288","76521","0.0-288.0","","","","","null","<img src=""img/flower2.png"" style=""width:200px; border:14px solid green;"">","null","","","","","","","","",""
"","image-keyboard-response","289","76675","0.0-289.0","","","","","153.10000002384186","img/flower5.png","76","154.20000004768372","3","1","3","2","1,0,0,1,1,0,1,0,1","0,0,1,1,0,1,0,1,1","2",""
"","html-keyboard-response","290","76977","0.0-290.0","","","","","null","<img src=""img/flower5.png"" style=""width:200px; border:14px solid green;"">","null","","","","","","","","",""
"","image-keyboard-response","291","77201","0.0-291.0","","","","","222.5","img/flower6.png","74","223.5999999642372","1","0","1","2","1,0,0,1,1,0,1,0,1","0,0,1,1,0,1,0,1,1","2",""
"","html-keyboard-response","292","77505","0.0-292.0","","","","","null","<img src=""img/flower6.png"" style=""width:200px;border:14px solid red;"">","null","","","","","","","","",""
"","image-keyboard-response","293","77571","0.0-293.0","","","","","65.10000002384186","img/flower2.png","76","66.10000002384186","3","1","2","2","1,0,0,1,1,0,1,0,1","0,0,1,1,0,1,0,1,1","2",""
"","html-keyboard-response","294","77873","0.0-294.0","","","","","null","<img src=""img/flower2.png"" style=""width:200px; border:14px solid green;"">","null","","","","","","","","",""
"","image-keyboard-response","295","77944","0.0-295.0","","","","","69.79999995231628","img/flower6.png","74","71","1","0","1","2","1,0,0,1,1,0,1,0,1","0,0,1,1,0,1,0,1,1","2",""
"","html-keyboard-response","296","78248","0.0-296.0","","","","","null","<img src=""img/flower6.png"" style=""width:200px;border:14px solid red;"">","null","","","","","","","","",""
"","image-keyboard-response","297","78451","0.0-297.0","","","","","202","img/flower6.png","75","203.19999998807907","2","0","1","2","1,0,0,1,1,0,1,0,1","0,0,1,1,0,1,0,1,1","2",""
"","html-keyboard-response","298","78754","0.0-298.0","","","","","null","<img src=""img/flower6.png"" style=""width:200px;border:14px solid red;"">","null","","","","","","","","",""
"","image-keyboard-response","299","78759","0.0-299.0","","","","","3.799999952316284","img/flower5.png","75","4.800000011920929","2","1","3","2","1,0,0,1,1,0,1,0,1","0,0,1,1,0,1,0,1,1","2",""
"","html-keyboard-response","300","79066","0.0-300.0","","","","","null","<img src=""img/flower5.png"" style=""width:200px; border:14px solid green;"">","null","","","","","","","","",""
"","image-keyboard-response","301","79087","0.0-301.0","","","","","20.5","img/flower2.png","74","21.600000023841858","1","1","2","2","1,0,0,1,1,0,1,0,1","0,0,1,1,0,1,0,1,1","2",""
"","html-keyboard-response","302","79393","0.0-302.0","","","","","null","<img src=""img/flower2.png"" style=""width:200px; border:14px solid green;"">","null","","","","","","","","",""
"","image-keyboard-response","303","79493","0.0-303.0","","","","","99.10000002384186","img/flower2.png","75","100.20000004768372","2","0","2","2","1,0,0,1,1,0,1,0,1","0,0,1,1,0,1,0,1,1","2",""
"","html-keyboard-response","304","79801","0.0-304.0","","","","","null","<img src=""img/flower2.png"" style=""width:200px;border:14px solid red;"">","null","","","","","","","","",""
"","image-keyboard-response","305","79811","0.0-305.0","","","","","8.300000011920929","img/flower5.png","74","9.299999952316284","1","0","3","2","1,0,0,1,1,0,1,0,1","0,0,1,1,0,1,0,1,1","2",""
"","html-keyboard-response","306","80115","0.0-306.0","","","","","null","<img src=""img/flower5.png"" style=""width:200px;border:14px solid red;"">","null","","","","","","","","",""
"","image-keyboard-response","307","80143","0.0-307.0","","","","","26.600000023841858","img/flower2.png","74","27.600000023841858","1","1","2","2","1,0,0,1,1,0,1,0,1","0,0,1,1,0,1,0,1,1","2",""
"","html-keyboard-response","308","80449","0.0-308.0","","","","","null","<img src=""img/flower2.png"" style=""width:200px; border:14px solid green;"">","null","","","","","","","","",""
"","image-keyboard-response","309","80611","0.0-309.0","","","","","159.89999997615814","img/flower2.png","75","161.20000004768372","2","0","2","2","1,0,0,1,1,0,1,0,1","0,0,1,1,0,1,0,1,1","2",""
"","html-keyboard-response","310","80913","0.0-310.0","","","","","null","<img src=""img/flower2.png"" style=""width:200px;border:14px solid red;"">","null","","","","","","","","",""
"","image-keyboard-response","311","80973","0.0-311.0","","","","","58.19999998807907","img/flower2.png","76","59.30000001192093","3","1","2","2","1,0,0,1,1,0,1,0,1","0,0,1,1,0,1,0,1,1","2",""
"","html-keyboard-response","312","81282","0.0-312.0","","","","","null","<img src=""img/flower2.png"" style=""width:200px; border:14px solid green;"">","null","","","","","","","","",""
"","image-keyboard-response","313","81325","0.0-313.0","","","","","41.5","img/flower5.png","74","42.60000002384186","1","0","3","2","1,0,0,1,1,0,1,0,1","0,0,1,1,0,1,0,1,1","2",""
"","html-keyboard-response","314","81634","0.0-314.0","","","","","null","<img src=""img/flower5.png"" style=""width:200px;border:14px solid red;"">","null","","","","","","","","",""
"","image-keyboard-response","315","81839","0.0-315.0","","","","","203.30000001192093","img/flower5.png","74","205","1","0","3","2","1,0,0,1,1,0,1,0,1","0,0,1,1,0,1,0,1,1","2",""
"","html-keyboard-response","316","82145","0.0-316.0","","","","","null","<img src=""img/flower5.png"" style=""width:200px;border:14px solid red;"">","null","","","","","","","","",""
"","image-keyboard-response","317","82242","0.0-317.0","","","","","95","img/flower6.png","76","96.10000002384186","3","1","1","2","1,0,0,1,1,0,1,0,1","0,0,1,1,0,1,0,1,1","2",""
"","html-keyboard-response","318","82547","0.0-318.0","","","","","null","<img src=""img/flower6.png"" style=""width:200px; border:14px solid green;"">","null","","","","","","","","",""
"","image-keyboard-response","319","82553","0.0-319.0","","","","","3.700000047683716","img/flower2.png","76","5.300000011920929","3","1","2","2","1,0,0,1,1,0,1,0,1","0,0,1,1,0,1,0,1,1","2",""
"","html-keyboard-response","320","82858","0.0-320.0","","","","","null","<img src=""img/flower2.png"" style=""width:200px; border:14px solid green;"">","null","","","","","","","","",""
"","image-keyboard-response","321","82870","0.0-321.0","","","","","10.900000035762787","img/flower5.png","75","11.899999976158142","2","1","3","2","1,0,0,1,1,0,1,0,1","0,0,1,1,0,1,0,1,1","2",""
"","html-keyboard-response","322","83177","0.0-322.0","","","","","null","<img src=""img/flower5.png"" style=""width:200px; border:14px solid green;"">","null","","","","","","","","",""
"","image-keyboard-response","323","83460","0.0-323.0","","","","","281.19999998807907","img/flower6.png","74","282.5","1","0","1","2","1,0,0,1,1,0,1,0,1","0,0,1,1,0,1,0,1,1","2",""
"","html-keyboard-response","324","83768","0.0-324.0","","","","","null","<img src=""img/flower6.png"" style=""width:200px;border:14px solid red;"">","null","","","","","","","","",""
"","image-keyboard-response","325","83915","0.0-325.0","","","","","146.29999995231628","img/flower5.png","76","147.5999999642372","3","1","3","2","1,0,0,1,1,0,1,0,1","0,0,1,1,0,1,0,1,1","2",""
"","html-keyboard-response","326","84218","0.0-326.0","","","","","null","<img src=""img/flower5.png"" style=""width:200px; border:14px solid green;"">","null","","","","","","","","",""
"","image-keyboard-response","327","84314","0.0-327.0","","","","","94.5","img/flower2.png","74","95.60000002384186","1","1","2","2","1,0,0,1,1,0,1,0,1","0,0,1,1,0,1,0,1,1","2",""
"","html-keyboard-response","328","84617","0.0-328.0","","","","","null","<img src=""img/flower2.png"" style=""width:200px; border:14px solid green;"">","null","","","","","","","","",""
"","image-keyboard-response","329","84668","0.0-329.0","","","","","49.5","img/flower5.png","76","50.700000047683716","3","1","3","2","1,0,0,1,1,0,1,0,1","0,0,1,1,0,1,0,1,1","2",""
"","html-keyboard-response","330","84976","0.0-330.0","","","","","null","<img src=""img/flower5.png"" style=""width:200px; border:14px solid green;"">","null","","","","","","","","",""
"","image-keyboard-response","331","84990","0.0-331.0","","","","","12.100000023841858","img/flower2.png","75","13.300000011920929","2","0","2","2","1,0,0,1,1,0,1,0,1","0,0,1,1,0,1,0,1,1","2",""
"","html-keyboard-response","332","85298","0.0-332.0","","","","","null","<img src=""img/flower2.png"" style=""width:200px;border:14px solid red;"">","null","","","","","","","","",""
"","image-keyboard-response","333","85317","0.0-333.0","","","","","18.599999964237213","img/flower6.png","75","19.600000023841858","2","0","1","2","1,0,0,1,1,0,1,0,1","0,0,1,1,0,1,0,1,1","2",""
"","html-keyboard-response","334","85626","0.0-334.0","","","","","null","<img src=""img/flower6.png"" style=""width:200px;border:14px solid red;"">","null","","","","","","","","",""
"","image-keyboard-response","335","85687","0.0-335.0","","","","","60.299999952316284","img/flower5.png","74","61.5","1","0","3","2","1,0,0,1,1,0,1,0,1","0,0,1,1,0,1,0,1,1","2",""
"","html-keyboard-response","336","85994","0.0-336.0","","","","","null","<img src=""img/flower5.png"" style=""width:200px;border:14px solid red;"">","null","","","","","","","","",""
"","image-keyboard-response","337","86055","0.0-337.0","","","","","59.5","img/flower2.png","74","60.80000001192093","1","1","2","2","1,0,0,1,1,0,1,0,1","0,0,1,1,0,1,0,1,1","2",""
"","html-keyboard-response","338","86361","0.0-338.0","","","","","null","<img src=""img/flower2.png"" style=""width:200px; border:14px solid green;"">","null","","","","","","","","",""
"","image-keyboard-response","339","86432","0.0-339.0","","","","","69.79999995231628","img/flower2.png","75","71","2","0","2","2","1,0,0,1,1,0,1,0,1","0,0,1,1,0,1,0,1,1","2",""
"","html-keyboard-response","340","86737","0.0-340.0","","","","","null","<img src=""img/flower2.png"" style=""width:200px;border:14px solid red;"">","null","","","","","","","","",""
"","image-keyboard-response","341","86767","0.0-341.0","","","","","28.700000047683716","img/flower6.png","74","29.69999998807907","1","0","1","2","1,0,0,1,1,0,1,0,1","0,0,1,1,0,1,0,1,1","2",""
"","html-keyboard-response","342","87074","0.0-342.0","","","","","null","<img src=""img/flower6.png"" style=""width:200px;border:14px solid red;"">","null","","","","","","","","",""
"","image-keyboard-response","343","87258","0.0-343.0","","","","","182.60000002384186","img/flower5.png","75","183.80000001192093","2","1","3","2","1,0,0,1,1,0,1,0,1","0,0,1,1,0,1,0,1,1","2",""
"","html-keyboard-response","344","87561","0.0-344.0","","","","","null","<img src=""img/flower5.png"" style=""width:200px; border:14px solid green;"">","null","","","","","","","","",""
"","image-keyboard-response","345","87576","0.0-345.0","","","","","13.599999964237213","img/flower5.png","75","15.100000023841858","2","1","3","2","1,0,0,1,1,0,1,0,1","0,0,1,1,0,1,0,1,1","2",""
"","html-keyboard-response","346","87882","0.0-346.0","","","","","null","<img src=""img/flower5.png"" style=""width:200px; border:14px solid green;"">","null","","","","","","","","",""
"","image-keyboard-response","347","87971","0.0-347.0","","","","","87.59999996423721","img/flower5.png","74","88.69999998807907","1","0","3","2","1,0,0,1,1,0,1,0,1","0,0,1,1,0,1,0,1,1","2",""
"","html-keyboard-response","348","88281","0.0-348.0","","","","","null","<img src=""img/flower5.png"" style=""width:200px;border:14px solid red;"">","null","","","","","","","","",""
"","image-keyboard-response","349","88401","0.0-349.0","","","","","117.90000003576279","img/flower6.png","76","119.40000003576279","3","1","1","2","1,0,0,1,1,0,1,0,1","0,0,1,1,0,1,0,1,1","2",""
"","html-keyboard-response","350","88705","0.0-350.0","","","","","null","<img src=""img/flower6.png"" style=""width:200px; border:14px solid green;"">","null","","","","","","","","",""
"","image-keyboard-response","351","88739","0.0-351.0","","","","","32","img/flower5.png","76","33.200000047683716","3","1","3","2","1,0,0,1,1,0,1,0,1","0,0,1,1,0,1,0,1,1","2",""
"","html-keyboard-response","352","89041","0.0-352.0","","","","","null","<img src=""img/flower5.png"" style=""width:200px; border:14px solid green;"">","null","","","","","","","","",""
"","image-keyboard-response","353","89088","0.0-353.0","","","","","45.10000002384186","img/flower5.png","76","46.10000002384186","3","1","3","2","1,0,0,1,1,0,1,0,1","0,0,1,1,0,1,0,1,1","2",""
"","html-keyboard-response","354","89393","0.0-354.0","","","","","null","<img src=""img/flower5.png"" style=""width:200px; border:14px solid green;"">","null","","","","","","","","",""
"","image-keyboard-response","355","89415","0.0-355.0","","","","","21.100000023841858","img/flower5.png","74","22.099999964237213","1","0","3","2","1,0,0,1,1,0,1,0,1","0,0,1,1,0,1,0,1,1","2",""
"","html-keyboard-response","356","89721","0.0-356.0","","","","","null","<img src=""img/flower5.png"" style=""width:200px;border:14px solid red;"">","null","","","","","","","","",""
"","image-keyboard-response","357","89919","0.0-357.0","","","","","197","img/flower2.png","75","198.19999998807907","2","0","2","2","1,0,0,1,1,0,1,0,1","0,0,1,1,0,1,0,1,1","2",""
"","html-keyboard-response","358","90225","0.0-358.0","","","","","null","<img src=""img/flower2.png"" style=""width:200px;border:14px solid red;"">","null","","","","","","","","",""
"","image-keyboard-response","359","90311","0.0-359.0","","","","","84.5","img/flower5.png","74","85.60000002384186","1","0","3","2","1,0,0,1,1,0,1,0,1","0,0,1,1,0,1,0,1,1","2",""
"","html-keyboard-response","360","90619","0.0-360.0","","","","","null","<img src=""img/flower5.png"" style=""width:200px;border:14px solid red;"">","null","","","","","","","","",""
"","image-keyboard-response","361","90639","0.0-361.0","","","","","16.80000001192093","img/flower5.png","74","18.5","1","0","3","2","1,0,0,1,1,0,1,0,1","0,0,1,1,0,1,0,1,1","2",""
"","html-keyboard-response","362","90946","0.0-362.0","","","","","null","<img src=""img/flower5.png"" style=""width:200px;border:14px solid red;"">","null","","","","","","","","",""
"","instructions","363","93505","0.0-363.0","","","","[{""page_index"":0,""viewing_time"":2558}]","2558.5","","","","","","","","","","",""
"","survey-text","364","98634","0.0-364.0","","","","","5125.299999952316","","","","","","","","","","","{""Q0"":""A2NMAOYBBJTO0R""}"
