"success","trial_type","trial_index","time_elapsed","internal_node_id","assignmentID","mturkID","hitID","view_history","rt","stimulus","key_press","reactionTime","a","r","s","cond","reward_cond","reward_cond_actual","reward_matrix_idx","responses"
"true","fullscreen","0","232483","0.0-0.0","39U1BHVTDMD8BSDZF4ABB1PN3HC3TV","A2OU40SUJR40CC","3P520RYKCHSO30HY2QJC6BDLS9Z5UE","","","","","","","","","","","","",""
"","instructions","1","243096","0.0-1.0","39U1BHVTDMD8BSDZF4ABB1PN3HC3TV","A2OU40SUJR40CC","3P520RYKCHSO30HY2QJC6BDLS9Z5UE","[{""page_index"":0,""viewing_time"":1313.6000000000931},{""page_index"":1,""viewing_time"":735.6999999999534},{""page_index"":2,""viewing_time"":615.8999999999069},{""page_index"":3,""viewing_time"":528},{""page_index"":4,""viewing_time"":2343.9000000001397},{""page_index"":5,""viewing_time"":1192.1999999999534},{""page_index"":6,""viewing_time"":2656},{""page_index"":7,""viewing_time"":1224}]","10610.300000000047","","","","","","","","","","",""
"","image-keyboard-response","2","243653","0.0-2.0","39U1BHVTDMD8BSDZF4ABB1PN3HC3TV","A2OU40SUJR40CC","3P520RYKCHSO30HY2QJC6BDLS9Z5UE","","553.6999999999534","img/flower3.png","74","555.7999999998137","1","0","3","2","1,0,0,1,1,0,1,0,1","0,0,1,1,0,1,0,1,1","2",""
"","html-keyboard-response","3","243957","0.0-3.0","39U1BHVTDMD8BSDZF4ABB1PN3HC3TV","A2OU40SUJR40CC","3P520RYKCHSO30HY2QJC6BDLS9Z5UE","","null","<img src=""img/flower3.png"" style=""width:200px;border:14px solid red;"">","null","","","","","","","","",""
"","image-keyboard-response","4","244564","0.0-4.0","39U1BHVTDMD8BSDZF4ABB1PN3HC3TV","A2OU40SUJR40CC","3P520RYKCHSO30HY2QJC6BDLS9Z5UE","","604.3999999999069","img/flower3.png","75","605.8000000000466","2","1","3","2","1,0,0,1,1,0,1,0,1","0,0,1,1,0,1,0,1,1","2",""
"","html-keyboard-response","5","244870","0.0-5.0","39U1BHVTDMD8BSDZF4ABB1PN3HC3TV","A2OU40SUJR40CC","3P520RYKCHSO30HY2QJC6BDLS9Z5UE","","null","<img src=""img/flower3.png"" style=""width:200px; border:14px solid green;"">","null","","","","","","","","",""
"","image-keyboard-response","6","246132","0.0-6.0","39U1BHVTDMD8BSDZF4ABB1PN3HC3TV","A2OU40SUJR40CC","3P520RYKCHSO30HY2QJC6BDLS9Z5UE","","1259.8000000000466","img/flower4.png","75","1261.1999999999534","2","0","1","2","1,0,0,1,1,0,1,0,1","0,0,1,1,0,1,0,1,1","2",""
"","html-keyboard-response","7","246435","0.0-7.0","39U1BHVTDMD8BSDZF4ABB1PN3HC3TV","A2OU40SUJR40CC","3P520RYKCHSO30HY2QJC6BDLS9Z5UE","","null","<img src=""img/flower4.png"" style=""width:200px;border:14px solid red;"">","null","","","","","","","","",""
"","image-keyboard-response","8","247108","0.0-8.0","39U1BHVTDMD8BSDZF4ABB1PN3HC3TV","A2OU40SUJR40CC","3P520RYKCHSO30HY2QJC6BDLS9Z5UE","","670.8000000000466","img/flower1.png","76","672.0999999998603","3","1","2","2","1,0,0,1,1,0,1,0,1","0,0,1,1,0,1,0,1,1","2",""
"","html-keyboard-response","9","247411","0.0-9.0","39U1BHVTDMD8BSDZF4ABB1PN3HC3TV","A2OU40SUJR40CC","3P520RYKCHSO30HY2QJC6BDLS9Z5UE","","null","<img src=""img/flower1.png"" style=""width:200px; border:14px solid green;"">","null","","","","","","","","",""
"","image-keyboard-response","10","248116","0.0-10.0","39U1BHVTDMD8BSDZF4ABB1PN3HC3TV","A2OU40SUJR40CC","3P520RYKCHSO30HY2QJC6BDLS9Z5UE","","702.6999999999534","img/flower3.png","75","704.3000000000466","2","1","3","2","1,0,0,1,1,0,1,0,1","0,0,1,1,0,1,0,1,1","2",""
"","html-keyboard-response","11","248419","0.0-11.0","39U1BHVTDMD8BSDZF4ABB1PN3HC3TV","A2OU40SUJR40CC","3P520RYKCHSO30HY2QJC6BDLS9Z5UE","","null","<img src=""img/flower3.png"" style=""width:200px; border:14px solid green;"">","null","","","","","","","","",""
"","image-keyboard-response","12","249060","0.0-12.0","39U1BHVTDMD8BSDZF4ABB1PN3HC3TV","A2OU40SUJR40CC","3P520RYKCHSO30HY2QJC6BDLS9Z5UE","","639","img/flower4.png","76","640.3999999999069","3","1","1","2","1,0,0,1,1,0,1,0,1","0,0,1,1,0,1,0,1,1","2",""
"","html-keyboard-response","13","249363","0.0-13.0","39U1BHVTDMD8BSDZF4ABB1PN3HC3TV","A2OU40SUJR40CC","3P520RYKCHSO30HY2QJC6BDLS9Z5UE","","null","<img src=""img/flower4.png"" style=""width:200px; border:14px solid green;"">","null","","","","","","","","",""
"","image-keyboard-response","14","249907","0.0-14.0","39U1BHVTDMD8BSDZF4ABB1PN3HC3TV","A2OU40SUJR40CC","3P520RYKCHSO30HY2QJC6BDLS9Z5UE","","543","img/flower4.png","76","544.3999999999069","3","1","1","2","1,0,0,1,1,0,1,0,1","0,0,1,1,0,1,0,1,1","2",""
"","html-keyboard-response","15","250211","0.0-15.0","39U1BHVTDMD8BSDZF4ABB1PN3HC3TV","A2OU40SUJR40CC","3P520RYKCHSO30HY2QJC6BDLS9Z5UE","","null","<img src=""img/flower4.png"" style=""width:200px; border:14px solid green;"">","null","","","","","","","","",""
"","image-keyboard-response","16","250772","0.0-16.0","39U1BHVTDMD8BSDZF4ABB1PN3HC3TV","A2OU40SUJR40CC","3P520RYKCHSO30HY2QJC6BDLS9Z5UE","","559.0999999998603","img/flower3.png","75","560.3999999999069","2","1","3","2","1,0,0,1,1,0,1,0,1","0,0,1,1,0,1,0,1,1","2",""
"","html-keyboard-response","17","251075","0.0-17.0","39U1BHVTDMD8BSDZF4ABB1PN3HC3TV","A2OU40SUJR40CC","3P520RYKCHSO30HY2QJC6BDLS9Z5UE","","null","<img src=""img/flower3.png"" style=""width:200px; border:14px solid green;"">","null","","","","","","","","",""
"","image-keyboard-response","18","251764","0.0-18.0","39U1BHVTDMD8BSDZF4ABB1PN3HC3TV","A2OU40SUJR40CC","3P520RYKCHSO30HY2QJC6BDLS9Z5UE","","687.0999999998603","img/flower4.png","76","688.3999999999069","3","1","1","2","1,0,0,1,1,0,1,0,1","0,0,1,1,0,1,0,1,1","2",""
"","html-keyboard-response","19","252067","0.0-19.0","39U1BHVTDMD8BSDZF4ABB1PN3HC3TV","A2OU40SUJR40CC","3P520RYKCHSO30HY2QJC6BDLS9Z5UE","","null","<img src=""img/flower4.png"" style=""width:200px; border:14px solid green;"">","null","","","","","","","","",""
"","image-keyboard-response","20","252612","0.0-20.0","39U1BHVTDMD8BSDZF4ABB1PN3HC3TV","A2OU40SUJR40CC","3P520RYKCHSO30HY2QJC6BDLS9Z5UE","","543.1999999999534","img/flower3.png","76","544.5","3","1","3","2","1,0,0,1,1,0,1,0,1","0,0,1,1,0,1,0,1,1","2",""
"","html-keyboard-response","21","252915","0.0-21.0","39U1BHVTDMD8BSDZF4ABB1PN3HC3TV","A2OU40SUJR40CC","3P520RYKCHSO30HY2QJC6BDLS9Z5UE","","null","<img src=""img/flower3.png"" style=""width:200px; border:14px solid green;"">","null","","","","","","","","",""
"","image-keyboard-response","22","253412","0.0-22.0","39U1BHVTDMD8BSDZF4ABB1PN3HC3TV","A2OU40SUJR40CC","3P520RYKCHSO30HY2QJC6BDLS9Z5UE","","495.19999999995343","img/flower4.png","76","496.5","3","1","1","2","1,0,0,1,1,0,1,0,1","0,0,1,1,0,1,0,1,1","2",""
"","html-keyboard-response","23","253715","0.0-23.0","39U1BHVTDMD8BSDZF4ABB1PN3HC3TV","A2OU40SUJR40CC","3P520RYKCHSO30HY2QJC6BDLS9Z5UE","","null","<img src=""img/flower4.png"" style=""width:200px; border:14px solid green;"">","null","","","","","","","","",""
"","image-keyboard-response","24","254036","0.0-24.0","39U1BHVTDMD8BSDZF4ABB1PN3HC3TV","A2OU40SUJR40CC","3P520RYKCHSO30HY2QJC6BDLS9Z5UE","","319.4000000001397","img/flower4.png","76","320.5999999998603","3","1","1","2","1,0,0,1,1,0,1,0,1","0,0,1,1,0,1,0,1,1","2",""
"","html-keyboard-response","25","254339","0.0-25.0","39U1BHVTDMD8BSDZF4ABB1PN3HC3TV","A2OU40SUJR40CC","3P520RYKCHSO30HY2QJC6BDLS9Z5UE","","null","<img src=""img/flower4.png"" style=""width:200px; border:14px solid green;"">","null","","","","","","","","",""
"","image-keyboard-response","26","254596","0.0-26.0","39U1BHVTDMD8BSDZF4ABB1PN3HC3TV","A2OU40SUJR40CC","3P520RYKCHSO30HY2QJC6BDLS9Z5UE","","255.39999999990687","img/flower4.png","76","256.69999999995343","3","1","1","2","1,0,0,1,1,0,1,0,1","0,0,1,1,0,1,0,1,1","2",""
"","html-keyboard-response","27","254899","0.0-27.0","39U1BHVTDMD8BSDZF4ABB1PN3HC3TV","A2OU40SUJR40CC","3P520RYKCHSO30HY2QJC6BDLS9Z5UE","","null","<img src=""img/flower4.png"" style=""width:200px; border:14px solid green;"">","null","","","","","","","","",""
"","image-keyboard-response","28","255092","0.0-28.0","39U1BHVTDMD8BSDZF4ABB1PN3HC3TV","A2OU40SUJR40CC","3P520RYKCHSO30HY2QJC6BDLS9Z5UE","","191.39999999990687","img/flower1.png","76","192.69999999995343","3","1","2","2","1,0,0,1,1,0,1,0,1","0,0,1,1,0,1,0,1,1","2",""
"","html-keyboard-response","29","255395","0.0-29.0","39U1BHVTDMD8BSDZF4ABB1PN3HC3TV","A2OU40SUJR40CC","3P520RYKCHSO30HY2QJC6BDLS9Z5UE","","null","<img src=""img/flower1.png"" style=""width:200px; border:14px solid green;"">","null","","","","","","","","",""
"","image-keyboard-response","30","255620","0.0-30.0","39U1BHVTDMD8BSDZF4ABB1PN3HC3TV","A2OU40SUJR40CC","3P520RYKCHSO30HY2QJC6BDLS9Z5UE","","223.39999999990687","img/flower4.png","76","224.60000000009313","3","1","1","2","1,0,0,1,1,0,1,0,1","0,0,1,1,0,1,0,1,1","2",""
"","html-keyboard-response","31","255923","0.0-31.0","39U1BHVTDMD8BSDZF4ABB1PN3HC3TV","A2OU40SUJR40CC","3P520RYKCHSO30HY2QJC6BDLS9Z5UE","","null","<img src=""img/flower4.png"" style=""width:200px; border:14px solid green;"">","null","","","","","","","","",""
"","image-keyboard-response","32","256099","0.0-32.0","39U1BHVTDMD8BSDZF4ABB1PN3HC3TV","A2OU40SUJR40CC","3P520RYKCHSO30HY2QJC6BDLS9Z5UE","","175.5","img/flower1.png","76","176.69999999995343","3","1","2","2","1,0,0,1,1,0,1,0,1","0,0,1,1,0,1,0,1,1","2",""
"","html-keyboard-response","33","256401","0.0-33.0","39U1BHVTDMD8BSDZF4ABB1PN3HC3TV","A2OU40SUJR40CC","3P520RYKCHSO30HY2QJC6BDLS9Z5UE","","null","<img src=""img/flower1.png"" style=""width:200px; border:14px solid green;"">","null","","","","","","","","",""
"","image-keyboard-response","34","256660","0.0-34.0","39U1BHVTDMD8BSDZF4ABB1PN3HC3TV","A2OU40SUJR40CC","3P520RYKCHSO30HY2QJC6BDLS9Z5UE","","256.89999999990687","img/flower3.png","75","258.19999999995343","2","1","3","2","1,0,0,1,1,0,1,0,1","0,0,1,1,0,1,0,1,1","2",""
"","html-keyboard-response","35","256963","0.0-35.0","39U1BHVTDMD8BSDZF4ABB1PN3HC3TV","A2OU40SUJR40CC","3P520RYKCHSO30HY2QJC6BDLS9Z5UE","","null","<img src=""img/flower3.png"" style=""width:200px; border:14px solid green;"">","null","","","","","","","","",""
"","image-keyboard-response","36","257060","0.0-36.0","39U1BHVTDMD8BSDZF4ABB1PN3HC3TV","A2OU40SUJR40CC","3P520RYKCHSO30HY2QJC6BDLS9Z5UE","","94.5","img/flower3.png","76","95.79999999981374","3","1","3","2","1,0,0,1,1,0,1,0,1","0,0,1,1,0,1,0,1,1","2",""
"","html-keyboard-response","37","257362","0.0-37.0","39U1BHVTDMD8BSDZF4ABB1PN3HC3TV","A2OU40SUJR40CC","3P520RYKCHSO30HY2QJC6BDLS9Z5UE","","null","<img src=""img/flower3.png"" style=""width:200px; border:14px solid green;"">","null","","","","","","","","",""
"","image-keyboard-response","38","257540","0.0-38.0","39U1BHVTDMD8BSDZF4ABB1PN3HC3TV","A2OU40SUJR40CC","3P520RYKCHSO30HY2QJC6BDLS9Z5UE","","175.60000000009313","img/flower4.png","75","176.79999999981374","2","0","1","2","1,0,0,1,1,0,1,0,1","0,0,1,1,0,1,0,1,1","2",""
"","html-keyboard-response","39","257841","0.0-39.0","39U1BHVTDMD8BSDZF4ABB1PN3HC3TV","A2OU40SUJR40CC","3P520RYKCHSO30HY2QJC6BDLS9Z5UE","","null","<img src=""img/flower4.png"" style=""width:200px;border:14px solid red;"">","null","","","","","","","","",""
"","image-keyboard-response","40","257972","0.0-40.0","39U1BHVTDMD8BSDZF4ABB1PN3HC3TV","A2OU40SUJR40CC","3P520RYKCHSO30HY2QJC6BDLS9Z5UE","","128.60000000009313","img/flower4.png","76","129.79999999981374","3","1","1","2","1,0,0,1,1,0,1,0,1","0,0,1,1,0,1,0,1,1","2",""
"","html-keyboard-response","41","258273","0.0-41.0","39U1BHVTDMD8BSDZF4ABB1PN3HC3TV","A2OU40SUJR40CC","3P520RYKCHSO30HY2QJC6BDLS9Z5UE","","null","<img src=""img/flower4.png"" style=""width:200px; border:14px solid green;"">","null","","","","","","","","",""
"","image-keyboard-response","42","258452","0.0-42.0","39U1BHVTDMD8BSDZF4ABB1PN3HC3TV","A2OU40SUJR40CC","3P520RYKCHSO30HY2QJC6BDLS9Z5UE","","176.60000000009313","img/flower3.png","76","177.79999999981374","3","1","3","2","1,0,0,1,1,0,1,0,1","0,0,1,1,0,1,0,1,1","2",""
"","html-keyboard-response","43","258754","0.0-43.0","39U1BHVTDMD8BSDZF4ABB1PN3HC3TV","A2OU40SUJR40CC","3P520RYKCHSO30HY2QJC6BDLS9Z5UE","","null","<img src=""img/flower3.png"" style=""width:200px; border:14px solid green;"">","null","","","","","","","","",""
"","image-keyboard-response","44","258900","0.0-44.0","39U1BHVTDMD8BSDZF4ABB1PN3HC3TV","A2OU40SUJR40CC","3P520RYKCHSO30HY2QJC6BDLS9Z5UE","","143.5","img/flower3.png","76","144.89999999990687","3","1","3","2","1,0,0,1,1,0,1,0,1","0,0,1,1,0,1,0,1,1","2",""
"","html-keyboard-response","45","259203","0.0-45.0","39U1BHVTDMD8BSDZF4ABB1PN3HC3TV","A2OU40SUJR40CC","3P520RYKCHSO30HY2QJC6BDLS9Z5UE","","null","<img src=""img/flower3.png"" style=""width:200px; border:14px solid green;"">","null","","","","","","","","",""
"","image-keyboard-response","46","259459","0.0-46.0","39U1BHVTDMD8BSDZF4ABB1PN3HC3TV","A2OU40SUJR40CC","3P520RYKCHSO30HY2QJC6BDLS9Z5UE","","254.5999999998603","img/flower1.png","75","255.80000000004657","2","0","2","2","1,0,0,1,1,0,1,0,1","0,0,1,1,0,1,0,1,1","2",""
"","html-keyboard-response","47","259762","0.0-47.0","39U1BHVTDMD8BSDZF4ABB1PN3HC3TV","A2OU40SUJR40CC","3P520RYKCHSO30HY2QJC6BDLS9Z5UE","","null","<img src=""img/flower1.png"" style=""width:200px;border:14px solid red;"">","null","","","","","","","","",""
"","image-keyboard-response","48","260292","0.0-48.0","39U1BHVTDMD8BSDZF4ABB1PN3HC3TV","A2OU40SUJR40CC","3P520RYKCHSO30HY2QJC6BDLS9Z5UE","","527.6999999999534","img/flower1.png","76","529","3","1","2","2","1,0,0,1,1,0,1,0,1","0,0,1,1,0,1,0,1,1","2",""
"","html-keyboard-response","49","260594","0.0-49.0","39U1BHVTDMD8BSDZF4ABB1PN3HC3TV","A2OU40SUJR40CC","3P520RYKCHSO30HY2QJC6BDLS9Z5UE","","null","<img src=""img/flower1.png"" style=""width:200px; border:14px solid green;"">","null","","","","","","","","",""
"","image-keyboard-response","50","261332","0.0-50.0","39U1BHVTDMD8BSDZF4ABB1PN3HC3TV","A2OU40SUJR40CC","3P520RYKCHSO30HY2QJC6BDLS9Z5UE","","735.5999999998603","img/flower3.png","75","737.1000000000931","2","1","3","2","1,0,0,1,1,0,1,0,1","0,0,1,1,0,1,0,1,1","2",""
"","html-keyboard-response","51","261634","0.0-51.0","39U1BHVTDMD8BSDZF4ABB1PN3HC3TV","A2OU40SUJR40CC","3P520RYKCHSO30HY2QJC6BDLS9Z5UE","","null","<img src=""img/flower3.png"" style=""width:200px; border:14px solid green;"">","null","","","","","","","","",""
"","image-keyboard-response","52","261844","0.0-52.0","39U1BHVTDMD8BSDZF4ABB1PN3HC3TV","A2OU40SUJR40CC","3P520RYKCHSO30HY2QJC6BDLS9Z5UE","","207.80000000004657","img/flower1.png","76","209.0999999998603","3","1","2","2","1,0,0,1,1,0,1,0,1","0,0,1,1,0,1,0,1,1","2",""
"","html-keyboard-response","53","262147","0.0-53.0","39U1BHVTDMD8BSDZF4ABB1PN3HC3TV","A2OU40SUJR40CC","3P520RYKCHSO30HY2QJC6BDLS9Z5UE","","null","<img src=""img/flower1.png"" style=""width:200px; border:14px solid green;"">","null","","","","","","","","",""
"","image-keyboard-response","54","262420","0.0-54.0","39U1BHVTDMD8BSDZF4ABB1PN3HC3TV","A2OU40SUJR40CC","3P520RYKCHSO30HY2QJC6BDLS9Z5UE","","270.9000000001397","img/flower1.png","76","272.20000000018626","3","1","2","2","1,0,0,1,1,0,1,0,1","0,0,1,1,0,1,0,1,1","2",""
"","html-keyboard-response","55","262723","0.0-55.0","39U1BHVTDMD8BSDZF4ABB1PN3HC3TV","A2OU40SUJR40CC","3P520RYKCHSO30HY2QJC6BDLS9Z5UE","","null","<img src=""img/flower1.png"" style=""width:200px; border:14px solid green;"">","null","","","","","","","","",""
"","image-keyboard-response","56","262868","0.0-56.0","39U1BHVTDMD8BSDZF4ABB1PN3HC3TV","A2OU40SUJR40CC","3P520RYKCHSO30HY2QJC6BDLS9Z5UE","","142.79999999981374","img/flower4.png","76","144.0999999998603","3","1","1","2","1,0,0,1,1,0,1,0,1","0,0,1,1,0,1,0,1,1","2",""
"","html-keyboard-response","57","263171","0.0-57.0","39U1BHVTDMD8BSDZF4ABB1PN3HC3TV","A2OU40SUJR40CC","3P520RYKCHSO30HY2QJC6BDLS9Z5UE","","null","<img src=""img/flower4.png"" style=""width:200px; border:14px solid green;"">","null","","","","","","","","",""
"","image-keyboard-response","58","263476","0.0-58.0","39U1BHVTDMD8BSDZF4ABB1PN3HC3TV","A2OU40SUJR40CC","3P520RYKCHSO30HY2QJC6BDLS9Z5UE","","302.30000000004657","img/flower1.png","76","304","3","1","2","2","1,0,0,1,1,0,1,0,1","0,0,1,1,0,1,0,1,1","2",""
"","html-keyboard-response","59","263778","0.0-59.0","39U1BHVTDMD8BSDZF4ABB1PN3HC3TV","A2OU40SUJR40CC","3P520RYKCHSO30HY2QJC6BDLS9Z5UE","","null","<img src=""img/flower1.png"" style=""width:200px; border:14px solid green;"">","null","","","","","","","","",""
"","image-keyboard-response","60","264324","0.0-60.0","39U1BHVTDMD8BSDZF4ABB1PN3HC3TV","A2OU40SUJR40CC","3P520RYKCHSO30HY2QJC6BDLS9Z5UE","","543.8999999999069","img/flower4.png","76","545.1000000000931","3","1","1","2","1,0,0,1,1,0,1,0,1","0,0,1,1,0,1,0,1,1","2",""
"","html-keyboard-response","61","264627","0.0-61.0","39U1BHVTDMD8BSDZF4ABB1PN3HC3TV","A2OU40SUJR40CC","3P520RYKCHSO30HY2QJC6BDLS9Z5UE","","null","<img src=""img/flower4.png"" style=""width:200px; border:14px solid green;"">","null","","","","","","","","",""
"","image-keyboard-response","62","264996","0.0-62.0","39U1BHVTDMD8BSDZF4ABB1PN3HC3TV","A2OU40SUJR40CC","3P520RYKCHSO30HY2QJC6BDLS9Z5UE","","367","img/flower4.png","76","368.4000000001397","3","1","1","2","1,0,0,1,1,0,1,0,1","0,0,1,1,0,1,0,1,1","2",""
"","html-keyboard-response","63","265299","0.0-63.0","39U1BHVTDMD8BSDZF4ABB1PN3HC3TV","A2OU40SUJR40CC","3P520RYKCHSO30HY2QJC6BDLS9Z5UE","","null","<img src=""img/flower4.png"" style=""width:200px; border:14px solid green;"">","null","","","","","","","","",""
"","image-keyboard-response","64","265747","0.0-64.0","39U1BHVTDMD8BSDZF4ABB1PN3HC3TV","A2OU40SUJR40CC","3P520RYKCHSO30HY2QJC6BDLS9Z5UE","","446.89999999990687","img/flower1.png","75","448.19999999995343","2","0","2","2","1,0,0,1,1,0,1,0,1","0,0,1,1,0,1,0,1,1","2",""
"","html-keyboard-response","65","266051","0.0-65.0","39U1BHVTDMD8BSDZF4ABB1PN3HC3TV","A2OU40SUJR40CC","3P520RYKCHSO30HY2QJC6BDLS9Z5UE","","null","<img src=""img/flower1.png"" style=""width:200px;border:14px solid red;"">","null","","","","","","","","",""
"","image-keyboard-response","66","266356","0.0-66.0","39U1BHVTDMD8BSDZF4ABB1PN3HC3TV","A2OU40SUJR40CC","3P520RYKCHSO30HY2QJC6BDLS9Z5UE","","302.79999999981374","img/flower1.png","76","304.0999999998603","3","1","2","2","1,0,0,1,1,0,1,0,1","0,0,1,1,0,1,0,1,1","2",""
"","html-keyboard-response","67","266658","0.0-67.0","39U1BHVTDMD8BSDZF4ABB1PN3HC3TV","A2OU40SUJR40CC","3P520RYKCHSO30HY2QJC6BDLS9Z5UE","","null","<img src=""img/flower1.png"" style=""width:200px; border:14px solid green;"">","null","","","","","","","","",""
"","image-keyboard-response","68","266884","0.0-68.0","39U1BHVTDMD8BSDZF4ABB1PN3HC3TV","A2OU40SUJR40CC","3P520RYKCHSO30HY2QJC6BDLS9Z5UE","","224","img/flower4.png","76","225.39999999990687","3","1","1","2","1,0,0,1,1,0,1,0,1","0,0,1,1,0,1,0,1,1","2",""
"","html-keyboard-response","69","267187","0.0-69.0","39U1BHVTDMD8BSDZF4ABB1PN3HC3TV","A2OU40SUJR40CC","3P520RYKCHSO30HY2QJC6BDLS9Z5UE","","null","<img src=""img/flower4.png"" style=""width:200px; border:14px solid green;"">","null","","","","","","","","",""
"","image-keyboard-response","70","267411","0.0-70.0","39U1BHVTDMD8BSDZF4ABB1PN3HC3TV","A2OU40SUJR40CC","3P520RYKCHSO30HY2QJC6BDLS9Z5UE","","222.69999999995343","img/flower4.png","74","224.10000000009313","1","0","1","2","1,0,0,1,1,0,1,0,1","0,0,1,1,0,1,0,1,1","2",""
"","html-keyboard-response","71","267713","0.0-71.0","39U1BHVTDMD8BSDZF4ABB1PN3HC3TV","A2OU40SUJR40CC","3P520RYKCHSO30HY2QJC6BDLS9Z5UE","","null","<img src=""img/flower4.png"" style=""width:200px;border:14px solid red;"">","null","","","","","","","","",""
"","image-keyboard-response","72","267956","0.0-72.0","39U1BHVTDMD8BSDZF4ABB1PN3HC3TV","A2OU40SUJR40CC","3P520RYKCHSO30HY2QJC6BDLS9Z5UE","","240.89999999990687","img/flower1.png","74","242.19999999995343","1","1","2","2","1,0,0,1,1,0,1,0,1","0,0,1,1,0,1,0,1,1","2",""
"","html-keyboard-response","73","268259","0.0-73.0","39U1BHVTDMD8BSDZF4ABB1PN3HC3TV","A2OU40SUJR40CC","3P520RYKCHSO30HY2QJC6BDLS9Z5UE","","null","<img src=""img/flower1.png"" style=""width:200px; border:14px solid green;"">","null","","","","","","","","",""
"","image-keyboard-response","74","269283","0.0-74.0","39U1BHVTDMD8BSDZF4ABB1PN3HC3TV","A2OU40SUJR40CC","3P520RYKCHSO30HY2QJC6BDLS9Z5UE","","1022.8999999999069","img/flower1.png","76","1024.1000000000931","3","1","2","2","1,0,0,1,1,0,1,0,1","0,0,1,1,0,1,0,1,1","2",""
"","html-keyboard-response","75","269587","0.0-75.0","39U1BHVTDMD8BSDZF4ABB1PN3HC3TV","A2OU40SUJR40CC","3P520RYKCHSO30HY2QJC6BDLS9Z5UE","","null","<img src=""img/flower1.png"" style=""width:200px; border:14px solid green;"">","null","","","","","","","","",""
"","image-keyboard-response","76","269875","0.0-76.0","39U1BHVTDMD8BSDZF4ABB1PN3HC3TV","A2OU40SUJR40CC","3P520RYKCHSO30HY2QJC6BDLS9Z5UE","","286.9000000001397","img/flower1.png","76","288.19999999995343","3","1","2","2","1,0,0,1,1,0,1,0,1","0,0,1,1,0,1,0,1,1","2",""
"","html-keyboard-response","77","270179","0.0-77.0","39U1BHVTDMD8BSDZF4ABB1PN3HC3TV","A2OU40SUJR40CC","3P520RYKCHSO30HY2QJC6BDLS9Z5UE","","null","<img src=""img/flower1.png"" style=""width:200px; border:14px solid green;"">","null","","","","","","","","",""
"","image-keyboard-response","78","270404","0.0-78.0","39U1BHVTDMD8BSDZF4ABB1PN3HC3TV","A2OU40SUJR40CC","3P520RYKCHSO30HY2QJC6BDLS9Z5UE","","223.20000000018626","img/flower3.png","74","224.5","1","0","3","2","1,0,0,1,1,0,1,0,1","0,0,1,1,0,1,0,1,1","2",""
"","html-keyboard-response","79","270706","0.0-79.0","39U1BHVTDMD8BSDZF4ABB1PN3HC3TV","A2OU40SUJR40CC","3P520RYKCHSO30HY2QJC6BDLS9Z5UE","","null","<img src=""img/flower3.png"" style=""width:200px;border:14px solid red;"">","null","","","","","","","","",""
"","image-keyboard-response","80","270996","0.0-80.0","39U1BHVTDMD8BSDZF4ABB1PN3HC3TV","A2OU40SUJR40CC","3P520RYKCHSO30HY2QJC6BDLS9Z5UE","","288.10000000009313","img/flower1.png","76","289.5","3","1","2","2","1,0,0,1,1,0,1,0,1","0,0,1,1,0,1,0,1,1","2",""
"","html-keyboard-response","81","271299","0.0-81.0","39U1BHVTDMD8BSDZF4ABB1PN3HC3TV","A2OU40SUJR40CC","3P520RYKCHSO30HY2QJC6BDLS9Z5UE","","null","<img src=""img/flower1.png"" style=""width:200px; border:14px solid green;"">","null","","","","","","","","",""
"","image-keyboard-response","82","271876","0.0-82.0","39U1BHVTDMD8BSDZF4ABB1PN3HC3TV","A2OU40SUJR40CC","3P520RYKCHSO30HY2QJC6BDLS9Z5UE","","575","img/flower3.png","76","576.6000000000931","3","1","3","2","1,0,0,1,1,0,1,0,1","0,0,1,1,0,1,0,1,1","2",""
"","html-keyboard-response","83","272179","0.0-83.0","39U1BHVTDMD8BSDZF4ABB1PN3HC3TV","A2OU40SUJR40CC","3P520RYKCHSO30HY2QJC6BDLS9Z5UE","","null","<img src=""img/flower3.png"" style=""width:200px; border:14px solid green;"">","null","","","","","","","","",""
"","image-keyboard-response","84","272676","0.0-84.0","39U1BHVTDMD8BSDZF4ABB1PN3HC3TV","A2OU40SUJR40CC","3P520RYKCHSO30HY2QJC6BDLS9Z5UE","","495.20000000018626","img/flower4.png","76","496.70000000018626","3","1","1","2","1,0,0,1,1,0,1,0,1","0,0,1,1,0,1,0,1,1","2",""
"","html-keyboard-response","85","272979","0.0-85.0","39U1BHVTDMD8BSDZF4ABB1PN3HC3TV","A2OU40SUJR40CC","3P520RYKCHSO30HY2QJC6BDLS9Z5UE","","null","<img src=""img/flower4.png"" style=""width:200px; border:14px solid green;"">","null","","","","","","","","",""
"","image-keyboard-response","86","273524","0.0-86.0","39U1BHVTDMD8BSDZF4ABB1PN3HC3TV","A2OU40SUJR40CC","3P520RYKCHSO30HY2QJC6BDLS9Z5UE","","543.3000000000466","img/flower3.png","76","544.5","3","1","3","2","1,0,0,1,1,0,1,0,1","0,0,1,1,0,1,0,1,1","2",""
"","html-keyboard-response","87","273827","0.0-87.0","39U1BHVTDMD8BSDZF4ABB1PN3HC3TV","A2OU40SUJR40CC","3P520RYKCHSO30HY2QJC6BDLS9Z5UE","","null","<img src=""img/flower3.png"" style=""width:200px; border:14px solid green;"">","null","","","","","","","","",""
"","image-keyboard-response","88","274276","0.0-88.0","39U1BHVTDMD8BSDZF4ABB1PN3HC3TV","A2OU40SUJR40CC","3P520RYKCHSO30HY2QJC6BDLS9Z5UE","","447.30000000004657","img/flower4.png","76","448.69999999995343","3","1","1","2","1,0,0,1,1,0,1,0,1","0,0,1,1,0,1,0,1,1","2",""
"","html-keyboard-response","89","274579","0.0-89.0","39U1BHVTDMD8BSDZF4ABB1PN3HC3TV","A2OU40SUJR40CC","3P520RYKCHSO30HY2QJC6BDLS9Z5UE","","null","<img src=""img/flower4.png"" style=""width:200px; border:14px solid green;"">","null","","","","","","","","",""
"","image-keyboard-response","90","274996","0.0-90.0","39U1BHVTDMD8BSDZF4ABB1PN3HC3TV","A2OU40SUJR40CC","3P520RYKCHSO30HY2QJC6BDLS9Z5UE","","415.5","img/flower3.png","76","416.80000000004657","3","1","3","2","1,0,0,1,1,0,1,0,1","0,0,1,1,0,1,0,1,1","2",""
"","html-keyboard-response","91","275298","0.0-91.0","39U1BHVTDMD8BSDZF4ABB1PN3HC3TV","A2OU40SUJR40CC","3P520RYKCHSO30HY2QJC6BDLS9Z5UE","","null","<img src=""img/flower3.png"" style=""width:200px; border:14px solid green;"">","null","","","","","","","","",""
"","image-keyboard-response","92","275716","0.0-92.0","39U1BHVTDMD8BSDZF4ABB1PN3HC3TV","A2OU40SUJR40CC","3P520RYKCHSO30HY2QJC6BDLS9Z5UE","","416.60000000009313","img/flower4.png","76","417.80000000004657","3","1","1","2","1,0,0,1,1,0,1,0,1","0,0,1,1,0,1,0,1,1","2",""
"","html-keyboard-response","93","276018","0.0-93.0","39U1BHVTDMD8BSDZF4ABB1PN3HC3TV","A2OU40SUJR40CC","3P520RYKCHSO30HY2QJC6BDLS9Z5UE","","null","<img src=""img/flower4.png"" style=""width:200px; border:14px solid green;"">","null","","","","","","","","",""
"","image-keyboard-response","94","276324","0.0-94.0","39U1BHVTDMD8BSDZF4ABB1PN3HC3TV","A2OU40SUJR40CC","3P520RYKCHSO30HY2QJC6BDLS9Z5UE","","304.5","img/flower1.png","76","305.69999999995343","3","1","2","2","1,0,0,1,1,0,1,0,1","0,0,1,1,0,1,0,1,1","2",""
"","html-keyboard-response","95","276627","0.0-95.0","39U1BHVTDMD8BSDZF4ABB1PN3HC3TV","A2OU40SUJR40CC","3P520RYKCHSO30HY2QJC6BDLS9Z5UE","","null","<img src=""img/flower1.png"" style=""width:200px; border:14px solid green;"">","null","","","","","","","","",""
"","image-keyboard-response","96","276932","0.0-96.0","39U1BHVTDMD8BSDZF4ABB1PN3HC3TV","A2OU40SUJR40CC","3P520RYKCHSO30HY2QJC6BDLS9Z5UE","","303.80000000004657","img/flower1.png","76","305.0999999998603","3","1","2","2","1,0,0,1,1,0,1,0,1","0,0,1,1,0,1,0,1,1","2",""
"","html-keyboard-response","97","277235","0.0-97.0","39U1BHVTDMD8BSDZF4ABB1PN3HC3TV","A2OU40SUJR40CC","3P520RYKCHSO30HY2QJC6BDLS9Z5UE","","null","<img src=""img/flower1.png"" style=""width:200px; border:14px solid green;"">","null","","","","","","","","",""
"","image-keyboard-response","98","277700","0.0-98.0","39U1BHVTDMD8BSDZF4ABB1PN3HC3TV","A2OU40SUJR40CC","3P520RYKCHSO30HY2QJC6BDLS9Z5UE","","463.5","img/flower4.png","76","464.79999999981374","3","1","1","2","1,0,0,1,1,0,1,0,1","0,0,1,1,0,1,0,1,1","2",""
"","html-keyboard-response","99","278001","0.0-99.0","39U1BHVTDMD8BSDZF4ABB1PN3HC3TV","A2OU40SUJR40CC","3P520RYKCHSO30HY2QJC6BDLS9Z5UE","","null","<img src=""img/flower4.png"" style=""width:200px; border:14px solid green;"">","null","","","","","","","","",""
"","image-keyboard-response","100","278292","0.0-100.0","39U1BHVTDMD8BSDZF4ABB1PN3HC3TV","A2OU40SUJR40CC","3P520RYKCHSO30HY2QJC6BDLS9Z5UE","","288.70000000018626","img/flower1.png","76","290","3","1","2","2","1,0,0,1,1,0,1,0,1","0,0,1,1,0,1,0,1,1","2",""
"","html-keyboard-response","101","278594","0.0-101.0","39U1BHVTDMD8BSDZF4ABB1PN3HC3TV","A2OU40SUJR40CC","3P520RYKCHSO30HY2QJC6BDLS9Z5UE","","null","<img src=""img/flower1.png"" style=""width:200px; border:14px solid green;"">","null","","","","","","","","",""
"","image-keyboard-response","102","279124","0.0-102.0","39U1BHVTDMD8BSDZF4ABB1PN3HC3TV","A2OU40SUJR40CC","3P520RYKCHSO30HY2QJC6BDLS9Z5UE","","527.6999999999534","img/flower1.png","74","529","1","1","2","2","1,0,0,1,1,0,1,0,1","0,0,1,1,0,1,0,1,1","2",""
"","html-keyboard-response","103","279428","0.0-103.0","39U1BHVTDMD8BSDZF4ABB1PN3HC3TV","A2OU40SUJR40CC","3P520RYKCHSO30HY2QJC6BDLS9Z5UE","","null","<img src=""img/flower1.png"" style=""width:200px; border:14px solid green;"">","null","","","","","","","","",""
"","image-keyboard-response","104","279892","0.0-104.0","39U1BHVTDMD8BSDZF4ABB1PN3HC3TV","A2OU40SUJR40CC","3P520RYKCHSO30HY2QJC6BDLS9Z5UE","","462.39999999990687","img/flower3.png","76","463.69999999995343","3","1","3","2","1,0,0,1,1,0,1,0,1","0,0,1,1,0,1,0,1,1","2",""
"","html-keyboard-response","105","280194","0.0-105.0","39U1BHVTDMD8BSDZF4ABB1PN3HC3TV","A2OU40SUJR40CC","3P520RYKCHSO30HY2QJC6BDLS9Z5UE","","null","<img src=""img/flower3.png"" style=""width:200px; border:14px solid green;"">","null","","","","","","","","",""
"","image-keyboard-response","106","280532","0.0-106.0","39U1BHVTDMD8BSDZF4ABB1PN3HC3TV","A2OU40SUJR40CC","3P520RYKCHSO30HY2QJC6BDLS9Z5UE","","335.69999999995343","img/flower3.png","76","337.10000000009313","3","1","3","2","1,0,0,1,1,0,1,0,1","0,0,1,1,0,1,0,1,1","2",""
"","html-keyboard-response","107","280834","0.0-107.0","39U1BHVTDMD8BSDZF4ABB1PN3HC3TV","A2OU40SUJR40CC","3P520RYKCHSO30HY2QJC6BDLS9Z5UE","","null","<img src=""img/flower3.png"" style=""width:200px; border:14px solid green;"">","null","","","","","","","","",""
"","image-keyboard-response","108","281300","0.0-108.0","39U1BHVTDMD8BSDZF4ABB1PN3HC3TV","A2OU40SUJR40CC","3P520RYKCHSO30HY2QJC6BDLS9Z5UE","","463.5999999998603","img/flower1.png","74","465.10000000009313","1","1","2","2","1,0,0,1,1,0,1,0,1","0,0,1,1,0,1,0,1,1","2",""
"","html-keyboard-response","109","281602","0.0-109.0","39U1BHVTDMD8BSDZF4ABB1PN3HC3TV","A2OU40SUJR40CC","3P520RYKCHSO30HY2QJC6BDLS9Z5UE","","null","<img src=""img/flower1.png"" style=""width:200px; border:14px solid green;"">","null","","","","","","","","",""
"","image-keyboard-response","110","282131","0.0-110.0","39U1BHVTDMD8BSDZF4ABB1PN3HC3TV","A2OU40SUJR40CC","3P520RYKCHSO30HY2QJC6BDLS9Z5UE","","527.6999999999534","img/flower1.png","76","529","3","1","2","2","1,0,0,1,1,0,1,0,1","0,0,1,1,0,1,0,1,1","2",""
"","html-keyboard-response","111","282433","0.0-111.0","39U1BHVTDMD8BSDZF4ABB1PN3HC3TV","A2OU40SUJR40CC","3P520RYKCHSO30HY2QJC6BDLS9Z5UE","","null","<img src=""img/flower1.png"" style=""width:200px; border:14px solid green;"">","null","","","","","","","","",""
"","image-keyboard-response","112","282755","0.0-112.0","39U1BHVTDMD8BSDZF4ABB1PN3HC3TV","A2OU40SUJR40CC","3P520RYKCHSO30HY2QJC6BDLS9Z5UE","","320.69999999995343","img/flower3.png","74","322.0999999998603","1","0","3","2","1,0,0,1,1,0,1,0,1","0,0,1,1,0,1,0,1,1","2",""
"","html-keyboard-response","113","283058","0.0-113.0","39U1BHVTDMD8BSDZF4ABB1PN3HC3TV","A2OU40SUJR40CC","3P520RYKCHSO30HY2QJC6BDLS9Z5UE","","null","<img src=""img/flower3.png"" style=""width:200px;border:14px solid red;"">","null","","","","","","","","",""
"","image-keyboard-response","114","283523","0.0-114.0","39U1BHVTDMD8BSDZF4ABB1PN3HC3TV","A2OU40SUJR40CC","3P520RYKCHSO30HY2QJC6BDLS9Z5UE","","463.89999999990687","img/flower3.png","76","465.19999999995343","3","1","3","2","1,0,0,1,1,0,1,0,1","0,0,1,1,0,1,0,1,1","2",""
"","html-keyboard-response","115","283826","0.0-115.0","39U1BHVTDMD8BSDZF4ABB1PN3HC3TV","A2OU40SUJR40CC","3P520RYKCHSO30HY2QJC6BDLS9Z5UE","","null","<img src=""img/flower3.png"" style=""width:200px; border:14px solid green;"">","null","","","","","","","","",""
"","image-keyboard-response","116","284003","0.0-116.0","39U1BHVTDMD8BSDZF4ABB1PN3HC3TV","A2OU40SUJR40CC","3P520RYKCHSO30HY2QJC6BDLS9Z5UE","","175.89999999990687","img/flower1.png","76","177.19999999995343","3","1","2","2","1,0,0,1,1,0,1,0,1","0,0,1,1,0,1,0,1,1","2",""
"","html-keyboard-response","117","284321","0.0-117.0","39U1BHVTDMD8BSDZF4ABB1PN3HC3TV","A2OU40SUJR40CC","3P520RYKCHSO30HY2QJC6BDLS9Z5UE","","null","<img src=""img/flower1.png"" style=""width:200px; border:14px solid green;"">","null","","","","","","","","",""
"","image-keyboard-response","118","284835","0.0-118.0","39U1BHVTDMD8BSDZF4ABB1PN3HC3TV","A2OU40SUJR40CC","3P520RYKCHSO30HY2QJC6BDLS9Z5UE","","512.7999999998137","img/flower4.png","76","514.1000000000931","3","1","1","2","1,0,0,1,1,0,1,0,1","0,0,1,1,0,1,0,1,1","2",""
"","html-keyboard-response","119","285138","0.0-119.0","39U1BHVTDMD8BSDZF4ABB1PN3HC3TV","A2OU40SUJR40CC","3P520RYKCHSO30HY2QJC6BDLS9Z5UE","","null","<img src=""img/flower4.png"" style=""width:200px; border:14px solid green;"">","null","","","","","","","","",""
"","image-keyboard-response","120","285235","0.0-120.0","39U1BHVTDMD8BSDZF4ABB1PN3HC3TV","A2OU40SUJR40CC","3P520RYKCHSO30HY2QJC6BDLS9Z5UE","","96","img/flower3.png","76","97.19999999995343","3","1","3","2","1,0,0,1,1,0,1,0,1","0,0,1,1,0,1,0,1,1","2",""
"","html-keyboard-response","121","285539","0.0-121.0","39U1BHVTDMD8BSDZF4ABB1PN3HC3TV","A2OU40SUJR40CC","3P520RYKCHSO30HY2QJC6BDLS9Z5UE","","null","<img src=""img/flower3.png"" style=""width:200px; border:14px solid green;"">","null","","","","","","","","",""
"","image-keyboard-response","122","285715","0.0-122.0","39U1BHVTDMD8BSDZF4ABB1PN3HC3TV","A2OU40SUJR40CC","3P520RYKCHSO30HY2QJC6BDLS9Z5UE","","175","img/flower4.png","76","176.5","3","1","1","2","1,0,0,1,1,0,1,0,1","0,0,1,1,0,1,0,1,1","2",""
"","html-keyboard-response","123","286019","0.0-123.0","39U1BHVTDMD8BSDZF4ABB1PN3HC3TV","A2OU40SUJR40CC","3P520RYKCHSO30HY2QJC6BDLS9Z5UE","","null","<img src=""img/flower4.png"" style=""width:200px; border:14px solid green;"">","null","","","","","","","","",""
"","image-keyboard-response","124","286324","0.0-124.0","39U1BHVTDMD8BSDZF4ABB1PN3HC3TV","A2OU40SUJR40CC","3P520RYKCHSO30HY2QJC6BDLS9Z5UE","","303.20000000018626","img/flower4.png","76","304.5","3","1","1","2","1,0,0,1,1,0,1,0,1","0,0,1,1,0,1,0,1,1","2",""
"","html-keyboard-response","125","286627","0.0-125.0","39U1BHVTDMD8BSDZF4ABB1PN3HC3TV","A2OU40SUJR40CC","3P520RYKCHSO30HY2QJC6BDLS9Z5UE","","null","<img src=""img/flower4.png"" style=""width:200px; border:14px solid green;"">","null","","","","","","","","",""
"","image-keyboard-response","126","287012","0.0-126.0","39U1BHVTDMD8BSDZF4ABB1PN3HC3TV","A2OU40SUJR40CC","3P520RYKCHSO30HY2QJC6BDLS9Z5UE","","383.30000000004657","img/flower1.png","76","384.69999999995343","3","1","2","2","1,0,0,1,1,0,1,0,1","0,0,1,1,0,1,0,1,1","2",""
"","html-keyboard-response","127","287314","0.0-127.0","39U1BHVTDMD8BSDZF4ABB1PN3HC3TV","A2OU40SUJR40CC","3P520RYKCHSO30HY2QJC6BDLS9Z5UE","","null","<img src=""img/flower1.png"" style=""width:200px; border:14px solid green;"">","null","","","","","","","","",""
"","image-keyboard-response","128","287843","0.0-128.0","39U1BHVTDMD8BSDZF4ABB1PN3HC3TV","A2OU40SUJR40CC","3P520RYKCHSO30HY2QJC6BDLS9Z5UE","","528","img/flower3.png","76","529.3999999999069","3","1","3","2","1,0,0,1,1,0,1,0,1","0,0,1,1,0,1,0,1,1","2",""
"","html-keyboard-response","129","288146","0.0-129.0","39U1BHVTDMD8BSDZF4ABB1PN3HC3TV","A2OU40SUJR40CC","3P520RYKCHSO30HY2QJC6BDLS9Z5UE","","null","<img src=""img/flower3.png"" style=""width:200px; border:14px solid green;"">","null","","","","","","","","",""
"","image-keyboard-response","130","288355","0.0-130.0","39U1BHVTDMD8BSDZF4ABB1PN3HC3TV","A2OU40SUJR40CC","3P520RYKCHSO30HY2QJC6BDLS9Z5UE","","208.19999999995343","img/flower4.png","76","209.39999999990687","3","1","1","2","1,0,0,1,1,0,1,0,1","0,0,1,1,0,1,0,1,1","2",""
"","html-keyboard-response","131","288659","0.0-131.0","39U1BHVTDMD8BSDZF4ABB1PN3HC3TV","A2OU40SUJR40CC","3P520RYKCHSO30HY2QJC6BDLS9Z5UE","","null","<img src=""img/flower4.png"" style=""width:200px; border:14px solid green;"">","null","","","","","","","","",""
"","image-keyboard-response","132","289043","0.0-132.0","39U1BHVTDMD8BSDZF4ABB1PN3HC3TV","A2OU40SUJR40CC","3P520RYKCHSO30HY2QJC6BDLS9Z5UE","","381.39999999990687","img/flower3.png","76","382.80000000004657","3","1","3","2","1,0,0,1,1,0,1,0,1","0,0,1,1,0,1,0,1,1","2",""
"","html-keyboard-response","133","289347","0.0-133.0","39U1BHVTDMD8BSDZF4ABB1PN3HC3TV","A2OU40SUJR40CC","3P520RYKCHSO30HY2QJC6BDLS9Z5UE","","null","<img src=""img/flower3.png"" style=""width:200px; border:14px solid green;"">","null","","","","","","","","",""
"","image-keyboard-response","134","289731","0.0-134.0","39U1BHVTDMD8BSDZF4ABB1PN3HC3TV","A2OU40SUJR40CC","3P520RYKCHSO30HY2QJC6BDLS9Z5UE","","383.19999999995343","img/flower4.png","76","384.5","3","1","1","2","1,0,0,1,1,0,1,0,1","0,0,1,1,0,1,0,1,1","2",""
"","html-keyboard-response","135","290035","0.0-135.0","39U1BHVTDMD8BSDZF4ABB1PN3HC3TV","A2OU40SUJR40CC","3P520RYKCHSO30HY2QJC6BDLS9Z5UE","","null","<img src=""img/flower4.png"" style=""width:200px; border:14px solid green;"">","null","","","","","","","","",""
"","image-keyboard-response","136","290292","0.0-136.0","39U1BHVTDMD8BSDZF4ABB1PN3HC3TV","A2OU40SUJR40CC","3P520RYKCHSO30HY2QJC6BDLS9Z5UE","","255.5","img/flower3.png","76","256.80000000004657","3","1","3","2","1,0,0,1,1,0,1,0,1","0,0,1,1,0,1,0,1,1","2",""
"","html-keyboard-response","137","290601","0.0-137.0","39U1BHVTDMD8BSDZF4ABB1PN3HC3TV","A2OU40SUJR40CC","3P520RYKCHSO30HY2QJC6BDLS9Z5UE","","null","<img src=""img/flower3.png"" style=""width:200px; border:14px solid green;"">","null","","","","","","","","",""
"","image-keyboard-response","138","290947","0.0-138.0","39U1BHVTDMD8BSDZF4ABB1PN3HC3TV","A2OU40SUJR40CC","3P520RYKCHSO30HY2QJC6BDLS9Z5UE","","345.19999999995343","img/flower3.png","76","346.5999999998603","3","1","3","2","1,0,0,1,1,0,1,0,1","0,0,1,1,0,1,0,1,1","2",""
"","html-keyboard-response","139","291251","0.0-139.0","39U1BHVTDMD8BSDZF4ABB1PN3HC3TV","A2OU40SUJR40CC","3P520RYKCHSO30HY2QJC6BDLS9Z5UE","","null","<img src=""img/flower3.png"" style=""width:200px; border:14px solid green;"">","null","","","","","","","","",""
"","image-keyboard-response","140","291603","0.0-140.0","39U1BHVTDMD8BSDZF4ABB1PN3HC3TV","A2OU40SUJR40CC","3P520RYKCHSO30HY2QJC6BDLS9Z5UE","","351.19999999995343","img/flower3.png","76","352.5999999998603","3","1","3","2","1,0,0,1,1,0,1,0,1","0,0,1,1,0,1,0,1,1","2",""
"","html-keyboard-response","141","291911","0.0-141.0","39U1BHVTDMD8BSDZF4ABB1PN3HC3TV","A2OU40SUJR40CC","3P520RYKCHSO30HY2QJC6BDLS9Z5UE","","null","<img src=""img/flower3.png"" style=""width:200px; border:14px solid green;"">","null","","","","","","","","",""
"","image-keyboard-response","142","292147","0.0-142.0","39U1BHVTDMD8BSDZF4ABB1PN3HC3TV","A2OU40SUJR40CC","3P520RYKCHSO30HY2QJC6BDLS9Z5UE","","234.5","img/flower4.png","76","235.80000000004657","3","1","1","2","1,0,0,1,1,0,1,0,1","0,0,1,1,0,1,0,1,1","2",""
"","html-keyboard-response","143","292454","0.0-143.0","39U1BHVTDMD8BSDZF4ABB1PN3HC3TV","A2OU40SUJR40CC","3P520RYKCHSO30HY2QJC6BDLS9Z5UE","","null","<img src=""img/flower4.png"" style=""width:200px; border:14px solid green;"">","null","","","","","","","","",""
"","image-keyboard-response","144","293011","0.0-144.0","39U1BHVTDMD8BSDZF4ABB1PN3HC3TV","A2OU40SUJR40CC","3P520RYKCHSO30HY2QJC6BDLS9Z5UE","","555.3999999999069","img/flower1.png","74","556.6000000000931","1","1","2","2","1,0,0,1,1,0,1,0,1","0,0,1,1,0,1,0,1,1","2",""
"","html-keyboard-response","145","293314","0.0-145.0","39U1BHVTDMD8BSDZF4ABB1PN3HC3TV","A2OU40SUJR40CC","3P520RYKCHSO30HY2QJC6BDLS9Z5UE","","null","<img src=""img/flower1.png"" style=""width:200px; border:14px solid green;"">","null","","","","","","","","",""
"","image-keyboard-response","146","293939","0.0-146.0","39U1BHVTDMD8BSDZF4ABB1PN3HC3TV","A2OU40SUJR40CC","3P520RYKCHSO30HY2QJC6BDLS9Z5UE","","623.3999999999069","img/flower1.png","74","624.6999999999534","1","1","2","2","1,0,0,1,1,0,1,0,1","0,0,1,1,0,1,0,1,1","2",""
"","html-keyboard-response","147","294242","0.0-147.0","39U1BHVTDMD8BSDZF4ABB1PN3HC3TV","A2OU40SUJR40CC","3P520RYKCHSO30HY2QJC6BDLS9Z5UE","","null","<img src=""img/flower1.png"" style=""width:200px; border:14px solid green;"">","null","","","","","","","","",""
"","image-keyboard-response","148","294836","0.0-148.0","39U1BHVTDMD8BSDZF4ABB1PN3HC3TV","A2OU40SUJR40CC","3P520RYKCHSO30HY2QJC6BDLS9Z5UE","","591.6000000000931","img/flower4.png","76","593","3","1","1","2","1,0,0,1,1,0,1,0,1","0,0,1,1,0,1,0,1,1","2",""
"","html-keyboard-response","149","295137","0.0-149.0","39U1BHVTDMD8BSDZF4ABB1PN3HC3TV","A2OU40SUJR40CC","3P520RYKCHSO30HY2QJC6BDLS9Z5UE","","null","<img src=""img/flower4.png"" style=""width:200px; border:14px solid green;"">","null","","","","","","","","",""
"","image-keyboard-response","150","295588","0.0-150.0","39U1BHVTDMD8BSDZF4ABB1PN3HC3TV","A2OU40SUJR40CC","3P520RYKCHSO30HY2QJC6BDLS9Z5UE","","448.80000000004657","img/flower4.png","76","450","3","1","1","2","1,0,0,1,1,0,1,0,1","0,0,1,1,0,1,0,1,1","2",""
"","html-keyboard-response","151","295891","0.0-151.0","39U1BHVTDMD8BSDZF4ABB1PN3HC3TV","A2OU40SUJR40CC","3P520RYKCHSO30HY2QJC6BDLS9Z5UE","","null","<img src=""img/flower4.png"" style=""width:200px; border:14px solid green;"">","null","","","","","","","","",""
"","image-keyboard-response","152","296355","0.0-152.0","39U1BHVTDMD8BSDZF4ABB1PN3HC3TV","A2OU40SUJR40CC","3P520RYKCHSO30HY2QJC6BDLS9Z5UE","","462.5999999998603","img/flower3.png","76","463.89999999990687","3","1","3","2","1,0,0,1,1,0,1,0,1","0,0,1,1,0,1,0,1,1","2",""
"","html-keyboard-response","153","296658","0.0-153.0","39U1BHVTDMD8BSDZF4ABB1PN3HC3TV","A2OU40SUJR40CC","3P520RYKCHSO30HY2QJC6BDLS9Z5UE","","null","<img src=""img/flower3.png"" style=""width:200px; border:14px solid green;"">","null","","","","","","","","",""
"","image-keyboard-response","154","296934","0.0-154.0","39U1BHVTDMD8BSDZF4ABB1PN3HC3TV","A2OU40SUJR40CC","3P520RYKCHSO30HY2QJC6BDLS9Z5UE","","274.5","img/flower1.png","76","275.80000000004657","3","1","2","2","1,0,0,1,1,0,1,0,1","0,0,1,1,0,1,0,1,1","2",""
"","html-keyboard-response","155","297249","0.0-155.0","39U1BHVTDMD8BSDZF4ABB1PN3HC3TV","A2OU40SUJR40CC","3P520RYKCHSO30HY2QJC6BDLS9Z5UE","","null","<img src=""img/flower1.png"" style=""width:200px; border:14px solid green;"">","null","","","","","","","","",""
"","image-keyboard-response","156","297748","0.0-156.0","39U1BHVTDMD8BSDZF4ABB1PN3HC3TV","A2OU40SUJR40CC","3P520RYKCHSO30HY2QJC6BDLS9Z5UE","","497","img/flower1.png","74","498.19999999995343","1","1","2","2","1,0,0,1,1,0,1,0,1","0,0,1,1,0,1,0,1,1","2",""
"","html-keyboard-response","157","298064","0.0-157.0","39U1BHVTDMD8BSDZF4ABB1PN3HC3TV","A2OU40SUJR40CC","3P520RYKCHSO30HY2QJC6BDLS9Z5UE","","null","<img src=""img/flower1.png"" style=""width:200px; border:14px solid green;"">","null","","","","","","","","",""
"","image-keyboard-response","158","298467","0.0-158.0","39U1BHVTDMD8BSDZF4ABB1PN3HC3TV","A2OU40SUJR40CC","3P520RYKCHSO30HY2QJC6BDLS9Z5UE","","401.4000000001397","img/flower1.png","74","402.5999999998603","1","1","2","2","1,0,0,1,1,0,1,0,1","0,0,1,1,0,1,0,1,1","2",""
"","html-keyboard-response","159","298769","0.0-159.0","39U1BHVTDMD8BSDZF4ABB1PN3HC3TV","A2OU40SUJR40CC","3P520RYKCHSO30HY2QJC6BDLS9Z5UE","","null","<img src=""img/flower1.png"" style=""width:200px; border:14px solid green;"">","null","","","","","","","","",""
"","image-keyboard-response","160","299171","0.0-160.0","39U1BHVTDMD8BSDZF4ABB1PN3HC3TV","A2OU40SUJR40CC","3P520RYKCHSO30HY2QJC6BDLS9Z5UE","","400.79999999981374","img/flower1.png","74","402.0999999998603","1","1","2","2","1,0,0,1,1,0,1,0,1","0,0,1,1,0,1,0,1,1","2",""
"","html-keyboard-response","161","299473","0.0-161.0","39U1BHVTDMD8BSDZF4ABB1PN3HC3TV","A2OU40SUJR40CC","3P520RYKCHSO30HY2QJC6BDLS9Z5UE","","null","<img src=""img/flower1.png"" style=""width:200px; border:14px solid green;"">","null","","","","","","","","",""
"","image-keyboard-response","162","299859","0.0-162.0","39U1BHVTDMD8BSDZF4ABB1PN3HC3TV","A2OU40SUJR40CC","3P520RYKCHSO30HY2QJC6BDLS9Z5UE","","384.79999999981374","img/flower1.png","74","386.10000000009313","1","1","2","2","1,0,0,1,1,0,1,0,1","0,0,1,1,0,1,0,1,1","2",""
"","html-keyboard-response","163","300162","0.0-163.0","39U1BHVTDMD8BSDZF4ABB1PN3HC3TV","A2OU40SUJR40CC","3P520RYKCHSO30HY2QJC6BDLS9Z5UE","","null","<img src=""img/flower1.png"" style=""width:200px; border:14px solid green;"">","null","","","","","","","","",""
"","image-keyboard-response","164","300627","0.0-164.0","39U1BHVTDMD8BSDZF4ABB1PN3HC3TV","A2OU40SUJR40CC","3P520RYKCHSO30HY2QJC6BDLS9Z5UE","","464","img/flower3.png","76","465.19999999995343","3","1","3","2","1,0,0,1,1,0,1,0,1","0,0,1,1,0,1,0,1,1","2",""
"","html-keyboard-response","165","300930","0.0-165.0","39U1BHVTDMD8BSDZF4ABB1PN3HC3TV","A2OU40SUJR40CC","3P520RYKCHSO30HY2QJC6BDLS9Z5UE","","null","<img src=""img/flower3.png"" style=""width:200px; border:14px solid green;"">","null","","","","","","","","",""
"","image-keyboard-response","166","301283","0.0-166.0","39U1BHVTDMD8BSDZF4ABB1PN3HC3TV","A2OU40SUJR40CC","3P520RYKCHSO30HY2QJC6BDLS9Z5UE","","351.89999999990687","img/flower4.png","76","353.19999999995343","3","1","1","2","1,0,0,1,1,0,1,0,1","0,0,1,1,0,1,0,1,1","2",""
"","html-keyboard-response","167","301587","0.0-167.0","39U1BHVTDMD8BSDZF4ABB1PN3HC3TV","A2OU40SUJR40CC","3P520RYKCHSO30HY2QJC6BDLS9Z5UE","","null","<img src=""img/flower4.png"" style=""width:200px; border:14px solid green;"">","null","","","","","","","","",""
"","image-keyboard-response","168","301811","0.0-168.0","39U1BHVTDMD8BSDZF4ABB1PN3HC3TV","A2OU40SUJR40CC","3P520RYKCHSO30HY2QJC6BDLS9Z5UE","","222.80000000004657","img/flower3.png","76","224.0999999998603","3","1","3","2","1,0,0,1,1,0,1,0,1","0,0,1,1,0,1,0,1,1","2",""
"","html-keyboard-response","169","302115","0.0-169.0","39U1BHVTDMD8BSDZF4ABB1PN3HC3TV","A2OU40SUJR40CC","3P520RYKCHSO30HY2QJC6BDLS9Z5UE","","null","<img src=""img/flower3.png"" style=""width:200px; border:14px solid green;"">","null","","","","","","","","",""
"","image-keyboard-response","170","302387","0.0-170.0","39U1BHVTDMD8BSDZF4ABB1PN3HC3TV","A2OU40SUJR40CC","3P520RYKCHSO30HY2QJC6BDLS9Z5UE","","271","img/flower3.png","76","272.19999999995343","3","1","3","2","1,0,0,1,1,0,1,0,1","0,0,1,1,0,1,0,1,1","2",""
"","html-keyboard-response","171","302691","0.0-171.0","39U1BHVTDMD8BSDZF4ABB1PN3HC3TV","A2OU40SUJR40CC","3P520RYKCHSO30HY2QJC6BDLS9Z5UE","","null","<img src=""img/flower3.png"" style=""width:200px; border:14px solid green;"">","null","","","","","","","","",""
"","image-keyboard-response","172","302947","0.0-172.0","39U1BHVTDMD8BSDZF4ABB1PN3HC3TV","A2OU40SUJR40CC","3P520RYKCHSO30HY2QJC6BDLS9Z5UE","","255","img/flower4.png","76","256.19999999995343","3","1","1","2","1,0,0,1,1,0,1,0,1","0,0,1,1,0,1,0,1,1","2",""
"","html-keyboard-response","173","303251","0.0-173.0","39U1BHVTDMD8BSDZF4ABB1PN3HC3TV","A2OU40SUJR40CC","3P520RYKCHSO30HY2QJC6BDLS9Z5UE","","null","<img src=""img/flower4.png"" style=""width:200px; border:14px solid green;"">","null","","","","","","","","",""
"","image-keyboard-response","174","303443","0.0-174.0","39U1BHVTDMD8BSDZF4ABB1PN3HC3TV","A2OU40SUJR40CC","3P520RYKCHSO30HY2QJC6BDLS9Z5UE","","191.10000000009313","img/flower3.png","76","192.29999999981374","3","1","3","2","1,0,0,1,1,0,1,0,1","0,0,1,1,0,1,0,1,1","2",""
"","html-keyboard-response","175","303747","0.0-175.0","39U1BHVTDMD8BSDZF4ABB1PN3HC3TV","A2OU40SUJR40CC","3P520RYKCHSO30HY2QJC6BDLS9Z5UE","","null","<img src=""img/flower3.png"" style=""width:200px; border:14px solid green;"">","null","","","","","","","","",""
"","image-keyboard-response","176","303844","0.0-176.0","39U1BHVTDMD8BSDZF4ABB1PN3HC3TV","A2OU40SUJR40CC","3P520RYKCHSO30HY2QJC6BDLS9Z5UE","","95.10000000009313","img/flower4.png","76","96.5","3","1","1","2","1,0,0,1,1,0,1,0,1","0,0,1,1,0,1,0,1,1","2",""
"","html-keyboard-response","177","304147","0.0-177.0","39U1BHVTDMD8BSDZF4ABB1PN3HC3TV","A2OU40SUJR40CC","3P520RYKCHSO30HY2QJC6BDLS9Z5UE","","null","<img src=""img/flower4.png"" style=""width:200px; border:14px solid green;"">","null","","","","","","","","",""
"","image-keyboard-response","178","304307","0.0-178.0","39U1BHVTDMD8BSDZF4ABB1PN3HC3TV","A2OU40SUJR40CC","3P520RYKCHSO30HY2QJC6BDLS9Z5UE","","159.20000000018626","img/flower1.png","76","160.39999999990687","3","1","2","2","1,0,0,1,1,0,1,0,1","0,0,1,1,0,1,0,1,1","2",""
"","html-keyboard-response","179","304611","0.0-179.0","39U1BHVTDMD8BSDZF4ABB1PN3HC3TV","A2OU40SUJR40CC","3P520RYKCHSO30HY2QJC6BDLS9Z5UE","","null","<img src=""img/flower1.png"" style=""width:200px; border:14px solid green;"">","null","","","","","","","","",""
"","image-keyboard-response","180","305107","0.0-180.0","39U1BHVTDMD8BSDZF4ABB1PN3HC3TV","A2OU40SUJR40CC","3P520RYKCHSO30HY2QJC6BDLS9Z5UE","","495.19999999995343","img/flower3.png","76","496.5","3","1","3","2","1,0,0,1,1,0,1,0,1","0,0,1,1,0,1,0,1,1","2",""
"","html-keyboard-response","181","305411","0.0-181.0","39U1BHVTDMD8BSDZF4ABB1PN3HC3TV","A2OU40SUJR40CC","3P520RYKCHSO30HY2QJC6BDLS9Z5UE","","null","<img src=""img/flower3.png"" style=""width:200px; border:14px solid green;"">","null","","","","","","","","",""
"","image-keyboard-response","182","305508","0.0-182.0","39U1BHVTDMD8BSDZF4ABB1PN3HC3TV","A2OU40SUJR40CC","3P520RYKCHSO30HY2QJC6BDLS9Z5UE","","95.19999999995343","img/flower5.png","76","96.5","3","0","1","1","1,0.333,0.333,0.333,1,0.333,0.333,0.333,1","1,0.333,0.333,0.333,1,0.333,0.333,0.333,1","1",""
"","html-keyboard-response","183","305811","0.0-183.0","39U1BHVTDMD8BSDZF4ABB1PN3HC3TV","A2OU40SUJR40CC","3P520RYKCHSO30HY2QJC6BDLS9Z5UE","","null","<img src=""img/flower5.png"" style=""width:200px;border:14px solid red;"">","null","","","","","","","","",""
"","image-keyboard-response","184","306531","0.0-184.0","39U1BHVTDMD8BSDZF4ABB1PN3HC3TV","A2OU40SUJR40CC","3P520RYKCHSO30HY2QJC6BDLS9Z5UE","","719.0999999998603","img/flower2.png","76","720.5999999998603","3","0","2","1","1,0.333,0.333,0.333,1,0.333,0.333,0.333,1","1,0.333,0.333,0.333,1,0.333,0.333,0.333,1","1",""
"","html-keyboard-response","185","306834","0.0-185.0","39U1BHVTDMD8BSDZF4ABB1PN3HC3TV","A2OU40SUJR40CC","3P520RYKCHSO30HY2QJC6BDLS9Z5UE","","null","<img src=""img/flower2.png"" style=""width:200px;border:14px solid red;"">","null","","","","","","","","",""
"","image-keyboard-response","186","307427","0.0-186.0","39U1BHVTDMD8BSDZF4ABB1PN3HC3TV","A2OU40SUJR40CC","3P520RYKCHSO30HY2QJC6BDLS9Z5UE","","592.1999999999534","img/flower5.png","75","593.5999999998603","2","0","1","1","1,0.333,0.333,0.333,1,0.333,0.333,0.333,1","1,0.333,0.333,0.333,1,0.333,0.333,0.333,1","1",""
"","html-keyboard-response","187","307731","0.0-187.0","39U1BHVTDMD8BSDZF4ABB1PN3HC3TV","A2OU40SUJR40CC","3P520RYKCHSO30HY2QJC6BDLS9Z5UE","","null","<img src=""img/flower5.png"" style=""width:200px;border:14px solid red;"">","null","","","","","","","","",""
"","image-keyboard-response","188","308036","0.0-188.0","39U1BHVTDMD8BSDZF4ABB1PN3HC3TV","A2OU40SUJR40CC","3P520RYKCHSO30HY2QJC6BDLS9Z5UE","","303.69999999995343","img/flower5.png","76","304.89999999990687","3","0","1","1","1,0.333,0.333,0.333,1,0.333,0.333,0.333,1","1,0.333,0.333,0.333,1,0.333,0.333,0.333,1","1",""
"","html-keyboard-response","189","308338","0.0-189.0","39U1BHVTDMD8BSDZF4ABB1PN3HC3TV","A2OU40SUJR40CC","3P520RYKCHSO30HY2QJC6BDLS9Z5UE","","null","<img src=""img/flower5.png"" style=""width:200px;border:14px solid red;"">","null","","","","","","","","",""
"","image-keyboard-response","190","308804","0.0-190.0","39U1BHVTDMD8BSDZF4ABB1PN3HC3TV","A2OU40SUJR40CC","3P520RYKCHSO30HY2QJC6BDLS9Z5UE","","464.30000000004657","img/flower5.png","74","465.80000000004657","1","1","1","1","1,0.333,0.333,0.333,1,0.333,0.333,0.333,1","1,0.333,0.333,0.333,1,0.333,0.333,0.333,1","1",""
"","html-keyboard-response","191","309106","0.0-191.0","39U1BHVTDMD8BSDZF4ABB1PN3HC3TV","A2OU40SUJR40CC","3P520RYKCHSO30HY2QJC6BDLS9Z5UE","","null","<img src=""img/flower5.png"" style=""width:200px; border:14px solid green;"">","null","","","","","","","","",""
"","image-keyboard-response","192","309668","0.0-192.0","39U1BHVTDMD8BSDZF4ABB1PN3HC3TV","A2OU40SUJR40CC","3P520RYKCHSO30HY2QJC6BDLS9Z5UE","","559.5","img/flower2.png","74","560.8000000000466","1","1","2","1","1,0.333,0.333,0.333,1,0.333,0.333,0.333,1","1,0.333,0.333,0.333,1,0.333,0.333,0.333,1","1",""
"","html-keyboard-response","193","309970","0.0-193.0","39U1BHVTDMD8BSDZF4ABB1PN3HC3TV","A2OU40SUJR40CC","3P520RYKCHSO30HY2QJC6BDLS9Z5UE","","null","<img src=""img/flower2.png"" style=""width:200px; border:14px solid green;"">","null","","","","","","","","",""
"","image-keyboard-response","194","310707","0.0-194.0","39U1BHVTDMD8BSDZF4ABB1PN3HC3TV","A2OU40SUJR40CC","3P520RYKCHSO30HY2QJC6BDLS9Z5UE","","735.3999999999069","img/flower6.png","75","736.6999999999534","2","0","3","1","1,0.333,0.333,0.333,1,0.333,0.333,0.333,1","1,0.333,0.333,0.333,1,0.333,0.333,0.333,1","1",""
"","html-keyboard-response","195","311010","0.0-195.0","39U1BHVTDMD8BSDZF4ABB1PN3HC3TV","A2OU40SUJR40CC","3P520RYKCHSO30HY2QJC6BDLS9Z5UE","","null","<img src=""img/flower6.png"" style=""width:200px;border:14px solid red;"">","null","","","","","","","","",""
"","image-keyboard-response","196","311284","0.0-196.0","39U1BHVTDMD8BSDZF4ABB1PN3HC3TV","A2OU40SUJR40CC","3P520RYKCHSO30HY2QJC6BDLS9Z5UE","","271.60000000009313","img/flower6.png","74","273","1","0","3","1","1,0.333,0.333,0.333,1,0.333,0.333,0.333,1","1,0.333,0.333,0.333,1,0.333,0.333,0.333,1","1",""
"","html-keyboard-response","197","311585","0.0-197.0","39U1BHVTDMD8BSDZF4ABB1PN3HC3TV","A2OU40SUJR40CC","3P520RYKCHSO30HY2QJC6BDLS9Z5UE","","null","<img src=""img/flower6.png"" style=""width:200px;border:14px solid red;"">","null","","","","","","","","",""
"","image-keyboard-response","198","311939","0.0-198.0","39U1BHVTDMD8BSDZF4ABB1PN3HC3TV","A2OU40SUJR40CC","3P520RYKCHSO30HY2QJC6BDLS9Z5UE","","352.39999999990687","img/flower5.png","76","353.79999999981374","3","1","1","1","1,0.333,0.333,0.333,1,0.333,0.333,0.333,1","1,0.333,0.333,0.333,1,0.333,0.333,0.333,1","1",""
"","html-keyboard-response","199","312242","0.0-199.0","39U1BHVTDMD8BSDZF4ABB1PN3HC3TV","A2OU40SUJR40CC","3P520RYKCHSO30HY2QJC6BDLS9Z5UE","","null","<img src=""img/flower5.png"" style=""width:200px; border:14px solid green;"">","null","","","","","","","","",""
"","image-keyboard-response","200","312947","0.0-200.0","39U1BHVTDMD8BSDZF4ABB1PN3HC3TV","A2OU40SUJR40CC","3P520RYKCHSO30HY2QJC6BDLS9Z5UE","","703.6000000000931","img/flower5.png","76","704.8999999999069","3","0","1","1","1,0.333,0.333,0.333,1,0.333,0.333,0.333,1","1,0.333,0.333,0.333,1,0.333,0.333,0.333,1","1",""
"","html-keyboard-response","201","313250","0.0-201.0","39U1BHVTDMD8BSDZF4ABB1PN3HC3TV","A2OU40SUJR40CC","3P520RYKCHSO30HY2QJC6BDLS9Z5UE","","null","<img src=""img/flower5.png"" style=""width:200px;border:14px solid red;"">","null","","","","","","","","",""
"","image-keyboard-response","202","313795","0.0-202.0","39U1BHVTDMD8BSDZF4ABB1PN3HC3TV","A2OU40SUJR40CC","3P520RYKCHSO30HY2QJC6BDLS9Z5UE","","543.6999999999534","img/flower6.png","74","545.1000000000931","1","1","3","1","1,0.333,0.333,0.333,1,0.333,0.333,0.333,1","1,0.333,0.333,0.333,1,0.333,0.333,0.333,1","1",""
"","html-keyboard-response","203","314097","0.0-203.0","39U1BHVTDMD8BSDZF4ABB1PN3HC3TV","A2OU40SUJR40CC","3P520RYKCHSO30HY2QJC6BDLS9Z5UE","","null","<img src=""img/flower6.png"" style=""width:200px; border:14px solid green;"">","null","","","","","","","","",""
"","image-keyboard-response","204","314531","0.0-204.0","39U1BHVTDMD8BSDZF4ABB1PN3HC3TV","A2OU40SUJR40CC","3P520RYKCHSO30HY2QJC6BDLS9Z5UE","","432.69999999995343","img/flower6.png","74","434","1","0","3","1","1,0.333,0.333,0.333,1,0.333,0.333,0.333,1","1,0.333,0.333,0.333,1,0.333,0.333,0.333,1","1",""
"","html-keyboard-response","205","314834","0.0-205.0","39U1BHVTDMD8BSDZF4ABB1PN3HC3TV","A2OU40SUJR40CC","3P520RYKCHSO30HY2QJC6BDLS9Z5UE","","null","<img src=""img/flower6.png"" style=""width:200px;border:14px solid red;"">","null","","","","","","","","",""
"","image-keyboard-response","206","315588","0.0-206.0","39U1BHVTDMD8BSDZF4ABB1PN3HC3TV","A2OU40SUJR40CC","3P520RYKCHSO30HY2QJC6BDLS9Z5UE","","751.8999999999069","img/flower2.png","76","753.3000000000466","3","0","2","1","1,0.333,0.333,0.333,1,0.333,0.333,0.333,1","1,0.333,0.333,0.333,1,0.333,0.333,0.333,1","1",""
"","html-keyboard-response","207","315891","0.0-207.0","39U1BHVTDMD8BSDZF4ABB1PN3HC3TV","A2OU40SUJR40CC","3P520RYKCHSO30HY2QJC6BDLS9Z5UE","","null","<img src=""img/flower2.png"" style=""width:200px;border:14px solid red;"">","null","","","","","","","","",""
"","image-keyboard-response","208","316803","0.0-208.0","39U1BHVTDMD8BSDZF4ABB1PN3HC3TV","A2OU40SUJR40CC","3P520RYKCHSO30HY2QJC6BDLS9Z5UE","","910.8000000000466","img/flower5.png","75","912.0999999998603","2","0","1","1","1,0.333,0.333,0.333,1,0.333,0.333,0.333,1","1,0.333,0.333,0.333,1,0.333,0.333,0.333,1","1",""
"","html-keyboard-response","209","317107","0.0-209.0","39U1BHVTDMD8BSDZF4ABB1PN3HC3TV","A2OU40SUJR40CC","3P520RYKCHSO30HY2QJC6BDLS9Z5UE","","null","<img src=""img/flower5.png"" style=""width:200px;border:14px solid red;"">","null","","","","","","","","",""
"","image-keyboard-response","210","317347","0.0-210.0","39U1BHVTDMD8BSDZF4ABB1PN3HC3TV","A2OU40SUJR40CC","3P520RYKCHSO30HY2QJC6BDLS9Z5UE","","238.89999999990687","img/flower6.png","74","240.0999999998603","1","1","3","1","1,0.333,0.333,0.333,1,0.333,0.333,0.333,1","1,0.333,0.333,0.333,1,0.333,0.333,0.333,1","1",""
"","html-keyboard-response","211","317651","0.0-211.0","39U1BHVTDMD8BSDZF4ABB1PN3HC3TV","A2OU40SUJR40CC","3P520RYKCHSO30HY2QJC6BDLS9Z5UE","","null","<img src=""img/flower6.png"" style=""width:200px; border:14px solid green;"">","null","","","","","","","","",""
"","image-keyboard-response","212","318100","0.0-212.0","39U1BHVTDMD8BSDZF4ABB1PN3HC3TV","A2OU40SUJR40CC","3P520RYKCHSO30HY2QJC6BDLS9Z5UE","","447","img/flower6.png","74","448.39999999990687","1","0","3","1","1,0.333,0.333,0.333,1,0.333,0.333,0.333,1","1,0.333,0.333,0.333,1,0.333,0.333,0.333,1","1",""
"","html-keyboard-response","213","318403","0.0-213.0","39U1BHVTDMD8BSDZF4ABB1PN3HC3TV","A2OU40SUJR40CC","3P520RYKCHSO30HY2QJC6BDLS9Z5UE","","null","<img src=""img/flower6.png"" style=""width:200px;border:14px solid red;"">","null","","","","","","","","",""
"","image-keyboard-response","214","319092","0.0-214.0","39U1BHVTDMD8BSDZF4ABB1PN3HC3TV","A2OU40SUJR40CC","3P520RYKCHSO30HY2QJC6BDLS9Z5UE","","687.1000000000931","img/flower2.png","75","688.3999999999069","2","1","2","1","1,0.333,0.333,0.333,1,0.333,0.333,0.333,1","1,0.333,0.333,0.333,1,0.333,0.333,0.333,1","1",""
"","html-keyboard-response","215","319395","0.0-215.0","39U1BHVTDMD8BSDZF4ABB1PN3HC3TV","A2OU40SUJR40CC","3P520RYKCHSO30HY2QJC6BDLS9Z5UE","","null","<img src=""img/flower2.png"" style=""width:200px; border:14px solid green;"">","null","","","","","","","","",""
"","image-keyboard-response","216","320291","0.0-216.0","39U1BHVTDMD8BSDZF4ABB1PN3HC3TV","A2OU40SUJR40CC","3P520RYKCHSO30HY2QJC6BDLS9Z5UE","","895","img/flower6.png","74","896.2999999998137","1","0","3","1","1,0.333,0.333,0.333,1,0.333,0.333,0.333,1","1,0.333,0.333,0.333,1,0.333,0.333,0.333,1","1",""
"","html-keyboard-response","217","320595","0.0-217.0","39U1BHVTDMD8BSDZF4ABB1PN3HC3TV","A2OU40SUJR40CC","3P520RYKCHSO30HY2QJC6BDLS9Z5UE","","null","<img src=""img/flower6.png"" style=""width:200px;border:14px solid red;"">","null","","","","","","","","",""
"","image-keyboard-response","218","320995","0.0-218.0","39U1BHVTDMD8BSDZF4ABB1PN3HC3TV","A2OU40SUJR40CC","3P520RYKCHSO30HY2QJC6BDLS9Z5UE","","399","img/flower5.png","74","400.5","1","1","1","1","1,0.333,0.333,0.333,1,0.333,0.333,0.333,1","1,0.333,0.333,0.333,1,0.333,0.333,0.333,1","1",""
"","html-keyboard-response","219","321298","0.0-219.0","39U1BHVTDMD8BSDZF4ABB1PN3HC3TV","A2OU40SUJR40CC","3P520RYKCHSO30HY2QJC6BDLS9Z5UE","","null","<img src=""img/flower5.png"" style=""width:200px; border:14px solid green;"">","null","","","","","","","","",""
"","image-keyboard-response","220","321731","0.0-220.0","39U1BHVTDMD8BSDZF4ABB1PN3HC3TV","A2OU40SUJR40CC","3P520RYKCHSO30HY2QJC6BDLS9Z5UE","","432","img/flower5.png","74","433.19999999995343","1","1","1","1","1,0.333,0.333,0.333,1,0.333,0.333,0.333,1","1,0.333,0.333,0.333,1,0.333,0.333,0.333,1","1",""
"","html-keyboard-response","221","322033","0.0-221.0","39U1BHVTDMD8BSDZF4ABB1PN3HC3TV","A2OU40SUJR40CC","3P520RYKCHSO30HY2QJC6BDLS9Z5UE","","null","<img src=""img/flower5.png"" style=""width:200px; border:14px solid green;"">","null","","","","","","","","",""
"","image-keyboard-response","222","322739","0.0-222.0","39U1BHVTDMD8BSDZF4ABB1PN3HC3TV","A2OU40SUJR40CC","3P520RYKCHSO30HY2QJC6BDLS9Z5UE","","705.1999999999534","img/flower6.png","74","706.3999999999069","1","0","3","1","1,0.333,0.333,0.333,1,0.333,0.333,0.333,1","1,0.333,0.333,0.333,1,0.333,0.333,0.333,1","1",""
"","html-keyboard-response","223","323043","0.0-223.0","39U1BHVTDMD8BSDZF4ABB1PN3HC3TV","A2OU40SUJR40CC","3P520RYKCHSO30HY2QJC6BDLS9Z5UE","","null","<img src=""img/flower6.png"" style=""width:200px;border:14px solid red;"">","null","","","","","","","","",""
"","image-keyboard-response","224","323572","0.0-224.0","39U1BHVTDMD8BSDZF4ABB1PN3HC3TV","A2OU40SUJR40CC","3P520RYKCHSO30HY2QJC6BDLS9Z5UE","","527.3000000000466","img/flower2.png","76","528.6999999999534","3","0","2","1","1,0.333,0.333,0.333,1,0.333,0.333,0.333,1","1,0.333,0.333,0.333,1,0.333,0.333,0.333,1","1",""
"","html-keyboard-response","225","323874","0.0-225.0","39U1BHVTDMD8BSDZF4ABB1PN3HC3TV","A2OU40SUJR40CC","3P520RYKCHSO30HY2QJC6BDLS9Z5UE","","null","<img src=""img/flower2.png"" style=""width:200px;border:14px solid red;"">","null","","","","","","","","",""
"","image-keyboard-response","226","324531","0.0-226.0","39U1BHVTDMD8BSDZF4ABB1PN3HC3TV","A2OU40SUJR40CC","3P520RYKCHSO30HY2QJC6BDLS9Z5UE","","656","img/flower5.png","75","657.1999999999534","2","0","1","1","1,0.333,0.333,0.333,1,0.333,0.333,0.333,1","1,0.333,0.333,0.333,1,0.333,0.333,0.333,1","1",""
"","html-keyboard-response","227","324833","0.0-227.0","39U1BHVTDMD8BSDZF4ABB1PN3HC3TV","A2OU40SUJR40CC","3P520RYKCHSO30HY2QJC6BDLS9Z5UE","","null","<img src=""img/flower5.png"" style=""width:200px;border:14px solid red;"">","null","","","","","","","","",""
"","image-keyboard-response","228","325156","0.0-228.0","39U1BHVTDMD8BSDZF4ABB1PN3HC3TV","A2OU40SUJR40CC","3P520RYKCHSO30HY2QJC6BDLS9Z5UE","","321.5","img/flower5.png","74","323.10000000009313","1","1","1","1","1,0.333,0.333,0.333,1,0.333,0.333,0.333,1","1,0.333,0.333,0.333,1,0.333,0.333,0.333,1","1",""
"","html-keyboard-response","229","325458","0.0-229.0","39U1BHVTDMD8BSDZF4ABB1PN3HC3TV","A2OU40SUJR40CC","3P520RYKCHSO30HY2QJC6BDLS9Z5UE","","null","<img src=""img/flower5.png"" style=""width:200px; border:14px solid green;"">","null","","","","","","","","",""
"","image-keyboard-response","230","325812","0.0-230.0","39U1BHVTDMD8BSDZF4ABB1PN3HC3TV","A2OU40SUJR40CC","3P520RYKCHSO30HY2QJC6BDLS9Z5UE","","351.5","img/flower5.png","74","352.9000000001397","1","1","1","1","1,0.333,0.333,0.333,1,0.333,0.333,0.333,1","1,0.333,0.333,0.333,1,0.333,0.333,0.333,1","1",""
"","html-keyboard-response","231","326113","0.0-231.0","39U1BHVTDMD8BSDZF4ABB1PN3HC3TV","A2OU40SUJR40CC","3P520RYKCHSO30HY2QJC6BDLS9Z5UE","","null","<img src=""img/flower5.png"" style=""width:200px; border:14px solid green;"">","null","","","","","","","","",""
"","image-keyboard-response","232","326771","0.0-232.0","39U1BHVTDMD8BSDZF4ABB1PN3HC3TV","A2OU40SUJR40CC","3P520RYKCHSO30HY2QJC6BDLS9Z5UE","","656.3000000000466","img/flower2.png","74","657.4000000001397","1","0","2","1","1,0.333,0.333,0.333,1,0.333,0.333,0.333,1","1,0.333,0.333,0.333,1,0.333,0.333,0.333,1","1",""
"","html-keyboard-response","233","327073","0.0-233.0","39U1BHVTDMD8BSDZF4ABB1PN3HC3TV","A2OU40SUJR40CC","3P520RYKCHSO30HY2QJC6BDLS9Z5UE","","null","<img src=""img/flower2.png"" style=""width:200px;border:14px solid red;"">","null","","","","","","","","",""
"","image-keyboard-response","234","327843","0.0-234.0","39U1BHVTDMD8BSDZF4ABB1PN3HC3TV","A2OU40SUJR40CC","3P520RYKCHSO30HY2QJC6BDLS9Z5UE","","769.3999999999069","img/flower5.png","75","770.6999999999534","2","0","1","1","1,0.333,0.333,0.333,1,0.333,0.333,0.333,1","1,0.333,0.333,0.333,1,0.333,0.333,0.333,1","1",""
"","html-keyboard-response","235","328147","0.0-235.0","39U1BHVTDMD8BSDZF4ABB1PN3HC3TV","A2OU40SUJR40CC","3P520RYKCHSO30HY2QJC6BDLS9Z5UE","","null","<img src=""img/flower5.png"" style=""width:200px;border:14px solid red;"">","null","","","","","","","","",""
"","image-keyboard-response","236","328404","0.0-236.0","39U1BHVTDMD8BSDZF4ABB1PN3HC3TV","A2OU40SUJR40CC","3P520RYKCHSO30HY2QJC6BDLS9Z5UE","","255.69999999995343","img/flower5.png","74","256.89999999990687","1","1","1","1","1,0.333,0.333,0.333,1,0.333,0.333,0.333,1","1,0.333,0.333,0.333,1,0.333,0.333,0.333,1","1",""
"","html-keyboard-response","237","328707","0.0-237.0","39U1BHVTDMD8BSDZF4ABB1PN3HC3TV","A2OU40SUJR40CC","3P520RYKCHSO30HY2QJC6BDLS9Z5UE","","null","<img src=""img/flower5.png"" style=""width:200px; border:14px solid green;"">","null","","","","","","","","",""
"","image-keyboard-response","238","329075","0.0-238.0","39U1BHVTDMD8BSDZF4ABB1PN3HC3TV","A2OU40SUJR40CC","3P520RYKCHSO30HY2QJC6BDLS9Z5UE","","367.39999999990687","img/flower5.png","74","368.69999999995343","1","1","1","1","1,0.333,0.333,0.333,1,0.333,0.333,0.333,1","1,0.333,0.333,0.333,1,0.333,0.333,0.333,1","1",""
"","html-keyboard-response","239","329384","0.0-239.0","39U1BHVTDMD8BSDZF4ABB1PN3HC3TV","A2OU40SUJR40CC","3P520RYKCHSO30HY2QJC6BDLS9Z5UE","","null","<img src=""img/flower5.png"" style=""width:200px; border:14px solid green;"">","null","","","","","","","","",""
"","image-keyboard-response","240","329587","0.0-240.0","39U1BHVTDMD8BSDZF4ABB1PN3HC3TV","A2OU40SUJR40CC","3P520RYKCHSO30HY2QJC6BDLS9Z5UE","","202.20000000018626","img/flower6.png","74","203.5999999998603","1","0","3","1","1,0.333,0.333,0.333,1,0.333,0.333,0.333,1","1,0.333,0.333,0.333,1,0.333,0.333,0.333,1","1",""
"","html-keyboard-response","241","329890","0.0-241.0","39U1BHVTDMD8BSDZF4ABB1PN3HC3TV","A2OU40SUJR40CC","3P520RYKCHSO30HY2QJC6BDLS9Z5UE","","null","<img src=""img/flower6.png"" style=""width:200px;border:14px solid red;"">","null","","","","","","","","",""
"","image-keyboard-response","242","330387","0.0-242.0","39U1BHVTDMD8BSDZF4ABB1PN3HC3TV","A2OU40SUJR40CC","3P520RYKCHSO30HY2QJC6BDLS9Z5UE","","495.5","img/flower2.png","74","496.80000000004657","1","1","2","1","1,0.333,0.333,0.333,1,0.333,0.333,0.333,1","1,0.333,0.333,0.333,1,0.333,0.333,0.333,1","1",""
"","html-keyboard-response","243","330689","0.0-243.0","39U1BHVTDMD8BSDZF4ABB1PN3HC3TV","A2OU40SUJR40CC","3P520RYKCHSO30HY2QJC6BDLS9Z5UE","","null","<img src=""img/flower2.png"" style=""width:200px; border:14px solid green;"">","null","","","","","","","","",""
"","image-keyboard-response","244","331203","0.0-244.0","39U1BHVTDMD8BSDZF4ABB1PN3HC3TV","A2OU40SUJR40CC","3P520RYKCHSO30HY2QJC6BDLS9Z5UE","","512.5","img/flower5.png","74","513.6999999999534","1","1","1","1","1,0.333,0.333,0.333,1,0.333,0.333,0.333,1","1,0.333,0.333,0.333,1,0.333,0.333,0.333,1","1",""
"","html-keyboard-response","245","331506","0.0-245.0","39U1BHVTDMD8BSDZF4ABB1PN3HC3TV","A2OU40SUJR40CC","3P520RYKCHSO30HY2QJC6BDLS9Z5UE","","null","<img src=""img/flower5.png"" style=""width:200px; border:14px solid green;"">","null","","","","","","","","",""
"","image-keyboard-response","246","331987","0.0-246.0","39U1BHVTDMD8BSDZF4ABB1PN3HC3TV","A2OU40SUJR40CC","3P520RYKCHSO30HY2QJC6BDLS9Z5UE","","479.5","img/flower6.png","74","480.79999999981374","1","0","3","1","1,0.333,0.333,0.333,1,0.333,0.333,0.333,1","1,0.333,0.333,0.333,1,0.333,0.333,0.333,1","1",""
"","html-keyboard-response","247","332289","0.0-247.0","39U1BHVTDMD8BSDZF4ABB1PN3HC3TV","A2OU40SUJR40CC","3P520RYKCHSO30HY2QJC6BDLS9Z5UE","","null","<img src=""img/flower6.png"" style=""width:200px;border:14px solid red;"">","null","","","","","","","","",""
"","image-keyboard-response","248","332675","0.0-248.0","39U1BHVTDMD8BSDZF4ABB1PN3HC3TV","A2OU40SUJR40CC","3P520RYKCHSO30HY2QJC6BDLS9Z5UE","","384.19999999995343","img/flower2.png","76","385.89999999990687","3","0","2","1","1,0.333,0.333,0.333,1,0.333,0.333,0.333,1","1,0.333,0.333,0.333,1,0.333,0.333,0.333,1","1",""
"","html-keyboard-response","249","332977","0.0-249.0","39U1BHVTDMD8BSDZF4ABB1PN3HC3TV","A2OU40SUJR40CC","3P520RYKCHSO30HY2QJC6BDLS9Z5UE","","null","<img src=""img/flower2.png"" style=""width:200px;border:14px solid red;"">","null","","","","","","","","",""
"","image-keyboard-response","250","333268","0.0-250.0","39U1BHVTDMD8BSDZF4ABB1PN3HC3TV","A2OU40SUJR40CC","3P520RYKCHSO30HY2QJC6BDLS9Z5UE","","288.9000000001397","img/flower5.png","74","290.20000000018626","1","1","1","1","1,0.333,0.333,0.333,1,0.333,0.333,0.333,1","1,0.333,0.333,0.333,1,0.333,0.333,0.333,1","1",""
"","html-keyboard-response","251","333572","0.0-251.0","39U1BHVTDMD8BSDZF4ABB1PN3HC3TV","A2OU40SUJR40CC","3P520RYKCHSO30HY2QJC6BDLS9Z5UE","","null","<img src=""img/flower5.png"" style=""width:200px; border:14px solid green;"">","null","","","","","","","","",""
"","image-keyboard-response","252","334276","0.0-252.0","39U1BHVTDMD8BSDZF4ABB1PN3HC3TV","A2OU40SUJR40CC","3P520RYKCHSO30HY2QJC6BDLS9Z5UE","","701.8999999999069","img/flower6.png","74","703.5","1","1","3","1","1,0.333,0.333,0.333,1,0.333,0.333,0.333,1","1,0.333,0.333,0.333,1,0.333,0.333,0.333,1","1",""
"","html-keyboard-response","253","334577","0.0-253.0","39U1BHVTDMD8BSDZF4ABB1PN3HC3TV","A2OU40SUJR40CC","3P520RYKCHSO30HY2QJC6BDLS9Z5UE","","null","<img src=""img/flower6.png"" style=""width:200px; border:14px solid green;"">","null","","","","","","","","",""
"","image-keyboard-response","254","335172","0.0-254.0","39U1BHVTDMD8BSDZF4ABB1PN3HC3TV","A2OU40SUJR40CC","3P520RYKCHSO30HY2QJC6BDLS9Z5UE","","592.3999999999069","img/flower2.png","74","594.0999999998603","1","1","2","1","1,0.333,0.333,0.333,1,0.333,0.333,0.333,1","1,0.333,0.333,0.333,1,0.333,0.333,0.333,1","1",""
"","html-keyboard-response","255","335475","0.0-255.0","39U1BHVTDMD8BSDZF4ABB1PN3HC3TV","A2OU40SUJR40CC","3P520RYKCHSO30HY2QJC6BDLS9Z5UE","","null","<img src=""img/flower2.png"" style=""width:200px; border:14px solid green;"">","null","","","","","","","","",""
"","image-keyboard-response","256","335860","0.0-256.0","39U1BHVTDMD8BSDZF4ABB1PN3HC3TV","A2OU40SUJR40CC","3P520RYKCHSO30HY2QJC6BDLS9Z5UE","","382.80000000004657","img/flower2.png","74","384.20000000018626","1","0","2","1","1,0.333,0.333,0.333,1,0.333,0.333,0.333,1","1,0.333,0.333,0.333,1,0.333,0.333,0.333,1","1",""
"","html-keyboard-response","257","336162","0.0-257.0","39U1BHVTDMD8BSDZF4ABB1PN3HC3TV","A2OU40SUJR40CC","3P520RYKCHSO30HY2QJC6BDLS9Z5UE","","null","<img src=""img/flower2.png"" style=""width:200px;border:14px solid red;"">","null","","","","","","","","",""
"","image-keyboard-response","258","336579","0.0-258.0","39U1BHVTDMD8BSDZF4ABB1PN3HC3TV","A2OU40SUJR40CC","3P520RYKCHSO30HY2QJC6BDLS9Z5UE","","416.10000000009313","img/flower2.png","75","417.29999999981374","2","1","2","1","1,0.333,0.333,0.333,1,0.333,0.333,0.333,1","1,0.333,0.333,0.333,1,0.333,0.333,0.333,1","1",""
"","html-keyboard-response","259","336882","0.0-259.0","39U1BHVTDMD8BSDZF4ABB1PN3HC3TV","A2OU40SUJR40CC","3P520RYKCHSO30HY2QJC6BDLS9Z5UE","","null","<img src=""img/flower2.png"" style=""width:200px; border:14px solid green;"">","null","","","","","","","","",""
"","image-keyboard-response","260","337171","0.0-260.0","39U1BHVTDMD8BSDZF4ABB1PN3HC3TV","A2OU40SUJR40CC","3P520RYKCHSO30HY2QJC6BDLS9Z5UE","","287.79999999981374","img/flower2.png","74","289.0999999998603","1","1","2","1","1,0.333,0.333,0.333,1,0.333,0.333,0.333,1","1,0.333,0.333,0.333,1,0.333,0.333,0.333,1","1",""
"","html-keyboard-response","261","337483","0.0-261.0","39U1BHVTDMD8BSDZF4ABB1PN3HC3TV","A2OU40SUJR40CC","3P520RYKCHSO30HY2QJC6BDLS9Z5UE","","null","<img src=""img/flower2.png"" style=""width:200px; border:14px solid green;"">","null","","","","","","","","",""
"","image-keyboard-response","262","337859","0.0-262.0","39U1BHVTDMD8BSDZF4ABB1PN3HC3TV","A2OU40SUJR40CC","3P520RYKCHSO30HY2QJC6BDLS9Z5UE","","374.80000000004657","img/flower2.png","75","376.0999999998603","2","1","2","1","1,0.333,0.333,0.333,1,0.333,0.333,0.333,1","1,0.333,0.333,0.333,1,0.333,0.333,0.333,1","1",""
"","html-keyboard-response","263","338170","0.0-263.0","39U1BHVTDMD8BSDZF4ABB1PN3HC3TV","A2OU40SUJR40CC","3P520RYKCHSO30HY2QJC6BDLS9Z5UE","","null","<img src=""img/flower2.png"" style=""width:200px; border:14px solid green;"">","null","","","","","","","","",""
"","image-keyboard-response","264","338708","0.0-264.0","39U1BHVTDMD8BSDZF4ABB1PN3HC3TV","A2OU40SUJR40CC","3P520RYKCHSO30HY2QJC6BDLS9Z5UE","","536.3000000000466","img/flower5.png","74","537.6000000000931","1","1","1","1","1,0.333,0.333,0.333,1,0.333,0.333,0.333,1","1,0.333,0.333,0.333,1,0.333,0.333,0.333,1","1",""
"","html-keyboard-response","265","339010","0.0-265.0","39U1BHVTDMD8BSDZF4ABB1PN3HC3TV","A2OU40SUJR40CC","3P520RYKCHSO30HY2QJC6BDLS9Z5UE","","null","<img src=""img/flower5.png"" style=""width:200px; border:14px solid green;"">","null","","","","","","","","",""
"","image-keyboard-response","266","339459","0.0-266.0","39U1BHVTDMD8BSDZF4ABB1PN3HC3TV","A2OU40SUJR40CC","3P520RYKCHSO30HY2QJC6BDLS9Z5UE","","447.89999999990687","img/flower2.png","74","449.19999999995343","1","0","2","1","1,0.333,0.333,0.333,1,0.333,0.333,0.333,1","1,0.333,0.333,0.333,1,0.333,0.333,0.333,1","1",""
"","html-keyboard-response","267","339763","0.0-267.0","39U1BHVTDMD8BSDZF4ABB1PN3HC3TV","A2OU40SUJR40CC","3P520RYKCHSO30HY2QJC6BDLS9Z5UE","","null","<img src=""img/flower2.png"" style=""width:200px;border:14px solid red;"">","null","","","","","","","","",""
"","image-keyboard-response","268","340419","0.0-268.0","39U1BHVTDMD8BSDZF4ABB1PN3HC3TV","A2OU40SUJR40CC","3P520RYKCHSO30HY2QJC6BDLS9Z5UE","","655","img/flower6.png","74","656.3999999999069","1","1","3","1","1,0.333,0.333,0.333,1,0.333,0.333,0.333,1","1,0.333,0.333,0.333,1,0.333,0.333,0.333,1","1",""
"","html-keyboard-response","269","340723","0.0-269.0","39U1BHVTDMD8BSDZF4ABB1PN3HC3TV","A2OU40SUJR40CC","3P520RYKCHSO30HY2QJC6BDLS9Z5UE","","null","<img src=""img/flower6.png"" style=""width:200px; border:14px solid green;"">","null","","","","","","","","",""
"","image-keyboard-response","270","341107","0.0-270.0","39U1BHVTDMD8BSDZF4ABB1PN3HC3TV","A2OU40SUJR40CC","3P520RYKCHSO30HY2QJC6BDLS9Z5UE","","383.10000000009313","img/flower6.png","74","384.39999999990687","1","1","3","1","1,0.333,0.333,0.333,1,0.333,0.333,0.333,1","1,0.333,0.333,0.333,1,0.333,0.333,0.333,1","1",""
"","html-keyboard-response","271","341411","0.0-271.0","39U1BHVTDMD8BSDZF4ABB1PN3HC3TV","A2OU40SUJR40CC","3P520RYKCHSO30HY2QJC6BDLS9Z5UE","","null","<img src=""img/flower6.png"" style=""width:200px; border:14px solid green;"">","null","","","","","","","","",""
"","image-keyboard-response","272","341860","0.0-272.0","39U1BHVTDMD8BSDZF4ABB1PN3HC3TV","A2OU40SUJR40CC","3P520RYKCHSO30HY2QJC6BDLS9Z5UE","","447.30000000004657","img/flower6.png","74","448.69999999995343","1","0","3","1","1,0.333,0.333,0.333,1,0.333,0.333,0.333,1","1,0.333,0.333,0.333,1,0.333,0.333,0.333,1","1",""
"","html-keyboard-response","273","342163","0.0-273.0","39U1BHVTDMD8BSDZF4ABB1PN3HC3TV","A2OU40SUJR40CC","3P520RYKCHSO30HY2QJC6BDLS9Z5UE","","null","<img src=""img/flower6.png"" style=""width:200px;border:14px solid red;"">","null","","","","","","","","",""
"","image-keyboard-response","274","342580","0.0-274.0","39U1BHVTDMD8BSDZF4ABB1PN3HC3TV","A2OU40SUJR40CC","3P520RYKCHSO30HY2QJC6BDLS9Z5UE","","415.10000000009313","img/flower6.png","74","416.39999999990687","1","0","3","1","1,0.333,0.333,0.333,1,0.333,0.333,0.333,1","1,0.333,0.333,0.333,1,0.333,0.333,0.333,1","1",""
"","html-keyboard-response","275","342883","0.0-275.0","39U1BHVTDMD8BSDZF4ABB1PN3HC3TV","A2OU40SUJR40CC","3P520RYKCHSO30HY2QJC6BDLS9Z5UE","","null","<img src=""img/flower6.png"" style=""width:200px;border:14px solid red;"">","null","","","","","","","","",""
"","image-keyboard-response","276","343556","0.0-276.0","39U1BHVTDMD8BSDZF4ABB1PN3HC3TV","A2OU40SUJR40CC","3P520RYKCHSO30HY2QJC6BDLS9Z5UE","","671.3000000000466","img/flower2.png","75","672.6000000000931","2","1","2","1","1,0.333,0.333,0.333,1,0.333,0.333,0.333,1","1,0.333,0.333,0.333,1,0.333,0.333,0.333,1","1",""
"","html-keyboard-response","277","343858","0.0-277.0","39U1BHVTDMD8BSDZF4ABB1PN3HC3TV","A2OU40SUJR40CC","3P520RYKCHSO30HY2QJC6BDLS9Z5UE","","null","<img src=""img/flower2.png"" style=""width:200px; border:14px solid green;"">","null","","","","","","","","",""
"","image-keyboard-response","278","344676","0.0-278.0","39U1BHVTDMD8BSDZF4ABB1PN3HC3TV","A2OU40SUJR40CC","3P520RYKCHSO30HY2QJC6BDLS9Z5UE","","816.4000000001397","img/flower5.png","74","817.6000000000931","1","1","1","1","1,0.333,0.333,0.333,1,0.333,0.333,0.333,1","1,0.333,0.333,0.333,1,0.333,0.333,0.333,1","1",""
"","html-keyboard-response","279","344979","0.0-279.0","39U1BHVTDMD8BSDZF4ABB1PN3HC3TV","A2OU40SUJR40CC","3P520RYKCHSO30HY2QJC6BDLS9Z5UE","","null","<img src=""img/flower5.png"" style=""width:200px; border:14px solid green;"">","null","","","","","","","","",""
"","image-keyboard-response","280","345364","0.0-280.0","39U1BHVTDMD8BSDZF4ABB1PN3HC3TV","A2OU40SUJR40CC","3P520RYKCHSO30HY2QJC6BDLS9Z5UE","","383.39999999990687","img/flower5.png","74","384.80000000004657","1","1","1","1","1,0.333,0.333,0.333,1,0.333,0.333,0.333,1","1,0.333,0.333,0.333,1,0.333,0.333,0.333,1","1",""
"","html-keyboard-response","281","345666","0.0-281.0","39U1BHVTDMD8BSDZF4ABB1PN3HC3TV","A2OU40SUJR40CC","3P520RYKCHSO30HY2QJC6BDLS9Z5UE","","null","<img src=""img/flower5.png"" style=""width:200px; border:14px solid green;"">","null","","","","","","","","",""
"","image-keyboard-response","282","346308","0.0-282.0","39U1BHVTDMD8BSDZF4ABB1PN3HC3TV","A2OU40SUJR40CC","3P520RYKCHSO30HY2QJC6BDLS9Z5UE","","640.2999999998137","img/flower6.png","74","643.1000000000931","1","0","3","1","1,0.333,0.333,0.333,1,0.333,0.333,0.333,1","1,0.333,0.333,0.333,1,0.333,0.333,0.333,1","1",""
"","html-keyboard-response","283","346612","0.0-283.0","39U1BHVTDMD8BSDZF4ABB1PN3HC3TV","A2OU40SUJR40CC","3P520RYKCHSO30HY2QJC6BDLS9Z5UE","","null","<img src=""img/flower6.png"" style=""width:200px;border:14px solid red;"">","null","","","","","","","","",""
"","image-keyboard-response","284","347508","0.0-284.0","39U1BHVTDMD8BSDZF4ABB1PN3HC3TV","A2OU40SUJR40CC","3P520RYKCHSO30HY2QJC6BDLS9Z5UE","","894.5","img/flower2.png","75","895.8999999999069","2","1","2","1","1,0.333,0.333,0.333,1,0.333,0.333,0.333,1","1,0.333,0.333,0.333,1,0.333,0.333,0.333,1","1",""
"","html-keyboard-response","285","347810","0.0-285.0","39U1BHVTDMD8BSDZF4ABB1PN3HC3TV","A2OU40SUJR40CC","3P520RYKCHSO30HY2QJC6BDLS9Z5UE","","null","<img src=""img/flower2.png"" style=""width:200px; border:14px solid green;"">","null","","","","","","","","",""
"","image-keyboard-response","286","348612","0.0-286.0","39U1BHVTDMD8BSDZF4ABB1PN3HC3TV","A2OU40SUJR40CC","3P520RYKCHSO30HY2QJC6BDLS9Z5UE","","800.5","img/flower6.png","76","801.8999999999069","3","1","3","1","1,0.333,0.333,0.333,1,0.333,0.333,0.333,1","1,0.333,0.333,0.333,1,0.333,0.333,0.333,1","1",""
"","html-keyboard-response","287","348914","0.0-287.0","39U1BHVTDMD8BSDZF4ABB1PN3HC3TV","A2OU40SUJR40CC","3P520RYKCHSO30HY2QJC6BDLS9Z5UE","","null","<img src=""img/flower6.png"" style=""width:200px; border:14px solid green;"">","null","","","","","","","","",""
"","image-keyboard-response","288","349268","0.0-288.0","39U1BHVTDMD8BSDZF4ABB1PN3HC3TV","A2OU40SUJR40CC","3P520RYKCHSO30HY2QJC6BDLS9Z5UE","","352.9000000001397","img/flower6.png","76","354.19999999995343","3","1","3","1","1,0.333,0.333,0.333,1,0.333,0.333,0.333,1","1,0.333,0.333,0.333,1,0.333,0.333,0.333,1","1",""
"","html-keyboard-response","289","349572","0.0-289.0","39U1BHVTDMD8BSDZF4ABB1PN3HC3TV","A2OU40SUJR40CC","3P520RYKCHSO30HY2QJC6BDLS9Z5UE","","null","<img src=""img/flower6.png"" style=""width:200px; border:14px solid green;"">","null","","","","","","","","",""
"","image-keyboard-response","290","350452","0.0-290.0","39U1BHVTDMD8BSDZF4ABB1PN3HC3TV","A2OU40SUJR40CC","3P520RYKCHSO30HY2QJC6BDLS9Z5UE","","878.6000000000931","img/flower5.png","75","880.1000000000931","2","1","1","1","1,0.333,0.333,0.333,1,0.333,0.333,0.333,1","1,0.333,0.333,0.333,1,0.333,0.333,0.333,1","1",""
"","html-keyboard-response","291","350754","0.0-291.0","39U1BHVTDMD8BSDZF4ABB1PN3HC3TV","A2OU40SUJR40CC","3P520RYKCHSO30HY2QJC6BDLS9Z5UE","","null","<img src=""img/flower5.png"" style=""width:200px; border:14px solid green;"">","null","","","","","","","","",""
"","image-keyboard-response","292","351412","0.0-292.0","39U1BHVTDMD8BSDZF4ABB1PN3HC3TV","A2OU40SUJR40CC","3P520RYKCHSO30HY2QJC6BDLS9Z5UE","","656.6000000000931","img/flower2.png","76","658","3","0","2","1","1,0.333,0.333,0.333,1,0.333,0.333,0.333,1","1,0.333,0.333,0.333,1,0.333,0.333,0.333,1","1",""
"","html-keyboard-response","293","351714","0.0-293.0","39U1BHVTDMD8BSDZF4ABB1PN3HC3TV","A2OU40SUJR40CC","3P520RYKCHSO30HY2QJC6BDLS9Z5UE","","null","<img src=""img/flower2.png"" style=""width:200px;border:14px solid red;"">","null","","","","","","","","",""
"","image-keyboard-response","294","352580","0.0-294.0","39U1BHVTDMD8BSDZF4ABB1PN3HC3TV","A2OU40SUJR40CC","3P520RYKCHSO30HY2QJC6BDLS9Z5UE","","864.8000000000466","img/flower5.png","74","866","1","1","1","1","1,0.333,0.333,0.333,1,0.333,0.333,0.333,1","1,0.333,0.333,0.333,1,0.333,0.333,0.333,1","1",""
"","html-keyboard-response","295","352883","0.0-295.0","39U1BHVTDMD8BSDZF4ABB1PN3HC3TV","A2OU40SUJR40CC","3P520RYKCHSO30HY2QJC6BDLS9Z5UE","","null","<img src=""img/flower5.png"" style=""width:200px; border:14px solid green;"">","null","","","","","","","","",""
"","image-keyboard-response","296","353540","0.0-296.0","39U1BHVTDMD8BSDZF4ABB1PN3HC3TV","A2OU40SUJR40CC","3P520RYKCHSO30HY2QJC6BDLS9Z5UE","","655.6999999999534","img/flower2.png","75","657","2","1","2","1","1,0.333,0.333,0.333,1,0.333,0.333,0.333,1","1,0.333,0.333,0.333,1,0.333,0.333,0.333,1","1",""
"","html-keyboard-response","297","353846","0.0-297.0","39U1BHVTDMD8BSDZF4ABB1PN3HC3TV","A2OU40SUJR40CC","3P520RYKCHSO30HY2QJC6BDLS9Z5UE","","null","<img src=""img/flower2.png"" style=""width:200px; border:14px solid green;"">","null","","","","","","","","",""
"","image-keyboard-response","298","354276","0.0-298.0","39U1BHVTDMD8BSDZF4ABB1PN3HC3TV","A2OU40SUJR40CC","3P520RYKCHSO30HY2QJC6BDLS9Z5UE","","427.89999999990687","img/flower2.png","75","429.19999999995343","2","1","2","1","1,0.333,0.333,0.333,1,0.333,0.333,0.333,1","1,0.333,0.333,0.333,1,0.333,0.333,0.333,1","1",""
"","html-keyboard-response","299","354579","0.0-299.0","39U1BHVTDMD8BSDZF4ABB1PN3HC3TV","A2OU40SUJR40CC","3P520RYKCHSO30HY2QJC6BDLS9Z5UE","","null","<img src=""img/flower2.png"" style=""width:200px; border:14px solid green;"">","null","","","","","","","","",""
"","image-keyboard-response","300","355188","0.0-300.0","39U1BHVTDMD8BSDZF4ABB1PN3HC3TV","A2OU40SUJR40CC","3P520RYKCHSO30HY2QJC6BDLS9Z5UE","","606.8000000000466","img/flower5.png","74","608.3000000000466","1","1","1","1","1,0.333,0.333,0.333,1,0.333,0.333,0.333,1","1,0.333,0.333,0.333,1,0.333,0.333,0.333,1","1",""
"","html-keyboard-response","301","355491","0.0-301.0","39U1BHVTDMD8BSDZF4ABB1PN3HC3TV","A2OU40SUJR40CC","3P520RYKCHSO30HY2QJC6BDLS9Z5UE","","null","<img src=""img/flower5.png"" style=""width:200px; border:14px solid green;"">","null","","","","","","","","",""
"","image-keyboard-response","302","356116","0.0-302.0","39U1BHVTDMD8BSDZF4ABB1PN3HC3TV","A2OU40SUJR40CC","3P520RYKCHSO30HY2QJC6BDLS9Z5UE","","623","img/flower6.png","76","624.1999999999534","3","1","3","1","1,0.333,0.333,0.333,1,0.333,0.333,0.333,1","1,0.333,0.333,0.333,1,0.333,0.333,0.333,1","1",""
"","html-keyboard-response","303","356419","0.0-303.0","39U1BHVTDMD8BSDZF4ABB1PN3HC3TV","A2OU40SUJR40CC","3P520RYKCHSO30HY2QJC6BDLS9Z5UE","","null","<img src=""img/flower6.png"" style=""width:200px; border:14px solid green;"">","null","","","","","","","","",""
"","image-keyboard-response","304","357108","0.0-304.0","39U1BHVTDMD8BSDZF4ABB1PN3HC3TV","A2OU40SUJR40CC","3P520RYKCHSO30HY2QJC6BDLS9Z5UE","","687","img/flower2.png","74","688.3000000000466","1","0","2","1","1,0.333,0.333,0.333,1,0.333,0.333,0.333,1","1,0.333,0.333,0.333,1,0.333,0.333,0.333,1","1",""
"","html-keyboard-response","305","357411","0.0-305.0","39U1BHVTDMD8BSDZF4ABB1PN3HC3TV","A2OU40SUJR40CC","3P520RYKCHSO30HY2QJC6BDLS9Z5UE","","null","<img src=""img/flower2.png"" style=""width:200px;border:14px solid red;"">","null","","","","","","","","",""
"","image-keyboard-response","306","357796","0.0-306.0","39U1BHVTDMD8BSDZF4ABB1PN3HC3TV","A2OU40SUJR40CC","3P520RYKCHSO30HY2QJC6BDLS9Z5UE","","383.10000000009313","img/flower2.png","74","384.39999999990687","1","0","2","1","1,0.333,0.333,0.333,1,0.333,0.333,0.333,1","1,0.333,0.333,0.333,1,0.333,0.333,0.333,1","1",""
"","html-keyboard-response","307","358099","0.0-307.0","39U1BHVTDMD8BSDZF4ABB1PN3HC3TV","A2OU40SUJR40CC","3P520RYKCHSO30HY2QJC6BDLS9Z5UE","","null","<img src=""img/flower2.png"" style=""width:200px;border:14px solid red;"">","null","","","","","","","","",""
"","image-keyboard-response","308","358356","0.0-308.0","39U1BHVTDMD8BSDZF4ABB1PN3HC3TV","A2OU40SUJR40CC","3P520RYKCHSO30HY2QJC6BDLS9Z5UE","","255.19999999995343","img/flower6.png","75","256.39999999990687","2","0","3","1","1,0.333,0.333,0.333,1,0.333,0.333,0.333,1","1,0.333,0.333,0.333,1,0.333,0.333,0.333,1","1",""
"","html-keyboard-response","309","358659","0.0-309.0","39U1BHVTDMD8BSDZF4ABB1PN3HC3TV","A2OU40SUJR40CC","3P520RYKCHSO30HY2QJC6BDLS9Z5UE","","null","<img src=""img/flower6.png"" style=""width:200px;border:14px solid red;"">","null","","","","","","","","",""
"","image-keyboard-response","310","359556","0.0-310.0","39U1BHVTDMD8BSDZF4ABB1PN3HC3TV","A2OU40SUJR40CC","3P520RYKCHSO30HY2QJC6BDLS9Z5UE","","895.5","img/flower2.png","75","896.8000000000466","2","1","2","1","1,0.333,0.333,0.333,1,0.333,0.333,0.333,1","1,0.333,0.333,0.333,1,0.333,0.333,0.333,1","1",""
"","html-keyboard-response","311","359858","0.0-311.0","39U1BHVTDMD8BSDZF4ABB1PN3HC3TV","A2OU40SUJR40CC","3P520RYKCHSO30HY2QJC6BDLS9Z5UE","","null","<img src=""img/flower2.png"" style=""width:200px; border:14px solid green;"">","null","","","","","","","","",""
"","image-keyboard-response","312","360596","0.0-312.0","39U1BHVTDMD8BSDZF4ABB1PN3HC3TV","A2OU40SUJR40CC","3P520RYKCHSO30HY2QJC6BDLS9Z5UE","","736.3000000000466","img/flower5.png","74","737.6000000000931","1","1","1","1","1,0.333,0.333,0.333,1,0.333,0.333,0.333,1","1,0.333,0.333,0.333,1,0.333,0.333,0.333,1","1",""
"","html-keyboard-response","313","360899","0.0-313.0","39U1BHVTDMD8BSDZF4ABB1PN3HC3TV","A2OU40SUJR40CC","3P520RYKCHSO30HY2QJC6BDLS9Z5UE","","null","<img src=""img/flower5.png"" style=""width:200px; border:14px solid green;"">","null","","","","","","","","",""
"","image-keyboard-response","314","361524","0.0-314.0","39U1BHVTDMD8BSDZF4ABB1PN3HC3TV","A2OU40SUJR40CC","3P520RYKCHSO30HY2QJC6BDLS9Z5UE","","623.1999999999534","img/flower2.png","75","624.6000000000931","2","1","2","1","1,0.333,0.333,0.333,1,0.333,0.333,0.333,1","1,0.333,0.333,0.333,1,0.333,0.333,0.333,1","1",""
"","html-keyboard-response","315","361826","0.0-315.0","39U1BHVTDMD8BSDZF4ABB1PN3HC3TV","A2OU40SUJR40CC","3P520RYKCHSO30HY2QJC6BDLS9Z5UE","","null","<img src=""img/flower2.png"" style=""width:200px; border:14px solid green;"">","null","","","","","","","","",""
"","image-keyboard-response","316","362372","0.0-316.0","39U1BHVTDMD8BSDZF4ABB1PN3HC3TV","A2OU40SUJR40CC","3P520RYKCHSO30HY2QJC6BDLS9Z5UE","","544.3999999999069","img/flower6.png","76","545.6999999999534","3","1","3","1","1,0.333,0.333,0.333,1,0.333,0.333,0.333,1","1,0.333,0.333,0.333,1,0.333,0.333,0.333,1","1",""
"","html-keyboard-response","317","362674","0.0-317.0","39U1BHVTDMD8BSDZF4ABB1PN3HC3TV","A2OU40SUJR40CC","3P520RYKCHSO30HY2QJC6BDLS9Z5UE","","null","<img src=""img/flower6.png"" style=""width:200px; border:14px solid green;"">","null","","","","","","","","",""
"","image-keyboard-response","318","363444","0.0-318.0","39U1BHVTDMD8BSDZF4ABB1PN3HC3TV","A2OU40SUJR40CC","3P520RYKCHSO30HY2QJC6BDLS9Z5UE","","768.3999999999069","img/flower5.png","74","769.8000000000466","1","1","1","1","1,0.333,0.333,0.333,1,0.333,0.333,0.333,1","1,0.333,0.333,0.333,1,0.333,0.333,0.333,1","1",""
"","html-keyboard-response","319","363758","0.0-319.0","39U1BHVTDMD8BSDZF4ABB1PN3HC3TV","A2OU40SUJR40CC","3P520RYKCHSO30HY2QJC6BDLS9Z5UE","","null","<img src=""img/flower5.png"" style=""width:200px; border:14px solid green;"">","null","","","","","","","","",""
"","image-keyboard-response","320","364180","0.0-320.0","39U1BHVTDMD8BSDZF4ABB1PN3HC3TV","A2OU40SUJR40CC","3P520RYKCHSO30HY2QJC6BDLS9Z5UE","","420.4000000001397","img/flower5.png","74","421.69999999995343","1","1","1","1","1,0.333,0.333,0.333,1,0.333,0.333,0.333,1","1,0.333,0.333,0.333,1,0.333,0.333,0.333,1","1",""
"","html-keyboard-response","321","364483","0.0-321.0","39U1BHVTDMD8BSDZF4ABB1PN3HC3TV","A2OU40SUJR40CC","3P520RYKCHSO30HY2QJC6BDLS9Z5UE","","null","<img src=""img/flower5.png"" style=""width:200px; border:14px solid green;"">","null","","","","","","","","",""
"","image-keyboard-response","322","364884","0.0-322.0","39U1BHVTDMD8BSDZF4ABB1PN3HC3TV","A2OU40SUJR40CC","3P520RYKCHSO30HY2QJC6BDLS9Z5UE","","399.60000000009313","img/flower5.png","74","400.80000000004657","1","1","1","1","1,0.333,0.333,0.333,1,0.333,0.333,0.333,1","1,0.333,0.333,0.333,1,0.333,0.333,0.333,1","1",""
"","html-keyboard-response","323","365187","0.0-323.0","39U1BHVTDMD8BSDZF4ABB1PN3HC3TV","A2OU40SUJR40CC","3P520RYKCHSO30HY2QJC6BDLS9Z5UE","","null","<img src=""img/flower5.png"" style=""width:200px; border:14px solid green;"">","null","","","","","","","","",""
"","image-keyboard-response","324","365428","0.0-324.0","39U1BHVTDMD8BSDZF4ABB1PN3HC3TV","A2OU40SUJR40CC","3P520RYKCHSO30HY2QJC6BDLS9Z5UE","","239.39999999990687","img/flower5.png","74","240.80000000004657","1","1","1","1","1,0.333,0.333,0.333,1,0.333,0.333,0.333,1","1,0.333,0.333,0.333,1,0.333,0.333,0.333,1","1",""
"","html-keyboard-response","325","365730","0.0-325.0","39U1BHVTDMD8BSDZF4ABB1PN3HC3TV","A2OU40SUJR40CC","3P520RYKCHSO30HY2QJC6BDLS9Z5UE","","null","<img src=""img/flower5.png"" style=""width:200px; border:14px solid green;"">","null","","","","","","","","",""
"","image-keyboard-response","326","367012","0.0-326.0","39U1BHVTDMD8BSDZF4ABB1PN3HC3TV","A2OU40SUJR40CC","3P520RYKCHSO30HY2QJC6BDLS9Z5UE","","1280.6000000000931","img/flower2.png","75","1282.0999999998603","2","1","2","1","1,0.333,0.333,0.333,1,0.333,0.333,0.333,1","1,0.333,0.333,0.333,1,0.333,0.333,0.333,1","1",""
"","html-keyboard-response","327","367314","0.0-327.0","39U1BHVTDMD8BSDZF4ABB1PN3HC3TV","A2OU40SUJR40CC","3P520RYKCHSO30HY2QJC6BDLS9Z5UE","","null","<img src=""img/flower2.png"" style=""width:200px; border:14px solid green;"">","null","","","","","","","","",""
"","image-keyboard-response","328","367860","0.0-328.0","39U1BHVTDMD8BSDZF4ABB1PN3HC3TV","A2OU40SUJR40CC","3P520RYKCHSO30HY2QJC6BDLS9Z5UE","","544.6999999999534","img/flower6.png","74","546.1000000000931","1","0","3","1","1,0.333,0.333,0.333,1,0.333,0.333,0.333,1","1,0.333,0.333,0.333,1,0.333,0.333,0.333,1","1",""
"","html-keyboard-response","329","368163","0.0-329.0","39U1BHVTDMD8BSDZF4ABB1PN3HC3TV","A2OU40SUJR40CC","3P520RYKCHSO30HY2QJC6BDLS9Z5UE","","null","<img src=""img/flower6.png"" style=""width:200px;border:14px solid red;"">","null","","","","","","","","",""
"","image-keyboard-response","330","368372","0.0-330.0","39U1BHVTDMD8BSDZF4ABB1PN3HC3TV","A2OU40SUJR40CC","3P520RYKCHSO30HY2QJC6BDLS9Z5UE","","207.80000000004657","img/flower5.png","76","209.19999999995343","3","1","1","1","1,0.333,0.333,0.333,1,0.333,0.333,0.333,1","1,0.333,0.333,0.333,1,0.333,0.333,0.333,1","1",""
"","html-keyboard-response","331","368675","0.0-331.0","39U1BHVTDMD8BSDZF4ABB1PN3HC3TV","A2OU40SUJR40CC","3P520RYKCHSO30HY2QJC6BDLS9Z5UE","","null","<img src=""img/flower5.png"" style=""width:200px; border:14px solid green;"">","null","","","","","","","","",""
"","image-keyboard-response","332","369796","0.0-332.0","39U1BHVTDMD8BSDZF4ABB1PN3HC3TV","A2OU40SUJR40CC","3P520RYKCHSO30HY2QJC6BDLS9Z5UE","","1120.0999999998603","img/flower6.png","76","1121.5","3","1","3","1","1,0.333,0.333,0.333,1,0.333,0.333,0.333,1","1,0.333,0.333,0.333,1,0.333,0.333,0.333,1","1",""
"","html-keyboard-response","333","370099","0.0-333.0","39U1BHVTDMD8BSDZF4ABB1PN3HC3TV","A2OU40SUJR40CC","3P520RYKCHSO30HY2QJC6BDLS9Z5UE","","null","<img src=""img/flower6.png"" style=""width:200px; border:14px solid green;"">","null","","","","","","","","",""
"","image-keyboard-response","334","370900","0.0-334.0","39U1BHVTDMD8BSDZF4ABB1PN3HC3TV","A2OU40SUJR40CC","3P520RYKCHSO30HY2QJC6BDLS9Z5UE","","798.9000000001397","img/flower2.png","75","800.2000000001863","2","1","2","1","1,0.333,0.333,0.333,1,0.333,0.333,0.333,1","1,0.333,0.333,0.333,1,0.333,0.333,0.333,1","1",""
"","html-keyboard-response","335","371203","0.0-335.0","39U1BHVTDMD8BSDZF4ABB1PN3HC3TV","A2OU40SUJR40CC","3P520RYKCHSO30HY2QJC6BDLS9Z5UE","","null","<img src=""img/flower2.png"" style=""width:200px; border:14px solid green;"">","null","","","","","","","","",""
"","image-keyboard-response","336","371876","0.0-336.0","39U1BHVTDMD8BSDZF4ABB1PN3HC3TV","A2OU40SUJR40CC","3P520RYKCHSO30HY2QJC6BDLS9Z5UE","","670.8000000000466","img/flower6.png","76","672.1999999999534","3","1","3","1","1,0.333,0.333,0.333,1,0.333,0.333,0.333,1","1,0.333,0.333,0.333,1,0.333,0.333,0.333,1","1",""
"","html-keyboard-response","337","372179","0.0-337.0","39U1BHVTDMD8BSDZF4ABB1PN3HC3TV","A2OU40SUJR40CC","3P520RYKCHSO30HY2QJC6BDLS9Z5UE","","null","<img src=""img/flower6.png"" style=""width:200px; border:14px solid green;"">","null","","","","","","","","",""
"","image-keyboard-response","338","373028","0.0-338.0","39U1BHVTDMD8BSDZF4ABB1PN3HC3TV","A2OU40SUJR40CC","3P520RYKCHSO30HY2QJC6BDLS9Z5UE","","847","img/flower5.png","74","848.4000000001397","1","1","1","1","1,0.333,0.333,0.333,1,0.333,0.333,0.333,1","1,0.333,0.333,0.333,1,0.333,0.333,0.333,1","1",""
"","html-keyboard-response","339","373331","0.0-339.0","39U1BHVTDMD8BSDZF4ABB1PN3HC3TV","A2OU40SUJR40CC","3P520RYKCHSO30HY2QJC6BDLS9Z5UE","","null","<img src=""img/flower5.png"" style=""width:200px; border:14px solid green;"">","null","","","","","","","","",""
"","image-keyboard-response","340","373892","0.0-340.0","39U1BHVTDMD8BSDZF4ABB1PN3HC3TV","A2OU40SUJR40CC","3P520RYKCHSO30HY2QJC6BDLS9Z5UE","","559.1000000000931","img/flower2.png","75","560.3999999999069","2","1","2","1","1,0.333,0.333,0.333,1,0.333,0.333,0.333,1","1,0.333,0.333,0.333,1,0.333,0.333,0.333,1","1",""
"","html-keyboard-response","341","374209","0.0-341.0","39U1BHVTDMD8BSDZF4ABB1PN3HC3TV","A2OU40SUJR40CC","3P520RYKCHSO30HY2QJC6BDLS9Z5UE","","null","<img src=""img/flower2.png"" style=""width:200px; border:14px solid green;"">","null","","","","","","","","",""
"","image-keyboard-response","342","374964","0.0-342.0","39U1BHVTDMD8BSDZF4ABB1PN3HC3TV","A2OU40SUJR40CC","3P520RYKCHSO30HY2QJC6BDLS9Z5UE","","753.1000000000931","img/flower6.png","76","754.4000000001397","3","1","3","1","1,0.333,0.333,0.333,1,0.333,0.333,0.333,1","1,0.333,0.333,0.333,1,0.333,0.333,0.333,1","1",""
"","html-keyboard-response","343","375267","0.0-343.0","39U1BHVTDMD8BSDZF4ABB1PN3HC3TV","A2OU40SUJR40CC","3P520RYKCHSO30HY2QJC6BDLS9Z5UE","","null","<img src=""img/flower6.png"" style=""width:200px; border:14px solid green;"">","null","","","","","","","","",""
"","image-keyboard-response","344","376020","0.0-344.0","39U1BHVTDMD8BSDZF4ABB1PN3HC3TV","A2OU40SUJR40CC","3P520RYKCHSO30HY2QJC6BDLS9Z5UE","","751.2000000001863","img/flower2.png","75","752.5","2","1","2","1","1,0.333,0.333,0.333,1,0.333,0.333,0.333,1","1,0.333,0.333,0.333,1,0.333,0.333,0.333,1","1",""
"","html-keyboard-response","345","376322","0.0-345.0","39U1BHVTDMD8BSDZF4ABB1PN3HC3TV","A2OU40SUJR40CC","3P520RYKCHSO30HY2QJC6BDLS9Z5UE","","null","<img src=""img/flower2.png"" style=""width:200px; border:14px solid green;"">","null","","","","","","","","",""
"","image-keyboard-response","346","377124","0.0-346.0","39U1BHVTDMD8BSDZF4ABB1PN3HC3TV","A2OU40SUJR40CC","3P520RYKCHSO30HY2QJC6BDLS9Z5UE","","800.2000000001863","img/flower6.png","74","801.3999999999069","1","0","3","1","1,0.333,0.333,0.333,1,0.333,0.333,0.333,1","1,0.333,0.333,0.333,1,0.333,0.333,0.333,1","1",""
"","html-keyboard-response","347","377427","0.0-347.0","39U1BHVTDMD8BSDZF4ABB1PN3HC3TV","A2OU40SUJR40CC","3P520RYKCHSO30HY2QJC6BDLS9Z5UE","","null","<img src=""img/flower6.png"" style=""width:200px;border:14px solid red;"">","null","","","","","","","","",""
"","image-keyboard-response","348","378420","0.0-348.0","39U1BHVTDMD8BSDZF4ABB1PN3HC3TV","A2OU40SUJR40CC","3P520RYKCHSO30HY2QJC6BDLS9Z5UE","","991.3000000000466","img/flower2.png","75","992.6000000000931","2","1","2","1","1,0.333,0.333,0.333,1,0.333,0.333,0.333,1","1,0.333,0.333,0.333,1,0.333,0.333,0.333,1","1",""
"","html-keyboard-response","349","378723","0.0-349.0","39U1BHVTDMD8BSDZF4ABB1PN3HC3TV","A2OU40SUJR40CC","3P520RYKCHSO30HY2QJC6BDLS9Z5UE","","null","<img src=""img/flower2.png"" style=""width:200px; border:14px solid green;"">","null","","","","","","","","",""
"","image-keyboard-response","350","379220","0.0-350.0","39U1BHVTDMD8BSDZF4ABB1PN3HC3TV","A2OU40SUJR40CC","3P520RYKCHSO30HY2QJC6BDLS9Z5UE","","495.19999999995343","img/flower6.png","76","496.4000000001397","3","1","3","1","1,0.333,0.333,0.333,1,0.333,0.333,0.333,1","1,0.333,0.333,0.333,1,0.333,0.333,0.333,1","1",""
"","html-keyboard-response","351","379523","0.0-351.0","39U1BHVTDMD8BSDZF4ABB1PN3HC3TV","A2OU40SUJR40CC","3P520RYKCHSO30HY2QJC6BDLS9Z5UE","","null","<img src=""img/flower6.png"" style=""width:200px; border:14px solid green;"">","null","","","","","","","","",""
"","image-keyboard-response","352","379924","0.0-352.0","39U1BHVTDMD8BSDZF4ABB1PN3HC3TV","A2OU40SUJR40CC","3P520RYKCHSO30HY2QJC6BDLS9Z5UE","","399.5999999998603","img/flower6.png","76","401","3","1","3","1","1,0.333,0.333,0.333,1,0.333,0.333,0.333,1","1,0.333,0.333,0.333,1,0.333,0.333,0.333,1","1",""
"","html-keyboard-response","353","380227","0.0-353.0","39U1BHVTDMD8BSDZF4ABB1PN3HC3TV","A2OU40SUJR40CC","3P520RYKCHSO30HY2QJC6BDLS9Z5UE","","null","<img src=""img/flower6.png"" style=""width:200px; border:14px solid green;"">","null","","","","","","","","",""
"","image-keyboard-response","354","380532","0.0-354.0","39U1BHVTDMD8BSDZF4ABB1PN3HC3TV","A2OU40SUJR40CC","3P520RYKCHSO30HY2QJC6BDLS9Z5UE","","303.5","img/flower6.png","76","304.69999999995343","3","1","3","1","1,0.333,0.333,0.333,1,0.333,0.333,0.333,1","1,0.333,0.333,0.333,1,0.333,0.333,0.333,1","1",""
"","html-keyboard-response","355","380837","0.0-355.0","39U1BHVTDMD8BSDZF4ABB1PN3HC3TV","A2OU40SUJR40CC","3P520RYKCHSO30HY2QJC6BDLS9Z5UE","","null","<img src=""img/flower6.png"" style=""width:200px; border:14px solid green;"">","null","","","","","","","","",""
"","image-keyboard-response","356","381284","0.0-356.0","39U1BHVTDMD8BSDZF4ABB1PN3HC3TV","A2OU40SUJR40CC","3P520RYKCHSO30HY2QJC6BDLS9Z5UE","","445.69999999995343","img/flower6.png","76","447.19999999995343","3","1","3","1","1,0.333,0.333,0.333,1,0.333,0.333,0.333,1","1,0.333,0.333,0.333,1,0.333,0.333,0.333,1","1",""
"","html-keyboard-response","357","381588","0.0-357.0","39U1BHVTDMD8BSDZF4ABB1PN3HC3TV","A2OU40SUJR40CC","3P520RYKCHSO30HY2QJC6BDLS9Z5UE","","null","<img src=""img/flower6.png"" style=""width:200px; border:14px solid green;"">","null","","","","","","","","",""
"","image-keyboard-response","358","382244","0.0-358.0","39U1BHVTDMD8BSDZF4ABB1PN3HC3TV","A2OU40SUJR40CC","3P520RYKCHSO30HY2QJC6BDLS9Z5UE","","654.1000000000931","img/flower2.png","75","655.6000000000931","2","1","2","1","1,0.333,0.333,0.333,1,0.333,0.333,0.333,1","1,0.333,0.333,0.333,1,0.333,0.333,0.333,1","1",""
"","html-keyboard-response","359","382547","0.0-359.0","39U1BHVTDMD8BSDZF4ABB1PN3HC3TV","A2OU40SUJR40CC","3P520RYKCHSO30HY2QJC6BDLS9Z5UE","","null","<img src=""img/flower2.png"" style=""width:200px; border:14px solid green;"">","null","","","","","","","","",""
"","image-keyboard-response","360","382964","0.0-360.0","39U1BHVTDMD8BSDZF4ABB1PN3HC3TV","A2OU40SUJR40CC","3P520RYKCHSO30HY2QJC6BDLS9Z5UE","","415.60000000009313","img/flower2.png","75","416.89999999990687","2","1","2","1","1,0.333,0.333,0.333,1,0.333,0.333,0.333,1","1,0.333,0.333,0.333,1,0.333,0.333,0.333,1","1",""
"","html-keyboard-response","361","383267","0.0-361.0","39U1BHVTDMD8BSDZF4ABB1PN3HC3TV","A2OU40SUJR40CC","3P520RYKCHSO30HY2QJC6BDLS9Z5UE","","null","<img src=""img/flower2.png"" style=""width:200px; border:14px solid green;"">","null","","","","","","","","",""
"","html-keyboard-response","362","386232","0.0-362.0","39U1BHVTDMD8BSDZF4ABB1PN3HC3TV","A2OU40SUJR40CC","3P520RYKCHSO30HY2QJC6BDLS9Z5UE","","","","","","","","","","","","",""
