"success","trial_type","trial_index","time_elapsed","internal_node_id","assignmentID","mturkID","hitID","view_history","rt","stimulus","key_press","reactionTime","a","r","s","cond","reward_cond","reward_cond_actual","reward_matrix_idx","responses"
"true","fullscreen","0","12801","0.0-0.0","3CFVK00FWM7JPYSCPX6IWDRQJUBL6X","A2OWFJJ8YEKBF1","3I7KR83SNAZT1REYB2SRC49PCEEK9H","","","","","","","","","","","","",""
"","instructions","1","33341","0.0-1.0","3CFVK00FWM7JPYSCPX6IWDRQJUBL6X","A2OWFJJ8YEKBF1","3I7KR83SNAZT1REYB2SRC49PCEEK9H","[{""page_index"":0,""viewing_time"":3372},{""page_index"":1,""viewing_time"":1649.2999999523163},{""page_index"":2,""viewing_time"":1232.9000000953674},{""page_index"":3,""viewing_time"":1150.5999999046326},{""page_index"":4,""viewing_time"":5416.300000071526},{""page_index"":5,""viewing_time"":4350.199999928474},{""page_index"":6,""viewing_time"":1816.9000000953674},{""page_index"":7,""viewing_time"":1550.1999999284744}]","20538.700000047684","","","","","","","","","","",""
"","image-keyboard-response","2","33379","0.0-2.0","3CFVK00FWM7JPYSCPX6IWDRQJUBL6X","A2OWFJJ8YEKBF1","3I7KR83SNAZT1REYB2SRC49PCEEK9H","","36.300000071525574","img/flower2.png","74","37.39999997615814","1","1","1","1","1,0.333,0.333,0.333,1,0.333,0.333,0.333,1","1,0.333,0.333,0.333,1,0.333,0.333,0.333,1","1",""
"","html-keyboard-response","3","33685","0.0-3.0","3CFVK00FWM7JPYSCPX6IWDRQJUBL6X","A2OWFJJ8YEKBF1","3I7KR83SNAZT1REYB2SRC49PCEEK9H","","null","<img src=""img/flower2.png"" style=""width:200px; border:14px solid green;"">","null","","","","","","","","",""
"","image-keyboard-response","4","34918","0.0-4.0","3CFVK00FWM7JPYSCPX6IWDRQJUBL6X","A2OWFJJ8YEKBF1","3I7KR83SNAZT1REYB2SRC49PCEEK9H","","1230.2999999523163","img/flower4.png","74","1231.7999999523163","1","1","2","1","1,0.333,0.333,0.333,1,0.333,0.333,0.333,1","1,0.333,0.333,0.333,1,0.333,0.333,0.333,1","1",""
"","html-keyboard-response","5","35221","0.0-5.0","3CFVK00FWM7JPYSCPX6IWDRQJUBL6X","A2OWFJJ8YEKBF1","3I7KR83SNAZT1REYB2SRC49PCEEK9H","","null","<img src=""img/flower4.png"" style=""width:200px; border:14px solid green;"">","null","","","","","","","","",""
"","image-keyboard-response","6","36238","0.0-6.0","3CFVK00FWM7JPYSCPX6IWDRQJUBL6X","A2OWFJJ8YEKBF1","3I7KR83SNAZT1REYB2SRC49PCEEK9H","","1014","img/flower1.png","75","1015.6000000238419","2","0","3","1","1,0.333,0.333,0.333,1,0.333,0.333,0.333,1","1,0.333,0.333,0.333,1,0.333,0.333,0.333,1","1",""
"","html-keyboard-response","7","36541","0.0-7.0","3CFVK00FWM7JPYSCPX6IWDRQJUBL6X","A2OWFJJ8YEKBF1","3I7KR83SNAZT1REYB2SRC49PCEEK9H","","null","<img src=""img/flower1.png"" style=""width:200px;border:14px solid red;"">","null","","","","","","","","",""
"","image-keyboard-response","8","37764","0.0-8.0","3CFVK00FWM7JPYSCPX6IWDRQJUBL6X","A2OWFJJ8YEKBF1","3I7KR83SNAZT1REYB2SRC49PCEEK9H","","1222.5","img/flower4.png","74","1223.3999999761581","1","0","2","1","1,0.333,0.333,0.333,1,0.333,0.333,0.333,1","1,0.333,0.333,0.333,1,0.333,0.333,0.333,1","1",""
"","html-keyboard-response","9","38068","0.0-9.0","3CFVK00FWM7JPYSCPX6IWDRQJUBL6X","A2OWFJJ8YEKBF1","3I7KR83SNAZT1REYB2SRC49PCEEK9H","","null","<img src=""img/flower4.png"" style=""width:200px;border:14px solid red;"">","null","","","","","","","","",""
"","image-keyboard-response","10","39825","0.0-10.0","3CFVK00FWM7JPYSCPX6IWDRQJUBL6X","A2OWFJJ8YEKBF1","3I7KR83SNAZT1REYB2SRC49PCEEK9H","","1754.6000000238419","img/flower2.png","75","1756","2","0","1","1","1,0.333,0.333,0.333,1,0.333,0.333,0.333,1","1,0.333,0.333,0.333,1,0.333,0.333,0.333,1","1",""
"","html-keyboard-response","11","40129","0.0-11.0","3CFVK00FWM7JPYSCPX6IWDRQJUBL6X","A2OWFJJ8YEKBF1","3I7KR83SNAZT1REYB2SRC49PCEEK9H","","null","<img src=""img/flower2.png"" style=""width:200px;border:14px solid red;"">","null","","","","","","","","",""
"","image-keyboard-response","12","40578","0.0-12.0","3CFVK00FWM7JPYSCPX6IWDRQJUBL6X","A2OWFJJ8YEKBF1","3I7KR83SNAZT1REYB2SRC49PCEEK9H","","446.59999990463257","img/flower2.png","76","448.39999997615814","3","1","1","1","1,0.333,0.333,0.333,1,0.333,0.333,0.333,1","1,0.333,0.333,0.333,1,0.333,0.333,0.333,1","1",""
"","html-keyboard-response","13","40883","0.0-13.0","3CFVK00FWM7JPYSCPX6IWDRQJUBL6X","A2OWFJJ8YEKBF1","3I7KR83SNAZT1REYB2SRC49PCEEK9H","","null","<img src=""img/flower2.png"" style=""width:200px; border:14px solid green;"">","null","","","","","","","","",""
"","image-keyboard-response","14","41732","0.0-14.0","3CFVK00FWM7JPYSCPX6IWDRQJUBL6X","A2OWFJJ8YEKBF1","3I7KR83SNAZT1REYB2SRC49PCEEK9H","","846.7999999523163","img/flower1.png","75","848.4000000953674","2","1","3","1","1,0.333,0.333,0.333,1,0.333,0.333,0.333,1","1,0.333,0.333,0.333,1,0.333,0.333,0.333,1","1",""
"","html-keyboard-response","15","42036","0.0-15.0","3CFVK00FWM7JPYSCPX6IWDRQJUBL6X","A2OWFJJ8YEKBF1","3I7KR83SNAZT1REYB2SRC49PCEEK9H","","null","<img src=""img/flower1.png"" style=""width:200px; border:14px solid green;"">","null","","","","","","","","",""
"","image-keyboard-response","16","42811","0.0-16.0","3CFVK00FWM7JPYSCPX6IWDRQJUBL6X","A2OWFJJ8YEKBF1","3I7KR83SNAZT1REYB2SRC49PCEEK9H","","774.2000000476837","img/flower4.png","74","774.8000000715256","1","0","2","1","1,0.333,0.333,0.333,1,0.333,0.333,0.333,1","1,0.333,0.333,0.333,1,0.333,0.333,0.333,1","1",""
"","html-keyboard-response","17","43117","0.0-17.0","3CFVK00FWM7JPYSCPX6IWDRQJUBL6X","A2OWFJJ8YEKBF1","3I7KR83SNAZT1REYB2SRC49PCEEK9H","","null","<img src=""img/flower4.png"" style=""width:200px;border:14px solid red;"">","null","","","","","","","","",""
"","image-keyboard-response","18","43809","0.0-18.0","3CFVK00FWM7JPYSCPX6IWDRQJUBL6X","A2OWFJJ8YEKBF1","3I7KR83SNAZT1REYB2SRC49PCEEK9H","","689.6000000238419","img/flower4.png","74","691.2999999523163","1","0","2","1","1,0.333,0.333,0.333,1,0.333,0.333,0.333,1","1,0.333,0.333,0.333,1,0.333,0.333,0.333,1","1",""
"","html-keyboard-response","19","44116","0.0-19.0","3CFVK00FWM7JPYSCPX6IWDRQJUBL6X","A2OWFJJ8YEKBF1","3I7KR83SNAZT1REYB2SRC49PCEEK9H","","null","<img src=""img/flower4.png"" style=""width:200px;border:14px solid red;"">","null","","","","","","","","",""
"","image-keyboard-response","20","44410","0.0-20.0","3CFVK00FWM7JPYSCPX6IWDRQJUBL6X","A2OWFJJ8YEKBF1","3I7KR83SNAZT1REYB2SRC49PCEEK9H","","293.2000000476837","img/flower4.png","75","294","2","1","2","1","1,0.333,0.333,0.333,1,0.333,0.333,0.333,1","1,0.333,0.333,0.333,1,0.333,0.333,0.333,1","1",""
"","html-keyboard-response","21","44715","0.0-21.0","3CFVK00FWM7JPYSCPX6IWDRQJUBL6X","A2OWFJJ8YEKBF1","3I7KR83SNAZT1REYB2SRC49PCEEK9H","","null","<img src=""img/flower4.png"" style=""width:200px; border:14px solid green;"">","null","","","","","","","","",""
"","image-keyboard-response","22","46089","0.0-22.0","3CFVK00FWM7JPYSCPX6IWDRQJUBL6X","A2OWFJJ8YEKBF1","3I7KR83SNAZT1REYB2SRC49PCEEK9H","","1372.7999999523163","img/flower1.png","74","1374.1000000238419","1","0","3","1","1,0.333,0.333,0.333,1,0.333,0.333,0.333,1","1,0.333,0.333,0.333,1,0.333,0.333,0.333,1","1",""
"","html-keyboard-response","23","46392","0.0-23.0","3CFVK00FWM7JPYSCPX6IWDRQJUBL6X","A2OWFJJ8YEKBF1","3I7KR83SNAZT1REYB2SRC49PCEEK9H","","null","<img src=""img/flower1.png"" style=""width:200px;border:14px solid red;"">","null","","","","","","","","",""
"","image-keyboard-response","24","46914","0.0-24.0","3CFVK00FWM7JPYSCPX6IWDRQJUBL6X","A2OWFJJ8YEKBF1","3I7KR83SNAZT1REYB2SRC49PCEEK9H","","520","img/flower2.png","76","521.6000000238419","3","1","1","1","1,0.333,0.333,0.333,1,0.333,0.333,0.333,1","1,0.333,0.333,0.333,1,0.333,0.333,0.333,1","1",""
"","html-keyboard-response","25","47216","0.0-25.0","3CFVK00FWM7JPYSCPX6IWDRQJUBL6X","A2OWFJJ8YEKBF1","3I7KR83SNAZT1REYB2SRC49PCEEK9H","","null","<img src=""img/flower2.png"" style=""width:200px; border:14px solid green;"">","null","","","","","","","","",""
"","image-keyboard-response","26","47865","0.0-26.0","3CFVK00FWM7JPYSCPX6IWDRQJUBL6X","A2OWFJJ8YEKBF1","3I7KR83SNAZT1REYB2SRC49PCEEK9H","","646.8999999761581","img/flower4.png","75","648.2999999523163","2","1","2","1","1,0.333,0.333,0.333,1,0.333,0.333,0.333,1","1,0.333,0.333,0.333,1,0.333,0.333,0.333,1","1",""
"","html-keyboard-response","27","48168","0.0-27.0","3CFVK00FWM7JPYSCPX6IWDRQJUBL6X","A2OWFJJ8YEKBF1","3I7KR83SNAZT1REYB2SRC49PCEEK9H","","null","<img src=""img/flower4.png"" style=""width:200px; border:14px solid green;"">","null","","","","","","","","",""
"","image-keyboard-response","28","48950","0.0-28.0","3CFVK00FWM7JPYSCPX6IWDRQJUBL6X","A2OWFJJ8YEKBF1","3I7KR83SNAZT1REYB2SRC49PCEEK9H","","779.7999999523163","img/flower2.png","76","781.5","3","0","1","1","1,0.333,0.333,0.333,1,0.333,0.333,0.333,1","1,0.333,0.333,0.333,1,0.333,0.333,0.333,1","1",""
"","html-keyboard-response","29","49253","0.0-29.0","3CFVK00FWM7JPYSCPX6IWDRQJUBL6X","A2OWFJJ8YEKBF1","3I7KR83SNAZT1REYB2SRC49PCEEK9H","","null","<img src=""img/flower2.png"" style=""width:200px;border:14px solid red;"">","null","","","","","","","","",""
"","image-keyboard-response","30","50338","0.0-30.0","3CFVK00FWM7JPYSCPX6IWDRQJUBL6X","A2OWFJJ8YEKBF1","3I7KR83SNAZT1REYB2SRC49PCEEK9H","","1082.8000000715256","img/flower1.png","75","1084.7000000476837","2","0","3","1","1,0.333,0.333,0.333,1,0.333,0.333,0.333,1","1,0.333,0.333,0.333,1,0.333,0.333,0.333,1","1",""
"","html-keyboard-response","31","50640","0.0-31.0","3CFVK00FWM7JPYSCPX6IWDRQJUBL6X","A2OWFJJ8YEKBF1","3I7KR83SNAZT1REYB2SRC49PCEEK9H","","null","<img src=""img/flower1.png"" style=""width:200px;border:14px solid red;"">","null","","","","","","","","",""
"","image-keyboard-response","32","51472","0.0-32.0","3CFVK00FWM7JPYSCPX6IWDRQJUBL6X","A2OWFJJ8YEKBF1","3I7KR83SNAZT1REYB2SRC49PCEEK9H","","829.6000000238419","img/flower1.png","74","831.2000000476837","1","0","3","1","1,0.333,0.333,0.333,1,0.333,0.333,0.333,1","1,0.333,0.333,0.333,1,0.333,0.333,0.333,1","1",""
"","html-keyboard-response","33","51779","0.0-33.0","3CFVK00FWM7JPYSCPX6IWDRQJUBL6X","A2OWFJJ8YEKBF1","3I7KR83SNAZT1REYB2SRC49PCEEK9H","","null","<img src=""img/flower1.png"" style=""width:200px;border:14px solid red;"">","null","","","","","","","","",""
"","image-keyboard-response","34","52637","0.0-34.0","3CFVK00FWM7JPYSCPX6IWDRQJUBL6X","A2OWFJJ8YEKBF1","3I7KR83SNAZT1REYB2SRC49PCEEK9H","","856.2999999523163","img/flower2.png","76","858","3","1","1","1","1,0.333,0.333,0.333,1,0.333,0.333,0.333,1","1,0.333,0.333,0.333,1,0.333,0.333,0.333,1","1",""
"","html-keyboard-response","35","52939","0.0-35.0","3CFVK00FWM7JPYSCPX6IWDRQJUBL6X","A2OWFJJ8YEKBF1","3I7KR83SNAZT1REYB2SRC49PCEEK9H","","null","<img src=""img/flower2.png"" style=""width:200px; border:14px solid green;"">","null","","","","","","","","",""
"","image-keyboard-response","36","53947","0.0-36.0","3CFVK00FWM7JPYSCPX6IWDRQJUBL6X","A2OWFJJ8YEKBF1","3I7KR83SNAZT1REYB2SRC49PCEEK9H","","1006.6999999284744","img/flower1.png","74","1007.3000000715256","1","0","3","1","1,0.333,0.333,0.333,1,0.333,0.333,0.333,1","1,0.333,0.333,0.333,1,0.333,0.333,0.333,1","1",""
"","html-keyboard-response","37","54251","0.0-37.0","3CFVK00FWM7JPYSCPX6IWDRQJUBL6X","A2OWFJJ8YEKBF1","3I7KR83SNAZT1REYB2SRC49PCEEK9H","","null","<img src=""img/flower1.png"" style=""width:200px;border:14px solid red;"">","null","","","","","","","","",""
"","image-keyboard-response","38","54909","0.0-38.0","3CFVK00FWM7JPYSCPX6IWDRQJUBL6X","A2OWFJJ8YEKBF1","3I7KR83SNAZT1REYB2SRC49PCEEK9H","","656","img/flower1.png","75","657","2","0","3","1","1,0.333,0.333,0.333,1,0.333,0.333,0.333,1","1,0.333,0.333,0.333,1,0.333,0.333,0.333,1","1",""
"","html-keyboard-response","39","55212","0.0-39.0","3CFVK00FWM7JPYSCPX6IWDRQJUBL6X","A2OWFJJ8YEKBF1","3I7KR83SNAZT1REYB2SRC49PCEEK9H","","null","<img src=""img/flower1.png"" style=""width:200px;border:14px solid red;"">","null","","","","","","","","",""
"","image-keyboard-response","40","56478","0.0-40.0","3CFVK00FWM7JPYSCPX6IWDRQJUBL6X","A2OWFJJ8YEKBF1","3I7KR83SNAZT1REYB2SRC49PCEEK9H","","1263.9000000953674","img/flower1.png","74","1265.2999999523163","1","1","3","1","1,0.333,0.333,0.333,1,0.333,0.333,0.333,1","1,0.333,0.333,0.333,1,0.333,0.333,0.333,1","1",""
"","html-keyboard-response","41","56782","0.0-41.0","3CFVK00FWM7JPYSCPX6IWDRQJUBL6X","A2OWFJJ8YEKBF1","3I7KR83SNAZT1REYB2SRC49PCEEK9H","","null","<img src=""img/flower1.png"" style=""width:200px; border:14px solid green;"">","null","","","","","","","","",""
"","image-keyboard-response","42","58376","0.0-42.0","3CFVK00FWM7JPYSCPX6IWDRQJUBL6X","A2OWFJJ8YEKBF1","3I7KR83SNAZT1REYB2SRC49PCEEK9H","","1593.5","img/flower4.png","75","1594.1000000238419","2","1","2","1","1,0.333,0.333,0.333,1,0.333,0.333,0.333,1","1,0.333,0.333,0.333,1,0.333,0.333,0.333,1","1",""
"","html-keyboard-response","43","58681","0.0-43.0","3CFVK00FWM7JPYSCPX6IWDRQJUBL6X","A2OWFJJ8YEKBF1","3I7KR83SNAZT1REYB2SRC49PCEEK9H","","null","<img src=""img/flower4.png"" style=""width:200px; border:14px solid green;"">","null","","","","","","","","",""
"","image-keyboard-response","44","59346","0.0-44.0","3CFVK00FWM7JPYSCPX6IWDRQJUBL6X","A2OWFJJ8YEKBF1","3I7KR83SNAZT1REYB2SRC49PCEEK9H","","663.6000000238419","img/flower4.png","75","665.1999999284744","2","1","2","1","1,0.333,0.333,0.333,1,0.333,0.333,0.333,1","1,0.333,0.333,0.333,1,0.333,0.333,0.333,1","1",""
"","html-keyboard-response","45","59650","0.0-45.0","3CFVK00FWM7JPYSCPX6IWDRQJUBL6X","A2OWFJJ8YEKBF1","3I7KR83SNAZT1REYB2SRC49PCEEK9H","","null","<img src=""img/flower4.png"" style=""width:200px; border:14px solid green;"">","null","","","","","","","","",""
"","image-keyboard-response","46","60691","0.0-46.0","3CFVK00FWM7JPYSCPX6IWDRQJUBL6X","A2OWFJJ8YEKBF1","3I7KR83SNAZT1REYB2SRC49PCEEK9H","","1039.1000000238419","img/flower1.png","74","1040.6999999284744","1","1","3","1","1,0.333,0.333,0.333,1,0.333,0.333,0.333,1","1,0.333,0.333,0.333,1,0.333,0.333,0.333,1","1",""
"","html-keyboard-response","47","60996","0.0-47.0","3CFVK00FWM7JPYSCPX6IWDRQJUBL6X","A2OWFJJ8YEKBF1","3I7KR83SNAZT1REYB2SRC49PCEEK9H","","null","<img src=""img/flower1.png"" style=""width:200px; border:14px solid green;"">","null","","","","","","","","",""
"","image-keyboard-response","48","61473","0.0-48.0","3CFVK00FWM7JPYSCPX6IWDRQJUBL6X","A2OWFJJ8YEKBF1","3I7KR83SNAZT1REYB2SRC49PCEEK9H","","475.89999997615814","img/flower1.png","74","476.89999997615814","1","1","3","1","1,0.333,0.333,0.333,1,0.333,0.333,0.333,1","1,0.333,0.333,0.333,1,0.333,0.333,0.333,1","1",""
"","html-keyboard-response","49","61779","0.0-49.0","3CFVK00FWM7JPYSCPX6IWDRQJUBL6X","A2OWFJJ8YEKBF1","3I7KR83SNAZT1REYB2SRC49PCEEK9H","","null","<img src=""img/flower1.png"" style=""width:200px; border:14px solid green;"">","null","","","","","","","","",""
"","image-keyboard-response","50","62247","0.0-50.0","3CFVK00FWM7JPYSCPX6IWDRQJUBL6X","A2OWFJJ8YEKBF1","3I7KR83SNAZT1REYB2SRC49PCEEK9H","","466.2999999523163","img/flower1.png","74","467.39999997615814","1","0","3","1","1,0.333,0.333,0.333,1,0.333,0.333,0.333,1","1,0.333,0.333,0.333,1,0.333,0.333,0.333,1","1",""
"","html-keyboard-response","51","62551","0.0-51.0","3CFVK00FWM7JPYSCPX6IWDRQJUBL6X","A2OWFJJ8YEKBF1","3I7KR83SNAZT1REYB2SRC49PCEEK9H","","null","<img src=""img/flower1.png"" style=""width:200px;border:14px solid red;"">","null","","","","","","","","",""
"","image-keyboard-response","52","63282","0.0-52.0","3CFVK00FWM7JPYSCPX6IWDRQJUBL6X","A2OWFJJ8YEKBF1","3I7KR83SNAZT1REYB2SRC49PCEEK9H","","729.6999999284744","img/flower1.png","74","730.6999999284744","1","0","3","1","1,0.333,0.333,0.333,1,0.333,0.333,0.333,1","1,0.333,0.333,0.333,1,0.333,0.333,0.333,1","1",""
"","html-keyboard-response","53","63585","0.0-53.0","3CFVK00FWM7JPYSCPX6IWDRQJUBL6X","A2OWFJJ8YEKBF1","3I7KR83SNAZT1REYB2SRC49PCEEK9H","","null","<img src=""img/flower1.png"" style=""width:200px;border:14px solid red;"">","null","","","","","","","","",""
"","image-keyboard-response","54","64145","0.0-54.0","3CFVK00FWM7JPYSCPX6IWDRQJUBL6X","A2OWFJJ8YEKBF1","3I7KR83SNAZT1REYB2SRC49PCEEK9H","","558.1999999284744","img/flower1.png","74","559.2999999523163","1","0","3","1","1,0.333,0.333,0.333,1,0.333,0.333,0.333,1","1,0.333,0.333,0.333,1,0.333,0.333,0.333,1","1",""
"","html-keyboard-response","55","64450","0.0-55.0","3CFVK00FWM7JPYSCPX6IWDRQJUBL6X","A2OWFJJ8YEKBF1","3I7KR83SNAZT1REYB2SRC49PCEEK9H","","null","<img src=""img/flower1.png"" style=""width:200px;border:14px solid red;"">","null","","","","","","","","",""
"","image-keyboard-response","56","65441","0.0-56.0","3CFVK00FWM7JPYSCPX6IWDRQJUBL6X","A2OWFJJ8YEKBF1","3I7KR83SNAZT1REYB2SRC49PCEEK9H","","987.8000000715256","img/flower4.png","75","989.5999999046326","2","1","2","1","1,0.333,0.333,0.333,1,0.333,0.333,0.333,1","1,0.333,0.333,0.333,1,0.333,0.333,0.333,1","1",""
"","html-keyboard-response","57","65745","0.0-57.0","3CFVK00FWM7JPYSCPX6IWDRQJUBL6X","A2OWFJJ8YEKBF1","3I7KR83SNAZT1REYB2SRC49PCEEK9H","","null","<img src=""img/flower4.png"" style=""width:200px; border:14px solid green;"">","null","","","","","","","","",""
"","image-keyboard-response","58","66394","0.0-58.0","3CFVK00FWM7JPYSCPX6IWDRQJUBL6X","A2OWFJJ8YEKBF1","3I7KR83SNAZT1REYB2SRC49PCEEK9H","","646.6000000238419","img/flower2.png","76","648.2000000476837","3","0","1","1","1,0.333,0.333,0.333,1,0.333,0.333,0.333,1","1,0.333,0.333,0.333,1,0.333,0.333,0.333,1","1",""
"","html-keyboard-response","59","66697","0.0-59.0","3CFVK00FWM7JPYSCPX6IWDRQJUBL6X","A2OWFJJ8YEKBF1","3I7KR83SNAZT1REYB2SRC49PCEEK9H","","null","<img src=""img/flower2.png"" style=""width:200px;border:14px solid red;"">","null","","","","","","","","",""
"","image-keyboard-response","60","67371","0.0-60.0","3CFVK00FWM7JPYSCPX6IWDRQJUBL6X","A2OWFJJ8YEKBF1","3I7KR83SNAZT1REYB2SRC49PCEEK9H","","672.6999999284744","img/flower4.png","75","673.5999999046326","2","1","2","1","1,0.333,0.333,0.333,1,0.333,0.333,0.333,1","1,0.333,0.333,0.333,1,0.333,0.333,0.333,1","1",""
"","html-keyboard-response","61","67674","0.0-61.0","3CFVK00FWM7JPYSCPX6IWDRQJUBL6X","A2OWFJJ8YEKBF1","3I7KR83SNAZT1REYB2SRC49PCEEK9H","","null","<img src=""img/flower4.png"" style=""width:200px; border:14px solid green;"">","null","","","","","","","","",""
"","image-keyboard-response","62","68399","0.0-62.0","3CFVK00FWM7JPYSCPX6IWDRQJUBL6X","A2OWFJJ8YEKBF1","3I7KR83SNAZT1REYB2SRC49PCEEK9H","","723.4000000953674","img/flower2.png","76","724.1999999284744","3","0","1","1","1,0.333,0.333,0.333,1,0.333,0.333,0.333,1","1,0.333,0.333,0.333,1,0.333,0.333,0.333,1","1",""
"","html-keyboard-response","63","68705","0.0-63.0","3CFVK00FWM7JPYSCPX6IWDRQJUBL6X","A2OWFJJ8YEKBF1","3I7KR83SNAZT1REYB2SRC49PCEEK9H","","null","<img src=""img/flower2.png"" style=""width:200px;border:14px solid red;"">","null","","","","","","","","",""
"","image-keyboard-response","64","69194","0.0-64.0","3CFVK00FWM7JPYSCPX6IWDRQJUBL6X","A2OWFJJ8YEKBF1","3I7KR83SNAZT1REYB2SRC49PCEEK9H","","486.89999997615814","img/flower2.png","76","487.89999997615814","3","1","1","1","1,0.333,0.333,0.333,1,0.333,0.333,0.333,1","1,0.333,0.333,0.333,1,0.333,0.333,0.333,1","1",""
"","html-keyboard-response","65","69495","0.0-65.0","3CFVK00FWM7JPYSCPX6IWDRQJUBL6X","A2OWFJJ8YEKBF1","3I7KR83SNAZT1REYB2SRC49PCEEK9H","","null","<img src=""img/flower2.png"" style=""width:200px; border:14px solid green;"">","null","","","","","","","","",""
"","image-keyboard-response","66","70186","0.0-66.0","3CFVK00FWM7JPYSCPX6IWDRQJUBL6X","A2OWFJJ8YEKBF1","3I7KR83SNAZT1REYB2SRC49PCEEK9H","","689.6999999284744","img/flower1.png","75","690.8999999761581","2","0","3","1","1,0.333,0.333,0.333,1,0.333,0.333,0.333,1","1,0.333,0.333,0.333,1,0.333,0.333,0.333,1","1",""
"","html-keyboard-response","67","70492","0.0-67.0","3CFVK00FWM7JPYSCPX6IWDRQJUBL6X","A2OWFJJ8YEKBF1","3I7KR83SNAZT1REYB2SRC49PCEEK9H","","null","<img src=""img/flower1.png"" style=""width:200px;border:14px solid red;"">","null","","","","","","","","",""
"","image-keyboard-response","68","71282","0.0-68.0","3CFVK00FWM7JPYSCPX6IWDRQJUBL6X","A2OWFJJ8YEKBF1","3I7KR83SNAZT1REYB2SRC49PCEEK9H","","787.5","img/flower2.png","76","789.0999999046326","3","0","1","1","1,0.333,0.333,0.333,1,0.333,0.333,0.333,1","1,0.333,0.333,0.333,1,0.333,0.333,0.333,1","1",""
"","html-keyboard-response","69","71585","0.0-69.0","3CFVK00FWM7JPYSCPX6IWDRQJUBL6X","A2OWFJJ8YEKBF1","3I7KR83SNAZT1REYB2SRC49PCEEK9H","","null","<img src=""img/flower2.png"" style=""width:200px;border:14px solid red;"">","null","","","","","","","","",""
"","image-keyboard-response","70","71995","0.0-70.0","3CFVK00FWM7JPYSCPX6IWDRQJUBL6X","A2OWFJJ8YEKBF1","3I7KR83SNAZT1REYB2SRC49PCEEK9H","","408.2999999523163","img/flower2.png","76","409.7000000476837","3","0","1","1","1,0.333,0.333,0.333,1,0.333,0.333,0.333,1","1,0.333,0.333,0.333,1,0.333,0.333,0.333,1","1",""
"","html-keyboard-response","71","72298","0.0-71.0","3CFVK00FWM7JPYSCPX6IWDRQJUBL6X","A2OWFJJ8YEKBF1","3I7KR83SNAZT1REYB2SRC49PCEEK9H","","null","<img src=""img/flower2.png"" style=""width:200px;border:14px solid red;"">","null","","","","","","","","",""
"","image-keyboard-response","72","73075","0.0-72.0","3CFVK00FWM7JPYSCPX6IWDRQJUBL6X","A2OWFJJ8YEKBF1","3I7KR83SNAZT1REYB2SRC49PCEEK9H","","774.8999999761581","img/flower4.png","75","776.5","2","1","2","1","1,0.333,0.333,0.333,1,0.333,0.333,0.333,1","1,0.333,0.333,0.333,1,0.333,0.333,0.333,1","1",""
"","html-keyboard-response","73","73378","0.0-73.0","3CFVK00FWM7JPYSCPX6IWDRQJUBL6X","A2OWFJJ8YEKBF1","3I7KR83SNAZT1REYB2SRC49PCEEK9H","","null","<img src=""img/flower4.png"" style=""width:200px; border:14px solid green;"">","null","","","","","","","","",""
"","image-keyboard-response","74","74124","0.0-74.0","3CFVK00FWM7JPYSCPX6IWDRQJUBL6X","A2OWFJJ8YEKBF1","3I7KR83SNAZT1REYB2SRC49PCEEK9H","","744.7000000476837","img/flower2.png","76","745.6000000238419","3","1","1","1","1,0.333,0.333,0.333,1,0.333,0.333,0.333,1","1,0.333,0.333,0.333,1,0.333,0.333,0.333,1","1",""
"","html-keyboard-response","75","74427","0.0-75.0","3CFVK00FWM7JPYSCPX6IWDRQJUBL6X","A2OWFJJ8YEKBF1","3I7KR83SNAZT1REYB2SRC49PCEEK9H","","null","<img src=""img/flower2.png"" style=""width:200px; border:14px solid green;"">","null","","","","","","","","",""
"","image-keyboard-response","76","75143","0.0-76.0","3CFVK00FWM7JPYSCPX6IWDRQJUBL6X","A2OWFJJ8YEKBF1","3I7KR83SNAZT1REYB2SRC49PCEEK9H","","715","img/flower1.png","74","716.1999999284744","1","0","3","1","1,0.333,0.333,0.333,1,0.333,0.333,0.333,1","1,0.333,0.333,0.333,1,0.333,0.333,0.333,1","1",""
"","html-keyboard-response","77","75445","0.0-77.0","3CFVK00FWM7JPYSCPX6IWDRQJUBL6X","A2OWFJJ8YEKBF1","3I7KR83SNAZT1REYB2SRC49PCEEK9H","","null","<img src=""img/flower1.png"" style=""width:200px;border:14px solid red;"">","null","","","","","","","","",""
"","image-keyboard-response","78","75893","0.0-78.0","3CFVK00FWM7JPYSCPX6IWDRQJUBL6X","A2OWFJJ8YEKBF1","3I7KR83SNAZT1REYB2SRC49PCEEK9H","","445.7000000476837","img/flower1.png","74","447.1999999284744","1","1","3","1","1,0.333,0.333,0.333,1,0.333,0.333,0.333,1","1,0.333,0.333,0.333,1,0.333,0.333,0.333,1","1",""
"","html-keyboard-response","79","76199","0.0-79.0","3CFVK00FWM7JPYSCPX6IWDRQJUBL6X","A2OWFJJ8YEKBF1","3I7KR83SNAZT1REYB2SRC49PCEEK9H","","null","<img src=""img/flower1.png"" style=""width:200px; border:14px solid green;"">","null","","","","","","","","",""
"","image-keyboard-response","80","76814","0.0-80.0","3CFVK00FWM7JPYSCPX6IWDRQJUBL6X","A2OWFJJ8YEKBF1","3I7KR83SNAZT1REYB2SRC49PCEEK9H","","612.6000000238419","img/flower4.png","75","613.8999999761581","2","1","2","1","1,0.333,0.333,0.333,1,0.333,0.333,0.333,1","1,0.333,0.333,0.333,1,0.333,0.333,0.333,1","1",""
"","html-keyboard-response","81","77116","0.0-81.0","3CFVK00FWM7JPYSCPX6IWDRQJUBL6X","A2OWFJJ8YEKBF1","3I7KR83SNAZT1REYB2SRC49PCEEK9H","","null","<img src=""img/flower4.png"" style=""width:200px; border:14px solid green;"">","null","","","","","","","","",""
"","image-keyboard-response","82","77578","0.0-82.0","3CFVK00FWM7JPYSCPX6IWDRQJUBL6X","A2OWFJJ8YEKBF1","3I7KR83SNAZT1REYB2SRC49PCEEK9H","","460.39999997615814","img/flower2.png","76","461.7000000476837","3","0","1","1","1,0.333,0.333,0.333,1,0.333,0.333,0.333,1","1,0.333,0.333,0.333,1,0.333,0.333,0.333,1","1",""
"","html-keyboard-response","83","77883","0.0-83.0","3CFVK00FWM7JPYSCPX6IWDRQJUBL6X","A2OWFJJ8YEKBF1","3I7KR83SNAZT1REYB2SRC49PCEEK9H","","null","<img src=""img/flower2.png"" style=""width:200px;border:14px solid red;"">","null","","","","","","","","",""
"","image-keyboard-response","84","78643","0.0-84.0","3CFVK00FWM7JPYSCPX6IWDRQJUBL6X","A2OWFJJ8YEKBF1","3I7KR83SNAZT1REYB2SRC49PCEEK9H","","758.2000000476837","img/flower4.png","75","759.8999999761581","2","1","2","1","1,0.333,0.333,0.333,1,0.333,0.333,0.333,1","1,0.333,0.333,0.333,1,0.333,0.333,0.333,1","1",""
"","html-keyboard-response","85","78945","0.0-85.0","3CFVK00FWM7JPYSCPX6IWDRQJUBL6X","A2OWFJJ8YEKBF1","3I7KR83SNAZT1REYB2SRC49PCEEK9H","","null","<img src=""img/flower4.png"" style=""width:200px; border:14px solid green;"">","null","","","","","","","","",""
"","image-keyboard-response","86","79640","0.0-86.0","3CFVK00FWM7JPYSCPX6IWDRQJUBL6X","A2OWFJJ8YEKBF1","3I7KR83SNAZT1REYB2SRC49PCEEK9H","","692.1999999284744","img/flower2.png","76","693.8999999761581","3","1","1","1","1,0.333,0.333,0.333,1,0.333,0.333,0.333,1","1,0.333,0.333,0.333,1,0.333,0.333,0.333,1","1",""
"","html-keyboard-response","87","79943","0.0-87.0","3CFVK00FWM7JPYSCPX6IWDRQJUBL6X","A2OWFJJ8YEKBF1","3I7KR83SNAZT1REYB2SRC49PCEEK9H","","null","<img src=""img/flower2.png"" style=""width:200px; border:14px solid green;"">","null","","","","","","","","",""
"","image-keyboard-response","88","80694","0.0-88.0","3CFVK00FWM7JPYSCPX6IWDRQJUBL6X","A2OWFJJ8YEKBF1","3I7KR83SNAZT1REYB2SRC49PCEEK9H","","749.7999999523163","img/flower4.png","75","750.6000000238419","2","1","2","1","1,0.333,0.333,0.333,1,0.333,0.333,0.333,1","1,0.333,0.333,0.333,1,0.333,0.333,0.333,1","1",""
"","html-keyboard-response","89","81000","0.0-89.0","3CFVK00FWM7JPYSCPX6IWDRQJUBL6X","A2OWFJJ8YEKBF1","3I7KR83SNAZT1REYB2SRC49PCEEK9H","","null","<img src=""img/flower4.png"" style=""width:200px; border:14px solid green;"">","null","","","","","","","","",""
"","image-keyboard-response","90","81564","0.0-90.0","3CFVK00FWM7JPYSCPX6IWDRQJUBL6X","A2OWFJJ8YEKBF1","3I7KR83SNAZT1REYB2SRC49PCEEK9H","","563.7000000476837","img/flower2.png","76","564.6000000238419","3","0","1","1","1,0.333,0.333,0.333,1,0.333,0.333,0.333,1","1,0.333,0.333,0.333,1,0.333,0.333,0.333,1","1",""
"","html-keyboard-response","91","81870","0.0-91.0","3CFVK00FWM7JPYSCPX6IWDRQJUBL6X","A2OWFJJ8YEKBF1","3I7KR83SNAZT1REYB2SRC49PCEEK9H","","null","<img src=""img/flower2.png"" style=""width:200px;border:14px solid red;"">","null","","","","","","","","",""
"","image-keyboard-response","92","82311","0.0-92.0","3CFVK00FWM7JPYSCPX6IWDRQJUBL6X","A2OWFJJ8YEKBF1","3I7KR83SNAZT1REYB2SRC49PCEEK9H","","439.60000002384186","img/flower2.png","76","440.39999997615814","3","1","1","1","1,0.333,0.333,0.333,1,0.333,0.333,0.333,1","1,0.333,0.333,0.333,1,0.333,0.333,0.333,1","1",""
"","html-keyboard-response","93","82613","0.0-93.0","3CFVK00FWM7JPYSCPX6IWDRQJUBL6X","A2OWFJJ8YEKBF1","3I7KR83SNAZT1REYB2SRC49PCEEK9H","","null","<img src=""img/flower2.png"" style=""width:200px; border:14px solid green;"">","null","","","","","","","","",""
"","image-keyboard-response","94","83310","0.0-94.0","3CFVK00FWM7JPYSCPX6IWDRQJUBL6X","A2OWFJJ8YEKBF1","3I7KR83SNAZT1REYB2SRC49PCEEK9H","","695.3999999761581","img/flower1.png","74","696.5","1","1","3","1","1,0.333,0.333,0.333,1,0.333,0.333,0.333,1","1,0.333,0.333,0.333,1,0.333,0.333,0.333,1","1",""
"","html-keyboard-response","95","83612","0.0-95.0","3CFVK00FWM7JPYSCPX6IWDRQJUBL6X","A2OWFJJ8YEKBF1","3I7KR83SNAZT1REYB2SRC49PCEEK9H","","null","<img src=""img/flower1.png"" style=""width:200px; border:14px solid green;"">","null","","","","","","","","",""
"","image-keyboard-response","96","84036","0.0-96.0","3CFVK00FWM7JPYSCPX6IWDRQJUBL6X","A2OWFJJ8YEKBF1","3I7KR83SNAZT1REYB2SRC49PCEEK9H","","424.2000000476837","img/flower1.png","74","424.7999999523163","1","0","3","1","1,0.333,0.333,0.333,1,0.333,0.333,0.333,1","1,0.333,0.333,0.333,1,0.333,0.333,0.333,1","1",""
"","html-keyboard-response","97","84343","0.0-97.0","3CFVK00FWM7JPYSCPX6IWDRQJUBL6X","A2OWFJJ8YEKBF1","3I7KR83SNAZT1REYB2SRC49PCEEK9H","","null","<img src=""img/flower1.png"" style=""width:200px;border:14px solid red;"">","null","","","","","","","","",""
"","image-keyboard-response","98","84776","0.0-98.0","3CFVK00FWM7JPYSCPX6IWDRQJUBL6X","A2OWFJJ8YEKBF1","3I7KR83SNAZT1REYB2SRC49PCEEK9H","","432.10000002384186","img/flower1.png","75","433","2","1","3","1","1,0.333,0.333,0.333,1,0.333,0.333,0.333,1","1,0.333,0.333,0.333,1,0.333,0.333,0.333,1","1",""
"","html-keyboard-response","99","85080","0.0-99.0","3CFVK00FWM7JPYSCPX6IWDRQJUBL6X","A2OWFJJ8YEKBF1","3I7KR83SNAZT1REYB2SRC49PCEEK9H","","null","<img src=""img/flower1.png"" style=""width:200px; border:14px solid green;"">","null","","","","","","","","",""
"","image-keyboard-response","100","85598","0.0-100.0","3CFVK00FWM7JPYSCPX6IWDRQJUBL6X","A2OWFJJ8YEKBF1","3I7KR83SNAZT1REYB2SRC49PCEEK9H","","517.2999999523163","img/flower1.png","74","518.1000000238419","1","1","3","1","1,0.333,0.333,0.333,1,0.333,0.333,0.333,1","1,0.333,0.333,0.333,1,0.333,0.333,0.333,1","1",""
"","html-keyboard-response","101","85905","0.0-101.0","3CFVK00FWM7JPYSCPX6IWDRQJUBL6X","A2OWFJJ8YEKBF1","3I7KR83SNAZT1REYB2SRC49PCEEK9H","","null","<img src=""img/flower1.png"" style=""width:200px; border:14px solid green;"">","null","","","","","","","","",""
"","image-keyboard-response","102","86669","0.0-102.0","3CFVK00FWM7JPYSCPX6IWDRQJUBL6X","A2OWFJJ8YEKBF1","3I7KR83SNAZT1REYB2SRC49PCEEK9H","","762.3999999761581","img/flower2.png","76","763.7999999523163","3","0","1","1","1,0.333,0.333,0.333,1,0.333,0.333,0.333,1","1,0.333,0.333,0.333,1,0.333,0.333,0.333,1","1",""
"","html-keyboard-response","103","86972","0.0-103.0","3CFVK00FWM7JPYSCPX6IWDRQJUBL6X","A2OWFJJ8YEKBF1","3I7KR83SNAZT1REYB2SRC49PCEEK9H","","null","<img src=""img/flower2.png"" style=""width:200px;border:14px solid red;"">","null","","","","","","","","",""
"","image-keyboard-response","104","87720","0.0-104.0","3CFVK00FWM7JPYSCPX6IWDRQJUBL6X","A2OWFJJ8YEKBF1","3I7KR83SNAZT1REYB2SRC49PCEEK9H","","746.3999999761581","img/flower4.png","75","747.1000000238419","2","1","2","1","1,0.333,0.333,0.333,1,0.333,0.333,0.333,1","1,0.333,0.333,0.333,1,0.333,0.333,0.333,1","1",""
"","html-keyboard-response","105","88023","0.0-105.0","3CFVK00FWM7JPYSCPX6IWDRQJUBL6X","A2OWFJJ8YEKBF1","3I7KR83SNAZT1REYB2SRC49PCEEK9H","","null","<img src=""img/flower4.png"" style=""width:200px; border:14px solid green;"">","null","","","","","","","","",""
"","image-keyboard-response","106","88834","0.0-106.0","3CFVK00FWM7JPYSCPX6IWDRQJUBL6X","A2OWFJJ8YEKBF1","3I7KR83SNAZT1REYB2SRC49PCEEK9H","","810.8000000715256","img/flower2.png","76","811.3999999761581","3","0","1","1","1,0.333,0.333,0.333,1,0.333,0.333,0.333,1","1,0.333,0.333,0.333,1,0.333,0.333,0.333,1","1",""
"","html-keyboard-response","107","89137","0.0-107.0","3CFVK00FWM7JPYSCPX6IWDRQJUBL6X","A2OWFJJ8YEKBF1","3I7KR83SNAZT1REYB2SRC49PCEEK9H","","null","<img src=""img/flower2.png"" style=""width:200px;border:14px solid red;"">","null","","","","","","","","",""
"","image-keyboard-response","108","90441","0.0-108.0","3CFVK00FWM7JPYSCPX6IWDRQJUBL6X","A2OWFJJ8YEKBF1","3I7KR83SNAZT1REYB2SRC49PCEEK9H","","1301.3000000715256","img/flower4.png","75","1302.8000000715256","2","1","2","1","1,0.333,0.333,0.333,1,0.333,0.333,0.333,1","1,0.333,0.333,0.333,1,0.333,0.333,0.333,1","1",""
"","html-keyboard-response","109","90746","0.0-109.0","3CFVK00FWM7JPYSCPX6IWDRQJUBL6X","A2OWFJJ8YEKBF1","3I7KR83SNAZT1REYB2SRC49PCEEK9H","","null","<img src=""img/flower4.png"" style=""width:200px; border:14px solid green;"">","null","","","","","","","","",""
"","image-keyboard-response","110","91183","0.0-110.0","3CFVK00FWM7JPYSCPX6IWDRQJUBL6X","A2OWFJJ8YEKBF1","3I7KR83SNAZT1REYB2SRC49PCEEK9H","","434.89999997615814","img/flower4.png","75","436.2000000476837","2","1","2","1","1,0.333,0.333,0.333,1,0.333,0.333,0.333,1","1,0.333,0.333,0.333,1,0.333,0.333,0.333,1","1",""
"","html-keyboard-response","111","91489","0.0-111.0","3CFVK00FWM7JPYSCPX6IWDRQJUBL6X","A2OWFJJ8YEKBF1","3I7KR83SNAZT1REYB2SRC49PCEEK9H","","null","<img src=""img/flower4.png"" style=""width:200px; border:14px solid green;"">","null","","","","","","","","",""
"","image-keyboard-response","112","92104","0.0-112.0","3CFVK00FWM7JPYSCPX6IWDRQJUBL6X","A2OWFJJ8YEKBF1","3I7KR83SNAZT1REYB2SRC49PCEEK9H","","611.8999999761581","img/flower2.png","76","613.7999999523163","3","0","1","1","1,0.333,0.333,0.333,1,0.333,0.333,0.333,1","1,0.333,0.333,0.333,1,0.333,0.333,0.333,1","1",""
"","html-keyboard-response","113","92406","0.0-113.0","3CFVK00FWM7JPYSCPX6IWDRQJUBL6X","A2OWFJJ8YEKBF1","3I7KR83SNAZT1REYB2SRC49PCEEK9H","","null","<img src=""img/flower2.png"" style=""width:200px;border:14px solid red;"">","null","","","","","","","","",""
"","image-keyboard-response","114","93042","0.0-114.0","3CFVK00FWM7JPYSCPX6IWDRQJUBL6X","A2OWFJJ8YEKBF1","3I7KR83SNAZT1REYB2SRC49PCEEK9H","","633.8000000715256","img/flower4.png","75","635.0999999046326","2","1","2","1","1,0.333,0.333,0.333,1,0.333,0.333,0.333,1","1,0.333,0.333,0.333,1,0.333,0.333,0.333,1","1",""
"","html-keyboard-response","115","93346","0.0-115.0","3CFVK00FWM7JPYSCPX6IWDRQJUBL6X","A2OWFJJ8YEKBF1","3I7KR83SNAZT1REYB2SRC49PCEEK9H","","null","<img src=""img/flower4.png"" style=""width:200px; border:14px solid green;"">","null","","","","","","","","",""
"","image-keyboard-response","116","93987","0.0-116.0","3CFVK00FWM7JPYSCPX6IWDRQJUBL6X","A2OWFJJ8YEKBF1","3I7KR83SNAZT1REYB2SRC49PCEEK9H","","638.0999999046326","img/flower1.png","74","639.7999999523163","1","0","3","1","1,0.333,0.333,0.333,1,0.333,0.333,0.333,1","1,0.333,0.333,0.333,1,0.333,0.333,0.333,1","1",""
"","html-keyboard-response","117","94290","0.0-117.0","3CFVK00FWM7JPYSCPX6IWDRQJUBL6X","A2OWFJJ8YEKBF1","3I7KR83SNAZT1REYB2SRC49PCEEK9H","","null","<img src=""img/flower1.png"" style=""width:200px;border:14px solid red;"">","null","","","","","","","","",""
"","image-keyboard-response","118","94884","0.0-118.0","3CFVK00FWM7JPYSCPX6IWDRQJUBL6X","A2OWFJJ8YEKBF1","3I7KR83SNAZT1REYB2SRC49PCEEK9H","","589.8999999761581","img/flower2.png","75","593.2999999523163","2","0","1","1","1,0.333,0.333,0.333,1,0.333,0.333,0.333,1","1,0.333,0.333,0.333,1,0.333,0.333,0.333,1","1",""
"","html-keyboard-response","119","95187","0.0-119.0","3CFVK00FWM7JPYSCPX6IWDRQJUBL6X","A2OWFJJ8YEKBF1","3I7KR83SNAZT1REYB2SRC49PCEEK9H","","null","<img src=""img/flower2.png"" style=""width:200px;border:14px solid red;"">","null","","","","","","","","",""
"","image-keyboard-response","120","95947","0.0-120.0","3CFVK00FWM7JPYSCPX6IWDRQJUBL6X","A2OWFJJ8YEKBF1","3I7KR83SNAZT1REYB2SRC49PCEEK9H","","758.3999999761581","img/flower4.png","75","759.9000000953674","2","1","2","1","1,0.333,0.333,0.333,1,0.333,0.333,0.333,1","1,0.333,0.333,0.333,1,0.333,0.333,0.333,1","1",""
"","html-keyboard-response","121","96249","0.0-121.0","3CFVK00FWM7JPYSCPX6IWDRQJUBL6X","A2OWFJJ8YEKBF1","3I7KR83SNAZT1REYB2SRC49PCEEK9H","","null","<img src=""img/flower4.png"" style=""width:200px; border:14px solid green;"">","null","","","","","","","","",""
"","image-keyboard-response","122","97124","0.0-122.0","3CFVK00FWM7JPYSCPX6IWDRQJUBL6X","A2OWFJJ8YEKBF1","3I7KR83SNAZT1REYB2SRC49PCEEK9H","","873.6000000238419","img/flower2.png","76","874.6000000238419","3","1","1","1","1,0.333,0.333,0.333,1,0.333,0.333,0.333,1","1,0.333,0.333,0.333,1,0.333,0.333,0.333,1","1",""
"","html-keyboard-response","123","97426","0.0-123.0","3CFVK00FWM7JPYSCPX6IWDRQJUBL6X","A2OWFJJ8YEKBF1","3I7KR83SNAZT1REYB2SRC49PCEEK9H","","null","<img src=""img/flower2.png"" style=""width:200px; border:14px solid green;"">","null","","","","","","","","",""
"","image-keyboard-response","124","97786","0.0-124.0","3CFVK00FWM7JPYSCPX6IWDRQJUBL6X","A2OWFJJ8YEKBF1","3I7KR83SNAZT1REYB2SRC49PCEEK9H","","358","img/flower2.png","76","359.10000002384186","3","1","1","1","1,0.333,0.333,0.333,1,0.333,0.333,0.333,1","1,0.333,0.333,0.333,1,0.333,0.333,0.333,1","1",""
"","html-keyboard-response","125","98089","0.0-125.0","3CFVK00FWM7JPYSCPX6IWDRQJUBL6X","A2OWFJJ8YEKBF1","3I7KR83SNAZT1REYB2SRC49PCEEK9H","","null","<img src=""img/flower2.png"" style=""width:200px; border:14px solid green;"">","null","","","","","","","","",""
"","image-keyboard-response","126","98708","0.0-126.0","3CFVK00FWM7JPYSCPX6IWDRQJUBL6X","A2OWFJJ8YEKBF1","3I7KR83SNAZT1REYB2SRC49PCEEK9H","","616.5","img/flower4.png","75","617.8999999761581","2","1","2","1","1,0.333,0.333,0.333,1,0.333,0.333,0.333,1","1,0.333,0.333,0.333,1,0.333,0.333,0.333,1","1",""
"","html-keyboard-response","127","99011","0.0-127.0","3CFVK00FWM7JPYSCPX6IWDRQJUBL6X","A2OWFJJ8YEKBF1","3I7KR83SNAZT1REYB2SRC49PCEEK9H","","null","<img src=""img/flower4.png"" style=""width:200px; border:14px solid green;"">","null","","","","","","","","",""
"","image-keyboard-response","128","99563","0.0-128.0","3CFVK00FWM7JPYSCPX6IWDRQJUBL6X","A2OWFJJ8YEKBF1","3I7KR83SNAZT1REYB2SRC49PCEEK9H","","550.5999999046326","img/flower1.png","74","551.2000000476837","1","1","3","1","1,0.333,0.333,0.333,1,0.333,0.333,0.333,1","1,0.333,0.333,0.333,1,0.333,0.333,0.333,1","1",""
"","html-keyboard-response","129","99865","0.0-129.0","3CFVK00FWM7JPYSCPX6IWDRQJUBL6X","A2OWFJJ8YEKBF1","3I7KR83SNAZT1REYB2SRC49PCEEK9H","","null","<img src=""img/flower1.png"" style=""width:200px; border:14px solid green;"">","null","","","","","","","","",""
"","image-keyboard-response","130","101115","0.0-130.0","3CFVK00FWM7JPYSCPX6IWDRQJUBL6X","A2OWFJJ8YEKBF1","3I7KR83SNAZT1REYB2SRC49PCEEK9H","","1247.9000000953674","img/flower2.png","76","1249.2000000476837","3","0","1","1","1,0.333,0.333,0.333,1,0.333,0.333,0.333,1","1,0.333,0.333,0.333,1,0.333,0.333,0.333,1","1",""
"","html-keyboard-response","131","101421","0.0-131.0","3CFVK00FWM7JPYSCPX6IWDRQJUBL6X","A2OWFJJ8YEKBF1","3I7KR83SNAZT1REYB2SRC49PCEEK9H","","null","<img src=""img/flower2.png"" style=""width:200px;border:14px solid red;"">","null","","","","","","","","",""
"","image-keyboard-response","132","102082","0.0-132.0","3CFVK00FWM7JPYSCPX6IWDRQJUBL6X","A2OWFJJ8YEKBF1","3I7KR83SNAZT1REYB2SRC49PCEEK9H","","659.5","img/flower4.png","75","660.8000000715256","2","1","2","1","1,0.333,0.333,0.333,1,0.333,0.333,0.333,1","1,0.333,0.333,0.333,1,0.333,0.333,0.333,1","1",""
"","html-keyboard-response","133","102384","0.0-133.0","3CFVK00FWM7JPYSCPX6IWDRQJUBL6X","A2OWFJJ8YEKBF1","3I7KR83SNAZT1REYB2SRC49PCEEK9H","","null","<img src=""img/flower4.png"" style=""width:200px; border:14px solid green;"">","null","","","","","","","","",""
"","image-keyboard-response","134","102921","0.0-134.0","3CFVK00FWM7JPYSCPX6IWDRQJUBL6X","A2OWFJJ8YEKBF1","3I7KR83SNAZT1REYB2SRC49PCEEK9H","","534.5999999046326","img/flower1.png","74","535.8999999761581","1","1","3","1","1,0.333,0.333,0.333,1,0.333,0.333,0.333,1","1,0.333,0.333,0.333,1,0.333,0.333,0.333,1","1",""
"","html-keyboard-response","135","103226","0.0-135.0","3CFVK00FWM7JPYSCPX6IWDRQJUBL6X","A2OWFJJ8YEKBF1","3I7KR83SNAZT1REYB2SRC49PCEEK9H","","null","<img src=""img/flower1.png"" style=""width:200px; border:14px solid green;"">","null","","","","","","","","",""
"","image-keyboard-response","136","103935","0.0-136.0","3CFVK00FWM7JPYSCPX6IWDRQJUBL6X","A2OWFJJ8YEKBF1","3I7KR83SNAZT1REYB2SRC49PCEEK9H","","706.8000000715256","img/flower2.png","76","708.2999999523163","3","0","1","1","1,0.333,0.333,0.333,1,0.333,0.333,0.333,1","1,0.333,0.333,0.333,1,0.333,0.333,0.333,1","1",""
"","html-keyboard-response","137","104242","0.0-137.0","3CFVK00FWM7JPYSCPX6IWDRQJUBL6X","A2OWFJJ8YEKBF1","3I7KR83SNAZT1REYB2SRC49PCEEK9H","","null","<img src=""img/flower2.png"" style=""width:200px;border:14px solid red;"">","null","","","","","","","","",""
"","image-keyboard-response","138","104855","0.0-138.0","3CFVK00FWM7JPYSCPX6IWDRQJUBL6X","A2OWFJJ8YEKBF1","3I7KR83SNAZT1REYB2SRC49PCEEK9H","","610.9000000953674","img/flower4.png","75","612.3999999761581","2","1","2","1","1,0.333,0.333,0.333,1,0.333,0.333,0.333,1","1,0.333,0.333,0.333,1,0.333,0.333,0.333,1","1",""
"","html-keyboard-response","139","105159","0.0-139.0","3CFVK00FWM7JPYSCPX6IWDRQJUBL6X","A2OWFJJ8YEKBF1","3I7KR83SNAZT1REYB2SRC49PCEEK9H","","null","<img src=""img/flower4.png"" style=""width:200px; border:14px solid green;"">","null","","","","","","","","",""
"","image-keyboard-response","140","105865","0.0-140.0","3CFVK00FWM7JPYSCPX6IWDRQJUBL6X","A2OWFJJ8YEKBF1","3I7KR83SNAZT1REYB2SRC49PCEEK9H","","703","img/flower1.png","74","704.6000000238419","1","0","3","1","1,0.333,0.333,0.333,1,0.333,0.333,0.333,1","1,0.333,0.333,0.333,1,0.333,0.333,0.333,1","1",""
"","html-keyboard-response","141","106168","0.0-141.0","3CFVK00FWM7JPYSCPX6IWDRQJUBL6X","A2OWFJJ8YEKBF1","3I7KR83SNAZT1REYB2SRC49PCEEK9H","","null","<img src=""img/flower1.png"" style=""width:200px;border:14px solid red;"">","null","","","","","","","","",""
"","image-keyboard-response","142","107052","0.0-142.0","3CFVK00FWM7JPYSCPX6IWDRQJUBL6X","A2OWFJJ8YEKBF1","3I7KR83SNAZT1REYB2SRC49PCEEK9H","","883.2999999523163","img/flower1.png","74","883.8999999761581","1","0","3","1","1,0.333,0.333,0.333,1,0.333,0.333,0.333,1","1,0.333,0.333,0.333,1,0.333,0.333,0.333,1","1",""
"","html-keyboard-response","143","107353","0.0-143.0","3CFVK00FWM7JPYSCPX6IWDRQJUBL6X","A2OWFJJ8YEKBF1","3I7KR83SNAZT1REYB2SRC49PCEEK9H","","null","<img src=""img/flower1.png"" style=""width:200px;border:14px solid red;"">","null","","","","","","","","",""
"","image-keyboard-response","144","108039","0.0-144.0","3CFVK00FWM7JPYSCPX6IWDRQJUBL6X","A2OWFJJ8YEKBF1","3I7KR83SNAZT1REYB2SRC49PCEEK9H","","683.3999999761581","img/flower1.png","74","684.7000000476837","1","1","3","1","1,0.333,0.333,0.333,1,0.333,0.333,0.333,1","1,0.333,0.333,0.333,1,0.333,0.333,0.333,1","1",""
"","html-keyboard-response","145","108340","0.0-145.0","3CFVK00FWM7JPYSCPX6IWDRQJUBL6X","A2OWFJJ8YEKBF1","3I7KR83SNAZT1REYB2SRC49PCEEK9H","","null","<img src=""img/flower1.png"" style=""width:200px; border:14px solid green;"">","null","","","","","","","","",""
"","image-keyboard-response","146","109187","0.0-146.0","3CFVK00FWM7JPYSCPX6IWDRQJUBL6X","A2OWFJJ8YEKBF1","3I7KR83SNAZT1REYB2SRC49PCEEK9H","","844.7999999523163","img/flower4.png","75","846.5","2","1","2","1","1,0.333,0.333,0.333,1,0.333,0.333,0.333,1","1,0.333,0.333,0.333,1,0.333,0.333,0.333,1","1",""
"","html-keyboard-response","147","109489","0.0-147.0","3CFVK00FWM7JPYSCPX6IWDRQJUBL6X","A2OWFJJ8YEKBF1","3I7KR83SNAZT1REYB2SRC49PCEEK9H","","null","<img src=""img/flower4.png"" style=""width:200px; border:14px solid green;"">","null","","","","","","","","",""
"","image-keyboard-response","148","110957","0.0-148.0","3CFVK00FWM7JPYSCPX6IWDRQJUBL6X","A2OWFJJ8YEKBF1","3I7KR83SNAZT1REYB2SRC49PCEEK9H","","1466.8000000715256","img/flower1.png","74","1467.7999999523163","1","1","3","1","1,0.333,0.333,0.333,1,0.333,0.333,0.333,1","1,0.333,0.333,0.333,1,0.333,0.333,0.333,1","1",""
"","html-keyboard-response","149","111260","0.0-149.0","3CFVK00FWM7JPYSCPX6IWDRQJUBL6X","A2OWFJJ8YEKBF1","3I7KR83SNAZT1REYB2SRC49PCEEK9H","","null","<img src=""img/flower1.png"" style=""width:200px; border:14px solid green;"">","null","","","","","","","","",""
"","image-keyboard-response","150","111894","0.0-150.0","3CFVK00FWM7JPYSCPX6IWDRQJUBL6X","A2OWFJJ8YEKBF1","3I7KR83SNAZT1REYB2SRC49PCEEK9H","","633.4000000953674","img/flower2.png","76","634","3","0","1","1","1,0.333,0.333,0.333,1,0.333,0.333,0.333,1","1,0.333,0.333,0.333,1,0.333,0.333,0.333,1","1",""
"","html-keyboard-response","151","112200","0.0-151.0","3CFVK00FWM7JPYSCPX6IWDRQJUBL6X","A2OWFJJ8YEKBF1","3I7KR83SNAZT1REYB2SRC49PCEEK9H","","null","<img src=""img/flower2.png"" style=""width:200px;border:14px solid red;"">","null","","","","","","","","",""
"","image-keyboard-response","152","112877","0.0-152.0","3CFVK00FWM7JPYSCPX6IWDRQJUBL6X","A2OWFJJ8YEKBF1","3I7KR83SNAZT1REYB2SRC49PCEEK9H","","674.8999999761581","img/flower4.png","75","676","2","1","2","1","1,0.333,0.333,0.333,1,0.333,0.333,0.333,1","1,0.333,0.333,0.333,1,0.333,0.333,0.333,1","1",""
"","html-keyboard-response","153","113181","0.0-153.0","3CFVK00FWM7JPYSCPX6IWDRQJUBL6X","A2OWFJJ8YEKBF1","3I7KR83SNAZT1REYB2SRC49PCEEK9H","","null","<img src=""img/flower4.png"" style=""width:200px; border:14px solid green;"">","null","","","","","","","","",""
"","image-keyboard-response","154","113902","0.0-154.0","3CFVK00FWM7JPYSCPX6IWDRQJUBL6X","A2OWFJJ8YEKBF1","3I7KR83SNAZT1REYB2SRC49PCEEK9H","","719.2000000476837","img/flower1.png","74","720.4000000953674","1","1","3","1","1,0.333,0.333,0.333,1,0.333,0.333,0.333,1","1,0.333,0.333,0.333,1,0.333,0.333,0.333,1","1",""
"","html-keyboard-response","155","114209","0.0-155.0","3CFVK00FWM7JPYSCPX6IWDRQJUBL6X","A2OWFJJ8YEKBF1","3I7KR83SNAZT1REYB2SRC49PCEEK9H","","null","<img src=""img/flower1.png"" style=""width:200px; border:14px solid green;"">","null","","","","","","","","",""
"","image-keyboard-response","156","114814","0.0-156.0","3CFVK00FWM7JPYSCPX6IWDRQJUBL6X","A2OWFJJ8YEKBF1","3I7KR83SNAZT1REYB2SRC49PCEEK9H","","602.7999999523163","img/flower1.png","74","604.3999999761581","1","1","3","1","1,0.333,0.333,0.333,1,0.333,0.333,0.333,1","1,0.333,0.333,0.333,1,0.333,0.333,0.333,1","1",""
"","html-keyboard-response","157","115120","0.0-157.0","3CFVK00FWM7JPYSCPX6IWDRQJUBL6X","A2OWFJJ8YEKBF1","3I7KR83SNAZT1REYB2SRC49PCEEK9H","","null","<img src=""img/flower1.png"" style=""width:200px; border:14px solid green;"">","null","","","","","","","","",""
"","image-keyboard-response","158","115752","0.0-158.0","3CFVK00FWM7JPYSCPX6IWDRQJUBL6X","A2OWFJJ8YEKBF1","3I7KR83SNAZT1REYB2SRC49PCEEK9H","","629.4000000953674","img/flower4.png","75","631.2999999523163","2","1","2","1","1,0.333,0.333,0.333,1,0.333,0.333,0.333,1","1,0.333,0.333,0.333,1,0.333,0.333,0.333,1","1",""
"","html-keyboard-response","159","116054","0.0-159.0","3CFVK00FWM7JPYSCPX6IWDRQJUBL6X","A2OWFJJ8YEKBF1","3I7KR83SNAZT1REYB2SRC49PCEEK9H","","null","<img src=""img/flower4.png"" style=""width:200px; border:14px solid green;"">","null","","","","","","","","",""
"","image-keyboard-response","160","116660","0.0-160.0","3CFVK00FWM7JPYSCPX6IWDRQJUBL6X","A2OWFJJ8YEKBF1","3I7KR83SNAZT1REYB2SRC49PCEEK9H","","604.5","img/flower2.png","76","605.8999999761581","3","1","1","1","1,0.333,0.333,0.333,1,0.333,0.333,0.333,1","1,0.333,0.333,0.333,1,0.333,0.333,0.333,1","1",""
"","html-keyboard-response","161","116966","0.0-161.0","3CFVK00FWM7JPYSCPX6IWDRQJUBL6X","A2OWFJJ8YEKBF1","3I7KR83SNAZT1REYB2SRC49PCEEK9H","","null","<img src=""img/flower2.png"" style=""width:200px; border:14px solid green;"">","null","","","","","","","","",""
"","image-keyboard-response","162","117998","0.0-162.0","3CFVK00FWM7JPYSCPX6IWDRQJUBL6X","A2OWFJJ8YEKBF1","3I7KR83SNAZT1REYB2SRC49PCEEK9H","","1031.2000000476837","img/flower4.png","75","1032","2","1","2","1","1,0.333,0.333,0.333,1,0.333,0.333,0.333,1","1,0.333,0.333,0.333,1,0.333,0.333,0.333,1","1",""
"","html-keyboard-response","163","118301","0.0-163.0","3CFVK00FWM7JPYSCPX6IWDRQJUBL6X","A2OWFJJ8YEKBF1","3I7KR83SNAZT1REYB2SRC49PCEEK9H","","null","<img src=""img/flower4.png"" style=""width:200px; border:14px solid green;"">","null","","","","","","","","",""
"","image-keyboard-response","164","118887","0.0-164.0","3CFVK00FWM7JPYSCPX6IWDRQJUBL6X","A2OWFJJ8YEKBF1","3I7KR83SNAZT1REYB2SRC49PCEEK9H","","584","img/flower4.png","75","585.7000000476837","2","1","2","1","1,0.333,0.333,0.333,1,0.333,0.333,0.333,1","1,0.333,0.333,0.333,1,0.333,0.333,0.333,1","1",""
"","html-keyboard-response","165","119189","0.0-165.0","3CFVK00FWM7JPYSCPX6IWDRQJUBL6X","A2OWFJJ8YEKBF1","3I7KR83SNAZT1REYB2SRC49PCEEK9H","","null","<img src=""img/flower4.png"" style=""width:200px; border:14px solid green;"">","null","","","","","","","","",""
"","image-keyboard-response","166","119804","0.0-166.0","3CFVK00FWM7JPYSCPX6IWDRQJUBL6X","A2OWFJJ8YEKBF1","3I7KR83SNAZT1REYB2SRC49PCEEK9H","","612.6999999284744","img/flower1.png","74","614.3999999761581","1","0","3","1","1,0.333,0.333,0.333,1,0.333,0.333,0.333,1","1,0.333,0.333,0.333,1,0.333,0.333,0.333,1","1",""
"","html-keyboard-response","167","120106","0.0-167.0","3CFVK00FWM7JPYSCPX6IWDRQJUBL6X","A2OWFJJ8YEKBF1","3I7KR83SNAZT1REYB2SRC49PCEEK9H","","null","<img src=""img/flower1.png"" style=""width:200px;border:14px solid red;"">","null","","","","","","","","",""
"","image-keyboard-response","168","120775","0.0-168.0","3CFVK00FWM7JPYSCPX6IWDRQJUBL6X","A2OWFJJ8YEKBF1","3I7KR83SNAZT1REYB2SRC49PCEEK9H","","665.8000000715256","img/flower2.png","76","667.5","3","1","1","1","1,0.333,0.333,0.333,1,0.333,0.333,0.333,1","1,0.333,0.333,0.333,1,0.333,0.333,0.333,1","1",""
"","html-keyboard-response","169","121081","0.0-169.0","3CFVK00FWM7JPYSCPX6IWDRQJUBL6X","A2OWFJJ8YEKBF1","3I7KR83SNAZT1REYB2SRC49PCEEK9H","","null","<img src=""img/flower2.png"" style=""width:200px; border:14px solid green;"">","null","","","","","","","","",""
"","image-keyboard-response","170","122024","0.0-170.0","3CFVK00FWM7JPYSCPX6IWDRQJUBL6X","A2OWFJJ8YEKBF1","3I7KR83SNAZT1REYB2SRC49PCEEK9H","","941","img/flower4.png","75","942.6000000238419","2","1","2","1","1,0.333,0.333,0.333,1,0.333,0.333,0.333,1","1,0.333,0.333,0.333,1,0.333,0.333,0.333,1","1",""
"","html-keyboard-response","171","122329","0.0-171.0","3CFVK00FWM7JPYSCPX6IWDRQJUBL6X","A2OWFJJ8YEKBF1","3I7KR83SNAZT1REYB2SRC49PCEEK9H","","null","<img src=""img/flower4.png"" style=""width:200px; border:14px solid green;"">","null","","","","","","","","",""
"","image-keyboard-response","172","123271","0.0-172.0","3CFVK00FWM7JPYSCPX6IWDRQJUBL6X","A2OWFJJ8YEKBF1","3I7KR83SNAZT1REYB2SRC49PCEEK9H","","940.2000000476837","img/flower2.png","76","941.8999999761581","3","0","1","1","1,0.333,0.333,0.333,1,0.333,0.333,0.333,1","1,0.333,0.333,0.333,1,0.333,0.333,0.333,1","1",""
"","html-keyboard-response","173","123577","0.0-173.0","3CFVK00FWM7JPYSCPX6IWDRQJUBL6X","A2OWFJJ8YEKBF1","3I7KR83SNAZT1REYB2SRC49PCEEK9H","","null","<img src=""img/flower2.png"" style=""width:200px;border:14px solid red;"">","null","","","","","","","","",""
"","image-keyboard-response","174","124095","0.0-174.0","3CFVK00FWM7JPYSCPX6IWDRQJUBL6X","A2OWFJJ8YEKBF1","3I7KR83SNAZT1REYB2SRC49PCEEK9H","","516.6999999284744","img/flower2.png","76","518.0999999046326","3","0","1","1","1,0.333,0.333,0.333,1,0.333,0.333,0.333,1","1,0.333,0.333,0.333,1,0.333,0.333,0.333,1","1",""
"","html-keyboard-response","175","124401","0.0-175.0","3CFVK00FWM7JPYSCPX6IWDRQJUBL6X","A2OWFJJ8YEKBF1","3I7KR83SNAZT1REYB2SRC49PCEEK9H","","null","<img src=""img/flower2.png"" style=""width:200px;border:14px solid red;"">","null","","","","","","","","",""
"","image-keyboard-response","176","124741","0.0-176.0","3CFVK00FWM7JPYSCPX6IWDRQJUBL6X","A2OWFJJ8YEKBF1","3I7KR83SNAZT1REYB2SRC49PCEEK9H","","338.5","img/flower2.png","76","339.90000009536743","3","0","1","1","1,0.333,0.333,0.333,1,0.333,0.333,0.333,1","1,0.333,0.333,0.333,1,0.333,0.333,0.333,1","1",""
"","html-keyboard-response","177","125046","0.0-177.0","3CFVK00FWM7JPYSCPX6IWDRQJUBL6X","A2OWFJJ8YEKBF1","3I7KR83SNAZT1REYB2SRC49PCEEK9H","","null","<img src=""img/flower2.png"" style=""width:200px;border:14px solid red;"">","null","","","","","","","","",""
"","image-keyboard-response","178","125208","0.0-178.0","3CFVK00FWM7JPYSCPX6IWDRQJUBL6X","A2OWFJJ8YEKBF1","3I7KR83SNAZT1REYB2SRC49PCEEK9H","","159.10000002384186","img/flower4.png","76","161","3","0","2","1","1,0.333,0.333,0.333,1,0.333,0.333,0.333,1","1,0.333,0.333,0.333,1,0.333,0.333,0.333,1","1",""
"","html-keyboard-response","179","125510","0.0-179.0","3CFVK00FWM7JPYSCPX6IWDRQJUBL6X","A2OWFJJ8YEKBF1","3I7KR83SNAZT1REYB2SRC49PCEEK9H","","null","<img src=""img/flower4.png"" style=""width:200px;border:14px solid red;"">","null","","","","","","","","",""
"","image-keyboard-response","180","125930","0.0-180.0","3CFVK00FWM7JPYSCPX6IWDRQJUBL6X","A2OWFJJ8YEKBF1","3I7KR83SNAZT1REYB2SRC49PCEEK9H","","419.89999997615814","img/flower4.png","75","420.39999997615814","2","1","2","1","1,0.333,0.333,0.333,1,0.333,0.333,0.333,1","1,0.333,0.333,0.333,1,0.333,0.333,0.333,1","1",""
"","html-keyboard-response","181","126235","0.0-181.0","3CFVK00FWM7JPYSCPX6IWDRQJUBL6X","A2OWFJJ8YEKBF1","3I7KR83SNAZT1REYB2SRC49PCEEK9H","","null","<img src=""img/flower4.png"" style=""width:200px; border:14px solid green;"">","null","","","","","","","","",""
"","html-keyboard-response","182","129475","0.0-182.0","3CFVK00FWM7JPYSCPX6IWDRQJUBL6X","A2OWFJJ8YEKBF1","3I7KR83SNAZT1REYB2SRC49PCEEK9H","","","","","","","","","","","","",""
"","image-keyboard-response","183","131476","0.0-183.0","3CFVK00FWM7JPYSCPX6IWDRQJUBL6X","A2OWFJJ8YEKBF1","3I7KR83SNAZT1REYB2SRC49PCEEK9H","","","img/flower3.png","","2001.7000000476837","-1","0","2","2","1,0,0,1,1,0,1,0,1","1,0,0,1,1,0,1,0,1","1",""
"","html-keyboard-response","184","131780","0.0-184.0","3CFVK00FWM7JPYSCPX6IWDRQJUBL6X","A2OWFJJ8YEKBF1","3I7KR83SNAZT1REYB2SRC49PCEEK9H","","null","<img src=""img/flower3.png"" style=""width:200px;border:14px solid red;"">","null","","","","","","","","",""
"","image-keyboard-response","185","132868","0.0-185.0","3CFVK00FWM7JPYSCPX6IWDRQJUBL6X","A2OWFJJ8YEKBF1","3I7KR83SNAZT1REYB2SRC49PCEEK9H","","1086.3000000715256","img/flower6.png","74","1088","1","1","3","2","1,0,0,1,1,0,1,0,1","1,0,0,1,1,0,1,0,1","1",""
"","html-keyboard-response","186","133172","0.0-186.0","3CFVK00FWM7JPYSCPX6IWDRQJUBL6X","A2OWFJJ8YEKBF1","3I7KR83SNAZT1REYB2SRC49PCEEK9H","","null","<img src=""img/flower6.png"" style=""width:200px; border:14px solid green;"">","null","","","","","","","","",""
"","image-keyboard-response","187","133491","0.0-187.0","3CFVK00FWM7JPYSCPX6IWDRQJUBL6X","A2OWFJJ8YEKBF1","3I7KR83SNAZT1REYB2SRC49PCEEK9H","","318.10000002384186","img/flower3.png","75","319","2","1","2","2","1,0,0,1,1,0,1,0,1","1,0,0,1,1,0,1,0,1","1",""
"","html-keyboard-response","188","133793","0.0-188.0","3CFVK00FWM7JPYSCPX6IWDRQJUBL6X","A2OWFJJ8YEKBF1","3I7KR83SNAZT1REYB2SRC49PCEEK9H","","null","<img src=""img/flower3.png"" style=""width:200px; border:14px solid green;"">","null","","","","","","","","",""
"","image-keyboard-response","189","134064","0.0-189.0","3CFVK00FWM7JPYSCPX6IWDRQJUBL6X","A2OWFJJ8YEKBF1","3I7KR83SNAZT1REYB2SRC49PCEEK9H","","268.59999990463257","img/flower6.png","75","269.7999999523163","2","0","3","2","1,0,0,1,1,0,1,0,1","1,0,0,1,1,0,1,0,1","1",""
"","html-keyboard-response","190","134369","0.0-190.0","3CFVK00FWM7JPYSCPX6IWDRQJUBL6X","A2OWFJJ8YEKBF1","3I7KR83SNAZT1REYB2SRC49PCEEK9H","","null","<img src=""img/flower6.png"" style=""width:200px;border:14px solid red;"">","null","","","","","","","","",""
"","image-keyboard-response","191","134648","0.0-191.0","3CFVK00FWM7JPYSCPX6IWDRQJUBL6X","A2OWFJJ8YEKBF1","3I7KR83SNAZT1REYB2SRC49PCEEK9H","","277","img/flower6.png","76","278.89999997615814","3","1","3","2","1,0,0,1,1,0,1,0,1","1,0,0,1,1,0,1,0,1","1",""
"","html-keyboard-response","192","134951","0.0-192.0","3CFVK00FWM7JPYSCPX6IWDRQJUBL6X","A2OWFJJ8YEKBF1","3I7KR83SNAZT1REYB2SRC49PCEEK9H","","null","<img src=""img/flower6.png"" style=""width:200px; border:14px solid green;"">","null","","","","","","","","",""
"","image-keyboard-response","193","135200","0.0-193.0","3CFVK00FWM7JPYSCPX6IWDRQJUBL6X","A2OWFJJ8YEKBF1","3I7KR83SNAZT1REYB2SRC49PCEEK9H","","247.29999995231628","img/flower3.png","75","248.10000002384186","2","1","2","2","1,0,0,1,1,0,1,0,1","1,0,0,1,1,0,1,0,1","1",""
"","html-keyboard-response","194","135504","0.0-194.0","3CFVK00FWM7JPYSCPX6IWDRQJUBL6X","A2OWFJJ8YEKBF1","3I7KR83SNAZT1REYB2SRC49PCEEK9H","","null","<img src=""img/flower3.png"" style=""width:200px; border:14px solid green;"">","null","","","","","","","","",""
"","image-keyboard-response","195","135852","0.0-195.0","3CFVK00FWM7JPYSCPX6IWDRQJUBL6X","A2OWFJJ8YEKBF1","3I7KR83SNAZT1REYB2SRC49PCEEK9H","","345.2000000476837","img/flower5.png","75","346.60000002384186","2","0","1","2","1,0,0,1,1,0,1,0,1","1,0,0,1,1,0,1,0,1","1",""
"","html-keyboard-response","196","136156","0.0-196.0","3CFVK00FWM7JPYSCPX6IWDRQJUBL6X","A2OWFJJ8YEKBF1","3I7KR83SNAZT1REYB2SRC49PCEEK9H","","null","<img src=""img/flower5.png"" style=""width:200px;border:14px solid red;"">","null","","","","","","","","",""
"","image-keyboard-response","197","136439","0.0-197.0","3CFVK00FWM7JPYSCPX6IWDRQJUBL6X","A2OWFJJ8YEKBF1","3I7KR83SNAZT1REYB2SRC49PCEEK9H","","280.2999999523163","img/flower6.png","74","281.7000000476837","1","1","3","2","1,0,0,1,1,0,1,0,1","1,0,0,1,1,0,1,0,1","1",""
"","html-keyboard-response","198","136743","0.0-198.0","3CFVK00FWM7JPYSCPX6IWDRQJUBL6X","A2OWFJJ8YEKBF1","3I7KR83SNAZT1REYB2SRC49PCEEK9H","","null","<img src=""img/flower6.png"" style=""width:200px; border:14px solid green;"">","null","","","","","","","","",""
"","image-keyboard-response","199","137098","0.0-199.0","3CFVK00FWM7JPYSCPX6IWDRQJUBL6X","A2OWFJJ8YEKBF1","3I7KR83SNAZT1REYB2SRC49PCEEK9H","","352.89999997615814","img/flower3.png","74","354.60000002384186","1","1","2","2","1,0,0,1,1,0,1,0,1","1,0,0,1,1,0,1,0,1","1",""
"","html-keyboard-response","200","137403","0.0-200.0","3CFVK00FWM7JPYSCPX6IWDRQJUBL6X","A2OWFJJ8YEKBF1","3I7KR83SNAZT1REYB2SRC49PCEEK9H","","null","<img src=""img/flower3.png"" style=""width:200px; border:14px solid green;"">","null","","","","","","","","",""
"","image-keyboard-response","201","137655","0.0-201.0","3CFVK00FWM7JPYSCPX6IWDRQJUBL6X","A2OWFJJ8YEKBF1","3I7KR83SNAZT1REYB2SRC49PCEEK9H","","250.10000002384186","img/flower5.png","74","251.10000002384186","1","1","1","2","1,0,0,1,1,0,1,0,1","1,0,0,1,1,0,1,0,1","1",""
"","html-keyboard-response","202","137956","0.0-202.0","3CFVK00FWM7JPYSCPX6IWDRQJUBL6X","A2OWFJJ8YEKBF1","3I7KR83SNAZT1REYB2SRC49PCEEK9H","","null","<img src=""img/flower5.png"" style=""width:200px; border:14px solid green;"">","null","","","","","","","","",""
"","image-keyboard-response","203","138629","0.0-203.0","3CFVK00FWM7JPYSCPX6IWDRQJUBL6X","A2OWFJJ8YEKBF1","3I7KR83SNAZT1REYB2SRC49PCEEK9H","","671.5","img/flower3.png","75","672.3999999761581","2","1","2","2","1,0,0,1,1,0,1,0,1","1,0,0,1,1,0,1,0,1","1",""
"","html-keyboard-response","204","138931","0.0-204.0","3CFVK00FWM7JPYSCPX6IWDRQJUBL6X","A2OWFJJ8YEKBF1","3I7KR83SNAZT1REYB2SRC49PCEEK9H","","null","<img src=""img/flower3.png"" style=""width:200px; border:14px solid green;"">","null","","","","","","","","",""
"","image-keyboard-response","205","140098","0.0-205.0","3CFVK00FWM7JPYSCPX6IWDRQJUBL6X","A2OWFJJ8YEKBF1","3I7KR83SNAZT1REYB2SRC49PCEEK9H","","1166","img/flower6.png","74","1166.7999999523163","1","1","3","2","1,0,0,1,1,0,1,0,1","1,0,0,1,1,0,1,0,1","1",""
"","html-keyboard-response","206","140400","0.0-206.0","3CFVK00FWM7JPYSCPX6IWDRQJUBL6X","A2OWFJJ8YEKBF1","3I7KR83SNAZT1REYB2SRC49PCEEK9H","","null","<img src=""img/flower6.png"" style=""width:200px; border:14px solid green;"">","null","","","","","","","","",""
"","image-keyboard-response","207","141204","0.0-207.0","3CFVK00FWM7JPYSCPX6IWDRQJUBL6X","A2OWFJJ8YEKBF1","3I7KR83SNAZT1REYB2SRC49PCEEK9H","","801.7000000476837","img/flower5.png","76","803.1000000238419","3","0","1","2","1,0,0,1,1,0,1,0,1","1,0,0,1,1,0,1,0,1","1",""
"","html-keyboard-response","208","141508","0.0-208.0","3CFVK00FWM7JPYSCPX6IWDRQJUBL6X","A2OWFJJ8YEKBF1","3I7KR83SNAZT1REYB2SRC49PCEEK9H","","null","<img src=""img/flower5.png"" style=""width:200px;border:14px solid red;"">","null","","","","","","","","",""
"","image-keyboard-response","209","142010","0.0-209.0","3CFVK00FWM7JPYSCPX6IWDRQJUBL6X","A2OWFJJ8YEKBF1","3I7KR83SNAZT1REYB2SRC49PCEEK9H","","501.2999999523163","img/flower5.png","76","501.7999999523163","3","0","1","2","1,0,0,1,1,0,1,0,1","1,0,0,1,1,0,1,0,1","1",""
"","html-keyboard-response","210","142315","0.0-210.0","3CFVK00FWM7JPYSCPX6IWDRQJUBL6X","A2OWFJJ8YEKBF1","3I7KR83SNAZT1REYB2SRC49PCEEK9H","","null","<img src=""img/flower5.png"" style=""width:200px;border:14px solid red;"">","null","","","","","","","","",""
"","image-keyboard-response","211","142891","0.0-211.0","3CFVK00FWM7JPYSCPX6IWDRQJUBL6X","A2OWFJJ8YEKBF1","3I7KR83SNAZT1REYB2SRC49PCEEK9H","","575.4000000953674","img/flower3.png","74","576.1000000238419","1","1","2","2","1,0,0,1,1,0,1,0,1","1,0,0,1,1,0,1,0,1","1",""
"","html-keyboard-response","212","143197","0.0-212.0","3CFVK00FWM7JPYSCPX6IWDRQJUBL6X","A2OWFJJ8YEKBF1","3I7KR83SNAZT1REYB2SRC49PCEEK9H","","null","<img src=""img/flower3.png"" style=""width:200px; border:14px solid green;"">","null","","","","","","","","",""
"","image-keyboard-response","213","143718","0.0-213.0","3CFVK00FWM7JPYSCPX6IWDRQJUBL6X","A2OWFJJ8YEKBF1","3I7KR83SNAZT1REYB2SRC49PCEEK9H","","520.5","img/flower3.png","74","521.3000000715256","1","1","2","2","1,0,0,1,1,0,1,0,1","1,0,0,1,1,0,1,0,1","1",""
"","html-keyboard-response","214","144021","0.0-214.0","3CFVK00FWM7JPYSCPX6IWDRQJUBL6X","A2OWFJJ8YEKBF1","3I7KR83SNAZT1REYB2SRC49PCEEK9H","","null","<img src=""img/flower3.png"" style=""width:200px; border:14px solid green;"">","null","","","","","","","","",""
"","image-keyboard-response","215","144250","0.0-215.0","3CFVK00FWM7JPYSCPX6IWDRQJUBL6X","A2OWFJJ8YEKBF1","3I7KR83SNAZT1REYB2SRC49PCEEK9H","","227.89999997615814","img/flower6.png","74","228.70000004768372","1","1","3","2","1,0,0,1,1,0,1,0,1","1,0,0,1,1,0,1,0,1","1",""
"","html-keyboard-response","216","144555","0.0-216.0","3CFVK00FWM7JPYSCPX6IWDRQJUBL6X","A2OWFJJ8YEKBF1","3I7KR83SNAZT1REYB2SRC49PCEEK9H","","null","<img src=""img/flower6.png"" style=""width:200px; border:14px solid green;"">","null","","","","","","","","",""
"","image-keyboard-response","217","144923","0.0-217.0","3CFVK00FWM7JPYSCPX6IWDRQJUBL6X","A2OWFJJ8YEKBF1","3I7KR83SNAZT1REYB2SRC49PCEEK9H","","366.8000000715256","img/flower6.png","74","367.7999999523163","1","1","3","2","1,0,0,1,1,0,1,0,1","1,0,0,1,1,0,1,0,1","1",""
"","html-keyboard-response","218","145229","0.0-218.0","3CFVK00FWM7JPYSCPX6IWDRQJUBL6X","A2OWFJJ8YEKBF1","3I7KR83SNAZT1REYB2SRC49PCEEK9H","","null","<img src=""img/flower6.png"" style=""width:200px; border:14px solid green;"">","null","","","","","","","","",""
"","image-keyboard-response","219","145424","0.0-219.0","3CFVK00FWM7JPYSCPX6IWDRQJUBL6X","A2OWFJJ8YEKBF1","3I7KR83SNAZT1REYB2SRC49PCEEK9H","","192.70000004768372","img/flower6.png","74","194.40000009536743","1","1","3","2","1,0,0,1,1,0,1,0,1","1,0,0,1,1,0,1,0,1","1",""
"","html-keyboard-response","220","145726","0.0-220.0","3CFVK00FWM7JPYSCPX6IWDRQJUBL6X","A2OWFJJ8YEKBF1","3I7KR83SNAZT1REYB2SRC49PCEEK9H","","null","<img src=""img/flower6.png"" style=""width:200px; border:14px solid green;"">","null","","","","","","","","",""
"","image-keyboard-response","221","145938","0.0-221.0","3CFVK00FWM7JPYSCPX6IWDRQJUBL6X","A2OWFJJ8YEKBF1","3I7KR83SNAZT1REYB2SRC49PCEEK9H","","211","img/flower3.png","74","211.79999995231628","1","1","2","2","1,0,0,1,1,0,1,0,1","1,0,0,1,1,0,1,0,1","1",""
"","html-keyboard-response","222","146245","0.0-222.0","3CFVK00FWM7JPYSCPX6IWDRQJUBL6X","A2OWFJJ8YEKBF1","3I7KR83SNAZT1REYB2SRC49PCEEK9H","","null","<img src=""img/flower3.png"" style=""width:200px; border:14px solid green;"">","null","","","","","","","","",""
"","image-keyboard-response","223","146475","0.0-223.0","3CFVK00FWM7JPYSCPX6IWDRQJUBL6X","A2OWFJJ8YEKBF1","3I7KR83SNAZT1REYB2SRC49PCEEK9H","","228.30000007152557","img/flower3.png","74","229.39999997615814","1","1","2","2","1,0,0,1,1,0,1,0,1","1,0,0,1,1,0,1,0,1","1",""
"","html-keyboard-response","224","146779","0.0-224.0","3CFVK00FWM7JPYSCPX6IWDRQJUBL6X","A2OWFJJ8YEKBF1","3I7KR83SNAZT1REYB2SRC49PCEEK9H","","null","<img src=""img/flower3.png"" style=""width:200px; border:14px solid green;"">","null","","","","","","","","",""
"","image-keyboard-response","225","147116","0.0-225.0","3CFVK00FWM7JPYSCPX6IWDRQJUBL6X","A2OWFJJ8YEKBF1","3I7KR83SNAZT1REYB2SRC49PCEEK9H","","334","img/flower5.png","74","335.89999997615814","1","1","1","2","1,0,0,1,1,0,1,0,1","1,0,0,1,1,0,1,0,1","1",""
"","html-keyboard-response","226","147417","0.0-226.0","3CFVK00FWM7JPYSCPX6IWDRQJUBL6X","A2OWFJJ8YEKBF1","3I7KR83SNAZT1REYB2SRC49PCEEK9H","","null","<img src=""img/flower5.png"" style=""width:200px; border:14px solid green;"">","null","","","","","","","","",""
"","image-keyboard-response","227","147458","0.0-227.0","3CFVK00FWM7JPYSCPX6IWDRQJUBL6X","A2OWFJJ8YEKBF1","3I7KR83SNAZT1REYB2SRC49PCEEK9H","","39.700000047683716","img/flower3.png","74","40.299999952316284","1","1","2","2","1,0,0,1,1,0,1,0,1","1,0,0,1,1,0,1,0,1","1",""
"","html-keyboard-response","228","147760","0.0-228.0","3CFVK00FWM7JPYSCPX6IWDRQJUBL6X","A2OWFJJ8YEKBF1","3I7KR83SNAZT1REYB2SRC49PCEEK9H","","null","<img src=""img/flower3.png"" style=""width:200px; border:14px solid green;"">","null","","","","","","","","",""
"","image-keyboard-response","229","147839","0.0-229.0","3CFVK00FWM7JPYSCPX6IWDRQJUBL6X","A2OWFJJ8YEKBF1","3I7KR83SNAZT1REYB2SRC49PCEEK9H","","76.90000009536743","img/flower5.png","74","78.5","1","1","1","2","1,0,0,1,1,0,1,0,1","1,0,0,1,1,0,1,0,1","1",""
"","html-keyboard-response","230","148143","0.0-230.0","3CFVK00FWM7JPYSCPX6IWDRQJUBL6X","A2OWFJJ8YEKBF1","3I7KR83SNAZT1REYB2SRC49PCEEK9H","","null","<img src=""img/flower5.png"" style=""width:200px; border:14px solid green;"">","null","","","","","","","","",""
"","image-keyboard-response","231","148194","0.0-231.0","3CFVK00FWM7JPYSCPX6IWDRQJUBL6X","A2OWFJJ8YEKBF1","3I7KR83SNAZT1REYB2SRC49PCEEK9H","","49.10000002384186","img/flower6.png","74","50.5","1","1","3","2","1,0,0,1,1,0,1,0,1","1,0,0,1,1,0,1,0,1","1",""
"","html-keyboard-response","232","148497","0.0-232.0","3CFVK00FWM7JPYSCPX6IWDRQJUBL6X","A2OWFJJ8YEKBF1","3I7KR83SNAZT1REYB2SRC49PCEEK9H","","null","<img src=""img/flower6.png"" style=""width:200px; border:14px solid green;"">","null","","","","","","","","",""
"","image-keyboard-response","233","148572","0.0-233.0","3CFVK00FWM7JPYSCPX6IWDRQJUBL6X","A2OWFJJ8YEKBF1","3I7KR83SNAZT1REYB2SRC49PCEEK9H","","71.30000007152557","img/flower3.png","74","73.19999992847443","1","1","2","2","1,0,0,1,1,0,1,0,1","1,0,0,1,1,0,1,0,1","1",""
"","html-keyboard-response","234","148874","0.0-234.0","3CFVK00FWM7JPYSCPX6IWDRQJUBL6X","A2OWFJJ8YEKBF1","3I7KR83SNAZT1REYB2SRC49PCEEK9H","","null","<img src=""img/flower3.png"" style=""width:200px; border:14px solid green;"">","null","","","","","","","","",""
"","image-keyboard-response","235","148967","0.0-235.0","3CFVK00FWM7JPYSCPX6IWDRQJUBL6X","A2OWFJJ8YEKBF1","3I7KR83SNAZT1REYB2SRC49PCEEK9H","","90.30000007152557","img/flower5.png","74","91.69999992847443","1","1","1","2","1,0,0,1,1,0,1,0,1","1,0,0,1,1,0,1,0,1","1",""
"","html-keyboard-response","236","149269","0.0-236.0","3CFVK00FWM7JPYSCPX6IWDRQJUBL6X","A2OWFJJ8YEKBF1","3I7KR83SNAZT1REYB2SRC49PCEEK9H","","null","<img src=""img/flower5.png"" style=""width:200px; border:14px solid green;"">","null","","","","","","","","",""
"","image-keyboard-response","237","149364","0.0-237.0","3CFVK00FWM7JPYSCPX6IWDRQJUBL6X","A2OWFJJ8YEKBF1","3I7KR83SNAZT1REYB2SRC49PCEEK9H","","92.29999995231628","img/flower3.png","74","94","1","1","2","2","1,0,0,1,1,0,1,0,1","1,0,0,1,1,0,1,0,1","1",""
"","html-keyboard-response","238","149670","0.0-238.0","3CFVK00FWM7JPYSCPX6IWDRQJUBL6X","A2OWFJJ8YEKBF1","3I7KR83SNAZT1REYB2SRC49PCEEK9H","","null","<img src=""img/flower3.png"" style=""width:200px; border:14px solid green;"">","null","","","","","","","","",""
"","image-keyboard-response","239","149827","0.0-239.0","3CFVK00FWM7JPYSCPX6IWDRQJUBL6X","A2OWFJJ8YEKBF1","3I7KR83SNAZT1REYB2SRC49PCEEK9H","","155.30000007152557","img/flower3.png","74","156.89999997615814","1","1","2","2","1,0,0,1,1,0,1,0,1","1,0,0,1,1,0,1,0,1","1",""
"","html-keyboard-response","240","150134","0.0-240.0","3CFVK00FWM7JPYSCPX6IWDRQJUBL6X","A2OWFJJ8YEKBF1","3I7KR83SNAZT1REYB2SRC49PCEEK9H","","null","<img src=""img/flower3.png"" style=""width:200px; border:14px solid green;"">","null","","","","","","","","",""
"","image-keyboard-response","241","150265","0.0-241.0","3CFVK00FWM7JPYSCPX6IWDRQJUBL6X","A2OWFJJ8YEKBF1","3I7KR83SNAZT1REYB2SRC49PCEEK9H","","128.5","img/flower6.png","74","130.29999995231628","1","1","3","2","1,0,0,1,1,0,1,0,1","1,0,0,1,1,0,1,0,1","1",""
"","html-keyboard-response","242","150569","0.0-242.0","3CFVK00FWM7JPYSCPX6IWDRQJUBL6X","A2OWFJJ8YEKBF1","3I7KR83SNAZT1REYB2SRC49PCEEK9H","","null","<img src=""img/flower6.png"" style=""width:200px; border:14px solid green;"">","null","","","","","","","","",""
"","image-keyboard-response","243","150694","0.0-243.0","3CFVK00FWM7JPYSCPX6IWDRQJUBL6X","A2OWFJJ8YEKBF1","3I7KR83SNAZT1REYB2SRC49PCEEK9H","","123.19999992847443","img/flower5.png","74","124.5","1","1","1","2","1,0,0,1,1,0,1,0,1","1,0,0,1,1,0,1,0,1","1",""
"","html-keyboard-response","244","150999","0.0-244.0","3CFVK00FWM7JPYSCPX6IWDRQJUBL6X","A2OWFJJ8YEKBF1","3I7KR83SNAZT1REYB2SRC49PCEEK9H","","null","<img src=""img/flower5.png"" style=""width:200px; border:14px solid green;"">","null","","","","","","","","",""
"","image-keyboard-response","245","151110","0.0-245.0","3CFVK00FWM7JPYSCPX6IWDRQJUBL6X","A2OWFJJ8YEKBF1","3I7KR83SNAZT1REYB2SRC49PCEEK9H","","110","img/flower3.png","74","110.80000007152557","1","1","2","2","1,0,0,1,1,0,1,0,1","1,0,0,1,1,0,1,0,1","1",""
"","html-keyboard-response","246","151416","0.0-246.0","3CFVK00FWM7JPYSCPX6IWDRQJUBL6X","A2OWFJJ8YEKBF1","3I7KR83SNAZT1REYB2SRC49PCEEK9H","","null","<img src=""img/flower3.png"" style=""width:200px; border:14px solid green;"">","null","","","","","","","","",""
"","image-keyboard-response","247","151528","0.0-247.0","3CFVK00FWM7JPYSCPX6IWDRQJUBL6X","A2OWFJJ8YEKBF1","3I7KR83SNAZT1REYB2SRC49PCEEK9H","","109.30000007152557","img/flower5.png","75","110.79999995231628","2","0","1","2","1,0,0,1,1,0,1,0,1","1,0,0,1,1,0,1,0,1","1",""
"","html-keyboard-response","248","151832","0.0-248.0","3CFVK00FWM7JPYSCPX6IWDRQJUBL6X","A2OWFJJ8YEKBF1","3I7KR83SNAZT1REYB2SRC49PCEEK9H","","null","<img src=""img/flower5.png"" style=""width:200px;border:14px solid red;"">","null","","","","","","","","",""
"","image-keyboard-response","249","151907","0.0-249.0","3CFVK00FWM7JPYSCPX6IWDRQJUBL6X","A2OWFJJ8YEKBF1","3I7KR83SNAZT1REYB2SRC49PCEEK9H","","74.5","img/flower6.png","75","75.29999995231628","2","0","3","2","1,0,0,1,1,0,1,0,1","1,0,0,1,1,0,1,0,1","1",""
"","html-keyboard-response","250","152212","0.0-250.0","3CFVK00FWM7JPYSCPX6IWDRQJUBL6X","A2OWFJJ8YEKBF1","3I7KR83SNAZT1REYB2SRC49PCEEK9H","","null","<img src=""img/flower6.png"" style=""width:200px;border:14px solid red;"">","null","","","","","","","","",""
"","image-keyboard-response","251","152276","0.0-251.0","3CFVK00FWM7JPYSCPX6IWDRQJUBL6X","A2OWFJJ8YEKBF1","3I7KR83SNAZT1REYB2SRC49PCEEK9H","","63.200000047683716","img/flower6.png","74","63.89999997615814","1","1","3","2","1,0,0,1,1,0,1,0,1","1,0,0,1,1,0,1,0,1","1",""
"","html-keyboard-response","252","152584","0.0-252.0","3CFVK00FWM7JPYSCPX6IWDRQJUBL6X","A2OWFJJ8YEKBF1","3I7KR83SNAZT1REYB2SRC49PCEEK9H","","null","<img src=""img/flower6.png"" style=""width:200px; border:14px solid green;"">","null","","","","","","","","",""
"","image-keyboard-response","253","152708","0.0-253.0","3CFVK00FWM7JPYSCPX6IWDRQJUBL6X","A2OWFJJ8YEKBF1","3I7KR83SNAZT1REYB2SRC49PCEEK9H","","122.60000002384186","img/flower6.png","74","124.20000004768372","1","1","3","2","1,0,0,1,1,0,1,0,1","1,0,0,1,1,0,1,0,1","1",""
"","html-keyboard-response","254","153012","0.0-254.0","3CFVK00FWM7JPYSCPX6IWDRQJUBL6X","A2OWFJJ8YEKBF1","3I7KR83SNAZT1REYB2SRC49PCEEK9H","","null","<img src=""img/flower6.png"" style=""width:200px; border:14px solid green;"">","null","","","","","","","","",""
"","image-keyboard-response","255","153076","0.0-255.0","3CFVK00FWM7JPYSCPX6IWDRQJUBL6X","A2OWFJJ8YEKBF1","3I7KR83SNAZT1REYB2SRC49PCEEK9H","","62.5","img/flower6.png","74","63.300000071525574","1","1","3","2","1,0,0,1,1,0,1,0,1","1,0,0,1,1,0,1,0,1","1",""
"","html-keyboard-response","256","153378","0.0-256.0","3CFVK00FWM7JPYSCPX6IWDRQJUBL6X","A2OWFJJ8YEKBF1","3I7KR83SNAZT1REYB2SRC49PCEEK9H","","null","<img src=""img/flower6.png"" style=""width:200px; border:14px solid green;"">","null","","","","","","","","",""
"","image-keyboard-response","257","153464","0.0-257.0","3CFVK00FWM7JPYSCPX6IWDRQJUBL6X","A2OWFJJ8YEKBF1","3I7KR83SNAZT1REYB2SRC49PCEEK9H","","84.19999992847443","img/flower3.png","74","85.60000002384186","1","1","2","2","1,0,0,1,1,0,1,0,1","1,0,0,1,1,0,1,0,1","1",""
"","html-keyboard-response","258","153767","0.0-258.0","3CFVK00FWM7JPYSCPX6IWDRQJUBL6X","A2OWFJJ8YEKBF1","3I7KR83SNAZT1REYB2SRC49PCEEK9H","","null","<img src=""img/flower3.png"" style=""width:200px; border:14px solid green;"">","null","","","","","","","","",""
"","image-keyboard-response","259","153857","0.0-259.0","3CFVK00FWM7JPYSCPX6IWDRQJUBL6X","A2OWFJJ8YEKBF1","3I7KR83SNAZT1REYB2SRC49PCEEK9H","","88","img/flower5.png","74","89.60000002384186","1","1","1","2","1,0,0,1,1,0,1,0,1","1,0,0,1,1,0,1,0,1","1",""
"","html-keyboard-response","260","154161","0.0-260.0","3CFVK00FWM7JPYSCPX6IWDRQJUBL6X","A2OWFJJ8YEKBF1","3I7KR83SNAZT1REYB2SRC49PCEEK9H","","null","<img src=""img/flower5.png"" style=""width:200px; border:14px solid green;"">","null","","","","","","","","",""
"","image-keyboard-response","261","154263","0.0-261.0","3CFVK00FWM7JPYSCPX6IWDRQJUBL6X","A2OWFJJ8YEKBF1","3I7KR83SNAZT1REYB2SRC49PCEEK9H","","101.19999992847443","img/flower6.png","74","101.89999997615814","1","1","3","2","1,0,0,1,1,0,1,0,1","1,0,0,1,1,0,1,0,1","1",""
"","html-keyboard-response","262","154566","0.0-262.0","3CFVK00FWM7JPYSCPX6IWDRQJUBL6X","A2OWFJJ8YEKBF1","3I7KR83SNAZT1REYB2SRC49PCEEK9H","","null","<img src=""img/flower6.png"" style=""width:200px; border:14px solid green;"">","null","","","","","","","","",""
"","image-keyboard-response","263","154679","0.0-263.0","3CFVK00FWM7JPYSCPX6IWDRQJUBL6X","A2OWFJJ8YEKBF1","3I7KR83SNAZT1REYB2SRC49PCEEK9H","","111.79999995231628","img/flower6.png","74","112.79999995231628","1","1","3","2","1,0,0,1,1,0,1,0,1","1,0,0,1,1,0,1,0,1","1",""
"","html-keyboard-response","264","154980","0.0-264.0","3CFVK00FWM7JPYSCPX6IWDRQJUBL6X","A2OWFJJ8YEKBF1","3I7KR83SNAZT1REYB2SRC49PCEEK9H","","null","<img src=""img/flower6.png"" style=""width:200px; border:14px solid green;"">","null","","","","","","","","",""
"","image-keyboard-response","265","155083","0.0-265.0","3CFVK00FWM7JPYSCPX6IWDRQJUBL6X","A2OWFJJ8YEKBF1","3I7KR83SNAZT1REYB2SRC49PCEEK9H","","101.39999997615814","img/flower3.png","74","102.5","1","1","2","2","1,0,0,1,1,0,1,0,1","1,0,0,1,1,0,1,0,1","1",""
"","html-keyboard-response","266","155410","0.0-266.0","3CFVK00FWM7JPYSCPX6IWDRQJUBL6X","A2OWFJJ8YEKBF1","3I7KR83SNAZT1REYB2SRC49PCEEK9H","","null","<img src=""img/flower3.png"" style=""width:200px; border:14px solid green;"">","null","","","","","","","","",""
"","image-keyboard-response","267","155480","0.0-267.0","3CFVK00FWM7JPYSCPX6IWDRQJUBL6X","A2OWFJJ8YEKBF1","3I7KR83SNAZT1REYB2SRC49PCEEK9H","","68.60000002384186","img/flower5.png","74","69.69999992847443","1","1","1","2","1,0,0,1,1,0,1,0,1","1,0,0,1,1,0,1,0,1","1",""
"","html-keyboard-response","268","155782","0.0-268.0","3CFVK00FWM7JPYSCPX6IWDRQJUBL6X","A2OWFJJ8YEKBF1","3I7KR83SNAZT1REYB2SRC49PCEEK9H","","null","<img src=""img/flower5.png"" style=""width:200px; border:14px solid green;"">","null","","","","","","","","",""
"","image-keyboard-response","269","155899","0.0-269.0","3CFVK00FWM7JPYSCPX6IWDRQJUBL6X","A2OWFJJ8YEKBF1","3I7KR83SNAZT1REYB2SRC49PCEEK9H","","116","img/flower6.png","74","117.10000002384186","1","1","3","2","1,0,0,1,1,0,1,0,1","1,0,0,1,1,0,1,0,1","1",""
"","html-keyboard-response","270","156206","0.0-270.0","3CFVK00FWM7JPYSCPX6IWDRQJUBL6X","A2OWFJJ8YEKBF1","3I7KR83SNAZT1REYB2SRC49PCEEK9H","","null","<img src=""img/flower6.png"" style=""width:200px; border:14px solid green;"">","null","","","","","","","","",""
"","image-keyboard-response","271","156314","0.0-271.0","3CFVK00FWM7JPYSCPX6IWDRQJUBL6X","A2OWFJJ8YEKBF1","3I7KR83SNAZT1REYB2SRC49PCEEK9H","","106.60000002384186","img/flower5.png","74","107.70000004768372","1","1","1","2","1,0,0,1,1,0,1,0,1","1,0,0,1,1,0,1,0,1","1",""
"","html-keyboard-response","272","156618","0.0-272.0","3CFVK00FWM7JPYSCPX6IWDRQJUBL6X","A2OWFJJ8YEKBF1","3I7KR83SNAZT1REYB2SRC49PCEEK9H","","null","<img src=""img/flower5.png"" style=""width:200px; border:14px solid green;"">","null","","","","","","","","",""
"","image-keyboard-response","273","156707","0.0-273.0","3CFVK00FWM7JPYSCPX6IWDRQJUBL6X","A2OWFJJ8YEKBF1","3I7KR83SNAZT1REYB2SRC49PCEEK9H","","87.09999990463257","img/flower3.png","74","88.19999992847443","1","1","2","2","1,0,0,1,1,0,1,0,1","1,0,0,1,1,0,1,0,1","1",""
"","html-keyboard-response","274","157013","0.0-274.0","3CFVK00FWM7JPYSCPX6IWDRQJUBL6X","A2OWFJJ8YEKBF1","3I7KR83SNAZT1REYB2SRC49PCEEK9H","","null","<img src=""img/flower3.png"" style=""width:200px; border:14px solid green;"">","null","","","","","","","","",""
"","image-keyboard-response","275","157090","0.0-275.0","3CFVK00FWM7JPYSCPX6IWDRQJUBL6X","A2OWFJJ8YEKBF1","3I7KR83SNAZT1REYB2SRC49PCEEK9H","","76.20000004768372","img/flower5.png","74","77.30000007152557","1","1","1","2","1,0,0,1,1,0,1,0,1","1,0,0,1,1,0,1,0,1","1",""
"","html-keyboard-response","276","157396","0.0-276.0","3CFVK00FWM7JPYSCPX6IWDRQJUBL6X","A2OWFJJ8YEKBF1","3I7KR83SNAZT1REYB2SRC49PCEEK9H","","null","<img src=""img/flower5.png"" style=""width:200px; border:14px solid green;"">","null","","","","","","","","",""
"","image-keyboard-response","277","157530","0.0-277.0","3CFVK00FWM7JPYSCPX6IWDRQJUBL6X","A2OWFJJ8YEKBF1","3I7KR83SNAZT1REYB2SRC49PCEEK9H","","132.70000004768372","img/flower5.png","74","134.20000004768372","1","1","1","2","1,0,0,1,1,0,1,0,1","1,0,0,1,1,0,1,0,1","1",""
"","html-keyboard-response","278","157837","0.0-278.0","3CFVK00FWM7JPYSCPX6IWDRQJUBL6X","A2OWFJJ8YEKBF1","3I7KR83SNAZT1REYB2SRC49PCEEK9H","","null","<img src=""img/flower5.png"" style=""width:200px; border:14px solid green;"">","null","","","","","","","","",""
"","image-keyboard-response","279","157918","0.0-279.0","3CFVK00FWM7JPYSCPX6IWDRQJUBL6X","A2OWFJJ8YEKBF1","3I7KR83SNAZT1REYB2SRC49PCEEK9H","","78.19999992847443","img/flower6.png","74","79.70000004768372","1","1","3","2","1,0,0,1,1,0,1,0,1","1,0,0,1,1,0,1,0,1","1",""
"","html-keyboard-response","280","158220","0.0-280.0","3CFVK00FWM7JPYSCPX6IWDRQJUBL6X","A2OWFJJ8YEKBF1","3I7KR83SNAZT1REYB2SRC49PCEEK9H","","null","<img src=""img/flower6.png"" style=""width:200px; border:14px solid green;"">","null","","","","","","","","",""
"","image-keyboard-response","281","158328","0.0-281.0","3CFVK00FWM7JPYSCPX6IWDRQJUBL6X","A2OWFJJ8YEKBF1","3I7KR83SNAZT1REYB2SRC49PCEEK9H","","104.79999995231628","img/flower6.png","74","107.20000004768372","1","1","3","2","1,0,0,1,1,0,1,0,1","1,0,0,1,1,0,1,0,1","1",""
"","html-keyboard-response","282","158632","0.0-282.0","3CFVK00FWM7JPYSCPX6IWDRQJUBL6X","A2OWFJJ8YEKBF1","3I7KR83SNAZT1REYB2SRC49PCEEK9H","","null","<img src=""img/flower6.png"" style=""width:200px; border:14px solid green;"">","null","","","","","","","","",""
"","image-keyboard-response","283","158729","0.0-283.0","3CFVK00FWM7JPYSCPX6IWDRQJUBL6X","A2OWFJJ8YEKBF1","3I7KR83SNAZT1REYB2SRC49PCEEK9H","","94.39999997615814","img/flower5.png","74","96","1","1","1","2","1,0,0,1,1,0,1,0,1","1,0,0,1,1,0,1,0,1","1",""
"","html-keyboard-response","284","159039","0.0-284.0","3CFVK00FWM7JPYSCPX6IWDRQJUBL6X","A2OWFJJ8YEKBF1","3I7KR83SNAZT1REYB2SRC49PCEEK9H","","null","<img src=""img/flower5.png"" style=""width:200px; border:14px solid green;"">","null","","","","","","","","",""
"","image-keyboard-response","285","159122","0.0-285.0","3CFVK00FWM7JPYSCPX6IWDRQJUBL6X","A2OWFJJ8YEKBF1","3I7KR83SNAZT1REYB2SRC49PCEEK9H","","80.79999995231628","img/flower5.png","74","82.60000002384186","1","1","1","2","1,0,0,1,1,0,1,0,1","1,0,0,1,1,0,1,0,1","1",""
"","html-keyboard-response","286","159427","0.0-286.0","3CFVK00FWM7JPYSCPX6IWDRQJUBL6X","A2OWFJJ8YEKBF1","3I7KR83SNAZT1REYB2SRC49PCEEK9H","","null","<img src=""img/flower5.png"" style=""width:200px; border:14px solid green;"">","null","","","","","","","","",""
"","image-keyboard-response","287","159534","0.0-287.0","3CFVK00FWM7JPYSCPX6IWDRQJUBL6X","A2OWFJJ8YEKBF1","3I7KR83SNAZT1REYB2SRC49PCEEK9H","","104.79999995231628","img/flower6.png","74","106.10000002384186","1","1","3","2","1,0,0,1,1,0,1,0,1","1,0,0,1,1,0,1,0,1","1",""
"","html-keyboard-response","288","159839","0.0-288.0","3CFVK00FWM7JPYSCPX6IWDRQJUBL6X","A2OWFJJ8YEKBF1","3I7KR83SNAZT1REYB2SRC49PCEEK9H","","null","<img src=""img/flower6.png"" style=""width:200px; border:14px solid green;"">","null","","","","","","","","",""
"","image-keyboard-response","289","159940","0.0-289.0","3CFVK00FWM7JPYSCPX6IWDRQJUBL6X","A2OWFJJ8YEKBF1","3I7KR83SNAZT1REYB2SRC49PCEEK9H","","99.40000009536743","img/flower3.png","74","100.5","1","1","2","2","1,0,0,1,1,0,1,0,1","1,0,0,1,1,0,1,0,1","1",""
"","html-keyboard-response","290","160246","0.0-290.0","3CFVK00FWM7JPYSCPX6IWDRQJUBL6X","A2OWFJJ8YEKBF1","3I7KR83SNAZT1REYB2SRC49PCEEK9H","","null","<img src=""img/flower3.png"" style=""width:200px; border:14px solid green;"">","null","","","","","","","","",""
"","image-keyboard-response","291","160359","0.0-291.0","3CFVK00FWM7JPYSCPX6IWDRQJUBL6X","A2OWFJJ8YEKBF1","3I7KR83SNAZT1REYB2SRC49PCEEK9H","","112.10000002384186","img/flower5.png","74","113","1","1","1","2","1,0,0,1,1,0,1,0,1","1,0,0,1,1,0,1,0,1","1",""
"","html-keyboard-response","292","160663","0.0-292.0","3CFVK00FWM7JPYSCPX6IWDRQJUBL6X","A2OWFJJ8YEKBF1","3I7KR83SNAZT1REYB2SRC49PCEEK9H","","null","<img src=""img/flower5.png"" style=""width:200px; border:14px solid green;"">","null","","","","","","","","",""
"","image-keyboard-response","293","160773","0.0-293.0","3CFVK00FWM7JPYSCPX6IWDRQJUBL6X","A2OWFJJ8YEKBF1","3I7KR83SNAZT1REYB2SRC49PCEEK9H","","107.09999990463257","img/flower5.png","74","108.89999997615814","1","1","1","2","1,0,0,1,1,0,1,0,1","1,0,0,1,1,0,1,0,1","1",""
"","html-keyboard-response","294","161076","0.0-294.0","3CFVK00FWM7JPYSCPX6IWDRQJUBL6X","A2OWFJJ8YEKBF1","3I7KR83SNAZT1REYB2SRC49PCEEK9H","","null","<img src=""img/flower5.png"" style=""width:200px; border:14px solid green;"">","null","","","","","","","","",""
"","image-keyboard-response","295","161164","0.0-295.0","3CFVK00FWM7JPYSCPX6IWDRQJUBL6X","A2OWFJJ8YEKBF1","3I7KR83SNAZT1REYB2SRC49PCEEK9H","","85.5","img/flower5.png","74","87","1","1","1","2","1,0,0,1,1,0,1,0,1","1,0,0,1,1,0,1,0,1","1",""
"","html-keyboard-response","296","161470","0.0-296.0","3CFVK00FWM7JPYSCPX6IWDRQJUBL6X","A2OWFJJ8YEKBF1","3I7KR83SNAZT1REYB2SRC49PCEEK9H","","null","<img src=""img/flower5.png"" style=""width:200px; border:14px solid green;"">","null","","","","","","","","",""
"","image-keyboard-response","297","161561","0.0-297.0","3CFVK00FWM7JPYSCPX6IWDRQJUBL6X","A2OWFJJ8YEKBF1","3I7KR83SNAZT1REYB2SRC49PCEEK9H","","88.89999997615814","img/flower3.png","74","90.60000002384186","1","1","2","2","1,0,0,1,1,0,1,0,1","1,0,0,1,1,0,1,0,1","1",""
"","html-keyboard-response","298","161865","0.0-298.0","3CFVK00FWM7JPYSCPX6IWDRQJUBL6X","A2OWFJJ8YEKBF1","3I7KR83SNAZT1REYB2SRC49PCEEK9H","","null","<img src=""img/flower3.png"" style=""width:200px; border:14px solid green;"">","null","","","","","","","","",""
"","image-keyboard-response","299","161942","0.0-299.0","3CFVK00FWM7JPYSCPX6IWDRQJUBL6X","A2OWFJJ8YEKBF1","3I7KR83SNAZT1REYB2SRC49PCEEK9H","","75.89999997615814","img/flower5.png","74","76.5","1","1","1","2","1,0,0,1,1,0,1,0,1","1,0,0,1,1,0,1,0,1","1",""
"","html-keyboard-response","300","162247","0.0-300.0","3CFVK00FWM7JPYSCPX6IWDRQJUBL6X","A2OWFJJ8YEKBF1","3I7KR83SNAZT1REYB2SRC49PCEEK9H","","null","<img src=""img/flower5.png"" style=""width:200px; border:14px solid green;"">","null","","","","","","","","",""
"","image-keyboard-response","301","162334","0.0-301.0","3CFVK00FWM7JPYSCPX6IWDRQJUBL6X","A2OWFJJ8YEKBF1","3I7KR83SNAZT1REYB2SRC49PCEEK9H","","85.09999990463257","img/flower6.png","74","86.59999990463257","1","1","3","2","1,0,0,1,1,0,1,0,1","1,0,0,1,1,0,1,0,1","1",""
"","html-keyboard-response","302","162636","0.0-302.0","3CFVK00FWM7JPYSCPX6IWDRQJUBL6X","A2OWFJJ8YEKBF1","3I7KR83SNAZT1REYB2SRC49PCEEK9H","","null","<img src=""img/flower6.png"" style=""width:200px; border:14px solid green;"">","null","","","","","","","","",""
"","image-keyboard-response","303","162759","0.0-303.0","3CFVK00FWM7JPYSCPX6IWDRQJUBL6X","A2OWFJJ8YEKBF1","3I7KR83SNAZT1REYB2SRC49PCEEK9H","","122.10000002384186","img/flower3.png","74","123","1","1","2","2","1,0,0,1,1,0,1,0,1","1,0,0,1,1,0,1,0,1","1",""
"","html-keyboard-response","304","163062","0.0-304.0","3CFVK00FWM7JPYSCPX6IWDRQJUBL6X","A2OWFJJ8YEKBF1","3I7KR83SNAZT1REYB2SRC49PCEEK9H","","null","<img src=""img/flower3.png"" style=""width:200px; border:14px solid green;"">","null","","","","","","","","",""
"","image-keyboard-response","305","163156","0.0-305.0","3CFVK00FWM7JPYSCPX6IWDRQJUBL6X","A2OWFJJ8YEKBF1","3I7KR83SNAZT1REYB2SRC49PCEEK9H","","92.29999995231628","img/flower3.png","74","93.29999995231628","1","1","2","2","1,0,0,1,1,0,1,0,1","1,0,0,1,1,0,1,0,1","1",""
"","html-keyboard-response","306","163461","0.0-306.0","3CFVK00FWM7JPYSCPX6IWDRQJUBL6X","A2OWFJJ8YEKBF1","3I7KR83SNAZT1REYB2SRC49PCEEK9H","","null","<img src=""img/flower3.png"" style=""width:200px; border:14px solid green;"">","null","","","","","","","","",""
"","image-keyboard-response","307","163536","0.0-307.0","3CFVK00FWM7JPYSCPX6IWDRQJUBL6X","A2OWFJJ8YEKBF1","3I7KR83SNAZT1REYB2SRC49PCEEK9H","","74.89999997615814","img/flower5.png","74","75.5","1","1","1","2","1,0,0,1,1,0,1,0,1","1,0,0,1,1,0,1,0,1","1",""
"","html-keyboard-response","308","163838","0.0-308.0","3CFVK00FWM7JPYSCPX6IWDRQJUBL6X","A2OWFJJ8YEKBF1","3I7KR83SNAZT1REYB2SRC49PCEEK9H","","null","<img src=""img/flower5.png"" style=""width:200px; border:14px solid green;"">","null","","","","","","","","",""
"","image-keyboard-response","309","163936","0.0-309.0","3CFVK00FWM7JPYSCPX6IWDRQJUBL6X","A2OWFJJ8YEKBF1","3I7KR83SNAZT1REYB2SRC49PCEEK9H","","95.39999997615814","img/flower3.png","74","97.10000002384186","1","1","2","2","1,0,0,1,1,0,1,0,1","1,0,0,1,1,0,1,0,1","1",""
"","html-keyboard-response","310","164239","0.0-310.0","3CFVK00FWM7JPYSCPX6IWDRQJUBL6X","A2OWFJJ8YEKBF1","3I7KR83SNAZT1REYB2SRC49PCEEK9H","","null","<img src=""img/flower3.png"" style=""width:200px; border:14px solid green;"">","null","","","","","","","","",""
"","image-keyboard-response","311","164334","0.0-311.0","3CFVK00FWM7JPYSCPX6IWDRQJUBL6X","A2OWFJJ8YEKBF1","3I7KR83SNAZT1REYB2SRC49PCEEK9H","","93.10000002384186","img/flower3.png","74","94.39999997615814","1","1","2","2","1,0,0,1,1,0,1,0,1","1,0,0,1,1,0,1,0,1","1",""
"","html-keyboard-response","312","164637","0.0-312.0","3CFVK00FWM7JPYSCPX6IWDRQJUBL6X","A2OWFJJ8YEKBF1","3I7KR83SNAZT1REYB2SRC49PCEEK9H","","null","<img src=""img/flower3.png"" style=""width:200px; border:14px solid green;"">","null","","","","","","","","",""
"","image-keyboard-response","313","164731","0.0-313.0","3CFVK00FWM7JPYSCPX6IWDRQJUBL6X","A2OWFJJ8YEKBF1","3I7KR83SNAZT1REYB2SRC49PCEEK9H","","92.10000002384186","img/flower3.png","74","93.5","1","1","2","2","1,0,0,1,1,0,1,0,1","1,0,0,1,1,0,1,0,1","1",""
"","html-keyboard-response","314","165035","0.0-314.0","3CFVK00FWM7JPYSCPX6IWDRQJUBL6X","A2OWFJJ8YEKBF1","3I7KR83SNAZT1REYB2SRC49PCEEK9H","","null","<img src=""img/flower3.png"" style=""width:200px; border:14px solid green;"">","null","","","","","","","","",""
"","image-keyboard-response","315","165125","0.0-315.0","3CFVK00FWM7JPYSCPX6IWDRQJUBL6X","A2OWFJJ8YEKBF1","3I7KR83SNAZT1REYB2SRC49PCEEK9H","","89.20000004768372","img/flower3.png","74","89.80000007152557","1","1","2","2","1,0,0,1,1,0,1,0,1","1,0,0,1,1,0,1,0,1","1",""
"","html-keyboard-response","316","165430","0.0-316.0","3CFVK00FWM7JPYSCPX6IWDRQJUBL6X","A2OWFJJ8YEKBF1","3I7KR83SNAZT1REYB2SRC49PCEEK9H","","null","<img src=""img/flower3.png"" style=""width:200px; border:14px solid green;"">","null","","","","","","","","",""
"","image-keyboard-response","317","165491","0.0-317.0","3CFVK00FWM7JPYSCPX6IWDRQJUBL6X","A2OWFJJ8YEKBF1","3I7KR83SNAZT1REYB2SRC49PCEEK9H","","58.300000071525574","img/flower5.png","74","60","1","1","1","2","1,0,0,1,1,0,1,0,1","1,0,0,1,1,0,1,0,1","1",""
"","html-keyboard-response","318","165795","0.0-318.0","3CFVK00FWM7JPYSCPX6IWDRQJUBL6X","A2OWFJJ8YEKBF1","3I7KR83SNAZT1REYB2SRC49PCEEK9H","","null","<img src=""img/flower5.png"" style=""width:200px; border:14px solid green;"">","null","","","","","","","","",""
"","image-keyboard-response","319","165977","0.0-319.0","3CFVK00FWM7JPYSCPX6IWDRQJUBL6X","A2OWFJJ8YEKBF1","3I7KR83SNAZT1REYB2SRC49PCEEK9H","","181.10000002384186","img/flower5.png","74","181.69999992847443","1","1","1","2","1,0,0,1,1,0,1,0,1","1,0,0,1,1,0,1,0,1","1",""
"","html-keyboard-response","320","166283","0.0-320.0","3CFVK00FWM7JPYSCPX6IWDRQJUBL6X","A2OWFJJ8YEKBF1","3I7KR83SNAZT1REYB2SRC49PCEEK9H","","null","<img src=""img/flower5.png"" style=""width:200px; border:14px solid green;"">","null","","","","","","","","",""
"","image-keyboard-response","321","166397","0.0-321.0","3CFVK00FWM7JPYSCPX6IWDRQJUBL6X","A2OWFJJ8YEKBF1","3I7KR83SNAZT1REYB2SRC49PCEEK9H","","111.69999992847443","img/flower5.png","74","113.30000007152557","1","1","1","2","1,0,0,1,1,0,1,0,1","1,0,0,1,1,0,1,0,1","1",""
"","html-keyboard-response","322","166700","0.0-322.0","3CFVK00FWM7JPYSCPX6IWDRQJUBL6X","A2OWFJJ8YEKBF1","3I7KR83SNAZT1REYB2SRC49PCEEK9H","","null","<img src=""img/flower5.png"" style=""width:200px; border:14px solid green;"">","null","","","","","","","","",""
"","image-keyboard-response","323","166785","0.0-323.0","3CFVK00FWM7JPYSCPX6IWDRQJUBL6X","A2OWFJJ8YEKBF1","3I7KR83SNAZT1REYB2SRC49PCEEK9H","","82.59999990463257","img/flower3.png","74","84.10000002384186","1","1","2","2","1,0,0,1,1,0,1,0,1","1,0,0,1,1,0,1,0,1","1",""
"","html-keyboard-response","324","167089","0.0-324.0","3CFVK00FWM7JPYSCPX6IWDRQJUBL6X","A2OWFJJ8YEKBF1","3I7KR83SNAZT1REYB2SRC49PCEEK9H","","null","<img src=""img/flower3.png"" style=""width:200px; border:14px solid green;"">","null","","","","","","","","",""
"","image-keyboard-response","325","167187","0.0-325.0","3CFVK00FWM7JPYSCPX6IWDRQJUBL6X","A2OWFJJ8YEKBF1","3I7KR83SNAZT1REYB2SRC49PCEEK9H","","96.69999992847443","img/flower3.png","74","97.59999990463257","1","1","2","2","1,0,0,1,1,0,1,0,1","1,0,0,1,1,0,1,0,1","1",""
"","html-keyboard-response","326","167490","0.0-326.0","3CFVK00FWM7JPYSCPX6IWDRQJUBL6X","A2OWFJJ8YEKBF1","3I7KR83SNAZT1REYB2SRC49PCEEK9H","","null","<img src=""img/flower3.png"" style=""width:200px; border:14px solid green;"">","null","","","","","","","","",""
"","image-keyboard-response","327","167587","0.0-327.0","3CFVK00FWM7JPYSCPX6IWDRQJUBL6X","A2OWFJJ8YEKBF1","3I7KR83SNAZT1REYB2SRC49PCEEK9H","","94.29999995231628","img/flower6.png","74","96","1","1","3","2","1,0,0,1,1,0,1,0,1","1,0,0,1,1,0,1,0,1","1",""
"","html-keyboard-response","328","167890","0.0-328.0","3CFVK00FWM7JPYSCPX6IWDRQJUBL6X","A2OWFJJ8YEKBF1","3I7KR83SNAZT1REYB2SRC49PCEEK9H","","null","<img src=""img/flower6.png"" style=""width:200px; border:14px solid green;"">","null","","","","","","","","",""
"","image-keyboard-response","329","168004","0.0-329.0","3CFVK00FWM7JPYSCPX6IWDRQJUBL6X","A2OWFJJ8YEKBF1","3I7KR83SNAZT1REYB2SRC49PCEEK9H","","112.39999997615814","img/flower5.png","74","113.29999995231628","1","1","1","2","1,0,0,1,1,0,1,0,1","1,0,0,1,1,0,1,0,1","1",""
"","html-keyboard-response","330","168308","0.0-330.0","3CFVK00FWM7JPYSCPX6IWDRQJUBL6X","A2OWFJJ8YEKBF1","3I7KR83SNAZT1REYB2SRC49PCEEK9H","","null","<img src=""img/flower5.png"" style=""width:200px; border:14px solid green;"">","null","","","","","","","","",""
"","image-keyboard-response","331","168403","0.0-331.0","3CFVK00FWM7JPYSCPX6IWDRQJUBL6X","A2OWFJJ8YEKBF1","3I7KR83SNAZT1REYB2SRC49PCEEK9H","","91.70000004768372","img/flower6.png","74","93.5","1","1","3","2","1,0,0,1,1,0,1,0,1","1,0,0,1,1,0,1,0,1","1",""
"","html-keyboard-response","332","168709","0.0-332.0","3CFVK00FWM7JPYSCPX6IWDRQJUBL6X","A2OWFJJ8YEKBF1","3I7KR83SNAZT1REYB2SRC49PCEEK9H","","null","<img src=""img/flower6.png"" style=""width:200px; border:14px solid green;"">","null","","","","","","","","",""
"","image-keyboard-response","333","168814","0.0-333.0","3CFVK00FWM7JPYSCPX6IWDRQJUBL6X","A2OWFJJ8YEKBF1","3I7KR83SNAZT1REYB2SRC49PCEEK9H","","103.5","img/flower5.png","74","104.69999992847443","1","1","1","2","1,0,0,1,1,0,1,0,1","1,0,0,1,1,0,1,0,1","1",""
"","html-keyboard-response","334","169118","0.0-334.0","3CFVK00FWM7JPYSCPX6IWDRQJUBL6X","A2OWFJJ8YEKBF1","3I7KR83SNAZT1REYB2SRC49PCEEK9H","","null","<img src=""img/flower5.png"" style=""width:200px; border:14px solid green;"">","null","","","","","","","","",""
"","image-keyboard-response","335","169225","0.0-335.0","3CFVK00FWM7JPYSCPX6IWDRQJUBL6X","A2OWFJJ8YEKBF1","3I7KR83SNAZT1REYB2SRC49PCEEK9H","","104.90000009536743","img/flower3.png","74","106.20000004768372","1","1","2","2","1,0,0,1,1,0,1,0,1","1,0,0,1,1,0,1,0,1","1",""
"","html-keyboard-response","336","169527","0.0-336.0","3CFVK00FWM7JPYSCPX6IWDRQJUBL6X","A2OWFJJ8YEKBF1","3I7KR83SNAZT1REYB2SRC49PCEEK9H","","null","<img src=""img/flower3.png"" style=""width:200px; border:14px solid green;"">","null","","","","","","","","",""
"","image-keyboard-response","337","169622","0.0-337.0","3CFVK00FWM7JPYSCPX6IWDRQJUBL6X","A2OWFJJ8YEKBF1","3I7KR83SNAZT1REYB2SRC49PCEEK9H","","93","img/flower6.png","74","94.60000002384186","1","1","3","2","1,0,0,1,1,0,1,0,1","1,0,0,1,1,0,1,0,1","1",""
"","html-keyboard-response","338","169926","0.0-338.0","3CFVK00FWM7JPYSCPX6IWDRQJUBL6X","A2OWFJJ8YEKBF1","3I7KR83SNAZT1REYB2SRC49PCEEK9H","","null","<img src=""img/flower6.png"" style=""width:200px; border:14px solid green;"">","null","","","","","","","","",""
"","image-keyboard-response","339","170007","0.0-339.0","3CFVK00FWM7JPYSCPX6IWDRQJUBL6X","A2OWFJJ8YEKBF1","3I7KR83SNAZT1REYB2SRC49PCEEK9H","","80.89999997615814","img/flower3.png","74","81.39999997615814","1","1","2","2","1,0,0,1,1,0,1,0,1","1,0,0,1,1,0,1,0,1","1",""
"","html-keyboard-response","340","170310","0.0-340.0","3CFVK00FWM7JPYSCPX6IWDRQJUBL6X","A2OWFJJ8YEKBF1","3I7KR83SNAZT1REYB2SRC49PCEEK9H","","null","<img src=""img/flower3.png"" style=""width:200px; border:14px solid green;"">","null","","","","","","","","",""
"","image-keyboard-response","341","170416","0.0-341.0","3CFVK00FWM7JPYSCPX6IWDRQJUBL6X","A2OWFJJ8YEKBF1","3I7KR83SNAZT1REYB2SRC49PCEEK9H","","104.10000002384186","img/flower3.png","74","105.40000009536743","1","1","2","2","1,0,0,1,1,0,1,0,1","1,0,0,1,1,0,1,0,1","1",""
"","html-keyboard-response","342","170724","0.0-342.0","3CFVK00FWM7JPYSCPX6IWDRQJUBL6X","A2OWFJJ8YEKBF1","3I7KR83SNAZT1REYB2SRC49PCEEK9H","","null","<img src=""img/flower3.png"" style=""width:200px; border:14px solid green;"">","null","","","","","","","","",""
"","image-keyboard-response","343","170792","0.0-343.0","3CFVK00FWM7JPYSCPX6IWDRQJUBL6X","A2OWFJJ8YEKBF1","3I7KR83SNAZT1REYB2SRC49PCEEK9H","","65.5","img/flower5.png","74","67.20000004768372","1","1","1","2","1,0,0,1,1,0,1,0,1","1,0,0,1,1,0,1,0,1","1",""
"","html-keyboard-response","344","171094","0.0-344.0","3CFVK00FWM7JPYSCPX6IWDRQJUBL6X","A2OWFJJ8YEKBF1","3I7KR83SNAZT1REYB2SRC49PCEEK9H","","null","<img src=""img/flower5.png"" style=""width:200px; border:14px solid green;"">","null","","","","","","","","",""
"","image-keyboard-response","345","171162","0.0-345.0","3CFVK00FWM7JPYSCPX6IWDRQJUBL6X","A2OWFJJ8YEKBF1","3I7KR83SNAZT1REYB2SRC49PCEEK9H","","66.10000002384186","img/flower5.png","74","66.89999997615814","1","1","1","2","1,0,0,1,1,0,1,0,1","1,0,0,1,1,0,1,0,1","1",""
"","html-keyboard-response","346","171465","0.0-346.0","3CFVK00FWM7JPYSCPX6IWDRQJUBL6X","A2OWFJJ8YEKBF1","3I7KR83SNAZT1REYB2SRC49PCEEK9H","","null","<img src=""img/flower5.png"" style=""width:200px; border:14px solid green;"">","null","","","","","","","","",""
"","image-keyboard-response","347","171556","0.0-347.0","3CFVK00FWM7JPYSCPX6IWDRQJUBL6X","A2OWFJJ8YEKBF1","3I7KR83SNAZT1REYB2SRC49PCEEK9H","","90.30000007152557","img/flower5.png","74","91.29999995231628","1","1","1","2","1,0,0,1,1,0,1,0,1","1,0,0,1,1,0,1,0,1","1",""
"","html-keyboard-response","348","171860","0.0-348.0","3CFVK00FWM7JPYSCPX6IWDRQJUBL6X","A2OWFJJ8YEKBF1","3I7KR83SNAZT1REYB2SRC49PCEEK9H","","null","<img src=""img/flower5.png"" style=""width:200px; border:14px solid green;"">","null","","","","","","","","",""
"","image-keyboard-response","349","171967","0.0-349.0","3CFVK00FWM7JPYSCPX6IWDRQJUBL6X","A2OWFJJ8YEKBF1","3I7KR83SNAZT1REYB2SRC49PCEEK9H","","106.30000007152557","img/flower6.png","74","106.79999995231628","1","1","3","2","1,0,0,1,1,0,1,0,1","1,0,0,1,1,0,1,0,1","1",""
"","html-keyboard-response","350","172270","0.0-350.0","3CFVK00FWM7JPYSCPX6IWDRQJUBL6X","A2OWFJJ8YEKBF1","3I7KR83SNAZT1REYB2SRC49PCEEK9H","","null","<img src=""img/flower6.png"" style=""width:200px; border:14px solid green;"">","null","","","","","","","","",""
"","image-keyboard-response","351","172386","0.0-351.0","3CFVK00FWM7JPYSCPX6IWDRQJUBL6X","A2OWFJJ8YEKBF1","3I7KR83SNAZT1REYB2SRC49PCEEK9H","","114.19999992847443","img/flower6.png","74","116.89999997615814","1","1","3","2","1,0,0,1,1,0,1,0,1","1,0,0,1,1,0,1,0,1","1",""
"","html-keyboard-response","352","172691","0.0-352.0","3CFVK00FWM7JPYSCPX6IWDRQJUBL6X","A2OWFJJ8YEKBF1","3I7KR83SNAZT1REYB2SRC49PCEEK9H","","null","<img src=""img/flower6.png"" style=""width:200px; border:14px solid green;"">","null","","","","","","","","",""
"","image-keyboard-response","353","172797","0.0-353.0","3CFVK00FWM7JPYSCPX6IWDRQJUBL6X","A2OWFJJ8YEKBF1","3I7KR83SNAZT1REYB2SRC49PCEEK9H","","105","img/flower6.png","74","105.60000002384186","1","1","3","2","1,0,0,1,1,0,1,0,1","1,0,0,1,1,0,1,0,1","1",""
"","html-keyboard-response","354","173103","0.0-354.0","3CFVK00FWM7JPYSCPX6IWDRQJUBL6X","A2OWFJJ8YEKBF1","3I7KR83SNAZT1REYB2SRC49PCEEK9H","","null","<img src=""img/flower6.png"" style=""width:200px; border:14px solid green;"">","null","","","","","","","","",""
"","image-keyboard-response","355","173186","0.0-355.0","3CFVK00FWM7JPYSCPX6IWDRQJUBL6X","A2OWFJJ8YEKBF1","3I7KR83SNAZT1REYB2SRC49PCEEK9H","","80.5","img/flower6.png","74","82.10000002384186","1","1","3","2","1,0,0,1,1,0,1,0,1","1,0,0,1,1,0,1,0,1","1",""
"","html-keyboard-response","356","173488","0.0-356.0","3CFVK00FWM7JPYSCPX6IWDRQJUBL6X","A2OWFJJ8YEKBF1","3I7KR83SNAZT1REYB2SRC49PCEEK9H","","null","<img src=""img/flower6.png"" style=""width:200px; border:14px solid green;"">","null","","","","","","","","",""
"","image-keyboard-response","357","173607","0.0-357.0","3CFVK00FWM7JPYSCPX6IWDRQJUBL6X","A2OWFJJ8YEKBF1","3I7KR83SNAZT1REYB2SRC49PCEEK9H","","117.89999997615814","img/flower6.png","74","118.69999992847443","1","1","3","2","1,0,0,1,1,0,1,0,1","1,0,0,1,1,0,1,0,1","1",""
"","html-keyboard-response","358","173910","0.0-358.0","3CFVK00FWM7JPYSCPX6IWDRQJUBL6X","A2OWFJJ8YEKBF1","3I7KR83SNAZT1REYB2SRC49PCEEK9H","","null","<img src=""img/flower6.png"" style=""width:200px; border:14px solid green;"">","null","","","","","","","","",""
"","image-keyboard-response","359","174003","0.0-359.0","3CFVK00FWM7JPYSCPX6IWDRQJUBL6X","A2OWFJJ8YEKBF1","3I7KR83SNAZT1REYB2SRC49PCEEK9H","","91.79999995231628","img/flower6.png","74","92.60000002384186","1","1","3","2","1,0,0,1,1,0,1,0,1","1,0,0,1,1,0,1,0,1","1",""
"","html-keyboard-response","360","174305","0.0-360.0","3CFVK00FWM7JPYSCPX6IWDRQJUBL6X","A2OWFJJ8YEKBF1","3I7KR83SNAZT1REYB2SRC49PCEEK9H","","null","<img src=""img/flower6.png"" style=""width:200px; border:14px solid green;"">","null","","","","","","","","",""
"","image-keyboard-response","361","174449","0.0-361.0","3CFVK00FWM7JPYSCPX6IWDRQJUBL6X","A2OWFJJ8YEKBF1","3I7KR83SNAZT1REYB2SRC49PCEEK9H","","141.70000004768372","img/flower5.png","74","143","1","1","1","2","1,0,0,1,1,0,1,0,1","1,0,0,1,1,0,1,0,1","1",""
"","html-keyboard-response","362","174752","0.0-362.0","3CFVK00FWM7JPYSCPX6IWDRQJUBL6X","A2OWFJJ8YEKBF1","3I7KR83SNAZT1REYB2SRC49PCEEK9H","","null","<img src=""img/flower5.png"" style=""width:200px; border:14px solid green;"">","null","","","","","","","","",""
"","instructions","363","178043","0.0-363.0","3CFVK00FWM7JPYSCPX6IWDRQJUBL6X","A2OWFJJ8YEKBF1","3I7KR83SNAZT1REYB2SRC49PCEEK9H","[{""page_index"":0,""viewing_time"":3288.7999999523163}]","3289.0999999046326","","","","","","","","","","",""
