"success","trial_type","trial_index","time_elapsed","internal_node_id","assignmentID","mturkID","hitID","view_history","rt","stimulus","key_press","reactionTime","a","r","s","cond","reward_cond","reward_cond_actual","reward_matrix_idx","responses"
"true","fullscreen","0","12976","0.0-0.0","37Z929RLGAUCV9YE5JBCJ9XZVYMTSQ","A2OYOBFEQBWPAJ","3UUIU9GZC5R93N292LT21FRJ9VS5TN","","","","","","","","","","","","",""
"","instructions","1","38130","0.0-1.0","37Z929RLGAUCV9YE5JBCJ9XZVYMTSQ","A2OYOBFEQBWPAJ","3UUIU9GZC5R93N292LT21FRJ9VS5TN","[{""page_index"":0,""viewing_time"":5447.699999988079},{""page_index"":1,""viewing_time"":6840.0999999940395},{""page_index"":2,""viewing_time"":1326.0999999940395},{""page_index"":3,""viewing_time"":1995.5},{""page_index"":4,""viewing_time"":2522.4000000059605},{""page_index"":5,""viewing_time"":2645.7000000178814},{""page_index"":6,""viewing_time"":2190.399999976158},{""page_index"":7,""viewing_time"":2181.600000023842}]","25150.5","","","","","","","","","","",""
"","image-keyboard-response","2","39068","0.0-2.0","37Z929RLGAUCV9YE5JBCJ9XZVYMTSQ","A2OYOBFEQBWPAJ","3UUIU9GZC5R93N292LT21FRJ9VS5TN","","936","img/flower2.png","74","938.4000000059605","1","0","3","2","1,0,0,1,1,0,1,0,1","0,0,1,1,0,1,0,1,1","2",""
"","html-keyboard-response","3","39376","0.0-3.0","37Z929RLGAUCV9YE5JBCJ9XZVYMTSQ","A2OYOBFEQBWPAJ","3UUIU9GZC5R93N292LT21FRJ9VS5TN","","null","<img src=""img/flower2.png"" style=""width:200px;border:14px solid red;"">","null","","","","","","","","",""
"","image-keyboard-response","4","40369","0.0-4.0","37Z929RLGAUCV9YE5JBCJ9XZVYMTSQ","A2OYOBFEQBWPAJ","3UUIU9GZC5R93N292LT21FRJ9VS5TN","","990.9000000059605","img/flower4.png","75","993.9000000059605","2","0","1","2","1,0,0,1,1,0,1,0,1","0,0,1,1,0,1,0,1,1","2",""
"","html-keyboard-response","5","40680","0.0-5.0","37Z929RLGAUCV9YE5JBCJ9XZVYMTSQ","A2OYOBFEQBWPAJ","3UUIU9GZC5R93N292LT21FRJ9VS5TN","","null","<img src=""img/flower4.png"" style=""width:200px;border:14px solid red;"">","null","","","","","","","","",""
"","image-keyboard-response","6","41226","0.0-6.0","37Z929RLGAUCV9YE5JBCJ9XZVYMTSQ","A2OYOBFEQBWPAJ","3UUIU9GZC5R93N292LT21FRJ9VS5TN","","544.4000000059605","img/flower4.png","76","546.1000000238419","3","1","1","2","1,0,0,1,1,0,1,0,1","0,0,1,1,0,1,0,1,1","2",""
"","html-keyboard-response","7","41536","0.0-7.0","37Z929RLGAUCV9YE5JBCJ9XZVYMTSQ","A2OYOBFEQBWPAJ","3UUIU9GZC5R93N292LT21FRJ9VS5TN","","null","<img src=""img/flower4.png"" style=""width:200px; border:14px solid green;"">","null","","","","","","","","",""
"","image-keyboard-response","8","42368","0.0-8.0","37Z929RLGAUCV9YE5JBCJ9XZVYMTSQ","A2OYOBFEQBWPAJ","3UUIU9GZC5R93N292LT21FRJ9VS5TN","","829.8999999761581","img/flower2.png","76","831.6999999880791","3","1","3","2","1,0,0,1,1,0,1,0,1","0,0,1,1,0,1,0,1,1","2",""
"","html-keyboard-response","9","42673","0.0-9.0","37Z929RLGAUCV9YE5JBCJ9XZVYMTSQ","A2OYOBFEQBWPAJ","3UUIU9GZC5R93N292LT21FRJ9VS5TN","","null","<img src=""img/flower2.png"" style=""width:200px; border:14px solid green;"">","null","","","","","","","","",""
"","image-keyboard-response","10","43177","0.0-10.0","37Z929RLGAUCV9YE5JBCJ9XZVYMTSQ","A2OYOBFEQBWPAJ","3UUIU9GZC5R93N292LT21FRJ9VS5TN","","502.09999999403954","img/flower4.png","76","504","3","1","1","2","1,0,0,1,1,0,1,0,1","0,0,1,1,0,1,0,1,1","2",""
"","html-keyboard-response","11","43480","0.0-11.0","37Z929RLGAUCV9YE5JBCJ9XZVYMTSQ","A2OYOBFEQBWPAJ","3UUIU9GZC5R93N292LT21FRJ9VS5TN","","null","<img src=""img/flower4.png"" style=""width:200px; border:14px solid green;"">","null","","","","","","","","",""
"","image-keyboard-response","12","44090","0.0-12.0","37Z929RLGAUCV9YE5JBCJ9XZVYMTSQ","A2OYOBFEQBWPAJ","3UUIU9GZC5R93N292LT21FRJ9VS5TN","","608.6999999880791","img/flower5.png","76","610.6000000238419","3","1","2","2","1,0,0,1,1,0,1,0,1","0,0,1,1,0,1,0,1,1","2",""
"","html-keyboard-response","13","44400","0.0-13.0","37Z929RLGAUCV9YE5JBCJ9XZVYMTSQ","A2OYOBFEQBWPAJ","3UUIU9GZC5R93N292LT21FRJ9VS5TN","","null","<img src=""img/flower5.png"" style=""width:200px; border:14px solid green;"">","null","","","","","","","","",""
"","image-keyboard-response","14","44737","0.0-14.0","37Z929RLGAUCV9YE5JBCJ9XZVYMTSQ","A2OYOBFEQBWPAJ","3UUIU9GZC5R93N292LT21FRJ9VS5TN","","335.09999999403954","img/flower2.png","76","336.7000000178814","3","1","3","2","1,0,0,1,1,0,1,0,1","0,0,1,1,0,1,0,1,1","2",""
"","html-keyboard-response","15","45040","0.0-15.0","37Z929RLGAUCV9YE5JBCJ9XZVYMTSQ","A2OYOBFEQBWPAJ","3UUIU9GZC5R93N292LT21FRJ9VS5TN","","null","<img src=""img/flower2.png"" style=""width:200px; border:14px solid green;"">","null","","","","","","","","",""
"","image-keyboard-response","16","45179","0.0-16.0","37Z929RLGAUCV9YE5JBCJ9XZVYMTSQ","A2OYOBFEQBWPAJ","3UUIU9GZC5R93N292LT21FRJ9VS5TN","","137.5","img/flower2.png","76","138.90000000596046","3","1","3","2","1,0,0,1,1,0,1,0,1","0,0,1,1,0,1,0,1,1","2",""
"","html-keyboard-response","17","45488","0.0-17.0","37Z929RLGAUCV9YE5JBCJ9XZVYMTSQ","A2OYOBFEQBWPAJ","3UUIU9GZC5R93N292LT21FRJ9VS5TN","","null","<img src=""img/flower2.png"" style=""width:200px; border:14px solid green;"">","null","","","","","","","","",""
"","image-keyboard-response","18","45502","0.0-18.0","37Z929RLGAUCV9YE5JBCJ9XZVYMTSQ","A2OYOBFEQBWPAJ","3UUIU9GZC5R93N292LT21FRJ9VS5TN","","13.300000011920929","img/flower4.png","76","14.5","3","1","1","2","1,0,0,1,1,0,1,0,1","0,0,1,1,0,1,0,1,1","2",""
"","html-keyboard-response","19","45808","0.0-19.0","37Z929RLGAUCV9YE5JBCJ9XZVYMTSQ","A2OYOBFEQBWPAJ","3UUIU9GZC5R93N292LT21FRJ9VS5TN","","null","<img src=""img/flower4.png"" style=""width:200px; border:14px solid green;"">","null","","","","","","","","",""
"","image-keyboard-response","20","45916","0.0-20.0","37Z929RLGAUCV9YE5JBCJ9XZVYMTSQ","A2OYOBFEQBWPAJ","3UUIU9GZC5R93N292LT21FRJ9VS5TN","","105.90000000596046","img/flower2.png","76","107.69999998807907","3","1","3","2","1,0,0,1,1,0,1,0,1","0,0,1,1,0,1,0,1,1","2",""
"","html-keyboard-response","21","46224","0.0-21.0","37Z929RLGAUCV9YE5JBCJ9XZVYMTSQ","A2OYOBFEQBWPAJ","3UUIU9GZC5R93N292LT21FRJ9VS5TN","","null","<img src=""img/flower2.png"" style=""width:200px; border:14px solid green;"">","null","","","","","","","","",""
"","image-keyboard-response","22","46290","0.0-22.0","37Z929RLGAUCV9YE5JBCJ9XZVYMTSQ","A2OYOBFEQBWPAJ","3UUIU9GZC5R93N292LT21FRJ9VS5TN","","63.900000005960464","img/flower2.png","76","65.2000000178814","3","1","3","2","1,0,0,1,1,0,1,0,1","0,0,1,1,0,1,0,1,1","2",""
"","html-keyboard-response","23","46592","0.0-23.0","37Z929RLGAUCV9YE5JBCJ9XZVYMTSQ","A2OYOBFEQBWPAJ","3UUIU9GZC5R93N292LT21FRJ9VS5TN","","null","<img src=""img/flower2.png"" style=""width:200px; border:14px solid green;"">","null","","","","","","","","",""
"","image-keyboard-response","24","46680","0.0-24.0","37Z929RLGAUCV9YE5JBCJ9XZVYMTSQ","A2OYOBFEQBWPAJ","3UUIU9GZC5R93N292LT21FRJ9VS5TN","","86.7000000178814","img/flower4.png","76","88.30000001192093","3","1","1","2","1,0,0,1,1,0,1,0,1","0,0,1,1,0,1,0,1,1","2",""
"","html-keyboard-response","25","46984","0.0-25.0","37Z929RLGAUCV9YE5JBCJ9XZVYMTSQ","A2OYOBFEQBWPAJ","3UUIU9GZC5R93N292LT21FRJ9VS5TN","","null","<img src=""img/flower4.png"" style=""width:200px; border:14px solid green;"">","null","","","","","","","","",""
"","image-keyboard-response","26","47106","0.0-26.0","37Z929RLGAUCV9YE5JBCJ9XZVYMTSQ","A2OYOBFEQBWPAJ","3UUIU9GZC5R93N292LT21FRJ9VS5TN","","120.40000000596046","img/flower5.png","76","121.69999998807907","3","1","2","2","1,0,0,1,1,0,1,0,1","0,0,1,1,0,1,0,1,1","2",""
"","html-keyboard-response","27","47408","0.0-27.0","37Z929RLGAUCV9YE5JBCJ9XZVYMTSQ","A2OYOBFEQBWPAJ","3UUIU9GZC5R93N292LT21FRJ9VS5TN","","null","<img src=""img/flower5.png"" style=""width:200px; border:14px solid green;"">","null","","","","","","","","",""
"","image-keyboard-response","28","47465","0.0-28.0","37Z929RLGAUCV9YE5JBCJ9XZVYMTSQ","A2OYOBFEQBWPAJ","3UUIU9GZC5R93N292LT21FRJ9VS5TN","","55","img/flower5.png","76","56.69999998807907","3","1","2","2","1,0,0,1,1,0,1,0,1","0,0,1,1,0,1,0,1,1","2",""
"","html-keyboard-response","29","47768","0.0-29.0","37Z929RLGAUCV9YE5JBCJ9XZVYMTSQ","A2OYOBFEQBWPAJ","3UUIU9GZC5R93N292LT21FRJ9VS5TN","","null","<img src=""img/flower5.png"" style=""width:200px; border:14px solid green;"">","null","","","","","","","","",""
"","image-keyboard-response","30","47833","0.0-30.0","37Z929RLGAUCV9YE5JBCJ9XZVYMTSQ","A2OYOBFEQBWPAJ","3UUIU9GZC5R93N292LT21FRJ9VS5TN","","63.400000005960464","img/flower2.png","76","64.90000000596046","3","1","3","2","1,0,0,1,1,0,1,0,1","0,0,1,1,0,1,0,1,1","2",""
"","html-keyboard-response","31","48137","0.0-31.0","37Z929RLGAUCV9YE5JBCJ9XZVYMTSQ","A2OYOBFEQBWPAJ","3UUIU9GZC5R93N292LT21FRJ9VS5TN","","null","<img src=""img/flower2.png"" style=""width:200px; border:14px solid green;"">","null","","","","","","","","",""
"","image-keyboard-response","32","48242","0.0-32.0","37Z929RLGAUCV9YE5JBCJ9XZVYMTSQ","A2OYOBFEQBWPAJ","3UUIU9GZC5R93N292LT21FRJ9VS5TN","","103.09999999403954","img/flower4.png","76","104.5","3","1","1","2","1,0,0,1,1,0,1,0,1","0,0,1,1,0,1,0,1,1","2",""
"","html-keyboard-response","33","48544","0.0-33.0","37Z929RLGAUCV9YE5JBCJ9XZVYMTSQ","A2OYOBFEQBWPAJ","3UUIU9GZC5R93N292LT21FRJ9VS5TN","","null","<img src=""img/flower4.png"" style=""width:200px; border:14px solid green;"">","null","","","","","","","","",""
"","image-keyboard-response","34","48639","0.0-34.0","37Z929RLGAUCV9YE5JBCJ9XZVYMTSQ","A2OYOBFEQBWPAJ","3UUIU9GZC5R93N292LT21FRJ9VS5TN","","93.7999999821186","img/flower2.png","76","95.39999997615814","3","1","3","2","1,0,0,1,1,0,1,0,1","0,0,1,1,0,1,0,1,1","2",""
"","html-keyboard-response","35","48944","0.0-35.0","37Z929RLGAUCV9YE5JBCJ9XZVYMTSQ","A2OYOBFEQBWPAJ","3UUIU9GZC5R93N292LT21FRJ9VS5TN","","null","<img src=""img/flower2.png"" style=""width:200px; border:14px solid green;"">","null","","","","","","","","",""
"","image-keyboard-response","36","49067","0.0-36.0","37Z929RLGAUCV9YE5JBCJ9XZVYMTSQ","A2OYOBFEQBWPAJ","3UUIU9GZC5R93N292LT21FRJ9VS5TN","","121.40000000596046","img/flower4.png","76","122.7999999821186","3","1","1","2","1,0,0,1,1,0,1,0,1","0,0,1,1,0,1,0,1,1","2",""
"","html-keyboard-response","37","49376","0.0-37.0","37Z929RLGAUCV9YE5JBCJ9XZVYMTSQ","A2OYOBFEQBWPAJ","3UUIU9GZC5R93N292LT21FRJ9VS5TN","","null","<img src=""img/flower4.png"" style=""width:200px; border:14px solid green;"">","null","","","","","","","","",""
"","image-keyboard-response","38","49430","0.0-38.0","37Z929RLGAUCV9YE5JBCJ9XZVYMTSQ","A2OYOBFEQBWPAJ","3UUIU9GZC5R93N292LT21FRJ9VS5TN","","50.900000005960464","img/flower2.png","76","52.30000001192093","3","1","3","2","1,0,0,1,1,0,1,0,1","0,0,1,1,0,1,0,1,1","2",""
"","html-keyboard-response","39","49755","0.0-39.0","37Z929RLGAUCV9YE5JBCJ9XZVYMTSQ","A2OYOBFEQBWPAJ","3UUIU9GZC5R93N292LT21FRJ9VS5TN","","null","<img src=""img/flower2.png"" style=""width:200px; border:14px solid green;"">","null","","","","","","","","",""
"","image-keyboard-response","40","49809","0.0-40.0","37Z929RLGAUCV9YE5JBCJ9XZVYMTSQ","A2OYOBFEQBWPAJ","3UUIU9GZC5R93N292LT21FRJ9VS5TN","","51.89999997615814","img/flower5.png","76","53.19999998807907","3","1","2","2","1,0,0,1,1,0,1,0,1","0,0,1,1,0,1,0,1,1","2",""
"","html-keyboard-response","41","50112","0.0-41.0","37Z929RLGAUCV9YE5JBCJ9XZVYMTSQ","A2OYOBFEQBWPAJ","3UUIU9GZC5R93N292LT21FRJ9VS5TN","","null","<img src=""img/flower5.png"" style=""width:200px; border:14px solid green;"">","null","","","","","","","","",""
"","image-keyboard-response","42","50204","0.0-42.0","37Z929RLGAUCV9YE5JBCJ9XZVYMTSQ","A2OYOBFEQBWPAJ","3UUIU9GZC5R93N292LT21FRJ9VS5TN","","90.80000001192093","img/flower5.png","76","92.2000000178814","3","1","2","2","1,0,0,1,1,0,1,0,1","0,0,1,1,0,1,0,1,1","2",""
"","html-keyboard-response","43","50512","0.0-43.0","37Z929RLGAUCV9YE5JBCJ9XZVYMTSQ","A2OYOBFEQBWPAJ","3UUIU9GZC5R93N292LT21FRJ9VS5TN","","null","<img src=""img/flower5.png"" style=""width:200px; border:14px solid green;"">","null","","","","","","","","",""
"","image-keyboard-response","44","50605","0.0-44.0","37Z929RLGAUCV9YE5JBCJ9XZVYMTSQ","A2OYOBFEQBWPAJ","3UUIU9GZC5R93N292LT21FRJ9VS5TN","","91.30000001192093","img/flower4.png","76","92.69999998807907","3","1","1","2","1,0,0,1,1,0,1,0,1","0,0,1,1,0,1,0,1,1","2",""
"","html-keyboard-response","45","50912","0.0-45.0","37Z929RLGAUCV9YE5JBCJ9XZVYMTSQ","A2OYOBFEQBWPAJ","3UUIU9GZC5R93N292LT21FRJ9VS5TN","","null","<img src=""img/flower4.png"" style=""width:200px; border:14px solid green;"">","null","","","","","","","","",""
"","image-keyboard-response","46","51002","0.0-46.0","37Z929RLGAUCV9YE5JBCJ9XZVYMTSQ","A2OYOBFEQBWPAJ","3UUIU9GZC5R93N292LT21FRJ9VS5TN","","88","img/flower4.png","76","89.59999999403954","3","1","1","2","1,0,0,1,1,0,1,0,1","0,0,1,1,0,1,0,1,1","2",""
"","html-keyboard-response","47","51304","0.0-47.0","37Z929RLGAUCV9YE5JBCJ9XZVYMTSQ","A2OYOBFEQBWPAJ","3UUIU9GZC5R93N292LT21FRJ9VS5TN","","null","<img src=""img/flower4.png"" style=""width:200px; border:14px solid green;"">","null","","","","","","","","",""
"","image-keyboard-response","48","51392","0.0-48.0","37Z929RLGAUCV9YE5JBCJ9XZVYMTSQ","A2OYOBFEQBWPAJ","3UUIU9GZC5R93N292LT21FRJ9VS5TN","","87.2000000178814","img/flower2.png","76","88.60000002384186","3","1","3","2","1,0,0,1,1,0,1,0,1","0,0,1,1,0,1,0,1,1","2",""
"","html-keyboard-response","49","51696","0.0-49.0","37Z929RLGAUCV9YE5JBCJ9XZVYMTSQ","A2OYOBFEQBWPAJ","3UUIU9GZC5R93N292LT21FRJ9VS5TN","","null","<img src=""img/flower2.png"" style=""width:200px; border:14px solid green;"">","null","","","","","","","","",""
"","image-keyboard-response","50","51790","0.0-50.0","37Z929RLGAUCV9YE5JBCJ9XZVYMTSQ","A2OYOBFEQBWPAJ","3UUIU9GZC5R93N292LT21FRJ9VS5TN","","91.59999999403954","img/flower5.png","76","93.10000002384186","3","1","2","2","1,0,0,1,1,0,1,0,1","0,0,1,1,0,1,0,1,1","2",""
"","html-keyboard-response","51","52096","0.0-51.0","37Z929RLGAUCV9YE5JBCJ9XZVYMTSQ","A2OYOBFEQBWPAJ","3UUIU9GZC5R93N292LT21FRJ9VS5TN","","null","<img src=""img/flower5.png"" style=""width:200px; border:14px solid green;"">","null","","","","","","","","",""
"","image-keyboard-response","52","52186","0.0-52.0","37Z929RLGAUCV9YE5JBCJ9XZVYMTSQ","A2OYOBFEQBWPAJ","3UUIU9GZC5R93N292LT21FRJ9VS5TN","","88.19999998807907","img/flower5.png","76","89.69999998807907","3","1","2","2","1,0,0,1,1,0,1,0,1","0,0,1,1,0,1,0,1,1","2",""
"","html-keyboard-response","53","52496","0.0-53.0","37Z929RLGAUCV9YE5JBCJ9XZVYMTSQ","A2OYOBFEQBWPAJ","3UUIU9GZC5R93N292LT21FRJ9VS5TN","","null","<img src=""img/flower5.png"" style=""width:200px; border:14px solid green;"">","null","","","","","","","","",""
"","image-keyboard-response","54","52571","0.0-54.0","37Z929RLGAUCV9YE5JBCJ9XZVYMTSQ","A2OYOBFEQBWPAJ","3UUIU9GZC5R93N292LT21FRJ9VS5TN","","73.5","img/flower4.png","76","74.90000000596046","3","1","1","2","1,0,0,1,1,0,1,0,1","0,0,1,1,0,1,0,1,1","2",""
"","html-keyboard-response","55","52877","0.0-55.0","37Z929RLGAUCV9YE5JBCJ9XZVYMTSQ","A2OYOBFEQBWPAJ","3UUIU9GZC5R93N292LT21FRJ9VS5TN","","null","<img src=""img/flower4.png"" style=""width:200px; border:14px solid green;"">","null","","","","","","","","",""
"","image-keyboard-response","56","52990","0.0-56.0","37Z929RLGAUCV9YE5JBCJ9XZVYMTSQ","A2OYOBFEQBWPAJ","3UUIU9GZC5R93N292LT21FRJ9VS5TN","","111.90000000596046","img/flower4.png","76","113.09999999403954","3","1","1","2","1,0,0,1,1,0,1,0,1","0,0,1,1,0,1,0,1,1","2",""
"","html-keyboard-response","57","53296","0.0-57.0","37Z929RLGAUCV9YE5JBCJ9XZVYMTSQ","A2OYOBFEQBWPAJ","3UUIU9GZC5R93N292LT21FRJ9VS5TN","","null","<img src=""img/flower4.png"" style=""width:200px; border:14px solid green;"">","null","","","","","","","","",""
"","image-keyboard-response","58","53394","0.0-58.0","37Z929RLGAUCV9YE5JBCJ9XZVYMTSQ","A2OYOBFEQBWPAJ","3UUIU9GZC5R93N292LT21FRJ9VS5TN","","96.2999999821186","img/flower2.png","76","97.7999999821186","3","1","3","2","1,0,0,1,1,0,1,0,1","0,0,1,1,0,1,0,1,1","2",""
"","html-keyboard-response","59","53696","0.0-59.0","37Z929RLGAUCV9YE5JBCJ9XZVYMTSQ","A2OYOBFEQBWPAJ","3UUIU9GZC5R93N292LT21FRJ9VS5TN","","null","<img src=""img/flower2.png"" style=""width:200px; border:14px solid green;"">","null","","","","","","","","",""
"","image-keyboard-response","60","53847","0.0-60.0","37Z929RLGAUCV9YE5JBCJ9XZVYMTSQ","A2OYOBFEQBWPAJ","3UUIU9GZC5R93N292LT21FRJ9VS5TN","","149.90000000596046","img/flower2.png","76","151.2999999821186","3","1","3","2","1,0,0,1,1,0,1,0,1","0,0,1,1,0,1,0,1,1","2",""
"","html-keyboard-response","61","54152","0.0-61.0","37Z929RLGAUCV9YE5JBCJ9XZVYMTSQ","A2OYOBFEQBWPAJ","3UUIU9GZC5R93N292LT21FRJ9VS5TN","","null","<img src=""img/flower2.png"" style=""width:200px; border:14px solid green;"">","null","","","","","","","","",""
"","image-keyboard-response","62","54202","0.0-62.0","37Z929RLGAUCV9YE5JBCJ9XZVYMTSQ","A2OYOBFEQBWPAJ","3UUIU9GZC5R93N292LT21FRJ9VS5TN","","48.099999994039536","img/flower4.png","76","49.5","3","1","1","2","1,0,0,1,1,0,1,0,1","0,0,1,1,0,1,0,1,1","2",""
"","html-keyboard-response","63","54504","0.0-63.0","37Z929RLGAUCV9YE5JBCJ9XZVYMTSQ","A2OYOBFEQBWPAJ","3UUIU9GZC5R93N292LT21FRJ9VS5TN","","null","<img src=""img/flower4.png"" style=""width:200px; border:14px solid green;"">","null","","","","","","","","",""
"","image-keyboard-response","64","54616","0.0-64.0","37Z929RLGAUCV9YE5JBCJ9XZVYMTSQ","A2OYOBFEQBWPAJ","3UUIU9GZC5R93N292LT21FRJ9VS5TN","","110.2999999821186","img/flower4.png","76","121.5","3","1","1","2","1,0,0,1,1,0,1,0,1","0,0,1,1,0,1,0,1,1","2",""
"","html-keyboard-response","65","54936","0.0-65.0","37Z929RLGAUCV9YE5JBCJ9XZVYMTSQ","A2OYOBFEQBWPAJ","3UUIU9GZC5R93N292LT21FRJ9VS5TN","","null","<img src=""img/flower4.png"" style=""width:200px; border:14px solid green;"">","null","","","","","","","","",""
"","image-keyboard-response","66","55000","0.0-66.0","37Z929RLGAUCV9YE5JBCJ9XZVYMTSQ","A2OYOBFEQBWPAJ","3UUIU9GZC5R93N292LT21FRJ9VS5TN","","62.79999998211861","img/flower4.png","76","64.40000000596046","3","1","1","2","1,0,0,1,1,0,1,0,1","0,0,1,1,0,1,0,1,1","2",""
"","html-keyboard-response","67","55304","0.0-67.0","37Z929RLGAUCV9YE5JBCJ9XZVYMTSQ","A2OYOBFEQBWPAJ","3UUIU9GZC5R93N292LT21FRJ9VS5TN","","null","<img src=""img/flower4.png"" style=""width:200px; border:14px solid green;"">","null","","","","","","","","",""
"","image-keyboard-response","68","55399","0.0-68.0","37Z929RLGAUCV9YE5JBCJ9XZVYMTSQ","A2OYOBFEQBWPAJ","3UUIU9GZC5R93N292LT21FRJ9VS5TN","","93.7999999821186","img/flower4.png","76","95.2000000178814","3","1","1","2","1,0,0,1,1,0,1,0,1","0,0,1,1,0,1,0,1,1","2",""
"","html-keyboard-response","69","55704","0.0-69.0","37Z929RLGAUCV9YE5JBCJ9XZVYMTSQ","A2OYOBFEQBWPAJ","3UUIU9GZC5R93N292LT21FRJ9VS5TN","","null","<img src=""img/flower4.png"" style=""width:200px; border:14px solid green;"">","null","","","","","","","","",""
"","image-keyboard-response","70","55788","0.0-70.0","37Z929RLGAUCV9YE5JBCJ9XZVYMTSQ","A2OYOBFEQBWPAJ","3UUIU9GZC5R93N292LT21FRJ9VS5TN","","82.5","img/flower5.png","76","83.80000001192093","3","1","2","2","1,0,0,1,1,0,1,0,1","0,0,1,1,0,1,0,1,1","2",""
"","html-keyboard-response","71","56096","0.0-71.0","37Z929RLGAUCV9YE5JBCJ9XZVYMTSQ","A2OYOBFEQBWPAJ","3UUIU9GZC5R93N292LT21FRJ9VS5TN","","null","<img src=""img/flower5.png"" style=""width:200px; border:14px solid green;"">","null","","","","","","","","",""
"","image-keyboard-response","72","56183","0.0-72.0","37Z929RLGAUCV9YE5JBCJ9XZVYMTSQ","A2OYOBFEQBWPAJ","3UUIU9GZC5R93N292LT21FRJ9VS5TN","","84.30000001192093","img/flower5.png","76","86.40000000596046","3","1","2","2","1,0,0,1,1,0,1,0,1","0,0,1,1,0,1,0,1,1","2",""
"","html-keyboard-response","73","56488","0.0-73.0","37Z929RLGAUCV9YE5JBCJ9XZVYMTSQ","A2OYOBFEQBWPAJ","3UUIU9GZC5R93N292LT21FRJ9VS5TN","","null","<img src=""img/flower5.png"" style=""width:200px; border:14px solid green;"">","null","","","","","","","","",""
"","image-keyboard-response","74","56600","0.0-74.0","37Z929RLGAUCV9YE5JBCJ9XZVYMTSQ","A2OYOBFEQBWPAJ","3UUIU9GZC5R93N292LT21FRJ9VS5TN","","110.5","img/flower2.png","76","111.80000001192093","3","1","3","2","1,0,0,1,1,0,1,0,1","0,0,1,1,0,1,0,1,1","2",""
"","html-keyboard-response","75","56904","0.0-75.0","37Z929RLGAUCV9YE5JBCJ9XZVYMTSQ","A2OYOBFEQBWPAJ","3UUIU9GZC5R93N292LT21FRJ9VS5TN","","null","<img src=""img/flower2.png"" style=""width:200px; border:14px solid green;"">","null","","","","","","","","",""
"","image-keyboard-response","76","56997","0.0-76.0","37Z929RLGAUCV9YE5JBCJ9XZVYMTSQ","A2OYOBFEQBWPAJ","3UUIU9GZC5R93N292LT21FRJ9VS5TN","","91.40000000596046","img/flower4.png","76","92.7999999821186","3","1","1","2","1,0,0,1,1,0,1,0,1","0,0,1,1,0,1,0,1,1","2",""
"","html-keyboard-response","77","57304","0.0-77.0","37Z929RLGAUCV9YE5JBCJ9XZVYMTSQ","A2OYOBFEQBWPAJ","3UUIU9GZC5R93N292LT21FRJ9VS5TN","","null","<img src=""img/flower4.png"" style=""width:200px; border:14px solid green;"">","null","","","","","","","","",""
"","image-keyboard-response","78","57396","0.0-78.0","37Z929RLGAUCV9YE5JBCJ9XZVYMTSQ","A2OYOBFEQBWPAJ","3UUIU9GZC5R93N292LT21FRJ9VS5TN","","89.5","img/flower5.png","76","91","3","1","2","2","1,0,0,1,1,0,1,0,1","0,0,1,1,0,1,0,1,1","2",""
"","html-keyboard-response","79","57704","0.0-79.0","37Z929RLGAUCV9YE5JBCJ9XZVYMTSQ","A2OYOBFEQBWPAJ","3UUIU9GZC5R93N292LT21FRJ9VS5TN","","null","<img src=""img/flower5.png"" style=""width:200px; border:14px solid green;"">","null","","","","","","","","",""
"","image-keyboard-response","80","57805","0.0-80.0","37Z929RLGAUCV9YE5JBCJ9XZVYMTSQ","A2OYOBFEQBWPAJ","3UUIU9GZC5R93N292LT21FRJ9VS5TN","","99.09999999403954","img/flower2.png","76","100.60000002384186","3","1","3","2","1,0,0,1,1,0,1,0,1","0,0,1,1,0,1,0,1,1","2",""
"","html-keyboard-response","81","58112","0.0-81.0","37Z929RLGAUCV9YE5JBCJ9XZVYMTSQ","A2OYOBFEQBWPAJ","3UUIU9GZC5R93N292LT21FRJ9VS5TN","","null","<img src=""img/flower2.png"" style=""width:200px; border:14px solid green;"">","null","","","","","","","","",""
"","image-keyboard-response","82","58206","0.0-82.0","37Z929RLGAUCV9YE5JBCJ9XZVYMTSQ","A2OYOBFEQBWPAJ","3UUIU9GZC5R93N292LT21FRJ9VS5TN","","92.09999999403954","img/flower5.png","76","93.5","3","1","2","2","1,0,0,1,1,0,1,0,1","0,0,1,1,0,1,0,1,1","2",""
"","html-keyboard-response","83","58510","0.0-83.0","37Z929RLGAUCV9YE5JBCJ9XZVYMTSQ","A2OYOBFEQBWPAJ","3UUIU9GZC5R93N292LT21FRJ9VS5TN","","null","<img src=""img/flower5.png"" style=""width:200px; border:14px solid green;"">","null","","","","","","","","",""
"","image-keyboard-response","84","58605","0.0-84.0","37Z929RLGAUCV9YE5JBCJ9XZVYMTSQ","A2OYOBFEQBWPAJ","3UUIU9GZC5R93N292LT21FRJ9VS5TN","","92.40000000596046","img/flower5.png","76","94.30000001192093","3","1","2","2","1,0,0,1,1,0,1,0,1","0,0,1,1,0,1,0,1,1","2",""
"","html-keyboard-response","85","58912","0.0-85.0","37Z929RLGAUCV9YE5JBCJ9XZVYMTSQ","A2OYOBFEQBWPAJ","3UUIU9GZC5R93N292LT21FRJ9VS5TN","","null","<img src=""img/flower5.png"" style=""width:200px; border:14px solid green;"">","null","","","","","","","","",""
"","image-keyboard-response","86","59021","0.0-86.0","37Z929RLGAUCV9YE5JBCJ9XZVYMTSQ","A2OYOBFEQBWPAJ","3UUIU9GZC5R93N292LT21FRJ9VS5TN","","107","img/flower2.png","76","108.5","3","1","3","2","1,0,0,1,1,0,1,0,1","0,0,1,1,0,1,0,1,1","2",""
"","html-keyboard-response","87","59328","0.0-87.0","37Z929RLGAUCV9YE5JBCJ9XZVYMTSQ","A2OYOBFEQBWPAJ","3UUIU9GZC5R93N292LT21FRJ9VS5TN","","null","<img src=""img/flower2.png"" style=""width:200px; border:14px solid green;"">","null","","","","","","","","",""
"","image-keyboard-response","88","59449","0.0-88.0","37Z929RLGAUCV9YE5JBCJ9XZVYMTSQ","A2OYOBFEQBWPAJ","3UUIU9GZC5R93N292LT21FRJ9VS5TN","","118.80000001192093","img/flower2.png","76","120.5","3","1","3","2","1,0,0,1,1,0,1,0,1","0,0,1,1,0,1,0,1,1","2",""
"","html-keyboard-response","89","59752","0.0-89.0","37Z929RLGAUCV9YE5JBCJ9XZVYMTSQ","A2OYOBFEQBWPAJ","3UUIU9GZC5R93N292LT21FRJ9VS5TN","","null","<img src=""img/flower2.png"" style=""width:200px; border:14px solid green;"">","null","","","","","","","","",""
"","image-keyboard-response","90","59868","0.0-90.0","37Z929RLGAUCV9YE5JBCJ9XZVYMTSQ","A2OYOBFEQBWPAJ","3UUIU9GZC5R93N292LT21FRJ9VS5TN","","112.30000001192093","img/flower5.png","76","115.40000000596046","3","1","2","2","1,0,0,1,1,0,1,0,1","0,0,1,1,0,1,0,1,1","2",""
"","html-keyboard-response","91","60174","0.0-91.0","37Z929RLGAUCV9YE5JBCJ9XZVYMTSQ","A2OYOBFEQBWPAJ","3UUIU9GZC5R93N292LT21FRJ9VS5TN","","null","<img src=""img/flower5.png"" style=""width:200px; border:14px solid green;"">","null","","","","","","","","",""
"","image-keyboard-response","92","60266","0.0-92.0","37Z929RLGAUCV9YE5JBCJ9XZVYMTSQ","A2OYOBFEQBWPAJ","3UUIU9GZC5R93N292LT21FRJ9VS5TN","","90","img/flower5.png","76","91.19999998807907","3","1","2","2","1,0,0,1,1,0,1,0,1","0,0,1,1,0,1,0,1,1","2",""
"","html-keyboard-response","93","60568","0.0-93.0","37Z929RLGAUCV9YE5JBCJ9XZVYMTSQ","A2OYOBFEQBWPAJ","3UUIU9GZC5R93N292LT21FRJ9VS5TN","","null","<img src=""img/flower5.png"" style=""width:200px; border:14px solid green;"">","null","","","","","","","","",""
"","image-keyboard-response","94","60662","0.0-94.0","37Z929RLGAUCV9YE5JBCJ9XZVYMTSQ","A2OYOBFEQBWPAJ","3UUIU9GZC5R93N292LT21FRJ9VS5TN","","92.5","img/flower4.png","76","93.80000001192093","3","1","1","2","1,0,0,1,1,0,1,0,1","0,0,1,1,0,1,0,1,1","2",""
"","html-keyboard-response","95","60968","0.0-95.0","37Z929RLGAUCV9YE5JBCJ9XZVYMTSQ","A2OYOBFEQBWPAJ","3UUIU9GZC5R93N292LT21FRJ9VS5TN","","null","<img src=""img/flower4.png"" style=""width:200px; border:14px solid green;"">","null","","","","","","","","",""
"","image-keyboard-response","96","61052","0.0-96.0","37Z929RLGAUCV9YE5JBCJ9XZVYMTSQ","A2OYOBFEQBWPAJ","3UUIU9GZC5R93N292LT21FRJ9VS5TN","","82.30000001192093","img/flower5.png","76","83.90000000596046","3","1","2","2","1,0,0,1,1,0,1,0,1","0,0,1,1,0,1,0,1,1","2",""
"","html-keyboard-response","97","61360","0.0-97.0","37Z929RLGAUCV9YE5JBCJ9XZVYMTSQ","A2OYOBFEQBWPAJ","3UUIU9GZC5R93N292LT21FRJ9VS5TN","","null","<img src=""img/flower5.png"" style=""width:200px; border:14px solid green;"">","null","","","","","","","","",""
"","image-keyboard-response","98","61450","0.0-98.0","37Z929RLGAUCV9YE5JBCJ9XZVYMTSQ","A2OYOBFEQBWPAJ","3UUIU9GZC5R93N292LT21FRJ9VS5TN","","88.09999999403954","img/flower4.png","76","89.5","3","1","1","2","1,0,0,1,1,0,1,0,1","0,0,1,1,0,1,0,1,1","2",""
"","html-keyboard-response","99","61752","0.0-99.0","37Z929RLGAUCV9YE5JBCJ9XZVYMTSQ","A2OYOBFEQBWPAJ","3UUIU9GZC5R93N292LT21FRJ9VS5TN","","null","<img src=""img/flower4.png"" style=""width:200px; border:14px solid green;"">","null","","","","","","","","",""
"","image-keyboard-response","100","61886","0.0-100.0","37Z929RLGAUCV9YE5JBCJ9XZVYMTSQ","A2OYOBFEQBWPAJ","3UUIU9GZC5R93N292LT21FRJ9VS5TN","","131.7999999821186","img/flower2.png","76","133.40000000596046","3","1","3","2","1,0,0,1,1,0,1,0,1","0,0,1,1,0,1,0,1,1","2",""
"","html-keyboard-response","101","62192","0.0-101.0","37Z929RLGAUCV9YE5JBCJ9XZVYMTSQ","A2OYOBFEQBWPAJ","3UUIU9GZC5R93N292LT21FRJ9VS5TN","","null","<img src=""img/flower2.png"" style=""width:200px; border:14px solid green;"">","null","","","","","","","","",""
"","image-keyboard-response","102","62236","0.0-102.0","37Z929RLGAUCV9YE5JBCJ9XZVYMTSQ","A2OYOBFEQBWPAJ","3UUIU9GZC5R93N292LT21FRJ9VS5TN","","42.29999998211861","img/flower5.png","76","43.599999994039536","3","1","2","2","1,0,0,1,1,0,1,0,1","0,0,1,1,0,1,0,1,1","2",""
"","html-keyboard-response","103","62544","0.0-103.0","37Z929RLGAUCV9YE5JBCJ9XZVYMTSQ","A2OYOBFEQBWPAJ","3UUIU9GZC5R93N292LT21FRJ9VS5TN","","null","<img src=""img/flower5.png"" style=""width:200px; border:14px solid green;"">","null","","","","","","","","",""
"","image-keyboard-response","104","62633","0.0-104.0","37Z929RLGAUCV9YE5JBCJ9XZVYMTSQ","A2OYOBFEQBWPAJ","3UUIU9GZC5R93N292LT21FRJ9VS5TN","","87.69999998807907","img/flower2.png","76","89.19999998807907","3","1","3","2","1,0,0,1,1,0,1,0,1","0,0,1,1,0,1,0,1,1","2",""
"","html-keyboard-response","105","62936","0.0-105.0","37Z929RLGAUCV9YE5JBCJ9XZVYMTSQ","A2OYOBFEQBWPAJ","3UUIU9GZC5R93N292LT21FRJ9VS5TN","","null","<img src=""img/flower2.png"" style=""width:200px; border:14px solid green;"">","null","","","","","","","","",""
"","image-keyboard-response","106","63004","0.0-106.0","37Z929RLGAUCV9YE5JBCJ9XZVYMTSQ","A2OYOBFEQBWPAJ","3UUIU9GZC5R93N292LT21FRJ9VS5TN","","66.59999999403954","img/flower5.png","76","68.19999998807907","3","1","2","2","1,0,0,1,1,0,1,0,1","0,0,1,1,0,1,0,1,1","2",""
"","html-keyboard-response","107","63309","0.0-107.0","37Z929RLGAUCV9YE5JBCJ9XZVYMTSQ","A2OYOBFEQBWPAJ","3UUIU9GZC5R93N292LT21FRJ9VS5TN","","null","<img src=""img/flower5.png"" style=""width:200px; border:14px solid green;"">","null","","","","","","","","",""
"","image-keyboard-response","108","63396","0.0-108.0","37Z929RLGAUCV9YE5JBCJ9XZVYMTSQ","A2OYOBFEQBWPAJ","3UUIU9GZC5R93N292LT21FRJ9VS5TN","","85.69999998807907","img/flower5.png","76","87.09999999403954","3","1","2","2","1,0,0,1,1,0,1,0,1","0,0,1,1,0,1,0,1,1","2",""
"","html-keyboard-response","109","63704","0.0-109.0","37Z929RLGAUCV9YE5JBCJ9XZVYMTSQ","A2OYOBFEQBWPAJ","3UUIU9GZC5R93N292LT21FRJ9VS5TN","","null","<img src=""img/flower5.png"" style=""width:200px; border:14px solid green;"">","null","","","","","","","","",""
"","image-keyboard-response","110","63810","0.0-110.0","37Z929RLGAUCV9YE5JBCJ9XZVYMTSQ","A2OYOBFEQBWPAJ","3UUIU9GZC5R93N292LT21FRJ9VS5TN","","104.19999998807907","img/flower2.png","76","105.69999998807907","3","1","3","2","1,0,0,1,1,0,1,0,1","0,0,1,1,0,1,0,1,1","2",""
"","html-keyboard-response","111","64120","0.0-111.0","37Z929RLGAUCV9YE5JBCJ9XZVYMTSQ","A2OYOBFEQBWPAJ","3UUIU9GZC5R93N292LT21FRJ9VS5TN","","null","<img src=""img/flower2.png"" style=""width:200px; border:14px solid green;"">","null","","","","","","","","",""
"","image-keyboard-response","112","64213","0.0-112.0","37Z929RLGAUCV9YE5JBCJ9XZVYMTSQ","A2OYOBFEQBWPAJ","3UUIU9GZC5R93N292LT21FRJ9VS5TN","","91.19999998807907","img/flower2.png","76","92.80000001192093","3","1","3","2","1,0,0,1,1,0,1,0,1","0,0,1,1,0,1,0,1,1","2",""
"","html-keyboard-response","113","64520","0.0-113.0","37Z929RLGAUCV9YE5JBCJ9XZVYMTSQ","A2OYOBFEQBWPAJ","3UUIU9GZC5R93N292LT21FRJ9VS5TN","","null","<img src=""img/flower2.png"" style=""width:200px; border:14px solid green;"">","null","","","","","","","","",""
"","image-keyboard-response","114","64617","0.0-114.0","37Z929RLGAUCV9YE5JBCJ9XZVYMTSQ","A2OYOBFEQBWPAJ","3UUIU9GZC5R93N292LT21FRJ9VS5TN","","93.80000001192093","img/flower5.png","76","97","3","1","2","2","1,0,0,1,1,0,1,0,1","0,0,1,1,0,1,0,1,1","2",""
"","html-keyboard-response","115","64920","0.0-115.0","37Z929RLGAUCV9YE5JBCJ9XZVYMTSQ","A2OYOBFEQBWPAJ","3UUIU9GZC5R93N292LT21FRJ9VS5TN","","null","<img src=""img/flower5.png"" style=""width:200px; border:14px solid green;"">","null","","","","","","","","",""
"","image-keyboard-response","116","65001","0.0-116.0","37Z929RLGAUCV9YE5JBCJ9XZVYMTSQ","A2OYOBFEQBWPAJ","3UUIU9GZC5R93N292LT21FRJ9VS5TN","","79.09999999403954","img/flower5.png","76","80.5","3","1","2","2","1,0,0,1,1,0,1,0,1","0,0,1,1,0,1,0,1,1","2",""
"","html-keyboard-response","117","65304","0.0-117.0","37Z929RLGAUCV9YE5JBCJ9XZVYMTSQ","A2OYOBFEQBWPAJ","3UUIU9GZC5R93N292LT21FRJ9VS5TN","","null","<img src=""img/flower5.png"" style=""width:200px; border:14px solid green;"">","null","","","","","","","","",""
"","image-keyboard-response","118","65411","0.0-118.0","37Z929RLGAUCV9YE5JBCJ9XZVYMTSQ","A2OYOBFEQBWPAJ","3UUIU9GZC5R93N292LT21FRJ9VS5TN","","105.80000001192093","img/flower2.png","76","107.2000000178814","3","1","3","2","1,0,0,1,1,0,1,0,1","0,0,1,1,0,1,0,1,1","2",""
"","html-keyboard-response","119","65720","0.0-119.0","37Z929RLGAUCV9YE5JBCJ9XZVYMTSQ","A2OYOBFEQBWPAJ","3UUIU9GZC5R93N292LT21FRJ9VS5TN","","null","<img src=""img/flower2.png"" style=""width:200px; border:14px solid green;"">","null","","","","","","","","",""
"","image-keyboard-response","120","65801","0.0-120.0","37Z929RLGAUCV9YE5JBCJ9XZVYMTSQ","A2OYOBFEQBWPAJ","3UUIU9GZC5R93N292LT21FRJ9VS5TN","","79.30000001192093","img/flower5.png","76","80.60000002384186","3","1","2","2","1,0,0,1,1,0,1,0,1","0,0,1,1,0,1,0,1,1","2",""
"","html-keyboard-response","121","66104","0.0-121.0","37Z929RLGAUCV9YE5JBCJ9XZVYMTSQ","A2OYOBFEQBWPAJ","3UUIU9GZC5R93N292LT21FRJ9VS5TN","","null","<img src=""img/flower5.png"" style=""width:200px; border:14px solid green;"">","null","","","","","","","","",""
"","image-keyboard-response","122","66207","0.0-122.0","37Z929RLGAUCV9YE5JBCJ9XZVYMTSQ","A2OYOBFEQBWPAJ","3UUIU9GZC5R93N292LT21FRJ9VS5TN","","102","img/flower5.png","76","103.40000000596046","3","1","2","2","1,0,0,1,1,0,1,0,1","0,0,1,1,0,1,0,1,1","2",""
"","html-keyboard-response","123","66512","0.0-123.0","37Z929RLGAUCV9YE5JBCJ9XZVYMTSQ","A2OYOBFEQBWPAJ","3UUIU9GZC5R93N292LT21FRJ9VS5TN","","null","<img src=""img/flower5.png"" style=""width:200px; border:14px solid green;"">","null","","","","","","","","",""
"","image-keyboard-response","124","66622","0.0-124.0","37Z929RLGAUCV9YE5JBCJ9XZVYMTSQ","A2OYOBFEQBWPAJ","3UUIU9GZC5R93N292LT21FRJ9VS5TN","","107.7000000178814","img/flower5.png","76","109.5","3","1","2","2","1,0,0,1,1,0,1,0,1","0,0,1,1,0,1,0,1,1","2",""
"","html-keyboard-response","125","66928","0.0-125.0","37Z929RLGAUCV9YE5JBCJ9XZVYMTSQ","A2OYOBFEQBWPAJ","3UUIU9GZC5R93N292LT21FRJ9VS5TN","","null","<img src=""img/flower5.png"" style=""width:200px; border:14px solid green;"">","null","","","","","","","","",""
"","image-keyboard-response","126","67055","0.0-126.0","37Z929RLGAUCV9YE5JBCJ9XZVYMTSQ","A2OYOBFEQBWPAJ","3UUIU9GZC5R93N292LT21FRJ9VS5TN","","124.89999997615814","img/flower5.png","76","126.30000001192093","3","1","2","2","1,0,0,1,1,0,1,0,1","0,0,1,1,0,1,0,1,1","2",""
"","html-keyboard-response","127","67360","0.0-127.0","37Z929RLGAUCV9YE5JBCJ9XZVYMTSQ","A2OYOBFEQBWPAJ","3UUIU9GZC5R93N292LT21FRJ9VS5TN","","null","<img src=""img/flower5.png"" style=""width:200px; border:14px solid green;"">","null","","","","","","","","",""
"","image-keyboard-response","128","67477","0.0-128.0","37Z929RLGAUCV9YE5JBCJ9XZVYMTSQ","A2OYOBFEQBWPAJ","3UUIU9GZC5R93N292LT21FRJ9VS5TN","","115.39999997615814","img/flower2.png","76","116.7999999821186","3","1","3","2","1,0,0,1,1,0,1,0,1","0,0,1,1,0,1,0,1,1","2",""
"","html-keyboard-response","129","67784","0.0-129.0","37Z929RLGAUCV9YE5JBCJ9XZVYMTSQ","A2OYOBFEQBWPAJ","3UUIU9GZC5R93N292LT21FRJ9VS5TN","","null","<img src=""img/flower2.png"" style=""width:200px; border:14px solid green;"">","null","","","","","","","","",""
"","image-keyboard-response","130","67883","0.0-130.0","37Z929RLGAUCV9YE5JBCJ9XZVYMTSQ","A2OYOBFEQBWPAJ","3UUIU9GZC5R93N292LT21FRJ9VS5TN","","97.19999998807907","img/flower2.png","76","98.90000000596046","3","1","3","2","1,0,0,1,1,0,1,0,1","0,0,1,1,0,1,0,1,1","2",""
"","html-keyboard-response","131","68192","0.0-131.0","37Z929RLGAUCV9YE5JBCJ9XZVYMTSQ","A2OYOBFEQBWPAJ","3UUIU9GZC5R93N292LT21FRJ9VS5TN","","null","<img src=""img/flower2.png"" style=""width:200px; border:14px solid green;"">","null","","","","","","","","",""
"","image-keyboard-response","132","68299","0.0-132.0","37Z929RLGAUCV9YE5JBCJ9XZVYMTSQ","A2OYOBFEQBWPAJ","3UUIU9GZC5R93N292LT21FRJ9VS5TN","","105","img/flower2.png","76","106.60000002384186","3","1","3","2","1,0,0,1,1,0,1,0,1","0,0,1,1,0,1,0,1,1","2",""
"","html-keyboard-response","133","68606","0.0-133.0","37Z929RLGAUCV9YE5JBCJ9XZVYMTSQ","A2OYOBFEQBWPAJ","3UUIU9GZC5R93N292LT21FRJ9VS5TN","","null","<img src=""img/flower2.png"" style=""width:200px; border:14px solid green;"">","null","","","","","","","","",""
"","image-keyboard-response","134","68698","0.0-134.0","37Z929RLGAUCV9YE5JBCJ9XZVYMTSQ","A2OYOBFEQBWPAJ","3UUIU9GZC5R93N292LT21FRJ9VS5TN","","90.5","img/flower4.png","76","91.7000000178814","3","1","1","2","1,0,0,1,1,0,1,0,1","0,0,1,1,0,1,0,1,1","2",""
"","html-keyboard-response","135","69000","0.0-135.0","37Z929RLGAUCV9YE5JBCJ9XZVYMTSQ","A2OYOBFEQBWPAJ","3UUIU9GZC5R93N292LT21FRJ9VS5TN","","null","<img src=""img/flower4.png"" style=""width:200px; border:14px solid green;"">","null","","","","","","","","",""
"","image-keyboard-response","136","69103","0.0-136.0","37Z929RLGAUCV9YE5JBCJ9XZVYMTSQ","A2OYOBFEQBWPAJ","3UUIU9GZC5R93N292LT21FRJ9VS5TN","","101.60000002384186","img/flower4.png","76","103","3","1","1","2","1,0,0,1,1,0,1,0,1","0,0,1,1,0,1,0,1,1","2",""
"","html-keyboard-response","137","69408","0.0-137.0","37Z929RLGAUCV9YE5JBCJ9XZVYMTSQ","A2OYOBFEQBWPAJ","3UUIU9GZC5R93N292LT21FRJ9VS5TN","","null","<img src=""img/flower4.png"" style=""width:200px; border:14px solid green;"">","null","","","","","","","","",""
"","image-keyboard-response","138","69516","0.0-138.0","37Z929RLGAUCV9YE5JBCJ9XZVYMTSQ","A2OYOBFEQBWPAJ","3UUIU9GZC5R93N292LT21FRJ9VS5TN","","104.60000002384186","img/flower5.png","76","107.40000000596046","3","1","2","2","1,0,0,1,1,0,1,0,1","0,0,1,1,0,1,0,1,1","2",""
"","html-keyboard-response","139","69824","0.0-139.0","37Z929RLGAUCV9YE5JBCJ9XZVYMTSQ","A2OYOBFEQBWPAJ","3UUIU9GZC5R93N292LT21FRJ9VS5TN","","null","<img src=""img/flower5.png"" style=""width:200px; border:14px solid green;"">","null","","","","","","","","",""
"","image-keyboard-response","140","69913","0.0-140.0","37Z929RLGAUCV9YE5JBCJ9XZVYMTSQ","A2OYOBFEQBWPAJ","3UUIU9GZC5R93N292LT21FRJ9VS5TN","","87.09999999403954","img/flower2.png","76","88.40000000596046","3","1","3","2","1,0,0,1,1,0,1,0,1","0,0,1,1,0,1,0,1,1","2",""
"","html-keyboard-response","141","70216","0.0-141.0","37Z929RLGAUCV9YE5JBCJ9XZVYMTSQ","A2OYOBFEQBWPAJ","3UUIU9GZC5R93N292LT21FRJ9VS5TN","","null","<img src=""img/flower2.png"" style=""width:200px; border:14px solid green;"">","null","","","","","","","","",""
"","image-keyboard-response","142","70312","0.0-142.0","37Z929RLGAUCV9YE5JBCJ9XZVYMTSQ","A2OYOBFEQBWPAJ","3UUIU9GZC5R93N292LT21FRJ9VS5TN","","94.59999999403954","img/flower5.png","76","96.2000000178814","3","1","2","2","1,0,0,1,1,0,1,0,1","0,0,1,1,0,1,0,1,1","2",""
"","html-keyboard-response","143","70616","0.0-143.0","37Z929RLGAUCV9YE5JBCJ9XZVYMTSQ","A2OYOBFEQBWPAJ","3UUIU9GZC5R93N292LT21FRJ9VS5TN","","null","<img src=""img/flower5.png"" style=""width:200px; border:14px solid green;"">","null","","","","","","","","",""
"","image-keyboard-response","144","70716","0.0-144.0","37Z929RLGAUCV9YE5JBCJ9XZVYMTSQ","A2OYOBFEQBWPAJ","3UUIU9GZC5R93N292LT21FRJ9VS5TN","","99.30000001192093","img/flower2.png","76","100.5","3","1","3","2","1,0,0,1,1,0,1,0,1","0,0,1,1,0,1,0,1,1","2",""
"","html-keyboard-response","145","71022","0.0-145.0","37Z929RLGAUCV9YE5JBCJ9XZVYMTSQ","A2OYOBFEQBWPAJ","3UUIU9GZC5R93N292LT21FRJ9VS5TN","","null","<img src=""img/flower2.png"" style=""width:200px; border:14px solid green;"">","null","","","","","","","","",""
"","image-keyboard-response","146","71135","0.0-146.0","37Z929RLGAUCV9YE5JBCJ9XZVYMTSQ","A2OYOBFEQBWPAJ","3UUIU9GZC5R93N292LT21FRJ9VS5TN","","111.40000000596046","img/flower4.png","76","112.7000000178814","3","1","1","2","1,0,0,1,1,0,1,0,1","0,0,1,1,0,1,0,1,1","2",""
"","html-keyboard-response","147","71440","0.0-147.0","37Z929RLGAUCV9YE5JBCJ9XZVYMTSQ","A2OYOBFEQBWPAJ","3UUIU9GZC5R93N292LT21FRJ9VS5TN","","null","<img src=""img/flower4.png"" style=""width:200px; border:14px solid green;"">","null","","","","","","","","",""
"","image-keyboard-response","148","71534","0.0-148.0","37Z929RLGAUCV9YE5JBCJ9XZVYMTSQ","A2OYOBFEQBWPAJ","3UUIU9GZC5R93N292LT21FRJ9VS5TN","","92.40000000596046","img/flower5.png","76","93.80000001192093","3","1","2","2","1,0,0,1,1,0,1,0,1","0,0,1,1,0,1,0,1,1","2",""
"","html-keyboard-response","149","71840","0.0-149.0","37Z929RLGAUCV9YE5JBCJ9XZVYMTSQ","A2OYOBFEQBWPAJ","3UUIU9GZC5R93N292LT21FRJ9VS5TN","","null","<img src=""img/flower5.png"" style=""width:200px; border:14px solid green;"">","null","","","","","","","","",""
"","image-keyboard-response","150","71986","0.0-150.0","37Z929RLGAUCV9YE5JBCJ9XZVYMTSQ","A2OYOBFEQBWPAJ","3UUIU9GZC5R93N292LT21FRJ9VS5TN","","144.80000001192093","img/flower5.png","76","146.2999999821186","3","1","2","2","1,0,0,1,1,0,1,0,1","0,0,1,1,0,1,0,1,1","2",""
"","html-keyboard-response","151","72296","0.0-151.0","37Z929RLGAUCV9YE5JBCJ9XZVYMTSQ","A2OYOBFEQBWPAJ","3UUIU9GZC5R93N292LT21FRJ9VS5TN","","null","<img src=""img/flower5.png"" style=""width:200px; border:14px solid green;"">","null","","","","","","","","",""
"","image-keyboard-response","152","72406","0.0-152.0","37Z929RLGAUCV9YE5JBCJ9XZVYMTSQ","A2OYOBFEQBWPAJ","3UUIU9GZC5R93N292LT21FRJ9VS5TN","","108.19999998807907","img/flower4.png","76","109.89999997615814","3","1","1","2","1,0,0,1,1,0,1,0,1","0,0,1,1,0,1,0,1,1","2",""
"","html-keyboard-response","153","72712","0.0-153.0","37Z929RLGAUCV9YE5JBCJ9XZVYMTSQ","A2OYOBFEQBWPAJ","3UUIU9GZC5R93N292LT21FRJ9VS5TN","","null","<img src=""img/flower4.png"" style=""width:200px; border:14px solid green;"">","null","","","","","","","","",""
"","image-keyboard-response","154","72841","0.0-154.0","37Z929RLGAUCV9YE5JBCJ9XZVYMTSQ","A2OYOBFEQBWPAJ","3UUIU9GZC5R93N292LT21FRJ9VS5TN","","126.80000001192093","img/flower4.png","76","128.19999998807907","3","1","1","2","1,0,0,1,1,0,1,0,1","0,0,1,1,0,1,0,1,1","2",""
"","html-keyboard-response","155","73144","0.0-155.0","37Z929RLGAUCV9YE5JBCJ9XZVYMTSQ","A2OYOBFEQBWPAJ","3UUIU9GZC5R93N292LT21FRJ9VS5TN","","null","<img src=""img/flower4.png"" style=""width:200px; border:14px solid green;"">","null","","","","","","","","",""
"","image-keyboard-response","156","73257","0.0-156.0","37Z929RLGAUCV9YE5JBCJ9XZVYMTSQ","A2OYOBFEQBWPAJ","3UUIU9GZC5R93N292LT21FRJ9VS5TN","","111.80000001192093","img/flower2.png","76","113","3","1","3","2","1,0,0,1,1,0,1,0,1","0,0,1,1,0,1,0,1,1","2",""
"","html-keyboard-response","157","73560","0.0-157.0","37Z929RLGAUCV9YE5JBCJ9XZVYMTSQ","A2OYOBFEQBWPAJ","3UUIU9GZC5R93N292LT21FRJ9VS5TN","","null","<img src=""img/flower2.png"" style=""width:200px; border:14px solid green;"">","null","","","","","","","","",""
"","image-keyboard-response","158","73694","0.0-158.0","37Z929RLGAUCV9YE5JBCJ9XZVYMTSQ","A2OYOBFEQBWPAJ","3UUIU9GZC5R93N292LT21FRJ9VS5TN","","132.2999999821186","img/flower2.png","76","133.90000000596046","3","1","3","2","1,0,0,1,1,0,1,0,1","0,0,1,1,0,1,0,1,1","2",""
"","html-keyboard-response","159","74000","0.0-159.0","37Z929RLGAUCV9YE5JBCJ9XZVYMTSQ","A2OYOBFEQBWPAJ","3UUIU9GZC5R93N292LT21FRJ9VS5TN","","null","<img src=""img/flower2.png"" style=""width:200px; border:14px solid green;"">","null","","","","","","","","",""
"","image-keyboard-response","160","74081","0.0-160.0","37Z929RLGAUCV9YE5JBCJ9XZVYMTSQ","A2OYOBFEQBWPAJ","3UUIU9GZC5R93N292LT21FRJ9VS5TN","","79.59999999403954","img/flower5.png","76","82.59999999403954","3","1","2","2","1,0,0,1,1,0,1,0,1","0,0,1,1,0,1,0,1,1","2",""
"","html-keyboard-response","161","74392","0.0-161.0","37Z929RLGAUCV9YE5JBCJ9XZVYMTSQ","A2OYOBFEQBWPAJ","3UUIU9GZC5R93N292LT21FRJ9VS5TN","","null","<img src=""img/flower5.png"" style=""width:200px; border:14px solid green;"">","null","","","","","","","","",""
"","image-keyboard-response","162","74530","0.0-162.0","37Z929RLGAUCV9YE5JBCJ9XZVYMTSQ","A2OYOBFEQBWPAJ","3UUIU9GZC5R93N292LT21FRJ9VS5TN","","135.59999999403954","img/flower4.png","76","137.2000000178814","3","1","1","2","1,0,0,1,1,0,1,0,1","0,0,1,1,0,1,0,1,1","2",""
"","html-keyboard-response","163","74836","0.0-163.0","37Z929RLGAUCV9YE5JBCJ9XZVYMTSQ","A2OYOBFEQBWPAJ","3UUIU9GZC5R93N292LT21FRJ9VS5TN","","null","<img src=""img/flower4.png"" style=""width:200px; border:14px solid green;"">","null","","","","","","","","",""
"","image-keyboard-response","164","74955","0.0-164.0","37Z929RLGAUCV9YE5JBCJ9XZVYMTSQ","A2OYOBFEQBWPAJ","3UUIU9GZC5R93N292LT21FRJ9VS5TN","","115","img/flower4.png","76","118.59999999403954","3","1","1","2","1,0,0,1,1,0,1,0,1","0,0,1,1,0,1,0,1,1","2",""
"","html-keyboard-response","165","75264","0.0-165.0","37Z929RLGAUCV9YE5JBCJ9XZVYMTSQ","A2OYOBFEQBWPAJ","3UUIU9GZC5R93N292LT21FRJ9VS5TN","","null","<img src=""img/flower4.png"" style=""width:200px; border:14px solid green;"">","null","","","","","","","","",""
"","image-keyboard-response","166","75392","0.0-166.0","37Z929RLGAUCV9YE5JBCJ9XZVYMTSQ","A2OYOBFEQBWPAJ","3UUIU9GZC5R93N292LT21FRJ9VS5TN","","126.09999999403954","img/flower4.png","76","127.60000002384186","3","1","1","2","1,0,0,1,1,0,1,0,1","0,0,1,1,0,1,0,1,1","2",""
"","html-keyboard-response","167","75696","0.0-167.0","37Z929RLGAUCV9YE5JBCJ9XZVYMTSQ","A2OYOBFEQBWPAJ","3UUIU9GZC5R93N292LT21FRJ9VS5TN","","null","<img src=""img/flower4.png"" style=""width:200px; border:14px solid green;"">","null","","","","","","","","",""
"","image-keyboard-response","168","75820","0.0-168.0","37Z929RLGAUCV9YE5JBCJ9XZVYMTSQ","A2OYOBFEQBWPAJ","3UUIU9GZC5R93N292LT21FRJ9VS5TN","","123.2000000178814","img/flower5.png","76","124.5","3","1","2","2","1,0,0,1,1,0,1,0,1","0,0,1,1,0,1,0,1,1","2",""
"","html-keyboard-response","169","76127","0.0-169.0","37Z929RLGAUCV9YE5JBCJ9XZVYMTSQ","A2OYOBFEQBWPAJ","3UUIU9GZC5R93N292LT21FRJ9VS5TN","","null","<img src=""img/flower5.png"" style=""width:200px; border:14px solid green;"">","null","","","","","","","","",""
"","image-keyboard-response","170","76226","0.0-170.0","37Z929RLGAUCV9YE5JBCJ9XZVYMTSQ","A2OYOBFEQBWPAJ","3UUIU9GZC5R93N292LT21FRJ9VS5TN","","97.39999997615814","img/flower4.png","76","98.90000000596046","3","1","1","2","1,0,0,1,1,0,1,0,1","0,0,1,1,0,1,0,1,1","2",""
"","html-keyboard-response","171","76528","0.0-171.0","37Z929RLGAUCV9YE5JBCJ9XZVYMTSQ","A2OYOBFEQBWPAJ","3UUIU9GZC5R93N292LT21FRJ9VS5TN","","null","<img src=""img/flower4.png"" style=""width:200px; border:14px solid green;"">","null","","","","","","","","",""
"","image-keyboard-response","172","76629","0.0-172.0","37Z929RLGAUCV9YE5JBCJ9XZVYMTSQ","A2OYOBFEQBWPAJ","3UUIU9GZC5R93N292LT21FRJ9VS5TN","","98.39999997615814","img/flower4.png","76","100.09999999403954","3","1","1","2","1,0,0,1,1,0,1,0,1","0,0,1,1,0,1,0,1,1","2",""
"","html-keyboard-response","173","76936","0.0-173.0","37Z929RLGAUCV9YE5JBCJ9XZVYMTSQ","A2OYOBFEQBWPAJ","3UUIU9GZC5R93N292LT21FRJ9VS5TN","","null","<img src=""img/flower4.png"" style=""width:200px; border:14px solid green;"">","null","","","","","","","","",""
"","image-keyboard-response","174","77047","0.0-174.0","37Z929RLGAUCV9YE5JBCJ9XZVYMTSQ","A2OYOBFEQBWPAJ","3UUIU9GZC5R93N292LT21FRJ9VS5TN","","109.2000000178814","img/flower4.png","76","110.5","3","1","1","2","1,0,0,1,1,0,1,0,1","0,0,1,1,0,1,0,1,1","2",""
"","html-keyboard-response","175","77353","0.0-175.0","37Z929RLGAUCV9YE5JBCJ9XZVYMTSQ","A2OYOBFEQBWPAJ","3UUIU9GZC5R93N292LT21FRJ9VS5TN","","null","<img src=""img/flower4.png"" style=""width:200px; border:14px solid green;"">","null","","","","","","","","",""
"","image-keyboard-response","176","77437","0.0-176.0","37Z929RLGAUCV9YE5JBCJ9XZVYMTSQ","A2OYOBFEQBWPAJ","3UUIU9GZC5R93N292LT21FRJ9VS5TN","","82.2999999821186","img/flower2.png","76","84.2000000178814","3","1","3","2","1,0,0,1,1,0,1,0,1","0,0,1,1,0,1,0,1,1","2",""
"","html-keyboard-response","177","77744","0.0-177.0","37Z929RLGAUCV9YE5JBCJ9XZVYMTSQ","A2OYOBFEQBWPAJ","3UUIU9GZC5R93N292LT21FRJ9VS5TN","","null","<img src=""img/flower2.png"" style=""width:200px; border:14px solid green;"">","null","","","","","","","","",""
"","image-keyboard-response","178","77833","0.0-178.0","37Z929RLGAUCV9YE5JBCJ9XZVYMTSQ","A2OYOBFEQBWPAJ","3UUIU9GZC5R93N292LT21FRJ9VS5TN","","87.40000000596046","img/flower4.png","76","88.7000000178814","3","1","1","2","1,0,0,1,1,0,1,0,1","0,0,1,1,0,1,0,1,1","2",""
"","html-keyboard-response","179","78136","0.0-179.0","37Z929RLGAUCV9YE5JBCJ9XZVYMTSQ","A2OYOBFEQBWPAJ","3UUIU9GZC5R93N292LT21FRJ9VS5TN","","null","<img src=""img/flower4.png"" style=""width:200px; border:14px solid green;"">","null","","","","","","","","",""
"","image-keyboard-response","180","78226","0.0-180.0","37Z929RLGAUCV9YE5JBCJ9XZVYMTSQ","A2OYOBFEQBWPAJ","3UUIU9GZC5R93N292LT21FRJ9VS5TN","","89.10000002384186","img/flower2.png","76","90.40000000596046","3","1","3","2","1,0,0,1,1,0,1,0,1","0,0,1,1,0,1,0,1,1","2",""
"","html-keyboard-response","181","78536","0.0-181.0","37Z929RLGAUCV9YE5JBCJ9XZVYMTSQ","A2OYOBFEQBWPAJ","3UUIU9GZC5R93N292LT21FRJ9VS5TN","","null","<img src=""img/flower2.png"" style=""width:200px; border:14px solid green;"">","null","","","","","","","","",""
"","image-keyboard-response","182","78628","0.0-182.0","37Z929RLGAUCV9YE5JBCJ9XZVYMTSQ","A2OYOBFEQBWPAJ","3UUIU9GZC5R93N292LT21FRJ9VS5TN","","89.60000002384186","img/flower6.png","76","91.7999999821186","3","0","2","1","1,0.333,0.333,0.333,1,0.333,0.333,0.333,1","1,0.333,0.333,0.333,1,0.333,0.333,0.333,1","1",""
"","html-keyboard-response","183","78932","0.0-183.0","37Z929RLGAUCV9YE5JBCJ9XZVYMTSQ","A2OYOBFEQBWPAJ","3UUIU9GZC5R93N292LT21FRJ9VS5TN","","null","<img src=""img/flower6.png"" style=""width:200px;border:14px solid red;"">","null","","","","","","","","",""
"","image-keyboard-response","184","79028","0.0-184.0","37Z929RLGAUCV9YE5JBCJ9XZVYMTSQ","A2OYOBFEQBWPAJ","3UUIU9GZC5R93N292LT21FRJ9VS5TN","","94.69999998807907","img/flower6.png","76","96.2000000178814","3","0","2","1","1,0.333,0.333,0.333,1,0.333,0.333,0.333,1","1,0.333,0.333,0.333,1,0.333,0.333,0.333,1","1",""
"","html-keyboard-response","185","79336","0.0-185.0","37Z929RLGAUCV9YE5JBCJ9XZVYMTSQ","A2OYOBFEQBWPAJ","3UUIU9GZC5R93N292LT21FRJ9VS5TN","","null","<img src=""img/flower6.png"" style=""width:200px;border:14px solid red;"">","null","","","","","","","","",""
"","image-keyboard-response","186","79972","0.0-186.0","37Z929RLGAUCV9YE5JBCJ9XZVYMTSQ","A2OYOBFEQBWPAJ","3UUIU9GZC5R93N292LT21FRJ9VS5TN","","635","img/flower6.png","75","636.0999999940395","2","1","2","1","1,0.333,0.333,0.333,1,0.333,0.333,0.333,1","1,0.333,0.333,0.333,1,0.333,0.333,0.333,1","1",""
"","html-keyboard-response","187","80280","0.0-187.0","37Z929RLGAUCV9YE5JBCJ9XZVYMTSQ","A2OYOBFEQBWPAJ","3UUIU9GZC5R93N292LT21FRJ9VS5TN","","null","<img src=""img/flower6.png"" style=""width:200px; border:14px solid green;"">","null","","","","","","","","",""
"","image-keyboard-response","188","80981","0.0-188.0","37Z929RLGAUCV9YE5JBCJ9XZVYMTSQ","A2OYOBFEQBWPAJ","3UUIU9GZC5R93N292LT21FRJ9VS5TN","","699.8999999761581","img/flower3.png","75","701.3000000119209","2","0","3","1","1,0.333,0.333,0.333,1,0.333,0.333,0.333,1","1,0.333,0.333,0.333,1,0.333,0.333,0.333,1","1",""
"","html-keyboard-response","189","81288","0.0-189.0","37Z929RLGAUCV9YE5JBCJ9XZVYMTSQ","A2OYOBFEQBWPAJ","3UUIU9GZC5R93N292LT21FRJ9VS5TN","","null","<img src=""img/flower3.png"" style=""width:200px;border:14px solid red;"">","null","","","","","","","","",""
"","image-keyboard-response","190","81848","0.0-190.0","37Z929RLGAUCV9YE5JBCJ9XZVYMTSQ","A2OYOBFEQBWPAJ","3UUIU9GZC5R93N292LT21FRJ9VS5TN","","557.5","img/flower1.png","76","559","3","0","1","1","1,0.333,0.333,0.333,1,0.333,0.333,0.333,1","1,0.333,0.333,0.333,1,0.333,0.333,0.333,1","1",""
"","html-keyboard-response","191","82152","0.0-191.0","37Z929RLGAUCV9YE5JBCJ9XZVYMTSQ","A2OYOBFEQBWPAJ","3UUIU9GZC5R93N292LT21FRJ9VS5TN","","null","<img src=""img/flower1.png"" style=""width:200px;border:14px solid red;"">","null","","","","","","","","",""
"","image-keyboard-response","192","82425","0.0-192.0","37Z929RLGAUCV9YE5JBCJ9XZVYMTSQ","A2OYOBFEQBWPAJ","3UUIU9GZC5R93N292LT21FRJ9VS5TN","","271.5","img/flower3.png","74","273.19999998807907","1","0","3","1","1,0.333,0.333,0.333,1,0.333,0.333,0.333,1","1,0.333,0.333,0.333,1,0.333,0.333,0.333,1","1",""
"","html-keyboard-response","193","82728","0.0-193.0","37Z929RLGAUCV9YE5JBCJ9XZVYMTSQ","A2OYOBFEQBWPAJ","3UUIU9GZC5R93N292LT21FRJ9VS5TN","","null","<img src=""img/flower3.png"" style=""width:200px;border:14px solid red;"">","null","","","","","","","","",""
"","image-keyboard-response","194","82873","0.0-194.0","37Z929RLGAUCV9YE5JBCJ9XZVYMTSQ","A2OYOBFEQBWPAJ","3UUIU9GZC5R93N292LT21FRJ9VS5TN","","143.09999999403954","img/flower6.png","75","144.40000000596046","2","1","2","1","1,0.333,0.333,0.333,1,0.333,0.333,0.333,1","1,0.333,0.333,0.333,1,0.333,0.333,0.333,1","1",""
"","html-keyboard-response","195","83176","0.0-195.0","37Z929RLGAUCV9YE5JBCJ9XZVYMTSQ","A2OYOBFEQBWPAJ","3UUIU9GZC5R93N292LT21FRJ9VS5TN","","null","<img src=""img/flower6.png"" style=""width:200px; border:14px solid green;"">","null","","","","","","","","",""
"","image-keyboard-response","196","83536","0.0-196.0","37Z929RLGAUCV9YE5JBCJ9XZVYMTSQ","A2OYOBFEQBWPAJ","3UUIU9GZC5R93N292LT21FRJ9VS5TN","","358.30000001192093","img/flower1.png","75","359.80000001192093","2","0","1","1","1,0.333,0.333,0.333,1,0.333,0.333,0.333,1","1,0.333,0.333,0.333,1,0.333,0.333,0.333,1","1",""
"","html-keyboard-response","197","83840","0.0-197.0","37Z929RLGAUCV9YE5JBCJ9XZVYMTSQ","A2OYOBFEQBWPAJ","3UUIU9GZC5R93N292LT21FRJ9VS5TN","","null","<img src=""img/flower1.png"" style=""width:200px;border:14px solid red;"">","null","","","","","","","","",""
"","image-keyboard-response","198","84167","0.0-198.0","37Z929RLGAUCV9YE5JBCJ9XZVYMTSQ","A2OYOBFEQBWPAJ","3UUIU9GZC5R93N292LT21FRJ9VS5TN","","325.40000000596046","img/flower3.png","75","327.09999999403954","2","0","3","1","1,0.333,0.333,0.333,1,0.333,0.333,0.333,1","1,0.333,0.333,0.333,1,0.333,0.333,0.333,1","1",""
"","html-keyboard-response","199","84472","0.0-199.0","37Z929RLGAUCV9YE5JBCJ9XZVYMTSQ","A2OYOBFEQBWPAJ","3UUIU9GZC5R93N292LT21FRJ9VS5TN","","null","<img src=""img/flower3.png"" style=""width:200px;border:14px solid red;"">","null","","","","","","","","",""
"","image-keyboard-response","200","84942","0.0-200.0","37Z929RLGAUCV9YE5JBCJ9XZVYMTSQ","A2OYOBFEQBWPAJ","3UUIU9GZC5R93N292LT21FRJ9VS5TN","","468.39999997615814","img/flower6.png","74","469.5","1","1","2","1","1,0.333,0.333,0.333,1,0.333,0.333,0.333,1","1,0.333,0.333,0.333,1,0.333,0.333,0.333,1","1",""
"","html-keyboard-response","201","85248","0.0-201.0","37Z929RLGAUCV9YE5JBCJ9XZVYMTSQ","A2OYOBFEQBWPAJ","3UUIU9GZC5R93N292LT21FRJ9VS5TN","","null","<img src=""img/flower6.png"" style=""width:200px; border:14px solid green;"">","null","","","","","","","","",""
"","image-keyboard-response","202","85794","0.0-202.0","37Z929RLGAUCV9YE5JBCJ9XZVYMTSQ","A2OYOBFEQBWPAJ","3UUIU9GZC5R93N292LT21FRJ9VS5TN","","544.8000000119209","img/flower1.png","75","546.0999999940395","2","0","1","1","1,0.333,0.333,0.333,1,0.333,0.333,0.333,1","1,0.333,0.333,0.333,1,0.333,0.333,0.333,1","1",""
"","html-keyboard-response","203","86096","0.0-203.0","37Z929RLGAUCV9YE5JBCJ9XZVYMTSQ","A2OYOBFEQBWPAJ","3UUIU9GZC5R93N292LT21FRJ9VS5TN","","null","<img src=""img/flower1.png"" style=""width:200px;border:14px solid red;"">","null","","","","","","","","",""
"","image-keyboard-response","204","86674","0.0-204.0","37Z929RLGAUCV9YE5JBCJ9XZVYMTSQ","A2OYOBFEQBWPAJ","3UUIU9GZC5R93N292LT21FRJ9VS5TN","","576.5999999940395","img/flower1.png","76","577.8000000119209","3","0","1","1","1,0.333,0.333,0.333,1,0.333,0.333,0.333,1","1,0.333,0.333,0.333,1,0.333,0.333,0.333,1","1",""
"","html-keyboard-response","205","86976","0.0-205.0","37Z929RLGAUCV9YE5JBCJ9XZVYMTSQ","A2OYOBFEQBWPAJ","3UUIU9GZC5R93N292LT21FRJ9VS5TN","","null","<img src=""img/flower1.png"" style=""width:200px;border:14px solid red;"">","null","","","","","","","","",""
"","image-keyboard-response","206","87458","0.0-206.0","37Z929RLGAUCV9YE5JBCJ9XZVYMTSQ","A2OYOBFEQBWPAJ","3UUIU9GZC5R93N292LT21FRJ9VS5TN","","480.7999999821186","img/flower1.png","75","482.09999999403954","2","0","1","1","1,0.333,0.333,0.333,1,0.333,0.333,0.333,1","1,0.333,0.333,0.333,1,0.333,0.333,0.333,1","1",""
"","html-keyboard-response","207","87760","0.0-207.0","37Z929RLGAUCV9YE5JBCJ9XZVYMTSQ","A2OYOBFEQBWPAJ","3UUIU9GZC5R93N292LT21FRJ9VS5TN","","null","<img src=""img/flower1.png"" style=""width:200px;border:14px solid red;"">","null","","","","","","","","",""
"","image-keyboard-response","208","87867","0.0-208.0","37Z929RLGAUCV9YE5JBCJ9XZVYMTSQ","A2OYOBFEQBWPAJ","3UUIU9GZC5R93N292LT21FRJ9VS5TN","","105.5","img/flower1.png","74","107","1","1","1","1","1,0.333,0.333,0.333,1,0.333,0.333,0.333,1","1,0.333,0.333,0.333,1,0.333,0.333,0.333,1","1",""
"","html-keyboard-response","209","88176","0.0-209.0","37Z929RLGAUCV9YE5JBCJ9XZVYMTSQ","A2OYOBFEQBWPAJ","3UUIU9GZC5R93N292LT21FRJ9VS5TN","","null","<img src=""img/flower1.png"" style=""width:200px; border:14px solid green;"">","null","","","","","","","","",""
"","image-keyboard-response","210","88565","0.0-210.0","37Z929RLGAUCV9YE5JBCJ9XZVYMTSQ","A2OYOBFEQBWPAJ","3UUIU9GZC5R93N292LT21FRJ9VS5TN","","387.69999998807907","img/flower1.png","74","389.09999999403954","1","1","1","1","1,0.333,0.333,0.333,1,0.333,0.333,0.333,1","1,0.333,0.333,0.333,1,0.333,0.333,0.333,1","1",""
"","html-keyboard-response","211","88872","0.0-211.0","37Z929RLGAUCV9YE5JBCJ9XZVYMTSQ","A2OYOBFEQBWPAJ","3UUIU9GZC5R93N292LT21FRJ9VS5TN","","null","<img src=""img/flower1.png"" style=""width:200px; border:14px solid green;"">","null","","","","","","","","",""
"","image-keyboard-response","212","88909","0.0-212.0","37Z929RLGAUCV9YE5JBCJ9XZVYMTSQ","A2OYOBFEQBWPAJ","3UUIU9GZC5R93N292LT21FRJ9VS5TN","","35.80000001192093","img/flower6.png","74","37.29999998211861","1","1","2","1","1,0.333,0.333,0.333,1,0.333,0.333,0.333,1","1,0.333,0.333,0.333,1,0.333,0.333,0.333,1","1",""
"","html-keyboard-response","213","89217","0.0-213.0","37Z929RLGAUCV9YE5JBCJ9XZVYMTSQ","A2OYOBFEQBWPAJ","3UUIU9GZC5R93N292LT21FRJ9VS5TN","","null","<img src=""img/flower6.png"" style=""width:200px; border:14px solid green;"">","null","","","","","","","","",""
"","image-keyboard-response","214","89314","0.0-214.0","37Z929RLGAUCV9YE5JBCJ9XZVYMTSQ","A2OYOBFEQBWPAJ","3UUIU9GZC5R93N292LT21FRJ9VS5TN","","95.80000001192093","img/flower3.png","74","97.5","1","0","3","1","1,0.333,0.333,0.333,1,0.333,0.333,0.333,1","1,0.333,0.333,0.333,1,0.333,0.333,0.333,1","1",""
"","html-keyboard-response","215","89628","0.0-215.0","37Z929RLGAUCV9YE5JBCJ9XZVYMTSQ","A2OYOBFEQBWPAJ","3UUIU9GZC5R93N292LT21FRJ9VS5TN","","null","<img src=""img/flower3.png"" style=""width:200px;border:14px solid red;"">","null","","","","","","","","",""
"","image-keyboard-response","216","89678","0.0-216.0","37Z929RLGAUCV9YE5JBCJ9XZVYMTSQ","A2OYOBFEQBWPAJ","3UUIU9GZC5R93N292LT21FRJ9VS5TN","","48","img/flower3.png","74","49.400000005960464","1","0","3","1","1,0.333,0.333,0.333,1,0.333,0.333,0.333,1","1,0.333,0.333,0.333,1,0.333,0.333,0.333,1","1",""
"","html-keyboard-response","217","89984","0.0-217.0","37Z929RLGAUCV9YE5JBCJ9XZVYMTSQ","A2OYOBFEQBWPAJ","3UUIU9GZC5R93N292LT21FRJ9VS5TN","","null","<img src=""img/flower3.png"" style=""width:200px;border:14px solid red;"">","null","","","","","","","","",""
"","image-keyboard-response","218","90274","0.0-218.0","37Z929RLGAUCV9YE5JBCJ9XZVYMTSQ","A2OYOBFEQBWPAJ","3UUIU9GZC5R93N292LT21FRJ9VS5TN","","288.5","img/flower3.png","75","290.30000001192093","2","0","3","1","1,0.333,0.333,0.333,1,0.333,0.333,0.333,1","1,0.333,0.333,0.333,1,0.333,0.333,0.333,1","1",""
"","html-keyboard-response","219","90584","0.0-219.0","37Z929RLGAUCV9YE5JBCJ9XZVYMTSQ","A2OYOBFEQBWPAJ","3UUIU9GZC5R93N292LT21FRJ9VS5TN","","null","<img src=""img/flower3.png"" style=""width:200px;border:14px solid red;"">","null","","","","","","","","",""
"","image-keyboard-response","220","90846","0.0-220.0","37Z929RLGAUCV9YE5JBCJ9XZVYMTSQ","A2OYOBFEQBWPAJ","3UUIU9GZC5R93N292LT21FRJ9VS5TN","","260.80000001192093","img/flower1.png","76","262.39999997615814","3","1","1","1","1,0.333,0.333,0.333,1,0.333,0.333,0.333,1","1,0.333,0.333,0.333,1,0.333,0.333,0.333,1","1",""
"","html-keyboard-response","221","91152","0.0-221.0","37Z929RLGAUCV9YE5JBCJ9XZVYMTSQ","A2OYOBFEQBWPAJ","3UUIU9GZC5R93N292LT21FRJ9VS5TN","","null","<img src=""img/flower1.png"" style=""width:200px; border:14px solid green;"">","null","","","","","","","","",""
"","image-keyboard-response","222","91580","0.0-222.0","37Z929RLGAUCV9YE5JBCJ9XZVYMTSQ","A2OYOBFEQBWPAJ","3UUIU9GZC5R93N292LT21FRJ9VS5TN","","426.19999998807907","img/flower1.png","76","427.7000000178814","3","0","1","1","1,0.333,0.333,0.333,1,0.333,0.333,0.333,1","1,0.333,0.333,0.333,1,0.333,0.333,0.333,1","1",""
"","html-keyboard-response","223","91888","0.0-223.0","37Z929RLGAUCV9YE5JBCJ9XZVYMTSQ","A2OYOBFEQBWPAJ","3UUIU9GZC5R93N292LT21FRJ9VS5TN","","null","<img src=""img/flower1.png"" style=""width:200px;border:14px solid red;"">","null","","","","","","","","",""
"","image-keyboard-response","224","92698","0.0-224.0","37Z929RLGAUCV9YE5JBCJ9XZVYMTSQ","A2OYOBFEQBWPAJ","3UUIU9GZC5R93N292LT21FRJ9VS5TN","","808.3000000119209","img/flower3.png","75","809.6000000238419","2","0","3","1","1,0.333,0.333,0.333,1,0.333,0.333,0.333,1","1,0.333,0.333,0.333,1,0.333,0.333,0.333,1","1",""
"","html-keyboard-response","225","93008","0.0-225.0","37Z929RLGAUCV9YE5JBCJ9XZVYMTSQ","A2OYOBFEQBWPAJ","3UUIU9GZC5R93N292LT21FRJ9VS5TN","","null","<img src=""img/flower3.png"" style=""width:200px;border:14px solid red;"">","null","","","","","","","","",""
"","image-keyboard-response","226","93112","0.0-226.0","37Z929RLGAUCV9YE5JBCJ9XZVYMTSQ","A2OYOBFEQBWPAJ","3UUIU9GZC5R93N292LT21FRJ9VS5TN","","102.5","img/flower1.png","76","103.90000000596046","3","0","1","1","1,0.333,0.333,0.333,1,0.333,0.333,0.333,1","1,0.333,0.333,0.333,1,0.333,0.333,0.333,1","1",""
"","html-keyboard-response","227","93416","0.0-227.0","37Z929RLGAUCV9YE5JBCJ9XZVYMTSQ","A2OYOBFEQBWPAJ","3UUIU9GZC5R93N292LT21FRJ9VS5TN","","null","<img src=""img/flower1.png"" style=""width:200px;border:14px solid red;"">","null","","","","","","","","",""
"","image-keyboard-response","228","93985","0.0-228.0","37Z929RLGAUCV9YE5JBCJ9XZVYMTSQ","A2OYOBFEQBWPAJ","3UUIU9GZC5R93N292LT21FRJ9VS5TN","","567","img/flower3.png","74","568.4000000059605","1","0","3","1","1,0.333,0.333,0.333,1,0.333,0.333,0.333,1","1,0.333,0.333,0.333,1,0.333,0.333,0.333,1","1",""
"","html-keyboard-response","229","94288","0.0-229.0","37Z929RLGAUCV9YE5JBCJ9XZVYMTSQ","A2OYOBFEQBWPAJ","3UUIU9GZC5R93N292LT21FRJ9VS5TN","","null","<img src=""img/flower3.png"" style=""width:200px;border:14px solid red;"">","null","","","","","","","","",""
"","image-keyboard-response","230","94839","0.0-230.0","37Z929RLGAUCV9YE5JBCJ9XZVYMTSQ","A2OYOBFEQBWPAJ","3UUIU9GZC5R93N292LT21FRJ9VS5TN","","549.5","img/flower1.png","74","551","1","1","1","1","1,0.333,0.333,0.333,1,0.333,0.333,0.333,1","1,0.333,0.333,0.333,1,0.333,0.333,0.333,1","1",""
"","html-keyboard-response","231","95144","0.0-231.0","37Z929RLGAUCV9YE5JBCJ9XZVYMTSQ","A2OYOBFEQBWPAJ","3UUIU9GZC5R93N292LT21FRJ9VS5TN","","null","<img src=""img/flower1.png"" style=""width:200px; border:14px solid green;"">","null","","","","","","","","",""
"","image-keyboard-response","232","95482","0.0-232.0","37Z929RLGAUCV9YE5JBCJ9XZVYMTSQ","A2OYOBFEQBWPAJ","3UUIU9GZC5R93N292LT21FRJ9VS5TN","","336.80000001192093","img/flower1.png","74","337.90000000596046","1","1","1","1","1,0.333,0.333,0.333,1,0.333,0.333,0.333,1","1,0.333,0.333,0.333,1,0.333,0.333,0.333,1","1",""
"","html-keyboard-response","233","95792","0.0-233.0","37Z929RLGAUCV9YE5JBCJ9XZVYMTSQ","A2OYOBFEQBWPAJ","3UUIU9GZC5R93N292LT21FRJ9VS5TN","","null","<img src=""img/flower1.png"" style=""width:200px; border:14px solid green;"">","null","","","","","","","","",""
"","image-keyboard-response","234","96841","0.0-234.0","37Z929RLGAUCV9YE5JBCJ9XZVYMTSQ","A2OYOBFEQBWPAJ","3UUIU9GZC5R93N292LT21FRJ9VS5TN","","1047.4000000059605","img/flower6.png","74","1048.699999988079","1","0","2","1","1,0.333,0.333,0.333,1,0.333,0.333,0.333,1","1,0.333,0.333,0.333,1,0.333,0.333,0.333,1","1",""
"","html-keyboard-response","235","97144","0.0-235.0","37Z929RLGAUCV9YE5JBCJ9XZVYMTSQ","A2OYOBFEQBWPAJ","3UUIU9GZC5R93N292LT21FRJ9VS5TN","","null","<img src=""img/flower6.png"" style=""width:200px;border:14px solid red;"">","null","","","","","","","","",""
"","image-keyboard-response","236","97714","0.0-236.0","37Z929RLGAUCV9YE5JBCJ9XZVYMTSQ","A2OYOBFEQBWPAJ","3UUIU9GZC5R93N292LT21FRJ9VS5TN","","568.9000000059605","img/flower6.png","75","570.1999999880791","2","1","2","1","1,0.333,0.333,0.333,1,0.333,0.333,0.333,1","1,0.333,0.333,0.333,1,0.333,0.333,0.333,1","1",""
"","html-keyboard-response","237","98024","0.0-237.0","37Z929RLGAUCV9YE5JBCJ9XZVYMTSQ","A2OYOBFEQBWPAJ","3UUIU9GZC5R93N292LT21FRJ9VS5TN","","null","<img src=""img/flower6.png"" style=""width:200px; border:14px solid green;"">","null","","","","","","","","",""
"","image-keyboard-response","238","98404","0.0-238.0","37Z929RLGAUCV9YE5JBCJ9XZVYMTSQ","A2OYOBFEQBWPAJ","3UUIU9GZC5R93N292LT21FRJ9VS5TN","","378.09999999403954","img/flower6.png","75","379.5","2","1","2","1","1,0.333,0.333,0.333,1,0.333,0.333,0.333,1","1,0.333,0.333,0.333,1,0.333,0.333,0.333,1","1",""
"","html-keyboard-response","239","98712","0.0-239.0","37Z929RLGAUCV9YE5JBCJ9XZVYMTSQ","A2OYOBFEQBWPAJ","3UUIU9GZC5R93N292LT21FRJ9VS5TN","","null","<img src=""img/flower6.png"" style=""width:200px; border:14px solid green;"">","null","","","","","","","","",""
"","image-keyboard-response","240","98981","0.0-240.0","37Z929RLGAUCV9YE5JBCJ9XZVYMTSQ","A2OYOBFEQBWPAJ","3UUIU9GZC5R93N292LT21FRJ9VS5TN","","267.5","img/flower6.png","75","268.7000000178814","2","1","2","1","1,0.333,0.333,0.333,1,0.333,0.333,0.333,1","1,0.333,0.333,0.333,1,0.333,0.333,0.333,1","1",""
"","html-keyboard-response","241","99288","0.0-241.0","37Z929RLGAUCV9YE5JBCJ9XZVYMTSQ","A2OYOBFEQBWPAJ","3UUIU9GZC5R93N292LT21FRJ9VS5TN","","null","<img src=""img/flower6.png"" style=""width:200px; border:14px solid green;"">","null","","","","","","","","",""
"","image-keyboard-response","242","100049","0.0-242.0","37Z929RLGAUCV9YE5JBCJ9XZVYMTSQ","A2OYOBFEQBWPAJ","3UUIU9GZC5R93N292LT21FRJ9VS5TN","","758.8999999761581","img/flower1.png","74","760.5","1","1","1","1","1,0.333,0.333,0.333,1,0.333,0.333,0.333,1","1,0.333,0.333,0.333,1,0.333,0.333,0.333,1","1",""
"","html-keyboard-response","243","100352","0.0-243.0","37Z929RLGAUCV9YE5JBCJ9XZVYMTSQ","A2OYOBFEQBWPAJ","3UUIU9GZC5R93N292LT21FRJ9VS5TN","","null","<img src=""img/flower1.png"" style=""width:200px; border:14px solid green;"">","null","","","","","","","","",""
"","image-keyboard-response","244","101022","0.0-244.0","37Z929RLGAUCV9YE5JBCJ9XZVYMTSQ","A2OYOBFEQBWPAJ","3UUIU9GZC5R93N292LT21FRJ9VS5TN","","668.5999999940395","img/flower3.png","75","669.8000000119209","2","0","3","1","1,0.333,0.333,0.333,1,0.333,0.333,0.333,1","1,0.333,0.333,0.333,1,0.333,0.333,0.333,1","1",""
"","html-keyboard-response","245","101328","0.0-245.0","37Z929RLGAUCV9YE5JBCJ9XZVYMTSQ","A2OYOBFEQBWPAJ","3UUIU9GZC5R93N292LT21FRJ9VS5TN","","null","<img src=""img/flower3.png"" style=""width:200px;border:14px solid red;"">","null","","","","","","","","",""
"","image-keyboard-response","246","101981","0.0-246.0","37Z929RLGAUCV9YE5JBCJ9XZVYMTSQ","A2OYOBFEQBWPAJ","3UUIU9GZC5R93N292LT21FRJ9VS5TN","","651.0999999940395","img/flower6.png","74","652.5","1","0","2","1","1,0.333,0.333,0.333,1,0.333,0.333,0.333,1","1,0.333,0.333,0.333,1,0.333,0.333,0.333,1","1",""
"","html-keyboard-response","247","102288","0.0-247.0","37Z929RLGAUCV9YE5JBCJ9XZVYMTSQ","A2OYOBFEQBWPAJ","3UUIU9GZC5R93N292LT21FRJ9VS5TN","","null","<img src=""img/flower6.png"" style=""width:200px;border:14px solid red;"">","null","","","","","","","","",""
"","image-keyboard-response","248","102684","0.0-248.0","37Z929RLGAUCV9YE5JBCJ9XZVYMTSQ","A2OYOBFEQBWPAJ","3UUIU9GZC5R93N292LT21FRJ9VS5TN","","394","img/flower6.png","75","395.59999999403954","2","1","2","1","1,0.333,0.333,0.333,1,0.333,0.333,0.333,1","1,0.333,0.333,0.333,1,0.333,0.333,0.333,1","1",""
"","html-keyboard-response","249","102992","0.0-249.0","37Z929RLGAUCV9YE5JBCJ9XZVYMTSQ","A2OYOBFEQBWPAJ","3UUIU9GZC5R93N292LT21FRJ9VS5TN","","null","<img src=""img/flower6.png"" style=""width:200px; border:14px solid green;"">","null","","","","","","","","",""
"","image-keyboard-response","250","103829","0.0-250.0","37Z929RLGAUCV9YE5JBCJ9XZVYMTSQ","A2OYOBFEQBWPAJ","3UUIU9GZC5R93N292LT21FRJ9VS5TN","","835.4000000059605","img/flower1.png","76","836.9000000059605","3","0","1","1","1,0.333,0.333,0.333,1,0.333,0.333,0.333,1","1,0.333,0.333,0.333,1,0.333,0.333,0.333,1","1",""
"","html-keyboard-response","251","104136","0.0-251.0","37Z929RLGAUCV9YE5JBCJ9XZVYMTSQ","A2OYOBFEQBWPAJ","3UUIU9GZC5R93N292LT21FRJ9VS5TN","","null","<img src=""img/flower1.png"" style=""width:200px;border:14px solid red;"">","null","","","","","","","","",""
"","image-keyboard-response","252","105327","0.0-252.0","37Z929RLGAUCV9YE5JBCJ9XZVYMTSQ","A2OYOBFEQBWPAJ","3UUIU9GZC5R93N292LT21FRJ9VS5TN","","1190.0999999940395","img/flower3.png","75","1191.199999988079","2","0","3","1","1,0.333,0.333,0.333,1,0.333,0.333,0.333,1","1,0.333,0.333,0.333,1,0.333,0.333,0.333,1","1",""
"","html-keyboard-response","253","105632","0.0-253.0","37Z929RLGAUCV9YE5JBCJ9XZVYMTSQ","A2OYOBFEQBWPAJ","3UUIU9GZC5R93N292LT21FRJ9VS5TN","","null","<img src=""img/flower3.png"" style=""width:200px;border:14px solid red;"">","null","","","","","","","","",""
"","image-keyboard-response","254","106456","0.0-254.0","37Z929RLGAUCV9YE5JBCJ9XZVYMTSQ","A2OYOBFEQBWPAJ","3UUIU9GZC5R93N292LT21FRJ9VS5TN","","822.6000000238419","img/flower1.png","75","824.0999999940395","2","0","1","1","1,0.333,0.333,0.333,1,0.333,0.333,0.333,1","1,0.333,0.333,0.333,1,0.333,0.333,0.333,1","1",""
"","html-keyboard-response","255","106760","0.0-255.0","37Z929RLGAUCV9YE5JBCJ9XZVYMTSQ","A2OYOBFEQBWPAJ","3UUIU9GZC5R93N292LT21FRJ9VS5TN","","null","<img src=""img/flower1.png"" style=""width:200px;border:14px solid red;"">","null","","","","","","","","",""
"","image-keyboard-response","256","107475","0.0-256.0","37Z929RLGAUCV9YE5JBCJ9XZVYMTSQ","A2OYOBFEQBWPAJ","3UUIU9GZC5R93N292LT21FRJ9VS5TN","","713.0999999940395","img/flower6.png","74","714.4000000059605","1","0","2","1","1,0.333,0.333,0.333,1,0.333,0.333,0.333,1","1,0.333,0.333,0.333,1,0.333,0.333,0.333,1","1",""
"","html-keyboard-response","257","107784","0.0-257.0","37Z929RLGAUCV9YE5JBCJ9XZVYMTSQ","A2OYOBFEQBWPAJ","3UUIU9GZC5R93N292LT21FRJ9VS5TN","","null","<img src=""img/flower6.png"" style=""width:200px;border:14px solid red;"">","null","","","","","","","","",""
"","image-keyboard-response","258","108380","0.0-258.0","37Z929RLGAUCV9YE5JBCJ9XZVYMTSQ","A2OYOBFEQBWPAJ","3UUIU9GZC5R93N292LT21FRJ9VS5TN","","594.6999999880791","img/flower3.png","75","596","2","0","3","1","1,0.333,0.333,0.333,1,0.333,0.333,0.333,1","1,0.333,0.333,0.333,1,0.333,0.333,0.333,1","1",""
"","html-keyboard-response","259","108688","0.0-259.0","37Z929RLGAUCV9YE5JBCJ9XZVYMTSQ","A2OYOBFEQBWPAJ","3UUIU9GZC5R93N292LT21FRJ9VS5TN","","null","<img src=""img/flower3.png"" style=""width:200px;border:14px solid red;"">","null","","","","","","","","",""
"","image-keyboard-response","260","109061","0.0-260.0","37Z929RLGAUCV9YE5JBCJ9XZVYMTSQ","A2OYOBFEQBWPAJ","3UUIU9GZC5R93N292LT21FRJ9VS5TN","","370.80000001192093","img/flower3.png","76","372.40000000596046","3","1","3","1","1,0.333,0.333,0.333,1,0.333,0.333,0.333,1","1,0.333,0.333,0.333,1,0.333,0.333,0.333,1","1",""
"","html-keyboard-response","261","109368","0.0-261.0","37Z929RLGAUCV9YE5JBCJ9XZVYMTSQ","A2OYOBFEQBWPAJ","3UUIU9GZC5R93N292LT21FRJ9VS5TN","","null","<img src=""img/flower3.png"" style=""width:200px; border:14px solid green;"">","null","","","","","","","","",""
"","image-keyboard-response","262","109694","0.0-262.0","37Z929RLGAUCV9YE5JBCJ9XZVYMTSQ","A2OYOBFEQBWPAJ","3UUIU9GZC5R93N292LT21FRJ9VS5TN","","324.59999999403954","img/flower3.png","76","325.80000001192093","3","1","3","1","1,0.333,0.333,0.333,1,0.333,0.333,0.333,1","1,0.333,0.333,0.333,1,0.333,0.333,0.333,1","1",""
"","html-keyboard-response","263","110000","0.0-263.0","37Z929RLGAUCV9YE5JBCJ9XZVYMTSQ","A2OYOBFEQBWPAJ","3UUIU9GZC5R93N292LT21FRJ9VS5TN","","null","<img src=""img/flower3.png"" style=""width:200px; border:14px solid green;"">","null","","","","","","","","",""
"","image-keyboard-response","264","110143","0.0-264.0","37Z929RLGAUCV9YE5JBCJ9XZVYMTSQ","A2OYOBFEQBWPAJ","3UUIU9GZC5R93N292LT21FRJ9VS5TN","","141.80000001192093","img/flower1.png","76","143.2999999821186","3","0","1","1","1,0.333,0.333,0.333,1,0.333,0.333,0.333,1","1,0.333,0.333,0.333,1,0.333,0.333,0.333,1","1",""
"","html-keyboard-response","265","110448","0.0-265.0","37Z929RLGAUCV9YE5JBCJ9XZVYMTSQ","A2OYOBFEQBWPAJ","3UUIU9GZC5R93N292LT21FRJ9VS5TN","","null","<img src=""img/flower1.png"" style=""width:200px;border:14px solid red;"">","null","","","","","","","","",""
"","image-keyboard-response","266","110974","0.0-266.0","37Z929RLGAUCV9YE5JBCJ9XZVYMTSQ","A2OYOBFEQBWPAJ","3UUIU9GZC5R93N292LT21FRJ9VS5TN","","524.7000000178814","img/flower1.png","74","526.1000000238419","1","1","1","1","1,0.333,0.333,0.333,1,0.333,0.333,0.333,1","1,0.333,0.333,0.333,1,0.333,0.333,0.333,1","1",""
"","html-keyboard-response","267","111281","0.0-267.0","37Z929RLGAUCV9YE5JBCJ9XZVYMTSQ","A2OYOBFEQBWPAJ","3UUIU9GZC5R93N292LT21FRJ9VS5TN","","null","<img src=""img/flower1.png"" style=""width:200px; border:14px solid green;"">","null","","","","","","","","",""
"","image-keyboard-response","268","112530","0.0-268.0","37Z929RLGAUCV9YE5JBCJ9XZVYMTSQ","A2OYOBFEQBWPAJ","3UUIU9GZC5R93N292LT21FRJ9VS5TN","","1247.800000011921","img/flower6.png","75","1249.5","2","1","2","1","1,0.333,0.333,0.333,1,0.333,0.333,0.333,1","1,0.333,0.333,0.333,1,0.333,0.333,0.333,1","1",""
"","html-keyboard-response","269","112840","0.0-269.0","37Z929RLGAUCV9YE5JBCJ9XZVYMTSQ","A2OYOBFEQBWPAJ","3UUIU9GZC5R93N292LT21FRJ9VS5TN","","null","<img src=""img/flower6.png"" style=""width:200px; border:14px solid green;"">","null","","","","","","","","",""
"","image-keyboard-response","270","113571","0.0-270.0","37Z929RLGAUCV9YE5JBCJ9XZVYMTSQ","A2OYOBFEQBWPAJ","3UUIU9GZC5R93N292LT21FRJ9VS5TN","","729.9000000059605","img/flower3.png","74","731.1999999880791","1","0","3","1","1,0.333,0.333,0.333,1,0.333,0.333,0.333,1","1,0.333,0.333,0.333,1,0.333,0.333,0.333,1","1",""
"","html-keyboard-response","271","113880","0.0-271.0","37Z929RLGAUCV9YE5JBCJ9XZVYMTSQ","A2OYOBFEQBWPAJ","3UUIU9GZC5R93N292LT21FRJ9VS5TN","","null","<img src=""img/flower3.png"" style=""width:200px;border:14px solid red;"">","null","","","","","","","","",""
"","image-keyboard-response","272","114186","0.0-272.0","37Z929RLGAUCV9YE5JBCJ9XZVYMTSQ","A2OYOBFEQBWPAJ","3UUIU9GZC5R93N292LT21FRJ9VS5TN","","304.40000000596046","img/flower3.png","76","306","3","1","3","1","1,0.333,0.333,0.333,1,0.333,0.333,0.333,1","1,0.333,0.333,0.333,1,0.333,0.333,0.333,1","1",""
"","html-keyboard-response","273","114488","0.0-273.0","37Z929RLGAUCV9YE5JBCJ9XZVYMTSQ","A2OYOBFEQBWPAJ","3UUIU9GZC5R93N292LT21FRJ9VS5TN","","null","<img src=""img/flower3.png"" style=""width:200px; border:14px solid green;"">","null","","","","","","","","",""
"","image-keyboard-response","274","114794","0.0-274.0","37Z929RLGAUCV9YE5JBCJ9XZVYMTSQ","A2OYOBFEQBWPAJ","3UUIU9GZC5R93N292LT21FRJ9VS5TN","","303.39999997615814","img/flower3.png","76","305","3","1","3","1","1,0.333,0.333,0.333,1,0.333,0.333,0.333,1","1,0.333,0.333,0.333,1,0.333,0.333,0.333,1","1",""
"","html-keyboard-response","275","115096","0.0-275.0","37Z929RLGAUCV9YE5JBCJ9XZVYMTSQ","A2OYOBFEQBWPAJ","3UUIU9GZC5R93N292LT21FRJ9VS5TN","","null","<img src=""img/flower3.png"" style=""width:200px; border:14px solid green;"">","null","","","","","","","","",""
"","image-keyboard-response","276","116370","0.0-276.0","37Z929RLGAUCV9YE5JBCJ9XZVYMTSQ","A2OYOBFEQBWPAJ","3UUIU9GZC5R93N292LT21FRJ9VS5TN","","1272.4000000059605","img/flower1.png","74","1274.199999988079","1","1","1","1","1,0.333,0.333,0.333,1,0.333,0.333,0.333,1","1,0.333,0.333,0.333,1,0.333,0.333,0.333,1","1",""
"","html-keyboard-response","277","116672","0.0-277.0","37Z929RLGAUCV9YE5JBCJ9XZVYMTSQ","A2OYOBFEQBWPAJ","3UUIU9GZC5R93N292LT21FRJ9VS5TN","","null","<img src=""img/flower1.png"" style=""width:200px; border:14px solid green;"">","null","","","","","","","","",""
"","image-keyboard-response","278","116939","0.0-278.0","37Z929RLGAUCV9YE5JBCJ9XZVYMTSQ","A2OYOBFEQBWPAJ","3UUIU9GZC5R93N292LT21FRJ9VS5TN","","265.5","img/flower1.png","74","266.90000000596046","1","1","1","1","1,0.333,0.333,0.333,1,0.333,0.333,0.333,1","1,0.333,0.333,0.333,1,0.333,0.333,0.333,1","1",""
"","html-keyboard-response","279","117248","0.0-279.0","37Z929RLGAUCV9YE5JBCJ9XZVYMTSQ","A2OYOBFEQBWPAJ","3UUIU9GZC5R93N292LT21FRJ9VS5TN","","null","<img src=""img/flower1.png"" style=""width:200px; border:14px solid green;"">","null","","","","","","","","",""
"","image-keyboard-response","280","117412","0.0-280.0","37Z929RLGAUCV9YE5JBCJ9XZVYMTSQ","A2OYOBFEQBWPAJ","3UUIU9GZC5R93N292LT21FRJ9VS5TN","","161.7000000178814","img/flower3.png","74","163.40000000596046","1","1","3","1","1,0.333,0.333,0.333,1,0.333,0.333,0.333,1","1,0.333,0.333,0.333,1,0.333,0.333,0.333,1","1",""
"","html-keyboard-response","281","117720","0.0-281.0","37Z929RLGAUCV9YE5JBCJ9XZVYMTSQ","A2OYOBFEQBWPAJ","3UUIU9GZC5R93N292LT21FRJ9VS5TN","","null","<img src=""img/flower3.png"" style=""width:200px; border:14px solid green;"">","null","","","","","","","","",""
"","image-keyboard-response","282","118768","0.0-282.0","37Z929RLGAUCV9YE5JBCJ9XZVYMTSQ","A2OYOBFEQBWPAJ","3UUIU9GZC5R93N292LT21FRJ9VS5TN","","1046.9000000059605","img/flower1.png","74","1048.0999999940395","1","1","1","1","1,0.333,0.333,0.333,1,0.333,0.333,0.333,1","1,0.333,0.333,0.333,1,0.333,0.333,0.333,1","1",""
"","html-keyboard-response","283","119072","0.0-283.0","37Z929RLGAUCV9YE5JBCJ9XZVYMTSQ","A2OYOBFEQBWPAJ","3UUIU9GZC5R93N292LT21FRJ9VS5TN","","null","<img src=""img/flower1.png"" style=""width:200px; border:14px solid green;"">","null","","","","","","","","",""
"","image-keyboard-response","284","119280","0.0-284.0","37Z929RLGAUCV9YE5JBCJ9XZVYMTSQ","A2OYOBFEQBWPAJ","3UUIU9GZC5R93N292LT21FRJ9VS5TN","","206","img/flower6.png","74","207.7000000178814","1","0","2","1","1,0.333,0.333,0.333,1,0.333,0.333,0.333,1","1,0.333,0.333,0.333,1,0.333,0.333,0.333,1","1",""
"","html-keyboard-response","285","119584","0.0-285.0","37Z929RLGAUCV9YE5JBCJ9XZVYMTSQ","A2OYOBFEQBWPAJ","3UUIU9GZC5R93N292LT21FRJ9VS5TN","","null","<img src=""img/flower6.png"" style=""width:200px;border:14px solid red;"">","null","","","","","","","","",""
"","image-keyboard-response","286","119973","0.0-286.0","37Z929RLGAUCV9YE5JBCJ9XZVYMTSQ","A2OYOBFEQBWPAJ","3UUIU9GZC5R93N292LT21FRJ9VS5TN","","387","img/flower6.png","75","388.69999998807907","2","1","2","1","1,0.333,0.333,0.333,1,0.333,0.333,0.333,1","1,0.333,0.333,0.333,1,0.333,0.333,0.333,1","1",""
"","html-keyboard-response","287","120280","0.0-287.0","37Z929RLGAUCV9YE5JBCJ9XZVYMTSQ","A2OYOBFEQBWPAJ","3UUIU9GZC5R93N292LT21FRJ9VS5TN","","null","<img src=""img/flower6.png"" style=""width:200px; border:14px solid green;"">","null","","","","","","","","",""
"","image-keyboard-response","288","120862","0.0-288.0","37Z929RLGAUCV9YE5JBCJ9XZVYMTSQ","A2OYOBFEQBWPAJ","3UUIU9GZC5R93N292LT21FRJ9VS5TN","","580.5","img/flower3.png","74","581.8000000119209","1","0","3","1","1,0.333,0.333,0.333,1,0.333,0.333,0.333,1","1,0.333,0.333,0.333,1,0.333,0.333,0.333,1","1",""
"","html-keyboard-response","289","121168","0.0-289.0","37Z929RLGAUCV9YE5JBCJ9XZVYMTSQ","A2OYOBFEQBWPAJ","3UUIU9GZC5R93N292LT21FRJ9VS5TN","","null","<img src=""img/flower3.png"" style=""width:200px;border:14px solid red;"">","null","","","","","","","","",""
"","image-keyboard-response","290","122069","0.0-290.0","37Z929RLGAUCV9YE5JBCJ9XZVYMTSQ","A2OYOBFEQBWPAJ","3UUIU9GZC5R93N292LT21FRJ9VS5TN","","898.9000000059605","img/flower1.png","75","900.5999999940395","2","1","1","1","1,0.333,0.333,0.333,1,0.333,0.333,0.333,1","1,0.333,0.333,0.333,1,0.333,0.333,0.333,1","1",""
"","html-keyboard-response","291","122376","0.0-291.0","37Z929RLGAUCV9YE5JBCJ9XZVYMTSQ","A2OYOBFEQBWPAJ","3UUIU9GZC5R93N292LT21FRJ9VS5TN","","null","<img src=""img/flower1.png"" style=""width:200px; border:14px solid green;"">","null","","","","","","","","",""
"","image-keyboard-response","292","123358","0.0-292.0","37Z929RLGAUCV9YE5JBCJ9XZVYMTSQ","A2OYOBFEQBWPAJ","3UUIU9GZC5R93N292LT21FRJ9VS5TN","","980.3000000119209","img/flower6.png","74","981.5","1","0","2","1","1,0.333,0.333,0.333,1,0.333,0.333,0.333,1","1,0.333,0.333,0.333,1,0.333,0.333,0.333,1","1",""
"","html-keyboard-response","293","123664","0.0-293.0","37Z929RLGAUCV9YE5JBCJ9XZVYMTSQ","A2OYOBFEQBWPAJ","3UUIU9GZC5R93N292LT21FRJ9VS5TN","","null","<img src=""img/flower6.png"" style=""width:200px;border:14px solid red;"">","null","","","","","","","","",""
"","image-keyboard-response","294","124141","0.0-294.0","37Z929RLGAUCV9YE5JBCJ9XZVYMTSQ","A2OYOBFEQBWPAJ","3UUIU9GZC5R93N292LT21FRJ9VS5TN","","475.30000001192093","img/flower3.png","75","476.69999998807907","2","0","3","1","1,0.333,0.333,0.333,1,0.333,0.333,0.333,1","1,0.333,0.333,0.333,1,0.333,0.333,0.333,1","1",""
"","html-keyboard-response","295","124448","0.0-295.0","37Z929RLGAUCV9YE5JBCJ9XZVYMTSQ","A2OYOBFEQBWPAJ","3UUIU9GZC5R93N292LT21FRJ9VS5TN","","null","<img src=""img/flower3.png"" style=""width:200px;border:14px solid red;"">","null","","","","","","","","",""
"","image-keyboard-response","296","125389","0.0-296.0","37Z929RLGAUCV9YE5JBCJ9XZVYMTSQ","A2OYOBFEQBWPAJ","3UUIU9GZC5R93N292LT21FRJ9VS5TN","","939.3000000119209","img/flower1.png","74","940.5999999940395","1","1","1","1","1,0.333,0.333,0.333,1,0.333,0.333,0.333,1","1,0.333,0.333,0.333,1,0.333,0.333,0.333,1","1",""
"","html-keyboard-response","297","125696","0.0-297.0","37Z929RLGAUCV9YE5JBCJ9XZVYMTSQ","A2OYOBFEQBWPAJ","3UUIU9GZC5R93N292LT21FRJ9VS5TN","","null","<img src=""img/flower1.png"" style=""width:200px; border:14px solid green;"">","null","","","","","","","","",""
"","image-keyboard-response","298","126465","0.0-298.0","37Z929RLGAUCV9YE5JBCJ9XZVYMTSQ","A2OYOBFEQBWPAJ","3UUIU9GZC5R93N292LT21FRJ9VS5TN","","768.2000000178814","img/flower3.png","76","769.5","3","1","3","1","1,0.333,0.333,0.333,1,0.333,0.333,0.333,1","1,0.333,0.333,0.333,1,0.333,0.333,0.333,1","1",""
"","html-keyboard-response","299","126768","0.0-299.0","37Z929RLGAUCV9YE5JBCJ9XZVYMTSQ","A2OYOBFEQBWPAJ","3UUIU9GZC5R93N292LT21FRJ9VS5TN","","null","<img src=""img/flower3.png"" style=""width:200px; border:14px solid green;"">","null","","","","","","","","",""
"","image-keyboard-response","300","127666","0.0-300.0","37Z929RLGAUCV9YE5JBCJ9XZVYMTSQ","A2OYOBFEQBWPAJ","3UUIU9GZC5R93N292LT21FRJ9VS5TN","","896.4000000059605","img/flower6.png","75","897.5999999940395","2","1","2","1","1,0.333,0.333,0.333,1,0.333,0.333,0.333,1","1,0.333,0.333,0.333,1,0.333,0.333,0.333,1","1",""
"","html-keyboard-response","301","127976","0.0-301.0","37Z929RLGAUCV9YE5JBCJ9XZVYMTSQ","A2OYOBFEQBWPAJ","3UUIU9GZC5R93N292LT21FRJ9VS5TN","","null","<img src=""img/flower6.png"" style=""width:200px; border:14px solid green;"">","null","","","","","","","","",""
"","image-keyboard-response","302","128619","0.0-302.0","37Z929RLGAUCV9YE5JBCJ9XZVYMTSQ","A2OYOBFEQBWPAJ","3UUIU9GZC5R93N292LT21FRJ9VS5TN","","641","img/flower1.png","74","642.3999999761581","1","1","1","1","1,0.333,0.333,0.333,1,0.333,0.333,0.333,1","1,0.333,0.333,0.333,1,0.333,0.333,0.333,1","1",""
"","html-keyboard-response","303","128928","0.0-303.0","37Z929RLGAUCV9YE5JBCJ9XZVYMTSQ","A2OYOBFEQBWPAJ","3UUIU9GZC5R93N292LT21FRJ9VS5TN","","null","<img src=""img/flower1.png"" style=""width:200px; border:14px solid green;"">","null","","","","","","","","",""
"","image-keyboard-response","304","129827","0.0-304.0","37Z929RLGAUCV9YE5JBCJ9XZVYMTSQ","A2OYOBFEQBWPAJ","3UUIU9GZC5R93N292LT21FRJ9VS5TN","","896.8999999761581","img/flower1.png","75","898.4000000059605","2","0","1","1","1,0.333,0.333,0.333,1,0.333,0.333,0.333,1","1,0.333,0.333,0.333,1,0.333,0.333,0.333,1","1",""
"","html-keyboard-response","305","130129","0.0-305.0","37Z929RLGAUCV9YE5JBCJ9XZVYMTSQ","A2OYOBFEQBWPAJ","3UUIU9GZC5R93N292LT21FRJ9VS5TN","","null","<img src=""img/flower1.png"" style=""width:200px;border:14px solid red;"">","null","","","","","","","","",""
"","image-keyboard-response","306","130852","0.0-306.0","37Z929RLGAUCV9YE5JBCJ9XZVYMTSQ","A2OYOBFEQBWPAJ","3UUIU9GZC5R93N292LT21FRJ9VS5TN","","721.7000000178814","img/flower3.png","74","723.1000000238419","1","0","3","1","1,0.333,0.333,0.333,1,0.333,0.333,0.333,1","1,0.333,0.333,0.333,1,0.333,0.333,0.333,1","1",""
"","html-keyboard-response","307","131160","0.0-307.0","37Z929RLGAUCV9YE5JBCJ9XZVYMTSQ","A2OYOBFEQBWPAJ","3UUIU9GZC5R93N292LT21FRJ9VS5TN","","null","<img src=""img/flower3.png"" style=""width:200px;border:14px solid red;"">","null","","","","","","","","",""
"","image-keyboard-response","308","131998","0.0-308.0","37Z929RLGAUCV9YE5JBCJ9XZVYMTSQ","A2OYOBFEQBWPAJ","3UUIU9GZC5R93N292LT21FRJ9VS5TN","","836.6999999880791","img/flower6.png","75","838","2","1","2","1","1,0.333,0.333,0.333,1,0.333,0.333,0.333,1","1,0.333,0.333,0.333,1,0.333,0.333,0.333,1","1",""
"","html-keyboard-response","309","132304","0.0-309.0","37Z929RLGAUCV9YE5JBCJ9XZVYMTSQ","A2OYOBFEQBWPAJ","3UUIU9GZC5R93N292LT21FRJ9VS5TN","","null","<img src=""img/flower6.png"" style=""width:200px; border:14px solid green;"">","null","","","","","","","","",""
"","image-keyboard-response","310","132731","0.0-310.0","37Z929RLGAUCV9YE5JBCJ9XZVYMTSQ","A2OYOBFEQBWPAJ","3UUIU9GZC5R93N292LT21FRJ9VS5TN","","424.90000000596046","img/flower6.png","75","426.40000000596046","2","1","2","1","1,0.333,0.333,0.333,1,0.333,0.333,0.333,1","1,0.333,0.333,0.333,1,0.333,0.333,0.333,1","1",""
"","html-keyboard-response","311","133040","0.0-311.0","37Z929RLGAUCV9YE5JBCJ9XZVYMTSQ","A2OYOBFEQBWPAJ","3UUIU9GZC5R93N292LT21FRJ9VS5TN","","null","<img src=""img/flower6.png"" style=""width:200px; border:14px solid green;"">","null","","","","","","","","",""
"","image-keyboard-response","312","133308","0.0-312.0","37Z929RLGAUCV9YE5JBCJ9XZVYMTSQ","A2OYOBFEQBWPAJ","3UUIU9GZC5R93N292LT21FRJ9VS5TN","","265.7000000178814","img/flower6.png","75","267.19999998807907","2","1","2","1","1,0.333,0.333,0.333,1,0.333,0.333,0.333,1","1,0.333,0.333,0.333,1,0.333,0.333,0.333,1","1",""
"","html-keyboard-response","313","133616","0.0-313.0","37Z929RLGAUCV9YE5JBCJ9XZVYMTSQ","A2OYOBFEQBWPAJ","3UUIU9GZC5R93N292LT21FRJ9VS5TN","","null","<img src=""img/flower6.png"" style=""width:200px; border:14px solid green;"">","null","","","","","","","","",""
"","image-keyboard-response","314","134317","0.0-314.0","37Z929RLGAUCV9YE5JBCJ9XZVYMTSQ","A2OYOBFEQBWPAJ","3UUIU9GZC5R93N292LT21FRJ9VS5TN","","699.3000000119209","img/flower3.png","76","700.6999999880791","3","1","3","1","1,0.333,0.333,0.333,1,0.333,0.333,0.333,1","1,0.333,0.333,0.333,1,0.333,0.333,0.333,1","1",""
"","html-keyboard-response","315","134624","0.0-315.0","37Z929RLGAUCV9YE5JBCJ9XZVYMTSQ","A2OYOBFEQBWPAJ","3UUIU9GZC5R93N292LT21FRJ9VS5TN","","null","<img src=""img/flower3.png"" style=""width:200px; border:14px solid green;"">","null","","","","","","","","",""
"","image-keyboard-response","316","135492","0.0-316.0","37Z929RLGAUCV9YE5JBCJ9XZVYMTSQ","A2OYOBFEQBWPAJ","3UUIU9GZC5R93N292LT21FRJ9VS5TN","","866.2000000178814","img/flower1.png","74","867.5999999940395","1","1","1","1","1,0.333,0.333,0.333,1,0.333,0.333,0.333,1","1,0.333,0.333,0.333,1,0.333,0.333,0.333,1","1",""
"","html-keyboard-response","317","135800","0.0-317.0","37Z929RLGAUCV9YE5JBCJ9XZVYMTSQ","A2OYOBFEQBWPAJ","3UUIU9GZC5R93N292LT21FRJ9VS5TN","","null","<img src=""img/flower1.png"" style=""width:200px; border:14px solid green;"">","null","","","","","","","","",""
"","image-keyboard-response","318","136126","0.0-318.0","37Z929RLGAUCV9YE5JBCJ9XZVYMTSQ","A2OYOBFEQBWPAJ","3UUIU9GZC5R93N292LT21FRJ9VS5TN","","324.5","img/flower1.png","74","326","1","1","1","1","1,0.333,0.333,0.333,1,0.333,0.333,0.333,1","1,0.333,0.333,0.333,1,0.333,0.333,0.333,1","1",""
"","html-keyboard-response","319","136433","0.0-319.0","37Z929RLGAUCV9YE5JBCJ9XZVYMTSQ","A2OYOBFEQBWPAJ","3UUIU9GZC5R93N292LT21FRJ9VS5TN","","null","<img src=""img/flower1.png"" style=""width:200px; border:14px solid green;"">","null","","","","","","","","",""
"","image-keyboard-response","320","137137","0.0-320.0","37Z929RLGAUCV9YE5JBCJ9XZVYMTSQ","A2OYOBFEQBWPAJ","3UUIU9GZC5R93N292LT21FRJ9VS5TN","","702.7999999821186","img/flower6.png","75","704.0999999940395","2","1","2","1","1,0.333,0.333,0.333,1,0.333,0.333,0.333,1","1,0.333,0.333,0.333,1,0.333,0.333,0.333,1","1",""
"","html-keyboard-response","321","137440","0.0-321.0","37Z929RLGAUCV9YE5JBCJ9XZVYMTSQ","A2OYOBFEQBWPAJ","3UUIU9GZC5R93N292LT21FRJ9VS5TN","","null","<img src=""img/flower6.png"" style=""width:200px; border:14px solid green;"">","null","","","","","","","","",""
"","image-keyboard-response","322","137741","0.0-322.0","37Z929RLGAUCV9YE5JBCJ9XZVYMTSQ","A2OYOBFEQBWPAJ","3UUIU9GZC5R93N292LT21FRJ9VS5TN","","299","img/flower6.png","75","300.59999999403954","2","1","2","1","1,0.333,0.333,0.333,1,0.333,0.333,0.333,1","1,0.333,0.333,0.333,1,0.333,0.333,0.333,1","1",""
"","html-keyboard-response","323","138049","0.0-323.0","37Z929RLGAUCV9YE5JBCJ9XZVYMTSQ","A2OYOBFEQBWPAJ","3UUIU9GZC5R93N292LT21FRJ9VS5TN","","null","<img src=""img/flower6.png"" style=""width:200px; border:14px solid green;"">","null","","","","","","","","",""
"","image-keyboard-response","324","138297","0.0-324.0","37Z929RLGAUCV9YE5JBCJ9XZVYMTSQ","A2OYOBFEQBWPAJ","3UUIU9GZC5R93N292LT21FRJ9VS5TN","","246.7999999821186","img/flower6.png","75","248.19999998807907","2","1","2","1","1,0.333,0.333,0.333,1,0.333,0.333,0.333,1","1,0.333,0.333,0.333,1,0.333,0.333,0.333,1","1",""
"","html-keyboard-response","325","138600","0.0-325.0","37Z929RLGAUCV9YE5JBCJ9XZVYMTSQ","A2OYOBFEQBWPAJ","3UUIU9GZC5R93N292LT21FRJ9VS5TN","","null","<img src=""img/flower6.png"" style=""width:200px; border:14px solid green;"">","null","","","","","","","","",""
"","image-keyboard-response","326","138900","0.0-326.0","37Z929RLGAUCV9YE5JBCJ9XZVYMTSQ","A2OYOBFEQBWPAJ","3UUIU9GZC5R93N292LT21FRJ9VS5TN","","298.89999997615814","img/flower6.png","75","300.19999998807907","2","1","2","1","1,0.333,0.333,0.333,1,0.333,0.333,0.333,1","1,0.333,0.333,0.333,1,0.333,0.333,0.333,1","1",""
"","html-keyboard-response","327","139208","0.0-327.0","37Z929RLGAUCV9YE5JBCJ9XZVYMTSQ","A2OYOBFEQBWPAJ","3UUIU9GZC5R93N292LT21FRJ9VS5TN","","null","<img src=""img/flower6.png"" style=""width:200px; border:14px solid green;"">","null","","","","","","","","",""
"","image-keyboard-response","328","139492","0.0-328.0","37Z929RLGAUCV9YE5JBCJ9XZVYMTSQ","A2OYOBFEQBWPAJ","3UUIU9GZC5R93N292LT21FRJ9VS5TN","","282.09999999403954","img/flower6.png","75","283.40000000596046","2","1","2","1","1,0.333,0.333,0.333,1,0.333,0.333,0.333,1","1,0.333,0.333,0.333,1,0.333,0.333,0.333,1","1",""
"","html-keyboard-response","329","139800","0.0-329.0","37Z929RLGAUCV9YE5JBCJ9XZVYMTSQ","A2OYOBFEQBWPAJ","3UUIU9GZC5R93N292LT21FRJ9VS5TN","","null","<img src=""img/flower6.png"" style=""width:200px; border:14px solid green;"">","null","","","","","","","","",""
"","image-keyboard-response","330","139955","0.0-330.0","37Z929RLGAUCV9YE5JBCJ9XZVYMTSQ","A2OYOBFEQBWPAJ","3UUIU9GZC5R93N292LT21FRJ9VS5TN","","153.40000000596046","img/flower3.png","75","154.69999998807907","2","0","3","1","1,0.333,0.333,0.333,1,0.333,0.333,0.333,1","1,0.333,0.333,0.333,1,0.333,0.333,0.333,1","1",""
"","html-keyboard-response","331","140264","0.0-331.0","37Z929RLGAUCV9YE5JBCJ9XZVYMTSQ","A2OYOBFEQBWPAJ","3UUIU9GZC5R93N292LT21FRJ9VS5TN","","null","<img src=""img/flower3.png"" style=""width:200px;border:14px solid red;"">","null","","","","","","","","",""
"","image-keyboard-response","332","140591","0.0-332.0","37Z929RLGAUCV9YE5JBCJ9XZVYMTSQ","A2OYOBFEQBWPAJ","3UUIU9GZC5R93N292LT21FRJ9VS5TN","","325.2999999821186","img/flower3.png","76","327","3","1","3","1","1,0.333,0.333,0.333,1,0.333,0.333,0.333,1","1,0.333,0.333,0.333,1,0.333,0.333,0.333,1","1",""
"","html-keyboard-response","333","140904","0.0-333.0","37Z929RLGAUCV9YE5JBCJ9XZVYMTSQ","A2OYOBFEQBWPAJ","3UUIU9GZC5R93N292LT21FRJ9VS5TN","","null","<img src=""img/flower3.png"" style=""width:200px; border:14px solid green;"">","null","","","","","","","","",""
"","image-keyboard-response","334","141156","0.0-334.0","37Z929RLGAUCV9YE5JBCJ9XZVYMTSQ","A2OYOBFEQBWPAJ","3UUIU9GZC5R93N292LT21FRJ9VS5TN","","250.30000001192093","img/flower3.png","76","251.59999999403954","3","1","3","1","1,0.333,0.333,0.333,1,0.333,0.333,0.333,1","1,0.333,0.333,0.333,1,0.333,0.333,0.333,1","1",""
"","html-keyboard-response","335","141458","0.0-335.0","37Z929RLGAUCV9YE5JBCJ9XZVYMTSQ","A2OYOBFEQBWPAJ","3UUIU9GZC5R93N292LT21FRJ9VS5TN","","null","<img src=""img/flower3.png"" style=""width:200px; border:14px solid green;"">","null","","","","","","","","",""
"","image-keyboard-response","336","141726","0.0-336.0","37Z929RLGAUCV9YE5JBCJ9XZVYMTSQ","A2OYOBFEQBWPAJ","3UUIU9GZC5R93N292LT21FRJ9VS5TN","","265.80000001192093","img/flower3.png","76","267.19999998807907","3","1","3","1","1,0.333,0.333,0.333,1,0.333,0.333,0.333,1","1,0.333,0.333,0.333,1,0.333,0.333,0.333,1","1",""
"","html-keyboard-response","337","142032","0.0-337.0","37Z929RLGAUCV9YE5JBCJ9XZVYMTSQ","A2OYOBFEQBWPAJ","3UUIU9GZC5R93N292LT21FRJ9VS5TN","","null","<img src=""img/flower3.png"" style=""width:200px; border:14px solid green;"">","null","","","","","","","","",""
"","image-keyboard-response","338","143047","0.0-338.0","37Z929RLGAUCV9YE5JBCJ9XZVYMTSQ","A2OYOBFEQBWPAJ","3UUIU9GZC5R93N292LT21FRJ9VS5TN","","1012.7000000178814","img/flower6.png","75","1014.2999999821186","2","1","2","1","1,0.333,0.333,0.333,1,0.333,0.333,0.333,1","1,0.333,0.333,0.333,1,0.333,0.333,0.333,1","1",""
"","html-keyboard-response","339","143352","0.0-339.0","37Z929RLGAUCV9YE5JBCJ9XZVYMTSQ","A2OYOBFEQBWPAJ","3UUIU9GZC5R93N292LT21FRJ9VS5TN","","null","<img src=""img/flower6.png"" style=""width:200px; border:14px solid green;"">","null","","","","","","","","",""
"","image-keyboard-response","340","144136","0.0-340.0","37Z929RLGAUCV9YE5JBCJ9XZVYMTSQ","A2OYOBFEQBWPAJ","3UUIU9GZC5R93N292LT21FRJ9VS5TN","","782.9000000059605","img/flower1.png","74","784.5","1","1","1","1","1,0.333,0.333,0.333,1,0.333,0.333,0.333,1","1,0.333,0.333,0.333,1,0.333,0.333,0.333,1","1",""
"","html-keyboard-response","341","144440","0.0-341.0","37Z929RLGAUCV9YE5JBCJ9XZVYMTSQ","A2OYOBFEQBWPAJ","3UUIU9GZC5R93N292LT21FRJ9VS5TN","","null","<img src=""img/flower1.png"" style=""width:200px; border:14px solid green;"">","null","","","","","","","","",""
"","image-keyboard-response","342","145372","0.0-342.0","37Z929RLGAUCV9YE5JBCJ9XZVYMTSQ","A2OYOBFEQBWPAJ","3UUIU9GZC5R93N292LT21FRJ9VS5TN","","930.8000000119209","img/flower3.png","75","932.0999999940395","2","1","3","1","1,0.333,0.333,0.333,1,0.333,0.333,0.333,1","1,0.333,0.333,0.333,1,0.333,0.333,0.333,1","1",""
"","html-keyboard-response","343","145680","0.0-343.0","37Z929RLGAUCV9YE5JBCJ9XZVYMTSQ","A2OYOBFEQBWPAJ","3UUIU9GZC5R93N292LT21FRJ9VS5TN","","null","<img src=""img/flower3.png"" style=""width:200px; border:14px solid green;"">","null","","","","","","","","",""
"","image-keyboard-response","344","146788","0.0-344.0","37Z929RLGAUCV9YE5JBCJ9XZVYMTSQ","A2OYOBFEQBWPAJ","3UUIU9GZC5R93N292LT21FRJ9VS5TN","","1106.1000000238419","img/flower1.png","74","1107.5","1","1","1","1","1,0.333,0.333,0.333,1,0.333,0.333,0.333,1","1,0.333,0.333,0.333,1,0.333,0.333,0.333,1","1",""
"","html-keyboard-response","345","147096","0.0-345.0","37Z929RLGAUCV9YE5JBCJ9XZVYMTSQ","A2OYOBFEQBWPAJ","3UUIU9GZC5R93N292LT21FRJ9VS5TN","","null","<img src=""img/flower1.png"" style=""width:200px; border:14px solid green;"">","null","","","","","","","","",""
"","image-keyboard-response","346","147403","0.0-346.0","37Z929RLGAUCV9YE5JBCJ9XZVYMTSQ","A2OYOBFEQBWPAJ","3UUIU9GZC5R93N292LT21FRJ9VS5TN","","305","img/flower1.png","74","306.5","1","1","1","1","1,0.333,0.333,0.333,1,0.333,0.333,0.333,1","1,0.333,0.333,0.333,1,0.333,0.333,0.333,1","1",""
"","html-keyboard-response","347","147712","0.0-347.0","37Z929RLGAUCV9YE5JBCJ9XZVYMTSQ","A2OYOBFEQBWPAJ","3UUIU9GZC5R93N292LT21FRJ9VS5TN","","null","<img src=""img/flower1.png"" style=""width:200px; border:14px solid green;"">","null","","","","","","","","",""
"","image-keyboard-response","348","148232","0.0-348.0","37Z929RLGAUCV9YE5JBCJ9XZVYMTSQ","A2OYOBFEQBWPAJ","3UUIU9GZC5R93N292LT21FRJ9VS5TN","","517.9000000059605","img/flower6.png","75","519.1999999880791","2","1","2","1","1,0.333,0.333,0.333,1,0.333,0.333,0.333,1","1,0.333,0.333,0.333,1,0.333,0.333,0.333,1","1",""
"","html-keyboard-response","349","148536","0.0-349.0","37Z929RLGAUCV9YE5JBCJ9XZVYMTSQ","A2OYOBFEQBWPAJ","3UUIU9GZC5R93N292LT21FRJ9VS5TN","","null","<img src=""img/flower6.png"" style=""width:200px; border:14px solid green;"">","null","","","","","","","","",""
"","image-keyboard-response","350","149442","0.0-350.0","37Z929RLGAUCV9YE5JBCJ9XZVYMTSQ","A2OYOBFEQBWPAJ","3UUIU9GZC5R93N292LT21FRJ9VS5TN","","904.8000000119209","img/flower1.png","74","906","1","1","1","1","1,0.333,0.333,0.333,1,0.333,0.333,0.333,1","1,0.333,0.333,0.333,1,0.333,0.333,0.333,1","1",""
"","html-keyboard-response","351","149752","0.0-351.0","37Z929RLGAUCV9YE5JBCJ9XZVYMTSQ","A2OYOBFEQBWPAJ","3UUIU9GZC5R93N292LT21FRJ9VS5TN","","null","<img src=""img/flower1.png"" style=""width:200px; border:14px solid green;"">","null","","","","","","","","",""
"","image-keyboard-response","352","150230","0.0-352.0","37Z929RLGAUCV9YE5JBCJ9XZVYMTSQ","A2OYOBFEQBWPAJ","3UUIU9GZC5R93N292LT21FRJ9VS5TN","","475.90000000596046","img/flower6.png","75","477.7000000178814","2","1","2","1","1,0.333,0.333,0.333,1,0.333,0.333,0.333,1","1,0.333,0.333,0.333,1,0.333,0.333,0.333,1","1",""
"","html-keyboard-response","353","150536","0.0-353.0","37Z929RLGAUCV9YE5JBCJ9XZVYMTSQ","A2OYOBFEQBWPAJ","3UUIU9GZC5R93N292LT21FRJ9VS5TN","","null","<img src=""img/flower6.png"" style=""width:200px; border:14px solid green;"">","null","","","","","","","","",""
"","image-keyboard-response","354","150842","0.0-354.0","37Z929RLGAUCV9YE5JBCJ9XZVYMTSQ","A2OYOBFEQBWPAJ","3UUIU9GZC5R93N292LT21FRJ9VS5TN","","304.80000001192093","img/flower6.png","75","306.2000000178814","2","1","2","1","1,0.333,0.333,0.333,1,0.333,0.333,0.333,1","1,0.333,0.333,0.333,1,0.333,0.333,0.333,1","1",""
"","html-keyboard-response","355","151144","0.0-355.0","37Z929RLGAUCV9YE5JBCJ9XZVYMTSQ","A2OYOBFEQBWPAJ","3UUIU9GZC5R93N292LT21FRJ9VS5TN","","null","<img src=""img/flower6.png"" style=""width:200px; border:14px solid green;"">","null","","","","","","","","",""
"","image-keyboard-response","356","152120","0.0-356.0","37Z929RLGAUCV9YE5JBCJ9XZVYMTSQ","A2OYOBFEQBWPAJ","3UUIU9GZC5R93N292LT21FRJ9VS5TN","","974.5","img/flower3.png","75","975.7000000178814","2","0","3","1","1,0.333,0.333,0.333,1,0.333,0.333,0.333,1","1,0.333,0.333,0.333,1,0.333,0.333,0.333,1","1",""
"","html-keyboard-response","357","152424","0.0-357.0","37Z929RLGAUCV9YE5JBCJ9XZVYMTSQ","A2OYOBFEQBWPAJ","3UUIU9GZC5R93N292LT21FRJ9VS5TN","","null","<img src=""img/flower3.png"" style=""width:200px;border:14px solid red;"">","null","","","","","","","","",""
"","image-keyboard-response","358","152759","0.0-358.0","37Z929RLGAUCV9YE5JBCJ9XZVYMTSQ","A2OYOBFEQBWPAJ","3UUIU9GZC5R93N292LT21FRJ9VS5TN","","333.40000000596046","img/flower3.png","76","335.09999999403954","3","1","3","1","1,0.333,0.333,0.333,1,0.333,0.333,0.333,1","1,0.333,0.333,0.333,1,0.333,0.333,0.333,1","1",""
"","html-keyboard-response","359","153065","0.0-359.0","37Z929RLGAUCV9YE5JBCJ9XZVYMTSQ","A2OYOBFEQBWPAJ","3UUIU9GZC5R93N292LT21FRJ9VS5TN","","null","<img src=""img/flower3.png"" style=""width:200px; border:14px solid green;"">","null","","","","","","","","",""
"","image-keyboard-response","360","153360","0.0-360.0","37Z929RLGAUCV9YE5JBCJ9XZVYMTSQ","A2OYOBFEQBWPAJ","3UUIU9GZC5R93N292LT21FRJ9VS5TN","","294.09999999403954","img/flower3.png","76","295.59999999403954","3","1","3","1","1,0.333,0.333,0.333,1,0.333,0.333,0.333,1","1,0.333,0.333,0.333,1,0.333,0.333,0.333,1","1",""
"","html-keyboard-response","361","153664","0.0-361.0","37Z929RLGAUCV9YE5JBCJ9XZVYMTSQ","A2OYOBFEQBWPAJ","3UUIU9GZC5R93N292LT21FRJ9VS5TN","","null","<img src=""img/flower3.png"" style=""width:200px; border:14px solid green;"">","null","","","","","","","","",""
"","html-keyboard-response","362","157051","0.0-362.0","37Z929RLGAUCV9YE5JBCJ9XZVYMTSQ","A2OYOBFEQBWPAJ","3UUIU9GZC5R93N292LT21FRJ9VS5TN","","","","","","","","","","","","",""
"","instructions","363","159998","0.0-363.0","37Z929RLGAUCV9YE5JBCJ9XZVYMTSQ","A2OYOBFEQBWPAJ","3UUIU9GZC5R93N292LT21FRJ9VS5TN","[{""page_index"":0,""viewing_time"":2944.100000023842}]","2944.600000023842","","","","","","","","","","",""
"","survey-text","364","162436","0.0-364.0","37Z929RLGAUCV9YE5JBCJ9XZVYMTSQ","A2OYOBFEQBWPAJ","3UUIU9GZC5R93N292LT21FRJ9VS5TN","","2431.9000000059605","","","","","","","","","","","{""Q0"":""A2OYOBFEQBWPAJ""}"
