"success","trial_type","trial_index","time_elapsed","internal_node_id","assignmentID","mturkID","hitID","view_history","rt","stimulus","key_press","reactionTime","a","r","s","cond","reward_cond","reward_cond_actual","reward_matrix_idx","responses"
"true","fullscreen","0","37000","0.0-0.0","3UNH76FOCTR5E0K3VS2PFHQ8I4HMYD","A2PEN75MMUA963","31D0ZWOD0AL5TKHZZFW9PF504XD0AR","","","","","","","","","","","","",""
"","instructions","1","43606","0.0-1.0","3UNH76FOCTR5E0K3VS2PFHQ8I4HMYD","A2PEN75MMUA963","31D0ZWOD0AL5TKHZZFW9PF504XD0AR","[{""page_index"":0,""viewing_time"":655},{""page_index"":1,""viewing_time"":465},{""page_index"":2,""viewing_time"":383},{""page_index"":3,""viewing_time"":233},{""page_index"":4,""viewing_time"":1688},{""page_index"":5,""viewing_time"":1025},{""page_index"":6,""viewing_time"":1303},{""page_index"":7,""viewing_time"":849}]","6601","","","","","","","","","","",""
"","image-keyboard-response","2","44496","0.0-2.0","3UNH76FOCTR5E0K3VS2PFHQ8I4HMYD","A2PEN75MMUA963","31D0ZWOD0AL5TKHZZFW9PF504XD0AR","","884","img/flower2.png","75","888","2","1","1","1","1,0.333,0.333,0.333,1,0.333,0.333,0.333,1","1,0.333,0.333,0.333,1,0.333,0.333,0.333,1","1",""
"","html-keyboard-response","3","44800","0.0-3.0","3UNH76FOCTR5E0K3VS2PFHQ8I4HMYD","A2PEN75MMUA963","31D0ZWOD0AL5TKHZZFW9PF504XD0AR","","null","<img src=""img/flower2.png"" style=""width:200px; border:14px solid green;"">","null","","","","","","","","",""
"","image-keyboard-response","4","45059","0.0-4.0","3UNH76FOCTR5E0K3VS2PFHQ8I4HMYD","A2PEN75MMUA963","31D0ZWOD0AL5TKHZZFW9PF504XD0AR","","256","img/flower1.png","75","257","2","1","3","1","1,0.333,0.333,0.333,1,0.333,0.333,0.333,1","1,0.333,0.333,0.333,1,0.333,0.333,0.333,1","1",""
"","html-keyboard-response","5","45362","0.0-5.0","3UNH76FOCTR5E0K3VS2PFHQ8I4HMYD","A2PEN75MMUA963","31D0ZWOD0AL5TKHZZFW9PF504XD0AR","","null","<img src=""img/flower1.png"" style=""width:200px; border:14px solid green;"">","null","","","","","","","","",""
"","image-keyboard-response","6","45635","0.0-6.0","3UNH76FOCTR5E0K3VS2PFHQ8I4HMYD","A2PEN75MMUA963","31D0ZWOD0AL5TKHZZFW9PF504XD0AR","","271","img/flower6.png","75","273","2","1","2","1","1,0.333,0.333,0.333,1,0.333,0.333,0.333,1","1,0.333,0.333,0.333,1,0.333,0.333,0.333,1","1",""
"","html-keyboard-response","7","45938","0.0-7.0","3UNH76FOCTR5E0K3VS2PFHQ8I4HMYD","A2PEN75MMUA963","31D0ZWOD0AL5TKHZZFW9PF504XD0AR","","null","<img src=""img/flower6.png"" style=""width:200px; border:14px solid green;"">","null","","","","","","","","",""
"","image-keyboard-response","8","46441","0.0-8.0","3UNH76FOCTR5E0K3VS2PFHQ8I4HMYD","A2PEN75MMUA963","31D0ZWOD0AL5TKHZZFW9PF504XD0AR","","499","img/flower2.png","75","501","2","0","1","1","1,0.333,0.333,0.333,1,0.333,0.333,0.333,1","1,0.333,0.333,0.333,1,0.333,0.333,0.333,1","1",""
"","html-keyboard-response","9","46743","0.0-9.0","3UNH76FOCTR5E0K3VS2PFHQ8I4HMYD","A2PEN75MMUA963","31D0ZWOD0AL5TKHZZFW9PF504XD0AR","","null","<img src=""img/flower2.png"" style=""width:200px;border:14px solid red;"">","null","","","","","","","","",""
"","image-keyboard-response","10","47459","0.0-10.0","3UNH76FOCTR5E0K3VS2PFHQ8I4HMYD","A2PEN75MMUA963","31D0ZWOD0AL5TKHZZFW9PF504XD0AR","","714","img/flower6.png","75","715","2","1","2","1","1,0.333,0.333,0.333,1,0.333,0.333,0.333,1","1,0.333,0.333,0.333,1,0.333,0.333,0.333,1","1",""
"","html-keyboard-response","11","47762","0.0-11.0","3UNH76FOCTR5E0K3VS2PFHQ8I4HMYD","A2PEN75MMUA963","31D0ZWOD0AL5TKHZZFW9PF504XD0AR","","null","<img src=""img/flower6.png"" style=""width:200px; border:14px solid green;"">","null","","","","","","","","",""
"","image-keyboard-response","12","48179","0.0-12.0","3UNH76FOCTR5E0K3VS2PFHQ8I4HMYD","A2PEN75MMUA963","31D0ZWOD0AL5TKHZZFW9PF504XD0AR","","415","img/flower6.png","74","416","1","1","2","1","1,0.333,0.333,0.333,1,0.333,0.333,0.333,1","1,0.333,0.333,0.333,1,0.333,0.333,0.333,1","1",""
"","html-keyboard-response","13","48481","0.0-13.0","3UNH76FOCTR5E0K3VS2PFHQ8I4HMYD","A2PEN75MMUA963","31D0ZWOD0AL5TKHZZFW9PF504XD0AR","","null","<img src=""img/flower6.png"" style=""width:200px; border:14px solid green;"">","null","","","","","","","","",""
"","image-keyboard-response","14","48784","0.0-14.0","3UNH76FOCTR5E0K3VS2PFHQ8I4HMYD","A2PEN75MMUA963","31D0ZWOD0AL5TKHZZFW9PF504XD0AR","","301","img/flower6.png","74","304","1","0","2","1","1,0.333,0.333,0.333,1,0.333,0.333,0.333,1","1,0.333,0.333,0.333,1,0.333,0.333,0.333,1","1",""
"","html-keyboard-response","15","49099","0.0-15.0","3UNH76FOCTR5E0K3VS2PFHQ8I4HMYD","A2PEN75MMUA963","31D0ZWOD0AL5TKHZZFW9PF504XD0AR","","null","<img src=""img/flower6.png"" style=""width:200px;border:14px solid red;"">","null","","","","","","","","",""
"","image-keyboard-response","16","49535","0.0-16.0","3UNH76FOCTR5E0K3VS2PFHQ8I4HMYD","A2PEN75MMUA963","31D0ZWOD0AL5TKHZZFW9PF504XD0AR","","433","img/flower1.png","75","435","2","0","3","1","1,0.333,0.333,0.333,1,0.333,0.333,0.333,1","1,0.333,0.333,0.333,1,0.333,0.333,0.333,1","1",""
"","html-keyboard-response","17","49838","0.0-17.0","3UNH76FOCTR5E0K3VS2PFHQ8I4HMYD","A2PEN75MMUA963","31D0ZWOD0AL5TKHZZFW9PF504XD0AR","","null","<img src=""img/flower1.png"" style=""width:200px;border:14px solid red;"">","null","","","","","","","","",""
"","image-keyboard-response","18","50487","0.0-18.0","3UNH76FOCTR5E0K3VS2PFHQ8I4HMYD","A2PEN75MMUA963","31D0ZWOD0AL5TKHZZFW9PF504XD0AR","","648","img/flower6.png","74","648","1","0","2","1","1,0.333,0.333,0.333,1,0.333,0.333,0.333,1","1,0.333,0.333,0.333,1,0.333,0.333,0.333,1","1",""
"","html-keyboard-response","19","50791","0.0-19.0","3UNH76FOCTR5E0K3VS2PFHQ8I4HMYD","A2PEN75MMUA963","31D0ZWOD0AL5TKHZZFW9PF504XD0AR","","null","<img src=""img/flower6.png"" style=""width:200px;border:14px solid red;"">","null","","","","","","","","",""
"","image-keyboard-response","20","51079","0.0-20.0","3UNH76FOCTR5E0K3VS2PFHQ8I4HMYD","A2PEN75MMUA963","31D0ZWOD0AL5TKHZZFW9PF504XD0AR","","286","img/flower1.png","75","287","2","1","3","1","1,0.333,0.333,0.333,1,0.333,0.333,0.333,1","1,0.333,0.333,0.333,1,0.333,0.333,0.333,1","1",""
"","html-keyboard-response","21","51383","0.0-21.0","3UNH76FOCTR5E0K3VS2PFHQ8I4HMYD","A2PEN75MMUA963","31D0ZWOD0AL5TKHZZFW9PF504XD0AR","","null","<img src=""img/flower1.png"" style=""width:200px; border:14px solid green;"">","null","","","","","","","","",""
"","image-keyboard-response","22","51564","0.0-22.0","3UNH76FOCTR5E0K3VS2PFHQ8I4HMYD","A2PEN75MMUA963","31D0ZWOD0AL5TKHZZFW9PF504XD0AR","","178","img/flower1.png","75","181","2","0","3","1","1,0.333,0.333,0.333,1,0.333,0.333,0.333,1","1,0.333,0.333,0.333,1,0.333,0.333,0.333,1","1",""
"","html-keyboard-response","23","51870","0.0-23.0","3UNH76FOCTR5E0K3VS2PFHQ8I4HMYD","A2PEN75MMUA963","31D0ZWOD0AL5TKHZZFW9PF504XD0AR","","null","<img src=""img/flower1.png"" style=""width:200px;border:14px solid red;"">","null","","","","","","","","",""
"","image-keyboard-response","24","52103","0.0-24.0","3UNH76FOCTR5E0K3VS2PFHQ8I4HMYD","A2PEN75MMUA963","31D0ZWOD0AL5TKHZZFW9PF504XD0AR","","231","img/flower6.png","75","233","2","1","2","1","1,0.333,0.333,0.333,1,0.333,0.333,0.333,1","1,0.333,0.333,0.333,1,0.333,0.333,0.333,1","1",""
"","html-keyboard-response","25","52405","0.0-25.0","3UNH76FOCTR5E0K3VS2PFHQ8I4HMYD","A2PEN75MMUA963","31D0ZWOD0AL5TKHZZFW9PF504XD0AR","","null","<img src=""img/flower6.png"" style=""width:200px; border:14px solid green;"">","null","","","","","","","","",""
"","image-keyboard-response","26","52695","0.0-26.0","3UNH76FOCTR5E0K3VS2PFHQ8I4HMYD","A2PEN75MMUA963","31D0ZWOD0AL5TKHZZFW9PF504XD0AR","","287","img/flower6.png","75","289","2","1","2","1","1,0.333,0.333,0.333,1,0.333,0.333,0.333,1","1,0.333,0.333,0.333,1,0.333,0.333,0.333,1","1",""
"","html-keyboard-response","27","52997","0.0-27.0","3UNH76FOCTR5E0K3VS2PFHQ8I4HMYD","A2PEN75MMUA963","31D0ZWOD0AL5TKHZZFW9PF504XD0AR","","null","<img src=""img/flower6.png"" style=""width:200px; border:14px solid green;"">","null","","","","","","","","",""
"","image-keyboard-response","28","53415","0.0-28.0","3UNH76FOCTR5E0K3VS2PFHQ8I4HMYD","A2PEN75MMUA963","31D0ZWOD0AL5TKHZZFW9PF504XD0AR","","414","img/flower1.png","76","416","3","1","3","1","1,0.333,0.333,0.333,1,0.333,0.333,0.333,1","1,0.333,0.333,0.333,1,0.333,0.333,0.333,1","1",""
"","html-keyboard-response","29","53716","0.0-29.0","3UNH76FOCTR5E0K3VS2PFHQ8I4HMYD","A2PEN75MMUA963","31D0ZWOD0AL5TKHZZFW9PF504XD0AR","","null","<img src=""img/flower1.png"" style=""width:200px; border:14px solid green;"">","null","","","","","","","","",""
"","image-keyboard-response","30","54150","0.0-30.0","3UNH76FOCTR5E0K3VS2PFHQ8I4HMYD","A2PEN75MMUA963","31D0ZWOD0AL5TKHZZFW9PF504XD0AR","","432","img/flower2.png","75","433","2","1","1","1","1,0.333,0.333,0.333,1,0.333,0.333,0.333,1","1,0.333,0.333,0.333,1,0.333,0.333,0.333,1","1",""
"","html-keyboard-response","31","54451","0.0-31.0","3UNH76FOCTR5E0K3VS2PFHQ8I4HMYD","A2PEN75MMUA963","31D0ZWOD0AL5TKHZZFW9PF504XD0AR","","null","<img src=""img/flower2.png"" style=""width:200px; border:14px solid green;"">","null","","","","","","","","",""
"","image-keyboard-response","32","54695","0.0-32.0","3UNH76FOCTR5E0K3VS2PFHQ8I4HMYD","A2PEN75MMUA963","31D0ZWOD0AL5TKHZZFW9PF504XD0AR","","242","img/flower6.png","75","243","2","1","2","1","1,0.333,0.333,0.333,1,0.333,0.333,0.333,1","1,0.333,0.333,0.333,1,0.333,0.333,0.333,1","1",""
"","html-keyboard-response","33","54998","0.0-33.0","3UNH76FOCTR5E0K3VS2PFHQ8I4HMYD","A2PEN75MMUA963","31D0ZWOD0AL5TKHZZFW9PF504XD0AR","","null","<img src=""img/flower6.png"" style=""width:200px; border:14px solid green;"">","null","","","","","","","","",""
"","image-keyboard-response","34","55278","0.0-34.0","3UNH76FOCTR5E0K3VS2PFHQ8I4HMYD","A2PEN75MMUA963","31D0ZWOD0AL5TKHZZFW9PF504XD0AR","","278","img/flower6.png","75","279","2","1","2","1","1,0.333,0.333,0.333,1,0.333,0.333,0.333,1","1,0.333,0.333,0.333,1,0.333,0.333,0.333,1","1",""
"","html-keyboard-response","35","55580","0.0-35.0","3UNH76FOCTR5E0K3VS2PFHQ8I4HMYD","A2PEN75MMUA963","31D0ZWOD0AL5TKHZZFW9PF504XD0AR","","null","<img src=""img/flower6.png"" style=""width:200px; border:14px solid green;"">","null","","","","","","","","",""
"","image-keyboard-response","36","55972","0.0-36.0","3UNH76FOCTR5E0K3VS2PFHQ8I4HMYD","A2PEN75MMUA963","31D0ZWOD0AL5TKHZZFW9PF504XD0AR","","390","img/flower2.png","75","392","2","0","1","1","1,0.333,0.333,0.333,1,0.333,0.333,0.333,1","1,0.333,0.333,0.333,1,0.333,0.333,0.333,1","1",""
"","html-keyboard-response","37","56275","0.0-37.0","3UNH76FOCTR5E0K3VS2PFHQ8I4HMYD","A2PEN75MMUA963","31D0ZWOD0AL5TKHZZFW9PF504XD0AR","","null","<img src=""img/flower2.png"" style=""width:200px;border:14px solid red;"">","null","","","","","","","","",""
"","image-keyboard-response","38","56751","0.0-38.0","3UNH76FOCTR5E0K3VS2PFHQ8I4HMYD","A2PEN75MMUA963","31D0ZWOD0AL5TKHZZFW9PF504XD0AR","","473","img/flower2.png","76","476","3","0","1","1","1,0.333,0.333,0.333,1,0.333,0.333,0.333,1","1,0.333,0.333,0.333,1,0.333,0.333,0.333,1","1",""
"","html-keyboard-response","39","57058","0.0-39.0","3UNH76FOCTR5E0K3VS2PFHQ8I4HMYD","A2PEN75MMUA963","31D0ZWOD0AL5TKHZZFW9PF504XD0AR","","null","<img src=""img/flower2.png"" style=""width:200px;border:14px solid red;"">","null","","","","","","","","",""
"","image-keyboard-response","40","57503","0.0-40.0","3UNH76FOCTR5E0K3VS2PFHQ8I4HMYD","A2PEN75MMUA963","31D0ZWOD0AL5TKHZZFW9PF504XD0AR","","440","img/flower6.png","75","443","2","1","2","1","1,0.333,0.333,0.333,1,0.333,0.333,0.333,1","1,0.333,0.333,0.333,1,0.333,0.333,0.333,1","1",""
"","html-keyboard-response","41","57807","0.0-41.0","3UNH76FOCTR5E0K3VS2PFHQ8I4HMYD","A2PEN75MMUA963","31D0ZWOD0AL5TKHZZFW9PF504XD0AR","","null","<img src=""img/flower6.png"" style=""width:200px; border:14px solid green;"">","null","","","","","","","","",""
"","image-keyboard-response","42","58033","0.0-42.0","3UNH76FOCTR5E0K3VS2PFHQ8I4HMYD","A2PEN75MMUA963","31D0ZWOD0AL5TKHZZFW9PF504XD0AR","","223","img/flower2.png","75","225","2","1","1","1","1,0.333,0.333,0.333,1,0.333,0.333,0.333,1","1,0.333,0.333,0.333,1,0.333,0.333,0.333,1","1",""
"","html-keyboard-response","43","58336","0.0-43.0","3UNH76FOCTR5E0K3VS2PFHQ8I4HMYD","A2PEN75MMUA963","31D0ZWOD0AL5TKHZZFW9PF504XD0AR","","null","<img src=""img/flower2.png"" style=""width:200px; border:14px solid green;"">","null","","","","","","","","",""
"","image-keyboard-response","44","58807","0.0-44.0","3UNH76FOCTR5E0K3VS2PFHQ8I4HMYD","A2PEN75MMUA963","31D0ZWOD0AL5TKHZZFW9PF504XD0AR","","468","img/flower6.png","75","470","2","1","2","1","1,0.333,0.333,0.333,1,0.333,0.333,0.333,1","1,0.333,0.333,0.333,1,0.333,0.333,0.333,1","1",""
"","html-keyboard-response","45","59110","0.0-45.0","3UNH76FOCTR5E0K3VS2PFHQ8I4HMYD","A2PEN75MMUA963","31D0ZWOD0AL5TKHZZFW9PF504XD0AR","","null","<img src=""img/flower6.png"" style=""width:200px; border:14px solid green;"">","null","","","","","","","","",""
"","image-keyboard-response","46","59518","0.0-46.0","3UNH76FOCTR5E0K3VS2PFHQ8I4HMYD","A2PEN75MMUA963","31D0ZWOD0AL5TKHZZFW9PF504XD0AR","","405","img/flower1.png","75","407","2","0","3","1","1,0.333,0.333,0.333,1,0.333,0.333,0.333,1","1,0.333,0.333,0.333,1,0.333,0.333,0.333,1","1",""
"","html-keyboard-response","47","59820","0.0-47.0","3UNH76FOCTR5E0K3VS2PFHQ8I4HMYD","A2PEN75MMUA963","31D0ZWOD0AL5TKHZZFW9PF504XD0AR","","null","<img src=""img/flower1.png"" style=""width:200px;border:14px solid red;"">","null","","","","","","","","",""
"","image-keyboard-response","48","60306","0.0-48.0","3UNH76FOCTR5E0K3VS2PFHQ8I4HMYD","A2PEN75MMUA963","31D0ZWOD0AL5TKHZZFW9PF504XD0AR","","483","img/flower2.png","76","485","3","1","1","1","1,0.333,0.333,0.333,1,0.333,0.333,0.333,1","1,0.333,0.333,0.333,1,0.333,0.333,0.333,1","1",""
"","html-keyboard-response","49","60609","0.0-49.0","3UNH76FOCTR5E0K3VS2PFHQ8I4HMYD","A2PEN75MMUA963","31D0ZWOD0AL5TKHZZFW9PF504XD0AR","","null","<img src=""img/flower2.png"" style=""width:200px; border:14px solid green;"">","null","","","","","","","","",""
"","image-keyboard-response","50","60864","0.0-50.0","3UNH76FOCTR5E0K3VS2PFHQ8I4HMYD","A2PEN75MMUA963","31D0ZWOD0AL5TKHZZFW9PF504XD0AR","","252","img/flower6.png","76","253","3","0","2","1","1,0.333,0.333,0.333,1,0.333,0.333,0.333,1","1,0.333,0.333,0.333,1,0.333,0.333,0.333,1","1",""
"","html-keyboard-response","51","61166","0.0-51.0","3UNH76FOCTR5E0K3VS2PFHQ8I4HMYD","A2PEN75MMUA963","31D0ZWOD0AL5TKHZZFW9PF504XD0AR","","null","<img src=""img/flower6.png"" style=""width:200px;border:14px solid red;"">","null","","","","","","","","",""
"","image-keyboard-response","52","61288","0.0-52.0","3UNH76FOCTR5E0K3VS2PFHQ8I4HMYD","A2PEN75MMUA963","31D0ZWOD0AL5TKHZZFW9PF504XD0AR","","119","img/flower6.png","75","119","2","1","2","1","1,0.333,0.333,0.333,1,0.333,0.333,0.333,1","1,0.333,0.333,0.333,1,0.333,0.333,0.333,1","1",""
"","html-keyboard-response","53","61590","0.0-53.0","3UNH76FOCTR5E0K3VS2PFHQ8I4HMYD","A2PEN75MMUA963","31D0ZWOD0AL5TKHZZFW9PF504XD0AR","","null","<img src=""img/flower6.png"" style=""width:200px; border:14px solid green;"">","null","","","","","","","","",""
"","image-keyboard-response","54","61719","0.0-54.0","3UNH76FOCTR5E0K3VS2PFHQ8I4HMYD","A2PEN75MMUA963","31D0ZWOD0AL5TKHZZFW9PF504XD0AR","","126","img/flower1.png","75","128","2","0","3","1","1,0.333,0.333,0.333,1,0.333,0.333,0.333,1","1,0.333,0.333,0.333,1,0.333,0.333,0.333,1","1",""
"","html-keyboard-response","55","62021","0.0-55.0","3UNH76FOCTR5E0K3VS2PFHQ8I4HMYD","A2PEN75MMUA963","31D0ZWOD0AL5TKHZZFW9PF504XD0AR","","null","<img src=""img/flower1.png"" style=""width:200px;border:14px solid red;"">","null","","","","","","","","",""
"","image-keyboard-response","56","62441","0.0-56.0","3UNH76FOCTR5E0K3VS2PFHQ8I4HMYD","A2PEN75MMUA963","31D0ZWOD0AL5TKHZZFW9PF504XD0AR","","419","img/flower2.png","75","420","2","0","1","1","1,0.333,0.333,0.333,1,0.333,0.333,0.333,1","1,0.333,0.333,0.333,1,0.333,0.333,0.333,1","1",""
"","html-keyboard-response","57","62744","0.0-57.0","3UNH76FOCTR5E0K3VS2PFHQ8I4HMYD","A2PEN75MMUA963","31D0ZWOD0AL5TKHZZFW9PF504XD0AR","","null","<img src=""img/flower2.png"" style=""width:200px;border:14px solid red;"">","null","","","","","","","","",""
"","image-keyboard-response","58","63220","0.0-58.0","3UNH76FOCTR5E0K3VS2PFHQ8I4HMYD","A2PEN75MMUA963","31D0ZWOD0AL5TKHZZFW9PF504XD0AR","","472","img/flower1.png","76","475","3","1","3","1","1,0.333,0.333,0.333,1,0.333,0.333,0.333,1","1,0.333,0.333,0.333,1,0.333,0.333,0.333,1","1",""
"","html-keyboard-response","59","63537","0.0-59.0","3UNH76FOCTR5E0K3VS2PFHQ8I4HMYD","A2PEN75MMUA963","31D0ZWOD0AL5TKHZZFW9PF504XD0AR","","null","<img src=""img/flower1.png"" style=""width:200px; border:14px solid green;"">","null","","","","","","","","",""
"","image-keyboard-response","60","63978","0.0-60.0","3UNH76FOCTR5E0K3VS2PFHQ8I4HMYD","A2PEN75MMUA963","31D0ZWOD0AL5TKHZZFW9PF504XD0AR","","439","img/flower2.png","75","441","2","1","1","1","1,0.333,0.333,0.333,1,0.333,0.333,0.333,1","1,0.333,0.333,0.333,1,0.333,0.333,0.333,1","1",""
"","html-keyboard-response","61","64306","0.0-61.0","3UNH76FOCTR5E0K3VS2PFHQ8I4HMYD","A2PEN75MMUA963","31D0ZWOD0AL5TKHZZFW9PF504XD0AR","","null","<img src=""img/flower2.png"" style=""width:200px; border:14px solid green;"">","null","","","","","","","","",""
"","image-keyboard-response","62","64636","0.0-62.0","3UNH76FOCTR5E0K3VS2PFHQ8I4HMYD","A2PEN75MMUA963","31D0ZWOD0AL5TKHZZFW9PF504XD0AR","","329","img/flower1.png","75","329","2","0","3","1","1,0.333,0.333,0.333,1,0.333,0.333,0.333,1","1,0.333,0.333,0.333,1,0.333,0.333,0.333,1","1",""
"","html-keyboard-response","63","64937","0.0-63.0","3UNH76FOCTR5E0K3VS2PFHQ8I4HMYD","A2PEN75MMUA963","31D0ZWOD0AL5TKHZZFW9PF504XD0AR","","null","<img src=""img/flower1.png"" style=""width:200px;border:14px solid red;"">","null","","","","","","","","",""
"","image-keyboard-response","64","65201","0.0-64.0","3UNH76FOCTR5E0K3VS2PFHQ8I4HMYD","A2PEN75MMUA963","31D0ZWOD0AL5TKHZZFW9PF504XD0AR","","261","img/flower2.png","76","263","3","0","1","1","1,0.333,0.333,0.333,1,0.333,0.333,0.333,1","1,0.333,0.333,0.333,1,0.333,0.333,0.333,1","1",""
"","html-keyboard-response","65","65503","0.0-65.0","3UNH76FOCTR5E0K3VS2PFHQ8I4HMYD","A2PEN75MMUA963","31D0ZWOD0AL5TKHZZFW9PF504XD0AR","","null","<img src=""img/flower2.png"" style=""width:200px;border:14px solid red;"">","null","","","","","","","","",""
"","image-keyboard-response","66","65829","0.0-66.0","3UNH76FOCTR5E0K3VS2PFHQ8I4HMYD","A2PEN75MMUA963","31D0ZWOD0AL5TKHZZFW9PF504XD0AR","","324","img/flower1.png","75","327","2","0","3","1","1,0.333,0.333,0.333,1,0.333,0.333,0.333,1","1,0.333,0.333,0.333,1,0.333,0.333,0.333,1","1",""
"","html-keyboard-response","67","66131","0.0-67.0","3UNH76FOCTR5E0K3VS2PFHQ8I4HMYD","A2PEN75MMUA963","31D0ZWOD0AL5TKHZZFW9PF504XD0AR","","null","<img src=""img/flower1.png"" style=""width:200px;border:14px solid red;"">","null","","","","","","","","",""
"","image-keyboard-response","68","66600","0.0-68.0","3UNH76FOCTR5E0K3VS2PFHQ8I4HMYD","A2PEN75MMUA963","31D0ZWOD0AL5TKHZZFW9PF504XD0AR","","466","img/flower6.png","75","468","2","1","2","1","1,0.333,0.333,0.333,1,0.333,0.333,0.333,1","1,0.333,0.333,0.333,1,0.333,0.333,0.333,1","1",""
"","html-keyboard-response","69","66905","0.0-69.0","3UNH76FOCTR5E0K3VS2PFHQ8I4HMYD","A2PEN75MMUA963","31D0ZWOD0AL5TKHZZFW9PF504XD0AR","","null","<img src=""img/flower6.png"" style=""width:200px; border:14px solid green;"">","null","","","","","","","","",""
"","image-keyboard-response","70","67321","0.0-70.0","3UNH76FOCTR5E0K3VS2PFHQ8I4HMYD","A2PEN75MMUA963","31D0ZWOD0AL5TKHZZFW9PF504XD0AR","","414","img/flower1.png","75","415","2","0","3","1","1,0.333,0.333,0.333,1,0.333,0.333,0.333,1","1,0.333,0.333,0.333,1,0.333,0.333,0.333,1","1",""
"","html-keyboard-response","71","67624","0.0-71.0","3UNH76FOCTR5E0K3VS2PFHQ8I4HMYD","A2PEN75MMUA963","31D0ZWOD0AL5TKHZZFW9PF504XD0AR","","null","<img src=""img/flower1.png"" style=""width:200px;border:14px solid red;"">","null","","","","","","","","",""
"","image-keyboard-response","72","68095","0.0-72.0","3UNH76FOCTR5E0K3VS2PFHQ8I4HMYD","A2PEN75MMUA963","31D0ZWOD0AL5TKHZZFW9PF504XD0AR","","469","img/flower6.png","75","470","2","1","2","1","1,0.333,0.333,0.333,1,0.333,0.333,0.333,1","1,0.333,0.333,0.333,1,0.333,0.333,0.333,1","1",""
"","html-keyboard-response","73","68397","0.0-73.0","3UNH76FOCTR5E0K3VS2PFHQ8I4HMYD","A2PEN75MMUA963","31D0ZWOD0AL5TKHZZFW9PF504XD0AR","","null","<img src=""img/flower6.png"" style=""width:200px; border:14px solid green;"">","null","","","","","","","","",""
"","image-keyboard-response","74","68935","0.0-74.0","3UNH76FOCTR5E0K3VS2PFHQ8I4HMYD","A2PEN75MMUA963","31D0ZWOD0AL5TKHZZFW9PF504XD0AR","","536","img/flower2.png","75","538","2","0","1","1","1,0.333,0.333,0.333,1,0.333,0.333,0.333,1","1,0.333,0.333,0.333,1,0.333,0.333,0.333,1","1",""
"","html-keyboard-response","75","69237","0.0-75.0","3UNH76FOCTR5E0K3VS2PFHQ8I4HMYD","A2PEN75MMUA963","31D0ZWOD0AL5TKHZZFW9PF504XD0AR","","null","<img src=""img/flower2.png"" style=""width:200px;border:14px solid red;"">","null","","","","","","","","",""
"","image-keyboard-response","76","69836","0.0-76.0","3UNH76FOCTR5E0K3VS2PFHQ8I4HMYD","A2PEN75MMUA963","31D0ZWOD0AL5TKHZZFW9PF504XD0AR","","598","img/flower6.png","75","599","2","1","2","1","1,0.333,0.333,0.333,1,0.333,0.333,0.333,1","1,0.333,0.333,0.333,1,0.333,0.333,0.333,1","1",""
"","html-keyboard-response","77","70139","0.0-77.0","3UNH76FOCTR5E0K3VS2PFHQ8I4HMYD","A2PEN75MMUA963","31D0ZWOD0AL5TKHZZFW9PF504XD0AR","","null","<img src=""img/flower6.png"" style=""width:200px; border:14px solid green;"">","null","","","","","","","","",""
"","image-keyboard-response","78","70534","0.0-78.0","3UNH76FOCTR5E0K3VS2PFHQ8I4HMYD","A2PEN75MMUA963","31D0ZWOD0AL5TKHZZFW9PF504XD0AR","","392","img/flower6.png","75","394","2","1","2","1","1,0.333,0.333,0.333,1,0.333,0.333,0.333,1","1,0.333,0.333,0.333,1,0.333,0.333,0.333,1","1",""
"","html-keyboard-response","79","70846","0.0-79.0","3UNH76FOCTR5E0K3VS2PFHQ8I4HMYD","A2PEN75MMUA963","31D0ZWOD0AL5TKHZZFW9PF504XD0AR","","null","<img src=""img/flower6.png"" style=""width:200px; border:14px solid green;"">","null","","","","","","","","",""
"","image-keyboard-response","80","71453","0.0-80.0","3UNH76FOCTR5E0K3VS2PFHQ8I4HMYD","A2PEN75MMUA963","31D0ZWOD0AL5TKHZZFW9PF504XD0AR","","604","img/flower1.png","75","605","2","0","3","1","1,0.333,0.333,0.333,1,0.333,0.333,0.333,1","1,0.333,0.333,0.333,1,0.333,0.333,0.333,1","1",""
"","html-keyboard-response","81","71755","0.0-81.0","3UNH76FOCTR5E0K3VS2PFHQ8I4HMYD","A2PEN75MMUA963","31D0ZWOD0AL5TKHZZFW9PF504XD0AR","","null","<img src=""img/flower1.png"" style=""width:200px;border:14px solid red;"">","null","","","","","","","","",""
"","image-keyboard-response","82","72342","0.0-82.0","3UNH76FOCTR5E0K3VS2PFHQ8I4HMYD","A2PEN75MMUA963","31D0ZWOD0AL5TKHZZFW9PF504XD0AR","","584","img/flower1.png","76","587","3","1","3","1","1,0.333,0.333,0.333,1,0.333,0.333,0.333,1","1,0.333,0.333,0.333,1,0.333,0.333,0.333,1","1",""
"","html-keyboard-response","83","72643","0.0-83.0","3UNH76FOCTR5E0K3VS2PFHQ8I4HMYD","A2PEN75MMUA963","31D0ZWOD0AL5TKHZZFW9PF504XD0AR","","null","<img src=""img/flower1.png"" style=""width:200px; border:14px solid green;"">","null","","","","","","","","",""
"","image-keyboard-response","84","73080","0.0-84.0","3UNH76FOCTR5E0K3VS2PFHQ8I4HMYD","A2PEN75MMUA963","31D0ZWOD0AL5TKHZZFW9PF504XD0AR","","435","img/flower1.png","76","436","3","1","3","1","1,0.333,0.333,0.333,1,0.333,0.333,0.333,1","1,0.333,0.333,0.333,1,0.333,0.333,0.333,1","1",""
"","html-keyboard-response","85","73382","0.0-85.0","3UNH76FOCTR5E0K3VS2PFHQ8I4HMYD","A2PEN75MMUA963","31D0ZWOD0AL5TKHZZFW9PF504XD0AR","","null","<img src=""img/flower1.png"" style=""width:200px; border:14px solid green;"">","null","","","","","","","","",""
"","image-keyboard-response","86","73755","0.0-86.0","3UNH76FOCTR5E0K3VS2PFHQ8I4HMYD","A2PEN75MMUA963","31D0ZWOD0AL5TKHZZFW9PF504XD0AR","","371","img/flower1.png","76","371","3","1","3","1","1,0.333,0.333,0.333,1,0.333,0.333,0.333,1","1,0.333,0.333,0.333,1,0.333,0.333,0.333,1","1",""
"","html-keyboard-response","87","74056","0.0-87.0","3UNH76FOCTR5E0K3VS2PFHQ8I4HMYD","A2PEN75MMUA963","31D0ZWOD0AL5TKHZZFW9PF504XD0AR","","null","<img src=""img/flower1.png"" style=""width:200px; border:14px solid green;"">","null","","","","","","","","",""
"","image-keyboard-response","88","74732","0.0-88.0","3UNH76FOCTR5E0K3VS2PFHQ8I4HMYD","A2PEN75MMUA963","31D0ZWOD0AL5TKHZZFW9PF504XD0AR","","675","img/flower2.png","74","676","1","1","1","1","1,0.333,0.333,0.333,1,0.333,0.333,0.333,1","1,0.333,0.333,0.333,1,0.333,0.333,0.333,1","1",""
"","html-keyboard-response","89","75035","0.0-89.0","3UNH76FOCTR5E0K3VS2PFHQ8I4HMYD","A2PEN75MMUA963","31D0ZWOD0AL5TKHZZFW9PF504XD0AR","","null","<img src=""img/flower2.png"" style=""width:200px; border:14px solid green;"">","null","","","","","","","","",""
"","image-keyboard-response","90","75410","0.0-90.0","3UNH76FOCTR5E0K3VS2PFHQ8I4HMYD","A2PEN75MMUA963","31D0ZWOD0AL5TKHZZFW9PF504XD0AR","","374","img/flower2.png","74","376","1","1","1","1","1,0.333,0.333,0.333,1,0.333,0.333,0.333,1","1,0.333,0.333,0.333,1,0.333,0.333,0.333,1","1",""
"","html-keyboard-response","91","75712","0.0-91.0","3UNH76FOCTR5E0K3VS2PFHQ8I4HMYD","A2PEN75MMUA963","31D0ZWOD0AL5TKHZZFW9PF504XD0AR","","null","<img src=""img/flower2.png"" style=""width:200px; border:14px solid green;"">","null","","","","","","","","",""
"","image-keyboard-response","92","76153","0.0-92.0","3UNH76FOCTR5E0K3VS2PFHQ8I4HMYD","A2PEN75MMUA963","31D0ZWOD0AL5TKHZZFW9PF504XD0AR","","439","img/flower1.png","75","441","2","0","3","1","1,0.333,0.333,0.333,1,0.333,0.333,0.333,1","1,0.333,0.333,0.333,1,0.333,0.333,0.333,1","1",""
"","html-keyboard-response","93","76456","0.0-93.0","3UNH76FOCTR5E0K3VS2PFHQ8I4HMYD","A2PEN75MMUA963","31D0ZWOD0AL5TKHZZFW9PF504XD0AR","","null","<img src=""img/flower1.png"" style=""width:200px;border:14px solid red;"">","null","","","","","","","","",""
"","image-keyboard-response","94","77143","0.0-94.0","3UNH76FOCTR5E0K3VS2PFHQ8I4HMYD","A2PEN75MMUA963","31D0ZWOD0AL5TKHZZFW9PF504XD0AR","","686","img/flower6.png","74","688","1","0","2","1","1,0.333,0.333,0.333,1,0.333,0.333,0.333,1","1,0.333,0.333,0.333,1,0.333,0.333,0.333,1","1",""
"","html-keyboard-response","95","77446","0.0-95.0","3UNH76FOCTR5E0K3VS2PFHQ8I4HMYD","A2PEN75MMUA963","31D0ZWOD0AL5TKHZZFW9PF504XD0AR","","null","<img src=""img/flower6.png"" style=""width:200px;border:14px solid red;"">","null","","","","","","","","",""
"","image-keyboard-response","96","77724","0.0-96.0","3UNH76FOCTR5E0K3VS2PFHQ8I4HMYD","A2PEN75MMUA963","31D0ZWOD0AL5TKHZZFW9PF504XD0AR","","276","img/flower6.png","75","278","2","1","2","1","1,0.333,0.333,0.333,1,0.333,0.333,0.333,1","1,0.333,0.333,0.333,1,0.333,0.333,0.333,1","1",""
"","html-keyboard-response","97","78028","0.0-97.0","3UNH76FOCTR5E0K3VS2PFHQ8I4HMYD","A2PEN75MMUA963","31D0ZWOD0AL5TKHZZFW9PF504XD0AR","","null","<img src=""img/flower6.png"" style=""width:200px; border:14px solid green;"">","null","","","","","","","","",""
"","image-keyboard-response","98","78349","0.0-98.0","3UNH76FOCTR5E0K3VS2PFHQ8I4HMYD","A2PEN75MMUA963","31D0ZWOD0AL5TKHZZFW9PF504XD0AR","","318","img/flower2.png","75","321","2","0","1","1","1,0.333,0.333,0.333,1,0.333,0.333,0.333,1","1,0.333,0.333,0.333,1,0.333,0.333,0.333,1","1",""
"","html-keyboard-response","99","78653","0.0-99.0","3UNH76FOCTR5E0K3VS2PFHQ8I4HMYD","A2PEN75MMUA963","31D0ZWOD0AL5TKHZZFW9PF504XD0AR","","null","<img src=""img/flower2.png"" style=""width:200px;border:14px solid red;"">","null","","","","","","","","",""
"","image-keyboard-response","100","79301","0.0-100.0","3UNH76FOCTR5E0K3VS2PFHQ8I4HMYD","A2PEN75MMUA963","31D0ZWOD0AL5TKHZZFW9PF504XD0AR","","645","img/flower2.png","74","647","1","1","1","1","1,0.333,0.333,0.333,1,0.333,0.333,0.333,1","1,0.333,0.333,0.333,1,0.333,0.333,0.333,1","1",""
"","html-keyboard-response","101","79604","0.0-101.0","3UNH76FOCTR5E0K3VS2PFHQ8I4HMYD","A2PEN75MMUA963","31D0ZWOD0AL5TKHZZFW9PF504XD0AR","","null","<img src=""img/flower2.png"" style=""width:200px; border:14px solid green;"">","null","","","","","","","","",""
"","image-keyboard-response","102","79928","0.0-102.0","3UNH76FOCTR5E0K3VS2PFHQ8I4HMYD","A2PEN75MMUA963","31D0ZWOD0AL5TKHZZFW9PF504XD0AR","","321","img/flower2.png","74","323","1","1","1","1","1,0.333,0.333,0.333,1,0.333,0.333,0.333,1","1,0.333,0.333,0.333,1,0.333,0.333,0.333,1","1",""
"","html-keyboard-response","103","80231","0.0-103.0","3UNH76FOCTR5E0K3VS2PFHQ8I4HMYD","A2PEN75MMUA963","31D0ZWOD0AL5TKHZZFW9PF504XD0AR","","null","<img src=""img/flower2.png"" style=""width:200px; border:14px solid green;"">","null","","","","","","","","",""
"","image-keyboard-response","104","80589","0.0-104.0","3UNH76FOCTR5E0K3VS2PFHQ8I4HMYD","A2PEN75MMUA963","31D0ZWOD0AL5TKHZZFW9PF504XD0AR","","355","img/flower2.png","74","358","1","1","1","1","1,0.333,0.333,0.333,1,0.333,0.333,0.333,1","1,0.333,0.333,0.333,1,0.333,0.333,0.333,1","1",""
"","html-keyboard-response","105","80891","0.0-105.0","3UNH76FOCTR5E0K3VS2PFHQ8I4HMYD","A2PEN75MMUA963","31D0ZWOD0AL5TKHZZFW9PF504XD0AR","","null","<img src=""img/flower2.png"" style=""width:200px; border:14px solid green;"">","null","","","","","","","","",""
"","image-keyboard-response","106","81425","0.0-106.0","3UNH76FOCTR5E0K3VS2PFHQ8I4HMYD","A2PEN75MMUA963","31D0ZWOD0AL5TKHZZFW9PF504XD0AR","","531","img/flower1.png","75","533","2","0","3","1","1,0.333,0.333,0.333,1,0.333,0.333,0.333,1","1,0.333,0.333,0.333,1,0.333,0.333,0.333,1","1",""
"","html-keyboard-response","107","81728","0.0-107.0","3UNH76FOCTR5E0K3VS2PFHQ8I4HMYD","A2PEN75MMUA963","31D0ZWOD0AL5TKHZZFW9PF504XD0AR","","null","<img src=""img/flower1.png"" style=""width:200px;border:14px solid red;"">","null","","","","","","","","",""
"","image-keyboard-response","108","82073","0.0-108.0","3UNH76FOCTR5E0K3VS2PFHQ8I4HMYD","A2PEN75MMUA963","31D0ZWOD0AL5TKHZZFW9PF504XD0AR","","342","img/flower1.png","74","344","1","1","3","1","1,0.333,0.333,0.333,1,0.333,0.333,0.333,1","1,0.333,0.333,0.333,1,0.333,0.333,0.333,1","1",""
"","html-keyboard-response","109","82375","0.0-109.0","3UNH76FOCTR5E0K3VS2PFHQ8I4HMYD","A2PEN75MMUA963","31D0ZWOD0AL5TKHZZFW9PF504XD0AR","","null","<img src=""img/flower1.png"" style=""width:200px; border:14px solid green;"">","null","","","","","","","","",""
"","image-keyboard-response","110","82870","0.0-110.0","3UNH76FOCTR5E0K3VS2PFHQ8I4HMYD","A2PEN75MMUA963","31D0ZWOD0AL5TKHZZFW9PF504XD0AR","","493","img/flower2.png","74","494","1","1","1","1","1,0.333,0.333,0.333,1,0.333,0.333,0.333,1","1,0.333,0.333,0.333,1,0.333,0.333,0.333,1","1",""
"","html-keyboard-response","111","83172","0.0-111.0","3UNH76FOCTR5E0K3VS2PFHQ8I4HMYD","A2PEN75MMUA963","31D0ZWOD0AL5TKHZZFW9PF504XD0AR","","null","<img src=""img/flower2.png"" style=""width:200px; border:14px solid green;"">","null","","","","","","","","",""
"","image-keyboard-response","112","83556","0.0-112.0","3UNH76FOCTR5E0K3VS2PFHQ8I4HMYD","A2PEN75MMUA963","31D0ZWOD0AL5TKHZZFW9PF504XD0AR","","381","img/flower2.png","74","382","1","1","1","1","1,0.333,0.333,0.333,1,0.333,0.333,0.333,1","1,0.333,0.333,0.333,1,0.333,0.333,0.333,1","1",""
"","html-keyboard-response","113","83869","0.0-113.0","3UNH76FOCTR5E0K3VS2PFHQ8I4HMYD","A2PEN75MMUA963","31D0ZWOD0AL5TKHZZFW9PF504XD0AR","","null","<img src=""img/flower2.png"" style=""width:200px; border:14px solid green;"">","null","","","","","","","","",""
"","image-keyboard-response","114","84206","0.0-114.0","3UNH76FOCTR5E0K3VS2PFHQ8I4HMYD","A2PEN75MMUA963","31D0ZWOD0AL5TKHZZFW9PF504XD0AR","","335","img/flower2.png","74","337","1","1","1","1","1,0.333,0.333,0.333,1,0.333,0.333,0.333,1","1,0.333,0.333,0.333,1,0.333,0.333,0.333,1","1",""
"","html-keyboard-response","115","84510","0.0-115.0","3UNH76FOCTR5E0K3VS2PFHQ8I4HMYD","A2PEN75MMUA963","31D0ZWOD0AL5TKHZZFW9PF504XD0AR","","null","<img src=""img/flower2.png"" style=""width:200px; border:14px solid green;"">","null","","","","","","","","",""
"","image-keyboard-response","116","84967","0.0-116.0","3UNH76FOCTR5E0K3VS2PFHQ8I4HMYD","A2PEN75MMUA963","31D0ZWOD0AL5TKHZZFW9PF504XD0AR","","455","img/flower6.png","75","456","2","1","2","1","1,0.333,0.333,0.333,1,0.333,0.333,0.333,1","1,0.333,0.333,0.333,1,0.333,0.333,0.333,1","1",""
"","html-keyboard-response","117","85270","0.0-117.0","3UNH76FOCTR5E0K3VS2PFHQ8I4HMYD","A2PEN75MMUA963","31D0ZWOD0AL5TKHZZFW9PF504XD0AR","","null","<img src=""img/flower6.png"" style=""width:200px; border:14px solid green;"">","null","","","","","","","","",""
"","image-keyboard-response","118","85772","0.0-118.0","3UNH76FOCTR5E0K3VS2PFHQ8I4HMYD","A2PEN75MMUA963","31D0ZWOD0AL5TKHZZFW9PF504XD0AR","","500","img/flower1.png","76","503","3","1","3","1","1,0.333,0.333,0.333,1,0.333,0.333,0.333,1","1,0.333,0.333,0.333,1,0.333,0.333,0.333,1","1",""
"","html-keyboard-response","119","86075","0.0-119.0","3UNH76FOCTR5E0K3VS2PFHQ8I4HMYD","A2PEN75MMUA963","31D0ZWOD0AL5TKHZZFW9PF504XD0AR","","null","<img src=""img/flower1.png"" style=""width:200px; border:14px solid green;"">","null","","","","","","","","",""
"","image-keyboard-response","120","86825","0.0-120.0","3UNH76FOCTR5E0K3VS2PFHQ8I4HMYD","A2PEN75MMUA963","31D0ZWOD0AL5TKHZZFW9PF504XD0AR","","747","img/flower6.png","75","749","2","1","2","1","1,0.333,0.333,0.333,1,0.333,0.333,0.333,1","1,0.333,0.333,0.333,1,0.333,0.333,0.333,1","1",""
"","html-keyboard-response","121","87127","0.0-121.0","3UNH76FOCTR5E0K3VS2PFHQ8I4HMYD","A2PEN75MMUA963","31D0ZWOD0AL5TKHZZFW9PF504XD0AR","","null","<img src=""img/flower6.png"" style=""width:200px; border:14px solid green;"">","null","","","","","","","","",""
"","image-keyboard-response","122","87718","0.0-122.0","3UNH76FOCTR5E0K3VS2PFHQ8I4HMYD","A2PEN75MMUA963","31D0ZWOD0AL5TKHZZFW9PF504XD0AR","","589","img/flower1.png","76","591","3","1","3","1","1,0.333,0.333,0.333,1,0.333,0.333,0.333,1","1,0.333,0.333,0.333,1,0.333,0.333,0.333,1","1",""
"","html-keyboard-response","123","88020","0.0-123.0","3UNH76FOCTR5E0K3VS2PFHQ8I4HMYD","A2PEN75MMUA963","31D0ZWOD0AL5TKHZZFW9PF504XD0AR","","null","<img src=""img/flower1.png"" style=""width:200px; border:14px solid green;"">","null","","","","","","","","",""
"","image-keyboard-response","124","88521","0.0-124.0","3UNH76FOCTR5E0K3VS2PFHQ8I4HMYD","A2PEN75MMUA963","31D0ZWOD0AL5TKHZZFW9PF504XD0AR","","498","img/flower6.png","75","501","2","1","2","1","1,0.333,0.333,0.333,1,0.333,0.333,0.333,1","1,0.333,0.333,0.333,1,0.333,0.333,0.333,1","1",""
"","html-keyboard-response","125","88823","0.0-125.0","3UNH76FOCTR5E0K3VS2PFHQ8I4HMYD","A2PEN75MMUA963","31D0ZWOD0AL5TKHZZFW9PF504XD0AR","","null","<img src=""img/flower6.png"" style=""width:200px; border:14px solid green;"">","null","","","","","","","","",""
"","image-keyboard-response","126","89248","0.0-126.0","3UNH76FOCTR5E0K3VS2PFHQ8I4HMYD","A2PEN75MMUA963","31D0ZWOD0AL5TKHZZFW9PF504XD0AR","","423","img/flower6.png","75","424","2","1","2","1","1,0.333,0.333,0.333,1,0.333,0.333,0.333,1","1,0.333,0.333,0.333,1,0.333,0.333,0.333,1","1",""
"","html-keyboard-response","127","89551","0.0-127.0","3UNH76FOCTR5E0K3VS2PFHQ8I4HMYD","A2PEN75MMUA963","31D0ZWOD0AL5TKHZZFW9PF504XD0AR","","null","<img src=""img/flower6.png"" style=""width:200px; border:14px solid green;"">","null","","","","","","","","",""
"","image-keyboard-response","128","90122","0.0-128.0","3UNH76FOCTR5E0K3VS2PFHQ8I4HMYD","A2PEN75MMUA963","31D0ZWOD0AL5TKHZZFW9PF504XD0AR","","570","img/flower1.png","76","572","3","1","3","1","1,0.333,0.333,0.333,1,0.333,0.333,0.333,1","1,0.333,0.333,0.333,1,0.333,0.333,0.333,1","1",""
"","html-keyboard-response","129","90426","0.0-129.0","3UNH76FOCTR5E0K3VS2PFHQ8I4HMYD","A2PEN75MMUA963","31D0ZWOD0AL5TKHZZFW9PF504XD0AR","","null","<img src=""img/flower1.png"" style=""width:200px; border:14px solid green;"">","null","","","","","","","","",""
"","image-keyboard-response","130","91127","0.0-130.0","3UNH76FOCTR5E0K3VS2PFHQ8I4HMYD","A2PEN75MMUA963","31D0ZWOD0AL5TKHZZFW9PF504XD0AR","","699","img/flower2.png","74","701","1","1","1","1","1,0.333,0.333,0.333,1,0.333,0.333,0.333,1","1,0.333,0.333,0.333,1,0.333,0.333,0.333,1","1",""
"","html-keyboard-response","131","91429","0.0-131.0","3UNH76FOCTR5E0K3VS2PFHQ8I4HMYD","A2PEN75MMUA963","31D0ZWOD0AL5TKHZZFW9PF504XD0AR","","null","<img src=""img/flower2.png"" style=""width:200px; border:14px solid green;"">","null","","","","","","","","",""
"","image-keyboard-response","132","92256","0.0-132.0","3UNH76FOCTR5E0K3VS2PFHQ8I4HMYD","A2PEN75MMUA963","31D0ZWOD0AL5TKHZZFW9PF504XD0AR","","824","img/flower6.png","75","826","2","1","2","1","1,0.333,0.333,0.333,1,0.333,0.333,0.333,1","1,0.333,0.333,0.333,1,0.333,0.333,0.333,1","1",""
"","html-keyboard-response","133","92557","0.0-133.0","3UNH76FOCTR5E0K3VS2PFHQ8I4HMYD","A2PEN75MMUA963","31D0ZWOD0AL5TKHZZFW9PF504XD0AR","","null","<img src=""img/flower6.png"" style=""width:200px; border:14px solid green;"">","null","","","","","","","","",""
"","image-keyboard-response","134","92912","0.0-134.0","3UNH76FOCTR5E0K3VS2PFHQ8I4HMYD","A2PEN75MMUA963","31D0ZWOD0AL5TKHZZFW9PF504XD0AR","","353","img/flower6.png","75","355","2","1","2","1","1,0.333,0.333,0.333,1,0.333,0.333,0.333,1","1,0.333,0.333,0.333,1,0.333,0.333,0.333,1","1",""
"","html-keyboard-response","135","93215","0.0-135.0","3UNH76FOCTR5E0K3VS2PFHQ8I4HMYD","A2PEN75MMUA963","31D0ZWOD0AL5TKHZZFW9PF504XD0AR","","null","<img src=""img/flower6.png"" style=""width:200px; border:14px solid green;"">","null","","","","","","","","",""
"","image-keyboard-response","136","93838","0.0-136.0","3UNH76FOCTR5E0K3VS2PFHQ8I4HMYD","A2PEN75MMUA963","31D0ZWOD0AL5TKHZZFW9PF504XD0AR","","622","img/flower2.png","76","624","3","1","1","1","1,0.333,0.333,0.333,1,0.333,0.333,0.333,1","1,0.333,0.333,0.333,1,0.333,0.333,0.333,1","1",""
"","html-keyboard-response","137","94141","0.0-137.0","3UNH76FOCTR5E0K3VS2PFHQ8I4HMYD","A2PEN75MMUA963","31D0ZWOD0AL5TKHZZFW9PF504XD0AR","","null","<img src=""img/flower2.png"" style=""width:200px; border:14px solid green;"">","null","","","","","","","","",""
"","image-keyboard-response","138","94522","0.0-138.0","3UNH76FOCTR5E0K3VS2PFHQ8I4HMYD","A2PEN75MMUA963","31D0ZWOD0AL5TKHZZFW9PF504XD0AR","","378","img/flower2.png","76","380","3","1","1","1","1,0.333,0.333,0.333,1,0.333,0.333,0.333,1","1,0.333,0.333,0.333,1,0.333,0.333,0.333,1","1",""
"","html-keyboard-response","139","94826","0.0-139.0","3UNH76FOCTR5E0K3VS2PFHQ8I4HMYD","A2PEN75MMUA963","31D0ZWOD0AL5TKHZZFW9PF504XD0AR","","null","<img src=""img/flower2.png"" style=""width:200px; border:14px solid green;"">","null","","","","","","","","",""
"","image-keyboard-response","140","95171","0.0-140.0","3UNH76FOCTR5E0K3VS2PFHQ8I4HMYD","A2PEN75MMUA963","31D0ZWOD0AL5TKHZZFW9PF504XD0AR","","342","img/flower2.png","76","344","3","1","1","1","1,0.333,0.333,0.333,1,0.333,0.333,0.333,1","1,0.333,0.333,0.333,1,0.333,0.333,0.333,1","1",""
"","html-keyboard-response","141","95473","0.0-141.0","3UNH76FOCTR5E0K3VS2PFHQ8I4HMYD","A2PEN75MMUA963","31D0ZWOD0AL5TKHZZFW9PF504XD0AR","","null","<img src=""img/flower2.png"" style=""width:200px; border:14px solid green;"">","null","","","","","","","","",""
"","image-keyboard-response","142","96053","0.0-142.0","3UNH76FOCTR5E0K3VS2PFHQ8I4HMYD","A2PEN75MMUA963","31D0ZWOD0AL5TKHZZFW9PF504XD0AR","","577","img/flower6.png","75","579","2","1","2","1","1,0.333,0.333,0.333,1,0.333,0.333,0.333,1","1,0.333,0.333,0.333,1,0.333,0.333,0.333,1","1",""
"","html-keyboard-response","143","96356","0.0-143.0","3UNH76FOCTR5E0K3VS2PFHQ8I4HMYD","A2PEN75MMUA963","31D0ZWOD0AL5TKHZZFW9PF504XD0AR","","null","<img src=""img/flower6.png"" style=""width:200px; border:14px solid green;"">","null","","","","","","","","",""
"","image-keyboard-response","144","97211","0.0-144.0","3UNH76FOCTR5E0K3VS2PFHQ8I4HMYD","A2PEN75MMUA963","31D0ZWOD0AL5TKHZZFW9PF504XD0AR","","853","img/flower2.png","74","855","1","1","1","1","1,0.333,0.333,0.333,1,0.333,0.333,0.333,1","1,0.333,0.333,0.333,1,0.333,0.333,0.333,1","1",""
"","html-keyboard-response","145","97514","0.0-145.0","3UNH76FOCTR5E0K3VS2PFHQ8I4HMYD","A2PEN75MMUA963","31D0ZWOD0AL5TKHZZFW9PF504XD0AR","","null","<img src=""img/flower2.png"" style=""width:200px; border:14px solid green;"">","null","","","","","","","","",""
"","image-keyboard-response","146","98207","0.0-146.0","3UNH76FOCTR5E0K3VS2PFHQ8I4HMYD","A2PEN75MMUA963","31D0ZWOD0AL5TKHZZFW9PF504XD0AR","","690","img/flower6.png","75","692","2","1","2","1","1,0.333,0.333,0.333,1,0.333,0.333,0.333,1","1,0.333,0.333,0.333,1,0.333,0.333,0.333,1","1",""
"","html-keyboard-response","147","98509","0.0-147.0","3UNH76FOCTR5E0K3VS2PFHQ8I4HMYD","A2PEN75MMUA963","31D0ZWOD0AL5TKHZZFW9PF504XD0AR","","null","<img src=""img/flower6.png"" style=""width:200px; border:14px solid green;"">","null","","","","","","","","",""
"","image-keyboard-response","148","99187","0.0-148.0","3UNH76FOCTR5E0K3VS2PFHQ8I4HMYD","A2PEN75MMUA963","31D0ZWOD0AL5TKHZZFW9PF504XD0AR","","676","img/flower6.png","75","678","2","1","2","1","1,0.333,0.333,0.333,1,0.333,0.333,0.333,1","1,0.333,0.333,0.333,1,0.333,0.333,0.333,1","1",""
"","html-keyboard-response","149","99489","0.0-149.0","3UNH76FOCTR5E0K3VS2PFHQ8I4HMYD","A2PEN75MMUA963","31D0ZWOD0AL5TKHZZFW9PF504XD0AR","","null","<img src=""img/flower6.png"" style=""width:200px; border:14px solid green;"">","null","","","","","","","","",""
"","image-keyboard-response","150","100069","0.0-150.0","3UNH76FOCTR5E0K3VS2PFHQ8I4HMYD","A2PEN75MMUA963","31D0ZWOD0AL5TKHZZFW9PF504XD0AR","","576","img/flower1.png","76","578","3","1","3","1","1,0.333,0.333,0.333,1,0.333,0.333,0.333,1","1,0.333,0.333,0.333,1,0.333,0.333,0.333,1","1",""
"","html-keyboard-response","151","100371","0.0-151.0","3UNH76FOCTR5E0K3VS2PFHQ8I4HMYD","A2PEN75MMUA963","31D0ZWOD0AL5TKHZZFW9PF504XD0AR","","null","<img src=""img/flower1.png"" style=""width:200px; border:14px solid green;"">","null","","","","","","","","",""
"","image-keyboard-response","152","100908","0.0-152.0","3UNH76FOCTR5E0K3VS2PFHQ8I4HMYD","A2PEN75MMUA963","31D0ZWOD0AL5TKHZZFW9PF504XD0AR","","534","img/flower2.png","75","536","2","0","1","1","1,0.333,0.333,0.333,1,0.333,0.333,0.333,1","1,0.333,0.333,0.333,1,0.333,0.333,0.333,1","1",""
"","html-keyboard-response","153","101212","0.0-153.0","3UNH76FOCTR5E0K3VS2PFHQ8I4HMYD","A2PEN75MMUA963","31D0ZWOD0AL5TKHZZFW9PF504XD0AR","","null","<img src=""img/flower2.png"" style=""width:200px;border:14px solid red;"">","null","","","","","","","","",""
"","image-keyboard-response","154","101361","0.0-154.0","3UNH76FOCTR5E0K3VS2PFHQ8I4HMYD","A2PEN75MMUA963","31D0ZWOD0AL5TKHZZFW9PF504XD0AR","","148","img/flower2.png","74","150","1","1","1","1","1,0.333,0.333,0.333,1,0.333,0.333,0.333,1","1,0.333,0.333,0.333,1,0.333,0.333,0.333,1","1",""
"","html-keyboard-response","155","101664","0.0-155.0","3UNH76FOCTR5E0K3VS2PFHQ8I4HMYD","A2PEN75MMUA963","31D0ZWOD0AL5TKHZZFW9PF504XD0AR","","null","<img src=""img/flower2.png"" style=""width:200px; border:14px solid green;"">","null","","","","","","","","",""
"","image-keyboard-response","156","102540","0.0-156.0","3UNH76FOCTR5E0K3VS2PFHQ8I4HMYD","A2PEN75MMUA963","31D0ZWOD0AL5TKHZZFW9PF504XD0AR","","874","img/flower1.png","76","876","3","1","3","1","1,0.333,0.333,0.333,1,0.333,0.333,0.333,1","1,0.333,0.333,0.333,1,0.333,0.333,0.333,1","1",""
"","html-keyboard-response","157","102844","0.0-157.0","3UNH76FOCTR5E0K3VS2PFHQ8I4HMYD","A2PEN75MMUA963","31D0ZWOD0AL5TKHZZFW9PF504XD0AR","","null","<img src=""img/flower1.png"" style=""width:200px; border:14px solid green;"">","null","","","","","","","","",""
"","image-keyboard-response","158","103351","0.0-158.0","3UNH76FOCTR5E0K3VS2PFHQ8I4HMYD","A2PEN75MMUA963","31D0ZWOD0AL5TKHZZFW9PF504XD0AR","","504","img/flower2.png","74","506","1","1","1","1","1,0.333,0.333,0.333,1,0.333,0.333,0.333,1","1,0.333,0.333,0.333,1,0.333,0.333,0.333,1","1",""
"","html-keyboard-response","159","103652","0.0-159.0","3UNH76FOCTR5E0K3VS2PFHQ8I4HMYD","A2PEN75MMUA963","31D0ZWOD0AL5TKHZZFW9PF504XD0AR","","null","<img src=""img/flower2.png"" style=""width:200px; border:14px solid green;"">","null","","","","","","","","",""
"","image-keyboard-response","160","104212","0.0-160.0","3UNH76FOCTR5E0K3VS2PFHQ8I4HMYD","A2PEN75MMUA963","31D0ZWOD0AL5TKHZZFW9PF504XD0AR","","558","img/flower6.png","75","559","2","1","2","1","1,0.333,0.333,0.333,1,0.333,0.333,0.333,1","1,0.333,0.333,0.333,1,0.333,0.333,0.333,1","1",""
"","html-keyboard-response","161","104516","0.0-161.0","3UNH76FOCTR5E0K3VS2PFHQ8I4HMYD","A2PEN75MMUA963","31D0ZWOD0AL5TKHZZFW9PF504XD0AR","","null","<img src=""img/flower6.png"" style=""width:200px; border:14px solid green;"">","null","","","","","","","","",""
"","image-keyboard-response","162","105390","0.0-162.0","3UNH76FOCTR5E0K3VS2PFHQ8I4HMYD","A2PEN75MMUA963","31D0ZWOD0AL5TKHZZFW9PF504XD0AR","","871","img/flower1.png","76","873","3","1","3","1","1,0.333,0.333,0.333,1,0.333,0.333,0.333,1","1,0.333,0.333,0.333,1,0.333,0.333,0.333,1","1",""
"","html-keyboard-response","163","105692","0.0-163.0","3UNH76FOCTR5E0K3VS2PFHQ8I4HMYD","A2PEN75MMUA963","31D0ZWOD0AL5TKHZZFW9PF504XD0AR","","null","<img src=""img/flower1.png"" style=""width:200px; border:14px solid green;"">","null","","","","","","","","",""
"","image-keyboard-response","164","106220","0.0-164.0","3UNH76FOCTR5E0K3VS2PFHQ8I4HMYD","A2PEN75MMUA963","31D0ZWOD0AL5TKHZZFW9PF504XD0AR","","527","img/flower1.png","76","530","3","1","3","1","1,0.333,0.333,0.333,1,0.333,0.333,0.333,1","1,0.333,0.333,0.333,1,0.333,0.333,0.333,1","1",""
"","html-keyboard-response","165","106523","0.0-165.0","3UNH76FOCTR5E0K3VS2PFHQ8I4HMYD","A2PEN75MMUA963","31D0ZWOD0AL5TKHZZFW9PF504XD0AR","","null","<img src=""img/flower1.png"" style=""width:200px; border:14px solid green;"">","null","","","","","","","","",""
"","image-keyboard-response","166","106874","0.0-166.0","3UNH76FOCTR5E0K3VS2PFHQ8I4HMYD","A2PEN75MMUA963","31D0ZWOD0AL5TKHZZFW9PF504XD0AR","","350","img/flower1.png","76","351","3","1","3","1","1,0.333,0.333,0.333,1,0.333,0.333,0.333,1","1,0.333,0.333,0.333,1,0.333,0.333,0.333,1","1",""
"","html-keyboard-response","167","107177","0.0-167.0","3UNH76FOCTR5E0K3VS2PFHQ8I4HMYD","A2PEN75MMUA963","31D0ZWOD0AL5TKHZZFW9PF504XD0AR","","null","<img src=""img/flower1.png"" style=""width:200px; border:14px solid green;"">","null","","","","","","","","",""
"","image-keyboard-response","168","107510","0.0-168.0","3UNH76FOCTR5E0K3VS2PFHQ8I4HMYD","A2PEN75MMUA963","31D0ZWOD0AL5TKHZZFW9PF504XD0AR","","329","img/flower1.png","76","332","3","1","3","1","1,0.333,0.333,0.333,1,0.333,0.333,0.333,1","1,0.333,0.333,0.333,1,0.333,0.333,0.333,1","1",""
"","html-keyboard-response","169","107812","0.0-169.0","3UNH76FOCTR5E0K3VS2PFHQ8I4HMYD","A2PEN75MMUA963","31D0ZWOD0AL5TKHZZFW9PF504XD0AR","","null","<img src=""img/flower1.png"" style=""width:200px; border:14px solid green;"">","null","","","","","","","","",""
"","image-keyboard-response","170","108719","0.0-170.0","3UNH76FOCTR5E0K3VS2PFHQ8I4HMYD","A2PEN75MMUA963","31D0ZWOD0AL5TKHZZFW9PF504XD0AR","","905","img/flower2.png","75","906","2","1","1","1","1,0.333,0.333,0.333,1,0.333,0.333,0.333,1","1,0.333,0.333,0.333,1,0.333,0.333,0.333,1","1",""
"","html-keyboard-response","171","109023","0.0-171.0","3UNH76FOCTR5E0K3VS2PFHQ8I4HMYD","A2PEN75MMUA963","31D0ZWOD0AL5TKHZZFW9PF504XD0AR","","null","<img src=""img/flower2.png"" style=""width:200px; border:14px solid green;"">","null","","","","","","","","",""
"","image-keyboard-response","172","109671","0.0-172.0","3UNH76FOCTR5E0K3VS2PFHQ8I4HMYD","A2PEN75MMUA963","31D0ZWOD0AL5TKHZZFW9PF504XD0AR","","646","img/flower1.png","76","647","3","1","3","1","1,0.333,0.333,0.333,1,0.333,0.333,0.333,1","1,0.333,0.333,0.333,1,0.333,0.333,0.333,1","1",""
"","html-keyboard-response","173","109972","0.0-173.0","3UNH76FOCTR5E0K3VS2PFHQ8I4HMYD","A2PEN75MMUA963","31D0ZWOD0AL5TKHZZFW9PF504XD0AR","","null","<img src=""img/flower1.png"" style=""width:200px; border:14px solid green;"">","null","","","","","","","","",""
"","image-keyboard-response","174","110331","0.0-174.0","3UNH76FOCTR5E0K3VS2PFHQ8I4HMYD","A2PEN75MMUA963","31D0ZWOD0AL5TKHZZFW9PF504XD0AR","","357","img/flower1.png","76","359","3","1","3","1","1,0.333,0.333,0.333,1,0.333,0.333,0.333,1","1,0.333,0.333,0.333,1,0.333,0.333,0.333,1","1",""
"","html-keyboard-response","175","110633","0.0-175.0","3UNH76FOCTR5E0K3VS2PFHQ8I4HMYD","A2PEN75MMUA963","31D0ZWOD0AL5TKHZZFW9PF504XD0AR","","null","<img src=""img/flower1.png"" style=""width:200px; border:14px solid green;"">","null","","","","","","","","",""
"","image-keyboard-response","176","110915","0.0-176.0","3UNH76FOCTR5E0K3VS2PFHQ8I4HMYD","A2PEN75MMUA963","31D0ZWOD0AL5TKHZZFW9PF504XD0AR","","279","img/flower1.png","76","281","3","1","3","1","1,0.333,0.333,0.333,1,0.333,0.333,0.333,1","1,0.333,0.333,0.333,1,0.333,0.333,0.333,1","1",""
"","html-keyboard-response","177","111218","0.0-177.0","3UNH76FOCTR5E0K3VS2PFHQ8I4HMYD","A2PEN75MMUA963","31D0ZWOD0AL5TKHZZFW9PF504XD0AR","","null","<img src=""img/flower1.png"" style=""width:200px; border:14px solid green;"">","null","","","","","","","","",""
"","image-keyboard-response","178","111885","0.0-178.0","3UNH76FOCTR5E0K3VS2PFHQ8I4HMYD","A2PEN75MMUA963","31D0ZWOD0AL5TKHZZFW9PF504XD0AR","","665","img/flower6.png","74","666","1","1","2","1","1,0.333,0.333,0.333,1,0.333,0.333,0.333,1","1,0.333,0.333,0.333,1,0.333,0.333,0.333,1","1",""
"","html-keyboard-response","179","112188","0.0-179.0","3UNH76FOCTR5E0K3VS2PFHQ8I4HMYD","A2PEN75MMUA963","31D0ZWOD0AL5TKHZZFW9PF504XD0AR","","null","<img src=""img/flower6.png"" style=""width:200px; border:14px solid green;"">","null","","","","","","","","",""
"","image-keyboard-response","180","112779","0.0-180.0","3UNH76FOCTR5E0K3VS2PFHQ8I4HMYD","A2PEN75MMUA963","31D0ZWOD0AL5TKHZZFW9PF504XD0AR","","589","img/flower2.png","75","591","2","0","1","1","1,0.333,0.333,0.333,1,0.333,0.333,0.333,1","1,0.333,0.333,0.333,1,0.333,0.333,0.333,1","1",""
"","html-keyboard-response","181","113081","0.0-181.0","3UNH76FOCTR5E0K3VS2PFHQ8I4HMYD","A2PEN75MMUA963","31D0ZWOD0AL5TKHZZFW9PF504XD0AR","","null","<img src=""img/flower2.png"" style=""width:200px;border:14px solid red;"">","null","","","","","","","","",""
"","html-keyboard-response","182","114134","0.0-182.0","3UNH76FOCTR5E0K3VS2PFHQ8I4HMYD","A2PEN75MMUA963","31D0ZWOD0AL5TKHZZFW9PF504XD0AR","","","","","","","","","","","","",""
"","image-keyboard-response","183","115519","0.0-183.0","3UNH76FOCTR5E0K3VS2PFHQ8I4HMYD","A2PEN75MMUA963","31D0ZWOD0AL5TKHZZFW9PF504XD0AR","","1380","img/flower4.png","75","1385","2","0","1","2","1,0,0,1,1,0,1,0,1","0,0,1,1,0,1,0,1,1","2",""
"","html-keyboard-response","184","115822","0.0-184.0","3UNH76FOCTR5E0K3VS2PFHQ8I4HMYD","A2PEN75MMUA963","31D0ZWOD0AL5TKHZZFW9PF504XD0AR","","null","<img src=""img/flower4.png"" style=""width:200px;border:14px solid red;"">","null","","","","","","","","",""
"","image-keyboard-response","185","116066","0.0-185.0","3UNH76FOCTR5E0K3VS2PFHQ8I4HMYD","A2PEN75MMUA963","31D0ZWOD0AL5TKHZZFW9PF504XD0AR","","243","img/flower3.png","76","244","3","1","3","2","1,0,0,1,1,0,1,0,1","0,0,1,1,0,1,0,1,1","2",""
"","html-keyboard-response","186","116375","0.0-186.0","3UNH76FOCTR5E0K3VS2PFHQ8I4HMYD","A2PEN75MMUA963","31D0ZWOD0AL5TKHZZFW9PF504XD0AR","","null","<img src=""img/flower3.png"" style=""width:200px; border:14px solid green;"">","null","","","","","","","","",""
"","image-keyboard-response","187","116600","0.0-187.0","3UNH76FOCTR5E0K3VS2PFHQ8I4HMYD","A2PEN75MMUA963","31D0ZWOD0AL5TKHZZFW9PF504XD0AR","","224","img/flower3.png","76","226","3","1","3","2","1,0,0,1,1,0,1,0,1","0,0,1,1,0,1,0,1,1","2",""
"","html-keyboard-response","188","116903","0.0-188.0","3UNH76FOCTR5E0K3VS2PFHQ8I4HMYD","A2PEN75MMUA963","31D0ZWOD0AL5TKHZZFW9PF504XD0AR","","null","<img src=""img/flower3.png"" style=""width:200px; border:14px solid green;"">","null","","","","","","","","",""
"","image-keyboard-response","189","117115","0.0-189.0","3UNH76FOCTR5E0K3VS2PFHQ8I4HMYD","A2PEN75MMUA963","31D0ZWOD0AL5TKHZZFW9PF504XD0AR","","211","img/flower5.png","76","212","3","1","2","2","1,0,0,1,1,0,1,0,1","0,0,1,1,0,1,0,1,1","2",""
"","html-keyboard-response","190","117418","0.0-190.0","3UNH76FOCTR5E0K3VS2PFHQ8I4HMYD","A2PEN75MMUA963","31D0ZWOD0AL5TKHZZFW9PF504XD0AR","","null","<img src=""img/flower5.png"" style=""width:200px; border:14px solid green;"">","null","","","","","","","","",""
"","image-keyboard-response","191","117563","0.0-191.0","3UNH76FOCTR5E0K3VS2PFHQ8I4HMYD","A2PEN75MMUA963","31D0ZWOD0AL5TKHZZFW9PF504XD0AR","","144","img/flower5.png","75","145","2","0","2","2","1,0,0,1,1,0,1,0,1","0,0,1,1,0,1,0,1,1","2",""
"","html-keyboard-response","192","117866","0.0-192.0","3UNH76FOCTR5E0K3VS2PFHQ8I4HMYD","A2PEN75MMUA963","31D0ZWOD0AL5TKHZZFW9PF504XD0AR","","null","<img src=""img/flower5.png"" style=""width:200px;border:14px solid red;"">","null","","","","","","","","",""
"","image-keyboard-response","193","118103","0.0-193.0","3UNH76FOCTR5E0K3VS2PFHQ8I4HMYD","A2PEN75MMUA963","31D0ZWOD0AL5TKHZZFW9PF504XD0AR","","234","img/flower3.png","75","236","2","1","3","2","1,0,0,1,1,0,1,0,1","0,0,1,1,0,1,0,1,1","2",""
"","html-keyboard-response","194","118406","0.0-194.0","3UNH76FOCTR5E0K3VS2PFHQ8I4HMYD","A2PEN75MMUA963","31D0ZWOD0AL5TKHZZFW9PF504XD0AR","","null","<img src=""img/flower3.png"" style=""width:200px; border:14px solid green;"">","null","","","","","","","","",""
"","image-keyboard-response","195","118600","0.0-195.0","3UNH76FOCTR5E0K3VS2PFHQ8I4HMYD","A2PEN75MMUA963","31D0ZWOD0AL5TKHZZFW9PF504XD0AR","","192","img/flower4.png","74","194","1","0","1","2","1,0,0,1,1,0,1,0,1","0,0,1,1,0,1,0,1,1","2",""
"","html-keyboard-response","196","118904","0.0-196.0","3UNH76FOCTR5E0K3VS2PFHQ8I4HMYD","A2PEN75MMUA963","31D0ZWOD0AL5TKHZZFW9PF504XD0AR","","null","<img src=""img/flower4.png"" style=""width:200px;border:14px solid red;"">","null","","","","","","","","",""
"","image-keyboard-response","197","118972","0.0-197.0","3UNH76FOCTR5E0K3VS2PFHQ8I4HMYD","A2PEN75MMUA963","31D0ZWOD0AL5TKHZZFW9PF504XD0AR","","64","img/flower4.png","74","68","1","0","1","2","1,0,0,1,1,0,1,0,1","0,0,1,1,0,1,0,1,1","2",""
"","html-keyboard-response","198","119297","0.0-198.0","3UNH76FOCTR5E0K3VS2PFHQ8I4HMYD","A2PEN75MMUA963","31D0ZWOD0AL5TKHZZFW9PF504XD0AR","","null","<img src=""img/flower4.png"" style=""width:200px;border:14px solid red;"">","null","","","","","","","","",""
"","image-keyboard-response","199","119335","0.0-199.0","3UNH76FOCTR5E0K3VS2PFHQ8I4HMYD","A2PEN75MMUA963","31D0ZWOD0AL5TKHZZFW9PF504XD0AR","","36","img/flower5.png","75","38","2","0","2","2","1,0,0,1,1,0,1,0,1","0,0,1,1,0,1,0,1,1","2",""
"","html-keyboard-response","200","119639","0.0-200.0","3UNH76FOCTR5E0K3VS2PFHQ8I4HMYD","A2PEN75MMUA963","31D0ZWOD0AL5TKHZZFW9PF504XD0AR","","null","<img src=""img/flower5.png"" style=""width:200px;border:14px solid red;"">","null","","","","","","","","",""
"","image-keyboard-response","201","119744","0.0-201.0","3UNH76FOCTR5E0K3VS2PFHQ8I4HMYD","A2PEN75MMUA963","31D0ZWOD0AL5TKHZZFW9PF504XD0AR","","103","img/flower5.png","76","105","3","1","2","2","1,0,0,1,1,0,1,0,1","0,0,1,1,0,1,0,1,1","2",""
"","html-keyboard-response","202","120047","0.0-202.0","3UNH76FOCTR5E0K3VS2PFHQ8I4HMYD","A2PEN75MMUA963","31D0ZWOD0AL5TKHZZFW9PF504XD0AR","","null","<img src=""img/flower5.png"" style=""width:200px; border:14px solid green;"">","null","","","","","","","","",""
"","image-keyboard-response","203","120127","0.0-203.0","3UNH76FOCTR5E0K3VS2PFHQ8I4HMYD","A2PEN75MMUA963","31D0ZWOD0AL5TKHZZFW9PF504XD0AR","","79","img/flower3.png","76","80","3","1","3","2","1,0,0,1,1,0,1,0,1","0,0,1,1,0,1,0,1,1","2",""
"","html-keyboard-response","204","120432","0.0-204.0","3UNH76FOCTR5E0K3VS2PFHQ8I4HMYD","A2PEN75MMUA963","31D0ZWOD0AL5TKHZZFW9PF504XD0AR","","null","<img src=""img/flower3.png"" style=""width:200px; border:14px solid green;"">","null","","","","","","","","",""
"","image-keyboard-response","205","120477","0.0-205.0","3UNH76FOCTR5E0K3VS2PFHQ8I4HMYD","A2PEN75MMUA963","31D0ZWOD0AL5TKHZZFW9PF504XD0AR","","42","img/flower5.png","75","45","2","0","2","2","1,0,0,1,1,0,1,0,1","0,0,1,1,0,1,0,1,1","2",""
"","html-keyboard-response","206","120781","0.0-206.0","3UNH76FOCTR5E0K3VS2PFHQ8I4HMYD","A2PEN75MMUA963","31D0ZWOD0AL5TKHZZFW9PF504XD0AR","","null","<img src=""img/flower5.png"" style=""width:200px;border:14px solid red;"">","null","","","","","","","","",""
"","image-keyboard-response","207","120898","0.0-207.0","3UNH76FOCTR5E0K3VS2PFHQ8I4HMYD","A2PEN75MMUA963","31D0ZWOD0AL5TKHZZFW9PF504XD0AR","","113","img/flower3.png","76","116","3","1","3","2","1,0,0,1,1,0,1,0,1","0,0,1,1,0,1,0,1,1","2",""
"","html-keyboard-response","208","121201","0.0-208.0","3UNH76FOCTR5E0K3VS2PFHQ8I4HMYD","A2PEN75MMUA963","31D0ZWOD0AL5TKHZZFW9PF504XD0AR","","null","<img src=""img/flower3.png"" style=""width:200px; border:14px solid green;"">","null","","","","","","","","",""
"","image-keyboard-response","209","121216","0.0-209.0","3UNH76FOCTR5E0K3VS2PFHQ8I4HMYD","A2PEN75MMUA963","31D0ZWOD0AL5TKHZZFW9PF504XD0AR","","12","img/flower5.png","74","15","1","1","2","2","1,0,0,1,1,0,1,0,1","0,0,1,1,0,1,0,1,1","2",""
"","html-keyboard-response","210","121521","0.0-210.0","3UNH76FOCTR5E0K3VS2PFHQ8I4HMYD","A2PEN75MMUA963","31D0ZWOD0AL5TKHZZFW9PF504XD0AR","","null","<img src=""img/flower5.png"" style=""width:200px; border:14px solid green;"">","null","","","","","","","","",""
"","image-keyboard-response","211","121640","0.0-211.0","3UNH76FOCTR5E0K3VS2PFHQ8I4HMYD","A2PEN75MMUA963","31D0ZWOD0AL5TKHZZFW9PF504XD0AR","","116","img/flower5.png","75","119","2","0","2","2","1,0,0,1,1,0,1,0,1","0,0,1,1,0,1,0,1,1","2",""
"","html-keyboard-response","212","121943","0.0-212.0","3UNH76FOCTR5E0K3VS2PFHQ8I4HMYD","A2PEN75MMUA963","31D0ZWOD0AL5TKHZZFW9PF504XD0AR","","null","<img src=""img/flower5.png"" style=""width:200px;border:14px solid red;"">","null","","","","","","","","",""
"","image-keyboard-response","213","122524","0.0-213.0","3UNH76FOCTR5E0K3VS2PFHQ8I4HMYD","A2PEN75MMUA963","31D0ZWOD0AL5TKHZZFW9PF504XD0AR","","580","img/flower4.png","76","582","3","1","1","2","1,0,0,1,1,0,1,0,1","0,0,1,1,0,1,0,1,1","2",""
"","html-keyboard-response","214","122827","0.0-214.0","3UNH76FOCTR5E0K3VS2PFHQ8I4HMYD","A2PEN75MMUA963","31D0ZWOD0AL5TKHZZFW9PF504XD0AR","","null","<img src=""img/flower4.png"" style=""width:200px; border:14px solid green;"">","null","","","","","","","","",""
"","image-keyboard-response","215","123043","0.0-215.0","3UNH76FOCTR5E0K3VS2PFHQ8I4HMYD","A2PEN75MMUA963","31D0ZWOD0AL5TKHZZFW9PF504XD0AR","","214","img/flower5.png","76","215","3","1","2","2","1,0,0,1,1,0,1,0,1","0,0,1,1,0,1,0,1,1","2",""
"","html-keyboard-response","216","123346","0.0-216.0","3UNH76FOCTR5E0K3VS2PFHQ8I4HMYD","A2PEN75MMUA963","31D0ZWOD0AL5TKHZZFW9PF504XD0AR","","null","<img src=""img/flower5.png"" style=""width:200px; border:14px solid green;"">","null","","","","","","","","",""
"","image-keyboard-response","217","123666","0.0-217.0","3UNH76FOCTR5E0K3VS2PFHQ8I4HMYD","A2PEN75MMUA963","31D0ZWOD0AL5TKHZZFW9PF504XD0AR","","319","img/flower4.png","75","320","2","0","1","2","1,0,0,1,1,0,1,0,1","0,0,1,1,0,1,0,1,1","2",""
"","html-keyboard-response","218","123968","0.0-218.0","3UNH76FOCTR5E0K3VS2PFHQ8I4HMYD","A2PEN75MMUA963","31D0ZWOD0AL5TKHZZFW9PF504XD0AR","","null","<img src=""img/flower4.png"" style=""width:200px;border:14px solid red;"">","null","","","","","","","","",""
"","image-keyboard-response","219","124253","0.0-219.0","3UNH76FOCTR5E0K3VS2PFHQ8I4HMYD","A2PEN75MMUA963","31D0ZWOD0AL5TKHZZFW9PF504XD0AR","","283","img/flower3.png","75","284","2","1","3","2","1,0,0,1,1,0,1,0,1","0,0,1,1,0,1,0,1,1","2",""
"","html-keyboard-response","220","124555","0.0-220.0","3UNH76FOCTR5E0K3VS2PFHQ8I4HMYD","A2PEN75MMUA963","31D0ZWOD0AL5TKHZZFW9PF504XD0AR","","null","<img src=""img/flower3.png"" style=""width:200px; border:14px solid green;"">","null","","","","","","","","",""
"","image-keyboard-response","221","124889","0.0-221.0","3UNH76FOCTR5E0K3VS2PFHQ8I4HMYD","A2PEN75MMUA963","31D0ZWOD0AL5TKHZZFW9PF504XD0AR","","333","img/flower5.png","75","334","2","0","2","2","1,0,0,1,1,0,1,0,1","0,0,1,1,0,1,0,1,1","2",""
"","html-keyboard-response","222","125190","0.0-222.0","3UNH76FOCTR5E0K3VS2PFHQ8I4HMYD","A2PEN75MMUA963","31D0ZWOD0AL5TKHZZFW9PF504XD0AR","","null","<img src=""img/flower5.png"" style=""width:200px;border:14px solid red;"">","null","","","","","","","","",""
"","image-keyboard-response","223","125425","0.0-223.0","3UNH76FOCTR5E0K3VS2PFHQ8I4HMYD","A2PEN75MMUA963","31D0ZWOD0AL5TKHZZFW9PF504XD0AR","","232","img/flower4.png","76","234","3","1","1","2","1,0,0,1,1,0,1,0,1","0,0,1,1,0,1,0,1,1","2",""
"","html-keyboard-response","224","125728","0.0-224.0","3UNH76FOCTR5E0K3VS2PFHQ8I4HMYD","A2PEN75MMUA963","31D0ZWOD0AL5TKHZZFW9PF504XD0AR","","null","<img src=""img/flower4.png"" style=""width:200px; border:14px solid green;"">","null","","","","","","","","",""
"","image-keyboard-response","225","125950","0.0-225.0","3UNH76FOCTR5E0K3VS2PFHQ8I4HMYD","A2PEN75MMUA963","31D0ZWOD0AL5TKHZZFW9PF504XD0AR","","220","img/flower3.png","76","222","3","1","3","2","1,0,0,1,1,0,1,0,1","0,0,1,1,0,1,0,1,1","2",""
"","html-keyboard-response","226","126253","0.0-226.0","3UNH76FOCTR5E0K3VS2PFHQ8I4HMYD","A2PEN75MMUA963","31D0ZWOD0AL5TKHZZFW9PF504XD0AR","","null","<img src=""img/flower3.png"" style=""width:200px; border:14px solid green;"">","null","","","","","","","","",""
"","image-keyboard-response","227","126457","0.0-227.0","3UNH76FOCTR5E0K3VS2PFHQ8I4HMYD","A2PEN75MMUA963","31D0ZWOD0AL5TKHZZFW9PF504XD0AR","","201","img/flower4.png","76","203","3","1","1","2","1,0,0,1,1,0,1,0,1","0,0,1,1,0,1,0,1,1","2",""
"","html-keyboard-response","228","126760","0.0-228.0","3UNH76FOCTR5E0K3VS2PFHQ8I4HMYD","A2PEN75MMUA963","31D0ZWOD0AL5TKHZZFW9PF504XD0AR","","null","<img src=""img/flower4.png"" style=""width:200px; border:14px solid green;"">","null","","","","","","","","",""
"","image-keyboard-response","229","126935","0.0-229.0","3UNH76FOCTR5E0K3VS2PFHQ8I4HMYD","A2PEN75MMUA963","31D0ZWOD0AL5TKHZZFW9PF504XD0AR","","173","img/flower4.png","76","175","3","1","1","2","1,0,0,1,1,0,1,0,1","0,0,1,1,0,1,0,1,1","2",""
"","html-keyboard-response","230","127238","0.0-230.0","3UNH76FOCTR5E0K3VS2PFHQ8I4HMYD","A2PEN75MMUA963","31D0ZWOD0AL5TKHZZFW9PF504XD0AR","","null","<img src=""img/flower4.png"" style=""width:200px; border:14px solid green;"">","null","","","","","","","","",""
"","image-keyboard-response","231","127373","0.0-231.0","3UNH76FOCTR5E0K3VS2PFHQ8I4HMYD","A2PEN75MMUA963","31D0ZWOD0AL5TKHZZFW9PF504XD0AR","","133","img/flower5.png","76","133","3","1","2","2","1,0,0,1,1,0,1,0,1","0,0,1,1,0,1,0,1,1","2",""
"","html-keyboard-response","232","127676","0.0-232.0","3UNH76FOCTR5E0K3VS2PFHQ8I4HMYD","A2PEN75MMUA963","31D0ZWOD0AL5TKHZZFW9PF504XD0AR","","null","<img src=""img/flower5.png"" style=""width:200px; border:14px solid green;"">","null","","","","","","","","",""
"","image-keyboard-response","233","127876","0.0-233.0","3UNH76FOCTR5E0K3VS2PFHQ8I4HMYD","A2PEN75MMUA963","31D0ZWOD0AL5TKHZZFW9PF504XD0AR","","198","img/flower5.png","76","200","3","1","2","2","1,0,0,1,1,0,1,0,1","0,0,1,1,0,1,0,1,1","2",""
"","html-keyboard-response","234","128179","0.0-234.0","3UNH76FOCTR5E0K3VS2PFHQ8I4HMYD","A2PEN75MMUA963","31D0ZWOD0AL5TKHZZFW9PF504XD0AR","","null","<img src=""img/flower5.png"" style=""width:200px; border:14px solid green;"">","null","","","","","","","","",""
"","image-keyboard-response","235","128259","0.0-235.0","3UNH76FOCTR5E0K3VS2PFHQ8I4HMYD","A2PEN75MMUA963","31D0ZWOD0AL5TKHZZFW9PF504XD0AR","","77","img/flower5.png","76","79","3","1","2","2","1,0,0,1,1,0,1,0,1","0,0,1,1,0,1,0,1,1","2",""
"","html-keyboard-response","236","128562","0.0-236.0","3UNH76FOCTR5E0K3VS2PFHQ8I4HMYD","A2PEN75MMUA963","31D0ZWOD0AL5TKHZZFW9PF504XD0AR","","null","<img src=""img/flower5.png"" style=""width:200px; border:14px solid green;"">","null","","","","","","","","",""
"","image-keyboard-response","237","128608","0.0-237.0","3UNH76FOCTR5E0K3VS2PFHQ8I4HMYD","A2PEN75MMUA963","31D0ZWOD0AL5TKHZZFW9PF504XD0AR","","44","img/flower3.png","76","47","3","1","3","2","1,0,0,1,1,0,1,0,1","0,0,1,1,0,1,0,1,1","2",""
"","html-keyboard-response","238","128913","0.0-238.0","3UNH76FOCTR5E0K3VS2PFHQ8I4HMYD","A2PEN75MMUA963","31D0ZWOD0AL5TKHZZFW9PF504XD0AR","","null","<img src=""img/flower3.png"" style=""width:200px; border:14px solid green;"">","null","","","","","","","","",""
"","image-keyboard-response","239","129421","0.0-239.0","3UNH76FOCTR5E0K3VS2PFHQ8I4HMYD","A2PEN75MMUA963","31D0ZWOD0AL5TKHZZFW9PF504XD0AR","","506","img/flower4.png","76","507","3","1","1","2","1,0,0,1,1,0,1,0,1","0,0,1,1,0,1,0,1,1","2",""
"","html-keyboard-response","240","129731","0.0-240.0","3UNH76FOCTR5E0K3VS2PFHQ8I4HMYD","A2PEN75MMUA963","31D0ZWOD0AL5TKHZZFW9PF504XD0AR","","null","<img src=""img/flower4.png"" style=""width:200px; border:14px solid green;"">","null","","","","","","","","",""
"","image-keyboard-response","241","129913","0.0-241.0","3UNH76FOCTR5E0K3VS2PFHQ8I4HMYD","A2PEN75MMUA963","31D0ZWOD0AL5TKHZZFW9PF504XD0AR","","180","img/flower4.png","76","181","3","1","1","2","1,0,0,1,1,0,1,0,1","0,0,1,1,0,1,0,1,1","2",""
"","html-keyboard-response","242","130215","0.0-242.0","3UNH76FOCTR5E0K3VS2PFHQ8I4HMYD","A2PEN75MMUA963","31D0ZWOD0AL5TKHZZFW9PF504XD0AR","","null","<img src=""img/flower4.png"" style=""width:200px; border:14px solid green;"">","null","","","","","","","","",""
"","image-keyboard-response","243","130433","0.0-243.0","3UNH76FOCTR5E0K3VS2PFHQ8I4HMYD","A2PEN75MMUA963","31D0ZWOD0AL5TKHZZFW9PF504XD0AR","","217","img/flower3.png","76","218","3","1","3","2","1,0,0,1,1,0,1,0,1","0,0,1,1,0,1,0,1,1","2",""
"","html-keyboard-response","244","130736","0.0-244.0","3UNH76FOCTR5E0K3VS2PFHQ8I4HMYD","A2PEN75MMUA963","31D0ZWOD0AL5TKHZZFW9PF504XD0AR","","null","<img src=""img/flower3.png"" style=""width:200px; border:14px solid green;"">","null","","","","","","","","",""
"","image-keyboard-response","245","130754","0.0-245.0","3UNH76FOCTR5E0K3VS2PFHQ8I4HMYD","A2PEN75MMUA963","31D0ZWOD0AL5TKHZZFW9PF504XD0AR","","15","img/flower4.png","76","17","3","1","1","2","1,0,0,1,1,0,1,0,1","0,0,1,1,0,1,0,1,1","2",""
"","html-keyboard-response","246","131057","0.0-246.0","3UNH76FOCTR5E0K3VS2PFHQ8I4HMYD","A2PEN75MMUA963","31D0ZWOD0AL5TKHZZFW9PF504XD0AR","","null","<img src=""img/flower4.png"" style=""width:200px; border:14px solid green;"">","null","","","","","","","","",""
"","image-keyboard-response","247","131139","0.0-247.0","3UNH76FOCTR5E0K3VS2PFHQ8I4HMYD","A2PEN75MMUA963","31D0ZWOD0AL5TKHZZFW9PF504XD0AR","","80","img/flower3.png","76","81","3","1","3","2","1,0,0,1,1,0,1,0,1","0,0,1,1,0,1,0,1,1","2",""
"","html-keyboard-response","248","131442","0.0-248.0","3UNH76FOCTR5E0K3VS2PFHQ8I4HMYD","A2PEN75MMUA963","31D0ZWOD0AL5TKHZZFW9PF504XD0AR","","null","<img src=""img/flower3.png"" style=""width:200px; border:14px solid green;"">","null","","","","","","","","",""
"","image-keyboard-response","249","131869","0.0-249.0","3UNH76FOCTR5E0K3VS2PFHQ8I4HMYD","A2PEN75MMUA963","31D0ZWOD0AL5TKHZZFW9PF504XD0AR","","424","img/flower5.png","76","427","3","1","2","2","1,0,0,1,1,0,1,0,1","0,0,1,1,0,1,0,1,1","2",""
"","html-keyboard-response","250","132172","0.0-250.0","3UNH76FOCTR5E0K3VS2PFHQ8I4HMYD","A2PEN75MMUA963","31D0ZWOD0AL5TKHZZFW9PF504XD0AR","","null","<img src=""img/flower5.png"" style=""width:200px; border:14px solid green;"">","null","","","","","","","","",""
"","image-keyboard-response","251","132209","0.0-251.0","3UNH76FOCTR5E0K3VS2PFHQ8I4HMYD","A2PEN75MMUA963","31D0ZWOD0AL5TKHZZFW9PF504XD0AR","","33","img/flower3.png","76","34","3","1","3","2","1,0,0,1,1,0,1,0,1","0,0,1,1,0,1,0,1,1","2",""
"","html-keyboard-response","252","132511","0.0-252.0","3UNH76FOCTR5E0K3VS2PFHQ8I4HMYD","A2PEN75MMUA963","31D0ZWOD0AL5TKHZZFW9PF504XD0AR","","null","<img src=""img/flower3.png"" style=""width:200px; border:14px solid green;"">","null","","","","","","","","",""
"","image-keyboard-response","253","132734","0.0-253.0","3UNH76FOCTR5E0K3VS2PFHQ8I4HMYD","A2PEN75MMUA963","31D0ZWOD0AL5TKHZZFW9PF504XD0AR","","219","img/flower4.png","76","222","3","1","1","2","1,0,0,1,1,0,1,0,1","0,0,1,1,0,1,0,1,1","2",""
"","html-keyboard-response","254","133067","0.0-254.0","3UNH76FOCTR5E0K3VS2PFHQ8I4HMYD","A2PEN75MMUA963","31D0ZWOD0AL5TKHZZFW9PF504XD0AR","","null","<img src=""img/flower4.png"" style=""width:200px; border:14px solid green;"">","null","","","","","","","","",""
"","image-keyboard-response","255","133130","0.0-255.0","3UNH76FOCTR5E0K3VS2PFHQ8I4HMYD","A2PEN75MMUA963","31D0ZWOD0AL5TKHZZFW9PF504XD0AR","","61","img/flower3.png","76","63","3","1","3","2","1,0,0,1,1,0,1,0,1","0,0,1,1,0,1,0,1,1","2",""
"","html-keyboard-response","256","133432","0.0-256.0","3UNH76FOCTR5E0K3VS2PFHQ8I4HMYD","A2PEN75MMUA963","31D0ZWOD0AL5TKHZZFW9PF504XD0AR","","null","<img src=""img/flower3.png"" style=""width:200px; border:14px solid green;"">","null","","","","","","","","",""
"","image-keyboard-response","257","133652","0.0-257.0","3UNH76FOCTR5E0K3VS2PFHQ8I4HMYD","A2PEN75MMUA963","31D0ZWOD0AL5TKHZZFW9PF504XD0AR","","218","img/flower4.png","76","219","3","1","1","2","1,0,0,1,1,0,1,0,1","0,0,1,1,0,1,0,1,1","2",""
"","html-keyboard-response","258","133955","0.0-258.0","3UNH76FOCTR5E0K3VS2PFHQ8I4HMYD","A2PEN75MMUA963","31D0ZWOD0AL5TKHZZFW9PF504XD0AR","","null","<img src=""img/flower4.png"" style=""width:200px; border:14px solid green;"">","null","","","","","","","","",""
"","image-keyboard-response","259","133977","0.0-259.0","3UNH76FOCTR5E0K3VS2PFHQ8I4HMYD","A2PEN75MMUA963","31D0ZWOD0AL5TKHZZFW9PF504XD0AR","","20","img/flower4.png","76","21","3","1","1","2","1,0,0,1,1,0,1,0,1","0,0,1,1,0,1,0,1,1","2",""
"","html-keyboard-response","260","134280","0.0-260.0","3UNH76FOCTR5E0K3VS2PFHQ8I4HMYD","A2PEN75MMUA963","31D0ZWOD0AL5TKHZZFW9PF504XD0AR","","null","<img src=""img/flower4.png"" style=""width:200px; border:14px solid green;"">","null","","","","","","","","",""
"","image-keyboard-response","261","134596","0.0-261.0","3UNH76FOCTR5E0K3VS2PFHQ8I4HMYD","A2PEN75MMUA963","31D0ZWOD0AL5TKHZZFW9PF504XD0AR","","314","img/flower3.png","76","316","3","1","3","2","1,0,0,1,1,0,1,0,1","0,0,1,1,0,1,0,1,1","2",""
"","html-keyboard-response","262","134900","0.0-262.0","3UNH76FOCTR5E0K3VS2PFHQ8I4HMYD","A2PEN75MMUA963","31D0ZWOD0AL5TKHZZFW9PF504XD0AR","","null","<img src=""img/flower3.png"" style=""width:200px; border:14px solid green;"">","null","","","","","","","","",""
"","image-keyboard-response","263","135065","0.0-263.0","3UNH76FOCTR5E0K3VS2PFHQ8I4HMYD","A2PEN75MMUA963","31D0ZWOD0AL5TKHZZFW9PF504XD0AR","","162","img/flower5.png","76","163","3","1","2","2","1,0,0,1,1,0,1,0,1","0,0,1,1,0,1,0,1,1","2",""
"","html-keyboard-response","264","135372","0.0-264.0","3UNH76FOCTR5E0K3VS2PFHQ8I4HMYD","A2PEN75MMUA963","31D0ZWOD0AL5TKHZZFW9PF504XD0AR","","null","<img src=""img/flower5.png"" style=""width:200px; border:14px solid green;"">","null","","","","","","","","",""
"","image-keyboard-response","265","135552","0.0-265.0","3UNH76FOCTR5E0K3VS2PFHQ8I4HMYD","A2PEN75MMUA963","31D0ZWOD0AL5TKHZZFW9PF504XD0AR","","178","img/flower5.png","76","181","3","1","2","2","1,0,0,1,1,0,1,0,1","0,0,1,1,0,1,0,1,1","2",""
"","html-keyboard-response","266","135855","0.0-266.0","3UNH76FOCTR5E0K3VS2PFHQ8I4HMYD","A2PEN75MMUA963","31D0ZWOD0AL5TKHZZFW9PF504XD0AR","","null","<img src=""img/flower5.png"" style=""width:200px; border:14px solid green;"">","null","","","","","","","","",""
"","image-keyboard-response","267","136182","0.0-267.0","3UNH76FOCTR5E0K3VS2PFHQ8I4HMYD","A2PEN75MMUA963","31D0ZWOD0AL5TKHZZFW9PF504XD0AR","","326","img/flower5.png","76","327","3","1","2","2","1,0,0,1,1,0,1,0,1","0,0,1,1,0,1,0,1,1","2",""
"","html-keyboard-response","268","136484","0.0-268.0","3UNH76FOCTR5E0K3VS2PFHQ8I4HMYD","A2PEN75MMUA963","31D0ZWOD0AL5TKHZZFW9PF504XD0AR","","null","<img src=""img/flower5.png"" style=""width:200px; border:14px solid green;"">","null","","","","","","","","",""
"","image-keyboard-response","269","136691","0.0-269.0","3UNH76FOCTR5E0K3VS2PFHQ8I4HMYD","A2PEN75MMUA963","31D0ZWOD0AL5TKHZZFW9PF504XD0AR","","203","img/flower3.png","76","204","3","1","3","2","1,0,0,1,1,0,1,0,1","0,0,1,1,0,1,0,1,1","2",""
"","html-keyboard-response","270","136993","0.0-270.0","3UNH76FOCTR5E0K3VS2PFHQ8I4HMYD","A2PEN75MMUA963","31D0ZWOD0AL5TKHZZFW9PF504XD0AR","","null","<img src=""img/flower3.png"" style=""width:200px; border:14px solid green;"">","null","","","","","","","","",""
"","image-keyboard-response","271","137185","0.0-271.0","3UNH76FOCTR5E0K3VS2PFHQ8I4HMYD","A2PEN75MMUA963","31D0ZWOD0AL5TKHZZFW9PF504XD0AR","","190","img/flower3.png","76","193","3","1","3","2","1,0,0,1,1,0,1,0,1","0,0,1,1,0,1,0,1,1","2",""
"","html-keyboard-response","272","137488","0.0-272.0","3UNH76FOCTR5E0K3VS2PFHQ8I4HMYD","A2PEN75MMUA963","31D0ZWOD0AL5TKHZZFW9PF504XD0AR","","null","<img src=""img/flower3.png"" style=""width:200px; border:14px solid green;"">","null","","","","","","","","",""
"","image-keyboard-response","273","137634","0.0-273.0","3UNH76FOCTR5E0K3VS2PFHQ8I4HMYD","A2PEN75MMUA963","31D0ZWOD0AL5TKHZZFW9PF504XD0AR","","144","img/flower5.png","76","146","3","1","2","2","1,0,0,1,1,0,1,0,1","0,0,1,1,0,1,0,1,1","2",""
"","html-keyboard-response","274","137936","0.0-274.0","3UNH76FOCTR5E0K3VS2PFHQ8I4HMYD","A2PEN75MMUA963","31D0ZWOD0AL5TKHZZFW9PF504XD0AR","","null","<img src=""img/flower5.png"" style=""width:200px; border:14px solid green;"">","null","","","","","","","","",""
"","image-keyboard-response","275","138108","0.0-275.0","3UNH76FOCTR5E0K3VS2PFHQ8I4HMYD","A2PEN75MMUA963","31D0ZWOD0AL5TKHZZFW9PF504XD0AR","","169","img/flower3.png","76","171","3","1","3","2","1,0,0,1,1,0,1,0,1","0,0,1,1,0,1,0,1,1","2",""
"","html-keyboard-response","276","138411","0.0-276.0","3UNH76FOCTR5E0K3VS2PFHQ8I4HMYD","A2PEN75MMUA963","31D0ZWOD0AL5TKHZZFW9PF504XD0AR","","null","<img src=""img/flower3.png"" style=""width:200px; border:14px solid green;"">","null","","","","","","","","",""
"","image-keyboard-response","277","138568","0.0-277.0","3UNH76FOCTR5E0K3VS2PFHQ8I4HMYD","A2PEN75MMUA963","31D0ZWOD0AL5TKHZZFW9PF504XD0AR","","155","img/flower4.png","75","158","2","0","1","2","1,0,0,1,1,0,1,0,1","0,0,1,1,0,1,0,1,1","2",""
"","html-keyboard-response","278","138872","0.0-278.0","3UNH76FOCTR5E0K3VS2PFHQ8I4HMYD","A2PEN75MMUA963","31D0ZWOD0AL5TKHZZFW9PF504XD0AR","","null","<img src=""img/flower4.png"" style=""width:200px;border:14px solid red;"">","null","","","","","","","","",""
"","image-keyboard-response","279","139099","0.0-279.0","3UNH76FOCTR5E0K3VS2PFHQ8I4HMYD","A2PEN75MMUA963","31D0ZWOD0AL5TKHZZFW9PF504XD0AR","","225","img/flower4.png","76","226","3","1","1","2","1,0,0,1,1,0,1,0,1","0,0,1,1,0,1,0,1,1","2",""
"","html-keyboard-response","280","139402","0.0-280.0","3UNH76FOCTR5E0K3VS2PFHQ8I4HMYD","A2PEN75MMUA963","31D0ZWOD0AL5TKHZZFW9PF504XD0AR","","null","<img src=""img/flower4.png"" style=""width:200px; border:14px solid green;"">","null","","","","","","","","",""
"","image-keyboard-response","281","139479","0.0-281.0","3UNH76FOCTR5E0K3VS2PFHQ8I4HMYD","A2PEN75MMUA963","31D0ZWOD0AL5TKHZZFW9PF504XD0AR","","75","img/flower3.png","76","76","3","1","3","2","1,0,0,1,1,0,1,0,1","0,0,1,1,0,1,0,1,1","2",""
"","html-keyboard-response","282","139782","0.0-282.0","3UNH76FOCTR5E0K3VS2PFHQ8I4HMYD","A2PEN75MMUA963","31D0ZWOD0AL5TKHZZFW9PF504XD0AR","","null","<img src=""img/flower3.png"" style=""width:200px; border:14px solid green;"">","null","","","","","","","","",""
"","image-keyboard-response","283","139833","0.0-283.0","3UNH76FOCTR5E0K3VS2PFHQ8I4HMYD","A2PEN75MMUA963","31D0ZWOD0AL5TKHZZFW9PF504XD0AR","","47","img/flower5.png","76","48","3","1","2","2","1,0,0,1,1,0,1,0,1","0,0,1,1,0,1,0,1,1","2",""
"","html-keyboard-response","284","140135","0.0-284.0","3UNH76FOCTR5E0K3VS2PFHQ8I4HMYD","A2PEN75MMUA963","31D0ZWOD0AL5TKHZZFW9PF504XD0AR","","null","<img src=""img/flower5.png"" style=""width:200px; border:14px solid green;"">","null","","","","","","","","",""
"","image-keyboard-response","285","140284","0.0-285.0","3UNH76FOCTR5E0K3VS2PFHQ8I4HMYD","A2PEN75MMUA963","31D0ZWOD0AL5TKHZZFW9PF504XD0AR","","147","img/flower5.png","76","148","3","1","2","2","1,0,0,1,1,0,1,0,1","0,0,1,1,0,1,0,1,1","2",""
"","html-keyboard-response","286","140586","0.0-286.0","3UNH76FOCTR5E0K3VS2PFHQ8I4HMYD","A2PEN75MMUA963","31D0ZWOD0AL5TKHZZFW9PF504XD0AR","","null","<img src=""img/flower5.png"" style=""width:200px; border:14px solid green;"">","null","","","","","","","","",""
"","image-keyboard-response","287","140774","0.0-287.0","3UNH76FOCTR5E0K3VS2PFHQ8I4HMYD","A2PEN75MMUA963","31D0ZWOD0AL5TKHZZFW9PF504XD0AR","","184","img/flower3.png","76","186","3","1","3","2","1,0,0,1,1,0,1,0,1","0,0,1,1,0,1,0,1,1","2",""
"","html-keyboard-response","288","141076","0.0-288.0","3UNH76FOCTR5E0K3VS2PFHQ8I4HMYD","A2PEN75MMUA963","31D0ZWOD0AL5TKHZZFW9PF504XD0AR","","null","<img src=""img/flower3.png"" style=""width:200px; border:14px solid green;"">","null","","","","","","","","",""
"","image-keyboard-response","289","141136","0.0-289.0","3UNH76FOCTR5E0K3VS2PFHQ8I4HMYD","A2PEN75MMUA963","31D0ZWOD0AL5TKHZZFW9PF504XD0AR","","57","img/flower3.png","76","59","3","1","3","2","1,0,0,1,1,0,1,0,1","0,0,1,1,0,1,0,1,1","2",""
"","html-keyboard-response","290","141438","0.0-290.0","3UNH76FOCTR5E0K3VS2PFHQ8I4HMYD","A2PEN75MMUA963","31D0ZWOD0AL5TKHZZFW9PF504XD0AR","","null","<img src=""img/flower3.png"" style=""width:200px; border:14px solid green;"">","null","","","","","","","","",""
"","image-keyboard-response","291","141519","0.0-291.0","3UNH76FOCTR5E0K3VS2PFHQ8I4HMYD","A2PEN75MMUA963","31D0ZWOD0AL5TKHZZFW9PF504XD0AR","","79","img/flower3.png","76","80","3","1","3","2","1,0,0,1,1,0,1,0,1","0,0,1,1,0,1,0,1,1","2",""
"","html-keyboard-response","292","141823","0.0-292.0","3UNH76FOCTR5E0K3VS2PFHQ8I4HMYD","A2PEN75MMUA963","31D0ZWOD0AL5TKHZZFW9PF504XD0AR","","null","<img src=""img/flower3.png"" style=""width:200px; border:14px solid green;"">","null","","","","","","","","",""
"","image-keyboard-response","293","141947","0.0-293.0","3UNH76FOCTR5E0K3VS2PFHQ8I4HMYD","A2PEN75MMUA963","31D0ZWOD0AL5TKHZZFW9PF504XD0AR","","122","img/flower4.png","76","125","3","1","1","2","1,0,0,1,1,0,1,0,1","0,0,1,1,0,1,0,1,1","2",""
"","html-keyboard-response","294","142251","0.0-294.0","3UNH76FOCTR5E0K3VS2PFHQ8I4HMYD","A2PEN75MMUA963","31D0ZWOD0AL5TKHZZFW9PF504XD0AR","","null","<img src=""img/flower4.png"" style=""width:200px; border:14px solid green;"">","null","","","","","","","","",""
"","image-keyboard-response","295","142425","0.0-295.0","3UNH76FOCTR5E0K3VS2PFHQ8I4HMYD","A2PEN75MMUA963","31D0ZWOD0AL5TKHZZFW9PF504XD0AR","","174","img/flower4.png","76","176","3","1","1","2","1,0,0,1,1,0,1,0,1","0,0,1,1,0,1,0,1,1","2",""
"","html-keyboard-response","296","142728","0.0-296.0","3UNH76FOCTR5E0K3VS2PFHQ8I4HMYD","A2PEN75MMUA963","31D0ZWOD0AL5TKHZZFW9PF504XD0AR","","null","<img src=""img/flower4.png"" style=""width:200px; border:14px solid green;"">","null","","","","","","","","",""
"","image-keyboard-response","297","142966","0.0-297.0","3UNH76FOCTR5E0K3VS2PFHQ8I4HMYD","A2PEN75MMUA963","31D0ZWOD0AL5TKHZZFW9PF504XD0AR","","235","img/flower5.png","75","237","2","0","2","2","1,0,0,1,1,0,1,0,1","0,0,1,1,0,1,0,1,1","2",""
"","html-keyboard-response","298","143268","0.0-298.0","3UNH76FOCTR5E0K3VS2PFHQ8I4HMYD","A2PEN75MMUA963","31D0ZWOD0AL5TKHZZFW9PF504XD0AR","","null","<img src=""img/flower5.png"" style=""width:200px;border:14px solid red;"">","null","","","","","","","","",""
"","image-keyboard-response","299","143314","0.0-299.0","3UNH76FOCTR5E0K3VS2PFHQ8I4HMYD","A2PEN75MMUA963","31D0ZWOD0AL5TKHZZFW9PF504XD0AR","","44","img/flower5.png","75","46","2","0","2","2","1,0,0,1,1,0,1,0,1","0,0,1,1,0,1,0,1,1","2",""
"","html-keyboard-response","300","143617","0.0-300.0","3UNH76FOCTR5E0K3VS2PFHQ8I4HMYD","A2PEN75MMUA963","31D0ZWOD0AL5TKHZZFW9PF504XD0AR","","null","<img src=""img/flower5.png"" style=""width:200px;border:14px solid red;"">","null","","","","","","","","",""
"","image-keyboard-response","301","143738","0.0-301.0","3UNH76FOCTR5E0K3VS2PFHQ8I4HMYD","A2PEN75MMUA963","31D0ZWOD0AL5TKHZZFW9PF504XD0AR","","120","img/flower5.png","76","122","3","1","2","2","1,0,0,1,1,0,1,0,1","0,0,1,1,0,1,0,1,1","2",""
"","html-keyboard-response","302","144042","0.0-302.0","3UNH76FOCTR5E0K3VS2PFHQ8I4HMYD","A2PEN75MMUA963","31D0ZWOD0AL5TKHZZFW9PF504XD0AR","","null","<img src=""img/flower5.png"" style=""width:200px; border:14px solid green;"">","null","","","","","","","","",""
"","image-keyboard-response","303","144110","0.0-303.0","3UNH76FOCTR5E0K3VS2PFHQ8I4HMYD","A2PEN75MMUA963","31D0ZWOD0AL5TKHZZFW9PF504XD0AR","","66","img/flower5.png","76","68","3","1","2","2","1,0,0,1,1,0,1,0,1","0,0,1,1,0,1,0,1,1","2",""
"","html-keyboard-response","304","144425","0.0-304.0","3UNH76FOCTR5E0K3VS2PFHQ8I4HMYD","A2PEN75MMUA963","31D0ZWOD0AL5TKHZZFW9PF504XD0AR","","null","<img src=""img/flower5.png"" style=""width:200px; border:14px solid green;"">","null","","","","","","","","",""
"","image-keyboard-response","305","144828","0.0-305.0","3UNH76FOCTR5E0K3VS2PFHQ8I4HMYD","A2PEN75MMUA963","31D0ZWOD0AL5TKHZZFW9PF504XD0AR","","400","img/flower3.png","76","403","3","1","3","2","1,0,0,1,1,0,1,0,1","0,0,1,1,0,1,0,1,1","2",""
"","html-keyboard-response","306","145131","0.0-306.0","3UNH76FOCTR5E0K3VS2PFHQ8I4HMYD","A2PEN75MMUA963","31D0ZWOD0AL5TKHZZFW9PF504XD0AR","","null","<img src=""img/flower3.png"" style=""width:200px; border:14px solid green;"">","null","","","","","","","","",""
"","image-keyboard-response","307","145494","0.0-307.0","3UNH76FOCTR5E0K3VS2PFHQ8I4HMYD","A2PEN75MMUA963","31D0ZWOD0AL5TKHZZFW9PF504XD0AR","","361","img/flower5.png","74","363","1","1","2","2","1,0,0,1,1,0,1,0,1","0,0,1,1,0,1,0,1,1","2",""
"","html-keyboard-response","308","145797","0.0-308.0","3UNH76FOCTR5E0K3VS2PFHQ8I4HMYD","A2PEN75MMUA963","31D0ZWOD0AL5TKHZZFW9PF504XD0AR","","null","<img src=""img/flower5.png"" style=""width:200px; border:14px solid green;"">","null","","","","","","","","",""
"","image-keyboard-response","309","145898","0.0-309.0","3UNH76FOCTR5E0K3VS2PFHQ8I4HMYD","A2PEN75MMUA963","31D0ZWOD0AL5TKHZZFW9PF504XD0AR","","98","img/flower5.png","74","100","1","1","2","2","1,0,0,1,1,0,1,0,1","0,0,1,1,0,1,0,1,1","2",""
"","html-keyboard-response","310","146201","0.0-310.0","3UNH76FOCTR5E0K3VS2PFHQ8I4HMYD","A2PEN75MMUA963","31D0ZWOD0AL5TKHZZFW9PF504XD0AR","","null","<img src=""img/flower5.png"" style=""width:200px; border:14px solid green;"">","null","","","","","","","","",""
"","image-keyboard-response","311","146544","0.0-311.0","3UNH76FOCTR5E0K3VS2PFHQ8I4HMYD","A2PEN75MMUA963","31D0ZWOD0AL5TKHZZFW9PF504XD0AR","","340","img/flower3.png","76","342","3","1","3","2","1,0,0,1,1,0,1,0,1","0,0,1,1,0,1,0,1,1","2",""
"","html-keyboard-response","312","146848","0.0-312.0","3UNH76FOCTR5E0K3VS2PFHQ8I4HMYD","A2PEN75MMUA963","31D0ZWOD0AL5TKHZZFW9PF504XD0AR","","null","<img src=""img/flower3.png"" style=""width:200px; border:14px solid green;"">","null","","","","","","","","",""
"","image-keyboard-response","313","147026","0.0-313.0","3UNH76FOCTR5E0K3VS2PFHQ8I4HMYD","A2PEN75MMUA963","31D0ZWOD0AL5TKHZZFW9PF504XD0AR","","177","img/flower4.png","76","179","3","1","1","2","1,0,0,1,1,0,1,0,1","0,0,1,1,0,1,0,1,1","2",""
"","html-keyboard-response","314","147328","0.0-314.0","3UNH76FOCTR5E0K3VS2PFHQ8I4HMYD","A2PEN75MMUA963","31D0ZWOD0AL5TKHZZFW9PF504XD0AR","","null","<img src=""img/flower4.png"" style=""width:200px; border:14px solid green;"">","null","","","","","","","","",""
"","image-keyboard-response","315","147459","0.0-315.0","3UNH76FOCTR5E0K3VS2PFHQ8I4HMYD","A2PEN75MMUA963","31D0ZWOD0AL5TKHZZFW9PF504XD0AR","","127","img/flower3.png","76","130","3","1","3","2","1,0,0,1,1,0,1,0,1","0,0,1,1,0,1,0,1,1","2",""
"","html-keyboard-response","316","147762","0.0-316.0","3UNH76FOCTR5E0K3VS2PFHQ8I4HMYD","A2PEN75MMUA963","31D0ZWOD0AL5TKHZZFW9PF504XD0AR","","null","<img src=""img/flower3.png"" style=""width:200px; border:14px solid green;"">","null","","","","","","","","",""
"","image-keyboard-response","317","147827","0.0-317.0","3UNH76FOCTR5E0K3VS2PFHQ8I4HMYD","A2PEN75MMUA963","31D0ZWOD0AL5TKHZZFW9PF504XD0AR","","63","img/flower5.png","76","65","3","1","2","2","1,0,0,1,1,0,1,0,1","0,0,1,1,0,1,0,1,1","2",""
"","html-keyboard-response","318","148129","0.0-318.0","3UNH76FOCTR5E0K3VS2PFHQ8I4HMYD","A2PEN75MMUA963","31D0ZWOD0AL5TKHZZFW9PF504XD0AR","","null","<img src=""img/flower5.png"" style=""width:200px; border:14px solid green;"">","null","","","","","","","","",""
"","image-keyboard-response","319","148311","0.0-319.0","3UNH76FOCTR5E0K3VS2PFHQ8I4HMYD","A2PEN75MMUA963","31D0ZWOD0AL5TKHZZFW9PF504XD0AR","","179","img/flower4.png","76","181","3","1","1","2","1,0,0,1,1,0,1,0,1","0,0,1,1,0,1,0,1,1","2",""
"","html-keyboard-response","320","148616","0.0-320.0","3UNH76FOCTR5E0K3VS2PFHQ8I4HMYD","A2PEN75MMUA963","31D0ZWOD0AL5TKHZZFW9PF504XD0AR","","null","<img src=""img/flower4.png"" style=""width:200px; border:14px solid green;"">","null","","","","","","","","",""
"","image-keyboard-response","321","148879","0.0-321.0","3UNH76FOCTR5E0K3VS2PFHQ8I4HMYD","A2PEN75MMUA963","31D0ZWOD0AL5TKHZZFW9PF504XD0AR","","261","img/flower4.png","76","263","3","1","1","2","1,0,0,1,1,0,1,0,1","0,0,1,1,0,1,0,1,1","2",""
"","html-keyboard-response","322","149181","0.0-322.0","3UNH76FOCTR5E0K3VS2PFHQ8I4HMYD","A2PEN75MMUA963","31D0ZWOD0AL5TKHZZFW9PF504XD0AR","","null","<img src=""img/flower4.png"" style=""width:200px; border:14px solid green;"">","null","","","","","","","","",""
"","image-keyboard-response","323","149358","0.0-323.0","3UNH76FOCTR5E0K3VS2PFHQ8I4HMYD","A2PEN75MMUA963","31D0ZWOD0AL5TKHZZFW9PF504XD0AR","","175","img/flower5.png","76","176","3","1","2","2","1,0,0,1,1,0,1,0,1","0,0,1,1,0,1,0,1,1","2",""
"","html-keyboard-response","324","149662","0.0-324.0","3UNH76FOCTR5E0K3VS2PFHQ8I4HMYD","A2PEN75MMUA963","31D0ZWOD0AL5TKHZZFW9PF504XD0AR","","null","<img src=""img/flower5.png"" style=""width:200px; border:14px solid green;"">","null","","","","","","","","",""
"","image-keyboard-response","325","149762","0.0-325.0","3UNH76FOCTR5E0K3VS2PFHQ8I4HMYD","A2PEN75MMUA963","31D0ZWOD0AL5TKHZZFW9PF504XD0AR","","97","img/flower4.png","76","99","3","1","1","2","1,0,0,1,1,0,1,0,1","0,0,1,1,0,1,0,1,1","2",""
"","html-keyboard-response","326","150065","0.0-326.0","3UNH76FOCTR5E0K3VS2PFHQ8I4HMYD","A2PEN75MMUA963","31D0ZWOD0AL5TKHZZFW9PF504XD0AR","","null","<img src=""img/flower4.png"" style=""width:200px; border:14px solid green;"">","null","","","","","","","","",""
"","image-keyboard-response","327","150291","0.0-327.0","3UNH76FOCTR5E0K3VS2PFHQ8I4HMYD","A2PEN75MMUA963","31D0ZWOD0AL5TKHZZFW9PF504XD0AR","","225","img/flower5.png","76","225","3","1","2","2","1,0,0,1,1,0,1,0,1","0,0,1,1,0,1,0,1,1","2",""
"","html-keyboard-response","328","150594","0.0-328.0","3UNH76FOCTR5E0K3VS2PFHQ8I4HMYD","A2PEN75MMUA963","31D0ZWOD0AL5TKHZZFW9PF504XD0AR","","null","<img src=""img/flower5.png"" style=""width:200px; border:14px solid green;"">","null","","","","","","","","",""
"","image-keyboard-response","329","150991","0.0-329.0","3UNH76FOCTR5E0K3VS2PFHQ8I4HMYD","A2PEN75MMUA963","31D0ZWOD0AL5TKHZZFW9PF504XD0AR","","394","img/flower4.png","75","395","2","0","1","2","1,0,0,1,1,0,1,0,1","0,0,1,1,0,1,0,1,1","2",""
"","html-keyboard-response","330","151293","0.0-330.0","3UNH76FOCTR5E0K3VS2PFHQ8I4HMYD","A2PEN75MMUA963","31D0ZWOD0AL5TKHZZFW9PF504XD0AR","","null","<img src=""img/flower4.png"" style=""width:200px;border:14px solid red;"">","null","","","","","","","","",""
"","image-keyboard-response","331","151432","0.0-331.0","3UNH76FOCTR5E0K3VS2PFHQ8I4HMYD","A2PEN75MMUA963","31D0ZWOD0AL5TKHZZFW9PF504XD0AR","","136","img/flower4.png","75","138","2","0","1","2","1,0,0,1,1,0,1,0,1","0,0,1,1,0,1,0,1,1","2",""
"","html-keyboard-response","332","151735","0.0-332.0","3UNH76FOCTR5E0K3VS2PFHQ8I4HMYD","A2PEN75MMUA963","31D0ZWOD0AL5TKHZZFW9PF504XD0AR","","null","<img src=""img/flower4.png"" style=""width:200px;border:14px solid red;"">","null","","","","","","","","",""
"","image-keyboard-response","333","152024","0.0-333.0","3UNH76FOCTR5E0K3VS2PFHQ8I4HMYD","A2PEN75MMUA963","31D0ZWOD0AL5TKHZZFW9PF504XD0AR","","287","img/flower4.png","74","289","1","0","1","2","1,0,0,1,1,0,1,0,1","0,0,1,1,0,1,0,1,1","2",""
"","html-keyboard-response","334","152327","0.0-334.0","3UNH76FOCTR5E0K3VS2PFHQ8I4HMYD","A2PEN75MMUA963","31D0ZWOD0AL5TKHZZFW9PF504XD0AR","","null","<img src=""img/flower4.png"" style=""width:200px;border:14px solid red;"">","null","","","","","","","","",""
"","image-keyboard-response","335","152678","0.0-335.0","3UNH76FOCTR5E0K3VS2PFHQ8I4HMYD","A2PEN75MMUA963","31D0ZWOD0AL5TKHZZFW9PF504XD0AR","","348","img/flower3.png","76","352","3","1","3","2","1,0,0,1,1,0,1,0,1","0,0,1,1,0,1,0,1,1","2",""
"","html-keyboard-response","336","152983","0.0-336.0","3UNH76FOCTR5E0K3VS2PFHQ8I4HMYD","A2PEN75MMUA963","31D0ZWOD0AL5TKHZZFW9PF504XD0AR","","null","<img src=""img/flower3.png"" style=""width:200px; border:14px solid green;"">","null","","","","","","","","",""
"","image-keyboard-response","337","153032","0.0-337.0","3UNH76FOCTR5E0K3VS2PFHQ8I4HMYD","A2PEN75MMUA963","31D0ZWOD0AL5TKHZZFW9PF504XD0AR","","48","img/flower4.png","76","50","3","1","1","2","1,0,0,1,1,0,1,0,1","0,0,1,1,0,1,0,1,1","2",""
"","html-keyboard-response","338","153335","0.0-338.0","3UNH76FOCTR5E0K3VS2PFHQ8I4HMYD","A2PEN75MMUA963","31D0ZWOD0AL5TKHZZFW9PF504XD0AR","","null","<img src=""img/flower4.png"" style=""width:200px; border:14px solid green;"">","null","","","","","","","","",""
"","image-keyboard-response","339","153385","0.0-339.0","3UNH76FOCTR5E0K3VS2PFHQ8I4HMYD","A2PEN75MMUA963","31D0ZWOD0AL5TKHZZFW9PF504XD0AR","","47","img/flower5.png","75","49","2","0","2","2","1,0,0,1,1,0,1,0,1","0,0,1,1,0,1,0,1,1","2",""
"","html-keyboard-response","340","153689","0.0-340.0","3UNH76FOCTR5E0K3VS2PFHQ8I4HMYD","A2PEN75MMUA963","31D0ZWOD0AL5TKHZZFW9PF504XD0AR","","null","<img src=""img/flower5.png"" style=""width:200px;border:14px solid red;"">","null","","","","","","","","",""
"","image-keyboard-response","341","153794","0.0-341.0","3UNH76FOCTR5E0K3VS2PFHQ8I4HMYD","A2PEN75MMUA963","31D0ZWOD0AL5TKHZZFW9PF504XD0AR","","104","img/flower4.png","75","107","2","0","1","2","1,0,0,1,1,0,1,0,1","0,0,1,1,0,1,0,1,1","2",""
"","html-keyboard-response","342","154097","0.0-342.0","3UNH76FOCTR5E0K3VS2PFHQ8I4HMYD","A2PEN75MMUA963","31D0ZWOD0AL5TKHZZFW9PF504XD0AR","","null","<img src=""img/flower4.png"" style=""width:200px;border:14px solid red;"">","null","","","","","","","","",""
"","image-keyboard-response","343","154450","0.0-343.0","3UNH76FOCTR5E0K3VS2PFHQ8I4HMYD","A2PEN75MMUA963","31D0ZWOD0AL5TKHZZFW9PF504XD0AR","","352","img/flower5.png","74","354","1","1","2","2","1,0,0,1,1,0,1,0,1","0,0,1,1,0,1,0,1,1","2",""
"","html-keyboard-response","344","154753","0.0-344.0","3UNH76FOCTR5E0K3VS2PFHQ8I4HMYD","A2PEN75MMUA963","31D0ZWOD0AL5TKHZZFW9PF504XD0AR","","null","<img src=""img/flower5.png"" style=""width:200px; border:14px solid green;"">","null","","","","","","","","",""
"","image-keyboard-response","345","154864","0.0-345.0","3UNH76FOCTR5E0K3VS2PFHQ8I4HMYD","A2PEN75MMUA963","31D0ZWOD0AL5TKHZZFW9PF504XD0AR","","110","img/flower3.png","75","111","2","1","3","2","1,0,0,1,1,0,1,0,1","0,0,1,1,0,1,0,1,1","2",""
"","html-keyboard-response","346","155167","0.0-346.0","3UNH76FOCTR5E0K3VS2PFHQ8I4HMYD","A2PEN75MMUA963","31D0ZWOD0AL5TKHZZFW9PF504XD0AR","","null","<img src=""img/flower3.png"" style=""width:200px; border:14px solid green;"">","null","","","","","","","","",""
"","image-keyboard-response","347","155279","0.0-347.0","3UNH76FOCTR5E0K3VS2PFHQ8I4HMYD","A2PEN75MMUA963","31D0ZWOD0AL5TKHZZFW9PF504XD0AR","","110","img/flower3.png","76","112","3","1","3","2","1,0,0,1,1,0,1,0,1","0,0,1,1,0,1,0,1,1","2",""
"","html-keyboard-response","348","155581","0.0-348.0","3UNH76FOCTR5E0K3VS2PFHQ8I4HMYD","A2PEN75MMUA963","31D0ZWOD0AL5TKHZZFW9PF504XD0AR","","null","<img src=""img/flower3.png"" style=""width:200px; border:14px solid green;"">","null","","","","","","","","",""
"","image-keyboard-response","349","155723","0.0-349.0","3UNH76FOCTR5E0K3VS2PFHQ8I4HMYD","A2PEN75MMUA963","31D0ZWOD0AL5TKHZZFW9PF504XD0AR","","140","img/flower3.png","74","141","1","0","3","2","1,0,0,1,1,0,1,0,1","0,0,1,1,0,1,0,1,1","2",""
"","html-keyboard-response","350","156027","0.0-350.0","3UNH76FOCTR5E0K3VS2PFHQ8I4HMYD","A2PEN75MMUA963","31D0ZWOD0AL5TKHZZFW9PF504XD0AR","","null","<img src=""img/flower3.png"" style=""width:200px;border:14px solid red;"">","null","","","","","","","","",""
"","image-keyboard-response","351","156222","0.0-351.0","3UNH76FOCTR5E0K3VS2PFHQ8I4HMYD","A2PEN75MMUA963","31D0ZWOD0AL5TKHZZFW9PF504XD0AR","","193","img/flower4.png","76","195","3","1","1","2","1,0,0,1,1,0,1,0,1","0,0,1,1,0,1,0,1,1","2",""
"","html-keyboard-response","352","156525","0.0-352.0","3UNH76FOCTR5E0K3VS2PFHQ8I4HMYD","A2PEN75MMUA963","31D0ZWOD0AL5TKHZZFW9PF504XD0AR","","null","<img src=""img/flower4.png"" style=""width:200px; border:14px solid green;"">","null","","","","","","","","",""
"","image-keyboard-response","353","156665","0.0-353.0","3UNH76FOCTR5E0K3VS2PFHQ8I4HMYD","A2PEN75MMUA963","31D0ZWOD0AL5TKHZZFW9PF504XD0AR","","137","img/flower3.png","74","139","1","0","3","2","1,0,0,1,1,0,1,0,1","0,0,1,1,0,1,0,1,1","2",""
"","html-keyboard-response","354","156968","0.0-354.0","3UNH76FOCTR5E0K3VS2PFHQ8I4HMYD","A2PEN75MMUA963","31D0ZWOD0AL5TKHZZFW9PF504XD0AR","","null","<img src=""img/flower3.png"" style=""width:200px;border:14px solid red;"">","null","","","","","","","","",""
"","image-keyboard-response","355","156976","0.0-355.0","3UNH76FOCTR5E0K3VS2PFHQ8I4HMYD","A2PEN75MMUA963","31D0ZWOD0AL5TKHZZFW9PF504XD0AR","","6","img/flower4.png","76","8","3","1","1","2","1,0,0,1,1,0,1,0,1","0,0,1,1,0,1,0,1,1","2",""
"","html-keyboard-response","356","157280","0.0-356.0","3UNH76FOCTR5E0K3VS2PFHQ8I4HMYD","A2PEN75MMUA963","31D0ZWOD0AL5TKHZZFW9PF504XD0AR","","null","<img src=""img/flower4.png"" style=""width:200px; border:14px solid green;"">","null","","","","","","","","",""
"","image-keyboard-response","357","157545","0.0-357.0","3UNH76FOCTR5E0K3VS2PFHQ8I4HMYD","A2PEN75MMUA963","31D0ZWOD0AL5TKHZZFW9PF504XD0AR","","263","img/flower3.png","76","265","3","1","3","2","1,0,0,1,1,0,1,0,1","0,0,1,1,0,1,0,1,1","2",""
"","html-keyboard-response","358","157848","0.0-358.0","3UNH76FOCTR5E0K3VS2PFHQ8I4HMYD","A2PEN75MMUA963","31D0ZWOD0AL5TKHZZFW9PF504XD0AR","","null","<img src=""img/flower3.png"" style=""width:200px; border:14px solid green;"">","null","","","","","","","","",""
"","image-keyboard-response","359","157891","0.0-359.0","3UNH76FOCTR5E0K3VS2PFHQ8I4HMYD","A2PEN75MMUA963","31D0ZWOD0AL5TKHZZFW9PF504XD0AR","","40","img/flower4.png","76","42","3","1","1","2","1,0,0,1,1,0,1,0,1","0,0,1,1,0,1,0,1,1","2",""
"","html-keyboard-response","360","158196","0.0-360.0","3UNH76FOCTR5E0K3VS2PFHQ8I4HMYD","A2PEN75MMUA963","31D0ZWOD0AL5TKHZZFW9PF504XD0AR","","null","<img src=""img/flower4.png"" style=""width:200px; border:14px solid green;"">","null","","","","","","","","",""
"","image-keyboard-response","361","158245","0.0-361.0","3UNH76FOCTR5E0K3VS2PFHQ8I4HMYD","A2PEN75MMUA963","31D0ZWOD0AL5TKHZZFW9PF504XD0AR","","46","img/flower3.png","76","48","3","1","3","2","1,0,0,1,1,0,1,0,1","0,0,1,1,0,1,0,1,1","2",""
"","html-keyboard-response","362","158548","0.0-362.0","3UNH76FOCTR5E0K3VS2PFHQ8I4HMYD","A2PEN75MMUA963","31D0ZWOD0AL5TKHZZFW9PF504XD0AR","","null","<img src=""img/flower3.png"" style=""width:200px; border:14px solid green;"">","null","","","","","","","","",""
"","instructions","363","160604","0.0-363.0","3UNH76FOCTR5E0K3VS2PFHQ8I4HMYD","A2PEN75MMUA963","31D0ZWOD0AL5TKHZZFW9PF504XD0AR","[{""page_index"":0,""viewing_time"":2054}]","2055","","","","","","","","","","",""
"","survey-text","364","166191","0.0-364.0","3UNH76FOCTR5E0K3VS2PFHQ8I4HMYD","A2PEN75MMUA963","31D0ZWOD0AL5TKHZZFW9PF504XD0AR","","5573","","","","","","","","","","","{""Q0"":""A2PEN75MMUA963""}"
