"success","trial_type","trial_index","time_elapsed","internal_node_id","assignmentID","mturkID","hitID","view_history","rt","stimulus","key_press","reactionTime","a","r","s","cond","reward_cond","reward_cond_actual","reward_matrix_idx","responses"
"true","fullscreen","0","35980","0.0-0.0","3OLQQLKKNTBH7NXRSUD3SM6BW8WJEQ","A2QTL039A5VV3I","3HUR21WDDUBEMSLDIXZW1FAIHWSYXN","","","","","","","","","","","","",""
"","instructions","1","1233277","0.0-1.0","3OLQQLKKNTBH7NXRSUD3SM6BW8WJEQ","A2QTL039A5VV3I","3HUR21WDDUBEMSLDIXZW1FAIHWSYXN","[{""page_index"":0,""viewing_time"":2278.2000000476837},{""page_index"":1,""viewing_time"":1054},{""page_index"":2,""viewing_time"":905.8999999761581},{""page_index"":3,""viewing_time"":632.8999999761581},{""page_index"":4,""viewing_time"":975348.8000000715},{""page_index"":5,""viewing_time"":207547.29999995232},{""page_index"":6,""viewing_time"":4155.100000023842},{""page_index"":7,""viewing_time"":5372.799999952316}]","1197295.5","","","","","","","","","","",""
"","image-keyboard-response","2","1234646","0.0-2.0","3OLQQLKKNTBH7NXRSUD3SM6BW8WJEQ","A2QTL039A5VV3I","3HUR21WDDUBEMSLDIXZW1FAIHWSYXN","","1367.9000000953674","img/flower5.png","74","1368.8000000715256","1","0","3","1","1,0.333,0.333,0.333,1,0.333,0.333,0.333,1","1,0.333,0.333,0.333,1,0.333,0.333,0.333,1","1",""
"","html-keyboard-response","3","1234948","0.0-3.0","3OLQQLKKNTBH7NXRSUD3SM6BW8WJEQ","A2QTL039A5VV3I","3HUR21WDDUBEMSLDIXZW1FAIHWSYXN","","null","<img src=""img/flower5.png"" style=""width:200px;border:14px solid red;"">","null","","","","","","","","",""
"","image-keyboard-response","4","1236952","0.0-4.0","3OLQQLKKNTBH7NXRSUD3SM6BW8WJEQ","A2QTL039A5VV3I","3HUR21WDDUBEMSLDIXZW1FAIHWSYXN","","","img/flower4.png","","2004","-1","0","2","1","1,0.333,0.333,0.333,1,0.333,0.333,0.333,1","1,0.333,0.333,0.333,1,0.333,0.333,0.333,1","1",""
"","html-keyboard-response","5","1237254","0.0-5.0","3OLQQLKKNTBH7NXRSUD3SM6BW8WJEQ","A2QTL039A5VV3I","3HUR21WDDUBEMSLDIXZW1FAIHWSYXN","","null","<img src=""img/flower4.png"" style=""width:200px;border:14px solid red;"">","null","","","","","","","","",""
"","image-keyboard-response","6","1238973","0.0-6.0","3OLQQLKKNTBH7NXRSUD3SM6BW8WJEQ","A2QTL039A5VV3I","3HUR21WDDUBEMSLDIXZW1FAIHWSYXN","","1718.8999999761581","img/flower4.png","76","1719.6000000238419","3","0","2","1","1,0.333,0.333,0.333,1,0.333,0.333,0.333,1","1,0.333,0.333,0.333,1,0.333,0.333,0.333,1","1",""
"","html-keyboard-response","7","1239276","0.0-7.0","3OLQQLKKNTBH7NXRSUD3SM6BW8WJEQ","A2QTL039A5VV3I","3HUR21WDDUBEMSLDIXZW1FAIHWSYXN","","null","<img src=""img/flower4.png"" style=""width:200px;border:14px solid red;"">","null","","","","","","","","",""
"","image-keyboard-response","8","1240065","0.0-8.0","3OLQQLKKNTBH7NXRSUD3SM6BW8WJEQ","A2QTL039A5VV3I","3HUR21WDDUBEMSLDIXZW1FAIHWSYXN","","788.2000000476837","img/flower4.png","75","788.5999999046326","2","1","2","1","1,0.333,0.333,0.333,1,0.333,0.333,0.333,1","1,0.333,0.333,0.333,1,0.333,0.333,0.333,1","1",""
"","html-keyboard-response","9","1240366","0.0-9.0","3OLQQLKKNTBH7NXRSUD3SM6BW8WJEQ","A2QTL039A5VV3I","3HUR21WDDUBEMSLDIXZW1FAIHWSYXN","","null","<img src=""img/flower4.png"" style=""width:200px; border:14px solid green;"">","null","","","","","","","","",""
"","image-keyboard-response","10","1241856","0.0-10.0","3OLQQLKKNTBH7NXRSUD3SM6BW8WJEQ","A2QTL039A5VV3I","3HUR21WDDUBEMSLDIXZW1FAIHWSYXN","","1489.5","img/flower4.png","75","1490.2000000476837","2","1","2","1","1,0.333,0.333,0.333,1,0.333,0.333,0.333,1","1,0.333,0.333,0.333,1,0.333,0.333,0.333,1","1",""
"","html-keyboard-response","11","1242157","0.0-11.0","3OLQQLKKNTBH7NXRSUD3SM6BW8WJEQ","A2QTL039A5VV3I","3HUR21WDDUBEMSLDIXZW1FAIHWSYXN","","null","<img src=""img/flower4.png"" style=""width:200px; border:14px solid green;"">","null","","","","","","","","",""
"","image-keyboard-response","12","1243227","0.0-12.0","3OLQQLKKNTBH7NXRSUD3SM6BW8WJEQ","A2QTL039A5VV3I","3HUR21WDDUBEMSLDIXZW1FAIHWSYXN","","1069.0999999046326","img/flower4.png","75","1069.6000000238419","2","1","2","1","1,0.333,0.333,0.333,1,0.333,0.333,0.333,1","1,0.333,0.333,0.333,1,0.333,0.333,0.333,1","1",""
"","html-keyboard-response","13","1243528","0.0-13.0","3OLQQLKKNTBH7NXRSUD3SM6BW8WJEQ","A2QTL039A5VV3I","3HUR21WDDUBEMSLDIXZW1FAIHWSYXN","","null","<img src=""img/flower4.png"" style=""width:200px; border:14px solid green;"">","null","","","","","","","","",""
"","image-keyboard-response","14","1245427","0.0-14.0","3OLQQLKKNTBH7NXRSUD3SM6BW8WJEQ","A2QTL039A5VV3I","3HUR21WDDUBEMSLDIXZW1FAIHWSYXN","","1898.1000000238419","img/flower6.png","75","1898.7000000476837","2","0","1","1","1,0.333,0.333,0.333,1,0.333,0.333,0.333,1","1,0.333,0.333,0.333,1,0.333,0.333,0.333,1","1",""
"","html-keyboard-response","15","1245729","0.0-15.0","3OLQQLKKNTBH7NXRSUD3SM6BW8WJEQ","A2QTL039A5VV3I","3HUR21WDDUBEMSLDIXZW1FAIHWSYXN","","null","<img src=""img/flower6.png"" style=""width:200px;border:14px solid red;"">","null","","","","","","","","",""
"","image-keyboard-response","16","1246199","0.0-16.0","3OLQQLKKNTBH7NXRSUD3SM6BW8WJEQ","A2QTL039A5VV3I","3HUR21WDDUBEMSLDIXZW1FAIHWSYXN","","469.2999999523163","img/flower4.png","75","469.8000000715256","2","1","2","1","1,0.333,0.333,0.333,1,0.333,0.333,0.333,1","1,0.333,0.333,0.333,1,0.333,0.333,0.333,1","1",""
"","html-keyboard-response","17","1246508","0.0-17.0","3OLQQLKKNTBH7NXRSUD3SM6BW8WJEQ","A2QTL039A5VV3I","3HUR21WDDUBEMSLDIXZW1FAIHWSYXN","","null","<img src=""img/flower4.png"" style=""width:200px; border:14px solid green;"">","null","","","","","","","","",""
"","image-keyboard-response","18","1246914","0.0-18.0","3OLQQLKKNTBH7NXRSUD3SM6BW8WJEQ","A2QTL039A5VV3I","3HUR21WDDUBEMSLDIXZW1FAIHWSYXN","","405.6999999284744","img/flower5.png","75","406.2000000476837","2","1","3","1","1,0.333,0.333,0.333,1,0.333,0.333,0.333,1","1,0.333,0.333,0.333,1,0.333,0.333,0.333,1","1",""
"","html-keyboard-response","19","1247215","0.0-19.0","3OLQQLKKNTBH7NXRSUD3SM6BW8WJEQ","A2QTL039A5VV3I","3HUR21WDDUBEMSLDIXZW1FAIHWSYXN","","null","<img src=""img/flower5.png"" style=""width:200px; border:14px solid green;"">","null","","","","","","","","",""
"","image-keyboard-response","20","1247566","0.0-20.0","3OLQQLKKNTBH7NXRSUD3SM6BW8WJEQ","A2QTL039A5VV3I","3HUR21WDDUBEMSLDIXZW1FAIHWSYXN","","349.89999997615814","img/flower5.png","75","350.89999997615814","2","0","3","1","1,0.333,0.333,0.333,1,0.333,0.333,0.333,1","1,0.333,0.333,0.333,1,0.333,0.333,0.333,1","1",""
"","html-keyboard-response","21","1247867","0.0-21.0","3OLQQLKKNTBH7NXRSUD3SM6BW8WJEQ","A2QTL039A5VV3I","3HUR21WDDUBEMSLDIXZW1FAIHWSYXN","","null","<img src=""img/flower5.png"" style=""width:200px;border:14px solid red;"">","null","","","","","","","","",""
"","image-keyboard-response","22","1248130","0.0-22.0","3OLQQLKKNTBH7NXRSUD3SM6BW8WJEQ","A2QTL039A5VV3I","3HUR21WDDUBEMSLDIXZW1FAIHWSYXN","","262.5","img/flower4.png","75","263.10000002384186","2","1","2","1","1,0.333,0.333,0.333,1,0.333,0.333,0.333,1","1,0.333,0.333,0.333,1,0.333,0.333,0.333,1","1",""
"","html-keyboard-response","23","1248432","0.0-23.0","3OLQQLKKNTBH7NXRSUD3SM6BW8WJEQ","A2QTL039A5VV3I","3HUR21WDDUBEMSLDIXZW1FAIHWSYXN","","null","<img src=""img/flower4.png"" style=""width:200px; border:14px solid green;"">","null","","","","","","","","",""
"","image-keyboard-response","24","1248690","0.0-24.0","3OLQQLKKNTBH7NXRSUD3SM6BW8WJEQ","A2QTL039A5VV3I","3HUR21WDDUBEMSLDIXZW1FAIHWSYXN","","257.6999999284744","img/flower5.png","75","258.10000002384186","2","0","3","1","1,0.333,0.333,0.333,1,0.333,0.333,0.333,1","1,0.333,0.333,0.333,1,0.333,0.333,0.333,1","1",""
"","html-keyboard-response","25","1248992","0.0-25.0","3OLQQLKKNTBH7NXRSUD3SM6BW8WJEQ","A2QTL039A5VV3I","3HUR21WDDUBEMSLDIXZW1FAIHWSYXN","","null","<img src=""img/flower5.png"" style=""width:200px;border:14px solid red;"">","null","","","","","","","","",""
"","image-keyboard-response","26","1249222","0.0-26.0","3OLQQLKKNTBH7NXRSUD3SM6BW8WJEQ","A2QTL039A5VV3I","3HUR21WDDUBEMSLDIXZW1FAIHWSYXN","","230","img/flower6.png","75","230.39999997615814","2","0","1","1","1,0.333,0.333,0.333,1,0.333,0.333,0.333,1","1,0.333,0.333,0.333,1,0.333,0.333,0.333,1","1",""
"","html-keyboard-response","27","1249523","0.0-27.0","3OLQQLKKNTBH7NXRSUD3SM6BW8WJEQ","A2QTL039A5VV3I","3HUR21WDDUBEMSLDIXZW1FAIHWSYXN","","null","<img src=""img/flower6.png"" style=""width:200px;border:14px solid red;"">","null","","","","","","","","",""
"","image-keyboard-response","28","1249762","0.0-28.0","3OLQQLKKNTBH7NXRSUD3SM6BW8WJEQ","A2QTL039A5VV3I","3HUR21WDDUBEMSLDIXZW1FAIHWSYXN","","238.20000004768372","img/flower4.png","74","238.80000007152557","1","1","2","1","1,0.333,0.333,0.333,1,0.333,0.333,0.333,1","1,0.333,0.333,0.333,1,0.333,0.333,0.333,1","1",""
"","html-keyboard-response","29","1250071","0.0-29.0","3OLQQLKKNTBH7NXRSUD3SM6BW8WJEQ","A2QTL039A5VV3I","3HUR21WDDUBEMSLDIXZW1FAIHWSYXN","","null","<img src=""img/flower4.png"" style=""width:200px; border:14px solid green;"">","null","","","","","","","","",""
"","image-keyboard-response","30","1250831","0.0-30.0","3OLQQLKKNTBH7NXRSUD3SM6BW8WJEQ","A2QTL039A5VV3I","3HUR21WDDUBEMSLDIXZW1FAIHWSYXN","","759.1000000238419","img/flower5.png","74","759.6999999284744","1","0","3","1","1,0.333,0.333,0.333,1,0.333,0.333,0.333,1","1,0.333,0.333,0.333,1,0.333,0.333,0.333,1","1",""
"","html-keyboard-response","31","1251133","0.0-31.0","3OLQQLKKNTBH7NXRSUD3SM6BW8WJEQ","A2QTL039A5VV3I","3HUR21WDDUBEMSLDIXZW1FAIHWSYXN","","null","<img src=""img/flower5.png"" style=""width:200px;border:14px solid red;"">","null","","","","","","","","",""
"","image-keyboard-response","32","1251552","0.0-32.0","3OLQQLKKNTBH7NXRSUD3SM6BW8WJEQ","A2QTL039A5VV3I","3HUR21WDDUBEMSLDIXZW1FAIHWSYXN","","418.2000000476837","img/flower5.png","75","418.89999997615814","2","0","3","1","1,0.333,0.333,0.333,1,0.333,0.333,0.333,1","1,0.333,0.333,0.333,1,0.333,0.333,0.333,1","1",""
"","html-keyboard-response","33","1251854","0.0-33.0","3OLQQLKKNTBH7NXRSUD3SM6BW8WJEQ","A2QTL039A5VV3I","3HUR21WDDUBEMSLDIXZW1FAIHWSYXN","","null","<img src=""img/flower5.png"" style=""width:200px;border:14px solid red;"">","null","","","","","","","","",""
"","image-keyboard-response","34","1252075","0.0-34.0","3OLQQLKKNTBH7NXRSUD3SM6BW8WJEQ","A2QTL039A5VV3I","3HUR21WDDUBEMSLDIXZW1FAIHWSYXN","","220.39999997615814","img/flower4.png","76","221.10000002384186","3","0","2","1","1,0.333,0.333,0.333,1,0.333,0.333,0.333,1","1,0.333,0.333,0.333,1,0.333,0.333,0.333,1","1",""
"","html-keyboard-response","35","1252388","0.0-35.0","3OLQQLKKNTBH7NXRSUD3SM6BW8WJEQ","A2QTL039A5VV3I","3HUR21WDDUBEMSLDIXZW1FAIHWSYXN","","null","<img src=""img/flower4.png"" style=""width:200px;border:14px solid red;"">","null","","","","","","","","",""
"","image-keyboard-response","36","1252708","0.0-36.0","3OLQQLKKNTBH7NXRSUD3SM6BW8WJEQ","A2QTL039A5VV3I","3HUR21WDDUBEMSLDIXZW1FAIHWSYXN","","318.7000000476837","img/flower4.png","75","319.1999999284744","2","1","2","1","1,0.333,0.333,0.333,1,0.333,0.333,0.333,1","1,0.333,0.333,0.333,1,0.333,0.333,0.333,1","1",""
"","html-keyboard-response","37","1253009","0.0-37.0","3OLQQLKKNTBH7NXRSUD3SM6BW8WJEQ","A2QTL039A5VV3I","3HUR21WDDUBEMSLDIXZW1FAIHWSYXN","","null","<img src=""img/flower4.png"" style=""width:200px; border:14px solid green;"">","null","","","","","","","","",""
"","image-keyboard-response","38","1253737","0.0-38.0","3OLQQLKKNTBH7NXRSUD3SM6BW8WJEQ","A2QTL039A5VV3I","3HUR21WDDUBEMSLDIXZW1FAIHWSYXN","","726.1000000238419","img/flower6.png","74","726.6999999284744","1","1","1","1","1,0.333,0.333,0.333,1,0.333,0.333,0.333,1","1,0.333,0.333,0.333,1,0.333,0.333,0.333,1","1",""
"","html-keyboard-response","39","1254039","0.0-39.0","3OLQQLKKNTBH7NXRSUD3SM6BW8WJEQ","A2QTL039A5VV3I","3HUR21WDDUBEMSLDIXZW1FAIHWSYXN","","null","<img src=""img/flower6.png"" style=""width:200px; border:14px solid green;"">","null","","","","","","","","",""
"","image-keyboard-response","40","1254656","0.0-40.0","3OLQQLKKNTBH7NXRSUD3SM6BW8WJEQ","A2QTL039A5VV3I","3HUR21WDDUBEMSLDIXZW1FAIHWSYXN","","617.1999999284744","img/flower6.png","74","617.7000000476837","1","1","1","1","1,0.333,0.333,0.333,1,0.333,0.333,0.333,1","1,0.333,0.333,0.333,1,0.333,0.333,0.333,1","1",""
"","html-keyboard-response","41","1254970","0.0-41.0","3OLQQLKKNTBH7NXRSUD3SM6BW8WJEQ","A2QTL039A5VV3I","3HUR21WDDUBEMSLDIXZW1FAIHWSYXN","","null","<img src=""img/flower6.png"" style=""width:200px; border:14px solid green;"">","null","","","","","","","","",""
"","image-keyboard-response","42","1255760","0.0-42.0","3OLQQLKKNTBH7NXRSUD3SM6BW8WJEQ","A2QTL039A5VV3I","3HUR21WDDUBEMSLDIXZW1FAIHWSYXN","","788.3999999761581","img/flower5.png","76","789.1999999284744","3","1","3","1","1,0.333,0.333,0.333,1,0.333,0.333,0.333,1","1,0.333,0.333,0.333,1,0.333,0.333,0.333,1","1",""
"","html-keyboard-response","43","1256061","0.0-43.0","3OLQQLKKNTBH7NXRSUD3SM6BW8WJEQ","A2QTL039A5VV3I","3HUR21WDDUBEMSLDIXZW1FAIHWSYXN","","null","<img src=""img/flower5.png"" style=""width:200px; border:14px solid green;"">","null","","","","","","","","",""
"","image-keyboard-response","44","1256735","0.0-44.0","3OLQQLKKNTBH7NXRSUD3SM6BW8WJEQ","A2QTL039A5VV3I","3HUR21WDDUBEMSLDIXZW1FAIHWSYXN","","672.6000000238419","img/flower6.png","74","673.3999999761581","1","1","1","1","1,0.333,0.333,0.333,1,0.333,0.333,0.333,1","1,0.333,0.333,0.333,1,0.333,0.333,0.333,1","1",""
"","html-keyboard-response","45","1257036","0.0-45.0","3OLQQLKKNTBH7NXRSUD3SM6BW8WJEQ","A2QTL039A5VV3I","3HUR21WDDUBEMSLDIXZW1FAIHWSYXN","","null","<img src=""img/flower6.png"" style=""width:200px; border:14px solid green;"">","null","","","","","","","","",""
"","image-keyboard-response","46","1258126","0.0-46.0","3OLQQLKKNTBH7NXRSUD3SM6BW8WJEQ","A2QTL039A5VV3I","3HUR21WDDUBEMSLDIXZW1FAIHWSYXN","","1089.1999999284744","img/flower5.png","76","1089.7999999523163","3","1","3","1","1,0.333,0.333,0.333,1,0.333,0.333,0.333,1","1,0.333,0.333,0.333,1,0.333,0.333,0.333,1","1",""
"","html-keyboard-response","47","1258429","0.0-47.0","3OLQQLKKNTBH7NXRSUD3SM6BW8WJEQ","A2QTL039A5VV3I","3HUR21WDDUBEMSLDIXZW1FAIHWSYXN","","null","<img src=""img/flower5.png"" style=""width:200px; border:14px solid green;"">","null","","","","","","","","",""
"","image-keyboard-response","48","1259082","0.0-48.0","3OLQQLKKNTBH7NXRSUD3SM6BW8WJEQ","A2QTL039A5VV3I","3HUR21WDDUBEMSLDIXZW1FAIHWSYXN","","651.8000000715256","img/flower6.png","74","652.6999999284744","1","1","1","1","1,0.333,0.333,0.333,1,0.333,0.333,0.333,1","1,0.333,0.333,0.333,1,0.333,0.333,0.333,1","1",""
"","html-keyboard-response","49","1259383","0.0-49.0","3OLQQLKKNTBH7NXRSUD3SM6BW8WJEQ","A2QTL039A5VV3I","3HUR21WDDUBEMSLDIXZW1FAIHWSYXN","","null","<img src=""img/flower6.png"" style=""width:200px; border:14px solid green;"">","null","","","","","","","","",""
"","image-keyboard-response","50","1259965","0.0-50.0","3OLQQLKKNTBH7NXRSUD3SM6BW8WJEQ","A2QTL039A5VV3I","3HUR21WDDUBEMSLDIXZW1FAIHWSYXN","","579.8999999761581","img/flower6.png","74","581.5","1","1","1","1","1,0.333,0.333,0.333,1,0.333,0.333,0.333,1","1,0.333,0.333,0.333,1,0.333,0.333,0.333,1","1",""
"","html-keyboard-response","51","1260267","0.0-51.0","3OLQQLKKNTBH7NXRSUD3SM6BW8WJEQ","A2QTL039A5VV3I","3HUR21WDDUBEMSLDIXZW1FAIHWSYXN","","null","<img src=""img/flower6.png"" style=""width:200px; border:14px solid green;"">","null","","","","","","","","",""
"","image-keyboard-response","52","1260881","0.0-52.0","3OLQQLKKNTBH7NXRSUD3SM6BW8WJEQ","A2QTL039A5VV3I","3HUR21WDDUBEMSLDIXZW1FAIHWSYXN","","613.6000000238419","img/flower4.png","75","614.3999999761581","2","1","2","1","1,0.333,0.333,0.333,1,0.333,0.333,0.333,1","1,0.333,0.333,0.333,1,0.333,0.333,0.333,1","1",""
"","html-keyboard-response","53","1261183","0.0-53.0","3OLQQLKKNTBH7NXRSUD3SM6BW8WJEQ","A2QTL039A5VV3I","3HUR21WDDUBEMSLDIXZW1FAIHWSYXN","","null","<img src=""img/flower4.png"" style=""width:200px; border:14px solid green;"">","null","","","","","","","","",""
"","image-keyboard-response","54","1261841","0.0-54.0","3OLQQLKKNTBH7NXRSUD3SM6BW8WJEQ","A2QTL039A5VV3I","3HUR21WDDUBEMSLDIXZW1FAIHWSYXN","","657","img/flower5.png","74","657.5","1","0","3","1","1,0.333,0.333,0.333,1,0.333,0.333,0.333,1","1,0.333,0.333,0.333,1,0.333,0.333,0.333,1","1",""
"","html-keyboard-response","55","1262142","0.0-55.0","3OLQQLKKNTBH7NXRSUD3SM6BW8WJEQ","A2QTL039A5VV3I","3HUR21WDDUBEMSLDIXZW1FAIHWSYXN","","null","<img src=""img/flower5.png"" style=""width:200px;border:14px solid red;"">","null","","","","","","","","",""
"","image-keyboard-response","56","1262511","0.0-56.0","3OLQQLKKNTBH7NXRSUD3SM6BW8WJEQ","A2QTL039A5VV3I","3HUR21WDDUBEMSLDIXZW1FAIHWSYXN","","368.5","img/flower5.png","76","368.89999997615814","3","1","3","1","1,0.333,0.333,0.333,1,0.333,0.333,0.333,1","1,0.333,0.333,0.333,1,0.333,0.333,0.333,1","1",""
"","html-keyboard-response","57","1262812","0.0-57.0","3OLQQLKKNTBH7NXRSUD3SM6BW8WJEQ","A2QTL039A5VV3I","3HUR21WDDUBEMSLDIXZW1FAIHWSYXN","","null","<img src=""img/flower5.png"" style=""width:200px; border:14px solid green;"">","null","","","","","","","","",""
"","image-keyboard-response","58","1263404","0.0-58.0","3OLQQLKKNTBH7NXRSUD3SM6BW8WJEQ","A2QTL039A5VV3I","3HUR21WDDUBEMSLDIXZW1FAIHWSYXN","","591.6000000238419","img/flower5.png","76","592","3","1","3","1","1,0.333,0.333,0.333,1,0.333,0.333,0.333,1","1,0.333,0.333,0.333,1,0.333,0.333,0.333,1","1",""
"","html-keyboard-response","59","1263706","0.0-59.0","3OLQQLKKNTBH7NXRSUD3SM6BW8WJEQ","A2QTL039A5VV3I","3HUR21WDDUBEMSLDIXZW1FAIHWSYXN","","null","<img src=""img/flower5.png"" style=""width:200px; border:14px solid green;"">","null","","","","","","","","",""
"","image-keyboard-response","60","1264065","0.0-60.0","3OLQQLKKNTBH7NXRSUD3SM6BW8WJEQ","A2QTL039A5VV3I","3HUR21WDDUBEMSLDIXZW1FAIHWSYXN","","358.7000000476837","img/flower5.png","76","359.1999999284744","3","1","3","1","1,0.333,0.333,0.333,1,0.333,0.333,0.333,1","1,0.333,0.333,0.333,1,0.333,0.333,0.333,1","1",""
"","html-keyboard-response","61","1264366","0.0-61.0","3OLQQLKKNTBH7NXRSUD3SM6BW8WJEQ","A2QTL039A5VV3I","3HUR21WDDUBEMSLDIXZW1FAIHWSYXN","","null","<img src=""img/flower5.png"" style=""width:200px; border:14px solid green;"">","null","","","","","","","","",""
"","image-keyboard-response","62","1264736","0.0-62.0","3OLQQLKKNTBH7NXRSUD3SM6BW8WJEQ","A2QTL039A5VV3I","3HUR21WDDUBEMSLDIXZW1FAIHWSYXN","","368.7999999523163","img/flower5.png","76","369.2999999523163","3","1","3","1","1,0.333,0.333,0.333,1,0.333,0.333,0.333,1","1,0.333,0.333,0.333,1,0.333,0.333,0.333,1","1",""
"","html-keyboard-response","63","1265038","0.0-63.0","3OLQQLKKNTBH7NXRSUD3SM6BW8WJEQ","A2QTL039A5VV3I","3HUR21WDDUBEMSLDIXZW1FAIHWSYXN","","null","<img src=""img/flower5.png"" style=""width:200px; border:14px solid green;"">","null","","","","","","","","",""
"","image-keyboard-response","64","1265906","0.0-64.0","3OLQQLKKNTBH7NXRSUD3SM6BW8WJEQ","A2QTL039A5VV3I","3HUR21WDDUBEMSLDIXZW1FAIHWSYXN","","867.2000000476837","img/flower4.png","75","868.1000000238419","2","1","2","1","1,0.333,0.333,0.333,1,0.333,0.333,0.333,1","1,0.333,0.333,0.333,1,0.333,0.333,0.333,1","1",""
"","html-keyboard-response","65","1266208","0.0-65.0","3OLQQLKKNTBH7NXRSUD3SM6BW8WJEQ","A2QTL039A5VV3I","3HUR21WDDUBEMSLDIXZW1FAIHWSYXN","","null","<img src=""img/flower4.png"" style=""width:200px; border:14px solid green;"">","null","","","","","","","","",""
"","image-keyboard-response","66","1266674","0.0-66.0","3OLQQLKKNTBH7NXRSUD3SM6BW8WJEQ","A2QTL039A5VV3I","3HUR21WDDUBEMSLDIXZW1FAIHWSYXN","","466.10000002384186","img/flower5.png","76","466.7000000476837","3","1","3","1","1,0.333,0.333,0.333,1,0.333,0.333,0.333,1","1,0.333,0.333,0.333,1,0.333,0.333,0.333,1","1",""
"","html-keyboard-response","67","1266985","0.0-67.0","3OLQQLKKNTBH7NXRSUD3SM6BW8WJEQ","A2QTL039A5VV3I","3HUR21WDDUBEMSLDIXZW1FAIHWSYXN","","null","<img src=""img/flower5.png"" style=""width:200px; border:14px solid green;"">","null","","","","","","","","",""
"","image-keyboard-response","68","1267505","0.0-68.0","3OLQQLKKNTBH7NXRSUD3SM6BW8WJEQ","A2QTL039A5VV3I","3HUR21WDDUBEMSLDIXZW1FAIHWSYXN","","519.1999999284744","img/flower6.png","74","519.8999999761581","1","1","1","1","1,0.333,0.333,0.333,1,0.333,0.333,0.333,1","1,0.333,0.333,0.333,1,0.333,0.333,0.333,1","1",""
"","html-keyboard-response","69","1267807","0.0-69.0","3OLQQLKKNTBH7NXRSUD3SM6BW8WJEQ","A2QTL039A5VV3I","3HUR21WDDUBEMSLDIXZW1FAIHWSYXN","","null","<img src=""img/flower6.png"" style=""width:200px; border:14px solid green;"">","null","","","","","","","","",""
"","image-keyboard-response","70","1268733","0.0-70.0","3OLQQLKKNTBH7NXRSUD3SM6BW8WJEQ","A2QTL039A5VV3I","3HUR21WDDUBEMSLDIXZW1FAIHWSYXN","","925.7000000476837","img/flower5.png","76","926.2000000476837","3","1","3","1","1,0.333,0.333,0.333,1,0.333,0.333,0.333,1","1,0.333,0.333,0.333,1,0.333,0.333,0.333,1","1",""
"","html-keyboard-response","71","1269035","0.0-71.0","3OLQQLKKNTBH7NXRSUD3SM6BW8WJEQ","A2QTL039A5VV3I","3HUR21WDDUBEMSLDIXZW1FAIHWSYXN","","null","<img src=""img/flower5.png"" style=""width:200px; border:14px solid green;"">","null","","","","","","","","",""
"","image-keyboard-response","72","1269650","0.0-72.0","3OLQQLKKNTBH7NXRSUD3SM6BW8WJEQ","A2QTL039A5VV3I","3HUR21WDDUBEMSLDIXZW1FAIHWSYXN","","614.3000000715256","img/flower5.png","76","615.0999999046326","3","1","3","1","1,0.333,0.333,0.333,1,0.333,0.333,0.333,1","1,0.333,0.333,0.333,1,0.333,0.333,0.333,1","1",""
"","html-keyboard-response","73","1269951","0.0-73.0","3OLQQLKKNTBH7NXRSUD3SM6BW8WJEQ","A2QTL039A5VV3I","3HUR21WDDUBEMSLDIXZW1FAIHWSYXN","","null","<img src=""img/flower5.png"" style=""width:200px; border:14px solid green;"">","null","","","","","","","","",""
"","image-keyboard-response","74","1270794","0.0-74.0","3OLQQLKKNTBH7NXRSUD3SM6BW8WJEQ","A2QTL039A5VV3I","3HUR21WDDUBEMSLDIXZW1FAIHWSYXN","","842.5","img/flower6.png","74","843","1","1","1","1","1,0.333,0.333,0.333,1,0.333,0.333,0.333,1","1,0.333,0.333,0.333,1,0.333,0.333,0.333,1","1",""
"","html-keyboard-response","75","1271097","0.0-75.0","3OLQQLKKNTBH7NXRSUD3SM6BW8WJEQ","A2QTL039A5VV3I","3HUR21WDDUBEMSLDIXZW1FAIHWSYXN","","null","<img src=""img/flower6.png"" style=""width:200px; border:14px solid green;"">","null","","","","","","","","",""
"","image-keyboard-response","76","1271669","0.0-76.0","3OLQQLKKNTBH7NXRSUD3SM6BW8WJEQ","A2QTL039A5VV3I","3HUR21WDDUBEMSLDIXZW1FAIHWSYXN","","570.5999999046326","img/flower4.png","75","571.5","2","1","2","1","1,0.333,0.333,0.333,1,0.333,0.333,0.333,1","1,0.333,0.333,0.333,1,0.333,0.333,0.333,1","1",""
"","html-keyboard-response","77","1271970","0.0-77.0","3OLQQLKKNTBH7NXRSUD3SM6BW8WJEQ","A2QTL039A5VV3I","3HUR21WDDUBEMSLDIXZW1FAIHWSYXN","","null","<img src=""img/flower4.png"" style=""width:200px; border:14px solid green;"">","null","","","","","","","","",""
"","image-keyboard-response","78","1272657","0.0-78.0","3OLQQLKKNTBH7NXRSUD3SM6BW8WJEQ","A2QTL039A5VV3I","3HUR21WDDUBEMSLDIXZW1FAIHWSYXN","","686.1999999284744","img/flower6.png","74","687.1000000238419","1","1","1","1","1,0.333,0.333,0.333,1,0.333,0.333,0.333,1","1,0.333,0.333,0.333,1,0.333,0.333,0.333,1","1",""
"","html-keyboard-response","79","1272960","0.0-79.0","3OLQQLKKNTBH7NXRSUD3SM6BW8WJEQ","A2QTL039A5VV3I","3HUR21WDDUBEMSLDIXZW1FAIHWSYXN","","null","<img src=""img/flower6.png"" style=""width:200px; border:14px solid green;"">","null","","","","","","","","",""
"","image-keyboard-response","80","1273454","0.0-80.0","3OLQQLKKNTBH7NXRSUD3SM6BW8WJEQ","A2QTL039A5VV3I","3HUR21WDDUBEMSLDIXZW1FAIHWSYXN","","493.1999999284744","img/flower4.png","76","494","3","0","2","1","1,0.333,0.333,0.333,1,0.333,0.333,0.333,1","1,0.333,0.333,0.333,1,0.333,0.333,0.333,1","1",""
"","html-keyboard-response","81","1273756","0.0-81.0","3OLQQLKKNTBH7NXRSUD3SM6BW8WJEQ","A2QTL039A5VV3I","3HUR21WDDUBEMSLDIXZW1FAIHWSYXN","","null","<img src=""img/flower4.png"" style=""width:200px;border:14px solid red;"">","null","","","","","","","","",""
"","image-keyboard-response","82","1274365","0.0-82.0","3OLQQLKKNTBH7NXRSUD3SM6BW8WJEQ","A2QTL039A5VV3I","3HUR21WDDUBEMSLDIXZW1FAIHWSYXN","","608.2000000476837","img/flower6.png","74","608.8000000715256","1","1","1","1","1,0.333,0.333,0.333,1,0.333,0.333,0.333,1","1,0.333,0.333,0.333,1,0.333,0.333,0.333,1","1",""
"","html-keyboard-response","83","1274666","0.0-83.0","3OLQQLKKNTBH7NXRSUD3SM6BW8WJEQ","A2QTL039A5VV3I","3HUR21WDDUBEMSLDIXZW1FAIHWSYXN","","null","<img src=""img/flower6.png"" style=""width:200px; border:14px solid green;"">","null","","","","","","","","",""
"","image-keyboard-response","84","1275367","0.0-84.0","3OLQQLKKNTBH7NXRSUD3SM6BW8WJEQ","A2QTL039A5VV3I","3HUR21WDDUBEMSLDIXZW1FAIHWSYXN","","699.8000000715256","img/flower5.png","76","700.6999999284744","3","1","3","1","1,0.333,0.333,0.333,1,0.333,0.333,0.333,1","1,0.333,0.333,0.333,1,0.333,0.333,0.333,1","1",""
"","html-keyboard-response","85","1275668","0.0-85.0","3OLQQLKKNTBH7NXRSUD3SM6BW8WJEQ","A2QTL039A5VV3I","3HUR21WDDUBEMSLDIXZW1FAIHWSYXN","","null","<img src=""img/flower5.png"" style=""width:200px; border:14px solid green;"">","null","","","","","","","","",""
"","image-keyboard-response","86","1276044","0.0-86.0","3OLQQLKKNTBH7NXRSUD3SM6BW8WJEQ","A2QTL039A5VV3I","3HUR21WDDUBEMSLDIXZW1FAIHWSYXN","","375.10000002384186","img/flower4.png","75","375.7000000476837","2","1","2","1","1,0.333,0.333,0.333,1,0.333,0.333,0.333,1","1,0.333,0.333,0.333,1,0.333,0.333,0.333,1","1",""
"","html-keyboard-response","87","1276345","0.0-87.0","3OLQQLKKNTBH7NXRSUD3SM6BW8WJEQ","A2QTL039A5VV3I","3HUR21WDDUBEMSLDIXZW1FAIHWSYXN","","null","<img src=""img/flower4.png"" style=""width:200px; border:14px solid green;"">","null","","","","","","","","",""
"","image-keyboard-response","88","1276890","0.0-88.0","3OLQQLKKNTBH7NXRSUD3SM6BW8WJEQ","A2QTL039A5VV3I","3HUR21WDDUBEMSLDIXZW1FAIHWSYXN","","544.2999999523163","img/flower6.png","74","545","1","1","1","1","1,0.333,0.333,0.333,1,0.333,0.333,0.333,1","1,0.333,0.333,0.333,1,0.333,0.333,0.333,1","1",""
"","html-keyboard-response","89","1277193","0.0-89.0","3OLQQLKKNTBH7NXRSUD3SM6BW8WJEQ","A2QTL039A5VV3I","3HUR21WDDUBEMSLDIXZW1FAIHWSYXN","","null","<img src=""img/flower6.png"" style=""width:200px; border:14px solid green;"">","null","","","","","","","","",""
"","image-keyboard-response","90","1277924","0.0-90.0","3OLQQLKKNTBH7NXRSUD3SM6BW8WJEQ","A2QTL039A5VV3I","3HUR21WDDUBEMSLDIXZW1FAIHWSYXN","","730.3999999761581","img/flower4.png","76","731.1000000238419","3","0","2","1","1,0.333,0.333,0.333,1,0.333,0.333,0.333,1","1,0.333,0.333,0.333,1,0.333,0.333,0.333,1","1",""
"","html-keyboard-response","91","1278226","0.0-91.0","3OLQQLKKNTBH7NXRSUD3SM6BW8WJEQ","A2QTL039A5VV3I","3HUR21WDDUBEMSLDIXZW1FAIHWSYXN","","null","<img src=""img/flower4.png"" style=""width:200px;border:14px solid red;"">","null","","","","","","","","",""
"","image-keyboard-response","92","1278922","0.0-92.0","3OLQQLKKNTBH7NXRSUD3SM6BW8WJEQ","A2QTL039A5VV3I","3HUR21WDDUBEMSLDIXZW1FAIHWSYXN","","696.2999999523163","img/flower5.png","76","696.8000000715256","3","1","3","1","1,0.333,0.333,0.333,1,0.333,0.333,0.333,1","1,0.333,0.333,0.333,1,0.333,0.333,0.333,1","1",""
"","html-keyboard-response","93","1279224","0.0-93.0","3OLQQLKKNTBH7NXRSUD3SM6BW8WJEQ","A2QTL039A5VV3I","3HUR21WDDUBEMSLDIXZW1FAIHWSYXN","","null","<img src=""img/flower5.png"" style=""width:200px; border:14px solid green;"">","null","","","","","","","","",""
"","image-keyboard-response","94","1279564","0.0-94.0","3OLQQLKKNTBH7NXRSUD3SM6BW8WJEQ","A2QTL039A5VV3I","3HUR21WDDUBEMSLDIXZW1FAIHWSYXN","","339.7999999523163","img/flower4.png","75","340.39999997615814","2","1","2","1","1,0.333,0.333,0.333,1,0.333,0.333,0.333,1","1,0.333,0.333,0.333,1,0.333,0.333,0.333,1","1",""
"","html-keyboard-response","95","1279866","0.0-95.0","3OLQQLKKNTBH7NXRSUD3SM6BW8WJEQ","A2QTL039A5VV3I","3HUR21WDDUBEMSLDIXZW1FAIHWSYXN","","null","<img src=""img/flower4.png"" style=""width:200px; border:14px solid green;"">","null","","","","","","","","",""
"","image-keyboard-response","96","1280624","0.0-96.0","3OLQQLKKNTBH7NXRSUD3SM6BW8WJEQ","A2QTL039A5VV3I","3HUR21WDDUBEMSLDIXZW1FAIHWSYXN","","757.7999999523163","img/flower5.png","76","758.5","3","1","3","1","1,0.333,0.333,0.333,1,0.333,0.333,0.333,1","1,0.333,0.333,0.333,1,0.333,0.333,0.333,1","1",""
"","html-keyboard-response","97","1280926","0.0-97.0","3OLQQLKKNTBH7NXRSUD3SM6BW8WJEQ","A2QTL039A5VV3I","3HUR21WDDUBEMSLDIXZW1FAIHWSYXN","","null","<img src=""img/flower5.png"" style=""width:200px; border:14px solid green;"">","null","","","","","","","","",""
"","image-keyboard-response","98","1281330","0.0-98.0","3OLQQLKKNTBH7NXRSUD3SM6BW8WJEQ","A2QTL039A5VV3I","3HUR21WDDUBEMSLDIXZW1FAIHWSYXN","","403","img/flower6.png","74","403.5","1","1","1","1","1,0.333,0.333,0.333,1,0.333,0.333,0.333,1","1,0.333,0.333,0.333,1,0.333,0.333,0.333,1","1",""
"","html-keyboard-response","99","1281631","0.0-99.0","3OLQQLKKNTBH7NXRSUD3SM6BW8WJEQ","A2QTL039A5VV3I","3HUR21WDDUBEMSLDIXZW1FAIHWSYXN","","null","<img src=""img/flower6.png"" style=""width:200px; border:14px solid green;"">","null","","","","","","","","",""
"","image-keyboard-response","100","1282561","0.0-100.0","3OLQQLKKNTBH7NXRSUD3SM6BW8WJEQ","A2QTL039A5VV3I","3HUR21WDDUBEMSLDIXZW1FAIHWSYXN","","929.6000000238419","img/flower5.png","76","930.1000000238419","3","1","3","1","1,0.333,0.333,0.333,1,0.333,0.333,0.333,1","1,0.333,0.333,0.333,1,0.333,0.333,0.333,1","1",""
"","html-keyboard-response","101","1282863","0.0-101.0","3OLQQLKKNTBH7NXRSUD3SM6BW8WJEQ","A2QTL039A5VV3I","3HUR21WDDUBEMSLDIXZW1FAIHWSYXN","","null","<img src=""img/flower5.png"" style=""width:200px; border:14px solid green;"">","null","","","","","","","","",""
"","image-keyboard-response","102","1283292","0.0-102.0","3OLQQLKKNTBH7NXRSUD3SM6BW8WJEQ","A2QTL039A5VV3I","3HUR21WDDUBEMSLDIXZW1FAIHWSYXN","","427.60000002384186","img/flower5.png","76","428.3000000715256","3","1","3","1","1,0.333,0.333,0.333,1,0.333,0.333,0.333,1","1,0.333,0.333,0.333,1,0.333,0.333,0.333,1","1",""
"","html-keyboard-response","103","1283603","0.0-103.0","3OLQQLKKNTBH7NXRSUD3SM6BW8WJEQ","A2QTL039A5VV3I","3HUR21WDDUBEMSLDIXZW1FAIHWSYXN","","null","<img src=""img/flower5.png"" style=""width:200px; border:14px solid green;"">","null","","","","","","","","",""
"","image-keyboard-response","104","1284110","0.0-104.0","3OLQQLKKNTBH7NXRSUD3SM6BW8WJEQ","A2QTL039A5VV3I","3HUR21WDDUBEMSLDIXZW1FAIHWSYXN","","505.89999997615814","img/flower6.png","75","506.60000002384186","2","0","1","1","1,0.333,0.333,0.333,1,0.333,0.333,0.333,1","1,0.333,0.333,0.333,1,0.333,0.333,0.333,1","1",""
"","html-keyboard-response","105","1284411","0.0-105.0","3OLQQLKKNTBH7NXRSUD3SM6BW8WJEQ","A2QTL039A5VV3I","3HUR21WDDUBEMSLDIXZW1FAIHWSYXN","","null","<img src=""img/flower6.png"" style=""width:200px;border:14px solid red;"">","null","","","","","","","","",""
"","image-keyboard-response","106","1284508","0.0-106.0","3OLQQLKKNTBH7NXRSUD3SM6BW8WJEQ","A2QTL039A5VV3I","3HUR21WDDUBEMSLDIXZW1FAIHWSYXN","","96.29999995231628","img/flower6.png","74","96.79999995231628","1","1","1","1","1,0.333,0.333,0.333,1,0.333,0.333,0.333,1","1,0.333,0.333,0.333,1,0.333,0.333,0.333,1","1",""
"","html-keyboard-response","107","1284809","0.0-107.0","3OLQQLKKNTBH7NXRSUD3SM6BW8WJEQ","A2QTL039A5VV3I","3HUR21WDDUBEMSLDIXZW1FAIHWSYXN","","null","<img src=""img/flower6.png"" style=""width:200px; border:14px solid green;"">","null","","","","","","","","",""
"","image-keyboard-response","108","1285427","0.0-108.0","3OLQQLKKNTBH7NXRSUD3SM6BW8WJEQ","A2QTL039A5VV3I","3HUR21WDDUBEMSLDIXZW1FAIHWSYXN","","617","img/flower6.png","74","617.5","1","1","1","1","1,0.333,0.333,0.333,1,0.333,0.333,0.333,1","1,0.333,0.333,0.333,1,0.333,0.333,0.333,1","1",""
"","html-keyboard-response","109","1285729","0.0-109.0","3OLQQLKKNTBH7NXRSUD3SM6BW8WJEQ","A2QTL039A5VV3I","3HUR21WDDUBEMSLDIXZW1FAIHWSYXN","","null","<img src=""img/flower6.png"" style=""width:200px; border:14px solid green;"">","null","","","","","","","","",""
"","image-keyboard-response","110","1286306","0.0-110.0","3OLQQLKKNTBH7NXRSUD3SM6BW8WJEQ","A2QTL039A5VV3I","3HUR21WDDUBEMSLDIXZW1FAIHWSYXN","","576.7999999523163","img/flower6.png","74","577.4000000953674","1","1","1","1","1,0.333,0.333,0.333,1,0.333,0.333,0.333,1","1,0.333,0.333,0.333,1,0.333,0.333,0.333,1","1",""
"","html-keyboard-response","111","1286608","0.0-111.0","3OLQQLKKNTBH7NXRSUD3SM6BW8WJEQ","A2QTL039A5VV3I","3HUR21WDDUBEMSLDIXZW1FAIHWSYXN","","null","<img src=""img/flower6.png"" style=""width:200px; border:14px solid green;"">","null","","","","","","","","",""
"","image-keyboard-response","112","1287319","0.0-112.0","3OLQQLKKNTBH7NXRSUD3SM6BW8WJEQ","A2QTL039A5VV3I","3HUR21WDDUBEMSLDIXZW1FAIHWSYXN","","710","img/flower6.png","74","710.7999999523163","1","1","1","1","1,0.333,0.333,0.333,1,0.333,0.333,0.333,1","1,0.333,0.333,0.333,1,0.333,0.333,0.333,1","1",""
"","html-keyboard-response","113","1287620","0.0-113.0","3OLQQLKKNTBH7NXRSUD3SM6BW8WJEQ","A2QTL039A5VV3I","3HUR21WDDUBEMSLDIXZW1FAIHWSYXN","","null","<img src=""img/flower6.png"" style=""width:200px; border:14px solid green;"">","null","","","","","","","","",""
"","image-keyboard-response","114","1288665","0.0-114.0","3OLQQLKKNTBH7NXRSUD3SM6BW8WJEQ","A2QTL039A5VV3I","3HUR21WDDUBEMSLDIXZW1FAIHWSYXN","","1043.5","img/flower4.png","75","1044.1999999284744","2","1","2","1","1,0.333,0.333,0.333,1,0.333,0.333,0.333,1","1,0.333,0.333,0.333,1,0.333,0.333,0.333,1","1",""
"","html-keyboard-response","115","1288973","0.0-115.0","3OLQQLKKNTBH7NXRSUD3SM6BW8WJEQ","A2QTL039A5VV3I","3HUR21WDDUBEMSLDIXZW1FAIHWSYXN","","null","<img src=""img/flower4.png"" style=""width:200px; border:14px solid green;"">","null","","","","","","","","",""
"","image-keyboard-response","116","1289397","0.0-116.0","3OLQQLKKNTBH7NXRSUD3SM6BW8WJEQ","A2QTL039A5VV3I","3HUR21WDDUBEMSLDIXZW1FAIHWSYXN","","422.60000002384186","img/flower4.png","75","423.60000002384186","2","1","2","1","1,0.333,0.333,0.333,1,0.333,0.333,0.333,1","1,0.333,0.333,0.333,1,0.333,0.333,0.333,1","1",""
"","html-keyboard-response","117","1289700","0.0-117.0","3OLQQLKKNTBH7NXRSUD3SM6BW8WJEQ","A2QTL039A5VV3I","3HUR21WDDUBEMSLDIXZW1FAIHWSYXN","","null","<img src=""img/flower4.png"" style=""width:200px; border:14px solid green;"">","null","","","","","","","","",""
"","image-keyboard-response","118","1290477","0.0-118.0","3OLQQLKKNTBH7NXRSUD3SM6BW8WJEQ","A2QTL039A5VV3I","3HUR21WDDUBEMSLDIXZW1FAIHWSYXN","","775.7000000476837","img/flower5.png","76","776.3999999761581","3","1","3","1","1,0.333,0.333,0.333,1,0.333,0.333,0.333,1","1,0.333,0.333,0.333,1,0.333,0.333,0.333,1","1",""
"","html-keyboard-response","119","1290778","0.0-119.0","3OLQQLKKNTBH7NXRSUD3SM6BW8WJEQ","A2QTL039A5VV3I","3HUR21WDDUBEMSLDIXZW1FAIHWSYXN","","null","<img src=""img/flower5.png"" style=""width:200px; border:14px solid green;"">","null","","","","","","","","",""
"","image-keyboard-response","120","1291387","0.0-120.0","3OLQQLKKNTBH7NXRSUD3SM6BW8WJEQ","A2QTL039A5VV3I","3HUR21WDDUBEMSLDIXZW1FAIHWSYXN","","609.0999999046326","img/flower4.png","75","609.6000000238419","2","1","2","1","1,0.333,0.333,0.333,1,0.333,0.333,0.333,1","1,0.333,0.333,0.333,1,0.333,0.333,0.333,1","1",""
"","html-keyboard-response","121","1291689","0.0-121.0","3OLQQLKKNTBH7NXRSUD3SM6BW8WJEQ","A2QTL039A5VV3I","3HUR21WDDUBEMSLDIXZW1FAIHWSYXN","","null","<img src=""img/flower4.png"" style=""width:200px; border:14px solid green;"">","null","","","","","","","","",""
"","image-keyboard-response","122","1292237","0.0-122.0","3OLQQLKKNTBH7NXRSUD3SM6BW8WJEQ","A2QTL039A5VV3I","3HUR21WDDUBEMSLDIXZW1FAIHWSYXN","","547.3999999761581","img/flower5.png","76","548","3","1","3","1","1,0.333,0.333,0.333,1,0.333,0.333,0.333,1","1,0.333,0.333,0.333,1,0.333,0.333,0.333,1","1",""
"","html-keyboard-response","123","1292538","0.0-123.0","3OLQQLKKNTBH7NXRSUD3SM6BW8WJEQ","A2QTL039A5VV3I","3HUR21WDDUBEMSLDIXZW1FAIHWSYXN","","null","<img src=""img/flower5.png"" style=""width:200px; border:14px solid green;"">","null","","","","","","","","",""
"","image-keyboard-response","124","1293207","0.0-124.0","3OLQQLKKNTBH7NXRSUD3SM6BW8WJEQ","A2QTL039A5VV3I","3HUR21WDDUBEMSLDIXZW1FAIHWSYXN","","667.5","img/flower4.png","75","668.2999999523163","2","1","2","1","1,0.333,0.333,0.333,1,0.333,0.333,0.333,1","1,0.333,0.333,0.333,1,0.333,0.333,0.333,1","1",""
"","html-keyboard-response","125","1293509","0.0-125.0","3OLQQLKKNTBH7NXRSUD3SM6BW8WJEQ","A2QTL039A5VV3I","3HUR21WDDUBEMSLDIXZW1FAIHWSYXN","","null","<img src=""img/flower4.png"" style=""width:200px; border:14px solid green;"">","null","","","","","","","","",""
"","image-keyboard-response","126","1294232","0.0-126.0","3OLQQLKKNTBH7NXRSUD3SM6BW8WJEQ","A2QTL039A5VV3I","3HUR21WDDUBEMSLDIXZW1FAIHWSYXN","","722.2999999523163","img/flower6.png","74","723.1999999284744","1","1","1","1","1,0.333,0.333,0.333,1,0.333,0.333,0.333,1","1,0.333,0.333,0.333,1,0.333,0.333,0.333,1","1",""
"","html-keyboard-response","127","1294535","0.0-127.0","3OLQQLKKNTBH7NXRSUD3SM6BW8WJEQ","A2QTL039A5VV3I","3HUR21WDDUBEMSLDIXZW1FAIHWSYXN","","null","<img src=""img/flower6.png"" style=""width:200px; border:14px solid green;"">","null","","","","","","","","",""
"","image-keyboard-response","128","1295796","0.0-128.0","3OLQQLKKNTBH7NXRSUD3SM6BW8WJEQ","A2QTL039A5VV3I","3HUR21WDDUBEMSLDIXZW1FAIHWSYXN","","1260.3999999761581","img/flower5.png","76","1261.3000000715256","3","1","3","1","1,0.333,0.333,0.333,1,0.333,0.333,0.333,1","1,0.333,0.333,0.333,1,0.333,0.333,0.333,1","1",""
"","html-keyboard-response","129","1296098","0.0-129.0","3OLQQLKKNTBH7NXRSUD3SM6BW8WJEQ","A2QTL039A5VV3I","3HUR21WDDUBEMSLDIXZW1FAIHWSYXN","","null","<img src=""img/flower5.png"" style=""width:200px; border:14px solid green;"">","null","","","","","","","","",""
"","image-keyboard-response","130","1296483","0.0-130.0","3OLQQLKKNTBH7NXRSUD3SM6BW8WJEQ","A2QTL039A5VV3I","3HUR21WDDUBEMSLDIXZW1FAIHWSYXN","","382.7999999523163","img/flower5.png","76","383.89999997615814","3","1","3","1","1,0.333,0.333,0.333,1,0.333,0.333,0.333,1","1,0.333,0.333,0.333,1,0.333,0.333,0.333,1","1",""
"","html-keyboard-response","131","1296785","0.0-131.0","3OLQQLKKNTBH7NXRSUD3SM6BW8WJEQ","A2QTL039A5VV3I","3HUR21WDDUBEMSLDIXZW1FAIHWSYXN","","null","<img src=""img/flower5.png"" style=""width:200px; border:14px solid green;"">","null","","","","","","","","",""
"","image-keyboard-response","132","1297404","0.0-132.0","3OLQQLKKNTBH7NXRSUD3SM6BW8WJEQ","A2QTL039A5VV3I","3HUR21WDDUBEMSLDIXZW1FAIHWSYXN","","617.8999999761581","img/flower4.png","75","619.1000000238419","2","1","2","1","1,0.333,0.333,0.333,1,0.333,0.333,0.333,1","1,0.333,0.333,0.333,1,0.333,0.333,0.333,1","1",""
"","html-keyboard-response","133","1297706","0.0-133.0","3OLQQLKKNTBH7NXRSUD3SM6BW8WJEQ","A2QTL039A5VV3I","3HUR21WDDUBEMSLDIXZW1FAIHWSYXN","","null","<img src=""img/flower4.png"" style=""width:200px; border:14px solid green;"">","null","","","","","","","","",""
"","image-keyboard-response","134","1298162","0.0-134.0","3OLQQLKKNTBH7NXRSUD3SM6BW8WJEQ","A2QTL039A5VV3I","3HUR21WDDUBEMSLDIXZW1FAIHWSYXN","","455.5","img/flower4.png","75","456.1999999284744","2","1","2","1","1,0.333,0.333,0.333,1,0.333,0.333,0.333,1","1,0.333,0.333,0.333,1,0.333,0.333,0.333,1","1",""
"","html-keyboard-response","135","1298463","0.0-135.0","3OLQQLKKNTBH7NXRSUD3SM6BW8WJEQ","A2QTL039A5VV3I","3HUR21WDDUBEMSLDIXZW1FAIHWSYXN","","null","<img src=""img/flower4.png"" style=""width:200px; border:14px solid green;"">","null","","","","","","","","",""
"","image-keyboard-response","136","1299099","0.0-136.0","3OLQQLKKNTBH7NXRSUD3SM6BW8WJEQ","A2QTL039A5VV3I","3HUR21WDDUBEMSLDIXZW1FAIHWSYXN","","635.2999999523163","img/flower6.png","74","635.8999999761581","1","1","1","1","1,0.333,0.333,0.333,1,0.333,0.333,0.333,1","1,0.333,0.333,0.333,1,0.333,0.333,0.333,1","1",""
"","html-keyboard-response","137","1299401","0.0-137.0","3OLQQLKKNTBH7NXRSUD3SM6BW8WJEQ","A2QTL039A5VV3I","3HUR21WDDUBEMSLDIXZW1FAIHWSYXN","","null","<img src=""img/flower6.png"" style=""width:200px; border:14px solid green;"">","null","","","","","","","","",""
"","image-keyboard-response","138","1299884","0.0-138.0","3OLQQLKKNTBH7NXRSUD3SM6BW8WJEQ","A2QTL039A5VV3I","3HUR21WDDUBEMSLDIXZW1FAIHWSYXN","","481.7000000476837","img/flower6.png","74","482.7000000476837","1","1","1","1","1,0.333,0.333,0.333,1,0.333,0.333,0.333,1","1,0.333,0.333,0.333,1,0.333,0.333,0.333,1","1",""
"","html-keyboard-response","139","1300186","0.0-139.0","3OLQQLKKNTBH7NXRSUD3SM6BW8WJEQ","A2QTL039A5VV3I","3HUR21WDDUBEMSLDIXZW1FAIHWSYXN","","null","<img src=""img/flower6.png"" style=""width:200px; border:14px solid green;"">","null","","","","","","","","",""
"","image-keyboard-response","140","1301709","0.0-140.0","3OLQQLKKNTBH7NXRSUD3SM6BW8WJEQ","A2QTL039A5VV3I","3HUR21WDDUBEMSLDIXZW1FAIHWSYXN","","1521.2999999523163","img/flower4.png","75","1522.5","2","1","2","1","1,0.333,0.333,0.333,1,0.333,0.333,0.333,1","1,0.333,0.333,0.333,1,0.333,0.333,0.333,1","1",""
"","html-keyboard-response","141","1302011","0.0-141.0","3OLQQLKKNTBH7NXRSUD3SM6BW8WJEQ","A2QTL039A5VV3I","3HUR21WDDUBEMSLDIXZW1FAIHWSYXN","","null","<img src=""img/flower4.png"" style=""width:200px; border:14px solid green;"">","null","","","","","","","","",""
"","image-keyboard-response","142","1302522","0.0-142.0","3OLQQLKKNTBH7NXRSUD3SM6BW8WJEQ","A2QTL039A5VV3I","3HUR21WDDUBEMSLDIXZW1FAIHWSYXN","","509.39999997615814","img/flower6.png","76","510.2000000476837","3","0","1","1","1,0.333,0.333,0.333,1,0.333,0.333,0.333,1","1,0.333,0.333,0.333,1,0.333,0.333,0.333,1","1",""
"","html-keyboard-response","143","1302823","0.0-143.0","3OLQQLKKNTBH7NXRSUD3SM6BW8WJEQ","A2QTL039A5VV3I","3HUR21WDDUBEMSLDIXZW1FAIHWSYXN","","null","<img src=""img/flower6.png"" style=""width:200px;border:14px solid red;"">","null","","","","","","","","",""
"","image-keyboard-response","144","1302909","0.0-144.0","3OLQQLKKNTBH7NXRSUD3SM6BW8WJEQ","A2QTL039A5VV3I","3HUR21WDDUBEMSLDIXZW1FAIHWSYXN","","85","img/flower4.png","74","85.70000004768372","1","0","2","1","1,0.333,0.333,0.333,1,0.333,0.333,0.333,1","1,0.333,0.333,0.333,1,0.333,0.333,0.333,1","1",""
"","html-keyboard-response","145","1303211","0.0-145.0","3OLQQLKKNTBH7NXRSUD3SM6BW8WJEQ","A2QTL039A5VV3I","3HUR21WDDUBEMSLDIXZW1FAIHWSYXN","","null","<img src=""img/flower4.png"" style=""width:200px;border:14px solid red;"">","null","","","","","","","","",""
"","image-keyboard-response","146","1303944","0.0-146.0","3OLQQLKKNTBH7NXRSUD3SM6BW8WJEQ","A2QTL039A5VV3I","3HUR21WDDUBEMSLDIXZW1FAIHWSYXN","","732.3000000715256","img/flower4.png","75","732.7999999523163","2","1","2","1","1,0.333,0.333,0.333,1,0.333,0.333,0.333,1","1,0.333,0.333,0.333,1,0.333,0.333,0.333,1","1",""
"","html-keyboard-response","147","1304245","0.0-147.0","3OLQQLKKNTBH7NXRSUD3SM6BW8WJEQ","A2QTL039A5VV3I","3HUR21WDDUBEMSLDIXZW1FAIHWSYXN","","null","<img src=""img/flower4.png"" style=""width:200px; border:14px solid green;"">","null","","","","","","","","",""
"","image-keyboard-response","148","1304624","0.0-148.0","3OLQQLKKNTBH7NXRSUD3SM6BW8WJEQ","A2QTL039A5VV3I","3HUR21WDDUBEMSLDIXZW1FAIHWSYXN","","378.10000002384186","img/flower4.png","75","378.6999999284744","2","1","2","1","1,0.333,0.333,0.333,1,0.333,0.333,0.333,1","1,0.333,0.333,0.333,1,0.333,0.333,0.333,1","1",""
"","html-keyboard-response","149","1304925","0.0-149.0","3OLQQLKKNTBH7NXRSUD3SM6BW8WJEQ","A2QTL039A5VV3I","3HUR21WDDUBEMSLDIXZW1FAIHWSYXN","","null","<img src=""img/flower4.png"" style=""width:200px; border:14px solid green;"">","null","","","","","","","","",""
"","image-keyboard-response","150","1305695","0.0-150.0","3OLQQLKKNTBH7NXRSUD3SM6BW8WJEQ","A2QTL039A5VV3I","3HUR21WDDUBEMSLDIXZW1FAIHWSYXN","","769.1000000238419","img/flower6.png","74","769.7999999523163","1","1","1","1","1,0.333,0.333,0.333,1,0.333,0.333,0.333,1","1,0.333,0.333,0.333,1,0.333,0.333,0.333,1","1",""
"","html-keyboard-response","151","1305997","0.0-151.0","3OLQQLKKNTBH7NXRSUD3SM6BW8WJEQ","A2QTL039A5VV3I","3HUR21WDDUBEMSLDIXZW1FAIHWSYXN","","null","<img src=""img/flower6.png"" style=""width:200px; border:14px solid green;"">","null","","","","","","","","",""
"","image-keyboard-response","152","1307268","0.0-152.0","3OLQQLKKNTBH7NXRSUD3SM6BW8WJEQ","A2QTL039A5VV3I","3HUR21WDDUBEMSLDIXZW1FAIHWSYXN","","1270.2000000476837","img/flower5.png","76","1270.8000000715256","3","1","3","1","1,0.333,0.333,0.333,1,0.333,0.333,0.333,1","1,0.333,0.333,0.333,1,0.333,0.333,0.333,1","1",""
"","html-keyboard-response","153","1307570","0.0-153.0","3OLQQLKKNTBH7NXRSUD3SM6BW8WJEQ","A2QTL039A5VV3I","3HUR21WDDUBEMSLDIXZW1FAIHWSYXN","","null","<img src=""img/flower5.png"" style=""width:200px; border:14px solid green;"">","null","","","","","","","","",""
"","image-keyboard-response","154","1308231","0.0-154.0","3OLQQLKKNTBH7NXRSUD3SM6BW8WJEQ","A2QTL039A5VV3I","3HUR21WDDUBEMSLDIXZW1FAIHWSYXN","","660.5","img/flower6.png","74","661","1","1","1","1","1,0.333,0.333,0.333,1,0.333,0.333,0.333,1","1,0.333,0.333,0.333,1,0.333,0.333,0.333,1","1",""
"","html-keyboard-response","155","1308532","0.0-155.0","3OLQQLKKNTBH7NXRSUD3SM6BW8WJEQ","A2QTL039A5VV3I","3HUR21WDDUBEMSLDIXZW1FAIHWSYXN","","null","<img src=""img/flower6.png"" style=""width:200px; border:14px solid green;"">","null","","","","","","","","",""
"","image-keyboard-response","156","1309003","0.0-156.0","3OLQQLKKNTBH7NXRSUD3SM6BW8WJEQ","A2QTL039A5VV3I","3HUR21WDDUBEMSLDIXZW1FAIHWSYXN","","470.5","img/flower6.png","74","471.2000000476837","1","1","1","1","1,0.333,0.333,0.333,1,0.333,0.333,0.333,1","1,0.333,0.333,0.333,1,0.333,0.333,0.333,1","1",""
"","html-keyboard-response","157","1309304","0.0-157.0","3OLQQLKKNTBH7NXRSUD3SM6BW8WJEQ","A2QTL039A5VV3I","3HUR21WDDUBEMSLDIXZW1FAIHWSYXN","","null","<img src=""img/flower6.png"" style=""width:200px; border:14px solid green;"">","null","","","","","","","","",""
"","image-keyboard-response","158","1309726","0.0-158.0","3OLQQLKKNTBH7NXRSUD3SM6BW8WJEQ","A2QTL039A5VV3I","3HUR21WDDUBEMSLDIXZW1FAIHWSYXN","","420.2999999523163","img/flower6.png","74","421","1","1","1","1","1,0.333,0.333,0.333,1,0.333,0.333,0.333,1","1,0.333,0.333,0.333,1,0.333,0.333,0.333,1","1",""
"","html-keyboard-response","159","1310028","0.0-159.0","3OLQQLKKNTBH7NXRSUD3SM6BW8WJEQ","A2QTL039A5VV3I","3HUR21WDDUBEMSLDIXZW1FAIHWSYXN","","null","<img src=""img/flower6.png"" style=""width:200px; border:14px solid green;"">","null","","","","","","","","",""
"","image-keyboard-response","160","1310894","0.0-160.0","3OLQQLKKNTBH7NXRSUD3SM6BW8WJEQ","A2QTL039A5VV3I","3HUR21WDDUBEMSLDIXZW1FAIHWSYXN","","865.5","img/flower5.png","76","866.3999999761581","3","1","3","1","1,0.333,0.333,0.333,1,0.333,0.333,0.333,1","1,0.333,0.333,0.333,1,0.333,0.333,0.333,1","1",""
"","html-keyboard-response","161","1311196","0.0-161.0","3OLQQLKKNTBH7NXRSUD3SM6BW8WJEQ","A2QTL039A5VV3I","3HUR21WDDUBEMSLDIXZW1FAIHWSYXN","","null","<img src=""img/flower5.png"" style=""width:200px; border:14px solid green;"">","null","","","","","","","","",""
"","image-keyboard-response","162","1312151","0.0-162.0","3OLQQLKKNTBH7NXRSUD3SM6BW8WJEQ","A2QTL039A5VV3I","3HUR21WDDUBEMSLDIXZW1FAIHWSYXN","","954.1000000238419","img/flower4.png","75","954.6999999284744","2","1","2","1","1,0.333,0.333,0.333,1,0.333,0.333,0.333,1","1,0.333,0.333,0.333,1,0.333,0.333,0.333,1","1",""
"","html-keyboard-response","163","1312452","0.0-163.0","3OLQQLKKNTBH7NXRSUD3SM6BW8WJEQ","A2QTL039A5VV3I","3HUR21WDDUBEMSLDIXZW1FAIHWSYXN","","null","<img src=""img/flower4.png"" style=""width:200px; border:14px solid green;"">","null","","","","","","","","",""
"","image-keyboard-response","164","1313519","0.0-164.0","3OLQQLKKNTBH7NXRSUD3SM6BW8WJEQ","A2QTL039A5VV3I","3HUR21WDDUBEMSLDIXZW1FAIHWSYXN","","1066.6000000238419","img/flower6.png","74","1067.2000000476837","1","1","1","1","1,0.333,0.333,0.333,1,0.333,0.333,0.333,1","1,0.333,0.333,0.333,1,0.333,0.333,0.333,1","1",""
"","html-keyboard-response","165","1313822","0.0-165.0","3OLQQLKKNTBH7NXRSUD3SM6BW8WJEQ","A2QTL039A5VV3I","3HUR21WDDUBEMSLDIXZW1FAIHWSYXN","","null","<img src=""img/flower6.png"" style=""width:200px; border:14px solid green;"">","null","","","","","","","","",""
"","image-keyboard-response","166","1314234","0.0-166.0","3OLQQLKKNTBH7NXRSUD3SM6BW8WJEQ","A2QTL039A5VV3I","3HUR21WDDUBEMSLDIXZW1FAIHWSYXN","","411.8000000715256","img/flower6.png","74","412.39999997615814","1","1","1","1","1,0.333,0.333,0.333,1,0.333,0.333,0.333,1","1,0.333,0.333,0.333,1,0.333,0.333,0.333,1","1",""
"","html-keyboard-response","167","1314536","0.0-167.0","3OLQQLKKNTBH7NXRSUD3SM6BW8WJEQ","A2QTL039A5VV3I","3HUR21WDDUBEMSLDIXZW1FAIHWSYXN","","null","<img src=""img/flower6.png"" style=""width:200px; border:14px solid green;"">","null","","","","","","","","",""
"","image-keyboard-response","168","1315284","0.0-168.0","3OLQQLKKNTBH7NXRSUD3SM6BW8WJEQ","A2QTL039A5VV3I","3HUR21WDDUBEMSLDIXZW1FAIHWSYXN","","747.6000000238419","img/flower5.png","76","748.3000000715256","3","1","3","1","1,0.333,0.333,0.333,1,0.333,0.333,0.333,1","1,0.333,0.333,0.333,1,0.333,0.333,0.333,1","1",""
"","html-keyboard-response","169","1315586","0.0-169.0","3OLQQLKKNTBH7NXRSUD3SM6BW8WJEQ","A2QTL039A5VV3I","3HUR21WDDUBEMSLDIXZW1FAIHWSYXN","","null","<img src=""img/flower5.png"" style=""width:200px; border:14px solid green;"">","null","","","","","","","","",""
"","image-keyboard-response","170","1316137","0.0-170.0","3OLQQLKKNTBH7NXRSUD3SM6BW8WJEQ","A2QTL039A5VV3I","3HUR21WDDUBEMSLDIXZW1FAIHWSYXN","","550.5","img/flower5.png","76","551","3","1","3","1","1,0.333,0.333,0.333,1,0.333,0.333,0.333,1","1,0.333,0.333,0.333,1,0.333,0.333,0.333,1","1",""
"","html-keyboard-response","171","1316439","0.0-171.0","3OLQQLKKNTBH7NXRSUD3SM6BW8WJEQ","A2QTL039A5VV3I","3HUR21WDDUBEMSLDIXZW1FAIHWSYXN","","null","<img src=""img/flower5.png"" style=""width:200px; border:14px solid green;"">","null","","","","","","","","",""
"","image-keyboard-response","172","1317620","0.0-172.0","3OLQQLKKNTBH7NXRSUD3SM6BW8WJEQ","A2QTL039A5VV3I","3HUR21WDDUBEMSLDIXZW1FAIHWSYXN","","1180.3999999761581","img/flower4.png","75","1181.2000000476837","2","1","2","1","1,0.333,0.333,0.333,1,0.333,0.333,0.333,1","1,0.333,0.333,0.333,1,0.333,0.333,0.333,1","1",""
"","html-keyboard-response","173","1317922","0.0-173.0","3OLQQLKKNTBH7NXRSUD3SM6BW8WJEQ","A2QTL039A5VV3I","3HUR21WDDUBEMSLDIXZW1FAIHWSYXN","","null","<img src=""img/flower4.png"" style=""width:200px; border:14px solid green;"">","null","","","","","","","","",""
"","image-keyboard-response","174","1318463","0.0-174.0","3OLQQLKKNTBH7NXRSUD3SM6BW8WJEQ","A2QTL039A5VV3I","3HUR21WDDUBEMSLDIXZW1FAIHWSYXN","","540.2000000476837","img/flower6.png","74","540.8000000715256","1","1","1","1","1,0.333,0.333,0.333,1,0.333,0.333,0.333,1","1,0.333,0.333,0.333,1,0.333,0.333,0.333,1","1",""
"","html-keyboard-response","175","1318765","0.0-175.0","3OLQQLKKNTBH7NXRSUD3SM6BW8WJEQ","A2QTL039A5VV3I","3HUR21WDDUBEMSLDIXZW1FAIHWSYXN","","null","<img src=""img/flower6.png"" style=""width:200px; border:14px solid green;"">","null","","","","","","","","",""
"","image-keyboard-response","176","1319665","0.0-176.0","3OLQQLKKNTBH7NXRSUD3SM6BW8WJEQ","A2QTL039A5VV3I","3HUR21WDDUBEMSLDIXZW1FAIHWSYXN","","897.8999999761581","img/flower5.png","76","899","3","1","3","1","1,0.333,0.333,0.333,1,0.333,0.333,0.333,1","1,0.333,0.333,0.333,1,0.333,0.333,0.333,1","1",""
"","html-keyboard-response","177","1319968","0.0-177.0","3OLQQLKKNTBH7NXRSUD3SM6BW8WJEQ","A2QTL039A5VV3I","3HUR21WDDUBEMSLDIXZW1FAIHWSYXN","","null","<img src=""img/flower5.png"" style=""width:200px; border:14px solid green;"">","null","","","","","","","","",""
"","image-keyboard-response","178","1320556","0.0-178.0","3OLQQLKKNTBH7NXRSUD3SM6BW8WJEQ","A2QTL039A5VV3I","3HUR21WDDUBEMSLDIXZW1FAIHWSYXN","","587.1999999284744","img/flower4.png","75","587.8999999761581","2","1","2","1","1,0.333,0.333,0.333,1,0.333,0.333,0.333,1","1,0.333,0.333,0.333,1,0.333,0.333,0.333,1","1",""
"","html-keyboard-response","179","1320857","0.0-179.0","3OLQQLKKNTBH7NXRSUD3SM6BW8WJEQ","A2QTL039A5VV3I","3HUR21WDDUBEMSLDIXZW1FAIHWSYXN","","null","<img src=""img/flower4.png"" style=""width:200px; border:14px solid green;"">","null","","","","","","","","",""
"","image-keyboard-response","180","1321449","0.0-180.0","3OLQQLKKNTBH7NXRSUD3SM6BW8WJEQ","A2QTL039A5VV3I","3HUR21WDDUBEMSLDIXZW1FAIHWSYXN","","591","img/flower6.png","74","592","1","1","1","1","1,0.333,0.333,0.333,1,0.333,0.333,0.333,1","1,0.333,0.333,0.333,1,0.333,0.333,0.333,1","1",""
"","html-keyboard-response","181","1321751","0.0-181.0","3OLQQLKKNTBH7NXRSUD3SM6BW8WJEQ","A2QTL039A5VV3I","3HUR21WDDUBEMSLDIXZW1FAIHWSYXN","","null","<img src=""img/flower6.png"" style=""width:200px; border:14px solid green;"">","null","","","","","","","","",""
"","html-keyboard-response","182","1324686","0.0-182.0","3OLQQLKKNTBH7NXRSUD3SM6BW8WJEQ","A2QTL039A5VV3I","3HUR21WDDUBEMSLDIXZW1FAIHWSYXN","","","","","","","","","","","","",""
"","image-keyboard-response","183","1325919","0.0-183.0","3OLQQLKKNTBH7NXRSUD3SM6BW8WJEQ","A2QTL039A5VV3I","3HUR21WDDUBEMSLDIXZW1FAIHWSYXN","","1232.2999999523163","img/flower2.png","74","1232.8999999761581","1","0","1","2","1,0,0,1,1,0,1,0,1","0,1,0,0,1,1,1,1,0","3",""
"","html-keyboard-response","184","1326220","0.0-184.0","3OLQQLKKNTBH7NXRSUD3SM6BW8WJEQ","A2QTL039A5VV3I","3HUR21WDDUBEMSLDIXZW1FAIHWSYXN","","null","<img src=""img/flower2.png"" style=""width:200px;border:14px solid red;"">","null","","","","","","","","",""
"","image-keyboard-response","185","1326943","0.0-185.0","3OLQQLKKNTBH7NXRSUD3SM6BW8WJEQ","A2QTL039A5VV3I","3HUR21WDDUBEMSLDIXZW1FAIHWSYXN","","722.1000000238419","img/flower3.png","75","722.5","2","1","3","2","1,0,0,1,1,0,1,0,1","0,1,0,0,1,1,1,1,0","3",""
"","html-keyboard-response","186","1327244","0.0-186.0","3OLQQLKKNTBH7NXRSUD3SM6BW8WJEQ","A2QTL039A5VV3I","3HUR21WDDUBEMSLDIXZW1FAIHWSYXN","","null","<img src=""img/flower3.png"" style=""width:200px; border:14px solid green;"">","null","","","","","","","","",""
"","image-keyboard-response","187","1327636","0.0-187.0","3OLQQLKKNTBH7NXRSUD3SM6BW8WJEQ","A2QTL039A5VV3I","3HUR21WDDUBEMSLDIXZW1FAIHWSYXN","","391.2999999523163","img/flower3.png","75","392","2","1","3","2","1,0,0,1,1,0,1,0,1","0,1,0,0,1,1,1,1,0","3",""
"","html-keyboard-response","188","1327938","0.0-188.0","3OLQQLKKNTBH7NXRSUD3SM6BW8WJEQ","A2QTL039A5VV3I","3HUR21WDDUBEMSLDIXZW1FAIHWSYXN","","null","<img src=""img/flower3.png"" style=""width:200px; border:14px solid green;"">","null","","","","","","","","",""
"","image-keyboard-response","189","1328302","0.0-189.0","3OLQQLKKNTBH7NXRSUD3SM6BW8WJEQ","A2QTL039A5VV3I","3HUR21WDDUBEMSLDIXZW1FAIHWSYXN","","363","img/flower3.png","75","363.6999999284744","2","1","3","2","1,0,0,1,1,0,1,0,1","0,1,0,0,1,1,1,1,0","3",""
"","html-keyboard-response","190","1328604","0.0-190.0","3OLQQLKKNTBH7NXRSUD3SM6BW8WJEQ","A2QTL039A5VV3I","3HUR21WDDUBEMSLDIXZW1FAIHWSYXN","","null","<img src=""img/flower3.png"" style=""width:200px; border:14px solid green;"">","null","","","","","","","","",""
"","image-keyboard-response","191","1329705","0.0-191.0","3OLQQLKKNTBH7NXRSUD3SM6BW8WJEQ","A2QTL039A5VV3I","3HUR21WDDUBEMSLDIXZW1FAIHWSYXN","","1100.3000000715256","img/flower1.png","76","1101","3","1","2","2","1,0,0,1,1,0,1,0,1","0,1,0,0,1,1,1,1,0","3",""
"","html-keyboard-response","192","1330007","0.0-192.0","3OLQQLKKNTBH7NXRSUD3SM6BW8WJEQ","A2QTL039A5VV3I","3HUR21WDDUBEMSLDIXZW1FAIHWSYXN","","null","<img src=""img/flower1.png"" style=""width:200px; border:14px solid green;"">","null","","","","","","","","",""
"","image-keyboard-response","193","1330543","0.0-193.0","3OLQQLKKNTBH7NXRSUD3SM6BW8WJEQ","A2QTL039A5VV3I","3HUR21WDDUBEMSLDIXZW1FAIHWSYXN","","534.9000000953674","img/flower3.png","75","535.6000000238419","2","1","3","2","1,0,0,1,1,0,1,0,1","0,1,0,0,1,1,1,1,0","3",""
"","html-keyboard-response","194","1330845","0.0-194.0","3OLQQLKKNTBH7NXRSUD3SM6BW8WJEQ","A2QTL039A5VV3I","3HUR21WDDUBEMSLDIXZW1FAIHWSYXN","","null","<img src=""img/flower3.png"" style=""width:200px; border:14px solid green;"">","null","","","","","","","","",""
"","image-keyboard-response","195","1331549","0.0-195.0","3OLQQLKKNTBH7NXRSUD3SM6BW8WJEQ","A2QTL039A5VV3I","3HUR21WDDUBEMSLDIXZW1FAIHWSYXN","","703.7999999523163","img/flower2.png","74","704.6000000238419","1","0","1","2","1,0,0,1,1,0,1,0,1","0,1,0,0,1,1,1,1,0","3",""
"","html-keyboard-response","196","1331851","0.0-196.0","3OLQQLKKNTBH7NXRSUD3SM6BW8WJEQ","A2QTL039A5VV3I","3HUR21WDDUBEMSLDIXZW1FAIHWSYXN","","null","<img src=""img/flower2.png"" style=""width:200px;border:14px solid red;"">","null","","","","","","","","",""
"","image-keyboard-response","197","1332464","0.0-197.0","3OLQQLKKNTBH7NXRSUD3SM6BW8WJEQ","A2QTL039A5VV3I","3HUR21WDDUBEMSLDIXZW1FAIHWSYXN","","612.6999999284744","img/flower3.png","75","613.5","2","1","3","2","1,0,0,1,1,0,1,0,1","0,1,0,0,1,1,1,1,0","3",""
"","html-keyboard-response","198","1332766","0.0-198.0","3OLQQLKKNTBH7NXRSUD3SM6BW8WJEQ","A2QTL039A5VV3I","3HUR21WDDUBEMSLDIXZW1FAIHWSYXN","","null","<img src=""img/flower3.png"" style=""width:200px; border:14px solid green;"">","null","","","","","","","","",""
"","image-keyboard-response","199","1333467","0.0-199.0","3OLQQLKKNTBH7NXRSUD3SM6BW8WJEQ","A2QTL039A5VV3I","3HUR21WDDUBEMSLDIXZW1FAIHWSYXN","","700.6000000238419","img/flower1.png","76","701.2000000476837","3","1","2","2","1,0,0,1,1,0,1,0,1","0,1,0,0,1,1,1,1,0","3",""
"","html-keyboard-response","200","1333768","0.0-200.0","3OLQQLKKNTBH7NXRSUD3SM6BW8WJEQ","A2QTL039A5VV3I","3HUR21WDDUBEMSLDIXZW1FAIHWSYXN","","null","<img src=""img/flower1.png"" style=""width:200px; border:14px solid green;"">","null","","","","","","","","",""
"","image-keyboard-response","201","1334435","0.0-201.0","3OLQQLKKNTBH7NXRSUD3SM6BW8WJEQ","A2QTL039A5VV3I","3HUR21WDDUBEMSLDIXZW1FAIHWSYXN","","666.3000000715256","img/flower2.png","76","667.2000000476837","3","0","1","2","1,0,0,1,1,0,1,0,1","0,1,0,0,1,1,1,1,0","3",""
"","html-keyboard-response","202","1334741","0.0-202.0","3OLQQLKKNTBH7NXRSUD3SM6BW8WJEQ","A2QTL039A5VV3I","3HUR21WDDUBEMSLDIXZW1FAIHWSYXN","","null","<img src=""img/flower2.png"" style=""width:200px;border:14px solid red;"">","null","","","","","","","","",""
"","image-keyboard-response","203","1335768","0.0-203.0","3OLQQLKKNTBH7NXRSUD3SM6BW8WJEQ","A2QTL039A5VV3I","3HUR21WDDUBEMSLDIXZW1FAIHWSYXN","","1025.9000000953674","img/flower3.png","75","1026.7999999523163","2","1","3","2","1,0,0,1,1,0,1,0,1","0,1,0,0,1,1,1,1,0","3",""
"","html-keyboard-response","204","1336070","0.0-204.0","3OLQQLKKNTBH7NXRSUD3SM6BW8WJEQ","A2QTL039A5VV3I","3HUR21WDDUBEMSLDIXZW1FAIHWSYXN","","null","<img src=""img/flower3.png"" style=""width:200px; border:14px solid green;"">","null","","","","","","","","",""
"","image-keyboard-response","205","1336591","0.0-205.0","3OLQQLKKNTBH7NXRSUD3SM6BW8WJEQ","A2QTL039A5VV3I","3HUR21WDDUBEMSLDIXZW1FAIHWSYXN","","519.2000000476837","img/flower2.png","75","520.0999999046326","2","1","1","2","1,0,0,1,1,0,1,0,1","0,1,0,0,1,1,1,1,0","3",""
"","html-keyboard-response","206","1336893","0.0-206.0","3OLQQLKKNTBH7NXRSUD3SM6BW8WJEQ","A2QTL039A5VV3I","3HUR21WDDUBEMSLDIXZW1FAIHWSYXN","","null","<img src=""img/flower2.png"" style=""width:200px; border:14px solid green;"">","null","","","","","","","","",""
"","image-keyboard-response","207","1337604","0.0-207.0","3OLQQLKKNTBH7NXRSUD3SM6BW8WJEQ","A2QTL039A5VV3I","3HUR21WDDUBEMSLDIXZW1FAIHWSYXN","","710.1999999284744","img/flower1.png","76","711.2000000476837","3","1","2","2","1,0,0,1,1,0,1,0,1","0,1,0,0,1,1,1,1,0","3",""
"","html-keyboard-response","208","1337906","0.0-208.0","3OLQQLKKNTBH7NXRSUD3SM6BW8WJEQ","A2QTL039A5VV3I","3HUR21WDDUBEMSLDIXZW1FAIHWSYXN","","null","<img src=""img/flower1.png"" style=""width:200px; border:14px solid green;"">","null","","","","","","","","",""
"","image-keyboard-response","209","1338416","0.0-209.0","3OLQQLKKNTBH7NXRSUD3SM6BW8WJEQ","A2QTL039A5VV3I","3HUR21WDDUBEMSLDIXZW1FAIHWSYXN","","508.60000002384186","img/flower2.png","75","511.1999999284744","2","1","1","2","1,0,0,1,1,0,1,0,1","0,1,0,0,1,1,1,1,0","3",""
"","html-keyboard-response","210","1338720","0.0-210.0","3OLQQLKKNTBH7NXRSUD3SM6BW8WJEQ","A2QTL039A5VV3I","3HUR21WDDUBEMSLDIXZW1FAIHWSYXN","","null","<img src=""img/flower2.png"" style=""width:200px; border:14px solid green;"">","null","","","","","","","","",""
"","image-keyboard-response","211","1339258","0.0-211.0","3OLQQLKKNTBH7NXRSUD3SM6BW8WJEQ","A2QTL039A5VV3I","3HUR21WDDUBEMSLDIXZW1FAIHWSYXN","","538.1999999284744","img/flower3.png","75","538.8000000715256","2","1","3","2","1,0,0,1,1,0,1,0,1","0,1,0,0,1,1,1,1,0","3",""
"","html-keyboard-response","212","1339560","0.0-212.0","3OLQQLKKNTBH7NXRSUD3SM6BW8WJEQ","A2QTL039A5VV3I","3HUR21WDDUBEMSLDIXZW1FAIHWSYXN","","null","<img src=""img/flower3.png"" style=""width:200px; border:14px solid green;"">","null","","","","","","","","",""
"","image-keyboard-response","213","1340159","0.0-213.0","3OLQQLKKNTBH7NXRSUD3SM6BW8WJEQ","A2QTL039A5VV3I","3HUR21WDDUBEMSLDIXZW1FAIHWSYXN","","598.7000000476837","img/flower1.png","76","599.2999999523163","3","1","2","2","1,0,0,1,1,0,1,0,1","0,1,0,0,1,1,1,1,0","3",""
"","html-keyboard-response","214","1340461","0.0-214.0","3OLQQLKKNTBH7NXRSUD3SM6BW8WJEQ","A2QTL039A5VV3I","3HUR21WDDUBEMSLDIXZW1FAIHWSYXN","","null","<img src=""img/flower1.png"" style=""width:200px; border:14px solid green;"">","null","","","","","","","","",""
"","image-keyboard-response","215","1340923","0.0-215.0","3OLQQLKKNTBH7NXRSUD3SM6BW8WJEQ","A2QTL039A5VV3I","3HUR21WDDUBEMSLDIXZW1FAIHWSYXN","","461.2000000476837","img/flower3.png","75","461.7999999523163","2","1","3","2","1,0,0,1,1,0,1,0,1","0,1,0,0,1,1,1,1,0","3",""
"","html-keyboard-response","216","1341225","0.0-216.0","3OLQQLKKNTBH7NXRSUD3SM6BW8WJEQ","A2QTL039A5VV3I","3HUR21WDDUBEMSLDIXZW1FAIHWSYXN","","null","<img src=""img/flower3.png"" style=""width:200px; border:14px solid green;"">","null","","","","","","","","",""
"","image-keyboard-response","217","1341953","0.0-217.0","3OLQQLKKNTBH7NXRSUD3SM6BW8WJEQ","A2QTL039A5VV3I","3HUR21WDDUBEMSLDIXZW1FAIHWSYXN","","726.1000000238419","img/flower2.png","75","727","2","1","1","2","1,0,0,1,1,0,1,0,1","0,1,0,0,1,1,1,1,0","3",""
"","html-keyboard-response","218","1342255","0.0-218.0","3OLQQLKKNTBH7NXRSUD3SM6BW8WJEQ","A2QTL039A5VV3I","3HUR21WDDUBEMSLDIXZW1FAIHWSYXN","","null","<img src=""img/flower2.png"" style=""width:200px; border:14px solid green;"">","null","","","","","","","","",""
"","image-keyboard-response","219","1342692","0.0-219.0","3OLQQLKKNTBH7NXRSUD3SM6BW8WJEQ","A2QTL039A5VV3I","3HUR21WDDUBEMSLDIXZW1FAIHWSYXN","","435.6999999284744","img/flower1.png","76","436.59999990463257","3","1","2","2","1,0,0,1,1,0,1,0,1","0,1,0,0,1,1,1,1,0","3",""
"","html-keyboard-response","220","1342993","0.0-220.0","3OLQQLKKNTBH7NXRSUD3SM6BW8WJEQ","A2QTL039A5VV3I","3HUR21WDDUBEMSLDIXZW1FAIHWSYXN","","null","<img src=""img/flower1.png"" style=""width:200px; border:14px solid green;"">","null","","","","","","","","",""
"","image-keyboard-response","221","1343410","0.0-221.0","3OLQQLKKNTBH7NXRSUD3SM6BW8WJEQ","A2QTL039A5VV3I","3HUR21WDDUBEMSLDIXZW1FAIHWSYXN","","415.89999997615814","img/flower2.png","75","417.2000000476837","2","1","1","2","1,0,0,1,1,0,1,0,1","0,1,0,0,1,1,1,1,0","3",""
"","html-keyboard-response","222","1343712","0.0-222.0","3OLQQLKKNTBH7NXRSUD3SM6BW8WJEQ","A2QTL039A5VV3I","3HUR21WDDUBEMSLDIXZW1FAIHWSYXN","","null","<img src=""img/flower2.png"" style=""width:200px; border:14px solid green;"">","null","","","","","","","","",""
"","image-keyboard-response","223","1344199","0.0-223.0","3OLQQLKKNTBH7NXRSUD3SM6BW8WJEQ","A2QTL039A5VV3I","3HUR21WDDUBEMSLDIXZW1FAIHWSYXN","","487","img/flower3.png","75","487.60000002384186","2","1","3","2","1,0,0,1,1,0,1,0,1","0,1,0,0,1,1,1,1,0","3",""
"","html-keyboard-response","224","1344512","0.0-224.0","3OLQQLKKNTBH7NXRSUD3SM6BW8WJEQ","A2QTL039A5VV3I","3HUR21WDDUBEMSLDIXZW1FAIHWSYXN","","null","<img src=""img/flower3.png"" style=""width:200px; border:14px solid green;"">","null","","","","","","","","",""
"","image-keyboard-response","225","1345241","0.0-225.0","3OLQQLKKNTBH7NXRSUD3SM6BW8WJEQ","A2QTL039A5VV3I","3HUR21WDDUBEMSLDIXZW1FAIHWSYXN","","728.2000000476837","img/flower2.png","75","729.3999999761581","2","1","1","2","1,0,0,1,1,0,1,0,1","0,1,0,0,1,1,1,1,0","3",""
"","html-keyboard-response","226","1345542","0.0-226.0","3OLQQLKKNTBH7NXRSUD3SM6BW8WJEQ","A2QTL039A5VV3I","3HUR21WDDUBEMSLDIXZW1FAIHWSYXN","","null","<img src=""img/flower2.png"" style=""width:200px; border:14px solid green;"">","null","","","","","","","","",""
"","image-keyboard-response","227","1345989","0.0-227.0","3OLQQLKKNTBH7NXRSUD3SM6BW8WJEQ","A2QTL039A5VV3I","3HUR21WDDUBEMSLDIXZW1FAIHWSYXN","","446.6999999284744","img/flower1.png","76","447.2000000476837","3","1","2","2","1,0,0,1,1,0,1,0,1","0,1,0,0,1,1,1,1,0","3",""
"","html-keyboard-response","228","1346291","0.0-228.0","3OLQQLKKNTBH7NXRSUD3SM6BW8WJEQ","A2QTL039A5VV3I","3HUR21WDDUBEMSLDIXZW1FAIHWSYXN","","null","<img src=""img/flower1.png"" style=""width:200px; border:14px solid green;"">","null","","","","","","","","",""
"","image-keyboard-response","229","1346786","0.0-229.0","3OLQQLKKNTBH7NXRSUD3SM6BW8WJEQ","A2QTL039A5VV3I","3HUR21WDDUBEMSLDIXZW1FAIHWSYXN","","494","img/flower2.png","75","495","2","1","1","2","1,0,0,1,1,0,1,0,1","0,1,0,0,1,1,1,1,0","3",""
"","html-keyboard-response","230","1347089","0.0-230.0","3OLQQLKKNTBH7NXRSUD3SM6BW8WJEQ","A2QTL039A5VV3I","3HUR21WDDUBEMSLDIXZW1FAIHWSYXN","","null","<img src=""img/flower2.png"" style=""width:200px; border:14px solid green;"">","null","","","","","","","","",""
"","image-keyboard-response","231","1347727","0.0-231.0","3OLQQLKKNTBH7NXRSUD3SM6BW8WJEQ","A2QTL039A5VV3I","3HUR21WDDUBEMSLDIXZW1FAIHWSYXN","","637.1000000238419","img/flower1.png","76","638.2999999523163","3","1","2","2","1,0,0,1,1,0,1,0,1","0,1,0,0,1,1,1,1,0","3",""
"","html-keyboard-response","232","1348030","0.0-232.0","3OLQQLKKNTBH7NXRSUD3SM6BW8WJEQ","A2QTL039A5VV3I","3HUR21WDDUBEMSLDIXZW1FAIHWSYXN","","null","<img src=""img/flower1.png"" style=""width:200px; border:14px solid green;"">","null","","","","","","","","",""
"","image-keyboard-response","233","1348582","0.0-233.0","3OLQQLKKNTBH7NXRSUD3SM6BW8WJEQ","A2QTL039A5VV3I","3HUR21WDDUBEMSLDIXZW1FAIHWSYXN","","551.2999999523163","img/flower1.png","76","552.3000000715256","3","1","2","2","1,0,0,1,1,0,1,0,1","0,1,0,0,1,1,1,1,0","3",""
"","html-keyboard-response","234","1348884","0.0-234.0","3OLQQLKKNTBH7NXRSUD3SM6BW8WJEQ","A2QTL039A5VV3I","3HUR21WDDUBEMSLDIXZW1FAIHWSYXN","","null","<img src=""img/flower1.png"" style=""width:200px; border:14px solid green;"">","null","","","","","","","","",""
"","image-keyboard-response","235","1349334","0.0-235.0","3OLQQLKKNTBH7NXRSUD3SM6BW8WJEQ","A2QTL039A5VV3I","3HUR21WDDUBEMSLDIXZW1FAIHWSYXN","","449.2999999523163","img/flower2.png","75","450.1999999284744","2","1","1","2","1,0,0,1,1,0,1,0,1","0,1,0,0,1,1,1,1,0","3",""
"","html-keyboard-response","236","1349636","0.0-236.0","3OLQQLKKNTBH7NXRSUD3SM6BW8WJEQ","A2QTL039A5VV3I","3HUR21WDDUBEMSLDIXZW1FAIHWSYXN","","null","<img src=""img/flower2.png"" style=""width:200px; border:14px solid green;"">","null","","","","","","","","",""
"","image-keyboard-response","237","1350554","0.0-237.0","3OLQQLKKNTBH7NXRSUD3SM6BW8WJEQ","A2QTL039A5VV3I","3HUR21WDDUBEMSLDIXZW1FAIHWSYXN","","916.7999999523163","img/flower3.png","75","917.3999999761581","2","1","3","2","1,0,0,1,1,0,1,0,1","0,1,0,0,1,1,1,1,0","3",""
"","html-keyboard-response","238","1350855","0.0-238.0","3OLQQLKKNTBH7NXRSUD3SM6BW8WJEQ","A2QTL039A5VV3I","3HUR21WDDUBEMSLDIXZW1FAIHWSYXN","","null","<img src=""img/flower3.png"" style=""width:200px; border:14px solid green;"">","null","","","","","","","","",""
"","image-keyboard-response","239","1351598","0.0-239.0","3OLQQLKKNTBH7NXRSUD3SM6BW8WJEQ","A2QTL039A5VV3I","3HUR21WDDUBEMSLDIXZW1FAIHWSYXN","","742.2999999523163","img/flower1.png","76","742.8999999761581","3","1","2","2","1,0,0,1,1,0,1,0,1","0,1,0,0,1,1,1,1,0","3",""
"","html-keyboard-response","240","1351900","0.0-240.0","3OLQQLKKNTBH7NXRSUD3SM6BW8WJEQ","A2QTL039A5VV3I","3HUR21WDDUBEMSLDIXZW1FAIHWSYXN","","null","<img src=""img/flower1.png"" style=""width:200px; border:14px solid green;"">","null","","","","","","","","",""
"","image-keyboard-response","241","1352790","0.0-241.0","3OLQQLKKNTBH7NXRSUD3SM6BW8WJEQ","A2QTL039A5VV3I","3HUR21WDDUBEMSLDIXZW1FAIHWSYXN","","889.0999999046326","img/flower1.png","76","889.7999999523163","3","1","2","2","1,0,0,1,1,0,1,0,1","0,1,0,0,1,1,1,1,0","3",""
"","html-keyboard-response","242","1353091","0.0-242.0","3OLQQLKKNTBH7NXRSUD3SM6BW8WJEQ","A2QTL039A5VV3I","3HUR21WDDUBEMSLDIXZW1FAIHWSYXN","","null","<img src=""img/flower1.png"" style=""width:200px; border:14px solid green;"">","null","","","","","","","","",""
"","image-keyboard-response","243","1353597","0.0-243.0","3OLQQLKKNTBH7NXRSUD3SM6BW8WJEQ","A2QTL039A5VV3I","3HUR21WDDUBEMSLDIXZW1FAIHWSYXN","","505","img/flower3.png","75","505.7000000476837","2","1","3","2","1,0,0,1,1,0,1,0,1","0,1,0,0,1,1,1,1,0","3",""
"","html-keyboard-response","244","1353899","0.0-244.0","3OLQQLKKNTBH7NXRSUD3SM6BW8WJEQ","A2QTL039A5VV3I","3HUR21WDDUBEMSLDIXZW1FAIHWSYXN","","null","<img src=""img/flower3.png"" style=""width:200px; border:14px solid green;"">","null","","","","","","","","",""
"","image-keyboard-response","245","1354384","0.0-245.0","3OLQQLKKNTBH7NXRSUD3SM6BW8WJEQ","A2QTL039A5VV3I","3HUR21WDDUBEMSLDIXZW1FAIHWSYXN","","483.89999997615814","img/flower2.png","75","484.60000002384186","2","1","1","2","1,0,0,1,1,0,1,0,1","0,1,0,0,1,1,1,1,0","3",""
"","html-keyboard-response","246","1354696","0.0-246.0","3OLQQLKKNTBH7NXRSUD3SM6BW8WJEQ","A2QTL039A5VV3I","3HUR21WDDUBEMSLDIXZW1FAIHWSYXN","","null","<img src=""img/flower2.png"" style=""width:200px; border:14px solid green;"">","null","","","","","","","","",""
"","image-keyboard-response","247","1355236","0.0-247.0","3OLQQLKKNTBH7NXRSUD3SM6BW8WJEQ","A2QTL039A5VV3I","3HUR21WDDUBEMSLDIXZW1FAIHWSYXN","","538.7000000476837","img/flower1.png","75","539.8999999761581","2","1","2","2","1,0,0,1,1,0,1,0,1","0,1,0,0,1,1,1,1,0","3",""
"","html-keyboard-response","248","1355539","0.0-248.0","3OLQQLKKNTBH7NXRSUD3SM6BW8WJEQ","A2QTL039A5VV3I","3HUR21WDDUBEMSLDIXZW1FAIHWSYXN","","null","<img src=""img/flower1.png"" style=""width:200px; border:14px solid green;"">","null","","","","","","","","",""
"","image-keyboard-response","249","1356169","0.0-249.0","3OLQQLKKNTBH7NXRSUD3SM6BW8WJEQ","A2QTL039A5VV3I","3HUR21WDDUBEMSLDIXZW1FAIHWSYXN","","629.6000000238419","img/flower2.png","75","630.5","2","1","1","2","1,0,0,1,1,0,1,0,1","0,1,0,0,1,1,1,1,0","3",""
"","html-keyboard-response","250","1356471","0.0-250.0","3OLQQLKKNTBH7NXRSUD3SM6BW8WJEQ","A2QTL039A5VV3I","3HUR21WDDUBEMSLDIXZW1FAIHWSYXN","","null","<img src=""img/flower2.png"" style=""width:200px; border:14px solid green;"">","null","","","","","","","","",""
"","image-keyboard-response","251","1357088","0.0-251.0","3OLQQLKKNTBH7NXRSUD3SM6BW8WJEQ","A2QTL039A5VV3I","3HUR21WDDUBEMSLDIXZW1FAIHWSYXN","","616.3999999761581","img/flower1.png","75","617.2000000476837","2","1","2","2","1,0,0,1,1,0,1,0,1","0,1,0,0,1,1,1,1,0","3",""
"","html-keyboard-response","252","1357390","0.0-252.0","3OLQQLKKNTBH7NXRSUD3SM6BW8WJEQ","A2QTL039A5VV3I","3HUR21WDDUBEMSLDIXZW1FAIHWSYXN","","null","<img src=""img/flower1.png"" style=""width:200px; border:14px solid green;"">","null","","","","","","","","",""
"","image-keyboard-response","253","1357928","0.0-253.0","3OLQQLKKNTBH7NXRSUD3SM6BW8WJEQ","A2QTL039A5VV3I","3HUR21WDDUBEMSLDIXZW1FAIHWSYXN","","536.6999999284744","img/flower3.png","75","537.5","2","1","3","2","1,0,0,1,1,0,1,0,1","0,1,0,0,1,1,1,1,0","3",""
"","html-keyboard-response","254","1358230","0.0-254.0","3OLQQLKKNTBH7NXRSUD3SM6BW8WJEQ","A2QTL039A5VV3I","3HUR21WDDUBEMSLDIXZW1FAIHWSYXN","","null","<img src=""img/flower3.png"" style=""width:200px; border:14px solid green;"">","null","","","","","","","","",""
"","image-keyboard-response","255","1358767","0.0-255.0","3OLQQLKKNTBH7NXRSUD3SM6BW8WJEQ","A2QTL039A5VV3I","3HUR21WDDUBEMSLDIXZW1FAIHWSYXN","","536.3999999761581","img/flower2.png","75","537","2","1","1","2","1,0,0,1,1,0,1,0,1","0,1,0,0,1,1,1,1,0","3",""
"","html-keyboard-response","256","1359068","0.0-256.0","3OLQQLKKNTBH7NXRSUD3SM6BW8WJEQ","A2QTL039A5VV3I","3HUR21WDDUBEMSLDIXZW1FAIHWSYXN","","null","<img src=""img/flower2.png"" style=""width:200px; border:14px solid green;"">","null","","","","","","","","",""
"","image-keyboard-response","257","1359584","0.0-257.0","3OLQQLKKNTBH7NXRSUD3SM6BW8WJEQ","A2QTL039A5VV3I","3HUR21WDDUBEMSLDIXZW1FAIHWSYXN","","515.6000000238419","img/flower2.png","75","516.2000000476837","2","1","1","2","1,0,0,1,1,0,1,0,1","0,1,0,0,1,1,1,1,0","3",""
"","html-keyboard-response","258","1359886","0.0-258.0","3OLQQLKKNTBH7NXRSUD3SM6BW8WJEQ","A2QTL039A5VV3I","3HUR21WDDUBEMSLDIXZW1FAIHWSYXN","","null","<img src=""img/flower2.png"" style=""width:200px; border:14px solid green;"">","null","","","","","","","","",""
"","image-keyboard-response","259","1360155","0.0-259.0","3OLQQLKKNTBH7NXRSUD3SM6BW8WJEQ","A2QTL039A5VV3I","3HUR21WDDUBEMSLDIXZW1FAIHWSYXN","","268.10000002384186","img/flower2.png","75","268.7999999523163","2","1","1","2","1,0,0,1,1,0,1,0,1","0,1,0,0,1,1,1,1,0","3",""
"","html-keyboard-response","260","1360456","0.0-260.0","3OLQQLKKNTBH7NXRSUD3SM6BW8WJEQ","A2QTL039A5VV3I","3HUR21WDDUBEMSLDIXZW1FAIHWSYXN","","null","<img src=""img/flower2.png"" style=""width:200px; border:14px solid green;"">","null","","","","","","","","",""
"","image-keyboard-response","261","1360690","0.0-261.0","3OLQQLKKNTBH7NXRSUD3SM6BW8WJEQ","A2QTL039A5VV3I","3HUR21WDDUBEMSLDIXZW1FAIHWSYXN","","232.39999997615814","img/flower3.png","75","233.89999997615814","2","1","3","2","1,0,0,1,1,0,1,0,1","0,1,0,0,1,1,1,1,0","3",""
"","html-keyboard-response","262","1360998","0.0-262.0","3OLQQLKKNTBH7NXRSUD3SM6BW8WJEQ","A2QTL039A5VV3I","3HUR21WDDUBEMSLDIXZW1FAIHWSYXN","","null","<img src=""img/flower3.png"" style=""width:200px; border:14px solid green;"">","null","","","","","","","","",""
"","image-keyboard-response","263","1361308","0.0-263.0","3OLQQLKKNTBH7NXRSUD3SM6BW8WJEQ","A2QTL039A5VV3I","3HUR21WDDUBEMSLDIXZW1FAIHWSYXN","","309.7999999523163","img/flower2.png","75","310.2999999523163","2","1","1","2","1,0,0,1,1,0,1,0,1","0,1,0,0,1,1,1,1,0","3",""
"","html-keyboard-response","264","1361610","0.0-264.0","3OLQQLKKNTBH7NXRSUD3SM6BW8WJEQ","A2QTL039A5VV3I","3HUR21WDDUBEMSLDIXZW1FAIHWSYXN","","null","<img src=""img/flower2.png"" style=""width:200px; border:14px solid green;"">","null","","","","","","","","",""
"","image-keyboard-response","265","1361901","0.0-265.0","3OLQQLKKNTBH7NXRSUD3SM6BW8WJEQ","A2QTL039A5VV3I","3HUR21WDDUBEMSLDIXZW1FAIHWSYXN","","289.39999997615814","img/flower2.png","75","290","2","1","1","2","1,0,0,1,1,0,1,0,1","0,1,0,0,1,1,1,1,0","3",""
"","html-keyboard-response","266","1362203","0.0-266.0","3OLQQLKKNTBH7NXRSUD3SM6BW8WJEQ","A2QTL039A5VV3I","3HUR21WDDUBEMSLDIXZW1FAIHWSYXN","","null","<img src=""img/flower2.png"" style=""width:200px; border:14px solid green;"">","null","","","","","","","","",""
"","image-keyboard-response","267","1362478","0.0-267.0","3OLQQLKKNTBH7NXRSUD3SM6BW8WJEQ","A2QTL039A5VV3I","3HUR21WDDUBEMSLDIXZW1FAIHWSYXN","","273.89999997615814","img/flower2.png","75","274.60000002384186","2","1","1","2","1,0,0,1,1,0,1,0,1","0,1,0,0,1,1,1,1,0","3",""
"","html-keyboard-response","268","1362779","0.0-268.0","3OLQQLKKNTBH7NXRSUD3SM6BW8WJEQ","A2QTL039A5VV3I","3HUR21WDDUBEMSLDIXZW1FAIHWSYXN","","null","<img src=""img/flower2.png"" style=""width:200px; border:14px solid green;"">","null","","","","","","","","",""
"","image-keyboard-response","269","1363314","0.0-269.0","3OLQQLKKNTBH7NXRSUD3SM6BW8WJEQ","A2QTL039A5VV3I","3HUR21WDDUBEMSLDIXZW1FAIHWSYXN","","534","img/flower1.png","76","534.7999999523163","3","1","2","2","1,0,0,1,1,0,1,0,1","0,1,0,0,1,1,1,1,0","3",""
"","html-keyboard-response","270","1363616","0.0-270.0","3OLQQLKKNTBH7NXRSUD3SM6BW8WJEQ","A2QTL039A5VV3I","3HUR21WDDUBEMSLDIXZW1FAIHWSYXN","","null","<img src=""img/flower1.png"" style=""width:200px; border:14px solid green;"">","null","","","","","","","","",""
"","image-keyboard-response","271","1364061","0.0-271.0","3OLQQLKKNTBH7NXRSUD3SM6BW8WJEQ","A2QTL039A5VV3I","3HUR21WDDUBEMSLDIXZW1FAIHWSYXN","","443.39999997615814","img/flower1.png","76","444.39999997615814","3","1","2","2","1,0,0,1,1,0,1,0,1","0,1,0,0,1,1,1,1,0","3",""
"","html-keyboard-response","272","1364363","0.0-272.0","3OLQQLKKNTBH7NXRSUD3SM6BW8WJEQ","A2QTL039A5VV3I","3HUR21WDDUBEMSLDIXZW1FAIHWSYXN","","null","<img src=""img/flower1.png"" style=""width:200px; border:14px solid green;"">","null","","","","","","","","",""
"","image-keyboard-response","273","1364866","0.0-273.0","3OLQQLKKNTBH7NXRSUD3SM6BW8WJEQ","A2QTL039A5VV3I","3HUR21WDDUBEMSLDIXZW1FAIHWSYXN","","502.5","img/flower2.png","75","503.10000002384186","2","1","1","2","1,0,0,1,1,0,1,0,1","0,1,0,0,1,1,1,1,0","3",""
"","html-keyboard-response","274","1365167","0.0-274.0","3OLQQLKKNTBH7NXRSUD3SM6BW8WJEQ","A2QTL039A5VV3I","3HUR21WDDUBEMSLDIXZW1FAIHWSYXN","","null","<img src=""img/flower2.png"" style=""width:200px; border:14px solid green;"">","null","","","","","","","","",""
"","image-keyboard-response","275","1365523","0.0-275.0","3OLQQLKKNTBH7NXRSUD3SM6BW8WJEQ","A2QTL039A5VV3I","3HUR21WDDUBEMSLDIXZW1FAIHWSYXN","","355.1999999284744","img/flower2.png","75","355.89999997615814","2","1","1","2","1,0,0,1,1,0,1,0,1","0,1,0,0,1,1,1,1,0","3",""
"","html-keyboard-response","276","1365824","0.0-276.0","3OLQQLKKNTBH7NXRSUD3SM6BW8WJEQ","A2QTL039A5VV3I","3HUR21WDDUBEMSLDIXZW1FAIHWSYXN","","null","<img src=""img/flower2.png"" style=""width:200px; border:14px solid green;"">","null","","","","","","","","",""
"","image-keyboard-response","277","1366583","0.0-277.0","3OLQQLKKNTBH7NXRSUD3SM6BW8WJEQ","A2QTL039A5VV3I","3HUR21WDDUBEMSLDIXZW1FAIHWSYXN","","758.2000000476837","img/flower1.png","76","759.1000000238419","3","1","2","2","1,0,0,1,1,0,1,0,1","0,1,0,0,1,1,1,1,0","3",""
"","html-keyboard-response","278","1366885","0.0-278.0","3OLQQLKKNTBH7NXRSUD3SM6BW8WJEQ","A2QTL039A5VV3I","3HUR21WDDUBEMSLDIXZW1FAIHWSYXN","","null","<img src=""img/flower1.png"" style=""width:200px; border:14px solid green;"">","null","","","","","","","","",""
"","image-keyboard-response","279","1367356","0.0-279.0","3OLQQLKKNTBH7NXRSUD3SM6BW8WJEQ","A2QTL039A5VV3I","3HUR21WDDUBEMSLDIXZW1FAIHWSYXN","","469.90000009536743","img/flower1.png","76","470.39999997615814","3","1","2","2","1,0,0,1,1,0,1,0,1","0,1,0,0,1,1,1,1,0","3",""
"","html-keyboard-response","280","1367658","0.0-280.0","3OLQQLKKNTBH7NXRSUD3SM6BW8WJEQ","A2QTL039A5VV3I","3HUR21WDDUBEMSLDIXZW1FAIHWSYXN","","null","<img src=""img/flower1.png"" style=""width:200px; border:14px solid green;"">","null","","","","","","","","",""
"","image-keyboard-response","281","1368116","0.0-281.0","3OLQQLKKNTBH7NXRSUD3SM6BW8WJEQ","A2QTL039A5VV3I","3HUR21WDDUBEMSLDIXZW1FAIHWSYXN","","456.89999997615814","img/flower1.png","76","457.89999997615814","3","1","2","2","1,0,0,1,1,0,1,0,1","0,1,0,0,1,1,1,1,0","3",""
"","html-keyboard-response","282","1368417","0.0-282.0","3OLQQLKKNTBH7NXRSUD3SM6BW8WJEQ","A2QTL039A5VV3I","3HUR21WDDUBEMSLDIXZW1FAIHWSYXN","","null","<img src=""img/flower1.png"" style=""width:200px; border:14px solid green;"">","null","","","","","","","","",""
"","image-keyboard-response","283","1369280","0.0-283.0","3OLQQLKKNTBH7NXRSUD3SM6BW8WJEQ","A2QTL039A5VV3I","3HUR21WDDUBEMSLDIXZW1FAIHWSYXN","","861.8999999761581","img/flower2.png","75","862.6000000238419","2","1","1","2","1,0,0,1,1,0,1,0,1","0,1,0,0,1,1,1,1,0","3",""
"","html-keyboard-response","284","1369582","0.0-284.0","3OLQQLKKNTBH7NXRSUD3SM6BW8WJEQ","A2QTL039A5VV3I","3HUR21WDDUBEMSLDIXZW1FAIHWSYXN","","null","<img src=""img/flower2.png"" style=""width:200px; border:14px solid green;"">","null","","","","","","","","",""
"","image-keyboard-response","285","1369870","0.0-285.0","3OLQQLKKNTBH7NXRSUD3SM6BW8WJEQ","A2QTL039A5VV3I","3HUR21WDDUBEMSLDIXZW1FAIHWSYXN","","287.5","img/flower2.png","75","288.39999997615814","2","1","1","2","1,0,0,1,1,0,1,0,1","0,1,0,0,1,1,1,1,0","3",""
"","html-keyboard-response","286","1370172","0.0-286.0","3OLQQLKKNTBH7NXRSUD3SM6BW8WJEQ","A2QTL039A5VV3I","3HUR21WDDUBEMSLDIXZW1FAIHWSYXN","","null","<img src=""img/flower2.png"" style=""width:200px; border:14px solid green;"">","null","","","","","","","","",""
"","image-keyboard-response","287","1370698","0.0-287.0","3OLQQLKKNTBH7NXRSUD3SM6BW8WJEQ","A2QTL039A5VV3I","3HUR21WDDUBEMSLDIXZW1FAIHWSYXN","","524.3000000715256","img/flower3.png","76","525.3999999761581","3","0","3","2","1,0,0,1,1,0,1,0,1","0,1,0,0,1,1,1,1,0","3",""
"","html-keyboard-response","288","1370999","0.0-288.0","3OLQQLKKNTBH7NXRSUD3SM6BW8WJEQ","A2QTL039A5VV3I","3HUR21WDDUBEMSLDIXZW1FAIHWSYXN","","null","<img src=""img/flower3.png"" style=""width:200px;border:14px solid red;"">","null","","","","","","","","",""
"","image-keyboard-response","289","1371561","0.0-289.0","3OLQQLKKNTBH7NXRSUD3SM6BW8WJEQ","A2QTL039A5VV3I","3HUR21WDDUBEMSLDIXZW1FAIHWSYXN","","561.1000000238419","img/flower1.png","75","561.8000000715256","2","1","2","2","1,0,0,1,1,0,1,0,1","0,1,0,0,1,1,1,1,0","3",""
"","html-keyboard-response","290","1371863","0.0-290.0","3OLQQLKKNTBH7NXRSUD3SM6BW8WJEQ","A2QTL039A5VV3I","3HUR21WDDUBEMSLDIXZW1FAIHWSYXN","","null","<img src=""img/flower1.png"" style=""width:200px; border:14px solid green;"">","null","","","","","","","","",""
"","image-keyboard-response","291","1372259","0.0-291.0","3OLQQLKKNTBH7NXRSUD3SM6BW8WJEQ","A2QTL039A5VV3I","3HUR21WDDUBEMSLDIXZW1FAIHWSYXN","","395","img/flower1.png","75","395.90000009536743","2","1","2","2","1,0,0,1,1,0,1,0,1","0,1,0,0,1,1,1,1,0","3",""
"","html-keyboard-response","292","1372561","0.0-292.0","3OLQQLKKNTBH7NXRSUD3SM6BW8WJEQ","A2QTL039A5VV3I","3HUR21WDDUBEMSLDIXZW1FAIHWSYXN","","null","<img src=""img/flower1.png"" style=""width:200px; border:14px solid green;"">","null","","","","","","","","",""
"","image-keyboard-response","293","1372999","0.0-293.0","3OLQQLKKNTBH7NXRSUD3SM6BW8WJEQ","A2QTL039A5VV3I","3HUR21WDDUBEMSLDIXZW1FAIHWSYXN","","437.5","img/flower2.png","75","438","2","1","1","2","1,0,0,1,1,0,1,0,1","0,1,0,0,1,1,1,1,0","3",""
"","html-keyboard-response","294","1373304","0.0-294.0","3OLQQLKKNTBH7NXRSUD3SM6BW8WJEQ","A2QTL039A5VV3I","3HUR21WDDUBEMSLDIXZW1FAIHWSYXN","","null","<img src=""img/flower2.png"" style=""width:200px; border:14px solid green;"">","null","","","","","","","","",""
"","image-keyboard-response","295","1374236","0.0-295.0","3OLQQLKKNTBH7NXRSUD3SM6BW8WJEQ","A2QTL039A5VV3I","3HUR21WDDUBEMSLDIXZW1FAIHWSYXN","","931.2000000476837","img/flower3.png","76","932.1000000238419","3","0","3","2","1,0,0,1,1,0,1,0,1","0,1,0,0,1,1,1,1,0","3",""
"","html-keyboard-response","296","1374537","0.0-296.0","3OLQQLKKNTBH7NXRSUD3SM6BW8WJEQ","A2QTL039A5VV3I","3HUR21WDDUBEMSLDIXZW1FAIHWSYXN","","null","<img src=""img/flower3.png"" style=""width:200px;border:14px solid red;"">","null","","","","","","","","",""
"","image-keyboard-response","297","1374594","0.0-297.0","3OLQQLKKNTBH7NXRSUD3SM6BW8WJEQ","A2QTL039A5VV3I","3HUR21WDDUBEMSLDIXZW1FAIHWSYXN","","56.299999952316284","img/flower3.png","75","56.799999952316284","2","1","3","2","1,0,0,1,1,0,1,0,1","0,1,0,0,1,1,1,1,0","3",""
"","html-keyboard-response","298","1374896","0.0-298.0","3OLQQLKKNTBH7NXRSUD3SM6BW8WJEQ","A2QTL039A5VV3I","3HUR21WDDUBEMSLDIXZW1FAIHWSYXN","","null","<img src=""img/flower3.png"" style=""width:200px; border:14px solid green;"">","null","","","","","","","","",""
"","image-keyboard-response","299","1375157","0.0-299.0","3OLQQLKKNTBH7NXRSUD3SM6BW8WJEQ","A2QTL039A5VV3I","3HUR21WDDUBEMSLDIXZW1FAIHWSYXN","","261","img/flower2.png","75","261.5","2","1","1","2","1,0,0,1,1,0,1,0,1","0,1,0,0,1,1,1,1,0","3",""
"","html-keyboard-response","300","1375459","0.0-300.0","3OLQQLKKNTBH7NXRSUD3SM6BW8WJEQ","A2QTL039A5VV3I","3HUR21WDDUBEMSLDIXZW1FAIHWSYXN","","null","<img src=""img/flower2.png"" style=""width:200px; border:14px solid green;"">","null","","","","","","","","",""
"","image-keyboard-response","301","1375717","0.0-301.0","3OLQQLKKNTBH7NXRSUD3SM6BW8WJEQ","A2QTL039A5VV3I","3HUR21WDDUBEMSLDIXZW1FAIHWSYXN","","257.10000002384186","img/flower2.png","75","257.7000000476837","2","1","1","2","1,0,0,1,1,0,1,0,1","0,1,0,0,1,1,1,1,0","3",""
"","html-keyboard-response","302","1376018","0.0-302.0","3OLQQLKKNTBH7NXRSUD3SM6BW8WJEQ","A2QTL039A5VV3I","3HUR21WDDUBEMSLDIXZW1FAIHWSYXN","","null","<img src=""img/flower2.png"" style=""width:200px; border:14px solid green;"">","null","","","","","","","","",""
"","image-keyboard-response","303","1376550","0.0-303.0","3OLQQLKKNTBH7NXRSUD3SM6BW8WJEQ","A2QTL039A5VV3I","3HUR21WDDUBEMSLDIXZW1FAIHWSYXN","","530.8000000715256","img/flower1.png","75","531.6000000238419","2","1","2","2","1,0,0,1,1,0,1,0,1","0,1,0,0,1,1,1,1,0","3",""
"","html-keyboard-response","304","1376851","0.0-304.0","3OLQQLKKNTBH7NXRSUD3SM6BW8WJEQ","A2QTL039A5VV3I","3HUR21WDDUBEMSLDIXZW1FAIHWSYXN","","null","<img src=""img/flower1.png"" style=""width:200px; border:14px solid green;"">","null","","","","","","","","",""
"","image-keyboard-response","305","1377227","0.0-305.0","3OLQQLKKNTBH7NXRSUD3SM6BW8WJEQ","A2QTL039A5VV3I","3HUR21WDDUBEMSLDIXZW1FAIHWSYXN","","374.89999997615814","img/flower3.png","75","375.5","2","1","3","2","1,0,0,1,1,0,1,0,1","0,1,0,0,1,1,1,1,0","3",""
"","html-keyboard-response","306","1377529","0.0-306.0","3OLQQLKKNTBH7NXRSUD3SM6BW8WJEQ","A2QTL039A5VV3I","3HUR21WDDUBEMSLDIXZW1FAIHWSYXN","","null","<img src=""img/flower3.png"" style=""width:200px; border:14px solid green;"">","null","","","","","","","","",""
"","image-keyboard-response","307","1377801","0.0-307.0","3OLQQLKKNTBH7NXRSUD3SM6BW8WJEQ","A2QTL039A5VV3I","3HUR21WDDUBEMSLDIXZW1FAIHWSYXN","","270.89999997615814","img/flower3.png","75","271.7000000476837","2","1","3","2","1,0,0,1,1,0,1,0,1","0,1,0,0,1,1,1,1,0","3",""
"","html-keyboard-response","308","1378103","0.0-308.0","3OLQQLKKNTBH7NXRSUD3SM6BW8WJEQ","A2QTL039A5VV3I","3HUR21WDDUBEMSLDIXZW1FAIHWSYXN","","null","<img src=""img/flower3.png"" style=""width:200px; border:14px solid green;"">","null","","","","","","","","",""
"","image-keyboard-response","309","1378539","0.0-309.0","3OLQQLKKNTBH7NXRSUD3SM6BW8WJEQ","A2QTL039A5VV3I","3HUR21WDDUBEMSLDIXZW1FAIHWSYXN","","435.2999999523163","img/flower1.png","75","435.90000009536743","2","1","2","2","1,0,0,1,1,0,1,0,1","0,1,0,0,1,1,1,1,0","3",""
"","html-keyboard-response","310","1378840","0.0-310.0","3OLQQLKKNTBH7NXRSUD3SM6BW8WJEQ","A2QTL039A5VV3I","3HUR21WDDUBEMSLDIXZW1FAIHWSYXN","","null","<img src=""img/flower1.png"" style=""width:200px; border:14px solid green;"">","null","","","","","","","","",""
"","image-keyboard-response","311","1379186","0.0-311.0","3OLQQLKKNTBH7NXRSUD3SM6BW8WJEQ","A2QTL039A5VV3I","3HUR21WDDUBEMSLDIXZW1FAIHWSYXN","","344.89999997615814","img/flower1.png","75","345.89999997615814","2","1","2","2","1,0,0,1,1,0,1,0,1","0,1,0,0,1,1,1,1,0","3",""
"","html-keyboard-response","312","1379488","0.0-312.0","3OLQQLKKNTBH7NXRSUD3SM6BW8WJEQ","A2QTL039A5VV3I","3HUR21WDDUBEMSLDIXZW1FAIHWSYXN","","null","<img src=""img/flower1.png"" style=""width:200px; border:14px solid green;"">","null","","","","","","","","",""
"","image-keyboard-response","313","1379774","0.0-313.0","3OLQQLKKNTBH7NXRSUD3SM6BW8WJEQ","A2QTL039A5VV3I","3HUR21WDDUBEMSLDIXZW1FAIHWSYXN","","285","img/flower2.png","75","285.7999999523163","2","1","1","2","1,0,0,1,1,0,1,0,1","0,1,0,0,1,1,1,1,0","3",""
"","html-keyboard-response","314","1380076","0.0-314.0","3OLQQLKKNTBH7NXRSUD3SM6BW8WJEQ","A2QTL039A5VV3I","3HUR21WDDUBEMSLDIXZW1FAIHWSYXN","","null","<img src=""img/flower2.png"" style=""width:200px; border:14px solid green;"">","null","","","","","","","","",""
"","image-keyboard-response","315","1380394","0.0-315.0","3OLQQLKKNTBH7NXRSUD3SM6BW8WJEQ","A2QTL039A5VV3I","3HUR21WDDUBEMSLDIXZW1FAIHWSYXN","","317.39999997615814","img/flower1.png","75","318.1999999284744","2","1","2","2","1,0,0,1,1,0,1,0,1","0,1,0,0,1,1,1,1,0","3",""
"","html-keyboard-response","316","1380696","0.0-316.0","3OLQQLKKNTBH7NXRSUD3SM6BW8WJEQ","A2QTL039A5VV3I","3HUR21WDDUBEMSLDIXZW1FAIHWSYXN","","null","<img src=""img/flower1.png"" style=""width:200px; border:14px solid green;"">","null","","","","","","","","",""
"","image-keyboard-response","317","1381323","0.0-317.0","3OLQQLKKNTBH7NXRSUD3SM6BW8WJEQ","A2QTL039A5VV3I","3HUR21WDDUBEMSLDIXZW1FAIHWSYXN","","626.0999999046326","img/flower2.png","75","627.2000000476837","2","1","1","2","1,0,0,1,1,0,1,0,1","0,1,0,0,1,1,1,1,0","3",""
"","html-keyboard-response","318","1381626","0.0-318.0","3OLQQLKKNTBH7NXRSUD3SM6BW8WJEQ","A2QTL039A5VV3I","3HUR21WDDUBEMSLDIXZW1FAIHWSYXN","","null","<img src=""img/flower2.png"" style=""width:200px; border:14px solid green;"">","null","","","","","","","","",""
"","image-keyboard-response","319","1381893","0.0-319.0","3OLQQLKKNTBH7NXRSUD3SM6BW8WJEQ","A2QTL039A5VV3I","3HUR21WDDUBEMSLDIXZW1FAIHWSYXN","","265.7999999523163","img/flower1.png","75","266.5","2","1","2","2","1,0,0,1,1,0,1,0,1","0,1,0,0,1,1,1,1,0","3",""
"","html-keyboard-response","320","1382194","0.0-320.0","3OLQQLKKNTBH7NXRSUD3SM6BW8WJEQ","A2QTL039A5VV3I","3HUR21WDDUBEMSLDIXZW1FAIHWSYXN","","null","<img src=""img/flower1.png"" style=""width:200px; border:14px solid green;"">","null","","","","","","","","",""
"","image-keyboard-response","321","1382519","0.0-321.0","3OLQQLKKNTBH7NXRSUD3SM6BW8WJEQ","A2QTL039A5VV3I","3HUR21WDDUBEMSLDIXZW1FAIHWSYXN","","324.1999999284744","img/flower3.png","75","324.90000009536743","2","1","3","2","1,0,0,1,1,0,1,0,1","0,1,0,0,1,1,1,1,0","3",""
"","html-keyboard-response","322","1382820","0.0-322.0","3OLQQLKKNTBH7NXRSUD3SM6BW8WJEQ","A2QTL039A5VV3I","3HUR21WDDUBEMSLDIXZW1FAIHWSYXN","","null","<img src=""img/flower3.png"" style=""width:200px; border:14px solid green;"">","null","","","","","","","","",""
"","image-keyboard-response","323","1383160","0.0-323.0","3OLQQLKKNTBH7NXRSUD3SM6BW8WJEQ","A2QTL039A5VV3I","3HUR21WDDUBEMSLDIXZW1FAIHWSYXN","","339.8000000715256","img/flower1.png","75","340.5","2","1","2","2","1,0,0,1,1,0,1,0,1","0,1,0,0,1,1,1,1,0","3",""
"","html-keyboard-response","324","1383463","0.0-324.0","3OLQQLKKNTBH7NXRSUD3SM6BW8WJEQ","A2QTL039A5VV3I","3HUR21WDDUBEMSLDIXZW1FAIHWSYXN","","null","<img src=""img/flower1.png"" style=""width:200px; border:14px solid green;"">","null","","","","","","","","",""
"","image-keyboard-response","325","1383792","0.0-325.0","3OLQQLKKNTBH7NXRSUD3SM6BW8WJEQ","A2QTL039A5VV3I","3HUR21WDDUBEMSLDIXZW1FAIHWSYXN","","328.10000002384186","img/flower3.png","75","328.7000000476837","2","1","3","2","1,0,0,1,1,0,1,0,1","0,1,0,0,1,1,1,1,0","3",""
"","html-keyboard-response","326","1384093","0.0-326.0","3OLQQLKKNTBH7NXRSUD3SM6BW8WJEQ","A2QTL039A5VV3I","3HUR21WDDUBEMSLDIXZW1FAIHWSYXN","","null","<img src=""img/flower3.png"" style=""width:200px; border:14px solid green;"">","null","","","","","","","","",""
"","image-keyboard-response","327","1384465","0.0-327.0","3OLQQLKKNTBH7NXRSUD3SM6BW8WJEQ","A2QTL039A5VV3I","3HUR21WDDUBEMSLDIXZW1FAIHWSYXN","","371","img/flower3.png","75","371.60000002384186","2","1","3","2","1,0,0,1,1,0,1,0,1","0,1,0,0,1,1,1,1,0","3",""
"","html-keyboard-response","328","1384766","0.0-328.0","3OLQQLKKNTBH7NXRSUD3SM6BW8WJEQ","A2QTL039A5VV3I","3HUR21WDDUBEMSLDIXZW1FAIHWSYXN","","null","<img src=""img/flower3.png"" style=""width:200px; border:14px solid green;"">","null","","","","","","","","",""
"","image-keyboard-response","329","1385093","0.0-329.0","3OLQQLKKNTBH7NXRSUD3SM6BW8WJEQ","A2QTL039A5VV3I","3HUR21WDDUBEMSLDIXZW1FAIHWSYXN","","325.7000000476837","img/flower3.png","75","326.5","2","1","3","2","1,0,0,1,1,0,1,0,1","0,1,0,0,1,1,1,1,0","3",""
"","html-keyboard-response","330","1385395","0.0-330.0","3OLQQLKKNTBH7NXRSUD3SM6BW8WJEQ","A2QTL039A5VV3I","3HUR21WDDUBEMSLDIXZW1FAIHWSYXN","","null","<img src=""img/flower3.png"" style=""width:200px; border:14px solid green;"">","null","","","","","","","","",""
"","image-keyboard-response","331","1386124","0.0-331.0","3OLQQLKKNTBH7NXRSUD3SM6BW8WJEQ","A2QTL039A5VV3I","3HUR21WDDUBEMSLDIXZW1FAIHWSYXN","","728.7999999523163","img/flower1.png","75","729.5","2","1","2","2","1,0,0,1,1,0,1,0,1","0,1,0,0,1,1,1,1,0","3",""
"","html-keyboard-response","332","1386426","0.0-332.0","3OLQQLKKNTBH7NXRSUD3SM6BW8WJEQ","A2QTL039A5VV3I","3HUR21WDDUBEMSLDIXZW1FAIHWSYXN","","null","<img src=""img/flower1.png"" style=""width:200px; border:14px solid green;"">","null","","","","","","","","",""
"","image-keyboard-response","333","1386882","0.0-333.0","3OLQQLKKNTBH7NXRSUD3SM6BW8WJEQ","A2QTL039A5VV3I","3HUR21WDDUBEMSLDIXZW1FAIHWSYXN","","454.60000002384186","img/flower1.png","75","455.2000000476837","2","1","2","2","1,0,0,1,1,0,1,0,1","0,1,0,0,1,1,1,1,0","3",""
"","html-keyboard-response","334","1387183","0.0-334.0","3OLQQLKKNTBH7NXRSUD3SM6BW8WJEQ","A2QTL039A5VV3I","3HUR21WDDUBEMSLDIXZW1FAIHWSYXN","","null","<img src=""img/flower1.png"" style=""width:200px; border:14px solid green;"">","null","","","","","","","","",""
"","image-keyboard-response","335","1387664","0.0-335.0","3OLQQLKKNTBH7NXRSUD3SM6BW8WJEQ","A2QTL039A5VV3I","3HUR21WDDUBEMSLDIXZW1FAIHWSYXN","","480.1999999284744","img/flower3.png","75","480.89999997615814","2","1","3","2","1,0,0,1,1,0,1,0,1","0,1,0,0,1,1,1,1,0","3",""
"","html-keyboard-response","336","1387965","0.0-336.0","3OLQQLKKNTBH7NXRSUD3SM6BW8WJEQ","A2QTL039A5VV3I","3HUR21WDDUBEMSLDIXZW1FAIHWSYXN","","null","<img src=""img/flower3.png"" style=""width:200px; border:14px solid green;"">","null","","","","","","","","",""
"","image-keyboard-response","337","1388365","0.0-337.0","3OLQQLKKNTBH7NXRSUD3SM6BW8WJEQ","A2QTL039A5VV3I","3HUR21WDDUBEMSLDIXZW1FAIHWSYXN","","399.60000002384186","img/flower1.png","75","400","2","1","2","2","1,0,0,1,1,0,1,0,1","0,1,0,0,1,1,1,1,0","3",""
"","html-keyboard-response","338","1388666","0.0-338.0","3OLQQLKKNTBH7NXRSUD3SM6BW8WJEQ","A2QTL039A5VV3I","3HUR21WDDUBEMSLDIXZW1FAIHWSYXN","","null","<img src=""img/flower1.png"" style=""width:200px; border:14px solid green;"">","null","","","","","","","","",""
"","image-keyboard-response","339","1390668","0.0-339.0","3OLQQLKKNTBH7NXRSUD3SM6BW8WJEQ","A2QTL039A5VV3I","3HUR21WDDUBEMSLDIXZW1FAIHWSYXN","","","img/flower1.png","","2001.7000000476837","-1","0","2","2","1,0,0,1,1,0,1,0,1","0,1,0,0,1,1,1,1,0","3",""
"","html-keyboard-response","340","1390970","0.0-340.0","3OLQQLKKNTBH7NXRSUD3SM6BW8WJEQ","A2QTL039A5VV3I","3HUR21WDDUBEMSLDIXZW1FAIHWSYXN","","null","<img src=""img/flower1.png"" style=""width:200px;border:14px solid red;"">","null","","","","","","","","",""
"","image-keyboard-response","341","1391135","0.0-341.0","3OLQQLKKNTBH7NXRSUD3SM6BW8WJEQ","A2QTL039A5VV3I","3HUR21WDDUBEMSLDIXZW1FAIHWSYXN","","164.39999997615814","img/flower3.png","75","165.19999992847443","2","1","3","2","1,0,0,1,1,0,1,0,1","0,1,0,0,1,1,1,1,0","3",""
"","html-keyboard-response","342","1391438","0.0-342.0","3OLQQLKKNTBH7NXRSUD3SM6BW8WJEQ","A2QTL039A5VV3I","3HUR21WDDUBEMSLDIXZW1FAIHWSYXN","","null","<img src=""img/flower3.png"" style=""width:200px; border:14px solid green;"">","null","","","","","","","","",""
"","image-keyboard-response","343","1391722","0.0-343.0","3OLQQLKKNTBH7NXRSUD3SM6BW8WJEQ","A2QTL039A5VV3I","3HUR21WDDUBEMSLDIXZW1FAIHWSYXN","","283.2999999523163","img/flower2.png","75","284.39999997615814","2","1","1","2","1,0,0,1,1,0,1,0,1","0,1,0,0,1,1,1,1,0","3",""
"","html-keyboard-response","344","1392024","0.0-344.0","3OLQQLKKNTBH7NXRSUD3SM6BW8WJEQ","A2QTL039A5VV3I","3HUR21WDDUBEMSLDIXZW1FAIHWSYXN","","null","<img src=""img/flower2.png"" style=""width:200px; border:14px solid green;"">","null","","","","","","","","",""
"","image-keyboard-response","345","1392386","0.0-345.0","3OLQQLKKNTBH7NXRSUD3SM6BW8WJEQ","A2QTL039A5VV3I","3HUR21WDDUBEMSLDIXZW1FAIHWSYXN","","360.5","img/flower3.png","75","361.1999999284744","2","1","3","2","1,0,0,1,1,0,1,0,1","0,1,0,0,1,1,1,1,0","3",""
"","html-keyboard-response","346","1392688","0.0-346.0","3OLQQLKKNTBH7NXRSUD3SM6BW8WJEQ","A2QTL039A5VV3I","3HUR21WDDUBEMSLDIXZW1FAIHWSYXN","","null","<img src=""img/flower3.png"" style=""width:200px; border:14px solid green;"">","null","","","","","","","","",""
"","image-keyboard-response","347","1393154","0.0-347.0","3OLQQLKKNTBH7NXRSUD3SM6BW8WJEQ","A2QTL039A5VV3I","3HUR21WDDUBEMSLDIXZW1FAIHWSYXN","","464.60000002384186","img/flower3.png","75","465.39999997615814","2","1","3","2","1,0,0,1,1,0,1,0,1","0,1,0,0,1,1,1,1,0","3",""
"","html-keyboard-response","348","1393455","0.0-348.0","3OLQQLKKNTBH7NXRSUD3SM6BW8WJEQ","A2QTL039A5VV3I","3HUR21WDDUBEMSLDIXZW1FAIHWSYXN","","null","<img src=""img/flower3.png"" style=""width:200px; border:14px solid green;"">","null","","","","","","","","",""
"","image-keyboard-response","349","1393788","0.0-349.0","3OLQQLKKNTBH7NXRSUD3SM6BW8WJEQ","A2QTL039A5VV3I","3HUR21WDDUBEMSLDIXZW1FAIHWSYXN","","331.90000009536743","img/flower2.png","75","332.89999997615814","2","1","1","2","1,0,0,1,1,0,1,0,1","0,1,0,0,1,1,1,1,0","3",""
"","html-keyboard-response","350","1394090","0.0-350.0","3OLQQLKKNTBH7NXRSUD3SM6BW8WJEQ","A2QTL039A5VV3I","3HUR21WDDUBEMSLDIXZW1FAIHWSYXN","","null","<img src=""img/flower2.png"" style=""width:200px; border:14px solid green;"">","null","","","","","","","","",""
"","image-keyboard-response","351","1394364","0.0-351.0","3OLQQLKKNTBH7NXRSUD3SM6BW8WJEQ","A2QTL039A5VV3I","3HUR21WDDUBEMSLDIXZW1FAIHWSYXN","","273","img/flower1.png","75","273.5","2","1","2","2","1,0,0,1,1,0,1,0,1","0,1,0,0,1,1,1,1,0","3",""
"","html-keyboard-response","352","1394665","0.0-352.0","3OLQQLKKNTBH7NXRSUD3SM6BW8WJEQ","A2QTL039A5VV3I","3HUR21WDDUBEMSLDIXZW1FAIHWSYXN","","null","<img src=""img/flower1.png"" style=""width:200px; border:14px solid green;"">","null","","","","","","","","",""
"","image-keyboard-response","353","1394990","0.0-353.0","3OLQQLKKNTBH7NXRSUD3SM6BW8WJEQ","A2QTL039A5VV3I","3HUR21WDDUBEMSLDIXZW1FAIHWSYXN","","324.39999997615814","img/flower3.png","75","325.1999999284744","2","1","3","2","1,0,0,1,1,0,1,0,1","0,1,0,0,1,1,1,1,0","3",""
"","html-keyboard-response","354","1395292","0.0-354.0","3OLQQLKKNTBH7NXRSUD3SM6BW8WJEQ","A2QTL039A5VV3I","3HUR21WDDUBEMSLDIXZW1FAIHWSYXN","","null","<img src=""img/flower3.png"" style=""width:200px; border:14px solid green;"">","null","","","","","","","","",""
"","image-keyboard-response","355","1395589","0.0-355.0","3OLQQLKKNTBH7NXRSUD3SM6BW8WJEQ","A2QTL039A5VV3I","3HUR21WDDUBEMSLDIXZW1FAIHWSYXN","","296.10000002384186","img/flower2.png","75","297","2","1","1","2","1,0,0,1,1,0,1,0,1","0,1,0,0,1,1,1,1,0","3",""
"","html-keyboard-response","356","1395891","0.0-356.0","3OLQQLKKNTBH7NXRSUD3SM6BW8WJEQ","A2QTL039A5VV3I","3HUR21WDDUBEMSLDIXZW1FAIHWSYXN","","null","<img src=""img/flower2.png"" style=""width:200px; border:14px solid green;"">","null","","","","","","","","",""
"","image-keyboard-response","357","1396221","0.0-357.0","3OLQQLKKNTBH7NXRSUD3SM6BW8WJEQ","A2QTL039A5VV3I","3HUR21WDDUBEMSLDIXZW1FAIHWSYXN","","328.5","img/flower3.png","75","329.2999999523163","2","1","3","2","1,0,0,1,1,0,1,0,1","0,1,0,0,1,1,1,1,0","3",""
"","html-keyboard-response","358","1396522","0.0-358.0","3OLQQLKKNTBH7NXRSUD3SM6BW8WJEQ","A2QTL039A5VV3I","3HUR21WDDUBEMSLDIXZW1FAIHWSYXN","","null","<img src=""img/flower3.png"" style=""width:200px; border:14px solid green;"">","null","","","","","","","","",""
"","image-keyboard-response","359","1396953","0.0-359.0","3OLQQLKKNTBH7NXRSUD3SM6BW8WJEQ","A2QTL039A5VV3I","3HUR21WDDUBEMSLDIXZW1FAIHWSYXN","","429.39999997615814","img/flower3.png","75","430.39999997615814","2","1","3","2","1,0,0,1,1,0,1,0,1","0,1,0,0,1,1,1,1,0","3",""
"","html-keyboard-response","360","1397255","0.0-360.0","3OLQQLKKNTBH7NXRSUD3SM6BW8WJEQ","A2QTL039A5VV3I","3HUR21WDDUBEMSLDIXZW1FAIHWSYXN","","null","<img src=""img/flower3.png"" style=""width:200px; border:14px solid green;"">","null","","","","","","","","",""
"","image-keyboard-response","361","1397567","0.0-361.0","3OLQQLKKNTBH7NXRSUD3SM6BW8WJEQ","A2QTL039A5VV3I","3HUR21WDDUBEMSLDIXZW1FAIHWSYXN","","310.7000000476837","img/flower3.png","75","311.39999997615814","2","1","3","2","1,0,0,1,1,0,1,0,1","0,1,0,0,1,1,1,1,0","3",""
