"success","trial_type","trial_index","time_elapsed","internal_node_id","assignmentID","mturkID","hitID","view_history","rt","stimulus","key_press","reactionTime","a","r","s","cond","reward_cond","reward_cond_actual","reward_matrix_idx","responses"
"true","fullscreen","0","4741","0.0-0.0","31EUONYN2WPCA9AA3XUI0MBJVUCVOO","A2S6QOCFC3EAYH","382GHPVPHSDM8N0F9141EAH7F0K34Z","","","","","","","","","","","","",""
"","instructions","1","116106","0.0-1.0","31EUONYN2WPCA9AA3XUI0MBJVUCVOO","A2S6QOCFC3EAYH","382GHPVPHSDM8N0F9141EAH7F0K34Z","[{""page_index"":0,""viewing_time"":3825},{""page_index"":1,""viewing_time"":3205},{""page_index"":2,""viewing_time"":1646},{""page_index"":3,""viewing_time"":4653},{""page_index"":4,""viewing_time"":3836},{""page_index"":5,""viewing_time"":4432},{""page_index"":6,""viewing_time"":85771},{""page_index"":7,""viewing_time"":3984}]","111358","","","","","","","","","","",""
"","image-keyboard-response","2","117189","0.0-2.0","31EUONYN2WPCA9AA3XUI0MBJVUCVOO","A2S6QOCFC3EAYH","382GHPVPHSDM8N0F9141EAH7F0K34Z","","1070","img/flower1.png","74","1077","1","1","1","1","1,0.333,0.333,0.333,1,0.333,0.333,0.333,1","1,0.333,0.333,0.333,1,0.333,0.333,0.333,1","1",""
"","html-keyboard-response","3","117501","0.0-3.0","31EUONYN2WPCA9AA3XUI0MBJVUCVOO","A2S6QOCFC3EAYH","382GHPVPHSDM8N0F9141EAH7F0K34Z","","null","<img src=""img/flower1.png"" style=""width:200px; border:14px solid green;"">","null","","","","","","","","",""
"","image-keyboard-response","4","118382","0.0-4.0","31EUONYN2WPCA9AA3XUI0MBJVUCVOO","A2S6QOCFC3EAYH","382GHPVPHSDM8N0F9141EAH7F0K34Z","","873","img/flower5.png","74","879","1","1","3","1","1,0.333,0.333,0.333,1,0.333,0.333,0.333,1","1,0.333,0.333,0.333,1,0.333,0.333,0.333,1","1",""
"","html-keyboard-response","5","118689","0.0-5.0","31EUONYN2WPCA9AA3XUI0MBJVUCVOO","A2S6QOCFC3EAYH","382GHPVPHSDM8N0F9141EAH7F0K34Z","","null","<img src=""img/flower5.png"" style=""width:200px; border:14px solid green;"">","null","","","","","","","","",""
"","image-keyboard-response","6","119519","0.0-6.0","31EUONYN2WPCA9AA3XUI0MBJVUCVOO","A2S6QOCFC3EAYH","382GHPVPHSDM8N0F9141EAH7F0K34Z","","823","img/flower1.png","74","827","1","1","1","1","1,0.333,0.333,0.333,1,0.333,0.333,0.333,1","1,0.333,0.333,0.333,1,0.333,0.333,0.333,1","1",""
"","html-keyboard-response","7","119827","0.0-7.0","31EUONYN2WPCA9AA3XUI0MBJVUCVOO","A2S6QOCFC3EAYH","382GHPVPHSDM8N0F9141EAH7F0K34Z","","null","<img src=""img/flower1.png"" style=""width:200px; border:14px solid green;"">","null","","","","","","","","",""
"","image-keyboard-response","8","120605","0.0-8.0","31EUONYN2WPCA9AA3XUI0MBJVUCVOO","A2S6QOCFC3EAYH","382GHPVPHSDM8N0F9141EAH7F0K34Z","","772","img/flower5.png","74","776","1","0","3","1","1,0.333,0.333,0.333,1,0.333,0.333,0.333,1","1,0.333,0.333,0.333,1,0.333,0.333,0.333,1","1",""
"","html-keyboard-response","9","120912","0.0-9.0","31EUONYN2WPCA9AA3XUI0MBJVUCVOO","A2S6QOCFC3EAYH","382GHPVPHSDM8N0F9141EAH7F0K34Z","","null","<img src=""img/flower5.png"" style=""width:200px;border:14px solid red;"">","null","","","","","","","","",""
"","image-keyboard-response","10","122219","0.0-10.0","31EUONYN2WPCA9AA3XUI0MBJVUCVOO","A2S6QOCFC3EAYH","382GHPVPHSDM8N0F9141EAH7F0K34Z","","1301","img/flower4.png","75","1304","2","1","2","1","1,0.333,0.333,0.333,1,0.333,0.333,0.333,1","1,0.333,0.333,0.333,1,0.333,0.333,0.333,1","1",""
"","html-keyboard-response","11","122526","0.0-11.0","31EUONYN2WPCA9AA3XUI0MBJVUCVOO","A2S6QOCFC3EAYH","382GHPVPHSDM8N0F9141EAH7F0K34Z","","null","<img src=""img/flower4.png"" style=""width:200px; border:14px solid green;"">","null","","","","","","","","",""
"","image-keyboard-response","12","123403","0.0-12.0","31EUONYN2WPCA9AA3XUI0MBJVUCVOO","A2S6QOCFC3EAYH","382GHPVPHSDM8N0F9141EAH7F0K34Z","","843","img/flower5.png","75","874","2","1","3","1","1,0.333,0.333,0.333,1,0.333,0.333,0.333,1","1,0.333,0.333,0.333,1,0.333,0.333,0.333,1","1",""
"","html-keyboard-response","13","123708","0.0-13.0","31EUONYN2WPCA9AA3XUI0MBJVUCVOO","A2S6QOCFC3EAYH","382GHPVPHSDM8N0F9141EAH7F0K34Z","","null","<img src=""img/flower5.png"" style=""width:200px; border:14px solid green;"">","null","","","","","","","","",""
"","image-keyboard-response","14","124513","0.0-14.0","31EUONYN2WPCA9AA3XUI0MBJVUCVOO","A2S6QOCFC3EAYH","382GHPVPHSDM8N0F9141EAH7F0K34Z","","797","img/flower1.png","75","802","2","1","1","1","1,0.333,0.333,0.333,1,0.333,0.333,0.333,1","1,0.333,0.333,0.333,1,0.333,0.333,0.333,1","1",""
"","html-keyboard-response","15","124820","0.0-15.0","31EUONYN2WPCA9AA3XUI0MBJVUCVOO","A2S6QOCFC3EAYH","382GHPVPHSDM8N0F9141EAH7F0K34Z","","null","<img src=""img/flower1.png"" style=""width:200px; border:14px solid green;"">","null","","","","","","","","",""
"","image-keyboard-response","16","125648","0.0-16.0","31EUONYN2WPCA9AA3XUI0MBJVUCVOO","A2S6QOCFC3EAYH","382GHPVPHSDM8N0F9141EAH7F0K34Z","","822","img/flower5.png","75","826","2","0","3","1","1,0.333,0.333,0.333,1,0.333,0.333,0.333,1","1,0.333,0.333,0.333,1,0.333,0.333,0.333,1","1",""
"","html-keyboard-response","17","125961","0.0-17.0","31EUONYN2WPCA9AA3XUI0MBJVUCVOO","A2S6QOCFC3EAYH","382GHPVPHSDM8N0F9141EAH7F0K34Z","","null","<img src=""img/flower5.png"" style=""width:200px;border:14px solid red;"">","null","","","","","","","","",""
"","image-keyboard-response","18","127199","0.0-18.0","31EUONYN2WPCA9AA3XUI0MBJVUCVOO","A2S6QOCFC3EAYH","382GHPVPHSDM8N0F9141EAH7F0K34Z","","1232","img/flower4.png","75","1235","2","1","2","1","1,0.333,0.333,0.333,1,0.333,0.333,0.333,1","1,0.333,0.333,0.333,1,0.333,0.333,0.333,1","1",""
"","html-keyboard-response","19","127506","0.0-19.0","31EUONYN2WPCA9AA3XUI0MBJVUCVOO","A2S6QOCFC3EAYH","382GHPVPHSDM8N0F9141EAH7F0K34Z","","null","<img src=""img/flower4.png"" style=""width:200px; border:14px solid green;"">","null","","","","","","","","",""
"","image-keyboard-response","20","128296","0.0-20.0","31EUONYN2WPCA9AA3XUI0MBJVUCVOO","A2S6QOCFC3EAYH","382GHPVPHSDM8N0F9141EAH7F0K34Z","","783","img/flower4.png","75","788","2","1","2","1","1,0.333,0.333,0.333,1,0.333,0.333,0.333,1","1,0.333,0.333,0.333,1,0.333,0.333,0.333,1","1",""
"","html-keyboard-response","21","128603","0.0-21.0","31EUONYN2WPCA9AA3XUI0MBJVUCVOO","A2S6QOCFC3EAYH","382GHPVPHSDM8N0F9141EAH7F0K34Z","","null","<img src=""img/flower4.png"" style=""width:200px; border:14px solid green;"">","null","","","","","","","","",""
"","image-keyboard-response","22","129421","0.0-22.0","31EUONYN2WPCA9AA3XUI0MBJVUCVOO","A2S6QOCFC3EAYH","382GHPVPHSDM8N0F9141EAH7F0K34Z","","809","img/flower4.png","75","813","2","1","2","1","1,0.333,0.333,0.333,1,0.333,0.333,0.333,1","1,0.333,0.333,0.333,1,0.333,0.333,0.333,1","1",""
"","html-keyboard-response","23","129728","0.0-23.0","31EUONYN2WPCA9AA3XUI0MBJVUCVOO","A2S6QOCFC3EAYH","382GHPVPHSDM8N0F9141EAH7F0K34Z","","null","<img src=""img/flower4.png"" style=""width:200px; border:14px solid green;"">","null","","","","","","","","",""
"","image-keyboard-response","24","130509","0.0-24.0","31EUONYN2WPCA9AA3XUI0MBJVUCVOO","A2S6QOCFC3EAYH","382GHPVPHSDM8N0F9141EAH7F0K34Z","","774","img/flower1.png","75","779","2","1","1","1","1,0.333,0.333,0.333,1,0.333,0.333,0.333,1","1,0.333,0.333,0.333,1,0.333,0.333,0.333,1","1",""
"","html-keyboard-response","25","130816","0.0-25.0","31EUONYN2WPCA9AA3XUI0MBJVUCVOO","A2S6QOCFC3EAYH","382GHPVPHSDM8N0F9141EAH7F0K34Z","","null","<img src=""img/flower1.png"" style=""width:200px; border:14px solid green;"">","null","","","","","","","","",""
"","image-keyboard-response","26","131578","0.0-26.0","31EUONYN2WPCA9AA3XUI0MBJVUCVOO","A2S6QOCFC3EAYH","382GHPVPHSDM8N0F9141EAH7F0K34Z","","755","img/flower5.png","75","760","2","0","3","1","1,0.333,0.333,0.333,1,0.333,0.333,0.333,1","1,0.333,0.333,0.333,1,0.333,0.333,0.333,1","1",""
"","html-keyboard-response","27","131885","0.0-27.0","31EUONYN2WPCA9AA3XUI0MBJVUCVOO","A2S6QOCFC3EAYH","382GHPVPHSDM8N0F9141EAH7F0K34Z","","null","<img src=""img/flower5.png"" style=""width:200px;border:14px solid red;"">","null","","","","","","","","",""
"","image-keyboard-response","28","132618","0.0-28.0","31EUONYN2WPCA9AA3XUI0MBJVUCVOO","A2S6QOCFC3EAYH","382GHPVPHSDM8N0F9141EAH7F0K34Z","","727","img/flower4.png","75","731","2","1","2","1","1,0.333,0.333,0.333,1,0.333,0.333,0.333,1","1,0.333,0.333,0.333,1,0.333,0.333,0.333,1","1",""
"","html-keyboard-response","29","132924","0.0-29.0","31EUONYN2WPCA9AA3XUI0MBJVUCVOO","A2S6QOCFC3EAYH","382GHPVPHSDM8N0F9141EAH7F0K34Z","","null","<img src=""img/flower4.png"" style=""width:200px; border:14px solid green;"">","null","","","","","","","","",""
"","image-keyboard-response","30","133590","0.0-30.0","31EUONYN2WPCA9AA3XUI0MBJVUCVOO","A2S6QOCFC3EAYH","382GHPVPHSDM8N0F9141EAH7F0K34Z","","659","img/flower1.png","75","664","2","0","1","1","1,0.333,0.333,0.333,1,0.333,0.333,0.333,1","1,0.333,0.333,0.333,1,0.333,0.333,0.333,1","1",""
"","html-keyboard-response","31","133896","0.0-31.0","31EUONYN2WPCA9AA3XUI0MBJVUCVOO","A2S6QOCFC3EAYH","382GHPVPHSDM8N0F9141EAH7F0K34Z","","null","<img src=""img/flower1.png"" style=""width:200px;border:14px solid red;"">","null","","","","","","","","",""
"","image-keyboard-response","32","134611","0.0-32.0","31EUONYN2WPCA9AA3XUI0MBJVUCVOO","A2S6QOCFC3EAYH","382GHPVPHSDM8N0F9141EAH7F0K34Z","","711","img/flower5.png","75","713","2","0","3","1","1,0.333,0.333,0.333,1,0.333,0.333,0.333,1","1,0.333,0.333,0.333,1,0.333,0.333,0.333,1","1",""
"","html-keyboard-response","33","134917","0.0-33.0","31EUONYN2WPCA9AA3XUI0MBJVUCVOO","A2S6QOCFC3EAYH","382GHPVPHSDM8N0F9141EAH7F0K34Z","","null","<img src=""img/flower5.png"" style=""width:200px;border:14px solid red;"">","null","","","","","","","","",""
"","image-keyboard-response","34","135846","0.0-34.0","31EUONYN2WPCA9AA3XUI0MBJVUCVOO","A2S6QOCFC3EAYH","382GHPVPHSDM8N0F9141EAH7F0K34Z","","923","img/flower5.png","75","927","2","0","3","1","1,0.333,0.333,0.333,1,0.333,0.333,0.333,1","1,0.333,0.333,0.333,1,0.333,0.333,0.333,1","1",""
"","html-keyboard-response","35","136153","0.0-35.0","31EUONYN2WPCA9AA3XUI0MBJVUCVOO","A2S6QOCFC3EAYH","382GHPVPHSDM8N0F9141EAH7F0K34Z","","null","<img src=""img/flower5.png"" style=""width:200px;border:14px solid red;"">","null","","","","","","","","",""
"","image-keyboard-response","36","136961","0.0-36.0","31EUONYN2WPCA9AA3XUI0MBJVUCVOO","A2S6QOCFC3EAYH","382GHPVPHSDM8N0F9141EAH7F0K34Z","","803","img/flower1.png","75","806","2","1","1","1","1,0.333,0.333,0.333,1,0.333,0.333,0.333,1","1,0.333,0.333,0.333,1,0.333,0.333,0.333,1","1",""
"","html-keyboard-response","37","137271","0.0-37.0","31EUONYN2WPCA9AA3XUI0MBJVUCVOO","A2S6QOCFC3EAYH","382GHPVPHSDM8N0F9141EAH7F0K34Z","","null","<img src=""img/flower1.png"" style=""width:200px; border:14px solid green;"">","null","","","","","","","","",""
"","image-keyboard-response","38","137930","0.0-38.0","31EUONYN2WPCA9AA3XUI0MBJVUCVOO","A2S6QOCFC3EAYH","382GHPVPHSDM8N0F9141EAH7F0K34Z","","653","img/flower4.png","75","657","2","1","2","1","1,0.333,0.333,0.333,1,0.333,0.333,0.333,1","1,0.333,0.333,0.333,1,0.333,0.333,0.333,1","1",""
"","html-keyboard-response","39","138272","0.0-39.0","31EUONYN2WPCA9AA3XUI0MBJVUCVOO","A2S6QOCFC3EAYH","382GHPVPHSDM8N0F9141EAH7F0K34Z","","null","<img src=""img/flower4.png"" style=""width:200px; border:14px solid green;"">","null","","","","","","","","",""
"","image-keyboard-response","40","139066","0.0-40.0","31EUONYN2WPCA9AA3XUI0MBJVUCVOO","A2S6QOCFC3EAYH","382GHPVPHSDM8N0F9141EAH7F0K34Z","","790","img/flower5.png","75","792","2","0","3","1","1,0.333,0.333,0.333,1,0.333,0.333,0.333,1","1,0.333,0.333,0.333,1,0.333,0.333,0.333,1","1",""
"","html-keyboard-response","41","139372","0.0-41.0","31EUONYN2WPCA9AA3XUI0MBJVUCVOO","A2S6QOCFC3EAYH","382GHPVPHSDM8N0F9141EAH7F0K34Z","","null","<img src=""img/flower5.png"" style=""width:200px;border:14px solid red;"">","null","","","","","","","","",""
"","image-keyboard-response","42","140221","0.0-42.0","31EUONYN2WPCA9AA3XUI0MBJVUCVOO","A2S6QOCFC3EAYH","382GHPVPHSDM8N0F9141EAH7F0K34Z","","844","img/flower1.png","75","848","2","0","1","1","1,0.333,0.333,0.333,1,0.333,0.333,0.333,1","1,0.333,0.333,0.333,1,0.333,0.333,0.333,1","1",""
"","html-keyboard-response","43","140528","0.0-43.0","31EUONYN2WPCA9AA3XUI0MBJVUCVOO","A2S6QOCFC3EAYH","382GHPVPHSDM8N0F9141EAH7F0K34Z","","null","<img src=""img/flower1.png"" style=""width:200px;border:14px solid red;"">","null","","","","","","","","",""
"","image-keyboard-response","44","141455","0.0-44.0","31EUONYN2WPCA9AA3XUI0MBJVUCVOO","A2S6QOCFC3EAYH","382GHPVPHSDM8N0F9141EAH7F0K34Z","","921","img/flower4.png","74","924","1","1","2","1","1,0.333,0.333,0.333,1,0.333,0.333,0.333,1","1,0.333,0.333,0.333,1,0.333,0.333,0.333,1","1",""
"","html-keyboard-response","45","141764","0.0-45.0","31EUONYN2WPCA9AA3XUI0MBJVUCVOO","A2S6QOCFC3EAYH","382GHPVPHSDM8N0F9141EAH7F0K34Z","","null","<img src=""img/flower4.png"" style=""width:200px; border:14px solid green;"">","null","","","","","","","","",""
"","image-keyboard-response","46","142262","0.0-46.0","31EUONYN2WPCA9AA3XUI0MBJVUCVOO","A2S6QOCFC3EAYH","382GHPVPHSDM8N0F9141EAH7F0K34Z","","492","img/flower4.png","74","496","1","1","2","1","1,0.333,0.333,0.333,1,0.333,0.333,0.333,1","1,0.333,0.333,0.333,1,0.333,0.333,0.333,1","1",""
"","html-keyboard-response","47","142570","0.0-47.0","31EUONYN2WPCA9AA3XUI0MBJVUCVOO","A2S6QOCFC3EAYH","382GHPVPHSDM8N0F9141EAH7F0K34Z","","null","<img src=""img/flower4.png"" style=""width:200px; border:14px solid green;"">","null","","","","","","","","",""
"","image-keyboard-response","48","143251","0.0-48.0","31EUONYN2WPCA9AA3XUI0MBJVUCVOO","A2S6QOCFC3EAYH","382GHPVPHSDM8N0F9141EAH7F0K34Z","","674","img/flower5.png","74","678","1","0","3","1","1,0.333,0.333,0.333,1,0.333,0.333,0.333,1","1,0.333,0.333,0.333,1,0.333,0.333,0.333,1","1",""
"","html-keyboard-response","49","143557","0.0-49.0","31EUONYN2WPCA9AA3XUI0MBJVUCVOO","A2S6QOCFC3EAYH","382GHPVPHSDM8N0F9141EAH7F0K34Z","","null","<img src=""img/flower5.png"" style=""width:200px;border:14px solid red;"">","null","","","","","","","","",""
"","image-keyboard-response","50","144213","0.0-50.0","31EUONYN2WPCA9AA3XUI0MBJVUCVOO","A2S6QOCFC3EAYH","382GHPVPHSDM8N0F9141EAH7F0K34Z","","650","img/flower4.png","75","654","2","1","2","1","1,0.333,0.333,0.333,1,0.333,0.333,0.333,1","1,0.333,0.333,0.333,1,0.333,0.333,0.333,1","1",""
"","html-keyboard-response","51","144520","0.0-51.0","31EUONYN2WPCA9AA3XUI0MBJVUCVOO","A2S6QOCFC3EAYH","382GHPVPHSDM8N0F9141EAH7F0K34Z","","null","<img src=""img/flower4.png"" style=""width:200px; border:14px solid green;"">","null","","","","","","","","",""
"","image-keyboard-response","52","145197","0.0-52.0","31EUONYN2WPCA9AA3XUI0MBJVUCVOO","A2S6QOCFC3EAYH","382GHPVPHSDM8N0F9141EAH7F0K34Z","","671","img/flower5.png","75","674","2","0","3","1","1,0.333,0.333,0.333,1,0.333,0.333,0.333,1","1,0.333,0.333,0.333,1,0.333,0.333,0.333,1","1",""
"","html-keyboard-response","53","145503","0.0-53.0","31EUONYN2WPCA9AA3XUI0MBJVUCVOO","A2S6QOCFC3EAYH","382GHPVPHSDM8N0F9141EAH7F0K34Z","","null","<img src=""img/flower5.png"" style=""width:200px;border:14px solid red;"">","null","","","","","","","","",""
"","image-keyboard-response","54","146132","0.0-54.0","31EUONYN2WPCA9AA3XUI0MBJVUCVOO","A2S6QOCFC3EAYH","382GHPVPHSDM8N0F9141EAH7F0K34Z","","624","img/flower1.png","75","626","2","1","1","1","1,0.333,0.333,0.333,1,0.333,0.333,0.333,1","1,0.333,0.333,0.333,1,0.333,0.333,0.333,1","1",""
"","html-keyboard-response","55","146438","0.0-55.0","31EUONYN2WPCA9AA3XUI0MBJVUCVOO","A2S6QOCFC3EAYH","382GHPVPHSDM8N0F9141EAH7F0K34Z","","null","<img src=""img/flower1.png"" style=""width:200px; border:14px solid green;"">","null","","","","","","","","",""
"","image-keyboard-response","56","147150","0.0-56.0","31EUONYN2WPCA9AA3XUI0MBJVUCVOO","A2S6QOCFC3EAYH","382GHPVPHSDM8N0F9141EAH7F0K34Z","","707","img/flower1.png","75","709","2","0","1","1","1,0.333,0.333,0.333,1,0.333,0.333,0.333,1","1,0.333,0.333,0.333,1,0.333,0.333,0.333,1","1",""
"","html-keyboard-response","57","147456","0.0-57.0","31EUONYN2WPCA9AA3XUI0MBJVUCVOO","A2S6QOCFC3EAYH","382GHPVPHSDM8N0F9141EAH7F0K34Z","","null","<img src=""img/flower1.png"" style=""width:200px;border:14px solid red;"">","null","","","","","","","","",""
"","image-keyboard-response","58","148159","0.0-58.0","31EUONYN2WPCA9AA3XUI0MBJVUCVOO","A2S6QOCFC3EAYH","382GHPVPHSDM8N0F9141EAH7F0K34Z","","698","img/flower5.png","75","700","2","0","3","1","1,0.333,0.333,0.333,1,0.333,0.333,0.333,1","1,0.333,0.333,0.333,1,0.333,0.333,0.333,1","1",""
"","html-keyboard-response","59","148465","0.0-59.0","31EUONYN2WPCA9AA3XUI0MBJVUCVOO","A2S6QOCFC3EAYH","382GHPVPHSDM8N0F9141EAH7F0K34Z","","null","<img src=""img/flower5.png"" style=""width:200px;border:14px solid red;"">","null","","","","","","","","",""
"","image-keyboard-response","60","149211","0.0-60.0","31EUONYN2WPCA9AA3XUI0MBJVUCVOO","A2S6QOCFC3EAYH","382GHPVPHSDM8N0F9141EAH7F0K34Z","","741","img/flower5.png","75","743","2","1","3","1","1,0.333,0.333,0.333,1,0.333,0.333,0.333,1","1,0.333,0.333,0.333,1,0.333,0.333,0.333,1","1",""
"","html-keyboard-response","61","149516","0.0-61.0","31EUONYN2WPCA9AA3XUI0MBJVUCVOO","A2S6QOCFC3EAYH","382GHPVPHSDM8N0F9141EAH7F0K34Z","","null","<img src=""img/flower5.png"" style=""width:200px; border:14px solid green;"">","null","","","","","","","","",""
"","image-keyboard-response","62","150023","0.0-62.0","31EUONYN2WPCA9AA3XUI0MBJVUCVOO","A2S6QOCFC3EAYH","382GHPVPHSDM8N0F9141EAH7F0K34Z","","501","img/flower5.png","75","506","2","0","3","1","1,0.333,0.333,0.333,1,0.333,0.333,0.333,1","1,0.333,0.333,0.333,1,0.333,0.333,0.333,1","1",""
"","html-keyboard-response","63","150331","0.0-63.0","31EUONYN2WPCA9AA3XUI0MBJVUCVOO","A2S6QOCFC3EAYH","382GHPVPHSDM8N0F9141EAH7F0K34Z","","null","<img src=""img/flower5.png"" style=""width:200px;border:14px solid red;"">","null","","","","","","","","",""
"","image-keyboard-response","64","151123","0.0-64.0","31EUONYN2WPCA9AA3XUI0MBJVUCVOO","A2S6QOCFC3EAYH","382GHPVPHSDM8N0F9141EAH7F0K34Z","","788","img/flower1.png","75","790","2","0","1","1","1,0.333,0.333,0.333,1,0.333,0.333,0.333,1","1,0.333,0.333,0.333,1,0.333,0.333,0.333,1","1",""
"","html-keyboard-response","65","151429","0.0-65.0","31EUONYN2WPCA9AA3XUI0MBJVUCVOO","A2S6QOCFC3EAYH","382GHPVPHSDM8N0F9141EAH7F0K34Z","","null","<img src=""img/flower1.png"" style=""width:200px;border:14px solid red;"">","null","","","","","","","","",""
"","image-keyboard-response","66","152319","0.0-66.0","31EUONYN2WPCA9AA3XUI0MBJVUCVOO","A2S6QOCFC3EAYH","382GHPVPHSDM8N0F9141EAH7F0K34Z","","885","img/flower1.png","76","888","3","0","1","1","1,0.333,0.333,0.333,1,0.333,0.333,0.333,1","1,0.333,0.333,0.333,1,0.333,0.333,0.333,1","1",""
"","html-keyboard-response","67","152626","0.0-67.0","31EUONYN2WPCA9AA3XUI0MBJVUCVOO","A2S6QOCFC3EAYH","382GHPVPHSDM8N0F9141EAH7F0K34Z","","null","<img src=""img/flower1.png"" style=""width:200px;border:14px solid red;"">","null","","","","","","","","",""
"","image-keyboard-response","68","153138","0.0-68.0","31EUONYN2WPCA9AA3XUI0MBJVUCVOO","A2S6QOCFC3EAYH","382GHPVPHSDM8N0F9141EAH7F0K34Z","","505","img/flower5.png","76","509","3","1","3","1","1,0.333,0.333,0.333,1,0.333,0.333,0.333,1","1,0.333,0.333,0.333,1,0.333,0.333,0.333,1","1",""
"","html-keyboard-response","69","153445","0.0-69.0","31EUONYN2WPCA9AA3XUI0MBJVUCVOO","A2S6QOCFC3EAYH","382GHPVPHSDM8N0F9141EAH7F0K34Z","","null","<img src=""img/flower5.png"" style=""width:200px; border:14px solid green;"">","null","","","","","","","","",""
"","image-keyboard-response","70","153965","0.0-70.0","31EUONYN2WPCA9AA3XUI0MBJVUCVOO","A2S6QOCFC3EAYH","382GHPVPHSDM8N0F9141EAH7F0K34Z","","510","img/flower5.png","76","515","3","1","3","1","1,0.333,0.333,0.333,1,0.333,0.333,0.333,1","1,0.333,0.333,0.333,1,0.333,0.333,0.333,1","1",""
"","html-keyboard-response","71","154278","0.0-71.0","31EUONYN2WPCA9AA3XUI0MBJVUCVOO","A2S6QOCFC3EAYH","382GHPVPHSDM8N0F9141EAH7F0K34Z","","null","<img src=""img/flower5.png"" style=""width:200px; border:14px solid green;"">","null","","","","","","","","",""
"","image-keyboard-response","72","154960","0.0-72.0","31EUONYN2WPCA9AA3XUI0MBJVUCVOO","A2S6QOCFC3EAYH","382GHPVPHSDM8N0F9141EAH7F0K34Z","","675","img/flower1.png","76","681","3","0","1","1","1,0.333,0.333,0.333,1,0.333,0.333,0.333,1","1,0.333,0.333,0.333,1,0.333,0.333,0.333,1","1",""
"","html-keyboard-response","73","155268","0.0-73.0","31EUONYN2WPCA9AA3XUI0MBJVUCVOO","A2S6QOCFC3EAYH","382GHPVPHSDM8N0F9141EAH7F0K34Z","","null","<img src=""img/flower1.png"" style=""width:200px;border:14px solid red;"">","null","","","","","","","","",""
"","image-keyboard-response","74","155965","0.0-74.0","31EUONYN2WPCA9AA3XUI0MBJVUCVOO","A2S6QOCFC3EAYH","382GHPVPHSDM8N0F9141EAH7F0K34Z","","692","img/flower1.png","76","694","3","0","1","1","1,0.333,0.333,0.333,1,0.333,0.333,0.333,1","1,0.333,0.333,0.333,1,0.333,0.333,0.333,1","1",""
"","html-keyboard-response","75","156270","0.0-75.0","31EUONYN2WPCA9AA3XUI0MBJVUCVOO","A2S6QOCFC3EAYH","382GHPVPHSDM8N0F9141EAH7F0K34Z","","null","<img src=""img/flower1.png"" style=""width:200px;border:14px solid red;"">","null","","","","","","","","",""
"","image-keyboard-response","76","156956","0.0-76.0","31EUONYN2WPCA9AA3XUI0MBJVUCVOO","A2S6QOCFC3EAYH","382GHPVPHSDM8N0F9141EAH7F0K34Z","","680","img/flower4.png","75","685","2","1","2","1","1,0.333,0.333,0.333,1,0.333,0.333,0.333,1","1,0.333,0.333,0.333,1,0.333,0.333,0.333,1","1",""
"","html-keyboard-response","77","157268","0.0-77.0","31EUONYN2WPCA9AA3XUI0MBJVUCVOO","A2S6QOCFC3EAYH","382GHPVPHSDM8N0F9141EAH7F0K34Z","","null","<img src=""img/flower4.png"" style=""width:200px; border:14px solid green;"">","null","","","","","","","","",""
"","image-keyboard-response","78","157706","0.0-78.0","31EUONYN2WPCA9AA3XUI0MBJVUCVOO","A2S6QOCFC3EAYH","382GHPVPHSDM8N0F9141EAH7F0K34Z","","432","img/flower1.png","75","436","2","0","1","1","1,0.333,0.333,0.333,1,0.333,0.333,0.333,1","1,0.333,0.333,0.333,1,0.333,0.333,0.333,1","1",""
"","html-keyboard-response","79","158013","0.0-79.0","31EUONYN2WPCA9AA3XUI0MBJVUCVOO","A2S6QOCFC3EAYH","382GHPVPHSDM8N0F9141EAH7F0K34Z","","null","<img src=""img/flower1.png"" style=""width:200px;border:14px solid red;"">","null","","","","","","","","",""
"","image-keyboard-response","80","158543","0.0-80.0","31EUONYN2WPCA9AA3XUI0MBJVUCVOO","A2S6QOCFC3EAYH","382GHPVPHSDM8N0F9141EAH7F0K34Z","","525","img/flower4.png","75","528","2","1","2","1","1,0.333,0.333,0.333,1,0.333,0.333,0.333,1","1,0.333,0.333,0.333,1,0.333,0.333,0.333,1","1",""
"","html-keyboard-response","81","158850","0.0-81.0","31EUONYN2WPCA9AA3XUI0MBJVUCVOO","A2S6QOCFC3EAYH","382GHPVPHSDM8N0F9141EAH7F0K34Z","","null","<img src=""img/flower4.png"" style=""width:200px; border:14px solid green;"">","null","","","","","","","","",""
"","image-keyboard-response","82","159387","0.0-82.0","31EUONYN2WPCA9AA3XUI0MBJVUCVOO","A2S6QOCFC3EAYH","382GHPVPHSDM8N0F9141EAH7F0K34Z","","531","img/flower1.png","75","534","2","1","1","1","1,0.333,0.333,0.333,1,0.333,0.333,0.333,1","1,0.333,0.333,0.333,1,0.333,0.333,0.333,1","1",""
"","html-keyboard-response","83","159695","0.0-83.0","31EUONYN2WPCA9AA3XUI0MBJVUCVOO","A2S6QOCFC3EAYH","382GHPVPHSDM8N0F9141EAH7F0K34Z","","null","<img src=""img/flower1.png"" style=""width:200px; border:14px solid green;"">","null","","","","","","","","",""
"","image-keyboard-response","84","160167","0.0-84.0","31EUONYN2WPCA9AA3XUI0MBJVUCVOO","A2S6QOCFC3EAYH","382GHPVPHSDM8N0F9141EAH7F0K34Z","","464","img/flower5.png","75","471","2","0","3","1","1,0.333,0.333,0.333,1,0.333,0.333,0.333,1","1,0.333,0.333,0.333,1,0.333,0.333,0.333,1","1",""
"","html-keyboard-response","85","160474","0.0-85.0","31EUONYN2WPCA9AA3XUI0MBJVUCVOO","A2S6QOCFC3EAYH","382GHPVPHSDM8N0F9141EAH7F0K34Z","","null","<img src=""img/flower5.png"" style=""width:200px;border:14px solid red;"">","null","","","","","","","","",""
"","image-keyboard-response","86","160995","0.0-86.0","31EUONYN2WPCA9AA3XUI0MBJVUCVOO","A2S6QOCFC3EAYH","382GHPVPHSDM8N0F9141EAH7F0K34Z","","514","img/flower5.png","75","518","2","0","3","1","1,0.333,0.333,0.333,1,0.333,0.333,0.333,1","1,0.333,0.333,0.333,1,0.333,0.333,0.333,1","1",""
"","html-keyboard-response","87","161303","0.0-87.0","31EUONYN2WPCA9AA3XUI0MBJVUCVOO","A2S6QOCFC3EAYH","382GHPVPHSDM8N0F9141EAH7F0K34Z","","null","<img src=""img/flower5.png"" style=""width:200px;border:14px solid red;"">","null","","","","","","","","",""
"","image-keyboard-response","88","161865","0.0-88.0","31EUONYN2WPCA9AA3XUI0MBJVUCVOO","A2S6QOCFC3EAYH","382GHPVPHSDM8N0F9141EAH7F0K34Z","","557","img/flower4.png","75","561","2","1","2","1","1,0.333,0.333,0.333,1,0.333,0.333,0.333,1","1,0.333,0.333,0.333,1,0.333,0.333,0.333,1","1",""
"","html-keyboard-response","89","162172","0.0-89.0","31EUONYN2WPCA9AA3XUI0MBJVUCVOO","A2S6QOCFC3EAYH","382GHPVPHSDM8N0F9141EAH7F0K34Z","","null","<img src=""img/flower4.png"" style=""width:200px; border:14px solid green;"">","null","","","","","","","","",""
"","image-keyboard-response","90","162633","0.0-90.0","31EUONYN2WPCA9AA3XUI0MBJVUCVOO","A2S6QOCFC3EAYH","382GHPVPHSDM8N0F9141EAH7F0K34Z","","454","img/flower4.png","75","459","2","1","2","1","1,0.333,0.333,0.333,1,0.333,0.333,0.333,1","1,0.333,0.333,0.333,1,0.333,0.333,0.333,1","1",""
"","html-keyboard-response","91","162941","0.0-91.0","31EUONYN2WPCA9AA3XUI0MBJVUCVOO","A2S6QOCFC3EAYH","382GHPVPHSDM8N0F9141EAH7F0K34Z","","null","<img src=""img/flower4.png"" style=""width:200px; border:14px solid green;"">","null","","","","","","","","",""
"","image-keyboard-response","92","163604","0.0-92.0","31EUONYN2WPCA9AA3XUI0MBJVUCVOO","A2S6QOCFC3EAYH","382GHPVPHSDM8N0F9141EAH7F0K34Z","","658","img/flower1.png","75","662","2","0","1","1","1,0.333,0.333,0.333,1,0.333,0.333,0.333,1","1,0.333,0.333,0.333,1,0.333,0.333,0.333,1","1",""
"","html-keyboard-response","93","163910","0.0-93.0","31EUONYN2WPCA9AA3XUI0MBJVUCVOO","A2S6QOCFC3EAYH","382GHPVPHSDM8N0F9141EAH7F0K34Z","","null","<img src=""img/flower1.png"" style=""width:200px;border:14px solid red;"">","null","","","","","","","","",""
"","image-keyboard-response","94","164493","0.0-94.0","31EUONYN2WPCA9AA3XUI0MBJVUCVOO","A2S6QOCFC3EAYH","382GHPVPHSDM8N0F9141EAH7F0K34Z","","577","img/flower5.png","75","581","2","1","3","1","1,0.333,0.333,0.333,1,0.333,0.333,0.333,1","1,0.333,0.333,0.333,1,0.333,0.333,0.333,1","1",""
"","html-keyboard-response","95","164801","0.0-95.0","31EUONYN2WPCA9AA3XUI0MBJVUCVOO","A2S6QOCFC3EAYH","382GHPVPHSDM8N0F9141EAH7F0K34Z","","null","<img src=""img/flower5.png"" style=""width:200px; border:14px solid green;"">","null","","","","","","","","",""
"","image-keyboard-response","96","165371","0.0-96.0","31EUONYN2WPCA9AA3XUI0MBJVUCVOO","A2S6QOCFC3EAYH","382GHPVPHSDM8N0F9141EAH7F0K34Z","","565","img/flower1.png","75","568","2","1","1","1","1,0.333,0.333,0.333,1,0.333,0.333,0.333,1","1,0.333,0.333,0.333,1,0.333,0.333,0.333,1","1",""
"","html-keyboard-response","97","165678","0.0-97.0","31EUONYN2WPCA9AA3XUI0MBJVUCVOO","A2S6QOCFC3EAYH","382GHPVPHSDM8N0F9141EAH7F0K34Z","","null","<img src=""img/flower1.png"" style=""width:200px; border:14px solid green;"">","null","","","","","","","","",""
"","image-keyboard-response","98","166185","0.0-98.0","31EUONYN2WPCA9AA3XUI0MBJVUCVOO","A2S6QOCFC3EAYH","382GHPVPHSDM8N0F9141EAH7F0K34Z","","502","img/flower5.png","75","505","2","1","3","1","1,0.333,0.333,0.333,1,0.333,0.333,0.333,1","1,0.333,0.333,0.333,1,0.333,0.333,0.333,1","1",""
"","html-keyboard-response","99","166491","0.0-99.0","31EUONYN2WPCA9AA3XUI0MBJVUCVOO","A2S6QOCFC3EAYH","382GHPVPHSDM8N0F9141EAH7F0K34Z","","null","<img src=""img/flower5.png"" style=""width:200px; border:14px solid green;"">","null","","","","","","","","",""
"","image-keyboard-response","100","167058","0.0-100.0","31EUONYN2WPCA9AA3XUI0MBJVUCVOO","A2S6QOCFC3EAYH","382GHPVPHSDM8N0F9141EAH7F0K34Z","","561","img/flower1.png","75","565","2","0","1","1","1,0.333,0.333,0.333,1,0.333,0.333,0.333,1","1,0.333,0.333,0.333,1,0.333,0.333,0.333,1","1",""
"","html-keyboard-response","101","167365","0.0-101.0","31EUONYN2WPCA9AA3XUI0MBJVUCVOO","A2S6QOCFC3EAYH","382GHPVPHSDM8N0F9141EAH7F0K34Z","","null","<img src=""img/flower1.png"" style=""width:200px;border:14px solid red;"">","null","","","","","","","","",""
"","image-keyboard-response","102","167913","0.0-102.0","31EUONYN2WPCA9AA3XUI0MBJVUCVOO","A2S6QOCFC3EAYH","382GHPVPHSDM8N0F9141EAH7F0K34Z","","541","img/flower4.png","75","543","2","1","2","1","1,0.333,0.333,0.333,1,0.333,0.333,0.333,1","1,0.333,0.333,0.333,1,0.333,0.333,0.333,1","1",""
"","html-keyboard-response","103","168223","0.0-103.0","31EUONYN2WPCA9AA3XUI0MBJVUCVOO","A2S6QOCFC3EAYH","382GHPVPHSDM8N0F9141EAH7F0K34Z","","null","<img src=""img/flower4.png"" style=""width:200px; border:14px solid green;"">","null","","","","","","","","",""
"","image-keyboard-response","104","168747","0.0-104.0","31EUONYN2WPCA9AA3XUI0MBJVUCVOO","A2S6QOCFC3EAYH","382GHPVPHSDM8N0F9141EAH7F0K34Z","","518","img/flower4.png","75","522","2","1","2","1","1,0.333,0.333,0.333,1,0.333,0.333,0.333,1","1,0.333,0.333,0.333,1,0.333,0.333,0.333,1","1",""
"","html-keyboard-response","105","169052","0.0-105.0","31EUONYN2WPCA9AA3XUI0MBJVUCVOO","A2S6QOCFC3EAYH","382GHPVPHSDM8N0F9141EAH7F0K34Z","","null","<img src=""img/flower4.png"" style=""width:200px; border:14px solid green;"">","null","","","","","","","","",""
"","image-keyboard-response","106","169563","0.0-106.0","31EUONYN2WPCA9AA3XUI0MBJVUCVOO","A2S6QOCFC3EAYH","382GHPVPHSDM8N0F9141EAH7F0K34Z","","506","img/flower5.png","75","509","2","0","3","1","1,0.333,0.333,0.333,1,0.333,0.333,0.333,1","1,0.333,0.333,0.333,1,0.333,0.333,0.333,1","1",""
"","html-keyboard-response","107","169870","0.0-107.0","31EUONYN2WPCA9AA3XUI0MBJVUCVOO","A2S6QOCFC3EAYH","382GHPVPHSDM8N0F9141EAH7F0K34Z","","null","<img src=""img/flower5.png"" style=""width:200px;border:14px solid red;"">","null","","","","","","","","",""
"","image-keyboard-response","108","170412","0.0-108.0","31EUONYN2WPCA9AA3XUI0MBJVUCVOO","A2S6QOCFC3EAYH","382GHPVPHSDM8N0F9141EAH7F0K34Z","","536","img/flower1.png","75","540","2","0","1","1","1,0.333,0.333,0.333,1,0.333,0.333,0.333,1","1,0.333,0.333,0.333,1,0.333,0.333,0.333,1","1",""
"","html-keyboard-response","109","170718","0.0-109.0","31EUONYN2WPCA9AA3XUI0MBJVUCVOO","A2S6QOCFC3EAYH","382GHPVPHSDM8N0F9141EAH7F0K34Z","","null","<img src=""img/flower1.png"" style=""width:200px;border:14px solid red;"">","null","","","","","","","","",""
"","image-keyboard-response","110","171271","0.0-110.0","31EUONYN2WPCA9AA3XUI0MBJVUCVOO","A2S6QOCFC3EAYH","382GHPVPHSDM8N0F9141EAH7F0K34Z","","548","img/flower5.png","75","551","2","0","3","1","1,0.333,0.333,0.333,1,0.333,0.333,0.333,1","1,0.333,0.333,0.333,1,0.333,0.333,0.333,1","1",""
"","html-keyboard-response","111","171578","0.0-111.0","31EUONYN2WPCA9AA3XUI0MBJVUCVOO","A2S6QOCFC3EAYH","382GHPVPHSDM8N0F9141EAH7F0K34Z","","null","<img src=""img/flower5.png"" style=""width:200px;border:14px solid red;"">","null","","","","","","","","",""
"","image-keyboard-response","112","172170","0.0-112.0","31EUONYN2WPCA9AA3XUI0MBJVUCVOO","A2S6QOCFC3EAYH","382GHPVPHSDM8N0F9141EAH7F0K34Z","","586","img/flower5.png","75","590","2","0","3","1","1,0.333,0.333,0.333,1,0.333,0.333,0.333,1","1,0.333,0.333,0.333,1,0.333,0.333,0.333,1","1",""
"","html-keyboard-response","113","172477","0.0-113.0","31EUONYN2WPCA9AA3XUI0MBJVUCVOO","A2S6QOCFC3EAYH","382GHPVPHSDM8N0F9141EAH7F0K34Z","","null","<img src=""img/flower5.png"" style=""width:200px;border:14px solid red;"">","null","","","","","","","","",""
"","image-keyboard-response","114","173048","0.0-114.0","31EUONYN2WPCA9AA3XUI0MBJVUCVOO","A2S6QOCFC3EAYH","382GHPVPHSDM8N0F9141EAH7F0K34Z","","566","img/flower1.png","75","570","2","0","1","1","1,0.333,0.333,0.333,1,0.333,0.333,0.333,1","1,0.333,0.333,0.333,1,0.333,0.333,0.333,1","1",""
"","html-keyboard-response","115","173356","0.0-115.0","31EUONYN2WPCA9AA3XUI0MBJVUCVOO","A2S6QOCFC3EAYH","382GHPVPHSDM8N0F9141EAH7F0K34Z","","null","<img src=""img/flower1.png"" style=""width:200px;border:14px solid red;"">","null","","","","","","","","",""
"","image-keyboard-response","116","173877","0.0-116.0","31EUONYN2WPCA9AA3XUI0MBJVUCVOO","A2S6QOCFC3EAYH","382GHPVPHSDM8N0F9141EAH7F0K34Z","","514","img/flower5.png","75","519","2","1","3","1","1,0.333,0.333,0.333,1,0.333,0.333,0.333,1","1,0.333,0.333,0.333,1,0.333,0.333,0.333,1","1",""
"","html-keyboard-response","117","174184","0.0-117.0","31EUONYN2WPCA9AA3XUI0MBJVUCVOO","A2S6QOCFC3EAYH","382GHPVPHSDM8N0F9141EAH7F0K34Z","","null","<img src=""img/flower5.png"" style=""width:200px; border:14px solid green;"">","null","","","","","","","","",""
"","image-keyboard-response","118","174658","0.0-118.0","31EUONYN2WPCA9AA3XUI0MBJVUCVOO","A2S6QOCFC3EAYH","382GHPVPHSDM8N0F9141EAH7F0K34Z","","466","img/flower4.png","75","470","2","1","2","1","1,0.333,0.333,0.333,1,0.333,0.333,0.333,1","1,0.333,0.333,0.333,1,0.333,0.333,0.333,1","1",""
"","html-keyboard-response","119","174964","0.0-119.0","31EUONYN2WPCA9AA3XUI0MBJVUCVOO","A2S6QOCFC3EAYH","382GHPVPHSDM8N0F9141EAH7F0K34Z","","null","<img src=""img/flower4.png"" style=""width:200px; border:14px solid green;"">","null","","","","","","","","",""
"","image-keyboard-response","120","175425","0.0-120.0","31EUONYN2WPCA9AA3XUI0MBJVUCVOO","A2S6QOCFC3EAYH","382GHPVPHSDM8N0F9141EAH7F0K34Z","","456","img/flower4.png","75","458","2","1","2","1","1,0.333,0.333,0.333,1,0.333,0.333,0.333,1","1,0.333,0.333,0.333,1,0.333,0.333,0.333,1","1",""
"","html-keyboard-response","121","175733","0.0-121.0","31EUONYN2WPCA9AA3XUI0MBJVUCVOO","A2S6QOCFC3EAYH","382GHPVPHSDM8N0F9141EAH7F0K34Z","","null","<img src=""img/flower4.png"" style=""width:200px; border:14px solid green;"">","null","","","","","","","","",""
"","image-keyboard-response","122","176188","0.0-122.0","31EUONYN2WPCA9AA3XUI0MBJVUCVOO","A2S6QOCFC3EAYH","382GHPVPHSDM8N0F9141EAH7F0K34Z","","449","img/flower4.png","75","454","2","1","2","1","1,0.333,0.333,0.333,1,0.333,0.333,0.333,1","1,0.333,0.333,0.333,1,0.333,0.333,0.333,1","1",""
"","html-keyboard-response","123","176496","0.0-123.0","31EUONYN2WPCA9AA3XUI0MBJVUCVOO","A2S6QOCFC3EAYH","382GHPVPHSDM8N0F9141EAH7F0K34Z","","null","<img src=""img/flower4.png"" style=""width:200px; border:14px solid green;"">","null","","","","","","","","",""
"","image-keyboard-response","124","177407","0.0-124.0","31EUONYN2WPCA9AA3XUI0MBJVUCVOO","A2S6QOCFC3EAYH","382GHPVPHSDM8N0F9141EAH7F0K34Z","","906","img/flower1.png","75","909","2","0","1","1","1,0.333,0.333,0.333,1,0.333,0.333,0.333,1","1,0.333,0.333,0.333,1,0.333,0.333,0.333,1","1",""
"","html-keyboard-response","125","177715","0.0-125.0","31EUONYN2WPCA9AA3XUI0MBJVUCVOO","A2S6QOCFC3EAYH","382GHPVPHSDM8N0F9141EAH7F0K34Z","","null","<img src=""img/flower1.png"" style=""width:200px;border:14px solid red;"">","null","","","","","","","","",""
"","image-keyboard-response","126","178500","0.0-126.0","31EUONYN2WPCA9AA3XUI0MBJVUCVOO","A2S6QOCFC3EAYH","382GHPVPHSDM8N0F9141EAH7F0K34Z","","744","img/flower4.png","75","782","2","1","2","1","1,0.333,0.333,0.333,1,0.333,0.333,0.333,1","1,0.333,0.333,0.333,1,0.333,0.333,0.333,1","1",""
"","html-keyboard-response","127","178806","0.0-127.0","31EUONYN2WPCA9AA3XUI0MBJVUCVOO","A2S6QOCFC3EAYH","382GHPVPHSDM8N0F9141EAH7F0K34Z","","null","<img src=""img/flower4.png"" style=""width:200px; border:14px solid green;"">","null","","","","","","","","",""
"","image-keyboard-response","128","179812","0.0-128.0","31EUONYN2WPCA9AA3XUI0MBJVUCVOO","A2S6QOCFC3EAYH","382GHPVPHSDM8N0F9141EAH7F0K34Z","","1001","img/flower5.png","75","1005","2","0","3","1","1,0.333,0.333,0.333,1,0.333,0.333,0.333,1","1,0.333,0.333,0.333,1,0.333,0.333,0.333,1","1",""
"","html-keyboard-response","129","180122","0.0-129.0","31EUONYN2WPCA9AA3XUI0MBJVUCVOO","A2S6QOCFC3EAYH","382GHPVPHSDM8N0F9141EAH7F0K34Z","","null","<img src=""img/flower5.png"" style=""width:200px;border:14px solid red;"">","null","","","","","","","","",""
"","image-keyboard-response","130","180619","0.0-130.0","31EUONYN2WPCA9AA3XUI0MBJVUCVOO","A2S6QOCFC3EAYH","382GHPVPHSDM8N0F9141EAH7F0K34Z","","492","img/flower1.png","75","494","2","0","1","1","1,0.333,0.333,0.333,1,0.333,0.333,0.333,1","1,0.333,0.333,0.333,1,0.333,0.333,0.333,1","1",""
"","html-keyboard-response","131","180939","0.0-131.0","31EUONYN2WPCA9AA3XUI0MBJVUCVOO","A2S6QOCFC3EAYH","382GHPVPHSDM8N0F9141EAH7F0K34Z","","null","<img src=""img/flower1.png"" style=""width:200px;border:14px solid red;"">","null","","","","","","","","",""
"","image-keyboard-response","132","181900","0.0-132.0","31EUONYN2WPCA9AA3XUI0MBJVUCVOO","A2S6QOCFC3EAYH","382GHPVPHSDM8N0F9141EAH7F0K34Z","","957","img/flower4.png","75","960","2","1","2","1","1,0.333,0.333,0.333,1,0.333,0.333,0.333,1","1,0.333,0.333,0.333,1,0.333,0.333,0.333,1","1",""
"","html-keyboard-response","133","182207","0.0-133.0","31EUONYN2WPCA9AA3XUI0MBJVUCVOO","A2S6QOCFC3EAYH","382GHPVPHSDM8N0F9141EAH7F0K34Z","","null","<img src=""img/flower4.png"" style=""width:200px; border:14px solid green;"">","null","","","","","","","","",""
"","image-keyboard-response","134","183033","0.0-134.0","31EUONYN2WPCA9AA3XUI0MBJVUCVOO","A2S6QOCFC3EAYH","382GHPVPHSDM8N0F9141EAH7F0K34Z","","822","img/flower5.png","75","824","2","0","3","1","1,0.333,0.333,0.333,1,0.333,0.333,0.333,1","1,0.333,0.333,0.333,1,0.333,0.333,0.333,1","1",""
"","html-keyboard-response","135","183342","0.0-135.0","31EUONYN2WPCA9AA3XUI0MBJVUCVOO","A2S6QOCFC3EAYH","382GHPVPHSDM8N0F9141EAH7F0K34Z","","null","<img src=""img/flower5.png"" style=""width:200px;border:14px solid red;"">","null","","","","","","","","",""
"","image-keyboard-response","136","184401","0.0-136.0","31EUONYN2WPCA9AA3XUI0MBJVUCVOO","A2S6QOCFC3EAYH","382GHPVPHSDM8N0F9141EAH7F0K34Z","","1053","img/flower1.png","74","1057","1","1","1","1","1,0.333,0.333,0.333,1,0.333,0.333,0.333,1","1,0.333,0.333,0.333,1,0.333,0.333,0.333,1","1",""
"","html-keyboard-response","137","184707","0.0-137.0","31EUONYN2WPCA9AA3XUI0MBJVUCVOO","A2S6QOCFC3EAYH","382GHPVPHSDM8N0F9141EAH7F0K34Z","","null","<img src=""img/flower1.png"" style=""width:200px; border:14px solid green;"">","null","","","","","","","","",""
"","image-keyboard-response","138","185433","0.0-138.0","31EUONYN2WPCA9AA3XUI0MBJVUCVOO","A2S6QOCFC3EAYH","382GHPVPHSDM8N0F9141EAH7F0K34Z","","720","img/flower4.png","75","724","2","1","2","1","1,0.333,0.333,0.333,1,0.333,0.333,0.333,1","1,0.333,0.333,0.333,1,0.333,0.333,0.333,1","1",""
"","html-keyboard-response","139","185743","0.0-139.0","31EUONYN2WPCA9AA3XUI0MBJVUCVOO","A2S6QOCFC3EAYH","382GHPVPHSDM8N0F9141EAH7F0K34Z","","null","<img src=""img/flower4.png"" style=""width:200px; border:14px solid green;"">","null","","","","","","","","",""
"","image-keyboard-response","140","186237","0.0-140.0","31EUONYN2WPCA9AA3XUI0MBJVUCVOO","A2S6QOCFC3EAYH","382GHPVPHSDM8N0F9141EAH7F0K34Z","","485","img/flower4.png","75","488","2","1","2","1","1,0.333,0.333,0.333,1,0.333,0.333,0.333,1","1,0.333,0.333,0.333,1,0.333,0.333,0.333,1","1",""
"","html-keyboard-response","141","186544","0.0-141.0","31EUONYN2WPCA9AA3XUI0MBJVUCVOO","A2S6QOCFC3EAYH","382GHPVPHSDM8N0F9141EAH7F0K34Z","","null","<img src=""img/flower4.png"" style=""width:200px; border:14px solid green;"">","null","","","","","","","","",""
"","image-keyboard-response","142","187040","0.0-142.0","31EUONYN2WPCA9AA3XUI0MBJVUCVOO","A2S6QOCFC3EAYH","382GHPVPHSDM8N0F9141EAH7F0K34Z","","491","img/flower4.png","75","494","2","1","2","1","1,0.333,0.333,0.333,1,0.333,0.333,0.333,1","1,0.333,0.333,0.333,1,0.333,0.333,0.333,1","1",""
"","html-keyboard-response","143","187346","0.0-143.0","31EUONYN2WPCA9AA3XUI0MBJVUCVOO","A2S6QOCFC3EAYH","382GHPVPHSDM8N0F9141EAH7F0K34Z","","null","<img src=""img/flower4.png"" style=""width:200px; border:14px solid green;"">","null","","","","","","","","",""
"","image-keyboard-response","144","187849","0.0-144.0","31EUONYN2WPCA9AA3XUI0MBJVUCVOO","A2S6QOCFC3EAYH","382GHPVPHSDM8N0F9141EAH7F0K34Z","","496","img/flower4.png","75","500","2","1","2","1","1,0.333,0.333,0.333,1,0.333,0.333,0.333,1","1,0.333,0.333,0.333,1,0.333,0.333,0.333,1","1",""
"","html-keyboard-response","145","188157","0.0-145.0","31EUONYN2WPCA9AA3XUI0MBJVUCVOO","A2S6QOCFC3EAYH","382GHPVPHSDM8N0F9141EAH7F0K34Z","","null","<img src=""img/flower4.png"" style=""width:200px; border:14px solid green;"">","null","","","","","","","","",""
"","image-keyboard-response","146","188857","0.0-146.0","31EUONYN2WPCA9AA3XUI0MBJVUCVOO","A2S6QOCFC3EAYH","382GHPVPHSDM8N0F9141EAH7F0K34Z","","695","img/flower1.png","74","699","1","1","1","1","1,0.333,0.333,0.333,1,0.333,0.333,0.333,1","1,0.333,0.333,0.333,1,0.333,0.333,0.333,1","1",""
"","html-keyboard-response","147","189164","0.0-147.0","31EUONYN2WPCA9AA3XUI0MBJVUCVOO","A2S6QOCFC3EAYH","382GHPVPHSDM8N0F9141EAH7F0K34Z","","null","<img src=""img/flower1.png"" style=""width:200px; border:14px solid green;"">","null","","","","","","","","",""
"","image-keyboard-response","148","189840","0.0-148.0","31EUONYN2WPCA9AA3XUI0MBJVUCVOO","A2S6QOCFC3EAYH","382GHPVPHSDM8N0F9141EAH7F0K34Z","","670","img/flower5.png","75","673","2","0","3","1","1,0.333,0.333,0.333,1,0.333,0.333,0.333,1","1,0.333,0.333,0.333,1,0.333,0.333,0.333,1","1",""
"","html-keyboard-response","149","190148","0.0-149.0","31EUONYN2WPCA9AA3XUI0MBJVUCVOO","A2S6QOCFC3EAYH","382GHPVPHSDM8N0F9141EAH7F0K34Z","","null","<img src=""img/flower5.png"" style=""width:200px;border:14px solid red;"">","null","","","","","","","","",""
"","image-keyboard-response","150","190891","0.0-150.0","31EUONYN2WPCA9AA3XUI0MBJVUCVOO","A2S6QOCFC3EAYH","382GHPVPHSDM8N0F9141EAH7F0K34Z","","738","img/flower4.png","75","741","2","1","2","1","1,0.333,0.333,0.333,1,0.333,0.333,0.333,1","1,0.333,0.333,0.333,1,0.333,0.333,0.333,1","1",""
"","html-keyboard-response","151","191196","0.0-151.0","31EUONYN2WPCA9AA3XUI0MBJVUCVOO","A2S6QOCFC3EAYH","382GHPVPHSDM8N0F9141EAH7F0K34Z","","null","<img src=""img/flower4.png"" style=""width:200px; border:14px solid green;"">","null","","","","","","","","",""
"","image-keyboard-response","152","191734","0.0-152.0","31EUONYN2WPCA9AA3XUI0MBJVUCVOO","A2S6QOCFC3EAYH","382GHPVPHSDM8N0F9141EAH7F0K34Z","","531","img/flower5.png","75","535","2","0","3","1","1,0.333,0.333,0.333,1,0.333,0.333,0.333,1","1,0.333,0.333,0.333,1,0.333,0.333,0.333,1","1",""
"","html-keyboard-response","153","192042","0.0-153.0","31EUONYN2WPCA9AA3XUI0MBJVUCVOO","A2S6QOCFC3EAYH","382GHPVPHSDM8N0F9141EAH7F0K34Z","","null","<img src=""img/flower5.png"" style=""width:200px;border:14px solid red;"">","null","","","","","","","","",""
"","image-keyboard-response","154","192641","0.0-154.0","31EUONYN2WPCA9AA3XUI0MBJVUCVOO","A2S6QOCFC3EAYH","382GHPVPHSDM8N0F9141EAH7F0K34Z","","593","img/flower1.png","74","597","1","1","1","1","1,0.333,0.333,0.333,1,0.333,0.333,0.333,1","1,0.333,0.333,0.333,1,0.333,0.333,0.333,1","1",""
"","html-keyboard-response","155","192952","0.0-155.0","31EUONYN2WPCA9AA3XUI0MBJVUCVOO","A2S6QOCFC3EAYH","382GHPVPHSDM8N0F9141EAH7F0K34Z","","null","<img src=""img/flower1.png"" style=""width:200px; border:14px solid green;"">","null","","","","","","","","",""
"","image-keyboard-response","156","193697","0.0-156.0","31EUONYN2WPCA9AA3XUI0MBJVUCVOO","A2S6QOCFC3EAYH","382GHPVPHSDM8N0F9141EAH7F0K34Z","","739","img/flower1.png","74","743","1","1","1","1","1,0.333,0.333,0.333,1,0.333,0.333,0.333,1","1,0.333,0.333,0.333,1,0.333,0.333,0.333,1","1",""
"","html-keyboard-response","157","194003","0.0-157.0","31EUONYN2WPCA9AA3XUI0MBJVUCVOO","A2S6QOCFC3EAYH","382GHPVPHSDM8N0F9141EAH7F0K34Z","","null","<img src=""img/flower1.png"" style=""width:200px; border:14px solid green;"">","null","","","","","","","","",""
"","image-keyboard-response","158","194704","0.0-158.0","31EUONYN2WPCA9AA3XUI0MBJVUCVOO","A2S6QOCFC3EAYH","382GHPVPHSDM8N0F9141EAH7F0K34Z","","695","img/flower5.png","75","699","2","0","3","1","1,0.333,0.333,0.333,1,0.333,0.333,0.333,1","1,0.333,0.333,0.333,1,0.333,0.333,0.333,1","1",""
"","html-keyboard-response","159","195010","0.0-159.0","31EUONYN2WPCA9AA3XUI0MBJVUCVOO","A2S6QOCFC3EAYH","382GHPVPHSDM8N0F9141EAH7F0K34Z","","null","<img src=""img/flower5.png"" style=""width:200px;border:14px solid red;"">","null","","","","","","","","",""
"","image-keyboard-response","160","195924","0.0-160.0","31EUONYN2WPCA9AA3XUI0MBJVUCVOO","A2S6QOCFC3EAYH","382GHPVPHSDM8N0F9141EAH7F0K34Z","","907","img/flower4.png","75","912","2","1","2","1","1,0.333,0.333,0.333,1,0.333,0.333,0.333,1","1,0.333,0.333,0.333,1,0.333,0.333,0.333,1","1",""
"","html-keyboard-response","161","196231","0.0-161.0","31EUONYN2WPCA9AA3XUI0MBJVUCVOO","A2S6QOCFC3EAYH","382GHPVPHSDM8N0F9141EAH7F0K34Z","","null","<img src=""img/flower4.png"" style=""width:200px; border:14px solid green;"">","null","","","","","","","","",""
"","image-keyboard-response","162","196866","0.0-162.0","31EUONYN2WPCA9AA3XUI0MBJVUCVOO","A2S6QOCFC3EAYH","382GHPVPHSDM8N0F9141EAH7F0K34Z","","630","img/flower4.png","75","633","2","1","2","1","1,0.333,0.333,0.333,1,0.333,0.333,0.333,1","1,0.333,0.333,0.333,1,0.333,0.333,0.333,1","1",""
"","html-keyboard-response","163","197174","0.0-163.0","31EUONYN2WPCA9AA3XUI0MBJVUCVOO","A2S6QOCFC3EAYH","382GHPVPHSDM8N0F9141EAH7F0K34Z","","null","<img src=""img/flower4.png"" style=""width:200px; border:14px solid green;"">","null","","","","","","","","",""
"","image-keyboard-response","164","197646","0.0-164.0","31EUONYN2WPCA9AA3XUI0MBJVUCVOO","A2S6QOCFC3EAYH","382GHPVPHSDM8N0F9141EAH7F0K34Z","","466","img/flower4.png","75","471","2","1","2","1","1,0.333,0.333,0.333,1,0.333,0.333,0.333,1","1,0.333,0.333,0.333,1,0.333,0.333,0.333,1","1",""
"","html-keyboard-response","165","197953","0.0-165.0","31EUONYN2WPCA9AA3XUI0MBJVUCVOO","A2S6QOCFC3EAYH","382GHPVPHSDM8N0F9141EAH7F0K34Z","","null","<img src=""img/flower4.png"" style=""width:200px; border:14px solid green;"">","null","","","","","","","","",""
"","image-keyboard-response","166","198400","0.0-166.0","31EUONYN2WPCA9AA3XUI0MBJVUCVOO","A2S6QOCFC3EAYH","382GHPVPHSDM8N0F9141EAH7F0K34Z","","441","img/flower4.png","75","446","2","1","2","1","1,0.333,0.333,0.333,1,0.333,0.333,0.333,1","1,0.333,0.333,0.333,1,0.333,0.333,0.333,1","1",""
"","html-keyboard-response","167","198711","0.0-167.0","31EUONYN2WPCA9AA3XUI0MBJVUCVOO","A2S6QOCFC3EAYH","382GHPVPHSDM8N0F9141EAH7F0K34Z","","null","<img src=""img/flower4.png"" style=""width:200px; border:14px solid green;"">","null","","","","","","","","",""
"","image-keyboard-response","168","199355","0.0-168.0","31EUONYN2WPCA9AA3XUI0MBJVUCVOO","A2S6QOCFC3EAYH","382GHPVPHSDM8N0F9141EAH7F0K34Z","","639","img/flower1.png","74","644","1","1","1","1","1,0.333,0.333,0.333,1,0.333,0.333,0.333,1","1,0.333,0.333,0.333,1,0.333,0.333,0.333,1","1",""
"","html-keyboard-response","169","199662","0.0-169.0","31EUONYN2WPCA9AA3XUI0MBJVUCVOO","A2S6QOCFC3EAYH","382GHPVPHSDM8N0F9141EAH7F0K34Z","","null","<img src=""img/flower1.png"" style=""width:200px; border:14px solid green;"">","null","","","","","","","","",""
"","image-keyboard-response","170","200201","0.0-170.0","31EUONYN2WPCA9AA3XUI0MBJVUCVOO","A2S6QOCFC3EAYH","382GHPVPHSDM8N0F9141EAH7F0K34Z","","534","img/flower1.png","74","537","1","1","1","1","1,0.333,0.333,0.333,1,0.333,0.333,0.333,1","1,0.333,0.333,0.333,1,0.333,0.333,0.333,1","1",""
"","html-keyboard-response","171","200509","0.0-171.0","31EUONYN2WPCA9AA3XUI0MBJVUCVOO","A2S6QOCFC3EAYH","382GHPVPHSDM8N0F9141EAH7F0K34Z","","null","<img src=""img/flower1.png"" style=""width:200px; border:14px solid green;"">","null","","","","","","","","",""
"","image-keyboard-response","172","201029","0.0-172.0","31EUONYN2WPCA9AA3XUI0MBJVUCVOO","A2S6QOCFC3EAYH","382GHPVPHSDM8N0F9141EAH7F0K34Z","","514","img/flower1.png","74","518","1","1","1","1","1,0.333,0.333,0.333,1,0.333,0.333,0.333,1","1,0.333,0.333,0.333,1,0.333,0.333,0.333,1","1",""
"","html-keyboard-response","173","201336","0.0-173.0","31EUONYN2WPCA9AA3XUI0MBJVUCVOO","A2S6QOCFC3EAYH","382GHPVPHSDM8N0F9141EAH7F0K34Z","","null","<img src=""img/flower1.png"" style=""width:200px; border:14px solid green;"">","null","","","","","","","","",""
"","image-keyboard-response","174","202125","0.0-174.0","31EUONYN2WPCA9AA3XUI0MBJVUCVOO","A2S6QOCFC3EAYH","382GHPVPHSDM8N0F9141EAH7F0K34Z","","783","img/flower5.png","75","787","2","1","3","1","1,0.333,0.333,0.333,1,0.333,0.333,0.333,1","1,0.333,0.333,0.333,1,0.333,0.333,0.333,1","1",""
"","html-keyboard-response","175","202432","0.0-175.0","31EUONYN2WPCA9AA3XUI0MBJVUCVOO","A2S6QOCFC3EAYH","382GHPVPHSDM8N0F9141EAH7F0K34Z","","null","<img src=""img/flower5.png"" style=""width:200px; border:14px solid green;"">","null","","","","","","","","",""
"","image-keyboard-response","176","203275","0.0-176.0","31EUONYN2WPCA9AA3XUI0MBJVUCVOO","A2S6QOCFC3EAYH","382GHPVPHSDM8N0F9141EAH7F0K34Z","","839","img/flower4.png","75","841","2","1","2","1","1,0.333,0.333,0.333,1,0.333,0.333,0.333,1","1,0.333,0.333,0.333,1,0.333,0.333,0.333,1","1",""
"","html-keyboard-response","177","203582","0.0-177.0","31EUONYN2WPCA9AA3XUI0MBJVUCVOO","A2S6QOCFC3EAYH","382GHPVPHSDM8N0F9141EAH7F0K34Z","","null","<img src=""img/flower4.png"" style=""width:200px; border:14px solid green;"">","null","","","","","","","","",""
"","image-keyboard-response","178","204215","0.0-178.0","31EUONYN2WPCA9AA3XUI0MBJVUCVOO","A2S6QOCFC3EAYH","382GHPVPHSDM8N0F9141EAH7F0K34Z","","628","img/flower1.png","74","632","1","1","1","1","1,0.333,0.333,0.333,1,0.333,0.333,0.333,1","1,0.333,0.333,0.333,1,0.333,0.333,0.333,1","1",""
"","html-keyboard-response","179","204525","0.0-179.0","31EUONYN2WPCA9AA3XUI0MBJVUCVOO","A2S6QOCFC3EAYH","382GHPVPHSDM8N0F9141EAH7F0K34Z","","null","<img src=""img/flower1.png"" style=""width:200px; border:14px solid green;"">","null","","","","","","","","",""
"","image-keyboard-response","180","205376","0.0-180.0","31EUONYN2WPCA9AA3XUI0MBJVUCVOO","A2S6QOCFC3EAYH","382GHPVPHSDM8N0F9141EAH7F0K34Z","","830","img/flower5.png","75","835","2","0","3","1","1,0.333,0.333,0.333,1,0.333,0.333,0.333,1","1,0.333,0.333,0.333,1,0.333,0.333,0.333,1","1",""
"","html-keyboard-response","181","205683","0.0-181.0","31EUONYN2WPCA9AA3XUI0MBJVUCVOO","A2S6QOCFC3EAYH","382GHPVPHSDM8N0F9141EAH7F0K34Z","","null","<img src=""img/flower5.png"" style=""width:200px;border:14px solid red;"">","null","","","","","","","","",""
"","html-keyboard-response","182","211187","0.0-182.0","31EUONYN2WPCA9AA3XUI0MBJVUCVOO","A2S6QOCFC3EAYH","382GHPVPHSDM8N0F9141EAH7F0K34Z","","","","","","","","","","","","",""
"","image-keyboard-response","183","212135","0.0-183.0","31EUONYN2WPCA9AA3XUI0MBJVUCVOO","A2S6QOCFC3EAYH","382GHPVPHSDM8N0F9141EAH7F0K34Z","","940","img/flower6.png","76","945","3","0","1","2","1,0,0,1,1,0,1,0,1","0,1,0,0,1,1,1,1,0","3",""
"","html-keyboard-response","184","212443","0.0-184.0","31EUONYN2WPCA9AA3XUI0MBJVUCVOO","A2S6QOCFC3EAYH","382GHPVPHSDM8N0F9141EAH7F0K34Z","","null","<img src=""img/flower6.png"" style=""width:200px;border:14px solid red;"">","null","","","","","","","","",""
"","image-keyboard-response","185","212797","0.0-185.0","31EUONYN2WPCA9AA3XUI0MBJVUCVOO","A2S6QOCFC3EAYH","382GHPVPHSDM8N0F9141EAH7F0K34Z","","348","img/flower3.png","74","353","1","1","3","2","1,0,0,1,1,0,1,0,1","0,1,0,0,1,1,1,1,0","3",""
"","html-keyboard-response","186","213106","0.0-186.0","31EUONYN2WPCA9AA3XUI0MBJVUCVOO","A2S6QOCFC3EAYH","382GHPVPHSDM8N0F9141EAH7F0K34Z","","null","<img src=""img/flower3.png"" style=""width:200px; border:14px solid green;"">","null","","","","","","","","",""
"","image-keyboard-response","187","213481","0.0-187.0","31EUONYN2WPCA9AA3XUI0MBJVUCVOO","A2S6QOCFC3EAYH","382GHPVPHSDM8N0F9141EAH7F0K34Z","","369","img/flower6.png","74","373","1","0","1","2","1,0,0,1,1,0,1,0,1","0,1,0,0,1,1,1,1,0","3",""
"","html-keyboard-response","188","213787","0.0-188.0","31EUONYN2WPCA9AA3XUI0MBJVUCVOO","A2S6QOCFC3EAYH","382GHPVPHSDM8N0F9141EAH7F0K34Z","","null","<img src=""img/flower6.png"" style=""width:200px;border:14px solid red;"">","null","","","","","","","","",""
"","image-keyboard-response","189","214385","0.0-189.0","31EUONYN2WPCA9AA3XUI0MBJVUCVOO","A2S6QOCFC3EAYH","382GHPVPHSDM8N0F9141EAH7F0K34Z","","593","img/flower2.png","75","596","2","1","2","2","1,0,0,1,1,0,1,0,1","0,1,0,0,1,1,1,1,0","3",""
"","html-keyboard-response","190","214692","0.0-190.0","31EUONYN2WPCA9AA3XUI0MBJVUCVOO","A2S6QOCFC3EAYH","382GHPVPHSDM8N0F9141EAH7F0K34Z","","null","<img src=""img/flower2.png"" style=""width:200px; border:14px solid green;"">","null","","","","","","","","",""
"","image-keyboard-response","191","215089","0.0-191.0","31EUONYN2WPCA9AA3XUI0MBJVUCVOO","A2S6QOCFC3EAYH","382GHPVPHSDM8N0F9141EAH7F0K34Z","","392","img/flower2.png","75","396","2","1","2","2","1,0,0,1,1,0,1,0,1","0,1,0,0,1,1,1,1,0","3",""
"","html-keyboard-response","192","215406","0.0-192.0","31EUONYN2WPCA9AA3XUI0MBJVUCVOO","A2S6QOCFC3EAYH","382GHPVPHSDM8N0F9141EAH7F0K34Z","","null","<img src=""img/flower2.png"" style=""width:200px; border:14px solid green;"">","null","","","","","","","","",""
"","image-keyboard-response","193","215807","0.0-193.0","31EUONYN2WPCA9AA3XUI0MBJVUCVOO","A2S6QOCFC3EAYH","382GHPVPHSDM8N0F9141EAH7F0K34Z","","396","img/flower2.png","75","400","2","1","2","2","1,0,0,1,1,0,1,0,1","0,1,0,0,1,1,1,1,0","3",""
"","html-keyboard-response","194","216119","0.0-194.0","31EUONYN2WPCA9AA3XUI0MBJVUCVOO","A2S6QOCFC3EAYH","382GHPVPHSDM8N0F9141EAH7F0K34Z","","null","<img src=""img/flower2.png"" style=""width:200px; border:14px solid green;"">","null","","","","","","","","",""
"","image-keyboard-response","195","216760","0.0-195.0","31EUONYN2WPCA9AA3XUI0MBJVUCVOO","A2S6QOCFC3EAYH","382GHPVPHSDM8N0F9141EAH7F0K34Z","","635","img/flower6.png","75","639","2","1","1","2","1,0,0,1,1,0,1,0,1","0,1,0,0,1,1,1,1,0","3",""
"","html-keyboard-response","196","217067","0.0-196.0","31EUONYN2WPCA9AA3XUI0MBJVUCVOO","A2S6QOCFC3EAYH","382GHPVPHSDM8N0F9141EAH7F0K34Z","","null","<img src=""img/flower6.png"" style=""width:200px; border:14px solid green;"">","null","","","","","","","","",""
"","image-keyboard-response","197","217512","0.0-197.0","31EUONYN2WPCA9AA3XUI0MBJVUCVOO","A2S6QOCFC3EAYH","382GHPVPHSDM8N0F9141EAH7F0K34Z","","440","img/flower3.png","75","444","2","1","3","2","1,0,0,1,1,0,1,0,1","0,1,0,0,1,1,1,1,0","3",""
"","html-keyboard-response","198","217820","0.0-198.0","31EUONYN2WPCA9AA3XUI0MBJVUCVOO","A2S6QOCFC3EAYH","382GHPVPHSDM8N0F9141EAH7F0K34Z","","null","<img src=""img/flower3.png"" style=""width:200px; border:14px solid green;"">","null","","","","","","","","",""
"","image-keyboard-response","199","218228","0.0-199.0","31EUONYN2WPCA9AA3XUI0MBJVUCVOO","A2S6QOCFC3EAYH","382GHPVPHSDM8N0F9141EAH7F0K34Z","","403","img/flower2.png","75","407","2","1","2","2","1,0,0,1,1,0,1,0,1","0,1,0,0,1,1,1,1,0","3",""
"","html-keyboard-response","200","218535","0.0-200.0","31EUONYN2WPCA9AA3XUI0MBJVUCVOO","A2S6QOCFC3EAYH","382GHPVPHSDM8N0F9141EAH7F0K34Z","","null","<img src=""img/flower2.png"" style=""width:200px; border:14px solid green;"">","null","","","","","","","","",""
"","image-keyboard-response","201","218972","0.0-201.0","31EUONYN2WPCA9AA3XUI0MBJVUCVOO","A2S6QOCFC3EAYH","382GHPVPHSDM8N0F9141EAH7F0K34Z","","431","img/flower2.png","75","436","2","1","2","2","1,0,0,1,1,0,1,0,1","0,1,0,0,1,1,1,1,0","3",""
"","html-keyboard-response","202","219278","0.0-202.0","31EUONYN2WPCA9AA3XUI0MBJVUCVOO","A2S6QOCFC3EAYH","382GHPVPHSDM8N0F9141EAH7F0K34Z","","null","<img src=""img/flower2.png"" style=""width:200px; border:14px solid green;"">","null","","","","","","","","",""
"","image-keyboard-response","203","219794","0.0-203.0","31EUONYN2WPCA9AA3XUI0MBJVUCVOO","A2S6QOCFC3EAYH","382GHPVPHSDM8N0F9141EAH7F0K34Z","","511","img/flower3.png","75","514","2","1","3","2","1,0,0,1,1,0,1,0,1","0,1,0,0,1,1,1,1,0","3",""
"","html-keyboard-response","204","220103","0.0-204.0","31EUONYN2WPCA9AA3XUI0MBJVUCVOO","A2S6QOCFC3EAYH","382GHPVPHSDM8N0F9141EAH7F0K34Z","","null","<img src=""img/flower3.png"" style=""width:200px; border:14px solid green;"">","null","","","","","","","","",""
"","image-keyboard-response","205","220593","0.0-205.0","31EUONYN2WPCA9AA3XUI0MBJVUCVOO","A2S6QOCFC3EAYH","382GHPVPHSDM8N0F9141EAH7F0K34Z","","484","img/flower2.png","75","487","2","1","2","2","1,0,0,1,1,0,1,0,1","0,1,0,0,1,1,1,1,0","3",""
"","html-keyboard-response","206","220899","0.0-206.0","31EUONYN2WPCA9AA3XUI0MBJVUCVOO","A2S6QOCFC3EAYH","382GHPVPHSDM8N0F9141EAH7F0K34Z","","null","<img src=""img/flower2.png"" style=""width:200px; border:14px solid green;"">","null","","","","","","","","",""
"","image-keyboard-response","207","221343","0.0-207.0","31EUONYN2WPCA9AA3XUI0MBJVUCVOO","A2S6QOCFC3EAYH","382GHPVPHSDM8N0F9141EAH7F0K34Z","","439","img/flower6.png","75","442","2","1","1","2","1,0,0,1,1,0,1,0,1","0,1,0,0,1,1,1,1,0","3",""
"","html-keyboard-response","208","221649","0.0-208.0","31EUONYN2WPCA9AA3XUI0MBJVUCVOO","A2S6QOCFC3EAYH","382GHPVPHSDM8N0F9141EAH7F0K34Z","","null","<img src=""img/flower6.png"" style=""width:200px; border:14px solid green;"">","null","","","","","","","","",""
"","image-keyboard-response","209","222082","0.0-209.0","31EUONYN2WPCA9AA3XUI0MBJVUCVOO","A2S6QOCFC3EAYH","382GHPVPHSDM8N0F9141EAH7F0K34Z","","427","img/flower3.png","75","431","2","1","3","2","1,0,0,1,1,0,1,0,1","0,1,0,0,1,1,1,1,0","3",""
"","html-keyboard-response","210","222389","0.0-210.0","31EUONYN2WPCA9AA3XUI0MBJVUCVOO","A2S6QOCFC3EAYH","382GHPVPHSDM8N0F9141EAH7F0K34Z","","null","<img src=""img/flower3.png"" style=""width:200px; border:14px solid green;"">","null","","","","","","","","",""
"","image-keyboard-response","211","222833","0.0-211.0","31EUONYN2WPCA9AA3XUI0MBJVUCVOO","A2S6QOCFC3EAYH","382GHPVPHSDM8N0F9141EAH7F0K34Z","","437","img/flower2.png","75","444","2","1","2","2","1,0,0,1,1,0,1,0,1","0,1,0,0,1,1,1,1,0","3",""
"","html-keyboard-response","212","223142","0.0-212.0","31EUONYN2WPCA9AA3XUI0MBJVUCVOO","A2S6QOCFC3EAYH","382GHPVPHSDM8N0F9141EAH7F0K34Z","","null","<img src=""img/flower2.png"" style=""width:200px; border:14px solid green;"">","null","","","","","","","","",""
"","image-keyboard-response","213","223566","0.0-213.0","31EUONYN2WPCA9AA3XUI0MBJVUCVOO","A2S6QOCFC3EAYH","382GHPVPHSDM8N0F9141EAH7F0K34Z","","418","img/flower6.png","75","422","2","1","1","2","1,0,0,1,1,0,1,0,1","0,1,0,0,1,1,1,1,0","3",""
"","html-keyboard-response","214","223872","0.0-214.0","31EUONYN2WPCA9AA3XUI0MBJVUCVOO","A2S6QOCFC3EAYH","382GHPVPHSDM8N0F9141EAH7F0K34Z","","null","<img src=""img/flower6.png"" style=""width:200px; border:14px solid green;"">","null","","","","","","","","",""
"","image-keyboard-response","215","224326","0.0-215.0","31EUONYN2WPCA9AA3XUI0MBJVUCVOO","A2S6QOCFC3EAYH","382GHPVPHSDM8N0F9141EAH7F0K34Z","","448","img/flower6.png","75","453","2","1","1","2","1,0,0,1,1,0,1,0,1","0,1,0,0,1,1,1,1,0","3",""
"","html-keyboard-response","216","224633","0.0-216.0","31EUONYN2WPCA9AA3XUI0MBJVUCVOO","A2S6QOCFC3EAYH","382GHPVPHSDM8N0F9141EAH7F0K34Z","","null","<img src=""img/flower6.png"" style=""width:200px; border:14px solid green;"">","null","","","","","","","","",""
"","image-keyboard-response","217","225062","0.0-217.0","31EUONYN2WPCA9AA3XUI0MBJVUCVOO","A2S6QOCFC3EAYH","382GHPVPHSDM8N0F9141EAH7F0K34Z","","423","img/flower3.png","75","427","2","1","3","2","1,0,0,1,1,0,1,0,1","0,1,0,0,1,1,1,1,0","3",""
"","html-keyboard-response","218","225369","0.0-218.0","31EUONYN2WPCA9AA3XUI0MBJVUCVOO","A2S6QOCFC3EAYH","382GHPVPHSDM8N0F9141EAH7F0K34Z","","null","<img src=""img/flower3.png"" style=""width:200px; border:14px solid green;"">","null","","","","","","","","",""
"","image-keyboard-response","219","225803","0.0-219.0","31EUONYN2WPCA9AA3XUI0MBJVUCVOO","A2S6QOCFC3EAYH","382GHPVPHSDM8N0F9141EAH7F0K34Z","","426","img/flower3.png","75","431","2","1","3","2","1,0,0,1,1,0,1,0,1","0,1,0,0,1,1,1,1,0","3",""
"","html-keyboard-response","220","226109","0.0-220.0","31EUONYN2WPCA9AA3XUI0MBJVUCVOO","A2S6QOCFC3EAYH","382GHPVPHSDM8N0F9141EAH7F0K34Z","","null","<img src=""img/flower3.png"" style=""width:200px; border:14px solid green;"">","null","","","","","","","","",""
"","image-keyboard-response","221","226622","0.0-221.0","31EUONYN2WPCA9AA3XUI0MBJVUCVOO","A2S6QOCFC3EAYH","382GHPVPHSDM8N0F9141EAH7F0K34Z","","507","img/flower6.png","75","509","2","1","1","2","1,0,0,1,1,0,1,0,1","0,1,0,0,1,1,1,1,0","3",""
"","html-keyboard-response","222","226929","0.0-222.0","31EUONYN2WPCA9AA3XUI0MBJVUCVOO","A2S6QOCFC3EAYH","382GHPVPHSDM8N0F9141EAH7F0K34Z","","null","<img src=""img/flower6.png"" style=""width:200px; border:14px solid green;"">","null","","","","","","","","",""
"","image-keyboard-response","223","227338","0.0-223.0","31EUONYN2WPCA9AA3XUI0MBJVUCVOO","A2S6QOCFC3EAYH","382GHPVPHSDM8N0F9141EAH7F0K34Z","","403","img/flower3.png","75","408","2","1","3","2","1,0,0,1,1,0,1,0,1","0,1,0,0,1,1,1,1,0","3",""
"","html-keyboard-response","224","227645","0.0-224.0","31EUONYN2WPCA9AA3XUI0MBJVUCVOO","A2S6QOCFC3EAYH","382GHPVPHSDM8N0F9141EAH7F0K34Z","","null","<img src=""img/flower3.png"" style=""width:200px; border:14px solid green;"">","null","","","","","","","","",""
"","image-keyboard-response","225","228064","0.0-225.0","31EUONYN2WPCA9AA3XUI0MBJVUCVOO","A2S6QOCFC3EAYH","382GHPVPHSDM8N0F9141EAH7F0K34Z","","412","img/flower2.png","75","416","2","1","2","2","1,0,0,1,1,0,1,0,1","0,1,0,0,1,1,1,1,0","3",""
"","html-keyboard-response","226","228371","0.0-226.0","31EUONYN2WPCA9AA3XUI0MBJVUCVOO","A2S6QOCFC3EAYH","382GHPVPHSDM8N0F9141EAH7F0K34Z","","null","<img src=""img/flower2.png"" style=""width:200px; border:14px solid green;"">","null","","","","","","","","",""
"","image-keyboard-response","227","228774","0.0-227.0","31EUONYN2WPCA9AA3XUI0MBJVUCVOO","A2S6QOCFC3EAYH","382GHPVPHSDM8N0F9141EAH7F0K34Z","","398","img/flower3.png","75","402","2","1","3","2","1,0,0,1,1,0,1,0,1","0,1,0,0,1,1,1,1,0","3",""
"","html-keyboard-response","228","229081","0.0-228.0","31EUONYN2WPCA9AA3XUI0MBJVUCVOO","A2S6QOCFC3EAYH","382GHPVPHSDM8N0F9141EAH7F0K34Z","","null","<img src=""img/flower3.png"" style=""width:200px; border:14px solid green;"">","null","","","","","","","","",""
"","image-keyboard-response","229","229464","0.0-229.0","31EUONYN2WPCA9AA3XUI0MBJVUCVOO","A2S6QOCFC3EAYH","382GHPVPHSDM8N0F9141EAH7F0K34Z","","379","img/flower2.png","75","382","2","1","2","2","1,0,0,1,1,0,1,0,1","0,1,0,0,1,1,1,1,0","3",""
"","html-keyboard-response","230","229770","0.0-230.0","31EUONYN2WPCA9AA3XUI0MBJVUCVOO","A2S6QOCFC3EAYH","382GHPVPHSDM8N0F9141EAH7F0K34Z","","null","<img src=""img/flower2.png"" style=""width:200px; border:14px solid green;"">","null","","","","","","","","",""
"","image-keyboard-response","231","230192","0.0-231.0","31EUONYN2WPCA9AA3XUI0MBJVUCVOO","A2S6QOCFC3EAYH","382GHPVPHSDM8N0F9141EAH7F0K34Z","","416","img/flower6.png","75","420","2","1","1","2","1,0,0,1,1,0,1,0,1","0,1,0,0,1,1,1,1,0","3",""
"","html-keyboard-response","232","230499","0.0-232.0","31EUONYN2WPCA9AA3XUI0MBJVUCVOO","A2S6QOCFC3EAYH","382GHPVPHSDM8N0F9141EAH7F0K34Z","","null","<img src=""img/flower6.png"" style=""width:200px; border:14px solid green;"">","null","","","","","","","","",""
"","image-keyboard-response","233","230941","0.0-233.0","31EUONYN2WPCA9AA3XUI0MBJVUCVOO","A2S6QOCFC3EAYH","382GHPVPHSDM8N0F9141EAH7F0K34Z","","435","img/flower6.png","75","440","2","1","1","2","1,0,0,1,1,0,1,0,1","0,1,0,0,1,1,1,1,0","3",""
"","html-keyboard-response","234","231248","0.0-234.0","31EUONYN2WPCA9AA3XUI0MBJVUCVOO","A2S6QOCFC3EAYH","382GHPVPHSDM8N0F9141EAH7F0K34Z","","null","<img src=""img/flower6.png"" style=""width:200px; border:14px solid green;"">","null","","","","","","","","",""
"","image-keyboard-response","235","231716","0.0-235.0","31EUONYN2WPCA9AA3XUI0MBJVUCVOO","A2S6QOCFC3EAYH","382GHPVPHSDM8N0F9141EAH7F0K34Z","","461","img/flower6.png","75","467","2","1","1","2","1,0,0,1,1,0,1,0,1","0,1,0,0,1,1,1,1,0","3",""
"","html-keyboard-response","236","232024","0.0-236.0","31EUONYN2WPCA9AA3XUI0MBJVUCVOO","A2S6QOCFC3EAYH","382GHPVPHSDM8N0F9141EAH7F0K34Z","","null","<img src=""img/flower6.png"" style=""width:200px; border:14px solid green;"">","null","","","","","","","","",""
"","image-keyboard-response","237","232371","0.0-237.0","31EUONYN2WPCA9AA3XUI0MBJVUCVOO","A2S6QOCFC3EAYH","382GHPVPHSDM8N0F9141EAH7F0K34Z","","341","img/flower3.png","75","345","2","1","3","2","1,0,0,1,1,0,1,0,1","0,1,0,0,1,1,1,1,0","3",""
"","html-keyboard-response","238","232677","0.0-238.0","31EUONYN2WPCA9AA3XUI0MBJVUCVOO","A2S6QOCFC3EAYH","382GHPVPHSDM8N0F9141EAH7F0K34Z","","null","<img src=""img/flower3.png"" style=""width:200px; border:14px solid green;"">","null","","","","","","","","",""
"","image-keyboard-response","239","232970","0.0-239.0","31EUONYN2WPCA9AA3XUI0MBJVUCVOO","A2S6QOCFC3EAYH","382GHPVPHSDM8N0F9141EAH7F0K34Z","","285","img/flower6.png","75","290","2","1","1","2","1,0,0,1,1,0,1,0,1","0,1,0,0,1,1,1,1,0","3",""
"","html-keyboard-response","240","233278","0.0-240.0","31EUONYN2WPCA9AA3XUI0MBJVUCVOO","A2S6QOCFC3EAYH","382GHPVPHSDM8N0F9141EAH7F0K34Z","","null","<img src=""img/flower6.png"" style=""width:200px; border:14px solid green;"">","null","","","","","","","","",""
"","image-keyboard-response","241","233482","0.0-241.0","31EUONYN2WPCA9AA3XUI0MBJVUCVOO","A2S6QOCFC3EAYH","382GHPVPHSDM8N0F9141EAH7F0K34Z","","195","img/flower3.png","75","202","2","1","3","2","1,0,0,1,1,0,1,0,1","0,1,0,0,1,1,1,1,0","3",""
"","html-keyboard-response","242","233789","0.0-242.0","31EUONYN2WPCA9AA3XUI0MBJVUCVOO","A2S6QOCFC3EAYH","382GHPVPHSDM8N0F9141EAH7F0K34Z","","null","<img src=""img/flower3.png"" style=""width:200px; border:14px solid green;"">","null","","","","","","","","",""
"","image-keyboard-response","243","233901","0.0-243.0","31EUONYN2WPCA9AA3XUI0MBJVUCVOO","A2S6QOCFC3EAYH","382GHPVPHSDM8N0F9141EAH7F0K34Z","","105","img/flower3.png","75","110","2","1","3","2","1,0,0,1,1,0,1,0,1","0,1,0,0,1,1,1,1,0","3",""
"","html-keyboard-response","244","234207","0.0-244.0","31EUONYN2WPCA9AA3XUI0MBJVUCVOO","A2S6QOCFC3EAYH","382GHPVPHSDM8N0F9141EAH7F0K34Z","","null","<img src=""img/flower3.png"" style=""width:200px; border:14px solid green;"">","null","","","","","","","","",""
"","image-keyboard-response","245","234298","0.0-245.0","31EUONYN2WPCA9AA3XUI0MBJVUCVOO","A2S6QOCFC3EAYH","382GHPVPHSDM8N0F9141EAH7F0K34Z","","86","img/flower2.png","75","90","2","1","2","2","1,0,0,1,1,0,1,0,1","0,1,0,0,1,1,1,1,0","3",""
"","html-keyboard-response","246","234605","0.0-246.0","31EUONYN2WPCA9AA3XUI0MBJVUCVOO","A2S6QOCFC3EAYH","382GHPVPHSDM8N0F9141EAH7F0K34Z","","null","<img src=""img/flower2.png"" style=""width:200px; border:14px solid green;"">","null","","","","","","","","",""
"","image-keyboard-response","247","234825","0.0-247.0","31EUONYN2WPCA9AA3XUI0MBJVUCVOO","A2S6QOCFC3EAYH","382GHPVPHSDM8N0F9141EAH7F0K34Z","","213","img/flower6.png","75","218","2","1","1","2","1,0,0,1,1,0,1,0,1","0,1,0,0,1,1,1,1,0","3",""
"","html-keyboard-response","248","235132","0.0-248.0","31EUONYN2WPCA9AA3XUI0MBJVUCVOO","A2S6QOCFC3EAYH","382GHPVPHSDM8N0F9141EAH7F0K34Z","","null","<img src=""img/flower6.png"" style=""width:200px; border:14px solid green;"">","null","","","","","","","","",""
"","image-keyboard-response","249","235428","0.0-249.0","31EUONYN2WPCA9AA3XUI0MBJVUCVOO","A2S6QOCFC3EAYH","382GHPVPHSDM8N0F9141EAH7F0K34Z","","290","img/flower3.png","75","294","2","1","3","2","1,0,0,1,1,0,1,0,1","0,1,0,0,1,1,1,1,0","3",""
"","html-keyboard-response","250","235736","0.0-250.0","31EUONYN2WPCA9AA3XUI0MBJVUCVOO","A2S6QOCFC3EAYH","382GHPVPHSDM8N0F9141EAH7F0K34Z","","null","<img src=""img/flower3.png"" style=""width:200px; border:14px solid green;"">","null","","","","","","","","",""
"","image-keyboard-response","251","235937","0.0-251.0","31EUONYN2WPCA9AA3XUI0MBJVUCVOO","A2S6QOCFC3EAYH","382GHPVPHSDM8N0F9141EAH7F0K34Z","","194","img/flower6.png","75","200","2","1","1","2","1,0,0,1,1,0,1,0,1","0,1,0,0,1,1,1,1,0","3",""
"","html-keyboard-response","252","236243","0.0-252.0","31EUONYN2WPCA9AA3XUI0MBJVUCVOO","A2S6QOCFC3EAYH","382GHPVPHSDM8N0F9141EAH7F0K34Z","","null","<img src=""img/flower6.png"" style=""width:200px; border:14px solid green;"">","null","","","","","","","","",""
"","image-keyboard-response","253","236555","0.0-253.0","31EUONYN2WPCA9AA3XUI0MBJVUCVOO","A2S6QOCFC3EAYH","382GHPVPHSDM8N0F9141EAH7F0K34Z","","306","img/flower3.png","75","309","2","1","3","2","1,0,0,1,1,0,1,0,1","0,1,0,0,1,1,1,1,0","3",""
"","html-keyboard-response","254","236862","0.0-254.0","31EUONYN2WPCA9AA3XUI0MBJVUCVOO","A2S6QOCFC3EAYH","382GHPVPHSDM8N0F9141EAH7F0K34Z","","null","<img src=""img/flower3.png"" style=""width:200px; border:14px solid green;"">","null","","","","","","","","",""
"","image-keyboard-response","255","237083","0.0-255.0","31EUONYN2WPCA9AA3XUI0MBJVUCVOO","A2S6QOCFC3EAYH","382GHPVPHSDM8N0F9141EAH7F0K34Z","","215","img/flower2.png","75","218","2","1","2","2","1,0,0,1,1,0,1,0,1","0,1,0,0,1,1,1,1,0","3",""
"","html-keyboard-response","256","237390","0.0-256.0","31EUONYN2WPCA9AA3XUI0MBJVUCVOO","A2S6QOCFC3EAYH","382GHPVPHSDM8N0F9141EAH7F0K34Z","","null","<img src=""img/flower2.png"" style=""width:200px; border:14px solid green;"">","null","","","","","","","","",""
"","image-keyboard-response","257","237653","0.0-257.0","31EUONYN2WPCA9AA3XUI0MBJVUCVOO","A2S6QOCFC3EAYH","382GHPVPHSDM8N0F9141EAH7F0K34Z","","256","img/flower3.png","75","259","2","1","3","2","1,0,0,1,1,0,1,0,1","0,1,0,0,1,1,1,1,0","3",""
"","html-keyboard-response","258","237959","0.0-258.0","31EUONYN2WPCA9AA3XUI0MBJVUCVOO","A2S6QOCFC3EAYH","382GHPVPHSDM8N0F9141EAH7F0K34Z","","null","<img src=""img/flower3.png"" style=""width:200px; border:14px solid green;"">","null","","","","","","","","",""
"","image-keyboard-response","259","238195","0.0-259.0","31EUONYN2WPCA9AA3XUI0MBJVUCVOO","A2S6QOCFC3EAYH","382GHPVPHSDM8N0F9141EAH7F0K34Z","","230","img/flower2.png","75","234","2","1","2","2","1,0,0,1,1,0,1,0,1","0,1,0,0,1,1,1,1,0","3",""
"","html-keyboard-response","260","238501","0.0-260.0","31EUONYN2WPCA9AA3XUI0MBJVUCVOO","A2S6QOCFC3EAYH","382GHPVPHSDM8N0F9141EAH7F0K34Z","","null","<img src=""img/flower2.png"" style=""width:200px; border:14px solid green;"">","null","","","","","","","","",""
"","image-keyboard-response","261","238798","0.0-261.0","31EUONYN2WPCA9AA3XUI0MBJVUCVOO","A2S6QOCFC3EAYH","382GHPVPHSDM8N0F9141EAH7F0K34Z","","291","img/flower6.png","75","295","2","1","1","2","1,0,0,1,1,0,1,0,1","0,1,0,0,1,1,1,1,0","3",""
"","html-keyboard-response","262","239105","0.0-262.0","31EUONYN2WPCA9AA3XUI0MBJVUCVOO","A2S6QOCFC3EAYH","382GHPVPHSDM8N0F9141EAH7F0K34Z","","null","<img src=""img/flower6.png"" style=""width:200px; border:14px solid green;"">","null","","","","","","","","",""
"","image-keyboard-response","263","239368","0.0-263.0","31EUONYN2WPCA9AA3XUI0MBJVUCVOO","A2S6QOCFC3EAYH","382GHPVPHSDM8N0F9141EAH7F0K34Z","","258","img/flower2.png","75","261","2","1","2","2","1,0,0,1,1,0,1,0,1","0,1,0,0,1,1,1,1,0","3",""
"","html-keyboard-response","264","239676","0.0-264.0","31EUONYN2WPCA9AA3XUI0MBJVUCVOO","A2S6QOCFC3EAYH","382GHPVPHSDM8N0F9141EAH7F0K34Z","","null","<img src=""img/flower2.png"" style=""width:200px; border:14px solid green;"">","null","","","","","","","","",""
"","image-keyboard-response","265","239915","0.0-265.0","31EUONYN2WPCA9AA3XUI0MBJVUCVOO","A2S6QOCFC3EAYH","382GHPVPHSDM8N0F9141EAH7F0K34Z","","234","img/flower3.png","75","237","2","1","3","2","1,0,0,1,1,0,1,0,1","0,1,0,0,1,1,1,1,0","3",""
"","html-keyboard-response","266","240221","0.0-266.0","31EUONYN2WPCA9AA3XUI0MBJVUCVOO","A2S6QOCFC3EAYH","382GHPVPHSDM8N0F9141EAH7F0K34Z","","null","<img src=""img/flower3.png"" style=""width:200px; border:14px solid green;"">","null","","","","","","","","",""
"","image-keyboard-response","267","240443","0.0-267.0","31EUONYN2WPCA9AA3XUI0MBJVUCVOO","A2S6QOCFC3EAYH","382GHPVPHSDM8N0F9141EAH7F0K34Z","","216","img/flower2.png","75","219","2","1","2","2","1,0,0,1,1,0,1,0,1","0,1,0,0,1,1,1,1,0","3",""
"","html-keyboard-response","268","240761","0.0-268.0","31EUONYN2WPCA9AA3XUI0MBJVUCVOO","A2S6QOCFC3EAYH","382GHPVPHSDM8N0F9141EAH7F0K34Z","","null","<img src=""img/flower2.png"" style=""width:200px; border:14px solid green;"">","null","","","","","","","","",""
"","image-keyboard-response","269","240969","0.0-269.0","31EUONYN2WPCA9AA3XUI0MBJVUCVOO","A2S6QOCFC3EAYH","382GHPVPHSDM8N0F9141EAH7F0K34Z","","203","img/flower2.png","75","207","2","1","2","2","1,0,0,1,1,0,1,0,1","0,1,0,0,1,1,1,1,0","3",""
"","html-keyboard-response","270","241277","0.0-270.0","31EUONYN2WPCA9AA3XUI0MBJVUCVOO","A2S6QOCFC3EAYH","382GHPVPHSDM8N0F9141EAH7F0K34Z","","null","<img src=""img/flower2.png"" style=""width:200px; border:14px solid green;"">","null","","","","","","","","",""
"","image-keyboard-response","271","241457","0.0-271.0","31EUONYN2WPCA9AA3XUI0MBJVUCVOO","A2S6QOCFC3EAYH","382GHPVPHSDM8N0F9141EAH7F0K34Z","","174","img/flower6.png","75","177","2","1","1","2","1,0,0,1,1,0,1,0,1","0,1,0,0,1,1,1,1,0","3",""
"","html-keyboard-response","272","241764","0.0-272.0","31EUONYN2WPCA9AA3XUI0MBJVUCVOO","A2S6QOCFC3EAYH","382GHPVPHSDM8N0F9141EAH7F0K34Z","","null","<img src=""img/flower6.png"" style=""width:200px; border:14px solid green;"">","null","","","","","","","","",""
"","image-keyboard-response","273","242043","0.0-273.0","31EUONYN2WPCA9AA3XUI0MBJVUCVOO","A2S6QOCFC3EAYH","382GHPVPHSDM8N0F9141EAH7F0K34Z","","275","img/flower3.png","75","276","2","1","3","2","1,0,0,1,1,0,1,0,1","0,1,0,0,1,1,1,1,0","3",""
"","html-keyboard-response","274","242363","0.0-274.0","31EUONYN2WPCA9AA3XUI0MBJVUCVOO","A2S6QOCFC3EAYH","382GHPVPHSDM8N0F9141EAH7F0K34Z","","null","<img src=""img/flower3.png"" style=""width:200px; border:14px solid green;"">","null","","","","","","","","",""
"","image-keyboard-response","275","242522","0.0-275.0","31EUONYN2WPCA9AA3XUI0MBJVUCVOO","A2S6QOCFC3EAYH","382GHPVPHSDM8N0F9141EAH7F0K34Z","","154","img/flower2.png","75","158","2","1","2","2","1,0,0,1,1,0,1,0,1","0,1,0,0,1,1,1,1,0","3",""
"","html-keyboard-response","276","242828","0.0-276.0","31EUONYN2WPCA9AA3XUI0MBJVUCVOO","A2S6QOCFC3EAYH","382GHPVPHSDM8N0F9141EAH7F0K34Z","","null","<img src=""img/flower2.png"" style=""width:200px; border:14px solid green;"">","null","","","","","","","","",""
"","image-keyboard-response","277","243043","0.0-277.0","31EUONYN2WPCA9AA3XUI0MBJVUCVOO","A2S6QOCFC3EAYH","382GHPVPHSDM8N0F9141EAH7F0K34Z","","210","img/flower3.png","75","214","2","1","3","2","1,0,0,1,1,0,1,0,1","0,1,0,0,1,1,1,1,0","3",""
"","html-keyboard-response","278","243349","0.0-278.0","31EUONYN2WPCA9AA3XUI0MBJVUCVOO","A2S6QOCFC3EAYH","382GHPVPHSDM8N0F9141EAH7F0K34Z","","null","<img src=""img/flower3.png"" style=""width:200px; border:14px solid green;"">","null","","","","","","","","",""
"","image-keyboard-response","279","243479","0.0-279.0","31EUONYN2WPCA9AA3XUI0MBJVUCVOO","A2S6QOCFC3EAYH","382GHPVPHSDM8N0F9141EAH7F0K34Z","","126","img/flower6.png","75","128","2","1","1","2","1,0,0,1,1,0,1,0,1","0,1,0,0,1,1,1,1,0","3",""
"","html-keyboard-response","280","243785","0.0-280.0","31EUONYN2WPCA9AA3XUI0MBJVUCVOO","A2S6QOCFC3EAYH","382GHPVPHSDM8N0F9141EAH7F0K34Z","","null","<img src=""img/flower6.png"" style=""width:200px; border:14px solid green;"">","null","","","","","","","","",""
"","image-keyboard-response","281","243943","0.0-281.0","31EUONYN2WPCA9AA3XUI0MBJVUCVOO","A2S6QOCFC3EAYH","382GHPVPHSDM8N0F9141EAH7F0K34Z","","154","img/flower6.png","75","157","2","1","1","2","1,0,0,1,1,0,1,0,1","0,1,0,0,1,1,1,1,0","3",""
"","html-keyboard-response","282","244250","0.0-282.0","31EUONYN2WPCA9AA3XUI0MBJVUCVOO","A2S6QOCFC3EAYH","382GHPVPHSDM8N0F9141EAH7F0K34Z","","null","<img src=""img/flower6.png"" style=""width:200px; border:14px solid green;"">","null","","","","","","","","",""
"","image-keyboard-response","283","244386","0.0-283.0","31EUONYN2WPCA9AA3XUI0MBJVUCVOO","A2S6QOCFC3EAYH","382GHPVPHSDM8N0F9141EAH7F0K34Z","","131","img/flower3.png","75","135","2","1","3","2","1,0,0,1,1,0,1,0,1","0,1,0,0,1,1,1,1,0","3",""
"","html-keyboard-response","284","244693","0.0-284.0","31EUONYN2WPCA9AA3XUI0MBJVUCVOO","A2S6QOCFC3EAYH","382GHPVPHSDM8N0F9141EAH7F0K34Z","","null","<img src=""img/flower3.png"" style=""width:200px; border:14px solid green;"">","null","","","","","","","","",""
"","image-keyboard-response","285","244797","0.0-285.0","31EUONYN2WPCA9AA3XUI0MBJVUCVOO","A2S6QOCFC3EAYH","382GHPVPHSDM8N0F9141EAH7F0K34Z","","98","img/flower3.png","75","102","2","1","3","2","1,0,0,1,1,0,1,0,1","0,1,0,0,1,1,1,1,0","3",""
"","html-keyboard-response","286","245103","0.0-286.0","31EUONYN2WPCA9AA3XUI0MBJVUCVOO","A2S6QOCFC3EAYH","382GHPVPHSDM8N0F9141EAH7F0K34Z","","null","<img src=""img/flower3.png"" style=""width:200px; border:14px solid green;"">","null","","","","","","","","",""
"","image-keyboard-response","287","245145","0.0-287.0","31EUONYN2WPCA9AA3XUI0MBJVUCVOO","A2S6QOCFC3EAYH","382GHPVPHSDM8N0F9141EAH7F0K34Z","","37","img/flower6.png","75","40","2","1","1","2","1,0,0,1,1,0,1,0,1","0,1,0,0,1,1,1,1,0","3",""
"","html-keyboard-response","288","245451","0.0-288.0","31EUONYN2WPCA9AA3XUI0MBJVUCVOO","A2S6QOCFC3EAYH","382GHPVPHSDM8N0F9141EAH7F0K34Z","","null","<img src=""img/flower6.png"" style=""width:200px; border:14px solid green;"">","null","","","","","","","","",""
"","image-keyboard-response","289","245502","0.0-289.0","31EUONYN2WPCA9AA3XUI0MBJVUCVOO","A2S6QOCFC3EAYH","382GHPVPHSDM8N0F9141EAH7F0K34Z","","45","img/flower2.png","75","48","2","1","2","2","1,0,0,1,1,0,1,0,1","0,1,0,0,1,1,1,1,0","3",""
"","html-keyboard-response","290","245807","0.0-290.0","31EUONYN2WPCA9AA3XUI0MBJVUCVOO","A2S6QOCFC3EAYH","382GHPVPHSDM8N0F9141EAH7F0K34Z","","null","<img src=""img/flower2.png"" style=""width:200px; border:14px solid green;"">","null","","","","","","","","",""
"","image-keyboard-response","291","245838","0.0-291.0","31EUONYN2WPCA9AA3XUI0MBJVUCVOO","A2S6QOCFC3EAYH","382GHPVPHSDM8N0F9141EAH7F0K34Z","","26","img/flower6.png","75","28","2","1","1","2","1,0,0,1,1,0,1,0,1","0,1,0,0,1,1,1,1,0","3",""
"","html-keyboard-response","292","246143","0.0-292.0","31EUONYN2WPCA9AA3XUI0MBJVUCVOO","A2S6QOCFC3EAYH","382GHPVPHSDM8N0F9141EAH7F0K34Z","","null","<img src=""img/flower6.png"" style=""width:200px; border:14px solid green;"">","null","","","","","","","","",""
"","image-keyboard-response","293","246204","0.0-293.0","31EUONYN2WPCA9AA3XUI0MBJVUCVOO","A2S6QOCFC3EAYH","382GHPVPHSDM8N0F9141EAH7F0K34Z","","55","img/flower6.png","75","59","2","1","1","2","1,0,0,1,1,0,1,0,1","0,1,0,0,1,1,1,1,0","3",""
"","html-keyboard-response","294","246510","0.0-294.0","31EUONYN2WPCA9AA3XUI0MBJVUCVOO","A2S6QOCFC3EAYH","382GHPVPHSDM8N0F9141EAH7F0K34Z","","null","<img src=""img/flower6.png"" style=""width:200px; border:14px solid green;"">","null","","","","","","","","",""
"","image-keyboard-response","295","246586","0.0-295.0","31EUONYN2WPCA9AA3XUI0MBJVUCVOO","A2S6QOCFC3EAYH","382GHPVPHSDM8N0F9141EAH7F0K34Z","","71","img/flower2.png","75","74","2","1","2","2","1,0,0,1,1,0,1,0,1","0,1,0,0,1,1,1,1,0","3",""
"","html-keyboard-response","296","246892","0.0-296.0","31EUONYN2WPCA9AA3XUI0MBJVUCVOO","A2S6QOCFC3EAYH","382GHPVPHSDM8N0F9141EAH7F0K34Z","","null","<img src=""img/flower2.png"" style=""width:200px; border:14px solid green;"">","null","","","","","","","","",""
"","image-keyboard-response","297","246975","0.0-297.0","31EUONYN2WPCA9AA3XUI0MBJVUCVOO","A2S6QOCFC3EAYH","382GHPVPHSDM8N0F9141EAH7F0K34Z","","78","img/flower6.png","75","82","2","1","1","2","1,0,0,1,1,0,1,0,1","0,1,0,0,1,1,1,1,0","3",""
"","html-keyboard-response","298","247281","0.0-298.0","31EUONYN2WPCA9AA3XUI0MBJVUCVOO","A2S6QOCFC3EAYH","382GHPVPHSDM8N0F9141EAH7F0K34Z","","null","<img src=""img/flower6.png"" style=""width:200px; border:14px solid green;"">","null","","","","","","","","",""
"","image-keyboard-response","299","247345","0.0-299.0","31EUONYN2WPCA9AA3XUI0MBJVUCVOO","A2S6QOCFC3EAYH","382GHPVPHSDM8N0F9141EAH7F0K34Z","","58","img/flower6.png","75","63","2","1","1","2","1,0,0,1,1,0,1,0,1","0,1,0,0,1,1,1,1,0","3",""
"","html-keyboard-response","300","247651","0.0-300.0","31EUONYN2WPCA9AA3XUI0MBJVUCVOO","A2S6QOCFC3EAYH","382GHPVPHSDM8N0F9141EAH7F0K34Z","","null","<img src=""img/flower6.png"" style=""width:200px; border:14px solid green;"">","null","","","","","","","","",""
"","image-keyboard-response","301","247720","0.0-301.0","31EUONYN2WPCA9AA3XUI0MBJVUCVOO","A2S6QOCFC3EAYH","382GHPVPHSDM8N0F9141EAH7F0K34Z","","64","img/flower6.png","75","67","2","1","1","2","1,0,0,1,1,0,1,0,1","0,1,0,0,1,1,1,1,0","3",""
"","html-keyboard-response","302","248026","0.0-302.0","31EUONYN2WPCA9AA3XUI0MBJVUCVOO","A2S6QOCFC3EAYH","382GHPVPHSDM8N0F9141EAH7F0K34Z","","null","<img src=""img/flower6.png"" style=""width:200px; border:14px solid green;"">","null","","","","","","","","",""
"","image-keyboard-response","303","248091","0.0-303.0","31EUONYN2WPCA9AA3XUI0MBJVUCVOO","A2S6QOCFC3EAYH","382GHPVPHSDM8N0F9141EAH7F0K34Z","","59","img/flower2.png","75","62","2","1","2","2","1,0,0,1,1,0,1,0,1","0,1,0,0,1,1,1,1,0","3",""
"","html-keyboard-response","304","248396","0.0-304.0","31EUONYN2WPCA9AA3XUI0MBJVUCVOO","A2S6QOCFC3EAYH","382GHPVPHSDM8N0F9141EAH7F0K34Z","","null","<img src=""img/flower2.png"" style=""width:200px; border:14px solid green;"">","null","","","","","","","","",""
"","image-keyboard-response","305","248437","0.0-305.0","31EUONYN2WPCA9AA3XUI0MBJVUCVOO","A2S6QOCFC3EAYH","382GHPVPHSDM8N0F9141EAH7F0K34Z","","34","img/flower2.png","75","39","2","1","2","2","1,0,0,1,1,0,1,0,1","0,1,0,0,1,1,1,1,0","3",""
"","html-keyboard-response","306","248743","0.0-306.0","31EUONYN2WPCA9AA3XUI0MBJVUCVOO","A2S6QOCFC3EAYH","382GHPVPHSDM8N0F9141EAH7F0K34Z","","null","<img src=""img/flower2.png"" style=""width:200px; border:14px solid green;"">","null","","","","","","","","",""
"","image-keyboard-response","307","248797","0.0-307.0","31EUONYN2WPCA9AA3XUI0MBJVUCVOO","A2S6QOCFC3EAYH","382GHPVPHSDM8N0F9141EAH7F0K34Z","","49","img/flower2.png","75","53","2","1","2","2","1,0,0,1,1,0,1,0,1","0,1,0,0,1,1,1,1,0","3",""
"","html-keyboard-response","308","249104","0.0-308.0","31EUONYN2WPCA9AA3XUI0MBJVUCVOO","A2S6QOCFC3EAYH","382GHPVPHSDM8N0F9141EAH7F0K34Z","","null","<img src=""img/flower2.png"" style=""width:200px; border:14px solid green;"">","null","","","","","","","","",""
"","image-keyboard-response","309","250079","0.0-309.0","31EUONYN2WPCA9AA3XUI0MBJVUCVOO","A2S6QOCFC3EAYH","382GHPVPHSDM8N0F9141EAH7F0K34Z","","969","img/flower6.png","75","973","2","1","1","2","1,0,0,1,1,0,1,0,1","0,1,0,0,1,1,1,1,0","3",""
"","html-keyboard-response","310","250388","0.0-310.0","31EUONYN2WPCA9AA3XUI0MBJVUCVOO","A2S6QOCFC3EAYH","382GHPVPHSDM8N0F9141EAH7F0K34Z","","null","<img src=""img/flower6.png"" style=""width:200px; border:14px solid green;"">","null","","","","","","","","",""
"","image-keyboard-response","311","250498","0.0-311.0","31EUONYN2WPCA9AA3XUI0MBJVUCVOO","A2S6QOCFC3EAYH","382GHPVPHSDM8N0F9141EAH7F0K34Z","","106","img/flower3.png","75","109","2","1","3","2","1,0,0,1,1,0,1,0,1","0,1,0,0,1,1,1,1,0","3",""
"","html-keyboard-response","312","250805","0.0-312.0","31EUONYN2WPCA9AA3XUI0MBJVUCVOO","A2S6QOCFC3EAYH","382GHPVPHSDM8N0F9141EAH7F0K34Z","","null","<img src=""img/flower3.png"" style=""width:200px; border:14px solid green;"">","null","","","","","","","","",""
"","image-keyboard-response","313","250838","0.0-313.0","31EUONYN2WPCA9AA3XUI0MBJVUCVOO","A2S6QOCFC3EAYH","382GHPVPHSDM8N0F9141EAH7F0K34Z","","29","img/flower3.png","75","32","2","1","3","2","1,0,0,1,1,0,1,0,1","0,1,0,0,1,1,1,1,0","3",""
"","html-keyboard-response","314","251145","0.0-314.0","31EUONYN2WPCA9AA3XUI0MBJVUCVOO","A2S6QOCFC3EAYH","382GHPVPHSDM8N0F9141EAH7F0K34Z","","null","<img src=""img/flower3.png"" style=""width:200px; border:14px solid green;"">","null","","","","","","","","",""
"","image-keyboard-response","315","251443","0.0-315.0","31EUONYN2WPCA9AA3XUI0MBJVUCVOO","A2S6QOCFC3EAYH","382GHPVPHSDM8N0F9141EAH7F0K34Z","","292","img/flower2.png","75","295","2","1","2","2","1,0,0,1,1,0,1,0,1","0,1,0,0,1,1,1,1,0","3",""
"","html-keyboard-response","316","251749","0.0-316.0","31EUONYN2WPCA9AA3XUI0MBJVUCVOO","A2S6QOCFC3EAYH","382GHPVPHSDM8N0F9141EAH7F0K34Z","","null","<img src=""img/flower2.png"" style=""width:200px; border:14px solid green;"">","null","","","","","","","","",""
"","image-keyboard-response","317","251814","0.0-317.0","31EUONYN2WPCA9AA3XUI0MBJVUCVOO","A2S6QOCFC3EAYH","382GHPVPHSDM8N0F9141EAH7F0K34Z","","60","img/flower6.png","75","64","2","1","1","2","1,0,0,1,1,0,1,0,1","0,1,0,0,1,1,1,1,0","3",""
"","html-keyboard-response","318","252124","0.0-318.0","31EUONYN2WPCA9AA3XUI0MBJVUCVOO","A2S6QOCFC3EAYH","382GHPVPHSDM8N0F9141EAH7F0K34Z","","null","<img src=""img/flower6.png"" style=""width:200px; border:14px solid green;"">","null","","","","","","","","",""
"","image-keyboard-response","319","252151","0.0-319.0","31EUONYN2WPCA9AA3XUI0MBJVUCVOO","A2S6QOCFC3EAYH","382GHPVPHSDM8N0F9141EAH7F0K34Z","","21","img/flower2.png","75","24","2","1","2","2","1,0,0,1,1,0,1,0,1","0,1,0,0,1,1,1,1,0","3",""
"","html-keyboard-response","320","252456","0.0-320.0","31EUONYN2WPCA9AA3XUI0MBJVUCVOO","A2S6QOCFC3EAYH","382GHPVPHSDM8N0F9141EAH7F0K34Z","","null","<img src=""img/flower2.png"" style=""width:200px; border:14px solid green;"">","null","","","","","","","","",""
"","image-keyboard-response","321","252488","0.0-321.0","31EUONYN2WPCA9AA3XUI0MBJVUCVOO","A2S6QOCFC3EAYH","382GHPVPHSDM8N0F9141EAH7F0K34Z","","26","img/flower3.png","75","30","2","1","3","2","1,0,0,1,1,0,1,0,1","0,1,0,0,1,1,1,1,0","3",""
"","html-keyboard-response","322","252798","0.0-322.0","31EUONYN2WPCA9AA3XUI0MBJVUCVOO","A2S6QOCFC3EAYH","382GHPVPHSDM8N0F9141EAH7F0K34Z","","null","<img src=""img/flower3.png"" style=""width:200px; border:14px solid green;"">","null","","","","","","","","",""
"","image-keyboard-response","323","252840","0.0-323.0","31EUONYN2WPCA9AA3XUI0MBJVUCVOO","A2S6QOCFC3EAYH","382GHPVPHSDM8N0F9141EAH7F0K34Z","","35","img/flower2.png","75","40","2","1","2","2","1,0,0,1,1,0,1,0,1","0,1,0,0,1,1,1,1,0","3",""
"","html-keyboard-response","324","253146","0.0-324.0","31EUONYN2WPCA9AA3XUI0MBJVUCVOO","A2S6QOCFC3EAYH","382GHPVPHSDM8N0F9141EAH7F0K34Z","","null","<img src=""img/flower2.png"" style=""width:200px; border:14px solid green;"">","null","","","","","","","","",""
"","image-keyboard-response","325","253209","0.0-325.0","31EUONYN2WPCA9AA3XUI0MBJVUCVOO","A2S6QOCFC3EAYH","382GHPVPHSDM8N0F9141EAH7F0K34Z","","57","img/flower2.png","75","62","2","1","2","2","1,0,0,1,1,0,1,0,1","0,1,0,0,1,1,1,1,0","3",""
"","html-keyboard-response","326","253517","0.0-326.0","31EUONYN2WPCA9AA3XUI0MBJVUCVOO","A2S6QOCFC3EAYH","382GHPVPHSDM8N0F9141EAH7F0K34Z","","null","<img src=""img/flower2.png"" style=""width:200px; border:14px solid green;"">","null","","","","","","","","",""
"","image-keyboard-response","327","253579","0.0-327.0","31EUONYN2WPCA9AA3XUI0MBJVUCVOO","A2S6QOCFC3EAYH","382GHPVPHSDM8N0F9141EAH7F0K34Z","","56","img/flower3.png","75","59","2","1","3","2","1,0,0,1,1,0,1,0,1","0,1,0,0,1,1,1,1,0","3",""
"","html-keyboard-response","328","253885","0.0-328.0","31EUONYN2WPCA9AA3XUI0MBJVUCVOO","A2S6QOCFC3EAYH","382GHPVPHSDM8N0F9141EAH7F0K34Z","","null","<img src=""img/flower3.png"" style=""width:200px; border:14px solid green;"">","null","","","","","","","","",""
"","image-keyboard-response","329","253946","0.0-329.0","31EUONYN2WPCA9AA3XUI0MBJVUCVOO","A2S6QOCFC3EAYH","382GHPVPHSDM8N0F9141EAH7F0K34Z","","55","img/flower3.png","75","59","2","1","3","2","1,0,0,1,1,0,1,0,1","0,1,0,0,1,1,1,1,0","3",""
"","html-keyboard-response","330","254252","0.0-330.0","31EUONYN2WPCA9AA3XUI0MBJVUCVOO","A2S6QOCFC3EAYH","382GHPVPHSDM8N0F9141EAH7F0K34Z","","null","<img src=""img/flower3.png"" style=""width:200px; border:14px solid green;"">","null","","","","","","","","",""
"","image-keyboard-response","331","254350","0.0-331.0","31EUONYN2WPCA9AA3XUI0MBJVUCVOO","A2S6QOCFC3EAYH","382GHPVPHSDM8N0F9141EAH7F0K34Z","","92","img/flower3.png","75","96","2","1","3","2","1,0,0,1,1,0,1,0,1","0,1,0,0,1,1,1,1,0","3",""
"","html-keyboard-response","332","254657","0.0-332.0","31EUONYN2WPCA9AA3XUI0MBJVUCVOO","A2S6QOCFC3EAYH","382GHPVPHSDM8N0F9141EAH7F0K34Z","","null","<img src=""img/flower3.png"" style=""width:200px; border:14px solid green;"">","null","","","","","","","","",""
"","image-keyboard-response","333","254737","0.0-333.0","31EUONYN2WPCA9AA3XUI0MBJVUCVOO","A2S6QOCFC3EAYH","382GHPVPHSDM8N0F9141EAH7F0K34Z","","74","img/flower3.png","75","78","2","1","3","2","1,0,0,1,1,0,1,0,1","0,1,0,0,1,1,1,1,0","3",""
"","html-keyboard-response","334","255043","0.0-334.0","31EUONYN2WPCA9AA3XUI0MBJVUCVOO","A2S6QOCFC3EAYH","382GHPVPHSDM8N0F9141EAH7F0K34Z","","null","<img src=""img/flower3.png"" style=""width:200px; border:14px solid green;"">","null","","","","","","","","",""
"","image-keyboard-response","335","255106","0.0-335.0","31EUONYN2WPCA9AA3XUI0MBJVUCVOO","A2S6QOCFC3EAYH","382GHPVPHSDM8N0F9141EAH7F0K34Z","","56","img/flower6.png","75","61","2","1","1","2","1,0,0,1,1,0,1,0,1","0,1,0,0,1,1,1,1,0","3",""
"","html-keyboard-response","336","255412","0.0-336.0","31EUONYN2WPCA9AA3XUI0MBJVUCVOO","A2S6QOCFC3EAYH","382GHPVPHSDM8N0F9141EAH7F0K34Z","","null","<img src=""img/flower6.png"" style=""width:200px; border:14px solid green;"">","null","","","","","","","","",""
"","image-keyboard-response","337","255473","0.0-337.0","31EUONYN2WPCA9AA3XUI0MBJVUCVOO","A2S6QOCFC3EAYH","382GHPVPHSDM8N0F9141EAH7F0K34Z","","54","img/flower2.png","75","58","2","1","2","2","1,0,0,1,1,0,1,0,1","0,1,0,0,1,1,1,1,0","3",""
"","html-keyboard-response","338","255779","0.0-338.0","31EUONYN2WPCA9AA3XUI0MBJVUCVOO","A2S6QOCFC3EAYH","382GHPVPHSDM8N0F9141EAH7F0K34Z","","null","<img src=""img/flower2.png"" style=""width:200px; border:14px solid green;"">","null","","","","","","","","",""
"","image-keyboard-response","339","255855","0.0-339.0","31EUONYN2WPCA9AA3XUI0MBJVUCVOO","A2S6QOCFC3EAYH","382GHPVPHSDM8N0F9141EAH7F0K34Z","","70","img/flower6.png","75","74","2","1","1","2","1,0,0,1,1,0,1,0,1","0,1,0,0,1,1,1,1,0","3",""
"","html-keyboard-response","340","256163","0.0-340.0","31EUONYN2WPCA9AA3XUI0MBJVUCVOO","A2S6QOCFC3EAYH","382GHPVPHSDM8N0F9141EAH7F0K34Z","","null","<img src=""img/flower6.png"" style=""width:200px; border:14px solid green;"">","null","","","","","","","","",""
"","image-keyboard-response","341","256230","0.0-341.0","31EUONYN2WPCA9AA3XUI0MBJVUCVOO","A2S6QOCFC3EAYH","382GHPVPHSDM8N0F9141EAH7F0K34Z","","61","img/flower3.png","75","65","2","1","3","2","1,0,0,1,1,0,1,0,1","0,1,0,0,1,1,1,1,0","3",""
"","html-keyboard-response","342","256537","0.0-342.0","31EUONYN2WPCA9AA3XUI0MBJVUCVOO","A2S6QOCFC3EAYH","382GHPVPHSDM8N0F9141EAH7F0K34Z","","null","<img src=""img/flower3.png"" style=""width:200px; border:14px solid green;"">","null","","","","","","","","",""
"","image-keyboard-response","343","256583","0.0-343.0","31EUONYN2WPCA9AA3XUI0MBJVUCVOO","A2S6QOCFC3EAYH","382GHPVPHSDM8N0F9141EAH7F0K34Z","","41","img/flower6.png","75","45","2","1","1","2","1,0,0,1,1,0,1,0,1","0,1,0,0,1,1,1,1,0","3",""
"","html-keyboard-response","344","256890","0.0-344.0","31EUONYN2WPCA9AA3XUI0MBJVUCVOO","A2S6QOCFC3EAYH","382GHPVPHSDM8N0F9141EAH7F0K34Z","","null","<img src=""img/flower6.png"" style=""width:200px; border:14px solid green;"">","null","","","","","","","","",""
"","image-keyboard-response","345","256916","0.0-345.0","31EUONYN2WPCA9AA3XUI0MBJVUCVOO","A2S6QOCFC3EAYH","382GHPVPHSDM8N0F9141EAH7F0K34Z","","18","img/flower2.png","75","22","2","1","2","2","1,0,0,1,1,0,1,0,1","0,1,0,0,1,1,1,1,0","3",""
"","html-keyboard-response","346","257222","0.0-346.0","31EUONYN2WPCA9AA3XUI0MBJVUCVOO","A2S6QOCFC3EAYH","382GHPVPHSDM8N0F9141EAH7F0K34Z","","null","<img src=""img/flower2.png"" style=""width:200px; border:14px solid green;"">","null","","","","","","","","",""
"","image-keyboard-response","347","257270","0.0-347.0","31EUONYN2WPCA9AA3XUI0MBJVUCVOO","A2S6QOCFC3EAYH","382GHPVPHSDM8N0F9141EAH7F0K34Z","","41","img/flower3.png","75","45","2","1","3","2","1,0,0,1,1,0,1,0,1","0,1,0,0,1,1,1,1,0","3",""
"","html-keyboard-response","348","257575","0.0-348.0","31EUONYN2WPCA9AA3XUI0MBJVUCVOO","A2S6QOCFC3EAYH","382GHPVPHSDM8N0F9141EAH7F0K34Z","","null","<img src=""img/flower3.png"" style=""width:200px; border:14px solid green;"">","null","","","","","","","","",""
"","image-keyboard-response","349","257601","0.0-349.0","31EUONYN2WPCA9AA3XUI0MBJVUCVOO","A2S6QOCFC3EAYH","382GHPVPHSDM8N0F9141EAH7F0K34Z","","21","img/flower2.png","75","23","2","1","2","2","1,0,0,1,1,0,1,0,1","0,1,0,0,1,1,1,1,0","3",""
"","html-keyboard-response","350","257907","0.0-350.0","31EUONYN2WPCA9AA3XUI0MBJVUCVOO","A2S6QOCFC3EAYH","382GHPVPHSDM8N0F9141EAH7F0K34Z","","null","<img src=""img/flower2.png"" style=""width:200px; border:14px solid green;"">","null","","","","","","","","",""
"","image-keyboard-response","351","257924","0.0-351.0","31EUONYN2WPCA9AA3XUI0MBJVUCVOO","A2S6QOCFC3EAYH","382GHPVPHSDM8N0F9141EAH7F0K34Z","","12","img/flower3.png","75","16","2","1","3","2","1,0,0,1,1,0,1,0,1","0,1,0,0,1,1,1,1,0","3",""
"","html-keyboard-response","352","258233","0.0-352.0","31EUONYN2WPCA9AA3XUI0MBJVUCVOO","A2S6QOCFC3EAYH","382GHPVPHSDM8N0F9141EAH7F0K34Z","","null","<img src=""img/flower3.png"" style=""width:200px; border:14px solid green;"">","null","","","","","","","","",""
"","image-keyboard-response","353","258277","0.0-353.0","31EUONYN2WPCA9AA3XUI0MBJVUCVOO","A2S6QOCFC3EAYH","382GHPVPHSDM8N0F9141EAH7F0K34Z","","38","img/flower6.png","75","42","2","1","1","2","1,0,0,1,1,0,1,0,1","0,1,0,0,1,1,1,1,0","3",""
"","html-keyboard-response","354","258583","0.0-354.0","31EUONYN2WPCA9AA3XUI0MBJVUCVOO","A2S6QOCFC3EAYH","382GHPVPHSDM8N0F9141EAH7F0K34Z","","null","<img src=""img/flower6.png"" style=""width:200px; border:14px solid green;"">","null","","","","","","","","",""
"","image-keyboard-response","355","258598","0.0-355.0","31EUONYN2WPCA9AA3XUI0MBJVUCVOO","A2S6QOCFC3EAYH","382GHPVPHSDM8N0F9141EAH7F0K34Z","","9","img/flower3.png","75","12","2","1","3","2","1,0,0,1,1,0,1,0,1","0,1,0,0,1,1,1,1,0","3",""
"","html-keyboard-response","356","258917","0.0-356.0","31EUONYN2WPCA9AA3XUI0MBJVUCVOO","A2S6QOCFC3EAYH","382GHPVPHSDM8N0F9141EAH7F0K34Z","","null","<img src=""img/flower3.png"" style=""width:200px; border:14px solid green;"">","null","","","","","","","","",""
"","image-keyboard-response","357","259247","0.0-357.0","31EUONYN2WPCA9AA3XUI0MBJVUCVOO","A2S6QOCFC3EAYH","382GHPVPHSDM8N0F9141EAH7F0K34Z","","325","img/flower6.png","75","328","2","1","1","2","1,0,0,1,1,0,1,0,1","0,1,0,0,1,1,1,1,0","3",""
"","html-keyboard-response","358","259554","0.0-358.0","31EUONYN2WPCA9AA3XUI0MBJVUCVOO","A2S6QOCFC3EAYH","382GHPVPHSDM8N0F9141EAH7F0K34Z","","null","<img src=""img/flower6.png"" style=""width:200px; border:14px solid green;"">","null","","","","","","","","",""
"","image-keyboard-response","359","259856","0.0-359.0","31EUONYN2WPCA9AA3XUI0MBJVUCVOO","A2S6QOCFC3EAYH","382GHPVPHSDM8N0F9141EAH7F0K34Z","","296","img/flower2.png","75","300","2","1","2","2","1,0,0,1,1,0,1,0,1","0,1,0,0,1,1,1,1,0","3",""
"","html-keyboard-response","360","260161","0.0-360.0","31EUONYN2WPCA9AA3XUI0MBJVUCVOO","A2S6QOCFC3EAYH","382GHPVPHSDM8N0F9141EAH7F0K34Z","","null","<img src=""img/flower2.png"" style=""width:200px; border:14px solid green;"">","null","","","","","","","","",""
"","image-keyboard-response","361","260472","0.0-361.0","31EUONYN2WPCA9AA3XUI0MBJVUCVOO","A2S6QOCFC3EAYH","382GHPVPHSDM8N0F9141EAH7F0K34Z","","305","img/flower2.png","75","309","2","1","2","2","1,0,0,1,1,0,1,0,1","0,1,0,0,1,1,1,1,0","3",""
"","html-keyboard-response","362","260778","0.0-362.0","31EUONYN2WPCA9AA3XUI0MBJVUCVOO","A2S6QOCFC3EAYH","382GHPVPHSDM8N0F9141EAH7F0K34Z","","null","<img src=""img/flower2.png"" style=""width:200px; border:14px solid green;"">","null","","","","","","","","",""
"","instructions","363","264206","0.0-363.0","31EUONYN2WPCA9AA3XUI0MBJVUCVOO","A2S6QOCFC3EAYH","382GHPVPHSDM8N0F9141EAH7F0K34Z","[{""page_index"":0,""viewing_time"":3422}]","3425","","","","","","","","","","",""
"","survey-text","364","276284","0.0-364.0","31EUONYN2WPCA9AA3XUI0MBJVUCVOO","A2S6QOCFC3EAYH","382GHPVPHSDM8N0F9141EAH7F0K34Z","","12042","","","","","","","","","","","{""Q0"":""A2S6QOCFC3EAYH""}"
