"rt","url","trial_type","trial_index","time_elapsed","internal_node_id","assignmentID","mturkID","hitID","success","view_history","stimulus","key_press","reactionTime","a","r","s","cond","reward_cond","reward_cond_actual","reward_matrix_idx","responses"
"57276","consent.html","external-html","0","57378","0.0-0.0","3J2UYBXQQMY6S23Q04KZYTZ2FZ160F","A2SKY4RRWII0BF","3MVY4USGB69K0BK9K576GJZ2CVDSII","","","","","","","","","","","","",""
"","","fullscreen","1","62518","0.0-1.0","3J2UYBXQQMY6S23Q04KZYTZ2FZ160F","A2SKY4RRWII0BF","3MVY4USGB69K0BK9K576GJZ2CVDSII","true","","","","","","","","","","","",""
"262517","","instructions","2","325035","0.0-2.0","3J2UYBXQQMY6S23Q04KZYTZ2FZ160F","A2SKY4RRWII0BF","3MVY4USGB69K0BK9K576GJZ2CVDSII","","[{""page_index"":0,""viewing_time"":31301},{""page_index"":1,""viewing_time"":32360},{""page_index"":2,""viewing_time"":23417},{""page_index"":3,""viewing_time"":19971},{""page_index"":4,""viewing_time"":26857},{""page_index"":5,""viewing_time"":75775},{""page_index"":6,""viewing_time"":52834}]","","","","","","","","","","",""
"84449","","instructions","3","409485","0.0-3.0","3J2UYBXQQMY6S23Q04KZYTZ2FZ160F","A2SKY4RRWII0BF","3MVY4USGB69K0BK9K576GJZ2CVDSII","","[{""page_index"":0,""viewing_time"":84448}]","","","","","","","","","","",""
"1941","","image-keyboard-response","4","411429","0.0-4.0","3J2UYBXQQMY6S23Q04KZYTZ2FZ160F","A2SKY4RRWII0BF","3MVY4USGB69K0BK9K576GJZ2CVDSII","","","img/flower6.png","76","1944","3","1","3","","","","",""
"null","","html-keyboard-response","5","411731","0.0-5.0","3J2UYBXQQMY6S23Q04KZYTZ2FZ160F","A2SKY4RRWII0BF","3MVY4USGB69K0BK9K576GJZ2CVDSII","","","<img src=""img/flower6.png"" style=""width:200px; border:14px solid green;"">","null","","","","","","","","",""
"2352","","image-keyboard-response","6","414084","0.0-6.0","3J2UYBXQQMY6S23Q04KZYTZ2FZ160F","A2SKY4RRWII0BF","3MVY4USGB69K0BK9K576GJZ2CVDSII","","","img/flower4.png","74","2352","1","1","1","","","","",""
"null","","html-keyboard-response","7","414385","0.0-7.0","3J2UYBXQQMY6S23Q04KZYTZ2FZ160F","A2SKY4RRWII0BF","3MVY4USGB69K0BK9K576GJZ2CVDSII","","","<img src=""img/flower4.png"" style=""width:200px; border:14px solid green;"">","null","","","","","","","","",""
"1123","","image-keyboard-response","8","415508","0.0-8.0","3J2UYBXQQMY6S23Q04KZYTZ2FZ160F","A2SKY4RRWII0BF","3MVY4USGB69K0BK9K576GJZ2CVDSII","","","img/flower6.png","76","1123","3","0","3","","","","",""
"null","","html-keyboard-response","9","415809","0.0-9.0","3J2UYBXQQMY6S23Q04KZYTZ2FZ160F","A2SKY4RRWII0BF","3MVY4USGB69K0BK9K576GJZ2CVDSII","","","<img src=""img/flower6.png"" style=""width:200px;border:14px solid red;"">","null","","","","","","","","",""
"1017","","image-keyboard-response","10","416828","0.0-10.0","3J2UYBXQQMY6S23Q04KZYTZ2FZ160F","A2SKY4RRWII0BF","3MVY4USGB69K0BK9K576GJZ2CVDSII","","","img/flower6.png","74","1018","1","0","3","","","","",""
"null","","html-keyboard-response","11","417129","0.0-11.0","3J2UYBXQQMY6S23Q04KZYTZ2FZ160F","A2SKY4RRWII0BF","3MVY4USGB69K0BK9K576GJZ2CVDSII","","","<img src=""img/flower6.png"" style=""width:200px;border:14px solid red;"">","null","","","","","","","","",""
"1306","","image-keyboard-response","12","418436","0.0-12.0","3J2UYBXQQMY6S23Q04KZYTZ2FZ160F","A2SKY4RRWII0BF","3MVY4USGB69K0BK9K576GJZ2CVDSII","","","img/flower6.png","76","1307","3","1","3","","","","",""
"null","","html-keyboard-response","13","418736","0.0-13.0","3J2UYBXQQMY6S23Q04KZYTZ2FZ160F","A2SKY4RRWII0BF","3MVY4USGB69K0BK9K576GJZ2CVDSII","","","<img src=""img/flower6.png"" style=""width:200px; border:14px solid green;"">","null","","","","","","","","",""
"2379","","image-keyboard-response","14","421117","0.0-14.0","3J2UYBXQQMY6S23Q04KZYTZ2FZ160F","A2SKY4RRWII0BF","3MVY4USGB69K0BK9K576GJZ2CVDSII","","","img/flower5.png","75","2380","2","1","2","","","","",""
"null","","html-keyboard-response","15","421418","0.0-15.0","3J2UYBXQQMY6S23Q04KZYTZ2FZ160F","A2SKY4RRWII0BF","3MVY4USGB69K0BK9K576GJZ2CVDSII","","","<img src=""img/flower5.png"" style=""width:200px; border:14px solid green;"">","null","","","","","","","","",""
"1352","","image-keyboard-response","16","422772","0.0-16.0","3J2UYBXQQMY6S23Q04KZYTZ2FZ160F","A2SKY4RRWII0BF","3MVY4USGB69K0BK9K576GJZ2CVDSII","","","img/flower4.png","74","1353","1","1","1","","","","",""
"null","","html-keyboard-response","17","423073","0.0-17.0","3J2UYBXQQMY6S23Q04KZYTZ2FZ160F","A2SKY4RRWII0BF","3MVY4USGB69K0BK9K576GJZ2CVDSII","","","<img src=""img/flower4.png"" style=""width:200px; border:14px solid green;"">","null","","","","","","","","",""
"929","","image-keyboard-response","18","424004","0.0-18.0","3J2UYBXQQMY6S23Q04KZYTZ2FZ160F","A2SKY4RRWII0BF","3MVY4USGB69K0BK9K576GJZ2CVDSII","","","img/flower6.png","76","930","3","1","3","","","","",""
"null","","html-keyboard-response","19","424305","0.0-19.0","3J2UYBXQQMY6S23Q04KZYTZ2FZ160F","A2SKY4RRWII0BF","3MVY4USGB69K0BK9K576GJZ2CVDSII","","","<img src=""img/flower6.png"" style=""width:200px; border:14px solid green;"">","null","","","","","","","","",""
"1025","","image-keyboard-response","20","425332","0.0-20.0","3J2UYBXQQMY6S23Q04KZYTZ2FZ160F","A2SKY4RRWII0BF","3MVY4USGB69K0BK9K576GJZ2CVDSII","","","img/flower6.png","76","1026","3","1","3","","","","",""
"null","","html-keyboard-response","21","425633","0.0-21.0","3J2UYBXQQMY6S23Q04KZYTZ2FZ160F","A2SKY4RRWII0BF","3MVY4USGB69K0BK9K576GJZ2CVDSII","","","<img src=""img/flower6.png"" style=""width:200px; border:14px solid green;"">","null","","","","","","","","",""
"2866","","image-keyboard-response","22","428500","0.0-22.0","3J2UYBXQQMY6S23Q04KZYTZ2FZ160F","A2SKY4RRWII0BF","3MVY4USGB69K0BK9K576GJZ2CVDSII","","","img/flower4.png","74","2867","1","1","1","","","","",""
"null","","html-keyboard-response","23","428801","0.0-23.0","3J2UYBXQQMY6S23Q04KZYTZ2FZ160F","A2SKY4RRWII0BF","3MVY4USGB69K0BK9K576GJZ2CVDSII","","","<img src=""img/flower4.png"" style=""width:200px; border:14px solid green;"">","null","","","","","","","","",""
"970","","image-keyboard-response","24","429772","0.0-24.0","3J2UYBXQQMY6S23Q04KZYTZ2FZ160F","A2SKY4RRWII0BF","3MVY4USGB69K0BK9K576GJZ2CVDSII","","","img/flower5.png","75","971","2","1","2","","","","",""
"null","","html-keyboard-response","25","430073","0.0-25.0","3J2UYBXQQMY6S23Q04KZYTZ2FZ160F","A2SKY4RRWII0BF","3MVY4USGB69K0BK9K576GJZ2CVDSII","","","<img src=""img/flower5.png"" style=""width:200px; border:14px solid green;"">","null","","","","","","","","",""
"970","","image-keyboard-response","26","431044","0.0-26.0","3J2UYBXQQMY6S23Q04KZYTZ2FZ160F","A2SKY4RRWII0BF","3MVY4USGB69K0BK9K576GJZ2CVDSII","","","img/flower4.png","74","971","1","1","1","","","","",""
"null","","html-keyboard-response","27","431346","0.0-27.0","3J2UYBXQQMY6S23Q04KZYTZ2FZ160F","A2SKY4RRWII0BF","3MVY4USGB69K0BK9K576GJZ2CVDSII","","","<img src=""img/flower4.png"" style=""width:200px; border:14px solid green;"">","null","","","","","","","","",""
"1488","","image-keyboard-response","28","432836","0.0-28.0","3J2UYBXQQMY6S23Q04KZYTZ2FZ160F","A2SKY4RRWII0BF","3MVY4USGB69K0BK9K576GJZ2CVDSII","","","img/flower4.png","74","1490","1","1","1","","","","",""
"null","","html-keyboard-response","29","433136","0.0-29.0","3J2UYBXQQMY6S23Q04KZYTZ2FZ160F","A2SKY4RRWII0BF","3MVY4USGB69K0BK9K576GJZ2CVDSII","","","<img src=""img/flower4.png"" style=""width:200px; border:14px solid green;"">","null","","","","","","","","",""
"1083","","image-keyboard-response","30","434220","0.0-30.0","3J2UYBXQQMY6S23Q04KZYTZ2FZ160F","A2SKY4RRWII0BF","3MVY4USGB69K0BK9K576GJZ2CVDSII","","","img/flower4.png","74","1083","1","1","1","","","","",""
"null","","html-keyboard-response","31","434521","0.0-31.0","3J2UYBXQQMY6S23Q04KZYTZ2FZ160F","A2SKY4RRWII0BF","3MVY4USGB69K0BK9K576GJZ2CVDSII","","","<img src=""img/flower4.png"" style=""width:200px; border:14px solid green;"">","null","","","","","","","","",""
"1138","","image-keyboard-response","32","435660","0.0-32.0","3J2UYBXQQMY6S23Q04KZYTZ2FZ160F","A2SKY4RRWII0BF","3MVY4USGB69K0BK9K576GJZ2CVDSII","","","img/flower5.png","75","1138","2","1","2","","","","",""
"null","","html-keyboard-response","33","435961","0.0-33.0","3J2UYBXQQMY6S23Q04KZYTZ2FZ160F","A2SKY4RRWII0BF","3MVY4USGB69K0BK9K576GJZ2CVDSII","","","<img src=""img/flower5.png"" style=""width:200px; border:14px solid green;"">","null","","","","","","","","",""
"986","","image-keyboard-response","34","436948","0.0-34.0","3J2UYBXQQMY6S23Q04KZYTZ2FZ160F","A2SKY4RRWII0BF","3MVY4USGB69K0BK9K576GJZ2CVDSII","","","img/flower5.png","75","987","2","1","2","","","","",""
"null","","html-keyboard-response","35","437249","0.0-35.0","3J2UYBXQQMY6S23Q04KZYTZ2FZ160F","A2SKY4RRWII0BF","3MVY4USGB69K0BK9K576GJZ2CVDSII","","","<img src=""img/flower5.png"" style=""width:200px; border:14px solid green;"">","null","","","","","","","","",""
"1049","","image-keyboard-response","36","438300","0.0-36.0","3J2UYBXQQMY6S23Q04KZYTZ2FZ160F","A2SKY4RRWII0BF","3MVY4USGB69K0BK9K576GJZ2CVDSII","","","img/flower5.png","75","1050","2","1","2","","","","",""
"null","","html-keyboard-response","37","438601","0.0-37.0","3J2UYBXQQMY6S23Q04KZYTZ2FZ160F","A2SKY4RRWII0BF","3MVY4USGB69K0BK9K576GJZ2CVDSII","","","<img src=""img/flower5.png"" style=""width:200px; border:14px solid green;"">","null","","","","","","","","",""
"810","","image-keyboard-response","38","439412","0.0-38.0","3J2UYBXQQMY6S23Q04KZYTZ2FZ160F","A2SKY4RRWII0BF","3MVY4USGB69K0BK9K576GJZ2CVDSII","","","img/flower6.png","76","811","3","1","3","","","","",""
"null","","html-keyboard-response","39","439713","0.0-39.0","3J2UYBXQQMY6S23Q04KZYTZ2FZ160F","A2SKY4RRWII0BF","3MVY4USGB69K0BK9K576GJZ2CVDSII","","","<img src=""img/flower6.png"" style=""width:200px; border:14px solid green;"">","null","","","","","","","","",""
"2346","","image-keyboard-response","40","442060","0.0-40.0","3J2UYBXQQMY6S23Q04KZYTZ2FZ160F","A2SKY4RRWII0BF","3MVY4USGB69K0BK9K576GJZ2CVDSII","","","img/flower5.png","75","2347","2","0","2","","","","",""
"null","","html-keyboard-response","41","442362","0.0-41.0","3J2UYBXQQMY6S23Q04KZYTZ2FZ160F","A2SKY4RRWII0BF","3MVY4USGB69K0BK9K576GJZ2CVDSII","","","<img src=""img/flower5.png"" style=""width:200px;border:14px solid red;"">","null","","","","","","","","",""
"1490","","image-keyboard-response","42","443852","0.0-42.0","3J2UYBXQQMY6S23Q04KZYTZ2FZ160F","A2SKY4RRWII0BF","3MVY4USGB69K0BK9K576GJZ2CVDSII","","","img/flower4.png","74","1491","1","1","1","","","","",""
"null","","html-keyboard-response","43","444153","0.0-43.0","3J2UYBXQQMY6S23Q04KZYTZ2FZ160F","A2SKY4RRWII0BF","3MVY4USGB69K0BK9K576GJZ2CVDSII","","","<img src=""img/flower4.png"" style=""width:200px; border:14px solid green;"">","null","","","","","","","","",""
"978","","image-keyboard-response","44","445132","0.0-44.0","3J2UYBXQQMY6S23Q04KZYTZ2FZ160F","A2SKY4RRWII0BF","3MVY4USGB69K0BK9K576GJZ2CVDSII","","","img/flower6.png","76","978","3","1","3","","","","",""
"null","","html-keyboard-response","45","445434","0.0-45.0","3J2UYBXQQMY6S23Q04KZYTZ2FZ160F","A2SKY4RRWII0BF","3MVY4USGB69K0BK9K576GJZ2CVDSII","","","<img src=""img/flower6.png"" style=""width:200px; border:14px solid green;"">","null","","","","","","","","",""
"1593","","image-keyboard-response","46","447028","0.0-46.0","3J2UYBXQQMY6S23Q04KZYTZ2FZ160F","A2SKY4RRWII0BF","3MVY4USGB69K0BK9K576GJZ2CVDSII","","","img/flower5.png","75","1594","2","0","2","","","","",""
"null","","html-keyboard-response","47","447330","0.0-47.0","3J2UYBXQQMY6S23Q04KZYTZ2FZ160F","A2SKY4RRWII0BF","3MVY4USGB69K0BK9K576GJZ2CVDSII","","","<img src=""img/flower5.png"" style=""width:200px;border:14px solid red;"">","null","","","","","","","","",""
"1305","","image-keyboard-response","48","448636","0.0-48.0","3J2UYBXQQMY6S23Q04KZYTZ2FZ160F","A2SKY4RRWII0BF","3MVY4USGB69K0BK9K576GJZ2CVDSII","","","img/flower5.png","75","1306","2","1","2","","","","",""
"null","","html-keyboard-response","49","448937","0.0-49.0","3J2UYBXQQMY6S23Q04KZYTZ2FZ160F","A2SKY4RRWII0BF","3MVY4USGB69K0BK9K576GJZ2CVDSII","","","<img src=""img/flower5.png"" style=""width:200px; border:14px solid green;"">","null","","","","","","","","",""
"1642","","image-keyboard-response","50","450580","0.0-50.0","3J2UYBXQQMY6S23Q04KZYTZ2FZ160F","A2SKY4RRWII0BF","3MVY4USGB69K0BK9K576GJZ2CVDSII","","","img/flower6.png","76","1643","3","1","3","","","","",""
"null","","html-keyboard-response","51","450881","0.0-51.0","3J2UYBXQQMY6S23Q04KZYTZ2FZ160F","A2SKY4RRWII0BF","3MVY4USGB69K0BK9K576GJZ2CVDSII","","","<img src=""img/flower6.png"" style=""width:200px; border:14px solid green;"">","null","","","","","","","","",""
"1393","","image-keyboard-response","52","452276","0.0-52.0","3J2UYBXQQMY6S23Q04KZYTZ2FZ160F","A2SKY4RRWII0BF","3MVY4USGB69K0BK9K576GJZ2CVDSII","","","img/flower5.png","75","1393","2","1","2","","","","",""
"null","","html-keyboard-response","53","452577","0.0-53.0","3J2UYBXQQMY6S23Q04KZYTZ2FZ160F","A2SKY4RRWII0BF","3MVY4USGB69K0BK9K576GJZ2CVDSII","","","<img src=""img/flower5.png"" style=""width:200px; border:14px solid green;"">","null","","","","","","","","",""
"721","","image-keyboard-response","54","453300","0.0-54.0","3J2UYBXQQMY6S23Q04KZYTZ2FZ160F","A2SKY4RRWII0BF","3MVY4USGB69K0BK9K576GJZ2CVDSII","","","img/flower4.png","74","721","1","0","1","","","","",""
"null","","html-keyboard-response","55","453601","0.0-55.0","3J2UYBXQQMY6S23Q04KZYTZ2FZ160F","A2SKY4RRWII0BF","3MVY4USGB69K0BK9K576GJZ2CVDSII","","","<img src=""img/flower4.png"" style=""width:200px;border:14px solid red;"">","null","","","","","","","","",""
"850","","image-keyboard-response","56","454452","0.0-56.0","3J2UYBXQQMY6S23Q04KZYTZ2FZ160F","A2SKY4RRWII0BF","3MVY4USGB69K0BK9K576GJZ2CVDSII","","","img/flower6.png","76","850","3","0","3","","","","",""
"null","","html-keyboard-response","57","454753","0.0-57.0","3J2UYBXQQMY6S23Q04KZYTZ2FZ160F","A2SKY4RRWII0BF","3MVY4USGB69K0BK9K576GJZ2CVDSII","","","<img src=""img/flower6.png"" style=""width:200px;border:14px solid red;"">","null","","","","","","","","",""
"1297","","image-keyboard-response","58","456052","0.0-58.0","3J2UYBXQQMY6S23Q04KZYTZ2FZ160F","A2SKY4RRWII0BF","3MVY4USGB69K0BK9K576GJZ2CVDSII","","","img/flower4.png","74","1299","1","1","1","","","","",""
"null","","html-keyboard-response","59","456353","0.0-59.0","3J2UYBXQQMY6S23Q04KZYTZ2FZ160F","A2SKY4RRWII0BF","3MVY4USGB69K0BK9K576GJZ2CVDSII","","","<img src=""img/flower4.png"" style=""width:200px; border:14px solid green;"">","null","","","","","","","","",""
"745","","image-keyboard-response","60","457100","0.0-60.0","3J2UYBXQQMY6S23Q04KZYTZ2FZ160F","A2SKY4RRWII0BF","3MVY4USGB69K0BK9K576GJZ2CVDSII","","","img/flower4.png","74","746","1","1","1","","","","",""
"null","","html-keyboard-response","61","457401","0.0-61.0","3J2UYBXQQMY6S23Q04KZYTZ2FZ160F","A2SKY4RRWII0BF","3MVY4USGB69K0BK9K576GJZ2CVDSII","","","<img src=""img/flower4.png"" style=""width:200px; border:14px solid green;"">","null","","","","","","","","",""
"1114","","image-keyboard-response","62","458516","0.0-62.0","3J2UYBXQQMY6S23Q04KZYTZ2FZ160F","A2SKY4RRWII0BF","3MVY4USGB69K0BK9K576GJZ2CVDSII","","","img/flower5.png","75","1115","2","1","2","","","","",""
"null","","html-keyboard-response","63","458817","0.0-63.0","3J2UYBXQQMY6S23Q04KZYTZ2FZ160F","A2SKY4RRWII0BF","3MVY4USGB69K0BK9K576GJZ2CVDSII","","","<img src=""img/flower5.png"" style=""width:200px; border:14px solid green;"">","null","","","","","","","","",""
"66740","","instructions","64","525557","0.0-64.0","3J2UYBXQQMY6S23Q04KZYTZ2FZ160F","A2SKY4RRWII0BF","3MVY4USGB69K0BK9K576GJZ2CVDSII","","[{""page_index"":0,""viewing_time"":33982},{""page_index"":1,""viewing_time"":32758}]","","","","","","","","","","",""
"1596","","image-keyboard-response","65","527156","0.0-65.0","3J2UYBXQQMY6S23Q04KZYTZ2FZ160F","A2SKY4RRWII0BF","3MVY4USGB69K0BK9K576GJZ2CVDSII","","","img/flower5.png","75","1598","2","1","2","","","","",""
"null","","html-keyboard-response","66","527458","0.0-66.0","3J2UYBXQQMY6S23Q04KZYTZ2FZ160F","A2SKY4RRWII0BF","3MVY4USGB69K0BK9K576GJZ2CVDSII","","","<img src=""img/flower5.png"" style=""width:200px; border:14px solid green;"">","null","","","","","","","","",""
"786","","image-keyboard-response","67","528244","0.0-67.0","3J2UYBXQQMY6S23Q04KZYTZ2FZ160F","A2SKY4RRWII0BF","3MVY4USGB69K0BK9K576GJZ2CVDSII","","","img/flower6.png","76","786","3","0","3","","","","",""
"null","","html-keyboard-response","68","528546","0.0-68.0","3J2UYBXQQMY6S23Q04KZYTZ2FZ160F","A2SKY4RRWII0BF","3MVY4USGB69K0BK9K576GJZ2CVDSII","","","<img src=""img/flower6.png"" style=""width:200px;border:14px solid red;"">","null","","","","","","","","",""
"610","","image-keyboard-response","69","529157","0.0-69.0","3J2UYBXQQMY6S23Q04KZYTZ2FZ160F","A2SKY4RRWII0BF","3MVY4USGB69K0BK9K576GJZ2CVDSII","","","img/flower6.png","76","610","3","1","3","","","","",""
"null","","html-keyboard-response","70","529458","0.0-70.0","3J2UYBXQQMY6S23Q04KZYTZ2FZ160F","A2SKY4RRWII0BF","3MVY4USGB69K0BK9K576GJZ2CVDSII","","","<img src=""img/flower6.png"" style=""width:200px; border:14px solid green;"">","null","","","","","","","","",""
"1305","","image-keyboard-response","71","530764","0.0-71.0","3J2UYBXQQMY6S23Q04KZYTZ2FZ160F","A2SKY4RRWII0BF","3MVY4USGB69K0BK9K576GJZ2CVDSII","","","img/flower5.png","75","1305","2","1","2","","","","",""
"null","","html-keyboard-response","72","531066","0.0-72.0","3J2UYBXQQMY6S23Q04KZYTZ2FZ160F","A2SKY4RRWII0BF","3MVY4USGB69K0BK9K576GJZ2CVDSII","","","<img src=""img/flower5.png"" style=""width:200px; border:14px solid green;"">","null","","","","","","","","",""
"776","","image-keyboard-response","73","531845","0.0-73.0","3J2UYBXQQMY6S23Q04KZYTZ2FZ160F","A2SKY4RRWII0BF","3MVY4USGB69K0BK9K576GJZ2CVDSII","","","img/flower6.png","76","778","3","1","3","","","","",""
"null","","html-keyboard-response","74","532146","0.0-74.0","3J2UYBXQQMY6S23Q04KZYTZ2FZ160F","A2SKY4RRWII0BF","3MVY4USGB69K0BK9K576GJZ2CVDSII","","","<img src=""img/flower6.png"" style=""width:200px; border:14px solid green;"">","null","","","","","","","","",""
"1113","","image-keyboard-response","75","533260","0.0-75.0","3J2UYBXQQMY6S23Q04KZYTZ2FZ160F","A2SKY4RRWII0BF","3MVY4USGB69K0BK9K576GJZ2CVDSII","","","img/flower4.png","74","1115","1","1","1","","","","",""
"null","","html-keyboard-response","76","533561","0.0-76.0","3J2UYBXQQMY6S23Q04KZYTZ2FZ160F","A2SKY4RRWII0BF","3MVY4USGB69K0BK9K576GJZ2CVDSII","","","<img src=""img/flower4.png"" style=""width:200px; border:14px solid green;"">","null","","","","","","","","",""
"865","","image-keyboard-response","77","534428","0.0-77.0","3J2UYBXQQMY6S23Q04KZYTZ2FZ160F","A2SKY4RRWII0BF","3MVY4USGB69K0BK9K576GJZ2CVDSII","","","img/flower5.png","75","865","2","1","2","","","","",""
"null","","html-keyboard-response","78","534730","0.0-78.0","3J2UYBXQQMY6S23Q04KZYTZ2FZ160F","A2SKY4RRWII0BF","3MVY4USGB69K0BK9K576GJZ2CVDSII","","","<img src=""img/flower5.png"" style=""width:200px; border:14px solid green;"">","null","","","","","","","","",""
"705","","image-keyboard-response","79","535436","0.0-79.0","3J2UYBXQQMY6S23Q04KZYTZ2FZ160F","A2SKY4RRWII0BF","3MVY4USGB69K0BK9K576GJZ2CVDSII","","","img/flower5.png","75","706","2","1","2","","","","",""
"null","","html-keyboard-response","80","535738","0.0-80.0","3J2UYBXQQMY6S23Q04KZYTZ2FZ160F","A2SKY4RRWII0BF","3MVY4USGB69K0BK9K576GJZ2CVDSII","","","<img src=""img/flower5.png"" style=""width:200px; border:14px solid green;"">","null","","","","","","","","",""
"826","","image-keyboard-response","81","536564","0.0-81.0","3J2UYBXQQMY6S23Q04KZYTZ2FZ160F","A2SKY4RRWII0BF","3MVY4USGB69K0BK9K576GJZ2CVDSII","","","img/flower4.png","76","827","3","0","1","","","","",""
"null","","html-keyboard-response","82","536866","0.0-82.0","3J2UYBXQQMY6S23Q04KZYTZ2FZ160F","A2SKY4RRWII0BF","3MVY4USGB69K0BK9K576GJZ2CVDSII","","","<img src=""img/flower4.png"" style=""width:200px;border:14px solid red;"">","null","","","","","","","","",""
"2953","","image-keyboard-response","83","539820","0.0-83.0","3J2UYBXQQMY6S23Q04KZYTZ2FZ160F","A2SKY4RRWII0BF","3MVY4USGB69K0BK9K576GJZ2CVDSII","","","img/flower6.png","76","2954","3","1","3","","","","",""
"null","","html-keyboard-response","84","540122","0.0-84.0","3J2UYBXQQMY6S23Q04KZYTZ2FZ160F","A2SKY4RRWII0BF","3MVY4USGB69K0BK9K576GJZ2CVDSII","","","<img src=""img/flower6.png"" style=""width:200px; border:14px solid green;"">","null","","","","","","","","",""
"961","","image-keyboard-response","85","541084","0.0-85.0","3J2UYBXQQMY6S23Q04KZYTZ2FZ160F","A2SKY4RRWII0BF","3MVY4USGB69K0BK9K576GJZ2CVDSII","","","img/flower4.png","74","962","1","1","1","","","","",""
"null","","html-keyboard-response","86","541386","0.0-86.0","3J2UYBXQQMY6S23Q04KZYTZ2FZ160F","A2SKY4RRWII0BF","3MVY4USGB69K0BK9K576GJZ2CVDSII","","","<img src=""img/flower4.png"" style=""width:200px; border:14px solid green;"">","null","","","","","","","","",""
"938","","image-keyboard-response","87","542325","0.0-87.0","3J2UYBXQQMY6S23Q04KZYTZ2FZ160F","A2SKY4RRWII0BF","3MVY4USGB69K0BK9K576GJZ2CVDSII","","","img/flower4.png","74","939","1","1","1","","","","",""
"null","","html-keyboard-response","88","542626","0.0-88.0","3J2UYBXQQMY6S23Q04KZYTZ2FZ160F","A2SKY4RRWII0BF","3MVY4USGB69K0BK9K576GJZ2CVDSII","","","<img src=""img/flower4.png"" style=""width:200px; border:14px solid green;"">","null","","","","","","","","",""
"937","","image-keyboard-response","89","543565","0.0-89.0","3J2UYBXQQMY6S23Q04KZYTZ2FZ160F","A2SKY4RRWII0BF","3MVY4USGB69K0BK9K576GJZ2CVDSII","","","img/flower6.png","76","937","3","1","3","","","","",""
"null","","html-keyboard-response","90","543866","0.0-90.0","3J2UYBXQQMY6S23Q04KZYTZ2FZ160F","A2SKY4RRWII0BF","3MVY4USGB69K0BK9K576GJZ2CVDSII","","","<img src=""img/flower6.png"" style=""width:200px; border:14px solid green;"">","null","","","","","","","","",""
"1049","","image-keyboard-response","91","544916","0.0-91.0","3J2UYBXQQMY6S23Q04KZYTZ2FZ160F","A2SKY4RRWII0BF","3MVY4USGB69K0BK9K576GJZ2CVDSII","","","img/flower5.png","75","1049","2","1","2","","","","",""
"null","","html-keyboard-response","92","545217","0.0-92.0","3J2UYBXQQMY6S23Q04KZYTZ2FZ160F","A2SKY4RRWII0BF","3MVY4USGB69K0BK9K576GJZ2CVDSII","","","<img src=""img/flower5.png"" style=""width:200px; border:14px solid green;"">","null","","","","","","","","",""
"619","","image-keyboard-response","93","545837","0.0-93.0","3J2UYBXQQMY6S23Q04KZYTZ2FZ160F","A2SKY4RRWII0BF","3MVY4USGB69K0BK9K576GJZ2CVDSII","","","img/flower5.png","75","619","2","1","2","","","","",""
"null","","html-keyboard-response","94","546138","0.0-94.0","3J2UYBXQQMY6S23Q04KZYTZ2FZ160F","A2SKY4RRWII0BF","3MVY4USGB69K0BK9K576GJZ2CVDSII","","","<img src=""img/flower5.png"" style=""width:200px; border:14px solid green;"">","null","","","","","","","","",""
"762","","image-keyboard-response","95","546900","0.0-95.0","3J2UYBXQQMY6S23Q04KZYTZ2FZ160F","A2SKY4RRWII0BF","3MVY4USGB69K0BK9K576GJZ2CVDSII","","","img/flower4.png","74","762","1","0","1","","","","",""
"null","","html-keyboard-response","96","547201","0.0-96.0","3J2UYBXQQMY6S23Q04KZYTZ2FZ160F","A2SKY4RRWII0BF","3MVY4USGB69K0BK9K576GJZ2CVDSII","","","<img src=""img/flower4.png"" style=""width:200px;border:14px solid red;"">","null","","","","","","","","",""
"738","","image-keyboard-response","97","547941","0.0-97.0","3J2UYBXQQMY6S23Q04KZYTZ2FZ160F","A2SKY4RRWII0BF","3MVY4USGB69K0BK9K576GJZ2CVDSII","","","img/flower4.png","74","739","1","1","1","","","","",""
"null","","html-keyboard-response","98","548242","0.0-98.0","3J2UYBXQQMY6S23Q04KZYTZ2FZ160F","A2SKY4RRWII0BF","3MVY4USGB69K0BK9K576GJZ2CVDSII","","","<img src=""img/flower4.png"" style=""width:200px; border:14px solid green;"">","null","","","","","","","","",""
"825","","image-keyboard-response","99","549068","0.0-99.0","3J2UYBXQQMY6S23Q04KZYTZ2FZ160F","A2SKY4RRWII0BF","3MVY4USGB69K0BK9K576GJZ2CVDSII","","","img/flower6.png","76","825","3","0","3","","","","",""
"null","","html-keyboard-response","100","549370","0.0-100.0","3J2UYBXQQMY6S23Q04KZYTZ2FZ160F","A2SKY4RRWII0BF","3MVY4USGB69K0BK9K576GJZ2CVDSII","","","<img src=""img/flower6.png"" style=""width:200px;border:14px solid red;"">","null","","","","","","","","",""
"1728","","image-keyboard-response","101","551101","0.0-101.0","3J2UYBXQQMY6S23Q04KZYTZ2FZ160F","A2SKY4RRWII0BF","3MVY4USGB69K0BK9K576GJZ2CVDSII","","","img/flower5.png","75","1730","2","1","2","","","","",""
"null","","html-keyboard-response","102","551403","0.0-102.0","3J2UYBXQQMY6S23Q04KZYTZ2FZ160F","A2SKY4RRWII0BF","3MVY4USGB69K0BK9K576GJZ2CVDSII","","","<img src=""img/flower5.png"" style=""width:200px; border:14px solid green;"">","null","","","","","","","","",""
"761","","image-keyboard-response","103","552165","0.0-103.0","3J2UYBXQQMY6S23Q04KZYTZ2FZ160F","A2SKY4RRWII0BF","3MVY4USGB69K0BK9K576GJZ2CVDSII","","","img/flower6.png","76","762","3","0","3","","","","",""
"null","","html-keyboard-response","104","552467","0.0-104.0","3J2UYBXQQMY6S23Q04KZYTZ2FZ160F","A2SKY4RRWII0BF","3MVY4USGB69K0BK9K576GJZ2CVDSII","","","<img src=""img/flower6.png"" style=""width:200px;border:14px solid red;"">","null","","","","","","","","",""
"1696","","image-keyboard-response","105","554165","0.0-105.0","3J2UYBXQQMY6S23Q04KZYTZ2FZ160F","A2SKY4RRWII0BF","3MVY4USGB69K0BK9K576GJZ2CVDSII","","","img/flower4.png","74","1699","1","0","1","","","","",""
"null","","html-keyboard-response","106","554466","0.0-106.0","3J2UYBXQQMY6S23Q04KZYTZ2FZ160F","A2SKY4RRWII0BF","3MVY4USGB69K0BK9K576GJZ2CVDSII","","","<img src=""img/flower4.png"" style=""width:200px;border:14px solid red;"">","null","","","","","","","","",""
"889","","image-keyboard-response","107","555356","0.0-107.0","3J2UYBXQQMY6S23Q04KZYTZ2FZ160F","A2SKY4RRWII0BF","3MVY4USGB69K0BK9K576GJZ2CVDSII","","","img/flower6.png","76","890","3","1","3","","","","",""
"null","","html-keyboard-response","108","555657","0.0-108.0","3J2UYBXQQMY6S23Q04KZYTZ2FZ160F","A2SKY4RRWII0BF","3MVY4USGB69K0BK9K576GJZ2CVDSII","","","<img src=""img/flower6.png"" style=""width:200px; border:14px solid green;"">","null","","","","","","","","",""
"1443","","image-keyboard-response","109","557101","0.0-109.0","3J2UYBXQQMY6S23Q04KZYTZ2FZ160F","A2SKY4RRWII0BF","3MVY4USGB69K0BK9K576GJZ2CVDSII","","","img/flower4.png","74","1443","1","1","1","","","","",""
"null","","html-keyboard-response","110","557402","0.0-110.0","3J2UYBXQQMY6S23Q04KZYTZ2FZ160F","A2SKY4RRWII0BF","3MVY4USGB69K0BK9K576GJZ2CVDSII","","","<img src=""img/flower4.png"" style=""width:200px; border:14px solid green;"">","null","","","","","","","","",""
"1129","","image-keyboard-response","111","558533","0.0-111.0","3J2UYBXQQMY6S23Q04KZYTZ2FZ160F","A2SKY4RRWII0BF","3MVY4USGB69K0BK9K576GJZ2CVDSII","","","img/flower6.png","76","1130","3","1","3","","","","",""
"null","","html-keyboard-response","112","558834","0.0-112.0","3J2UYBXQQMY6S23Q04KZYTZ2FZ160F","A2SKY4RRWII0BF","3MVY4USGB69K0BK9K576GJZ2CVDSII","","","<img src=""img/flower6.png"" style=""width:200px; border:14px solid green;"">","null","","","","","","","","",""
"658","","image-keyboard-response","113","559493","0.0-113.0","3J2UYBXQQMY6S23Q04KZYTZ2FZ160F","A2SKY4RRWII0BF","3MVY4USGB69K0BK9K576GJZ2CVDSII","","","img/flower5.png","75","658","2","1","2","","","","",""
"null","","html-keyboard-response","114","559794","0.0-114.0","3J2UYBXQQMY6S23Q04KZYTZ2FZ160F","A2SKY4RRWII0BF","3MVY4USGB69K0BK9K576GJZ2CVDSII","","","<img src=""img/flower5.png"" style=""width:200px; border:14px solid green;"">","null","","","","","","","","",""
"801","","image-keyboard-response","115","560597","0.0-115.0","3J2UYBXQQMY6S23Q04KZYTZ2FZ160F","A2SKY4RRWII0BF","3MVY4USGB69K0BK9K576GJZ2CVDSII","","","img/flower4.png","74","803","1","0","1","","","","",""
"null","","html-keyboard-response","116","560899","0.0-116.0","3J2UYBXQQMY6S23Q04KZYTZ2FZ160F","A2SKY4RRWII0BF","3MVY4USGB69K0BK9K576GJZ2CVDSII","","","<img src=""img/flower4.png"" style=""width:200px;border:14px solid red;"">","null","","","","","","","","",""
"1424","","image-keyboard-response","117","562325","0.0-117.0","3J2UYBXQQMY6S23Q04KZYTZ2FZ160F","A2SKY4RRWII0BF","3MVY4USGB69K0BK9K576GJZ2CVDSII","","","img/flower5.png","75","1425","2","1","2","","","","",""
"null","","html-keyboard-response","118","562626","0.0-118.0","3J2UYBXQQMY6S23Q04KZYTZ2FZ160F","A2SKY4RRWII0BF","3MVY4USGB69K0BK9K576GJZ2CVDSII","","","<img src=""img/flower5.png"" style=""width:200px; border:14px solid green;"">","null","","","","","","","","",""
"754","","image-keyboard-response","119","563381","0.0-119.0","3J2UYBXQQMY6S23Q04KZYTZ2FZ160F","A2SKY4RRWII0BF","3MVY4USGB69K0BK9K576GJZ2CVDSII","","","img/flower4.png","76","754","3","0","1","","","","",""
"null","","html-keyboard-response","120","563682","0.0-120.0","3J2UYBXQQMY6S23Q04KZYTZ2FZ160F","A2SKY4RRWII0BF","3MVY4USGB69K0BK9K576GJZ2CVDSII","","","<img src=""img/flower4.png"" style=""width:200px;border:14px solid red;"">","null","","","","","","","","",""
"1280","","image-keyboard-response","121","564965","0.0-121.0","3J2UYBXQQMY6S23Q04KZYTZ2FZ160F","A2SKY4RRWII0BF","3MVY4USGB69K0BK9K576GJZ2CVDSII","","","img/flower6.png","76","1282","3","1","3","","","","",""
"null","","html-keyboard-response","122","565266","0.0-122.0","3J2UYBXQQMY6S23Q04KZYTZ2FZ160F","A2SKY4RRWII0BF","3MVY4USGB69K0BK9K576GJZ2CVDSII","","","<img src=""img/flower6.png"" style=""width:200px; border:14px solid green;"">","null","","","","","","","","",""
"1592","","image-keyboard-response","123","566861","0.0-123.0","3J2UYBXQQMY6S23Q04KZYTZ2FZ160F","A2SKY4RRWII0BF","3MVY4USGB69K0BK9K576GJZ2CVDSII","","","img/flower5.png","75","1592","2","1","2","","","","",""
"null","","html-keyboard-response","124","567162","0.0-124.0","3J2UYBXQQMY6S23Q04KZYTZ2FZ160F","A2SKY4RRWII0BF","3MVY4USGB69K0BK9K576GJZ2CVDSII","","","<img src=""img/flower5.png"" style=""width:200px; border:14px solid green;"">","null","","","","","","","","",""
"8466","","instructions","125","575629","0.0-125.0","3J2UYBXQQMY6S23Q04KZYTZ2FZ160F","A2SKY4RRWII0BF","3MVY4USGB69K0BK9K576GJZ2CVDSII","","[{""page_index"":0,""viewing_time"":8466}]","","","","","","","","","","",""
"3910","","image-keyboard-response","126","579541","0.0-126.0","3J2UYBXQQMY6S23Q04KZYTZ2FZ160F","A2SKY4RRWII0BF","3MVY4USGB69K0BK9K576GJZ2CVDSII","","","img/flower1.png","75","3911","2","1","1","1","1,0.333,0.333,0.333,1,0.333,0.333,0.333,1","1,0.333,0.333,0.333,1,0.333,0.333,0.333,1","1",""
"null","","html-keyboard-response","127","579842","0.0-127.0","3J2UYBXQQMY6S23Q04KZYTZ2FZ160F","A2SKY4RRWII0BF","3MVY4USGB69K0BK9K576GJZ2CVDSII","","","<img src=""img/flower1.png"" style=""width:200px; border:14px solid green;"">","null","","","","","","","","",""
"2232","","image-keyboard-response","128","582076","0.0-128.0","3J2UYBXQQMY6S23Q04KZYTZ2FZ160F","A2SKY4RRWII0BF","3MVY4USGB69K0BK9K576GJZ2CVDSII","","","img/flower3.png","76","2233","3","0","2","1","1,0.333,0.333,0.333,1,0.333,0.333,0.333,1","1,0.333,0.333,0.333,1,0.333,0.333,0.333,1","1",""
"null","","html-keyboard-response","129","582378","0.0-129.0","3J2UYBXQQMY6S23Q04KZYTZ2FZ160F","A2SKY4RRWII0BF","3MVY4USGB69K0BK9K576GJZ2CVDSII","","","<img src=""img/flower3.png"" style=""width:200px;border:14px solid red;"">","null","","","","","","","","",""
"1521","","image-keyboard-response","130","583900","0.0-130.0","3J2UYBXQQMY6S23Q04KZYTZ2FZ160F","A2SKY4RRWII0BF","3MVY4USGB69K0BK9K576GJZ2CVDSII","","","img/flower1.png","75","1522","2","0","1","1","1,0.333,0.333,0.333,1,0.333,0.333,0.333,1","1,0.333,0.333,0.333,1,0.333,0.333,0.333,1","1",""
"null","","html-keyboard-response","131","584201","0.0-131.0","3J2UYBXQQMY6S23Q04KZYTZ2FZ160F","A2SKY4RRWII0BF","3MVY4USGB69K0BK9K576GJZ2CVDSII","","","<img src=""img/flower1.png"" style=""width:200px;border:14px solid red;"">","null","","","","","","","","",""
"1826","","image-keyboard-response","132","586029","0.0-132.0","3J2UYBXQQMY6S23Q04KZYTZ2FZ160F","A2SKY4RRWII0BF","3MVY4USGB69K0BK9K576GJZ2CVDSII","","","img/flower3.png","74","1827","1","0","2","1","1,0.333,0.333,0.333,1,0.333,0.333,0.333,1","1,0.333,0.333,0.333,1,0.333,0.333,0.333,1","1",""
"null","","html-keyboard-response","133","586330","0.0-133.0","3J2UYBXQQMY6S23Q04KZYTZ2FZ160F","A2SKY4RRWII0BF","3MVY4USGB69K0BK9K576GJZ2CVDSII","","","<img src=""img/flower3.png"" style=""width:200px;border:14px solid red;"">","null","","","","","","","","",""
"1617","","image-keyboard-response","134","587949","0.0-134.0","3J2UYBXQQMY6S23Q04KZYTZ2FZ160F","A2SKY4RRWII0BF","3MVY4USGB69K0BK9K576GJZ2CVDSII","","","img/flower1.png","75","1619","2","1","1","1","1,0.333,0.333,0.333,1,0.333,0.333,0.333,1","1,0.333,0.333,0.333,1,0.333,0.333,0.333,1","1",""
"null","","html-keyboard-response","135","588251","0.0-135.0","3J2UYBXQQMY6S23Q04KZYTZ2FZ160F","A2SKY4RRWII0BF","3MVY4USGB69K0BK9K576GJZ2CVDSII","","","<img src=""img/flower1.png"" style=""width:200px; border:14px solid green;"">","null","","","","","","","","",""
"1832","","image-keyboard-response","136","590085","0.0-136.0","3J2UYBXQQMY6S23Q04KZYTZ2FZ160F","A2SKY4RRWII0BF","3MVY4USGB69K0BK9K576GJZ2CVDSII","","","img/flower3.png","74","1835","1","0","2","1","1,0.333,0.333,0.333,1,0.333,0.333,0.333,1","1,0.333,0.333,0.333,1,0.333,0.333,0.333,1","1",""
"null","","html-keyboard-response","137","590386","0.0-137.0","3J2UYBXQQMY6S23Q04KZYTZ2FZ160F","A2SKY4RRWII0BF","3MVY4USGB69K0BK9K576GJZ2CVDSII","","","<img src=""img/flower3.png"" style=""width:200px;border:14px solid red;"">","null","","","","","","","","",""
"1248","","image-keyboard-response","138","591636","0.0-138.0","3J2UYBXQQMY6S23Q04KZYTZ2FZ160F","A2SKY4RRWII0BF","3MVY4USGB69K0BK9K576GJZ2CVDSII","","","img/flower1.png","75","1250","2","1","1","1","1,0.333,0.333,0.333,1,0.333,0.333,0.333,1","1,0.333,0.333,0.333,1,0.333,0.333,0.333,1","1",""
"null","","html-keyboard-response","139","591937","0.0-139.0","3J2UYBXQQMY6S23Q04KZYTZ2FZ160F","A2SKY4RRWII0BF","3MVY4USGB69K0BK9K576GJZ2CVDSII","","","<img src=""img/flower1.png"" style=""width:200px; border:14px solid green;"">","null","","","","","","","","",""
"1226","","image-keyboard-response","140","593165","0.0-140.0","3J2UYBXQQMY6S23Q04KZYTZ2FZ160F","A2SKY4RRWII0BF","3MVY4USGB69K0BK9K576GJZ2CVDSII","","","img/flower3.png","74","1227","1","1","2","1","1,0.333,0.333,0.333,1,0.333,0.333,0.333,1","1,0.333,0.333,0.333,1,0.333,0.333,0.333,1","1",""
"null","","html-keyboard-response","141","593466","0.0-141.0","3J2UYBXQQMY6S23Q04KZYTZ2FZ160F","A2SKY4RRWII0BF","3MVY4USGB69K0BK9K576GJZ2CVDSII","","","<img src=""img/flower3.png"" style=""width:200px; border:14px solid green;"">","null","","","","","","","","",""
"2074","","image-keyboard-response","142","595540","0.0-142.0","3J2UYBXQQMY6S23Q04KZYTZ2FZ160F","A2SKY4RRWII0BF","3MVY4USGB69K0BK9K576GJZ2CVDSII","","","img/flower1.png","75","2074","2","1","1","1","1,0.333,0.333,0.333,1,0.333,0.333,0.333,1","1,0.333,0.333,0.333,1,0.333,0.333,0.333,1","1",""
"null","","html-keyboard-response","143","595842","0.0-143.0","3J2UYBXQQMY6S23Q04KZYTZ2FZ160F","A2SKY4RRWII0BF","3MVY4USGB69K0BK9K576GJZ2CVDSII","","","<img src=""img/flower1.png"" style=""width:200px; border:14px solid green;"">","null","","","","","","","","",""
"921","","image-keyboard-response","144","596765","0.0-144.0","3J2UYBXQQMY6S23Q04KZYTZ2FZ160F","A2SKY4RRWII0BF","3MVY4USGB69K0BK9K576GJZ2CVDSII","","","img/flower4.png","76","922","3","1","3","1","1,0.333,0.333,0.333,1,0.333,0.333,0.333,1","1,0.333,0.333,0.333,1,0.333,0.333,0.333,1","1",""
"null","","html-keyboard-response","145","597066","0.0-145.0","3J2UYBXQQMY6S23Q04KZYTZ2FZ160F","A2SKY4RRWII0BF","3MVY4USGB69K0BK9K576GJZ2CVDSII","","","<img src=""img/flower4.png"" style=""width:200px; border:14px solid green;"">","null","","","","","","","","",""
"874","","image-keyboard-response","146","597941","0.0-146.0","3J2UYBXQQMY6S23Q04KZYTZ2FZ160F","A2SKY4RRWII0BF","3MVY4USGB69K0BK9K576GJZ2CVDSII","","","img/flower4.png","76","874","3","1","3","1","1,0.333,0.333,0.333,1,0.333,0.333,0.333,1","1,0.333,0.333,0.333,1,0.333,0.333,0.333,1","1",""
"null","","html-keyboard-response","147","598242","0.0-147.0","3J2UYBXQQMY6S23Q04KZYTZ2FZ160F","A2SKY4RRWII0BF","3MVY4USGB69K0BK9K576GJZ2CVDSII","","","<img src=""img/flower4.png"" style=""width:200px; border:14px solid green;"">","null","","","","","","","","",""
"538","","image-keyboard-response","148","598781","0.0-148.0","3J2UYBXQQMY6S23Q04KZYTZ2FZ160F","A2SKY4RRWII0BF","3MVY4USGB69K0BK9K576GJZ2CVDSII","","","img/flower4.png","76","538","3","1","3","1","1,0.333,0.333,0.333,1,0.333,0.333,0.333,1","1,0.333,0.333,0.333,1,0.333,0.333,0.333,1","1",""
"null","","html-keyboard-response","149","599082","0.0-149.0","3J2UYBXQQMY6S23Q04KZYTZ2FZ160F","A2SKY4RRWII0BF","3MVY4USGB69K0BK9K576GJZ2CVDSII","","","<img src=""img/flower4.png"" style=""width:200px; border:14px solid green;"">","null","","","","","","","","",""
"1161","","image-keyboard-response","150","600245","0.0-150.0","3J2UYBXQQMY6S23Q04KZYTZ2FZ160F","A2SKY4RRWII0BF","3MVY4USGB69K0BK9K576GJZ2CVDSII","","","img/flower1.png","75","1162","2","0","1","1","1,0.333,0.333,0.333,1,0.333,0.333,0.333,1","1,0.333,0.333,0.333,1,0.333,0.333,0.333,1","1",""
"null","","html-keyboard-response","151","600546","0.0-151.0","3J2UYBXQQMY6S23Q04KZYTZ2FZ160F","A2SKY4RRWII0BF","3MVY4USGB69K0BK9K576GJZ2CVDSII","","","<img src=""img/flower1.png"" style=""width:200px;border:14px solid red;"">","null","","","","","","","","",""
"873","","image-keyboard-response","152","601421","0.0-152.0","3J2UYBXQQMY6S23Q04KZYTZ2FZ160F","A2SKY4RRWII0BF","3MVY4USGB69K0BK9K576GJZ2CVDSII","","","img/flower3.png","74","873","1","0","2","1","1,0.333,0.333,0.333,1,0.333,0.333,0.333,1","1,0.333,0.333,0.333,1,0.333,0.333,0.333,1","1",""
"null","","html-keyboard-response","153","601722","0.0-153.0","3J2UYBXQQMY6S23Q04KZYTZ2FZ160F","A2SKY4RRWII0BF","3MVY4USGB69K0BK9K576GJZ2CVDSII","","","<img src=""img/flower3.png"" style=""width:200px;border:14px solid red;"">","null","","","","","","","","",""
"2162","","image-keyboard-response","154","603885","0.0-154.0","3J2UYBXQQMY6S23Q04KZYTZ2FZ160F","A2SKY4RRWII0BF","3MVY4USGB69K0BK9K576GJZ2CVDSII","","","img/flower1.png","75","2163","2","1","1","1","1,0.333,0.333,0.333,1,0.333,0.333,0.333,1","1,0.333,0.333,0.333,1,0.333,0.333,0.333,1","1",""
"null","","html-keyboard-response","155","604187","0.0-155.0","3J2UYBXQQMY6S23Q04KZYTZ2FZ160F","A2SKY4RRWII0BF","3MVY4USGB69K0BK9K576GJZ2CVDSII","","","<img src=""img/flower1.png"" style=""width:200px; border:14px solid green;"">","null","","","","","","","","",""
"1032","","image-keyboard-response","156","605221","0.0-156.0","3J2UYBXQQMY6S23Q04KZYTZ2FZ160F","A2SKY4RRWII0BF","3MVY4USGB69K0BK9K576GJZ2CVDSII","","","img/flower1.png","75","1034","2","1","1","1","1,0.333,0.333,0.333,1,0.333,0.333,0.333,1","1,0.333,0.333,0.333,1,0.333,0.333,0.333,1","1",""
"null","","html-keyboard-response","157","605522","0.0-157.0","3J2UYBXQQMY6S23Q04KZYTZ2FZ160F","A2SKY4RRWII0BF","3MVY4USGB69K0BK9K576GJZ2CVDSII","","","<img src=""img/flower1.png"" style=""width:200px; border:14px solid green;"">","null","","","","","","","","",""
"3146","","image-keyboard-response","158","608669","0.0-158.0","3J2UYBXQQMY6S23Q04KZYTZ2FZ160F","A2SKY4RRWII0BF","3MVY4USGB69K0BK9K576GJZ2CVDSII","","","img/flower3.png","76","3146","3","1","2","1","1,0.333,0.333,0.333,1,0.333,0.333,0.333,1","1,0.333,0.333,0.333,1,0.333,0.333,0.333,1","1",""
"null","","html-keyboard-response","159","608970","0.0-159.0","3J2UYBXQQMY6S23Q04KZYTZ2FZ160F","A2SKY4RRWII0BF","3MVY4USGB69K0BK9K576GJZ2CVDSII","","","<img src=""img/flower3.png"" style=""width:200px; border:14px solid green;"">","null","","","","","","","","",""
"905","","image-keyboard-response","160","609877","0.0-160.0","3J2UYBXQQMY6S23Q04KZYTZ2FZ160F","A2SKY4RRWII0BF","3MVY4USGB69K0BK9K576GJZ2CVDSII","","","img/flower3.png","76","906","3","0","2","1","1,0.333,0.333,0.333,1,0.333,0.333,0.333,1","1,0.333,0.333,0.333,1,0.333,0.333,0.333,1","1",""
"null","","html-keyboard-response","161","610178","0.0-161.0","3J2UYBXQQMY6S23Q04KZYTZ2FZ160F","A2SKY4RRWII0BF","3MVY4USGB69K0BK9K576GJZ2CVDSII","","","<img src=""img/flower3.png"" style=""width:200px;border:14px solid red;"">","null","","","","","","","","",""
"1529","","image-keyboard-response","162","611709","0.0-162.0","3J2UYBXQQMY6S23Q04KZYTZ2FZ160F","A2SKY4RRWII0BF","3MVY4USGB69K0BK9K576GJZ2CVDSII","","","img/flower1.png","75","1530","2","1","1","1","1,0.333,0.333,0.333,1,0.333,0.333,0.333,1","1,0.333,0.333,0.333,1,0.333,0.333,0.333,1","1",""
"null","","html-keyboard-response","163","612010","0.0-163.0","3J2UYBXQQMY6S23Q04KZYTZ2FZ160F","A2SKY4RRWII0BF","3MVY4USGB69K0BK9K576GJZ2CVDSII","","","<img src=""img/flower1.png"" style=""width:200px; border:14px solid green;"">","null","","","","","","","","",""
"1265","","image-keyboard-response","164","613277","0.0-164.0","3J2UYBXQQMY6S23Q04KZYTZ2FZ160F","A2SKY4RRWII0BF","3MVY4USGB69K0BK9K576GJZ2CVDSII","","","img/flower3.png","74","1266","1","0","2","1","1,0.333,0.333,0.333,1,0.333,0.333,0.333,1","1,0.333,0.333,0.333,1,0.333,0.333,0.333,1","1",""
"null","","html-keyboard-response","165","613578","0.0-165.0","3J2UYBXQQMY6S23Q04KZYTZ2FZ160F","A2SKY4RRWII0BF","3MVY4USGB69K0BK9K576GJZ2CVDSII","","","<img src=""img/flower3.png"" style=""width:200px;border:14px solid red;"">","null","","","","","","","","",""
"1009","","image-keyboard-response","166","614589","0.0-166.0","3J2UYBXQQMY6S23Q04KZYTZ2FZ160F","A2SKY4RRWII0BF","3MVY4USGB69K0BK9K576GJZ2CVDSII","","","img/flower1.png","75","1009","2","1","1","1","1,0.333,0.333,0.333,1,0.333,0.333,0.333,1","1,0.333,0.333,0.333,1,0.333,0.333,0.333,1","1",""
"null","","html-keyboard-response","167","614890","0.0-167.0","3J2UYBXQQMY6S23Q04KZYTZ2FZ160F","A2SKY4RRWII0BF","3MVY4USGB69K0BK9K576GJZ2CVDSII","","","<img src=""img/flower1.png"" style=""width:200px; border:14px solid green;"">","null","","","","","","","","",""
"1258","","image-keyboard-response","168","616149","0.0-168.0","3J2UYBXQQMY6S23Q04KZYTZ2FZ160F","A2SKY4RRWII0BF","3MVY4USGB69K0BK9K576GJZ2CVDSII","","","img/flower3.png","76","1259","3","1","2","1","1,0.333,0.333,0.333,1,0.333,0.333,0.333,1","1,0.333,0.333,0.333,1,0.333,0.333,0.333,1","1",""
"null","","html-keyboard-response","169","616451","0.0-169.0","3J2UYBXQQMY6S23Q04KZYTZ2FZ160F","A2SKY4RRWII0BF","3MVY4USGB69K0BK9K576GJZ2CVDSII","","","<img src=""img/flower3.png"" style=""width:200px; border:14px solid green;"">","null","","","","","","","","",""
"1217","","image-keyboard-response","170","617669","0.0-170.0","3J2UYBXQQMY6S23Q04KZYTZ2FZ160F","A2SKY4RRWII0BF","3MVY4USGB69K0BK9K576GJZ2CVDSII","","","img/flower1.png","75","1217","2","0","1","1","1,0.333,0.333,0.333,1,0.333,0.333,0.333,1","1,0.333,0.333,0.333,1,0.333,0.333,0.333,1","1",""
"null","","html-keyboard-response","171","617970","0.0-171.0","3J2UYBXQQMY6S23Q04KZYTZ2FZ160F","A2SKY4RRWII0BF","3MVY4USGB69K0BK9K576GJZ2CVDSII","","","<img src=""img/flower1.png"" style=""width:200px;border:14px solid red;"">","null","","","","","","","","",""
"593","","image-keyboard-response","172","618565","0.0-172.0","3J2UYBXQQMY6S23Q04KZYTZ2FZ160F","A2SKY4RRWII0BF","3MVY4USGB69K0BK9K576GJZ2CVDSII","","","img/flower3.png","76","594","3","0","2","1","1,0.333,0.333,0.333,1,0.333,0.333,0.333,1","1,0.333,0.333,0.333,1,0.333,0.333,0.333,1","1",""
"null","","html-keyboard-response","173","618867","0.0-173.0","3J2UYBXQQMY6S23Q04KZYTZ2FZ160F","A2SKY4RRWII0BF","3MVY4USGB69K0BK9K576GJZ2CVDSII","","","<img src=""img/flower3.png"" style=""width:200px;border:14px solid red;"">","null","","","","","","","","",""
"1656","","image-keyboard-response","174","620525","0.0-174.0","3J2UYBXQQMY6S23Q04KZYTZ2FZ160F","A2SKY4RRWII0BF","3MVY4USGB69K0BK9K576GJZ2CVDSII","","","img/flower4.png","74","1657","1","1","3","1","1,0.333,0.333,0.333,1,0.333,0.333,0.333,1","1,0.333,0.333,0.333,1,0.333,0.333,0.333,1","1",""
"null","","html-keyboard-response","175","620826","0.0-175.0","3J2UYBXQQMY6S23Q04KZYTZ2FZ160F","A2SKY4RRWII0BF","3MVY4USGB69K0BK9K576GJZ2CVDSII","","","<img src=""img/flower4.png"" style=""width:200px; border:14px solid green;"">","null","","","","","","","","",""
"842","","image-keyboard-response","176","621669","0.0-176.0","3J2UYBXQQMY6S23Q04KZYTZ2FZ160F","A2SKY4RRWII0BF","3MVY4USGB69K0BK9K576GJZ2CVDSII","","","img/flower4.png","74","842","1","0","3","1","1,0.333,0.333,0.333,1,0.333,0.333,0.333,1","1,0.333,0.333,0.333,1,0.333,0.333,0.333,1","1",""
"null","","html-keyboard-response","177","621970","0.0-177.0","3J2UYBXQQMY6S23Q04KZYTZ2FZ160F","A2SKY4RRWII0BF","3MVY4USGB69K0BK9K576GJZ2CVDSII","","","<img src=""img/flower4.png"" style=""width:200px;border:14px solid red;"">","null","","","","","","","","",""
"570","","image-keyboard-response","178","622541","0.0-178.0","3J2UYBXQQMY6S23Q04KZYTZ2FZ160F","A2SKY4RRWII0BF","3MVY4USGB69K0BK9K576GJZ2CVDSII","","","img/flower4.png","74","571","1","0","3","1","1,0.333,0.333,0.333,1,0.333,0.333,0.333,1","1,0.333,0.333,0.333,1,0.333,0.333,0.333,1","1",""
"null","","html-keyboard-response","179","622842","0.0-179.0","3J2UYBXQQMY6S23Q04KZYTZ2FZ160F","A2SKY4RRWII0BF","3MVY4USGB69K0BK9K576GJZ2CVDSII","","","<img src=""img/flower4.png"" style=""width:200px;border:14px solid red;"">","null","","","","","","","","",""
"3433","","image-keyboard-response","180","626277","0.0-180.0","3J2UYBXQQMY6S23Q04KZYTZ2FZ160F","A2SKY4RRWII0BF","3MVY4USGB69K0BK9K576GJZ2CVDSII","","","img/flower3.png","76","3436","3","0","2","1","1,0.333,0.333,0.333,1,0.333,0.333,0.333,1","1,0.333,0.333,0.333,1,0.333,0.333,0.333,1","1",""
"null","","html-keyboard-response","181","626578","0.0-181.0","3J2UYBXQQMY6S23Q04KZYTZ2FZ160F","A2SKY4RRWII0BF","3MVY4USGB69K0BK9K576GJZ2CVDSII","","","<img src=""img/flower3.png"" style=""width:200px;border:14px solid red;"">","null","","","","","","","","",""
"914","","image-keyboard-response","182","627493","0.0-182.0","3J2UYBXQQMY6S23Q04KZYTZ2FZ160F","A2SKY4RRWII0BF","3MVY4USGB69K0BK9K576GJZ2CVDSII","","","img/flower1.png","75","915","2","1","1","1","1,0.333,0.333,0.333,1,0.333,0.333,0.333,1","1,0.333,0.333,0.333,1,0.333,0.333,0.333,1","1",""
"null","","html-keyboard-response","183","627794","0.0-183.0","3J2UYBXQQMY6S23Q04KZYTZ2FZ160F","A2SKY4RRWII0BF","3MVY4USGB69K0BK9K576GJZ2CVDSII","","","<img src=""img/flower1.png"" style=""width:200px; border:14px solid green;"">","null","","","","","","","","",""
"609","","image-keyboard-response","184","628405","0.0-184.0","3J2UYBXQQMY6S23Q04KZYTZ2FZ160F","A2SKY4RRWII0BF","3MVY4USGB69K0BK9K576GJZ2CVDSII","","","img/flower1.png","75","609","2","0","1","1","1,0.333,0.333,0.333,1,0.333,0.333,0.333,1","1,0.333,0.333,0.333,1,0.333,0.333,0.333,1","1",""
"null","","html-keyboard-response","185","628706","0.0-185.0","3J2UYBXQQMY6S23Q04KZYTZ2FZ160F","A2SKY4RRWII0BF","3MVY4USGB69K0BK9K576GJZ2CVDSII","","","<img src=""img/flower1.png"" style=""width:200px;border:14px solid red;"">","null","","","","","","","","",""
"1970","","image-keyboard-response","186","630677","0.0-186.0","3J2UYBXQQMY6S23Q04KZYTZ2FZ160F","A2SKY4RRWII0BF","3MVY4USGB69K0BK9K576GJZ2CVDSII","","","img/flower4.png","74","1970","1","0","3","1","1,0.333,0.333,0.333,1,0.333,0.333,0.333,1","1,0.333,0.333,0.333,1,0.333,0.333,0.333,1","1",""
"null","","html-keyboard-response","187","630979","0.0-187.0","3J2UYBXQQMY6S23Q04KZYTZ2FZ160F","A2SKY4RRWII0BF","3MVY4USGB69K0BK9K576GJZ2CVDSII","","","<img src=""img/flower4.png"" style=""width:200px;border:14px solid red;"">","null","","","","","","","","",""
"697","","image-keyboard-response","188","631677","0.0-188.0","3J2UYBXQQMY6S23Q04KZYTZ2FZ160F","A2SKY4RRWII0BF","3MVY4USGB69K0BK9K576GJZ2CVDSII","","","img/flower4.png","74","698","1","0","3","1","1,0.333,0.333,0.333,1,0.333,0.333,0.333,1","1,0.333,0.333,0.333,1,0.333,0.333,0.333,1","1",""
"null","","html-keyboard-response","189","631979","0.0-189.0","3J2UYBXQQMY6S23Q04KZYTZ2FZ160F","A2SKY4RRWII0BF","3MVY4USGB69K0BK9K576GJZ2CVDSII","","","<img src=""img/flower4.png"" style=""width:200px;border:14px solid red;"">","null","","","","","","","","",""
"1657","","image-keyboard-response","190","633638","0.0-190.0","3J2UYBXQQMY6S23Q04KZYTZ2FZ160F","A2SKY4RRWII0BF","3MVY4USGB69K0BK9K576GJZ2CVDSII","","","img/flower3.png","76","1658","3","1","2","1","1,0.333,0.333,0.333,1,0.333,0.333,0.333,1","1,0.333,0.333,0.333,1,0.333,0.333,0.333,1","1",""
"null","","html-keyboard-response","191","633939","0.0-191.0","3J2UYBXQQMY6S23Q04KZYTZ2FZ160F","A2SKY4RRWII0BF","3MVY4USGB69K0BK9K576GJZ2CVDSII","","","<img src=""img/flower3.png"" style=""width:200px; border:14px solid green;"">","null","","","","","","","","",""
"1057","","image-keyboard-response","192","634997","0.0-192.0","3J2UYBXQQMY6S23Q04KZYTZ2FZ160F","A2SKY4RRWII0BF","3MVY4USGB69K0BK9K576GJZ2CVDSII","","","img/flower1.png","75","1058","2","1","1","1","1,0.333,0.333,0.333,1,0.333,0.333,0.333,1","1,0.333,0.333,0.333,1,0.333,0.333,0.333,1","1",""
"null","","html-keyboard-response","193","635298","0.0-193.0","3J2UYBXQQMY6S23Q04KZYTZ2FZ160F","A2SKY4RRWII0BF","3MVY4USGB69K0BK9K576GJZ2CVDSII","","","<img src=""img/flower1.png"" style=""width:200px; border:14px solid green;"">","null","","","","","","","","",""
"1434","","image-keyboard-response","194","636733","0.0-194.0","3J2UYBXQQMY6S23Q04KZYTZ2FZ160F","A2SKY4RRWII0BF","3MVY4USGB69K0BK9K576GJZ2CVDSII","","","img/flower4.png","74","1434","1","1","3","1","1,0.333,0.333,0.333,1,0.333,0.333,0.333,1","1,0.333,0.333,0.333,1,0.333,0.333,0.333,1","1",""
"null","","html-keyboard-response","195","637035","0.0-195.0","3J2UYBXQQMY6S23Q04KZYTZ2FZ160F","A2SKY4RRWII0BF","3MVY4USGB69K0BK9K576GJZ2CVDSII","","","<img src=""img/flower4.png"" style=""width:200px; border:14px solid green;"">","null","","","","","","","","",""
"617","","image-keyboard-response","196","637653","0.0-196.0","3J2UYBXQQMY6S23Q04KZYTZ2FZ160F","A2SKY4RRWII0BF","3MVY4USGB69K0BK9K576GJZ2CVDSII","","","img/flower4.png","74","617","1","1","3","1","1,0.333,0.333,0.333,1,0.333,0.333,0.333,1","1,0.333,0.333,0.333,1,0.333,0.333,0.333,1","1",""
"null","","html-keyboard-response","197","637954","0.0-197.0","3J2UYBXQQMY6S23Q04KZYTZ2FZ160F","A2SKY4RRWII0BF","3MVY4USGB69K0BK9K576GJZ2CVDSII","","","<img src=""img/flower4.png"" style=""width:200px; border:14px solid green;"">","null","","","","","","","","",""
"1769","","image-keyboard-response","198","639725","0.0-198.0","3J2UYBXQQMY6S23Q04KZYTZ2FZ160F","A2SKY4RRWII0BF","3MVY4USGB69K0BK9K576GJZ2CVDSII","","","img/flower3.png","76","1770","3","0","2","1","1,0.333,0.333,0.333,1,0.333,0.333,0.333,1","1,0.333,0.333,0.333,1,0.333,0.333,0.333,1","1",""
"null","","html-keyboard-response","199","640026","0.0-199.0","3J2UYBXQQMY6S23Q04KZYTZ2FZ160F","A2SKY4RRWII0BF","3MVY4USGB69K0BK9K576GJZ2CVDSII","","","<img src=""img/flower3.png"" style=""width:200px;border:14px solid red;"">","null","","","","","","","","",""
"1242","","image-keyboard-response","200","641269","0.0-200.0","3J2UYBXQQMY6S23Q04KZYTZ2FZ160F","A2SKY4RRWII0BF","3MVY4USGB69K0BK9K576GJZ2CVDSII","","","img/flower4.png","74","1243","1","0","3","1","1,0.333,0.333,0.333,1,0.333,0.333,0.333,1","1,0.333,0.333,0.333,1,0.333,0.333,0.333,1","1",""
"null","","html-keyboard-response","201","641570","0.0-201.0","3J2UYBXQQMY6S23Q04KZYTZ2FZ160F","A2SKY4RRWII0BF","3MVY4USGB69K0BK9K576GJZ2CVDSII","","","<img src=""img/flower4.png"" style=""width:200px;border:14px solid red;"">","null","","","","","","","","",""
"521","","image-keyboard-response","202","642093","0.0-202.0","3J2UYBXQQMY6S23Q04KZYTZ2FZ160F","A2SKY4RRWII0BF","3MVY4USGB69K0BK9K576GJZ2CVDSII","","","img/flower4.png","74","522","1","0","3","1","1,0.333,0.333,0.333,1,0.333,0.333,0.333,1","1,0.333,0.333,0.333,1,0.333,0.333,0.333,1","1",""
"null","","html-keyboard-response","203","642394","0.0-203.0","3J2UYBXQQMY6S23Q04KZYTZ2FZ160F","A2SKY4RRWII0BF","3MVY4USGB69K0BK9K576GJZ2CVDSII","","","<img src=""img/flower4.png"" style=""width:200px;border:14px solid red;"">","null","","","","","","","","",""
"1802","","image-keyboard-response","204","644197","0.0-204.0","3J2UYBXQQMY6S23Q04KZYTZ2FZ160F","A2SKY4RRWII0BF","3MVY4USGB69K0BK9K576GJZ2CVDSII","","","img/flower3.png","76","1804","3","0","2","1","1,0.333,0.333,0.333,1,0.333,0.333,0.333,1","1,0.333,0.333,0.333,1,0.333,0.333,0.333,1","1",""
"null","","html-keyboard-response","205","644499","0.0-205.0","3J2UYBXQQMY6S23Q04KZYTZ2FZ160F","A2SKY4RRWII0BF","3MVY4USGB69K0BK9K576GJZ2CVDSII","","","<img src=""img/flower3.png"" style=""width:200px;border:14px solid red;"">","null","","","","","","","","",""
"785","","image-keyboard-response","206","645285","0.0-206.0","3J2UYBXQQMY6S23Q04KZYTZ2FZ160F","A2SKY4RRWII0BF","3MVY4USGB69K0BK9K576GJZ2CVDSII","","","img/flower1.png","75","785","2","1","1","1","1,0.333,0.333,0.333,1,0.333,0.333,0.333,1","1,0.333,0.333,0.333,1,0.333,0.333,0.333,1","1",""
"null","","html-keyboard-response","207","645586","0.0-207.0","3J2UYBXQQMY6S23Q04KZYTZ2FZ160F","A2SKY4RRWII0BF","3MVY4USGB69K0BK9K576GJZ2CVDSII","","","<img src=""img/flower1.png"" style=""width:200px; border:14px solid green;"">","null","","","","","","","","",""
"1538","","image-keyboard-response","208","647125","0.0-208.0","3J2UYBXQQMY6S23Q04KZYTZ2FZ160F","A2SKY4RRWII0BF","3MVY4USGB69K0BK9K576GJZ2CVDSII","","","img/flower3.png","76","1539","3","1","2","1","1,0.333,0.333,0.333,1,0.333,0.333,0.333,1","1,0.333,0.333,0.333,1,0.333,0.333,0.333,1","1",""
"null","","html-keyboard-response","209","647426","0.0-209.0","3J2UYBXQQMY6S23Q04KZYTZ2FZ160F","A2SKY4RRWII0BF","3MVY4USGB69K0BK9K576GJZ2CVDSII","","","<img src=""img/flower3.png"" style=""width:200px; border:14px solid green;"">","null","","","","","","","","",""
"537","","image-keyboard-response","210","647965","0.0-210.0","3J2UYBXQQMY6S23Q04KZYTZ2FZ160F","A2SKY4RRWII0BF","3MVY4USGB69K0BK9K576GJZ2CVDSII","","","img/flower3.png","76","539","3","1","2","1","1,0.333,0.333,0.333,1,0.333,0.333,0.333,1","1,0.333,0.333,0.333,1,0.333,0.333,0.333,1","1",""
"null","","html-keyboard-response","211","648267","0.0-211.0","3J2UYBXQQMY6S23Q04KZYTZ2FZ160F","A2SKY4RRWII0BF","3MVY4USGB69K0BK9K576GJZ2CVDSII","","","<img src=""img/flower3.png"" style=""width:200px; border:14px solid green;"">","null","","","","","","","","",""
"890","","image-keyboard-response","212","649157","0.0-212.0","3J2UYBXQQMY6S23Q04KZYTZ2FZ160F","A2SKY4RRWII0BF","3MVY4USGB69K0BK9K576GJZ2CVDSII","","","img/flower4.png","75","890","2","1","3","1","1,0.333,0.333,0.333,1,0.333,0.333,0.333,1","1,0.333,0.333,0.333,1,0.333,0.333,0.333,1","1",""
"null","","html-keyboard-response","213","649458","0.0-213.0","3J2UYBXQQMY6S23Q04KZYTZ2FZ160F","A2SKY4RRWII0BF","3MVY4USGB69K0BK9K576GJZ2CVDSII","","","<img src=""img/flower4.png"" style=""width:200px; border:14px solid green;"">","null","","","","","","","","",""
"666","","image-keyboard-response","214","650125","0.0-214.0","3J2UYBXQQMY6S23Q04KZYTZ2FZ160F","A2SKY4RRWII0BF","3MVY4USGB69K0BK9K576GJZ2CVDSII","","","img/flower3.png","76","667","3","0","2","1","1,0.333,0.333,0.333,1,0.333,0.333,0.333,1","1,0.333,0.333,0.333,1,0.333,0.333,0.333,1","1",""
"null","","html-keyboard-response","215","650426","0.0-215.0","3J2UYBXQQMY6S23Q04KZYTZ2FZ160F","A2SKY4RRWII0BF","3MVY4USGB69K0BK9K576GJZ2CVDSII","","","<img src=""img/flower3.png"" style=""width:200px;border:14px solid red;"">","null","","","","","","","","",""
"1001","","image-keyboard-response","216","651429","0.0-216.0","3J2UYBXQQMY6S23Q04KZYTZ2FZ160F","A2SKY4RRWII0BF","3MVY4USGB69K0BK9K576GJZ2CVDSII","","","img/flower4.png","75","1002","2","0","3","1","1,0.333,0.333,0.333,1,0.333,0.333,0.333,1","1,0.333,0.333,0.333,1,0.333,0.333,0.333,1","1",""
"null","","html-keyboard-response","217","651731","0.0-217.0","3J2UYBXQQMY6S23Q04KZYTZ2FZ160F","A2SKY4RRWII0BF","3MVY4USGB69K0BK9K576GJZ2CVDSII","","","<img src=""img/flower4.png"" style=""width:200px;border:14px solid red;"">","null","","","","","","","","",""
"1656","","image-keyboard-response","218","653389","0.0-218.0","3J2UYBXQQMY6S23Q04KZYTZ2FZ160F","A2SKY4RRWII0BF","3MVY4USGB69K0BK9K576GJZ2CVDSII","","","img/flower4.png","74","1657","1","1","3","1","1,0.333,0.333,0.333,1,0.333,0.333,0.333,1","1,0.333,0.333,0.333,1,0.333,0.333,0.333,1","1",""
"null","","html-keyboard-response","219","653690","0.0-219.0","3J2UYBXQQMY6S23Q04KZYTZ2FZ160F","A2SKY4RRWII0BF","3MVY4USGB69K0BK9K576GJZ2CVDSII","","","<img src=""img/flower4.png"" style=""width:200px; border:14px solid green;"">","null","","","","","","","","",""
"987","","image-keyboard-response","220","654678","0.0-220.0","3J2UYBXQQMY6S23Q04KZYTZ2FZ160F","A2SKY4RRWII0BF","3MVY4USGB69K0BK9K576GJZ2CVDSII","","","img/flower3.png","76","988","3","1","2","1","1,0.333,0.333,0.333,1,0.333,0.333,0.333,1","1,0.333,0.333,0.333,1,0.333,0.333,0.333,1","1",""
"null","","html-keyboard-response","221","654979","0.0-221.0","3J2UYBXQQMY6S23Q04KZYTZ2FZ160F","A2SKY4RRWII0BF","3MVY4USGB69K0BK9K576GJZ2CVDSII","","","<img src=""img/flower3.png"" style=""width:200px; border:14px solid green;"">","null","","","","","","","","",""
"776","","image-keyboard-response","222","655757","0.0-222.0","3J2UYBXQQMY6S23Q04KZYTZ2FZ160F","A2SKY4RRWII0BF","3MVY4USGB69K0BK9K576GJZ2CVDSII","","","img/flower3.png","76","777","3","1","2","1","1,0.333,0.333,0.333,1,0.333,0.333,0.333,1","1,0.333,0.333,0.333,1,0.333,0.333,0.333,1","1",""
"null","","html-keyboard-response","223","656058","0.0-223.0","3J2UYBXQQMY6S23Q04KZYTZ2FZ160F","A2SKY4RRWII0BF","3MVY4USGB69K0BK9K576GJZ2CVDSII","","","<img src=""img/flower3.png"" style=""width:200px; border:14px solid green;"">","null","","","","","","","","",""
"409","","image-keyboard-response","224","656469","0.0-224.0","3J2UYBXQQMY6S23Q04KZYTZ2FZ160F","A2SKY4RRWII0BF","3MVY4USGB69K0BK9K576GJZ2CVDSII","","","img/flower3.png","76","410","3","1","2","1","1,0.333,0.333,0.333,1,0.333,0.333,0.333,1","1,0.333,0.333,0.333,1,0.333,0.333,0.333,1","1",""
"null","","html-keyboard-response","225","656770","0.0-225.0","3J2UYBXQQMY6S23Q04KZYTZ2FZ160F","A2SKY4RRWII0BF","3MVY4USGB69K0BK9K576GJZ2CVDSII","","","<img src=""img/flower3.png"" style=""width:200px; border:14px solid green;"">","null","","","","","","","","",""
"905","","image-keyboard-response","226","657677","0.0-226.0","3J2UYBXQQMY6S23Q04KZYTZ2FZ160F","A2SKY4RRWII0BF","3MVY4USGB69K0BK9K576GJZ2CVDSII","","","img/flower1.png","75","906","2","0","1","1","1,0.333,0.333,0.333,1,0.333,0.333,0.333,1","1,0.333,0.333,0.333,1,0.333,0.333,0.333,1","1",""
"null","","html-keyboard-response","227","657978","0.0-227.0","3J2UYBXQQMY6S23Q04KZYTZ2FZ160F","A2SKY4RRWII0BF","3MVY4USGB69K0BK9K576GJZ2CVDSII","","","<img src=""img/flower1.png"" style=""width:200px;border:14px solid red;"">","null","","","","","","","","",""
"1585","","image-keyboard-response","228","659565","0.0-228.0","3J2UYBXQQMY6S23Q04KZYTZ2FZ160F","A2SKY4RRWII0BF","3MVY4USGB69K0BK9K576GJZ2CVDSII","","","img/flower3.png","76","1587","3","1","2","1","1,0.333,0.333,0.333,1,0.333,0.333,0.333,1","1,0.333,0.333,0.333,1,0.333,0.333,0.333,1","1",""
"null","","html-keyboard-response","229","659867","0.0-229.0","3J2UYBXQQMY6S23Q04KZYTZ2FZ160F","A2SKY4RRWII0BF","3MVY4USGB69K0BK9K576GJZ2CVDSII","","","<img src=""img/flower3.png"" style=""width:200px; border:14px solid green;"">","null","","","","","","","","",""
"976","","image-keyboard-response","230","660845","0.0-230.0","3J2UYBXQQMY6S23Q04KZYTZ2FZ160F","A2SKY4RRWII0BF","3MVY4USGB69K0BK9K576GJZ2CVDSII","","","img/flower1.png","75","978","2","1","1","1","1,0.333,0.333,0.333,1,0.333,0.333,0.333,1","1,0.333,0.333,0.333,1,0.333,0.333,0.333,1","1",""
"null","","html-keyboard-response","231","661147","0.0-231.0","3J2UYBXQQMY6S23Q04KZYTZ2FZ160F","A2SKY4RRWII0BF","3MVY4USGB69K0BK9K576GJZ2CVDSII","","","<img src=""img/flower1.png"" style=""width:200px; border:14px solid green;"">","null","","","","","","","","",""
"3281","","image-keyboard-response","232","664430","0.0-232.0","3J2UYBXQQMY6S23Q04KZYTZ2FZ160F","A2SKY4RRWII0BF","3MVY4USGB69K0BK9K576GJZ2CVDSII","","","img/flower3.png","76","3282","3","0","2","1","1,0.333,0.333,0.333,1,0.333,0.333,0.333,1","1,0.333,0.333,0.333,1,0.333,0.333,0.333,1","1",""
"null","","html-keyboard-response","233","664731","0.0-233.0","3J2UYBXQQMY6S23Q04KZYTZ2FZ160F","A2SKY4RRWII0BF","3MVY4USGB69K0BK9K576GJZ2CVDSII","","","<img src=""img/flower3.png"" style=""width:200px;border:14px solid red;"">","null","","","","","","","","",""
"544","","image-keyboard-response","234","665277","0.0-234.0","3J2UYBXQQMY6S23Q04KZYTZ2FZ160F","A2SKY4RRWII0BF","3MVY4USGB69K0BK9K576GJZ2CVDSII","","","img/flower3.png","76","545","3","0","2","1","1,0.333,0.333,0.333,1,0.333,0.333,0.333,1","1,0.333,0.333,0.333,1,0.333,0.333,0.333,1","1",""
"null","","html-keyboard-response","235","665578","0.0-235.0","3J2UYBXQQMY6S23Q04KZYTZ2FZ160F","A2SKY4RRWII0BF","3MVY4USGB69K0BK9K576GJZ2CVDSII","","","<img src=""img/flower3.png"" style=""width:200px;border:14px solid red;"">","null","","","","","","","","",""
"137","","image-keyboard-response","236","665717","0.0-236.0","3J2UYBXQQMY6S23Q04KZYTZ2FZ160F","A2SKY4RRWII0BF","3MVY4USGB69K0BK9K576GJZ2CVDSII","","","img/flower1.png","76","138","3","1","1","1","1,0.333,0.333,0.333,1,0.333,0.333,0.333,1","1,0.333,0.333,0.333,1,0.333,0.333,0.333,1","1",""
"null","","html-keyboard-response","237","666018","0.0-237.0","3J2UYBXQQMY6S23Q04KZYTZ2FZ160F","A2SKY4RRWII0BF","3MVY4USGB69K0BK9K576GJZ2CVDSII","","","<img src=""img/flower1.png"" style=""width:200px; border:14px solid green;"">","null","","","","","","","","",""
"1603","","image-keyboard-response","238","667621","0.0-238.0","3J2UYBXQQMY6S23Q04KZYTZ2FZ160F","A2SKY4RRWII0BF","3MVY4USGB69K0BK9K576GJZ2CVDSII","","","img/flower4.png","74","1603","1","0","3","1","1,0.333,0.333,0.333,1,0.333,0.333,0.333,1","1,0.333,0.333,0.333,1,0.333,0.333,0.333,1","1",""
"null","","html-keyboard-response","239","667922","0.0-239.0","3J2UYBXQQMY6S23Q04KZYTZ2FZ160F","A2SKY4RRWII0BF","3MVY4USGB69K0BK9K576GJZ2CVDSII","","","<img src=""img/flower4.png"" style=""width:200px;border:14px solid red;"">","null","","","","","","","","",""
"410","","image-keyboard-response","240","668333","0.0-240.0","3J2UYBXQQMY6S23Q04KZYTZ2FZ160F","A2SKY4RRWII0BF","3MVY4USGB69K0BK9K576GJZ2CVDSII","","","img/flower4.png","74","411","1","0","3","1","1,0.333,0.333,0.333,1,0.333,0.333,0.333,1","1,0.333,0.333,0.333,1,0.333,0.333,0.333,1","1",""
"null","","html-keyboard-response","241","668634","0.0-241.0","3J2UYBXQQMY6S23Q04KZYTZ2FZ160F","A2SKY4RRWII0BF","3MVY4USGB69K0BK9K576GJZ2CVDSII","","","<img src=""img/flower4.png"" style=""width:200px;border:14px solid red;"">","null","","","","","","","","",""
"379","","image-keyboard-response","242","669014","0.0-242.0","3J2UYBXQQMY6S23Q04KZYTZ2FZ160F","A2SKY4RRWII0BF","3MVY4USGB69K0BK9K576GJZ2CVDSII","","","img/flower4.png","74","379","1","0","3","1","1,0.333,0.333,0.333,1,0.333,0.333,0.333,1","1,0.333,0.333,0.333,1,0.333,0.333,0.333,1","1",""
"null","","html-keyboard-response","243","669316","0.0-243.0","3J2UYBXQQMY6S23Q04KZYTZ2FZ160F","A2SKY4RRWII0BF","3MVY4USGB69K0BK9K576GJZ2CVDSII","","","<img src=""img/flower4.png"" style=""width:200px;border:14px solid red;"">","null","","","","","","","","",""
"1184","","image-keyboard-response","244","670501","0.0-244.0","3J2UYBXQQMY6S23Q04KZYTZ2FZ160F","A2SKY4RRWII0BF","3MVY4USGB69K0BK9K576GJZ2CVDSII","","","img/flower3.png","76","1185","3","1","2","1","1,0.333,0.333,0.333,1,0.333,0.333,0.333,1","1,0.333,0.333,0.333,1,0.333,0.333,0.333,1","1",""
"null","","html-keyboard-response","245","670803","0.0-245.0","3J2UYBXQQMY6S23Q04KZYTZ2FZ160F","A2SKY4RRWII0BF","3MVY4USGB69K0BK9K576GJZ2CVDSII","","","<img src=""img/flower3.png"" style=""width:200px; border:14px solid green;"">","null","","","","","","","","",""
"474","","image-keyboard-response","246","671277","0.0-246.0","3J2UYBXQQMY6S23Q04KZYTZ2FZ160F","A2SKY4RRWII0BF","3MVY4USGB69K0BK9K576GJZ2CVDSII","","","img/flower3.png","76","474","3","1","2","1","1,0.333,0.333,0.333,1,0.333,0.333,0.333,1","1,0.333,0.333,0.333,1,0.333,0.333,0.333,1","1",""
"null","","html-keyboard-response","247","671579","0.0-247.0","3J2UYBXQQMY6S23Q04KZYTZ2FZ160F","A2SKY4RRWII0BF","3MVY4USGB69K0BK9K576GJZ2CVDSII","","","<img src=""img/flower3.png"" style=""width:200px; border:14px solid green;"">","null","","","","","","","","",""
"337","","image-keyboard-response","248","671917","0.0-248.0","3J2UYBXQQMY6S23Q04KZYTZ2FZ160F","A2SKY4RRWII0BF","3MVY4USGB69K0BK9K576GJZ2CVDSII","","","img/flower3.png","76","338","3","1","2","1","1,0.333,0.333,0.333,1,0.333,0.333,0.333,1","1,0.333,0.333,0.333,1,0.333,0.333,0.333,1","1",""
"null","","html-keyboard-response","249","672219","0.0-249.0","3J2UYBXQQMY6S23Q04KZYTZ2FZ160F","A2SKY4RRWII0BF","3MVY4USGB69K0BK9K576GJZ2CVDSII","","","<img src=""img/flower3.png"" style=""width:200px; border:14px solid green;"">","null","","","","","","","","",""
"240","","image-keyboard-response","250","672461","0.0-250.0","3J2UYBXQQMY6S23Q04KZYTZ2FZ160F","A2SKY4RRWII0BF","3MVY4USGB69K0BK9K576GJZ2CVDSII","","","img/flower3.png","76","241","3","0","2","1","1,0.333,0.333,0.333,1,0.333,0.333,0.333,1","1,0.333,0.333,0.333,1,0.333,0.333,0.333,1","1",""
"null","","html-keyboard-response","251","672762","0.0-251.0","3J2UYBXQQMY6S23Q04KZYTZ2FZ160F","A2SKY4RRWII0BF","3MVY4USGB69K0BK9K576GJZ2CVDSII","","","<img src=""img/flower3.png"" style=""width:200px;border:14px solid red;"">","null","","","","","","","","",""
"1889","","image-keyboard-response","252","674653","0.0-252.0","3J2UYBXQQMY6S23Q04KZYTZ2FZ160F","A2SKY4RRWII0BF","3MVY4USGB69K0BK9K576GJZ2CVDSII","","","img/flower4.png","74","1890","1","0","3","1","1,0.333,0.333,0.333,1,0.333,0.333,0.333,1","1,0.333,0.333,0.333,1,0.333,0.333,0.333,1","1",""
"null","","html-keyboard-response","253","674954","0.0-253.0","3J2UYBXQQMY6S23Q04KZYTZ2FZ160F","A2SKY4RRWII0BF","3MVY4USGB69K0BK9K576GJZ2CVDSII","","","<img src=""img/flower4.png"" style=""width:200px;border:14px solid red;"">","null","","","","","","","","",""
"353","","image-keyboard-response","254","675309","0.0-254.0","3J2UYBXQQMY6S23Q04KZYTZ2FZ160F","A2SKY4RRWII0BF","3MVY4USGB69K0BK9K576GJZ2CVDSII","","","img/flower4.png","74","355","1","0","3","1","1,0.333,0.333,0.333,1,0.333,0.333,0.333,1","1,0.333,0.333,0.333,1,0.333,0.333,0.333,1","1",""
"null","","html-keyboard-response","255","675610","0.0-255.0","3J2UYBXQQMY6S23Q04KZYTZ2FZ160F","A2SKY4RRWII0BF","3MVY4USGB69K0BK9K576GJZ2CVDSII","","","<img src=""img/flower4.png"" style=""width:200px;border:14px solid red;"">","null","","","","","","","","",""
"123","","image-keyboard-response","256","675733","0.0-256.0","3J2UYBXQQMY6S23Q04KZYTZ2FZ160F","A2SKY4RRWII0BF","3MVY4USGB69K0BK9K576GJZ2CVDSII","","","img/flower1.png","74","123","1","1","1","1","1,0.333,0.333,0.333,1,0.333,0.333,0.333,1","1,0.333,0.333,0.333,1,0.333,0.333,0.333,1","1",""
"null","","html-keyboard-response","257","676035","0.0-257.0","3J2UYBXQQMY6S23Q04KZYTZ2FZ160F","A2SKY4RRWII0BF","3MVY4USGB69K0BK9K576GJZ2CVDSII","","","<img src=""img/flower1.png"" style=""width:200px; border:14px solid green;"">","null","","","","","","","","",""
"1241","","image-keyboard-response","258","677277","0.0-258.0","3J2UYBXQQMY6S23Q04KZYTZ2FZ160F","A2SKY4RRWII0BF","3MVY4USGB69K0BK9K576GJZ2CVDSII","","","img/flower4.png","74","1242","1","1","3","1","1,0.333,0.333,0.333,1,0.333,0.333,0.333,1","1,0.333,0.333,0.333,1,0.333,0.333,0.333,1","1",""
"null","","html-keyboard-response","259","677578","0.0-259.0","3J2UYBXQQMY6S23Q04KZYTZ2FZ160F","A2SKY4RRWII0BF","3MVY4USGB69K0BK9K576GJZ2CVDSII","","","<img src=""img/flower4.png"" style=""width:200px; border:14px solid green;"">","null","","","","","","","","",""
"490","","image-keyboard-response","260","678069","0.0-260.0","3J2UYBXQQMY6S23Q04KZYTZ2FZ160F","A2SKY4RRWII0BF","3MVY4USGB69K0BK9K576GJZ2CVDSII","","","img/flower4.png","74","490","1","0","3","1","1,0.333,0.333,0.333,1,0.333,0.333,0.333,1","1,0.333,0.333,0.333,1,0.333,0.333,0.333,1","1",""
"null","","html-keyboard-response","261","678371","0.0-261.0","3J2UYBXQQMY6S23Q04KZYTZ2FZ160F","A2SKY4RRWII0BF","3MVY4USGB69K0BK9K576GJZ2CVDSII","","","<img src=""img/flower4.png"" style=""width:200px;border:14px solid red;"">","null","","","","","","","","",""
"962","","image-keyboard-response","262","679333","0.0-262.0","3J2UYBXQQMY6S23Q04KZYTZ2FZ160F","A2SKY4RRWII0BF","3MVY4USGB69K0BK9K576GJZ2CVDSII","","","img/flower1.png","75","963","2","1","1","1","1,0.333,0.333,0.333,1,0.333,0.333,0.333,1","1,0.333,0.333,0.333,1,0.333,0.333,0.333,1","1",""
"null","","html-keyboard-response","263","679635","0.0-263.0","3J2UYBXQQMY6S23Q04KZYTZ2FZ160F","A2SKY4RRWII0BF","3MVY4USGB69K0BK9K576GJZ2CVDSII","","","<img src=""img/flower1.png"" style=""width:200px; border:14px solid green;"">","null","","","","","","","","",""
"1073","","image-keyboard-response","264","680709","0.0-264.0","3J2UYBXQQMY6S23Q04KZYTZ2FZ160F","A2SKY4RRWII0BF","3MVY4USGB69K0BK9K576GJZ2CVDSII","","","img/flower4.png","74","1074","1","1","3","1","1,0.333,0.333,0.333,1,0.333,0.333,0.333,1","1,0.333,0.333,0.333,1,0.333,0.333,0.333,1","1",""
"null","","html-keyboard-response","265","681011","0.0-265.0","3J2UYBXQQMY6S23Q04KZYTZ2FZ160F","A2SKY4RRWII0BF","3MVY4USGB69K0BK9K576GJZ2CVDSII","","","<img src=""img/flower4.png"" style=""width:200px; border:14px solid green;"">","null","","","","","","","","",""
"873","","image-keyboard-response","266","681885","0.0-266.0","3J2UYBXQQMY6S23Q04KZYTZ2FZ160F","A2SKY4RRWII0BF","3MVY4USGB69K0BK9K576GJZ2CVDSII","","","img/flower3.png","76","873","3","0","2","1","1,0.333,0.333,0.333,1,0.333,0.333,0.333,1","1,0.333,0.333,0.333,1,0.333,0.333,0.333,1","1",""
"null","","html-keyboard-response","267","682187","0.0-267.0","3J2UYBXQQMY6S23Q04KZYTZ2FZ160F","A2SKY4RRWII0BF","3MVY4USGB69K0BK9K576GJZ2CVDSII","","","<img src=""img/flower3.png"" style=""width:200px;border:14px solid red;"">","null","","","","","","","","",""
"849","","image-keyboard-response","268","683037","0.0-268.0","3J2UYBXQQMY6S23Q04KZYTZ2FZ160F","A2SKY4RRWII0BF","3MVY4USGB69K0BK9K576GJZ2CVDSII","","","img/flower1.png","75","850","2","0","1","1","1,0.333,0.333,0.333,1,0.333,0.333,0.333,1","1,0.333,0.333,0.333,1,0.333,0.333,0.333,1","1",""
"null","","html-keyboard-response","269","683338","0.0-269.0","3J2UYBXQQMY6S23Q04KZYTZ2FZ160F","A2SKY4RRWII0BF","3MVY4USGB69K0BK9K576GJZ2CVDSII","","","<img src=""img/flower1.png"" style=""width:200px;border:14px solid red;"">","null","","","","","","","","",""
"1354","","image-keyboard-response","270","684693","0.0-270.0","3J2UYBXQQMY6S23Q04KZYTZ2FZ160F","A2SKY4RRWII0BF","3MVY4USGB69K0BK9K576GJZ2CVDSII","","","img/flower4.png","74","1355","1","1","3","1","1,0.333,0.333,0.333,1,0.333,0.333,0.333,1","1,0.333,0.333,0.333,1,0.333,0.333,0.333,1","1",""
"null","","html-keyboard-response","271","684995","0.0-271.0","3J2UYBXQQMY6S23Q04KZYTZ2FZ160F","A2SKY4RRWII0BF","3MVY4USGB69K0BK9K576GJZ2CVDSII","","","<img src=""img/flower4.png"" style=""width:200px; border:14px solid green;"">","null","","","","","","","","",""
"986","","image-keyboard-response","272","685981","0.0-272.0","3J2UYBXQQMY6S23Q04KZYTZ2FZ160F","A2SKY4RRWII0BF","3MVY4USGB69K0BK9K576GJZ2CVDSII","","","img/flower4.png","74","986","1","0","3","1","1,0.333,0.333,0.333,1,0.333,0.333,0.333,1","1,0.333,0.333,0.333,1,0.333,0.333,0.333,1","1",""
"null","","html-keyboard-response","273","686283","0.0-273.0","3J2UYBXQQMY6S23Q04KZYTZ2FZ160F","A2SKY4RRWII0BF","3MVY4USGB69K0BK9K576GJZ2CVDSII","","","<img src=""img/flower4.png"" style=""width:200px;border:14px solid red;"">","null","","","","","","","","",""
"1143","","image-keyboard-response","274","687429","0.0-274.0","3J2UYBXQQMY6S23Q04KZYTZ2FZ160F","A2SKY4RRWII0BF","3MVY4USGB69K0BK9K576GJZ2CVDSII","","","img/flower3.png","76","1144","3","0","2","1","1,0.333,0.333,0.333,1,0.333,0.333,0.333,1","1,0.333,0.333,0.333,1,0.333,0.333,0.333,1","1",""
"null","","html-keyboard-response","275","687731","0.0-275.0","3J2UYBXQQMY6S23Q04KZYTZ2FZ160F","A2SKY4RRWII0BF","3MVY4USGB69K0BK9K576GJZ2CVDSII","","","<img src=""img/flower3.png"" style=""width:200px;border:14px solid red;"">","null","","","","","","","","",""
"953","","image-keyboard-response","276","688685","0.0-276.0","3J2UYBXQQMY6S23Q04KZYTZ2FZ160F","A2SKY4RRWII0BF","3MVY4USGB69K0BK9K576GJZ2CVDSII","","","img/flower1.png","75","953","2","0","1","1","1,0.333,0.333,0.333,1,0.333,0.333,0.333,1","1,0.333,0.333,0.333,1,0.333,0.333,0.333,1","1",""
"null","","html-keyboard-response","277","688986","0.0-277.0","3J2UYBXQQMY6S23Q04KZYTZ2FZ160F","A2SKY4RRWII0BF","3MVY4USGB69K0BK9K576GJZ2CVDSII","","","<img src=""img/flower1.png"" style=""width:200px;border:14px solid red;"">","null","","","","","","","","",""
"1137","","image-keyboard-response","278","690125","0.0-278.0","3J2UYBXQQMY6S23Q04KZYTZ2FZ160F","A2SKY4RRWII0BF","3MVY4USGB69K0BK9K576GJZ2CVDSII","","","img/flower4.png","74","1138","1","0","3","1","1,0.333,0.333,0.333,1,0.333,0.333,0.333,1","1,0.333,0.333,0.333,1,0.333,0.333,0.333,1","1",""
"null","","html-keyboard-response","279","690426","0.0-279.0","3J2UYBXQQMY6S23Q04KZYTZ2FZ160F","A2SKY4RRWII0BF","3MVY4USGB69K0BK9K576GJZ2CVDSII","","","<img src=""img/flower4.png"" style=""width:200px;border:14px solid red;"">","null","","","","","","","","",""
"1169","","image-keyboard-response","280","691597","0.0-280.0","3J2UYBXQQMY6S23Q04KZYTZ2FZ160F","A2SKY4RRWII0BF","3MVY4USGB69K0BK9K576GJZ2CVDSII","","","img/flower1.png","75","1171","2","0","1","1","1,0.333,0.333,0.333,1,0.333,0.333,0.333,1","1,0.333,0.333,0.333,1,0.333,0.333,0.333,1","1",""
"null","","html-keyboard-response","281","691899","0.0-281.0","3J2UYBXQQMY6S23Q04KZYTZ2FZ160F","A2SKY4RRWII0BF","3MVY4USGB69K0BK9K576GJZ2CVDSII","","","<img src=""img/flower1.png"" style=""width:200px;border:14px solid red;"">","null","","","","","","","","",""
"1000","","image-keyboard-response","282","692901","0.0-282.0","3J2UYBXQQMY6S23Q04KZYTZ2FZ160F","A2SKY4RRWII0BF","3MVY4USGB69K0BK9K576GJZ2CVDSII","","","img/flower1.png","74","1001","1","1","1","1","1,0.333,0.333,0.333,1,0.333,0.333,0.333,1","1,0.333,0.333,0.333,1,0.333,0.333,0.333,1","1",""
"null","","html-keyboard-response","283","693202","0.0-283.0","3J2UYBXQQMY6S23Q04KZYTZ2FZ160F","A2SKY4RRWII0BF","3MVY4USGB69K0BK9K576GJZ2CVDSII","","","<img src=""img/flower1.png"" style=""width:200px; border:14px solid green;"">","null","","","","","","","","",""
"1665","","image-keyboard-response","284","694869","0.0-284.0","3J2UYBXQQMY6S23Q04KZYTZ2FZ160F","A2SKY4RRWII0BF","3MVY4USGB69K0BK9K576GJZ2CVDSII","","","img/flower1.png","75","1667","2","1","1","1","1,0.333,0.333,0.333,1,0.333,0.333,0.333,1","1,0.333,0.333,0.333,1,0.333,0.333,0.333,1","1",""
"null","","html-keyboard-response","285","695171","0.0-285.0","3J2UYBXQQMY6S23Q04KZYTZ2FZ160F","A2SKY4RRWII0BF","3MVY4USGB69K0BK9K576GJZ2CVDSII","","","<img src=""img/flower1.png"" style=""width:200px; border:14px solid green;"">","null","","","","","","","","",""
"720","","image-keyboard-response","286","695893","0.0-286.0","3J2UYBXQQMY6S23Q04KZYTZ2FZ160F","A2SKY4RRWII0BF","3MVY4USGB69K0BK9K576GJZ2CVDSII","","","img/flower1.png","75","722","2","1","1","1","1,0.333,0.333,0.333,1,0.333,0.333,0.333,1","1,0.333,0.333,0.333,1,0.333,0.333,0.333,1","1",""
"null","","html-keyboard-response","287","696195","0.0-287.0","3J2UYBXQQMY6S23Q04KZYTZ2FZ160F","A2SKY4RRWII0BF","3MVY4USGB69K0BK9K576GJZ2CVDSII","","","<img src=""img/flower1.png"" style=""width:200px; border:14px solid green;"">","null","","","","","","","","",""
"1730","","image-keyboard-response","288","697925","0.0-288.0","3J2UYBXQQMY6S23Q04KZYTZ2FZ160F","A2SKY4RRWII0BF","3MVY4USGB69K0BK9K576GJZ2CVDSII","","","img/flower4.png","74","1730","1","0","3","1","1,0.333,0.333,0.333,1,0.333,0.333,0.333,1","1,0.333,0.333,0.333,1,0.333,0.333,0.333,1","1",""
"null","","html-keyboard-response","289","698227","0.0-289.0","3J2UYBXQQMY6S23Q04KZYTZ2FZ160F","A2SKY4RRWII0BF","3MVY4USGB69K0BK9K576GJZ2CVDSII","","","<img src=""img/flower4.png"" style=""width:200px;border:14px solid red;"">","null","","","","","","","","",""
"738","","image-keyboard-response","290","698965","0.0-290.0","3J2UYBXQQMY6S23Q04KZYTZ2FZ160F","A2SKY4RRWII0BF","3MVY4USGB69K0BK9K576GJZ2CVDSII","","","img/flower4.png","74","738","1","1","3","1","1,0.333,0.333,0.333,1,0.333,0.333,0.333,1","1,0.333,0.333,0.333,1,0.333,0.333,0.333,1","1",""
"null","","html-keyboard-response","291","699267","0.0-291.0","3J2UYBXQQMY6S23Q04KZYTZ2FZ160F","A2SKY4RRWII0BF","3MVY4USGB69K0BK9K576GJZ2CVDSII","","","<img src=""img/flower4.png"" style=""width:200px; border:14px solid green;"">","null","","","","","","","","",""
"761","","image-keyboard-response","292","700029","0.0-292.0","3J2UYBXQQMY6S23Q04KZYTZ2FZ160F","A2SKY4RRWII0BF","3MVY4USGB69K0BK9K576GJZ2CVDSII","","","img/flower4.png","74","761","1","0","3","1","1,0.333,0.333,0.333,1,0.333,0.333,0.333,1","1,0.333,0.333,0.333,1,0.333,0.333,0.333,1","1",""
"null","","html-keyboard-response","293","700331","0.0-293.0","3J2UYBXQQMY6S23Q04KZYTZ2FZ160F","A2SKY4RRWII0BF","3MVY4USGB69K0BK9K576GJZ2CVDSII","","","<img src=""img/flower4.png"" style=""width:200px;border:14px solid red;"">","null","","","","","","","","",""
"1209","","image-keyboard-response","294","701542","0.0-294.0","3J2UYBXQQMY6S23Q04KZYTZ2FZ160F","A2SKY4RRWII0BF","3MVY4USGB69K0BK9K576GJZ2CVDSII","","","img/flower1.png","75","1210","2","0","1","1","1,0.333,0.333,0.333,1,0.333,0.333,0.333,1","1,0.333,0.333,0.333,1,0.333,0.333,0.333,1","1",""
"null","","html-keyboard-response","295","701843","0.0-295.0","3J2UYBXQQMY6S23Q04KZYTZ2FZ160F","A2SKY4RRWII0BF","3MVY4USGB69K0BK9K576GJZ2CVDSII","","","<img src=""img/flower1.png"" style=""width:200px;border:14px solid red;"">","null","","","","","","","","",""
"826","","image-keyboard-response","296","702669","0.0-296.0","3J2UYBXQQMY6S23Q04KZYTZ2FZ160F","A2SKY4RRWII0BF","3MVY4USGB69K0BK9K576GJZ2CVDSII","","","img/flower3.png","76","827","3","1","2","1","1,0.333,0.333,0.333,1,0.333,0.333,0.333,1","1,0.333,0.333,0.333,1,0.333,0.333,0.333,1","1",""
"null","","html-keyboard-response","297","702970","0.0-297.0","3J2UYBXQQMY6S23Q04KZYTZ2FZ160F","A2SKY4RRWII0BF","3MVY4USGB69K0BK9K576GJZ2CVDSII","","","<img src=""img/flower3.png"" style=""width:200px; border:14px solid green;"">","null","","","","","","","","",""
"961","","image-keyboard-response","298","703933","0.0-298.0","3J2UYBXQQMY6S23Q04KZYTZ2FZ160F","A2SKY4RRWII0BF","3MVY4USGB69K0BK9K576GJZ2CVDSII","","","img/flower1.png","75","962","2","1","1","1","1,0.333,0.333,0.333,1,0.333,0.333,0.333,1","1,0.333,0.333,0.333,1,0.333,0.333,0.333,1","1",""
"null","","html-keyboard-response","299","704234","0.0-299.0","3J2UYBXQQMY6S23Q04KZYTZ2FZ160F","A2SKY4RRWII0BF","3MVY4USGB69K0BK9K576GJZ2CVDSII","","","<img src=""img/flower1.png"" style=""width:200px; border:14px solid green;"">","null","","","","","","","","",""
"842","","image-keyboard-response","300","705077","0.0-300.0","3J2UYBXQQMY6S23Q04KZYTZ2FZ160F","A2SKY4RRWII0BF","3MVY4USGB69K0BK9K576GJZ2CVDSII","","","img/flower1.png","75","843","2","0","1","1","1,0.333,0.333,0.333,1,0.333,0.333,0.333,1","1,0.333,0.333,0.333,1,0.333,0.333,0.333,1","1",""
"null","","html-keyboard-response","301","705378","0.0-301.0","3J2UYBXQQMY6S23Q04KZYTZ2FZ160F","A2SKY4RRWII0BF","3MVY4USGB69K0BK9K576GJZ2CVDSII","","","<img src=""img/flower1.png"" style=""width:200px;border:14px solid red;"">","null","","","","","","","","",""
"473","","image-keyboard-response","302","705853","0.0-302.0","3J2UYBXQQMY6S23Q04KZYTZ2FZ160F","A2SKY4RRWII0BF","3MVY4USGB69K0BK9K576GJZ2CVDSII","","","img/flower1.png","75","475","2","1","1","1","1,0.333,0.333,0.333,1,0.333,0.333,0.333,1","1,0.333,0.333,0.333,1,0.333,0.333,0.333,1","1",""
"null","","html-keyboard-response","303","706154","0.0-303.0","3J2UYBXQQMY6S23Q04KZYTZ2FZ160F","A2SKY4RRWII0BF","3MVY4USGB69K0BK9K576GJZ2CVDSII","","","<img src=""img/flower1.png"" style=""width:200px; border:14px solid green;"">","null","","","","","","","","",""
"1066","","image-keyboard-response","304","707222","0.0-304.0","3J2UYBXQQMY6S23Q04KZYTZ2FZ160F","A2SKY4RRWII0BF","3MVY4USGB69K0BK9K576GJZ2CVDSII","","","img/flower4.png","74","1067","1","0","3","1","1,0.333,0.333,0.333,1,0.333,0.333,0.333,1","1,0.333,0.333,0.333,1,0.333,0.333,0.333,1","1",""
"null","","html-keyboard-response","305","707523","0.0-305.0","3J2UYBXQQMY6S23Q04KZYTZ2FZ160F","A2SKY4RRWII0BF","3MVY4USGB69K0BK9K576GJZ2CVDSII","","","<img src=""img/flower4.png"" style=""width:200px;border:14px solid red;"">","null","","","","","","","","",""
"","","html-keyboard-response","306","711693","0.0-306.0","3J2UYBXQQMY6S23Q04KZYTZ2FZ160F","A2SKY4RRWII0BF","3MVY4USGB69K0BK9K576GJZ2CVDSII","","","","","","","","","","","","",""
"3663","","image-keyboard-response","307","715357","0.0-307.0","3J2UYBXQQMY6S23Q04KZYTZ2FZ160F","A2SKY4RRWII0BF","3MVY4USGB69K0BK9K576GJZ2CVDSII","","","img/flower2.png","75","3663","2","1","1","2","1,0,0,1,1,0,1,0,1","0,1,0,0,1,1,1,1,0","3",""
"null","","html-keyboard-response","308","715659","0.0-308.0","3J2UYBXQQMY6S23Q04KZYTZ2FZ160F","A2SKY4RRWII0BF","3MVY4USGB69K0BK9K576GJZ2CVDSII","","","<img src=""img/flower2.png"" style=""width:200px; border:14px solid green;"">","null","","","","","","","","",""
"1513","","image-keyboard-response","309","717174","0.0-309.0","3J2UYBXQQMY6S23Q04KZYTZ2FZ160F","A2SKY4RRWII0BF","3MVY4USGB69K0BK9K576GJZ2CVDSII","","","img/flower6.png","76","1514","3","0","3","2","1,0,0,1,1,0,1,0,1","0,1,0,0,1,1,1,1,0","3",""
"null","","html-keyboard-response","310","717475","0.0-310.0","3J2UYBXQQMY6S23Q04KZYTZ2FZ160F","A2SKY4RRWII0BF","3MVY4USGB69K0BK9K576GJZ2CVDSII","","","<img src=""img/flower6.png"" style=""width:200px;border:14px solid red;"">","null","","","","","","","","",""
"1433","","image-keyboard-response","311","718909","0.0-311.0","3J2UYBXQQMY6S23Q04KZYTZ2FZ160F","A2SKY4RRWII0BF","3MVY4USGB69K0BK9K576GJZ2CVDSII","","","img/flower5.png","74","1434","1","0","2","2","1,0,0,1,1,0,1,0,1","0,1,0,0,1,1,1,1,0","3",""
"null","","html-keyboard-response","312","719211","0.0-312.0","3J2UYBXQQMY6S23Q04KZYTZ2FZ160F","A2SKY4RRWII0BF","3MVY4USGB69K0BK9K576GJZ2CVDSII","","","<img src=""img/flower5.png"" style=""width:200px;border:14px solid red;"">","null","","","","","","","","",""
"1584","","image-keyboard-response","313","720797","0.0-313.0","3J2UYBXQQMY6S23Q04KZYTZ2FZ160F","A2SKY4RRWII0BF","3MVY4USGB69K0BK9K576GJZ2CVDSII","","","img/flower6.png","75","1585","2","1","3","2","1,0,0,1,1,0,1,0,1","0,1,0,0,1,1,1,1,0","3",""
"null","","html-keyboard-response","314","721099","0.0-314.0","3J2UYBXQQMY6S23Q04KZYTZ2FZ160F","A2SKY4RRWII0BF","3MVY4USGB69K0BK9K576GJZ2CVDSII","","","<img src=""img/flower6.png"" style=""width:200px; border:14px solid green;"">","null","","","","","","","","",""
"1416","","image-keyboard-response","315","722517","0.0-315.0","3J2UYBXQQMY6S23Q04KZYTZ2FZ160F","A2SKY4RRWII0BF","3MVY4USGB69K0BK9K576GJZ2CVDSII","","","img/flower6.png","75","1418","2","1","3","2","1,0,0,1,1,0,1,0,1","0,1,0,0,1,1,1,1,0","3",""
"null","","html-keyboard-response","316","722819","0.0-316.0","3J2UYBXQQMY6S23Q04KZYTZ2FZ160F","A2SKY4RRWII0BF","3MVY4USGB69K0BK9K576GJZ2CVDSII","","","<img src=""img/flower6.png"" style=""width:200px; border:14px solid green;"">","null","","","","","","","","",""
"3170","","image-keyboard-response","317","725989","0.0-317.0","3J2UYBXQQMY6S23Q04KZYTZ2FZ160F","A2SKY4RRWII0BF","3MVY4USGB69K0BK9K576GJZ2CVDSII","","","img/flower5.png","74","3171","1","0","2","2","1,0,0,1,1,0,1,0,1","0,1,0,0,1,1,1,1,0","3",""
"null","","html-keyboard-response","318","726291","0.0-318.0","3J2UYBXQQMY6S23Q04KZYTZ2FZ160F","A2SKY4RRWII0BF","3MVY4USGB69K0BK9K576GJZ2CVDSII","","","<img src=""img/flower5.png"" style=""width:200px;border:14px solid red;"">","null","","","","","","","","",""
"1314","","image-keyboard-response","319","727606","0.0-319.0","3J2UYBXQQMY6S23Q04KZYTZ2FZ160F","A2SKY4RRWII0BF","3MVY4USGB69K0BK9K576GJZ2CVDSII","","","img/flower2.png","76","1315","3","0","1","2","1,0,0,1,1,0,1,0,1","0,1,0,0,1,1,1,1,0","3",""
"null","","html-keyboard-response","320","727907","0.0-320.0","3J2UYBXQQMY6S23Q04KZYTZ2FZ160F","A2SKY4RRWII0BF","3MVY4USGB69K0BK9K576GJZ2CVDSII","","","<img src=""img/flower2.png"" style=""width:200px;border:14px solid red;"">","null","","","","","","","","",""
"930","","image-keyboard-response","321","728838","0.0-321.0","3J2UYBXQQMY6S23Q04KZYTZ2FZ160F","A2SKY4RRWII0BF","3MVY4USGB69K0BK9K576GJZ2CVDSII","","","img/flower6.png","75","931","2","1","3","2","1,0,0,1,1,0,1,0,1","0,1,0,0,1,1,1,1,0","3",""
"null","","html-keyboard-response","322","729139","0.0-322.0","3J2UYBXQQMY6S23Q04KZYTZ2FZ160F","A2SKY4RRWII0BF","3MVY4USGB69K0BK9K576GJZ2CVDSII","","","<img src=""img/flower6.png"" style=""width:200px; border:14px solid green;"">","null","","","","","","","","",""
"2457","","image-keyboard-response","323","731598","0.0-323.0","3J2UYBXQQMY6S23Q04KZYTZ2FZ160F","A2SKY4RRWII0BF","3MVY4USGB69K0BK9K576GJZ2CVDSII","","","img/flower5.png","74","2458","1","0","2","2","1,0,0,1,1,0,1,0,1","0,1,0,0,1,1,1,1,0","3",""
"null","","html-keyboard-response","324","731900","0.0-324.0","3J2UYBXQQMY6S23Q04KZYTZ2FZ160F","A2SKY4RRWII0BF","3MVY4USGB69K0BK9K576GJZ2CVDSII","","","<img src=""img/flower5.png"" style=""width:200px;border:14px solid red;"">","null","","","","","","","","",""
"2313","","image-keyboard-response","325","734214","0.0-325.0","3J2UYBXQQMY6S23Q04KZYTZ2FZ160F","A2SKY4RRWII0BF","3MVY4USGB69K0BK9K576GJZ2CVDSII","","","img/flower2.png","74","2313","1","0","1","2","1,0,0,1,1,0,1,0,1","0,1,0,0,1,1,1,1,0","3",""
"null","","html-keyboard-response","326","734515","0.0-326.0","3J2UYBXQQMY6S23Q04KZYTZ2FZ160F","A2SKY4RRWII0BF","3MVY4USGB69K0BK9K576GJZ2CVDSII","","","<img src=""img/flower2.png"" style=""width:200px;border:14px solid red;"">","null","","","","","","","","",""
"3440","","image-keyboard-response","327","737957","0.0-327.0","3J2UYBXQQMY6S23Q04KZYTZ2FZ160F","A2SKY4RRWII0BF","3MVY4USGB69K0BK9K576GJZ2CVDSII","","","img/flower5.png","76","3441","3","1","2","2","1,0,0,1,1,0,1,0,1","0,1,0,0,1,1,1,1,0","3",""
"null","","html-keyboard-response","328","738259","0.0-328.0","3J2UYBXQQMY6S23Q04KZYTZ2FZ160F","A2SKY4RRWII0BF","3MVY4USGB69K0BK9K576GJZ2CVDSII","","","<img src=""img/flower5.png"" style=""width:200px; border:14px solid green;"">","null","","","","","","","","",""
"1202","","image-keyboard-response","329","739462","0.0-329.0","3J2UYBXQQMY6S23Q04KZYTZ2FZ160F","A2SKY4RRWII0BF","3MVY4USGB69K0BK9K576GJZ2CVDSII","","","img/flower5.png","76","1202","3","1","2","2","1,0,0,1,1,0,1,0,1","0,1,0,0,1,1,1,1,0","3",""
"null","","html-keyboard-response","330","739763","0.0-330.0","3J2UYBXQQMY6S23Q04KZYTZ2FZ160F","A2SKY4RRWII0BF","3MVY4USGB69K0BK9K576GJZ2CVDSII","","","<img src=""img/flower5.png"" style=""width:200px; border:14px solid green;"">","null","","","","","","","","",""
"874","","image-keyboard-response","331","740637","0.0-331.0","3J2UYBXQQMY6S23Q04KZYTZ2FZ160F","A2SKY4RRWII0BF","3MVY4USGB69K0BK9K576GJZ2CVDSII","","","img/flower5.png","76","874","3","1","2","2","1,0,0,1,1,0,1,0,1","0,1,0,0,1,1,1,1,0","3",""
"null","","html-keyboard-response","332","740939","0.0-332.0","3J2UYBXQQMY6S23Q04KZYTZ2FZ160F","A2SKY4RRWII0BF","3MVY4USGB69K0BK9K576GJZ2CVDSII","","","<img src=""img/flower5.png"" style=""width:200px; border:14px solid green;"">","null","","","","","","","","",""
"1296","","image-keyboard-response","333","742237","0.0-333.0","3J2UYBXQQMY6S23Q04KZYTZ2FZ160F","A2SKY4RRWII0BF","3MVY4USGB69K0BK9K576GJZ2CVDSII","","","img/flower2.png","74","1297","1","0","1","2","1,0,0,1,1,0,1,0,1","0,1,0,0,1,1,1,1,0","3",""
"null","","html-keyboard-response","334","742538","0.0-334.0","3J2UYBXQQMY6S23Q04KZYTZ2FZ160F","A2SKY4RRWII0BF","3MVY4USGB69K0BK9K576GJZ2CVDSII","","","<img src=""img/flower2.png"" style=""width:200px;border:14px solid red;"">","null","","","","","","","","",""
"1042","","image-keyboard-response","335","743582","0.0-335.0","3J2UYBXQQMY6S23Q04KZYTZ2FZ160F","A2SKY4RRWII0BF","3MVY4USGB69K0BK9K576GJZ2CVDSII","","","img/flower5.png","76","1042","3","1","2","2","1,0,0,1,1,0,1,0,1","0,1,0,0,1,1,1,1,0","3",""
"null","","html-keyboard-response","336","743884","0.0-336.0","3J2UYBXQQMY6S23Q04KZYTZ2FZ160F","A2SKY4RRWII0BF","3MVY4USGB69K0BK9K576GJZ2CVDSII","","","<img src=""img/flower5.png"" style=""width:200px; border:14px solid green;"">","null","","","","","","","","",""
"1001","","image-keyboard-response","337","744886","0.0-337.0","3J2UYBXQQMY6S23Q04KZYTZ2FZ160F","A2SKY4RRWII0BF","3MVY4USGB69K0BK9K576GJZ2CVDSII","","","img/flower6.png","75","1001","2","1","3","2","1,0,0,1,1,0,1,0,1","0,1,0,0,1,1,1,1,0","3",""
"null","","html-keyboard-response","338","745187","0.0-338.0","3J2UYBXQQMY6S23Q04KZYTZ2FZ160F","A2SKY4RRWII0BF","3MVY4USGB69K0BK9K576GJZ2CVDSII","","","<img src=""img/flower6.png"" style=""width:200px; border:14px solid green;"">","null","","","","","","","","",""
"609","","image-keyboard-response","339","745798","0.0-339.0","3J2UYBXQQMY6S23Q04KZYTZ2FZ160F","A2SKY4RRWII0BF","3MVY4USGB69K0BK9K576GJZ2CVDSII","","","img/flower6.png","75","610","2","1","3","2","1,0,0,1,1,0,1,0,1","0,1,0,0,1,1,1,1,0","3",""
"null","","html-keyboard-response","340","746100","0.0-340.0","3J2UYBXQQMY6S23Q04KZYTZ2FZ160F","A2SKY4RRWII0BF","3MVY4USGB69K0BK9K576GJZ2CVDSII","","","<img src=""img/flower6.png"" style=""width:200px; border:14px solid green;"">","null","","","","","","","","",""
"2768","","image-keyboard-response","341","748869","0.0-341.0","3J2UYBXQQMY6S23Q04KZYTZ2FZ160F","A2SKY4RRWII0BF","3MVY4USGB69K0BK9K576GJZ2CVDSII","","","img/flower2.png","74","2769","1","0","1","2","1,0,0,1,1,0,1,0,1","0,1,0,0,1,1,1,1,0","3",""
"null","","html-keyboard-response","342","749170","0.0-342.0","3J2UYBXQQMY6S23Q04KZYTZ2FZ160F","A2SKY4RRWII0BF","3MVY4USGB69K0BK9K576GJZ2CVDSII","","","<img src=""img/flower2.png"" style=""width:200px;border:14px solid red;"">","null","","","","","","","","",""
"474","","image-keyboard-response","343","749646","0.0-343.0","3J2UYBXQQMY6S23Q04KZYTZ2FZ160F","A2SKY4RRWII0BF","3MVY4USGB69K0BK9K576GJZ2CVDSII","","","img/flower2.png","74","475","1","0","1","2","1,0,0,1,1,0,1,0,1","0,1,0,0,1,1,1,1,0","3",""
"null","","html-keyboard-response","344","749947","0.0-344.0","3J2UYBXQQMY6S23Q04KZYTZ2FZ160F","A2SKY4RRWII0BF","3MVY4USGB69K0BK9K576GJZ2CVDSII","","","<img src=""img/flower2.png"" style=""width:200px;border:14px solid red;"">","null","","","","","","","","",""
"1040","","image-keyboard-response","345","750989","0.0-345.0","3J2UYBXQQMY6S23Q04KZYTZ2FZ160F","A2SKY4RRWII0BF","3MVY4USGB69K0BK9K576GJZ2CVDSII","","","img/flower6.png","75","1042","2","1","3","2","1,0,0,1,1,0,1,0,1","0,1,0,0,1,1,1,1,0","3",""
"null","","html-keyboard-response","346","751291","0.0-346.0","3J2UYBXQQMY6S23Q04KZYTZ2FZ160F","A2SKY4RRWII0BF","3MVY4USGB69K0BK9K576GJZ2CVDSII","","","<img src=""img/flower6.png"" style=""width:200px; border:14px solid green;"">","null","","","","","","","","",""
"905","","image-keyboard-response","347","752197","0.0-347.0","3J2UYBXQQMY6S23Q04KZYTZ2FZ160F","A2SKY4RRWII0BF","3MVY4USGB69K0BK9K576GJZ2CVDSII","","","img/flower2.png","74","906","1","0","1","2","1,0,0,1,1,0,1,0,1","0,1,0,0,1,1,1,1,0","3",""
"null","","html-keyboard-response","348","752499","0.0-348.0","3J2UYBXQQMY6S23Q04KZYTZ2FZ160F","A2SKY4RRWII0BF","3MVY4USGB69K0BK9K576GJZ2CVDSII","","","<img src=""img/flower2.png"" style=""width:200px;border:14px solid red;"">","null","","","","","","","","",""
"440","","image-keyboard-response","349","752941","0.0-349.0","3J2UYBXQQMY6S23Q04KZYTZ2FZ160F","A2SKY4RRWII0BF","3MVY4USGB69K0BK9K576GJZ2CVDSII","","","img/flower2.png","74","442","1","0","1","2","1,0,0,1,1,0,1,0,1","0,1,0,0,1,1,1,1,0","3",""
"null","","html-keyboard-response","350","753243","0.0-350.0","3J2UYBXQQMY6S23Q04KZYTZ2FZ160F","A2SKY4RRWII0BF","3MVY4USGB69K0BK9K576GJZ2CVDSII","","","<img src=""img/flower2.png"" style=""width:200px;border:14px solid red;"">","null","","","","","","","","",""
"1505","","image-keyboard-response","351","754750","0.0-351.0","3J2UYBXQQMY6S23Q04KZYTZ2FZ160F","A2SKY4RRWII0BF","3MVY4USGB69K0BK9K576GJZ2CVDSII","","","img/flower5.png","76","1507","3","1","2","2","1,0,0,1,1,0,1,0,1","0,1,0,0,1,1,1,1,0","3",""
"null","","html-keyboard-response","352","755051","0.0-352.0","3J2UYBXQQMY6S23Q04KZYTZ2FZ160F","A2SKY4RRWII0BF","3MVY4USGB69K0BK9K576GJZ2CVDSII","","","<img src=""img/flower5.png"" style=""width:200px; border:14px solid green;"">","null","","","","","","","","",""
"784","","image-keyboard-response","353","755837","0.0-353.0","3J2UYBXQQMY6S23Q04KZYTZ2FZ160F","A2SKY4RRWII0BF","3MVY4USGB69K0BK9K576GJZ2CVDSII","","","img/flower5.png","76","786","3","1","2","2","1,0,0,1,1,0,1,0,1","0,1,0,0,1,1,1,1,0","3",""
"null","","html-keyboard-response","354","756138","0.0-354.0","3J2UYBXQQMY6S23Q04KZYTZ2FZ160F","A2SKY4RRWII0BF","3MVY4USGB69K0BK9K576GJZ2CVDSII","","","<img src=""img/flower5.png"" style=""width:200px; border:14px solid green;"">","null","","","","","","","","",""
"1376","","image-keyboard-response","355","757517","0.0-355.0","3J2UYBXQQMY6S23Q04KZYTZ2FZ160F","A2SKY4RRWII0BF","3MVY4USGB69K0BK9K576GJZ2CVDSII","","","img/flower2.png","74","1377","1","0","1","2","1,0,0,1,1,0,1,0,1","0,1,0,0,1,1,1,1,0","3",""
"null","","html-keyboard-response","356","757818","0.0-356.0","3J2UYBXQQMY6S23Q04KZYTZ2FZ160F","A2SKY4RRWII0BF","3MVY4USGB69K0BK9K576GJZ2CVDSII","","","<img src=""img/flower2.png"" style=""width:200px;border:14px solid red;"">","null","","","","","","","","",""
"3443","","image-keyboard-response","357","761261","0.0-357.0","3J2UYBXQQMY6S23Q04KZYTZ2FZ160F","A2SKY4RRWII0BF","3MVY4USGB69K0BK9K576GJZ2CVDSII","","","img/flower5.png","76","3443","3","1","2","2","1,0,0,1,1,0,1,0,1","0,1,0,0,1,1,1,1,0","3",""
"null","","html-keyboard-response","358","761562","0.0-358.0","3J2UYBXQQMY6S23Q04KZYTZ2FZ160F","A2SKY4RRWII0BF","3MVY4USGB69K0BK9K576GJZ2CVDSII","","","<img src=""img/flower5.png"" style=""width:200px; border:14px solid green;"">","null","","","","","","","","",""
"1297","","image-keyboard-response","359","762861","0.0-359.0","3J2UYBXQQMY6S23Q04KZYTZ2FZ160F","A2SKY4RRWII0BF","3MVY4USGB69K0BK9K576GJZ2CVDSII","","","img/flower2.png","74","1299","1","0","1","2","1,0,0,1,1,0,1,0,1","0,1,0,0,1,1,1,1,0","3",""
"null","","html-keyboard-response","360","763163","0.0-360.0","3J2UYBXQQMY6S23Q04KZYTZ2FZ160F","A2SKY4RRWII0BF","3MVY4USGB69K0BK9K576GJZ2CVDSII","","","<img src=""img/flower2.png"" style=""width:200px;border:14px solid red;"">","null","","","","","","","","",""
"2594","","image-keyboard-response","361","765757","0.0-361.0","3J2UYBXQQMY6S23Q04KZYTZ2FZ160F","A2SKY4RRWII0BF","3MVY4USGB69K0BK9K576GJZ2CVDSII","","","img/flower5.png","76","2595","3","1","2","2","1,0,0,1,1,0,1,0,1","0,1,0,0,1,1,1,1,0","3",""
"null","","html-keyboard-response","362","766058","0.0-362.0","3J2UYBXQQMY6S23Q04KZYTZ2FZ160F","A2SKY4RRWII0BF","3MVY4USGB69K0BK9K576GJZ2CVDSII","","","<img src=""img/flower5.png"" style=""width:200px; border:14px solid green;"">","null","","","","","","","","",""
"642","","image-keyboard-response","363","766702","0.0-363.0","3J2UYBXQQMY6S23Q04KZYTZ2FZ160F","A2SKY4RRWII0BF","3MVY4USGB69K0BK9K576GJZ2CVDSII","","","img/flower5.png","76","642","3","1","2","2","1,0,0,1,1,0,1,0,1","0,1,0,0,1,1,1,1,0","3",""
"null","","html-keyboard-response","364","767003","0.0-364.0","3J2UYBXQQMY6S23Q04KZYTZ2FZ160F","A2SKY4RRWII0BF","3MVY4USGB69K0BK9K576GJZ2CVDSII","","","<img src=""img/flower5.png"" style=""width:200px; border:14px solid green;"">","null","","","","","","","","",""
"1201","","image-keyboard-response","365","768205","0.0-365.0","3J2UYBXQQMY6S23Q04KZYTZ2FZ160F","A2SKY4RRWII0BF","3MVY4USGB69K0BK9K576GJZ2CVDSII","","","img/flower2.png","74","1201","1","0","1","2","1,0,0,1,1,0,1,0,1","0,1,0,0,1,1,1,1,0","3",""
"null","","html-keyboard-response","366","768506","0.0-366.0","3J2UYBXQQMY6S23Q04KZYTZ2FZ160F","A2SKY4RRWII0BF","3MVY4USGB69K0BK9K576GJZ2CVDSII","","","<img src=""img/flower2.png"" style=""width:200px;border:14px solid red;"">","null","","","","","","","","",""
"2625","","image-keyboard-response","367","771133","0.0-367.0","3J2UYBXQQMY6S23Q04KZYTZ2FZ160F","A2SKY4RRWII0BF","3MVY4USGB69K0BK9K576GJZ2CVDSII","","","img/flower2.png","75","2626","2","1","1","2","1,0,0,1,1,0,1,0,1","0,1,0,0,1,1,1,1,0","3",""
"null","","html-keyboard-response","368","771435","0.0-368.0","3J2UYBXQQMY6S23Q04KZYTZ2FZ160F","A2SKY4RRWII0BF","3MVY4USGB69K0BK9K576GJZ2CVDSII","","","<img src=""img/flower2.png"" style=""width:200px; border:14px solid green;"">","null","","","","","","","","",""
"1552","","image-keyboard-response","369","772989","0.0-369.0","3J2UYBXQQMY6S23Q04KZYTZ2FZ160F","A2SKY4RRWII0BF","3MVY4USGB69K0BK9K576GJZ2CVDSII","","","img/flower2.png","75","1554","2","1","1","2","1,0,0,1,1,0,1,0,1","0,1,0,0,1,1,1,1,0","3",""
"null","","html-keyboard-response","370","773290","0.0-370.0","3J2UYBXQQMY6S23Q04KZYTZ2FZ160F","A2SKY4RRWII0BF","3MVY4USGB69K0BK9K576GJZ2CVDSII","","","<img src=""img/flower2.png"" style=""width:200px; border:14px solid green;"">","null","","","","","","","","",""
"4249","","image-keyboard-response","371","777542","0.0-371.0","3J2UYBXQQMY6S23Q04KZYTZ2FZ160F","A2SKY4RRWII0BF","3MVY4USGB69K0BK9K576GJZ2CVDSII","","","img/flower5.png","76","4250","3","1","2","2","1,0,0,1,1,0,1,0,1","0,1,0,0,1,1,1,1,0","3",""
"null","","html-keyboard-response","372","777843","0.0-372.0","3J2UYBXQQMY6S23Q04KZYTZ2FZ160F","A2SKY4RRWII0BF","3MVY4USGB69K0BK9K576GJZ2CVDSII","","","<img src=""img/flower5.png"" style=""width:200px; border:14px solid green;"">","null","","","","","","","","",""
"921","","image-keyboard-response","373","778766","0.0-373.0","3J2UYBXQQMY6S23Q04KZYTZ2FZ160F","A2SKY4RRWII0BF","3MVY4USGB69K0BK9K576GJZ2CVDSII","","","img/flower6.png","75","923","2","1","3","2","1,0,0,1,1,0,1,0,1","0,1,0,0,1,1,1,1,0","3",""
"null","","html-keyboard-response","374","779067","0.0-374.0","3J2UYBXQQMY6S23Q04KZYTZ2FZ160F","A2SKY4RRWII0BF","3MVY4USGB69K0BK9K576GJZ2CVDSII","","","<img src=""img/flower6.png"" style=""width:200px; border:14px solid green;"">","null","","","","","","","","",""
"3361","","image-keyboard-response","375","782429","0.0-375.0","3J2UYBXQQMY6S23Q04KZYTZ2FZ160F","A2SKY4RRWII0BF","3MVY4USGB69K0BK9K576GJZ2CVDSII","","","img/flower5.png","76","3362","3","1","2","2","1,0,0,1,1,0,1,0,1","0,1,0,0,1,1,1,1,0","3",""
"null","","html-keyboard-response","376","782731","0.0-376.0","3J2UYBXQQMY6S23Q04KZYTZ2FZ160F","A2SKY4RRWII0BF","3MVY4USGB69K0BK9K576GJZ2CVDSII","","","<img src=""img/flower5.png"" style=""width:200px; border:14px solid green;"">","null","","","","","","","","",""
"1337","","image-keyboard-response","377","784070","0.0-377.0","3J2UYBXQQMY6S23Q04KZYTZ2FZ160F","A2SKY4RRWII0BF","3MVY4USGB69K0BK9K576GJZ2CVDSII","","","img/flower2.png","75","1338","2","1","1","2","1,0,0,1,1,0,1,0,1","0,1,0,0,1,1,1,1,0","3",""
"null","","html-keyboard-response","378","784371","0.0-378.0","3J2UYBXQQMY6S23Q04KZYTZ2FZ160F","A2SKY4RRWII0BF","3MVY4USGB69K0BK9K576GJZ2CVDSII","","","<img src=""img/flower2.png"" style=""width:200px; border:14px solid green;"">","null","","","","","","","","",""
"1777","","image-keyboard-response","379","786150","0.0-379.0","3J2UYBXQQMY6S23Q04KZYTZ2FZ160F","A2SKY4RRWII0BF","3MVY4USGB69K0BK9K576GJZ2CVDSII","","","img/flower6.png","75","1778","2","1","3","2","1,0,0,1,1,0,1,0,1","0,1,0,0,1,1,1,1,0","3",""
"null","","html-keyboard-response","380","786451","0.0-380.0","3J2UYBXQQMY6S23Q04KZYTZ2FZ160F","A2SKY4RRWII0BF","3MVY4USGB69K0BK9K576GJZ2CVDSII","","","<img src=""img/flower6.png"" style=""width:200px; border:14px solid green;"">","null","","","","","","","","",""
"882","","image-keyboard-response","381","787334","0.0-381.0","3J2UYBXQQMY6S23Q04KZYTZ2FZ160F","A2SKY4RRWII0BF","3MVY4USGB69K0BK9K576GJZ2CVDSII","","","img/flower5.png","76","882","3","1","2","2","1,0,0,1,1,0,1,0,1","0,1,0,0,1,1,1,1,0","3",""
"null","","html-keyboard-response","382","787635","0.0-382.0","3J2UYBXQQMY6S23Q04KZYTZ2FZ160F","A2SKY4RRWII0BF","3MVY4USGB69K0BK9K576GJZ2CVDSII","","","<img src=""img/flower5.png"" style=""width:200px; border:14px solid green;"">","null","","","","","","","","",""
"841","","image-keyboard-response","383","788478","0.0-383.0","3J2UYBXQQMY6S23Q04KZYTZ2FZ160F","A2SKY4RRWII0BF","3MVY4USGB69K0BK9K576GJZ2CVDSII","","","img/flower2.png","75","842","2","1","1","2","1,0,0,1,1,0,1,0,1","0,1,0,0,1,1,1,1,0","3",""
"null","","html-keyboard-response","384","788779","0.0-384.0","3J2UYBXQQMY6S23Q04KZYTZ2FZ160F","A2SKY4RRWII0BF","3MVY4USGB69K0BK9K576GJZ2CVDSII","","","<img src=""img/flower2.png"" style=""width:200px; border:14px solid green;"">","null","","","","","","","","",""
