"success","trial_type","trial_index","time_elapsed","internal_node_id","assignmentID","mturkID","hitID","view_history","rt","stimulus","key_press","reactionTime","a","r","s","cond","reward_cond","reward_cond_actual","reward_matrix_idx","responses"
"true","fullscreen","0","8750","0.0-0.0","3W8CV64QJ3L4LLBKWJUWOVPLSEO9H3","A2T8U68Y44GPVD","3P7RGTLO6EZ76AO3386R8ZK9IWWKAW","","","","","","","","","","","","",""
"","instructions","1","25486","0.0-1.0","3W8CV64QJ3L4LLBKWJUWOVPLSEO9H3","A2T8U68Y44GPVD","3P7RGTLO6EZ76AO3386R8ZK9IWWKAW","[{""page_index"":0,""viewing_time"":1702},{""page_index"":1,""viewing_time"":1440},{""page_index"":2,""viewing_time"":4751},{""page_index"":3,""viewing_time"":928},{""page_index"":4,""viewing_time"":2743},{""page_index"":5,""viewing_time"":2412},{""page_index"":6,""viewing_time"":1554},{""page_index"":7,""viewing_time"":1202}]","16733","","","","","","","","","","",""
"","image-keyboard-response","2","26488","0.0-2.0","3W8CV64QJ3L4LLBKWJUWOVPLSEO9H3","A2T8U68Y44GPVD","3P7RGTLO6EZ76AO3386R8ZK9IWWKAW","","999","img/flower3.png","74","1001","1","0","2","1","1,0.333,0.333,0.333,1,0.333,0.333,0.333,1","1,0.333,0.333,0.333,1,0.333,0.333,0.333,1","1",""
"","html-keyboard-response","3","26789","0.0-3.0","3W8CV64QJ3L4LLBKWJUWOVPLSEO9H3","A2T8U68Y44GPVD","3P7RGTLO6EZ76AO3386R8ZK9IWWKAW","","null","<img src=""img/flower3.png"" style=""width:200px;border:14px solid red;"">","null","","","","","","","","",""
"","image-keyboard-response","4","26903","0.0-4.0","3W8CV64QJ3L4LLBKWJUWOVPLSEO9H3","A2T8U68Y44GPVD","3P7RGTLO6EZ76AO3386R8ZK9IWWKAW","","113","img/flower4.png","75","114","2","1","3","1","1,0.333,0.333,0.333,1,0.333,0.333,0.333,1","1,0.333,0.333,0.333,1,0.333,0.333,0.333,1","1",""
"","html-keyboard-response","5","27204","0.0-5.0","3W8CV64QJ3L4LLBKWJUWOVPLSEO9H3","A2T8U68Y44GPVD","3P7RGTLO6EZ76AO3386R8ZK9IWWKAW","","null","<img src=""img/flower4.png"" style=""width:200px; border:14px solid green;"">","null","","","","","","","","",""
"","image-keyboard-response","6","27271","0.0-6.0","3W8CV64QJ3L4LLBKWJUWOVPLSEO9H3","A2T8U68Y44GPVD","3P7RGTLO6EZ76AO3386R8ZK9IWWKAW","","66","img/flower3.png","74","67","1","0","2","1","1,0.333,0.333,0.333,1,0.333,0.333,0.333,1","1,0.333,0.333,0.333,1,0.333,0.333,0.333,1","1",""
"","html-keyboard-response","7","27572","0.0-7.0","3W8CV64QJ3L4LLBKWJUWOVPLSEO9H3","A2T8U68Y44GPVD","3P7RGTLO6EZ76AO3386R8ZK9IWWKAW","","null","<img src=""img/flower3.png"" style=""width:200px;border:14px solid red;"">","null","","","","","","","","",""
"","image-keyboard-response","8","27838","0.0-8.0","3W8CV64QJ3L4LLBKWJUWOVPLSEO9H3","A2T8U68Y44GPVD","3P7RGTLO6EZ76AO3386R8ZK9IWWKAW","","266","img/flower5.png","75","266","2","0","1","1","1,0.333,0.333,0.333,1,0.333,0.333,0.333,1","1,0.333,0.333,0.333,1,0.333,0.333,0.333,1","1",""
"","html-keyboard-response","9","28142","0.0-9.0","3W8CV64QJ3L4LLBKWJUWOVPLSEO9H3","A2T8U68Y44GPVD","3P7RGTLO6EZ76AO3386R8ZK9IWWKAW","","null","<img src=""img/flower5.png"" style=""width:200px;border:14px solid red;"">","null","","","","","","","","",""
"","image-keyboard-response","10","28191","0.0-10.0","3W8CV64QJ3L4LLBKWJUWOVPLSEO9H3","A2T8U68Y44GPVD","3P7RGTLO6EZ76AO3386R8ZK9IWWKAW","","48","img/flower4.png","75","48","2","0","3","1","1,0.333,0.333,0.333,1,0.333,0.333,0.333,1","1,0.333,0.333,0.333,1,0.333,0.333,0.333,1","1",""
"","html-keyboard-response","11","28492","0.0-11.0","3W8CV64QJ3L4LLBKWJUWOVPLSEO9H3","A2T8U68Y44GPVD","3P7RGTLO6EZ76AO3386R8ZK9IWWKAW","","null","<img src=""img/flower4.png"" style=""width:200px;border:14px solid red;"">","null","","","","","","","","",""
"","image-keyboard-response","12","28735","0.0-12.0","3W8CV64QJ3L4LLBKWJUWOVPLSEO9H3","A2T8U68Y44GPVD","3P7RGTLO6EZ76AO3386R8ZK9IWWKAW","","242","img/flower3.png","74","243","1","0","2","1","1,0.333,0.333,0.333,1,0.333,0.333,0.333,1","1,0.333,0.333,0.333,1,0.333,0.333,0.333,1","1",""
"","html-keyboard-response","13","29036","0.0-13.0","3W8CV64QJ3L4LLBKWJUWOVPLSEO9H3","A2T8U68Y44GPVD","3P7RGTLO6EZ76AO3386R8ZK9IWWKAW","","null","<img src=""img/flower3.png"" style=""width:200px;border:14px solid red;"">","null","","","","","","","","",""
"","image-keyboard-response","14","29103","0.0-14.0","3W8CV64QJ3L4LLBKWJUWOVPLSEO9H3","A2T8U68Y44GPVD","3P7RGTLO6EZ76AO3386R8ZK9IWWKAW","","66","img/flower3.png","74","66","1","1","2","1","1,0.333,0.333,0.333,1,0.333,0.333,0.333,1","1,0.333,0.333,0.333,1,0.333,0.333,0.333,1","1",""
"","html-keyboard-response","15","29404","0.0-15.0","3W8CV64QJ3L4LLBKWJUWOVPLSEO9H3","A2T8U68Y44GPVD","3P7RGTLO6EZ76AO3386R8ZK9IWWKAW","","null","<img src=""img/flower3.png"" style=""width:200px; border:14px solid green;"">","null","","","","","","","","",""
"","image-keyboard-response","16","29448","0.0-16.0","3W8CV64QJ3L4LLBKWJUWOVPLSEO9H3","A2T8U68Y44GPVD","3P7RGTLO6EZ76AO3386R8ZK9IWWKAW","","44","img/flower5.png","76","44","3","0","1","1","1,0.333,0.333,0.333,1,0.333,0.333,0.333,1","1,0.333,0.333,0.333,1,0.333,0.333,0.333,1","1",""
"","html-keyboard-response","17","29749","0.0-17.0","3W8CV64QJ3L4LLBKWJUWOVPLSEO9H3","A2T8U68Y44GPVD","3P7RGTLO6EZ76AO3386R8ZK9IWWKAW","","null","<img src=""img/flower5.png"" style=""width:200px;border:14px solid red;"">","null","","","","","","","","",""
"","image-keyboard-response","18","30071","0.0-18.0","3W8CV64QJ3L4LLBKWJUWOVPLSEO9H3","A2T8U68Y44GPVD","3P7RGTLO6EZ76AO3386R8ZK9IWWKAW","","322","img/flower3.png","74","322","1","0","2","1","1,0.333,0.333,0.333,1,0.333,0.333,0.333,1","1,0.333,0.333,0.333,1,0.333,0.333,0.333,1","1",""
"","html-keyboard-response","19","30372","0.0-19.0","3W8CV64QJ3L4LLBKWJUWOVPLSEO9H3","A2T8U68Y44GPVD","3P7RGTLO6EZ76AO3386R8ZK9IWWKAW","","null","<img src=""img/flower3.png"" style=""width:200px;border:14px solid red;"">","null","","","","","","","","",""
"","image-keyboard-response","20","30592","0.0-20.0","3W8CV64QJ3L4LLBKWJUWOVPLSEO9H3","A2T8U68Y44GPVD","3P7RGTLO6EZ76AO3386R8ZK9IWWKAW","","219","img/flower5.png","74","220","1","1","1","1","1,0.333,0.333,0.333,1,0.333,0.333,0.333,1","1,0.333,0.333,0.333,1,0.333,0.333,0.333,1","1",""
"","html-keyboard-response","21","30894","0.0-21.0","3W8CV64QJ3L4LLBKWJUWOVPLSEO9H3","A2T8U68Y44GPVD","3P7RGTLO6EZ76AO3386R8ZK9IWWKAW","","null","<img src=""img/flower5.png"" style=""width:200px; border:14px solid green;"">","null","","","","","","","","",""
"","image-keyboard-response","22","30977","0.0-22.0","3W8CV64QJ3L4LLBKWJUWOVPLSEO9H3","A2T8U68Y44GPVD","3P7RGTLO6EZ76AO3386R8ZK9IWWKAW","","82","img/flower5.png","74","83","1","1","1","1","1,0.333,0.333,0.333,1,0.333,0.333,0.333,1","1,0.333,0.333,0.333,1,0.333,0.333,0.333,1","1",""
"","html-keyboard-response","23","31279","0.0-23.0","3W8CV64QJ3L4LLBKWJUWOVPLSEO9H3","A2T8U68Y44GPVD","3P7RGTLO6EZ76AO3386R8ZK9IWWKAW","","null","<img src=""img/flower5.png"" style=""width:200px; border:14px solid green;"">","null","","","","","","","","",""
"","image-keyboard-response","24","31327","0.0-24.0","3W8CV64QJ3L4LLBKWJUWOVPLSEO9H3","A2T8U68Y44GPVD","3P7RGTLO6EZ76AO3386R8ZK9IWWKAW","","47","img/flower4.png","74","48","1","0","3","1","1,0.333,0.333,0.333,1,0.333,0.333,0.333,1","1,0.333,0.333,0.333,1,0.333,0.333,0.333,1","1",""
"","html-keyboard-response","25","31628","0.0-25.0","3W8CV64QJ3L4LLBKWJUWOVPLSEO9H3","A2T8U68Y44GPVD","3P7RGTLO6EZ76AO3386R8ZK9IWWKAW","","null","<img src=""img/flower4.png"" style=""width:200px;border:14px solid red;"">","null","","","","","","","","",""
"","image-keyboard-response","26","31822","0.0-26.0","3W8CV64QJ3L4LLBKWJUWOVPLSEO9H3","A2T8U68Y44GPVD","3P7RGTLO6EZ76AO3386R8ZK9IWWKAW","","193","img/flower4.png","74","194","1","1","3","1","1,0.333,0.333,0.333,1,0.333,0.333,0.333,1","1,0.333,0.333,0.333,1,0.333,0.333,0.333,1","1",""
"","html-keyboard-response","27","32123","0.0-27.0","3W8CV64QJ3L4LLBKWJUWOVPLSEO9H3","A2T8U68Y44GPVD","3P7RGTLO6EZ76AO3386R8ZK9IWWKAW","","null","<img src=""img/flower4.png"" style=""width:200px; border:14px solid green;"">","null","","","","","","","","",""
"","image-keyboard-response","28","32272","0.0-28.0","3W8CV64QJ3L4LLBKWJUWOVPLSEO9H3","A2T8U68Y44GPVD","3P7RGTLO6EZ76AO3386R8ZK9IWWKAW","","148","img/flower5.png","75","149","2","1","1","1","1,0.333,0.333,0.333,1,0.333,0.333,0.333,1","1,0.333,0.333,0.333,1,0.333,0.333,0.333,1","1",""
"","html-keyboard-response","29","32616","0.0-29.0","3W8CV64QJ3L4LLBKWJUWOVPLSEO9H3","A2T8U68Y44GPVD","3P7RGTLO6EZ76AO3386R8ZK9IWWKAW","","null","<img src=""img/flower5.png"" style=""width:200px; border:14px solid green;"">","null","","","","","","","","",""
"","image-keyboard-response","30","32621","0.0-30.0","3W8CV64QJ3L4LLBKWJUWOVPLSEO9H3","A2T8U68Y44GPVD","3P7RGTLO6EZ76AO3386R8ZK9IWWKAW","","3","img/flower5.png","74","5","1","1","1","1","1,0.333,0.333,0.333,1,0.333,0.333,0.333,1","1,0.333,0.333,0.333,1,0.333,0.333,0.333,1","1",""
"","html-keyboard-response","31","32924","0.0-31.0","3W8CV64QJ3L4LLBKWJUWOVPLSEO9H3","A2T8U68Y44GPVD","3P7RGTLO6EZ76AO3386R8ZK9IWWKAW","","null","<img src=""img/flower5.png"" style=""width:200px; border:14px solid green;"">","null","","","","","","","","",""
"","image-keyboard-response","32","33103","0.0-32.0","3W8CV64QJ3L4LLBKWJUWOVPLSEO9H3","A2T8U68Y44GPVD","3P7RGTLO6EZ76AO3386R8ZK9IWWKAW","","178","img/flower4.png","76","179","3","1","3","1","1,0.333,0.333,0.333,1,0.333,0.333,0.333,1","1,0.333,0.333,0.333,1,0.333,0.333,0.333,1","1",""
"","html-keyboard-response","33","33406","0.0-33.0","3W8CV64QJ3L4LLBKWJUWOVPLSEO9H3","A2T8U68Y44GPVD","3P7RGTLO6EZ76AO3386R8ZK9IWWKAW","","null","<img src=""img/flower4.png"" style=""width:200px; border:14px solid green;"">","null","","","","","","","","",""
"","image-keyboard-response","34","33426","0.0-34.0","3W8CV64QJ3L4LLBKWJUWOVPLSEO9H3","A2T8U68Y44GPVD","3P7RGTLO6EZ76AO3386R8ZK9IWWKAW","","18","img/flower4.png","75","20","2","0","3","1","1,0.333,0.333,0.333,1,0.333,0.333,0.333,1","1,0.333,0.333,0.333,1,0.333,0.333,0.333,1","1",""
"","html-keyboard-response","35","33726","0.0-35.0","3W8CV64QJ3L4LLBKWJUWOVPLSEO9H3","A2T8U68Y44GPVD","3P7RGTLO6EZ76AO3386R8ZK9IWWKAW","","null","<img src=""img/flower4.png"" style=""width:200px;border:14px solid red;"">","null","","","","","","","","",""
"","image-keyboard-response","36","33895","0.0-36.0","3W8CV64QJ3L4LLBKWJUWOVPLSEO9H3","A2T8U68Y44GPVD","3P7RGTLO6EZ76AO3386R8ZK9IWWKAW","","169","img/flower5.png","76","169","3","0","1","1","1,0.333,0.333,0.333,1,0.333,0.333,0.333,1","1,0.333,0.333,0.333,1,0.333,0.333,0.333,1","1",""
"","html-keyboard-response","37","34196","0.0-37.0","3W8CV64QJ3L4LLBKWJUWOVPLSEO9H3","A2T8U68Y44GPVD","3P7RGTLO6EZ76AO3386R8ZK9IWWKAW","","null","<img src=""img/flower5.png"" style=""width:200px;border:14px solid red;"">","null","","","","","","","","",""
"","image-keyboard-response","38","34378","0.0-38.0","3W8CV64QJ3L4LLBKWJUWOVPLSEO9H3","A2T8U68Y44GPVD","3P7RGTLO6EZ76AO3386R8ZK9IWWKAW","","182","img/flower4.png","75","182","2","0","3","1","1,0.333,0.333,0.333,1,0.333,0.333,0.333,1","1,0.333,0.333,0.333,1,0.333,0.333,0.333,1","1",""
"","html-keyboard-response","39","34680","0.0-39.0","3W8CV64QJ3L4LLBKWJUWOVPLSEO9H3","A2T8U68Y44GPVD","3P7RGTLO6EZ76AO3386R8ZK9IWWKAW","","null","<img src=""img/flower4.png"" style=""width:200px;border:14px solid red;"">","null","","","","","","","","",""
"","image-keyboard-response","40","34696","0.0-40.0","3W8CV64QJ3L4LLBKWJUWOVPLSEO9H3","A2T8U68Y44GPVD","3P7RGTLO6EZ76AO3386R8ZK9IWWKAW","","12","img/flower5.png","76","16","3","1","1","1","1,0.333,0.333,0.333,1,0.333,0.333,0.333,1","1,0.333,0.333,0.333,1,0.333,0.333,0.333,1","1",""
"","html-keyboard-response","41","35002","0.0-41.0","3W8CV64QJ3L4LLBKWJUWOVPLSEO9H3","A2T8U68Y44GPVD","3P7RGTLO6EZ76AO3386R8ZK9IWWKAW","","null","<img src=""img/flower5.png"" style=""width:200px; border:14px solid green;"">","null","","","","","","","","",""
"","image-keyboard-response","42","35202","0.0-42.0","3W8CV64QJ3L4LLBKWJUWOVPLSEO9H3","A2T8U68Y44GPVD","3P7RGTLO6EZ76AO3386R8ZK9IWWKAW","","200","img/flower5.png","74","200","1","1","1","1","1,0.333,0.333,0.333,1,0.333,0.333,0.333,1","1,0.333,0.333,0.333,1,0.333,0.333,0.333,1","1",""
"","html-keyboard-response","43","35503","0.0-43.0","3W8CV64QJ3L4LLBKWJUWOVPLSEO9H3","A2T8U68Y44GPVD","3P7RGTLO6EZ76AO3386R8ZK9IWWKAW","","null","<img src=""img/flower5.png"" style=""width:200px; border:14px solid green;"">","null","","","","","","","","",""
"","image-keyboard-response","44","35623","0.0-44.0","3W8CV64QJ3L4LLBKWJUWOVPLSEO9H3","A2T8U68Y44GPVD","3P7RGTLO6EZ76AO3386R8ZK9IWWKAW","","119","img/flower4.png","75","120","2","1","3","1","1,0.333,0.333,0.333,1,0.333,0.333,0.333,1","1,0.333,0.333,0.333,1,0.333,0.333,0.333,1","1",""
"","html-keyboard-response","45","35925","0.0-45.0","3W8CV64QJ3L4LLBKWJUWOVPLSEO9H3","A2T8U68Y44GPVD","3P7RGTLO6EZ76AO3386R8ZK9IWWKAW","","null","<img src=""img/flower4.png"" style=""width:200px; border:14px solid green;"">","null","","","","","","","","",""
"","image-keyboard-response","46","36024","0.0-46.0","3W8CV64QJ3L4LLBKWJUWOVPLSEO9H3","A2T8U68Y44GPVD","3P7RGTLO6EZ76AO3386R8ZK9IWWKAW","","97","img/flower3.png","74","99","1","1","2","1","1,0.333,0.333,0.333,1,0.333,0.333,0.333,1","1,0.333,0.333,0.333,1,0.333,0.333,0.333,1","1",""
"","html-keyboard-response","47","36325","0.0-47.0","3W8CV64QJ3L4LLBKWJUWOVPLSEO9H3","A2T8U68Y44GPVD","3P7RGTLO6EZ76AO3386R8ZK9IWWKAW","","null","<img src=""img/flower3.png"" style=""width:200px; border:14px solid green;"">","null","","","","","","","","",""
"","image-keyboard-response","48","36552","0.0-48.0","3W8CV64QJ3L4LLBKWJUWOVPLSEO9H3","A2T8U68Y44GPVD","3P7RGTLO6EZ76AO3386R8ZK9IWWKAW","","226","img/flower4.png","76","227","3","1","3","1","1,0.333,0.333,0.333,1,0.333,0.333,0.333,1","1,0.333,0.333,0.333,1,0.333,0.333,0.333,1","1",""
"","html-keyboard-response","49","36855","0.0-49.0","3W8CV64QJ3L4LLBKWJUWOVPLSEO9H3","A2T8U68Y44GPVD","3P7RGTLO6EZ76AO3386R8ZK9IWWKAW","","null","<img src=""img/flower4.png"" style=""width:200px; border:14px solid green;"">","null","","","","","","","","",""
"","image-keyboard-response","50","36904","0.0-50.0","3W8CV64QJ3L4LLBKWJUWOVPLSEO9H3","A2T8U68Y44GPVD","3P7RGTLO6EZ76AO3386R8ZK9IWWKAW","","48","img/flower5.png","76","49","3","0","1","1","1,0.333,0.333,0.333,1,0.333,0.333,0.333,1","1,0.333,0.333,0.333,1,0.333,0.333,0.333,1","1",""
"","html-keyboard-response","51","37239","0.0-51.0","3W8CV64QJ3L4LLBKWJUWOVPLSEO9H3","A2T8U68Y44GPVD","3P7RGTLO6EZ76AO3386R8ZK9IWWKAW","","null","<img src=""img/flower5.png"" style=""width:200px;border:14px solid red;"">","null","","","","","","","","",""
"","image-keyboard-response","52","37244","0.0-52.0","3W8CV64QJ3L4LLBKWJUWOVPLSEO9H3","A2T8U68Y44GPVD","3P7RGTLO6EZ76AO3386R8ZK9IWWKAW","","3","img/flower4.png","74","4","1","0","3","1","1,0.333,0.333,0.333,1,0.333,0.333,0.333,1","1,0.333,0.333,0.333,1,0.333,0.333,0.333,1","1",""
"","html-keyboard-response","53","37545","0.0-53.0","3W8CV64QJ3L4LLBKWJUWOVPLSEO9H3","A2T8U68Y44GPVD","3P7RGTLO6EZ76AO3386R8ZK9IWWKAW","","null","<img src=""img/flower4.png"" style=""width:200px;border:14px solid red;"">","null","","","","","","","","",""
"","image-keyboard-response","54","37769","0.0-54.0","3W8CV64QJ3L4LLBKWJUWOVPLSEO9H3","A2T8U68Y44GPVD","3P7RGTLO6EZ76AO3386R8ZK9IWWKAW","","223","img/flower5.png","76","224","3","0","1","1","1,0.333,0.333,0.333,1,0.333,0.333,0.333,1","1,0.333,0.333,0.333,1,0.333,0.333,0.333,1","1",""
"","html-keyboard-response","55","38070","0.0-55.0","3W8CV64QJ3L4LLBKWJUWOVPLSEO9H3","A2T8U68Y44GPVD","3P7RGTLO6EZ76AO3386R8ZK9IWWKAW","","null","<img src=""img/flower5.png"" style=""width:200px;border:14px solid red;"">","null","","","","","","","","",""
"","image-keyboard-response","56","38184","0.0-56.0","3W8CV64QJ3L4LLBKWJUWOVPLSEO9H3","A2T8U68Y44GPVD","3P7RGTLO6EZ76AO3386R8ZK9IWWKAW","","113","img/flower5.png","76","114","3","0","1","1","1,0.333,0.333,0.333,1,0.333,0.333,0.333,1","1,0.333,0.333,0.333,1,0.333,0.333,0.333,1","1",""
"","html-keyboard-response","57","38485","0.0-57.0","3W8CV64QJ3L4LLBKWJUWOVPLSEO9H3","A2T8U68Y44GPVD","3P7RGTLO6EZ76AO3386R8ZK9IWWKAW","","null","<img src=""img/flower5.png"" style=""width:200px;border:14px solid red;"">","null","","","","","","","","",""
"","image-keyboard-response","58","38641","0.0-58.0","3W8CV64QJ3L4LLBKWJUWOVPLSEO9H3","A2T8U68Y44GPVD","3P7RGTLO6EZ76AO3386R8ZK9IWWKAW","","156","img/flower4.png","76","156","3","1","3","1","1,0.333,0.333,0.333,1,0.333,0.333,0.333,1","1,0.333,0.333,0.333,1,0.333,0.333,0.333,1","1",""
"","html-keyboard-response","59","38944","0.0-59.0","3W8CV64QJ3L4LLBKWJUWOVPLSEO9H3","A2T8U68Y44GPVD","3P7RGTLO6EZ76AO3386R8ZK9IWWKAW","","null","<img src=""img/flower4.png"" style=""width:200px; border:14px solid green;"">","null","","","","","","","","",""
"","image-keyboard-response","60","39352","0.0-60.0","3W8CV64QJ3L4LLBKWJUWOVPLSEO9H3","A2T8U68Y44GPVD","3P7RGTLO6EZ76AO3386R8ZK9IWWKAW","","407","img/flower4.png","76","408","3","1","3","1","1,0.333,0.333,0.333,1,0.333,0.333,0.333,1","1,0.333,0.333,0.333,1,0.333,0.333,0.333,1","1",""
"","html-keyboard-response","61","39652","0.0-61.0","3W8CV64QJ3L4LLBKWJUWOVPLSEO9H3","A2T8U68Y44GPVD","3P7RGTLO6EZ76AO3386R8ZK9IWWKAW","","null","<img src=""img/flower4.png"" style=""width:200px; border:14px solid green;"">","null","","","","","","","","",""
"","image-keyboard-response","62","39736","0.0-62.0","3W8CV64QJ3L4LLBKWJUWOVPLSEO9H3","A2T8U68Y44GPVD","3P7RGTLO6EZ76AO3386R8ZK9IWWKAW","","83","img/flower3.png","74","84","1","0","2","1","1,0.333,0.333,0.333,1,0.333,0.333,0.333,1","1,0.333,0.333,0.333,1,0.333,0.333,0.333,1","1",""
"","html-keyboard-response","63","40037","0.0-63.0","3W8CV64QJ3L4LLBKWJUWOVPLSEO9H3","A2T8U68Y44GPVD","3P7RGTLO6EZ76AO3386R8ZK9IWWKAW","","null","<img src=""img/flower3.png"" style=""width:200px;border:14px solid red;"">","null","","","","","","","","",""
"","image-keyboard-response","64","40073","0.0-64.0","3W8CV64QJ3L4LLBKWJUWOVPLSEO9H3","A2T8U68Y44GPVD","3P7RGTLO6EZ76AO3386R8ZK9IWWKAW","","34","img/flower4.png","74","36","1","1","3","1","1,0.333,0.333,0.333,1,0.333,0.333,0.333,1","1,0.333,0.333,0.333,1,0.333,0.333,0.333,1","1",""
"","html-keyboard-response","65","40373","0.0-65.0","3W8CV64QJ3L4LLBKWJUWOVPLSEO9H3","A2T8U68Y44GPVD","3P7RGTLO6EZ76AO3386R8ZK9IWWKAW","","null","<img src=""img/flower4.png"" style=""width:200px; border:14px solid green;"">","null","","","","","","","","",""
"","image-keyboard-response","66","40760","0.0-66.0","3W8CV64QJ3L4LLBKWJUWOVPLSEO9H3","A2T8U68Y44GPVD","3P7RGTLO6EZ76AO3386R8ZK9IWWKAW","","386","img/flower5.png","75","387","2","0","1","1","1,0.333,0.333,0.333,1,0.333,0.333,0.333,1","1,0.333,0.333,0.333,1,0.333,0.333,0.333,1","1",""
"","html-keyboard-response","67","41061","0.0-67.0","3W8CV64QJ3L4LLBKWJUWOVPLSEO9H3","A2T8U68Y44GPVD","3P7RGTLO6EZ76AO3386R8ZK9IWWKAW","","null","<img src=""img/flower5.png"" style=""width:200px;border:14px solid red;"">","null","","","","","","","","",""
"","image-keyboard-response","68","41064","0.0-68.0","3W8CV64QJ3L4LLBKWJUWOVPLSEO9H3","A2T8U68Y44GPVD","3P7RGTLO6EZ76AO3386R8ZK9IWWKAW","","3","img/flower3.png","74","3","1","1","2","1","1,0.333,0.333,0.333,1,0.333,0.333,0.333,1","1,0.333,0.333,0.333,1,0.333,0.333,0.333,1","1",""
"","html-keyboard-response","69","41366","0.0-69.0","3W8CV64QJ3L4LLBKWJUWOVPLSEO9H3","A2T8U68Y44GPVD","3P7RGTLO6EZ76AO3386R8ZK9IWWKAW","","null","<img src=""img/flower3.png"" style=""width:200px; border:14px solid green;"">","null","","","","","","","","",""
"","image-keyboard-response","70","41428","0.0-70.0","3W8CV64QJ3L4LLBKWJUWOVPLSEO9H3","A2T8U68Y44GPVD","3P7RGTLO6EZ76AO3386R8ZK9IWWKAW","","60","img/flower4.png","75","62","2","1","3","1","1,0.333,0.333,0.333,1,0.333,0.333,0.333,1","1,0.333,0.333,0.333,1,0.333,0.333,0.333,1","1",""
"","html-keyboard-response","71","41728","0.0-71.0","3W8CV64QJ3L4LLBKWJUWOVPLSEO9H3","A2T8U68Y44GPVD","3P7RGTLO6EZ76AO3386R8ZK9IWWKAW","","null","<img src=""img/flower4.png"" style=""width:200px; border:14px solid green;"">","null","","","","","","","","",""
"","image-keyboard-response","72","41736","0.0-72.0","3W8CV64QJ3L4LLBKWJUWOVPLSEO9H3","A2T8U68Y44GPVD","3P7RGTLO6EZ76AO3386R8ZK9IWWKAW","","7","img/flower3.png","76","8","3","1","2","1","1,0.333,0.333,0.333,1,0.333,0.333,0.333,1","1,0.333,0.333,0.333,1,0.333,0.333,0.333,1","1",""
"","html-keyboard-response","73","42037","0.0-73.0","3W8CV64QJ3L4LLBKWJUWOVPLSEO9H3","A2T8U68Y44GPVD","3P7RGTLO6EZ76AO3386R8ZK9IWWKAW","","null","<img src=""img/flower3.png"" style=""width:200px; border:14px solid green;"">","null","","","","","","","","",""
"","image-keyboard-response","74","42057","0.0-74.0","3W8CV64QJ3L4LLBKWJUWOVPLSEO9H3","A2T8U68Y44GPVD","3P7RGTLO6EZ76AO3386R8ZK9IWWKAW","","19","img/flower4.png","74","20","1","1","3","1","1,0.333,0.333,0.333,1,0.333,0.333,0.333,1","1,0.333,0.333,0.333,1,0.333,0.333,0.333,1","1",""
"","html-keyboard-response","75","42357","0.0-75.0","3W8CV64QJ3L4LLBKWJUWOVPLSEO9H3","A2T8U68Y44GPVD","3P7RGTLO6EZ76AO3386R8ZK9IWWKAW","","null","<img src=""img/flower4.png"" style=""width:200px; border:14px solid green;"">","null","","","","","","","","",""
"","image-keyboard-response","76","42368","0.0-76.0","3W8CV64QJ3L4LLBKWJUWOVPLSEO9H3","A2T8U68Y44GPVD","3P7RGTLO6EZ76AO3386R8ZK9IWWKAW","","10","img/flower3.png","76","11","3","0","2","1","1,0.333,0.333,0.333,1,0.333,0.333,0.333,1","1,0.333,0.333,0.333,1,0.333,0.333,0.333,1","1",""
"","html-keyboard-response","77","42670","0.0-77.0","3W8CV64QJ3L4LLBKWJUWOVPLSEO9H3","A2T8U68Y44GPVD","3P7RGTLO6EZ76AO3386R8ZK9IWWKAW","","null","<img src=""img/flower3.png"" style=""width:200px;border:14px solid red;"">","null","","","","","","","","",""
"","image-keyboard-response","78","42812","0.0-78.0","3W8CV64QJ3L4LLBKWJUWOVPLSEO9H3","A2T8U68Y44GPVD","3P7RGTLO6EZ76AO3386R8ZK9IWWKAW","","141","img/flower5.png","75","141","2","0","1","1","1,0.333,0.333,0.333,1,0.333,0.333,0.333,1","1,0.333,0.333,0.333,1,0.333,0.333,0.333,1","1",""
"","html-keyboard-response","79","43113","0.0-79.0","3W8CV64QJ3L4LLBKWJUWOVPLSEO9H3","A2T8U68Y44GPVD","3P7RGTLO6EZ76AO3386R8ZK9IWWKAW","","null","<img src=""img/flower5.png"" style=""width:200px;border:14px solid red;"">","null","","","","","","","","",""
"","image-keyboard-response","80","43136","0.0-80.0","3W8CV64QJ3L4LLBKWJUWOVPLSEO9H3","A2T8U68Y44GPVD","3P7RGTLO6EZ76AO3386R8ZK9IWWKAW","","22","img/flower3.png","75","23","2","1","2","1","1,0.333,0.333,0.333,1,0.333,0.333,0.333,1","1,0.333,0.333,0.333,1,0.333,0.333,0.333,1","1",""
"","html-keyboard-response","81","43437","0.0-81.0","3W8CV64QJ3L4LLBKWJUWOVPLSEO9H3","A2T8U68Y44GPVD","3P7RGTLO6EZ76AO3386R8ZK9IWWKAW","","null","<img src=""img/flower3.png"" style=""width:200px; border:14px solid green;"">","null","","","","","","","","",""
"","image-keyboard-response","82","43440","0.0-82.0","3W8CV64QJ3L4LLBKWJUWOVPLSEO9H3","A2T8U68Y44GPVD","3P7RGTLO6EZ76AO3386R8ZK9IWWKAW","","3","img/flower3.png","74","3","1","1","2","1","1,0.333,0.333,0.333,1,0.333,0.333,0.333,1","1,0.333,0.333,0.333,1,0.333,0.333,0.333,1","1",""
"","html-keyboard-response","83","43741","0.0-83.0","3W8CV64QJ3L4LLBKWJUWOVPLSEO9H3","A2T8U68Y44GPVD","3P7RGTLO6EZ76AO3386R8ZK9IWWKAW","","null","<img src=""img/flower3.png"" style=""width:200px; border:14px solid green;"">","null","","","","","","","","",""
"","image-keyboard-response","84","43968","0.0-84.0","3W8CV64QJ3L4LLBKWJUWOVPLSEO9H3","A2T8U68Y44GPVD","3P7RGTLO6EZ76AO3386R8ZK9IWWKAW","","226","img/flower3.png","74","226","1","1","2","1","1,0.333,0.333,0.333,1,0.333,0.333,0.333,1","1,0.333,0.333,0.333,1,0.333,0.333,0.333,1","1",""
"","html-keyboard-response","85","44269","0.0-85.0","3W8CV64QJ3L4LLBKWJUWOVPLSEO9H3","A2T8U68Y44GPVD","3P7RGTLO6EZ76AO3386R8ZK9IWWKAW","","null","<img src=""img/flower3.png"" style=""width:200px; border:14px solid green;"">","null","","","","","","","","",""
"","image-keyboard-response","86","44456","0.0-86.0","3W8CV64QJ3L4LLBKWJUWOVPLSEO9H3","A2T8U68Y44GPVD","3P7RGTLO6EZ76AO3386R8ZK9IWWKAW","","187","img/flower3.png","74","187","1","0","2","1","1,0.333,0.333,0.333,1,0.333,0.333,0.333,1","1,0.333,0.333,0.333,1,0.333,0.333,0.333,1","1",""
"","html-keyboard-response","87","44757","0.0-87.0","3W8CV64QJ3L4LLBKWJUWOVPLSEO9H3","A2T8U68Y44GPVD","3P7RGTLO6EZ76AO3386R8ZK9IWWKAW","","null","<img src=""img/flower3.png"" style=""width:200px;border:14px solid red;"">","null","","","","","","","","",""
"","image-keyboard-response","88","44932","0.0-88.0","3W8CV64QJ3L4LLBKWJUWOVPLSEO9H3","A2T8U68Y44GPVD","3P7RGTLO6EZ76AO3386R8ZK9IWWKAW","","174","img/flower4.png","76","175","3","1","3","1","1,0.333,0.333,0.333,1,0.333,0.333,0.333,1","1,0.333,0.333,0.333,1,0.333,0.333,0.333,1","1",""
"","html-keyboard-response","89","45235","0.0-89.0","3W8CV64QJ3L4LLBKWJUWOVPLSEO9H3","A2T8U68Y44GPVD","3P7RGTLO6EZ76AO3386R8ZK9IWWKAW","","null","<img src=""img/flower4.png"" style=""width:200px; border:14px solid green;"">","null","","","","","","","","",""
"","image-keyboard-response","90","45240","0.0-90.0","3W8CV64QJ3L4LLBKWJUWOVPLSEO9H3","A2T8U68Y44GPVD","3P7RGTLO6EZ76AO3386R8ZK9IWWKAW","","4","img/flower3.png","76","5","3","0","2","1","1,0.333,0.333,0.333,1,0.333,0.333,0.333,1","1,0.333,0.333,0.333,1,0.333,0.333,0.333,1","1",""
"","html-keyboard-response","91","45543","0.0-91.0","3W8CV64QJ3L4LLBKWJUWOVPLSEO9H3","A2T8U68Y44GPVD","3P7RGTLO6EZ76AO3386R8ZK9IWWKAW","","null","<img src=""img/flower3.png"" style=""width:200px;border:14px solid red;"">","null","","","","","","","","",""
"","image-keyboard-response","92","45584","0.0-92.0","3W8CV64QJ3L4LLBKWJUWOVPLSEO9H3","A2T8U68Y44GPVD","3P7RGTLO6EZ76AO3386R8ZK9IWWKAW","","40","img/flower5.png","74","41","1","1","1","1","1,0.333,0.333,0.333,1,0.333,0.333,0.333,1","1,0.333,0.333,0.333,1,0.333,0.333,0.333,1","1",""
"","html-keyboard-response","93","45885","0.0-93.0","3W8CV64QJ3L4LLBKWJUWOVPLSEO9H3","A2T8U68Y44GPVD","3P7RGTLO6EZ76AO3386R8ZK9IWWKAW","","null","<img src=""img/flower5.png"" style=""width:200px; border:14px solid green;"">","null","","","","","","","","",""
"","image-keyboard-response","94","45921","0.0-94.0","3W8CV64QJ3L4LLBKWJUWOVPLSEO9H3","A2T8U68Y44GPVD","3P7RGTLO6EZ76AO3386R8ZK9IWWKAW","","35","img/flower3.png","75","36","2","1","2","1","1,0.333,0.333,0.333,1,0.333,0.333,0.333,1","1,0.333,0.333,0.333,1,0.333,0.333,0.333,1","1",""
"","html-keyboard-response","95","46222","0.0-95.0","3W8CV64QJ3L4LLBKWJUWOVPLSEO9H3","A2T8U68Y44GPVD","3P7RGTLO6EZ76AO3386R8ZK9IWWKAW","","null","<img src=""img/flower3.png"" style=""width:200px; border:14px solid green;"">","null","","","","","","","","",""
"","image-keyboard-response","96","46297","0.0-96.0","3W8CV64QJ3L4LLBKWJUWOVPLSEO9H3","A2T8U68Y44GPVD","3P7RGTLO6EZ76AO3386R8ZK9IWWKAW","","75","img/flower5.png","75","75","2","0","1","1","1,0.333,0.333,0.333,1,0.333,0.333,0.333,1","1,0.333,0.333,0.333,1,0.333,0.333,0.333,1","1",""
"","html-keyboard-response","97","46597","0.0-97.0","3W8CV64QJ3L4LLBKWJUWOVPLSEO9H3","A2T8U68Y44GPVD","3P7RGTLO6EZ76AO3386R8ZK9IWWKAW","","null","<img src=""img/flower5.png"" style=""width:200px;border:14px solid red;"">","null","","","","","","","","",""
"","image-keyboard-response","98","46618","0.0-98.0","3W8CV64QJ3L4LLBKWJUWOVPLSEO9H3","A2T8U68Y44GPVD","3P7RGTLO6EZ76AO3386R8ZK9IWWKAW","","21","img/flower5.png","74","21","1","1","1","1","1,0.333,0.333,0.333,1,0.333,0.333,0.333,1","1,0.333,0.333,0.333,1,0.333,0.333,0.333,1","1",""
"","html-keyboard-response","99","46919","0.0-99.0","3W8CV64QJ3L4LLBKWJUWOVPLSEO9H3","A2T8U68Y44GPVD","3P7RGTLO6EZ76AO3386R8ZK9IWWKAW","","null","<img src=""img/flower5.png"" style=""width:200px; border:14px solid green;"">","null","","","","","","","","",""
"","image-keyboard-response","100","47032","0.0-100.0","3W8CV64QJ3L4LLBKWJUWOVPLSEO9H3","A2T8U68Y44GPVD","3P7RGTLO6EZ76AO3386R8ZK9IWWKAW","","112","img/flower4.png","76","113","3","1","3","1","1,0.333,0.333,0.333,1,0.333,0.333,0.333,1","1,0.333,0.333,0.333,1,0.333,0.333,0.333,1","1",""
"","html-keyboard-response","101","47333","0.0-101.0","3W8CV64QJ3L4LLBKWJUWOVPLSEO9H3","A2T8U68Y44GPVD","3P7RGTLO6EZ76AO3386R8ZK9IWWKAW","","null","<img src=""img/flower4.png"" style=""width:200px; border:14px solid green;"">","null","","","","","","","","",""
"","image-keyboard-response","102","47627","0.0-102.0","3W8CV64QJ3L4LLBKWJUWOVPLSEO9H3","A2T8U68Y44GPVD","3P7RGTLO6EZ76AO3386R8ZK9IWWKAW","","293","img/flower5.png","75","294","2","1","1","1","1,0.333,0.333,0.333,1,0.333,0.333,0.333,1","1,0.333,0.333,0.333,1,0.333,0.333,0.333,1","1",""
"","html-keyboard-response","103","47930","0.0-103.0","3W8CV64QJ3L4LLBKWJUWOVPLSEO9H3","A2T8U68Y44GPVD","3P7RGTLO6EZ76AO3386R8ZK9IWWKAW","","null","<img src=""img/flower5.png"" style=""width:200px; border:14px solid green;"">","null","","","","","","","","",""
"","image-keyboard-response","104","48056","0.0-104.0","3W8CV64QJ3L4LLBKWJUWOVPLSEO9H3","A2T8U68Y44GPVD","3P7RGTLO6EZ76AO3386R8ZK9IWWKAW","","126","img/flower3.png","75","126","2","1","2","1","1,0.333,0.333,0.333,1,0.333,0.333,0.333,1","1,0.333,0.333,0.333,1,0.333,0.333,0.333,1","1",""
"","html-keyboard-response","105","48432","0.0-105.0","3W8CV64QJ3L4LLBKWJUWOVPLSEO9H3","A2T8U68Y44GPVD","3P7RGTLO6EZ76AO3386R8ZK9IWWKAW","","null","<img src=""img/flower3.png"" style=""width:200px; border:14px solid green;"">","null","","","","","","","","",""
"","image-keyboard-response","106","48476","0.0-106.0","3W8CV64QJ3L4LLBKWJUWOVPLSEO9H3","A2T8U68Y44GPVD","3P7RGTLO6EZ76AO3386R8ZK9IWWKAW","","43","img/flower3.png","74","44","1","0","2","1","1,0.333,0.333,0.333,1,0.333,0.333,0.333,1","1,0.333,0.333,0.333,1,0.333,0.333,0.333,1","1",""
"","html-keyboard-response","107","48777","0.0-107.0","3W8CV64QJ3L4LLBKWJUWOVPLSEO9H3","A2T8U68Y44GPVD","3P7RGTLO6EZ76AO3386R8ZK9IWWKAW","","null","<img src=""img/flower3.png"" style=""width:200px;border:14px solid red;"">","null","","","","","","","","",""
"","image-keyboard-response","108","48928","0.0-108.0","3W8CV64QJ3L4LLBKWJUWOVPLSEO9H3","A2T8U68Y44GPVD","3P7RGTLO6EZ76AO3386R8ZK9IWWKAW","","150","img/flower3.png","74","152","1","0","2","1","1,0.333,0.333,0.333,1,0.333,0.333,0.333,1","1,0.333,0.333,0.333,1,0.333,0.333,0.333,1","1",""
"","html-keyboard-response","109","49230","0.0-109.0","3W8CV64QJ3L4LLBKWJUWOVPLSEO9H3","A2T8U68Y44GPVD","3P7RGTLO6EZ76AO3386R8ZK9IWWKAW","","null","<img src=""img/flower3.png"" style=""width:200px;border:14px solid red;"">","null","","","","","","","","",""
"","image-keyboard-response","110","49304","0.0-110.0","3W8CV64QJ3L4LLBKWJUWOVPLSEO9H3","A2T8U68Y44GPVD","3P7RGTLO6EZ76AO3386R8ZK9IWWKAW","","74","img/flower4.png","75","74","2","0","3","1","1,0.333,0.333,0.333,1,0.333,0.333,0.333,1","1,0.333,0.333,0.333,1,0.333,0.333,0.333,1","1",""
"","html-keyboard-response","111","49605","0.0-111.0","3W8CV64QJ3L4LLBKWJUWOVPLSEO9H3","A2T8U68Y44GPVD","3P7RGTLO6EZ76AO3386R8ZK9IWWKAW","","null","<img src=""img/flower4.png"" style=""width:200px;border:14px solid red;"">","null","","","","","","","","",""
"","image-keyboard-response","112","49803","0.0-112.0","3W8CV64QJ3L4LLBKWJUWOVPLSEO9H3","A2T8U68Y44GPVD","3P7RGTLO6EZ76AO3386R8ZK9IWWKAW","","197","img/flower3.png","74","198","1","0","2","1","1,0.333,0.333,0.333,1,0.333,0.333,0.333,1","1,0.333,0.333,0.333,1,0.333,0.333,0.333,1","1",""
"","html-keyboard-response","113","50108","0.0-113.0","3W8CV64QJ3L4LLBKWJUWOVPLSEO9H3","A2T8U68Y44GPVD","3P7RGTLO6EZ76AO3386R8ZK9IWWKAW","","null","<img src=""img/flower3.png"" style=""width:200px;border:14px solid red;"">","null","","","","","","","","",""
"","image-keyboard-response","114","50148","0.0-114.0","3W8CV64QJ3L4LLBKWJUWOVPLSEO9H3","A2T8U68Y44GPVD","3P7RGTLO6EZ76AO3386R8ZK9IWWKAW","","27","img/flower5.png","76","36","3","0","1","1","1,0.333,0.333,0.333,1,0.333,0.333,0.333,1","1,0.333,0.333,0.333,1,0.333,0.333,0.333,1","1",""
"","html-keyboard-response","115","50448","0.0-115.0","3W8CV64QJ3L4LLBKWJUWOVPLSEO9H3","A2T8U68Y44GPVD","3P7RGTLO6EZ76AO3386R8ZK9IWWKAW","","null","<img src=""img/flower5.png"" style=""width:200px;border:14px solid red;"">","null","","","","","","","","",""
"","image-keyboard-response","116","50744","0.0-116.0","3W8CV64QJ3L4LLBKWJUWOVPLSEO9H3","A2T8U68Y44GPVD","3P7RGTLO6EZ76AO3386R8ZK9IWWKAW","","295","img/flower3.png","75","296","2","1","2","1","1,0.333,0.333,0.333,1,0.333,0.333,0.333,1","1,0.333,0.333,0.333,1,0.333,0.333,0.333,1","1",""
"","html-keyboard-response","117","51044","0.0-117.0","3W8CV64QJ3L4LLBKWJUWOVPLSEO9H3","A2T8U68Y44GPVD","3P7RGTLO6EZ76AO3386R8ZK9IWWKAW","","null","<img src=""img/flower3.png"" style=""width:200px; border:14px solid green;"">","null","","","","","","","","",""
"","image-keyboard-response","118","51288","0.0-118.0","3W8CV64QJ3L4LLBKWJUWOVPLSEO9H3","A2T8U68Y44GPVD","3P7RGTLO6EZ76AO3386R8ZK9IWWKAW","","244","img/flower3.png","74","244","1","0","2","1","1,0.333,0.333,0.333,1,0.333,0.333,0.333,1","1,0.333,0.333,0.333,1,0.333,0.333,0.333,1","1",""
"","html-keyboard-response","119","51590","0.0-119.0","3W8CV64QJ3L4LLBKWJUWOVPLSEO9H3","A2T8U68Y44GPVD","3P7RGTLO6EZ76AO3386R8ZK9IWWKAW","","null","<img src=""img/flower3.png"" style=""width:200px;border:14px solid red;"">","null","","","","","","","","",""
"","image-keyboard-response","120","51593","0.0-120.0","3W8CV64QJ3L4LLBKWJUWOVPLSEO9H3","A2T8U68Y44GPVD","3P7RGTLO6EZ76AO3386R8ZK9IWWKAW","","2","img/flower4.png","75","3","2","1","3","1","1,0.333,0.333,0.333,1,0.333,0.333,0.333,1","1,0.333,0.333,0.333,1,0.333,0.333,0.333,1","1",""
"","html-keyboard-response","121","51893","0.0-121.0","3W8CV64QJ3L4LLBKWJUWOVPLSEO9H3","A2T8U68Y44GPVD","3P7RGTLO6EZ76AO3386R8ZK9IWWKAW","","null","<img src=""img/flower4.png"" style=""width:200px; border:14px solid green;"">","null","","","","","","","","",""
"","image-keyboard-response","122","52048","0.0-122.0","3W8CV64QJ3L4LLBKWJUWOVPLSEO9H3","A2T8U68Y44GPVD","3P7RGTLO6EZ76AO3386R8ZK9IWWKAW","","153","img/flower5.png","74","154","1","1","1","1","1,0.333,0.333,0.333,1,0.333,0.333,0.333,1","1,0.333,0.333,0.333,1,0.333,0.333,0.333,1","1",""
"","html-keyboard-response","123","52349","0.0-123.0","3W8CV64QJ3L4LLBKWJUWOVPLSEO9H3","A2T8U68Y44GPVD","3P7RGTLO6EZ76AO3386R8ZK9IWWKAW","","null","<img src=""img/flower5.png"" style=""width:200px; border:14px solid green;"">","null","","","","","","","","",""
"","image-keyboard-response","124","52603","0.0-124.0","3W8CV64QJ3L4LLBKWJUWOVPLSEO9H3","A2T8U68Y44GPVD","3P7RGTLO6EZ76AO3386R8ZK9IWWKAW","","253","img/flower5.png","75","253","2","1","1","1","1,0.333,0.333,0.333,1,0.333,0.333,0.333,1","1,0.333,0.333,0.333,1,0.333,0.333,0.333,1","1",""
"","html-keyboard-response","125","52905","0.0-125.0","3W8CV64QJ3L4LLBKWJUWOVPLSEO9H3","A2T8U68Y44GPVD","3P7RGTLO6EZ76AO3386R8ZK9IWWKAW","","null","<img src=""img/flower5.png"" style=""width:200px; border:14px solid green;"">","null","","","","","","","","",""
"","image-keyboard-response","126","53081","0.0-126.0","3W8CV64QJ3L4LLBKWJUWOVPLSEO9H3","A2T8U68Y44GPVD","3P7RGTLO6EZ76AO3386R8ZK9IWWKAW","","175","img/flower3.png","74","176","1","1","2","1","1,0.333,0.333,0.333,1,0.333,0.333,0.333,1","1,0.333,0.333,0.333,1,0.333,0.333,0.333,1","1",""
"","html-keyboard-response","127","53382","0.0-127.0","3W8CV64QJ3L4LLBKWJUWOVPLSEO9H3","A2T8U68Y44GPVD","3P7RGTLO6EZ76AO3386R8ZK9IWWKAW","","null","<img src=""img/flower3.png"" style=""width:200px; border:14px solid green;"">","null","","","","","","","","",""
"","image-keyboard-response","128","53561","0.0-128.0","3W8CV64QJ3L4LLBKWJUWOVPLSEO9H3","A2T8U68Y44GPVD","3P7RGTLO6EZ76AO3386R8ZK9IWWKAW","","178","img/flower4.png","74","179","1","1","3","1","1,0.333,0.333,0.333,1,0.333,0.333,0.333,1","1,0.333,0.333,0.333,1,0.333,0.333,0.333,1","1",""
"","html-keyboard-response","129","53862","0.0-129.0","3W8CV64QJ3L4LLBKWJUWOVPLSEO9H3","A2T8U68Y44GPVD","3P7RGTLO6EZ76AO3386R8ZK9IWWKAW","","null","<img src=""img/flower4.png"" style=""width:200px; border:14px solid green;"">","null","","","","","","","","",""
"","image-keyboard-response","130","53945","0.0-130.0","3W8CV64QJ3L4LLBKWJUWOVPLSEO9H3","A2T8U68Y44GPVD","3P7RGTLO6EZ76AO3386R8ZK9IWWKAW","","83","img/flower4.png","74","83","1","0","3","1","1,0.333,0.333,0.333,1,0.333,0.333,0.333,1","1,0.333,0.333,0.333,1,0.333,0.333,0.333,1","1",""
"","html-keyboard-response","131","54247","0.0-131.0","3W8CV64QJ3L4LLBKWJUWOVPLSEO9H3","A2T8U68Y44GPVD","3P7RGTLO6EZ76AO3386R8ZK9IWWKAW","","null","<img src=""img/flower4.png"" style=""width:200px;border:14px solid red;"">","null","","","","","","","","",""
"","image-keyboard-response","132","54354","0.0-132.0","3W8CV64QJ3L4LLBKWJUWOVPLSEO9H3","A2T8U68Y44GPVD","3P7RGTLO6EZ76AO3386R8ZK9IWWKAW","","106","img/flower5.png","75","107","2","0","1","1","1,0.333,0.333,0.333,1,0.333,0.333,0.333,1","1,0.333,0.333,0.333,1,0.333,0.333,0.333,1","1",""
"","html-keyboard-response","133","54655","0.0-133.0","3W8CV64QJ3L4LLBKWJUWOVPLSEO9H3","A2T8U68Y44GPVD","3P7RGTLO6EZ76AO3386R8ZK9IWWKAW","","null","<img src=""img/flower5.png"" style=""width:200px;border:14px solid red;"">","null","","","","","","","","",""
"","image-keyboard-response","134","54793","0.0-134.0","3W8CV64QJ3L4LLBKWJUWOVPLSEO9H3","A2T8U68Y44GPVD","3P7RGTLO6EZ76AO3386R8ZK9IWWKAW","","137","img/flower3.png","74","138","1","0","2","1","1,0.333,0.333,0.333,1,0.333,0.333,0.333,1","1,0.333,0.333,0.333,1,0.333,0.333,0.333,1","1",""
"","html-keyboard-response","135","55147","0.0-135.0","3W8CV64QJ3L4LLBKWJUWOVPLSEO9H3","A2T8U68Y44GPVD","3P7RGTLO6EZ76AO3386R8ZK9IWWKAW","","null","<img src=""img/flower3.png"" style=""width:200px;border:14px solid red;"">","null","","","","","","","","",""
"","image-keyboard-response","136","55210","0.0-136.0","3W8CV64QJ3L4LLBKWJUWOVPLSEO9H3","A2T8U68Y44GPVD","3P7RGTLO6EZ76AO3386R8ZK9IWWKAW","","61","img/flower4.png","74","62","1","0","3","1","1,0.333,0.333,0.333,1,0.333,0.333,0.333,1","1,0.333,0.333,0.333,1,0.333,0.333,0.333,1","1",""
"","html-keyboard-response","137","55511","0.0-137.0","3W8CV64QJ3L4LLBKWJUWOVPLSEO9H3","A2T8U68Y44GPVD","3P7RGTLO6EZ76AO3386R8ZK9IWWKAW","","null","<img src=""img/flower4.png"" style=""width:200px;border:14px solid red;"">","null","","","","","","","","",""
"","image-keyboard-response","138","55553","0.0-138.0","3W8CV64QJ3L4LLBKWJUWOVPLSEO9H3","A2T8U68Y44GPVD","3P7RGTLO6EZ76AO3386R8ZK9IWWKAW","","41","img/flower3.png","74","42","1","1","2","1","1,0.333,0.333,0.333,1,0.333,0.333,0.333,1","1,0.333,0.333,0.333,1,0.333,0.333,0.333,1","1",""
"","html-keyboard-response","139","55854","0.0-139.0","3W8CV64QJ3L4LLBKWJUWOVPLSEO9H3","A2T8U68Y44GPVD","3P7RGTLO6EZ76AO3386R8ZK9IWWKAW","","null","<img src=""img/flower3.png"" style=""width:200px; border:14px solid green;"">","null","","","","","","","","",""
"","image-keyboard-response","140","55925","0.0-140.0","3W8CV64QJ3L4LLBKWJUWOVPLSEO9H3","A2T8U68Y44GPVD","3P7RGTLO6EZ76AO3386R8ZK9IWWKAW","","70","img/flower5.png","76","71","3","1","1","1","1,0.333,0.333,0.333,1,0.333,0.333,0.333,1","1,0.333,0.333,0.333,1,0.333,0.333,0.333,1","1",""
"","html-keyboard-response","141","56226","0.0-141.0","3W8CV64QJ3L4LLBKWJUWOVPLSEO9H3","A2T8U68Y44GPVD","3P7RGTLO6EZ76AO3386R8ZK9IWWKAW","","null","<img src=""img/flower5.png"" style=""width:200px; border:14px solid green;"">","null","","","","","","","","",""
"","image-keyboard-response","142","56279","0.0-142.0","3W8CV64QJ3L4LLBKWJUWOVPLSEO9H3","A2T8U68Y44GPVD","3P7RGTLO6EZ76AO3386R8ZK9IWWKAW","","52","img/flower4.png","75","53","2","0","3","1","1,0.333,0.333,0.333,1,0.333,0.333,0.333,1","1,0.333,0.333,0.333,1,0.333,0.333,0.333,1","1",""
"","html-keyboard-response","143","56579","0.0-143.0","3W8CV64QJ3L4LLBKWJUWOVPLSEO9H3","A2T8U68Y44GPVD","3P7RGTLO6EZ76AO3386R8ZK9IWWKAW","","null","<img src=""img/flower4.png"" style=""width:200px;border:14px solid red;"">","null","","","","","","","","",""
"","image-keyboard-response","144","56617","0.0-144.0","3W8CV64QJ3L4LLBKWJUWOVPLSEO9H3","A2T8U68Y44GPVD","3P7RGTLO6EZ76AO3386R8ZK9IWWKAW","","37","img/flower5.png","75","38","2","0","1","1","1,0.333,0.333,0.333,1,0.333,0.333,0.333,1","1,0.333,0.333,0.333,1,0.333,0.333,0.333,1","1",""
"","html-keyboard-response","145","56919","0.0-145.0","3W8CV64QJ3L4LLBKWJUWOVPLSEO9H3","A2T8U68Y44GPVD","3P7RGTLO6EZ76AO3386R8ZK9IWWKAW","","null","<img src=""img/flower5.png"" style=""width:200px;border:14px solid red;"">","null","","","","","","","","",""
"","image-keyboard-response","146","56933","0.0-146.0","3W8CV64QJ3L4LLBKWJUWOVPLSEO9H3","A2T8U68Y44GPVD","3P7RGTLO6EZ76AO3386R8ZK9IWWKAW","","13","img/flower4.png","75","14","2","1","3","1","1,0.333,0.333,0.333,1,0.333,0.333,0.333,1","1,0.333,0.333,0.333,1,0.333,0.333,0.333,1","1",""
"","html-keyboard-response","147","57235","0.0-147.0","3W8CV64QJ3L4LLBKWJUWOVPLSEO9H3","A2T8U68Y44GPVD","3P7RGTLO6EZ76AO3386R8ZK9IWWKAW","","null","<img src=""img/flower4.png"" style=""width:200px; border:14px solid green;"">","null","","","","","","","","",""
"","image-keyboard-response","148","57264","0.0-148.0","3W8CV64QJ3L4LLBKWJUWOVPLSEO9H3","A2T8U68Y44GPVD","3P7RGTLO6EZ76AO3386R8ZK9IWWKAW","","29","img/flower5.png","74","29","1","1","1","1","1,0.333,0.333,0.333,1,0.333,0.333,0.333,1","1,0.333,0.333,0.333,1,0.333,0.333,0.333,1","1",""
"","html-keyboard-response","149","57565","0.0-149.0","3W8CV64QJ3L4LLBKWJUWOVPLSEO9H3","A2T8U68Y44GPVD","3P7RGTLO6EZ76AO3386R8ZK9IWWKAW","","null","<img src=""img/flower5.png"" style=""width:200px; border:14px solid green;"">","null","","","","","","","","",""
"","image-keyboard-response","150","57705","0.0-150.0","3W8CV64QJ3L4LLBKWJUWOVPLSEO9H3","A2T8U68Y44GPVD","3P7RGTLO6EZ76AO3386R8ZK9IWWKAW","","139","img/flower3.png","74","140","1","1","2","1","1,0.333,0.333,0.333,1,0.333,0.333,0.333,1","1,0.333,0.333,0.333,1,0.333,0.333,0.333,1","1",""
"","html-keyboard-response","151","58006","0.0-151.0","3W8CV64QJ3L4LLBKWJUWOVPLSEO9H3","A2T8U68Y44GPVD","3P7RGTLO6EZ76AO3386R8ZK9IWWKAW","","null","<img src=""img/flower3.png"" style=""width:200px; border:14px solid green;"">","null","","","","","","","","",""
"","image-keyboard-response","152","58248","0.0-152.0","3W8CV64QJ3L4LLBKWJUWOVPLSEO9H3","A2T8U68Y44GPVD","3P7RGTLO6EZ76AO3386R8ZK9IWWKAW","","241","img/flower4.png","75","241","2","1","3","1","1,0.333,0.333,0.333,1,0.333,0.333,0.333,1","1,0.333,0.333,0.333,1,0.333,0.333,0.333,1","1",""
"","html-keyboard-response","153","58550","0.0-153.0","3W8CV64QJ3L4LLBKWJUWOVPLSEO9H3","A2T8U68Y44GPVD","3P7RGTLO6EZ76AO3386R8ZK9IWWKAW","","null","<img src=""img/flower4.png"" style=""width:200px; border:14px solid green;"">","null","","","","","","","","",""
"","image-keyboard-response","154","58561","0.0-154.0","3W8CV64QJ3L4LLBKWJUWOVPLSEO9H3","A2T8U68Y44GPVD","3P7RGTLO6EZ76AO3386R8ZK9IWWKAW","","9","img/flower3.png","76","11","3","0","2","1","1,0.333,0.333,0.333,1,0.333,0.333,0.333,1","1,0.333,0.333,0.333,1,0.333,0.333,0.333,1","1",""
"","html-keyboard-response","155","58962","0.0-155.0","3W8CV64QJ3L4LLBKWJUWOVPLSEO9H3","A2T8U68Y44GPVD","3P7RGTLO6EZ76AO3386R8ZK9IWWKAW","","null","<img src=""img/flower3.png"" style=""width:200px;border:14px solid red;"">","null","","","","","","","","",""
"","image-keyboard-response","156","58989","0.0-156.0","3W8CV64QJ3L4LLBKWJUWOVPLSEO9H3","A2T8U68Y44GPVD","3P7RGTLO6EZ76AO3386R8ZK9IWWKAW","","26","img/flower4.png","74","27","1","0","3","1","1,0.333,0.333,0.333,1,0.333,0.333,0.333,1","1,0.333,0.333,0.333,1,0.333,0.333,0.333,1","1",""
"","html-keyboard-response","157","59289","0.0-157.0","3W8CV64QJ3L4LLBKWJUWOVPLSEO9H3","A2T8U68Y44GPVD","3P7RGTLO6EZ76AO3386R8ZK9IWWKAW","","null","<img src=""img/flower4.png"" style=""width:200px;border:14px solid red;"">","null","","","","","","","","",""
"","image-keyboard-response","158","59337","0.0-158.0","3W8CV64QJ3L4LLBKWJUWOVPLSEO9H3","A2T8U68Y44GPVD","3P7RGTLO6EZ76AO3386R8ZK9IWWKAW","","47","img/flower4.png","75","48","2","0","3","1","1,0.333,0.333,0.333,1,0.333,0.333,0.333,1","1,0.333,0.333,0.333,1,0.333,0.333,0.333,1","1",""
"","html-keyboard-response","159","59638","0.0-159.0","3W8CV64QJ3L4LLBKWJUWOVPLSEO9H3","A2T8U68Y44GPVD","3P7RGTLO6EZ76AO3386R8ZK9IWWKAW","","null","<img src=""img/flower4.png"" style=""width:200px;border:14px solid red;"">","null","","","","","","","","",""
"","image-keyboard-response","160","59689","0.0-160.0","3W8CV64QJ3L4LLBKWJUWOVPLSEO9H3","A2T8U68Y44GPVD","3P7RGTLO6EZ76AO3386R8ZK9IWWKAW","","50","img/flower4.png","75","51","2","1","3","1","1,0.333,0.333,0.333,1,0.333,0.333,0.333,1","1,0.333,0.333,0.333,1,0.333,0.333,0.333,1","1",""
"","html-keyboard-response","161","60001","0.0-161.0","3W8CV64QJ3L4LLBKWJUWOVPLSEO9H3","A2T8U68Y44GPVD","3P7RGTLO6EZ76AO3386R8ZK9IWWKAW","","null","<img src=""img/flower4.png"" style=""width:200px; border:14px solid green;"">","null","","","","","","","","",""
"","image-keyboard-response","162","60144","0.0-162.0","3W8CV64QJ3L4LLBKWJUWOVPLSEO9H3","A2T8U68Y44GPVD","3P7RGTLO6EZ76AO3386R8ZK9IWWKAW","","142","img/flower5.png","76","143","3","0","1","1","1,0.333,0.333,0.333,1,0.333,0.333,0.333,1","1,0.333,0.333,0.333,1,0.333,0.333,0.333,1","1",""
"","html-keyboard-response","163","60445","0.0-163.0","3W8CV64QJ3L4LLBKWJUWOVPLSEO9H3","A2T8U68Y44GPVD","3P7RGTLO6EZ76AO3386R8ZK9IWWKAW","","null","<img src=""img/flower5.png"" style=""width:200px;border:14px solid red;"">","null","","","","","","","","",""
"","image-keyboard-response","164","60694","0.0-164.0","3W8CV64QJ3L4LLBKWJUWOVPLSEO9H3","A2T8U68Y44GPVD","3P7RGTLO6EZ76AO3386R8ZK9IWWKAW","","248","img/flower3.png","74","249","1","0","2","1","1,0.333,0.333,0.333,1,0.333,0.333,0.333,1","1,0.333,0.333,0.333,1,0.333,0.333,0.333,1","1",""
"","html-keyboard-response","165","60996","0.0-165.0","3W8CV64QJ3L4LLBKWJUWOVPLSEO9H3","A2T8U68Y44GPVD","3P7RGTLO6EZ76AO3386R8ZK9IWWKAW","","null","<img src=""img/flower3.png"" style=""width:200px;border:14px solid red;"">","null","","","","","","","","",""
"","image-keyboard-response","166","61001","0.0-166.0","3W8CV64QJ3L4LLBKWJUWOVPLSEO9H3","A2T8U68Y44GPVD","3P7RGTLO6EZ76AO3386R8ZK9IWWKAW","","4","img/flower5.png","76","5","3","1","1","1","1,0.333,0.333,0.333,1,0.333,0.333,0.333,1","1,0.333,0.333,0.333,1,0.333,0.333,0.333,1","1",""
"","html-keyboard-response","167","61302","0.0-167.0","3W8CV64QJ3L4LLBKWJUWOVPLSEO9H3","A2T8U68Y44GPVD","3P7RGTLO6EZ76AO3386R8ZK9IWWKAW","","null","<img src=""img/flower5.png"" style=""width:200px; border:14px solid green;"">","null","","","","","","","","",""
"","image-keyboard-response","168","61313","0.0-168.0","3W8CV64QJ3L4LLBKWJUWOVPLSEO9H3","A2T8U68Y44GPVD","3P7RGTLO6EZ76AO3386R8ZK9IWWKAW","","11","img/flower3.png","76","11","3","0","2","1","1,0.333,0.333,0.333,1,0.333,0.333,0.333,1","1,0.333,0.333,0.333,1,0.333,0.333,0.333,1","1",""
"","html-keyboard-response","169","61614","0.0-169.0","3W8CV64QJ3L4LLBKWJUWOVPLSEO9H3","A2T8U68Y44GPVD","3P7RGTLO6EZ76AO3386R8ZK9IWWKAW","","null","<img src=""img/flower3.png"" style=""width:200px;border:14px solid red;"">","null","","","","","","","","",""
"","image-keyboard-response","170","61736","0.0-170.0","3W8CV64QJ3L4LLBKWJUWOVPLSEO9H3","A2T8U68Y44GPVD","3P7RGTLO6EZ76AO3386R8ZK9IWWKAW","","122","img/flower4.png","75","122","2","0","3","1","1,0.333,0.333,0.333,1,0.333,0.333,0.333,1","1,0.333,0.333,0.333,1,0.333,0.333,0.333,1","1",""
"","html-keyboard-response","171","62038","0.0-171.0","3W8CV64QJ3L4LLBKWJUWOVPLSEO9H3","A2T8U68Y44GPVD","3P7RGTLO6EZ76AO3386R8ZK9IWWKAW","","null","<img src=""img/flower4.png"" style=""width:200px;border:14px solid red;"">","null","","","","","","","","",""
"","image-keyboard-response","172","62099","0.0-172.0","3W8CV64QJ3L4LLBKWJUWOVPLSEO9H3","A2T8U68Y44GPVD","3P7RGTLO6EZ76AO3386R8ZK9IWWKAW","","60","img/flower5.png","75","61","2","0","1","1","1,0.333,0.333,0.333,1,0.333,0.333,0.333,1","1,0.333,0.333,0.333,1,0.333,0.333,0.333,1","1",""
"","html-keyboard-response","173","62466","0.0-173.0","3W8CV64QJ3L4LLBKWJUWOVPLSEO9H3","A2T8U68Y44GPVD","3P7RGTLO6EZ76AO3386R8ZK9IWWKAW","","null","<img src=""img/flower5.png"" style=""width:200px;border:14px solid red;"">","null","","","","","","","","",""
"","image-keyboard-response","174","62561","0.0-174.0","3W8CV64QJ3L4LLBKWJUWOVPLSEO9H3","A2T8U68Y44GPVD","3P7RGTLO6EZ76AO3386R8ZK9IWWKAW","","95","img/flower3.png","75","95","2","1","2","1","1,0.333,0.333,0.333,1,0.333,0.333,0.333,1","1,0.333,0.333,0.333,1,0.333,0.333,0.333,1","1",""
"","html-keyboard-response","175","62863","0.0-175.0","3W8CV64QJ3L4LLBKWJUWOVPLSEO9H3","A2T8U68Y44GPVD","3P7RGTLO6EZ76AO3386R8ZK9IWWKAW","","null","<img src=""img/flower3.png"" style=""width:200px; border:14px solid green;"">","null","","","","","","","","",""
"","image-keyboard-response","176","62888","0.0-176.0","3W8CV64QJ3L4LLBKWJUWOVPLSEO9H3","A2T8U68Y44GPVD","3P7RGTLO6EZ76AO3386R8ZK9IWWKAW","","24","img/flower4.png","75","25","2","1","3","1","1,0.333,0.333,0.333,1,0.333,0.333,0.333,1","1,0.333,0.333,0.333,1,0.333,0.333,0.333,1","1",""
"","html-keyboard-response","177","63190","0.0-177.0","3W8CV64QJ3L4LLBKWJUWOVPLSEO9H3","A2T8U68Y44GPVD","3P7RGTLO6EZ76AO3386R8ZK9IWWKAW","","null","<img src=""img/flower4.png"" style=""width:200px; border:14px solid green;"">","null","","","","","","","","",""
"","image-keyboard-response","178","63338","0.0-178.0","3W8CV64QJ3L4LLBKWJUWOVPLSEO9H3","A2T8U68Y44GPVD","3P7RGTLO6EZ76AO3386R8ZK9IWWKAW","","148","img/flower5.png","75","148","2","1","1","1","1,0.333,0.333,0.333,1,0.333,0.333,0.333,1","1,0.333,0.333,0.333,1,0.333,0.333,0.333,1","1",""
"","html-keyboard-response","179","63640","0.0-179.0","3W8CV64QJ3L4LLBKWJUWOVPLSEO9H3","A2T8U68Y44GPVD","3P7RGTLO6EZ76AO3386R8ZK9IWWKAW","","null","<img src=""img/flower5.png"" style=""width:200px; border:14px solid green;"">","null","","","","","","","","",""
"","image-keyboard-response","180","63865","0.0-180.0","3W8CV64QJ3L4LLBKWJUWOVPLSEO9H3","A2T8U68Y44GPVD","3P7RGTLO6EZ76AO3386R8ZK9IWWKAW","","225","img/flower5.png","74","225","1","1","1","1","1,0.333,0.333,0.333,1,0.333,0.333,0.333,1","1,0.333,0.333,0.333,1,0.333,0.333,0.333,1","1",""
"","html-keyboard-response","181","64167","0.0-181.0","3W8CV64QJ3L4LLBKWJUWOVPLSEO9H3","A2T8U68Y44GPVD","3P7RGTLO6EZ76AO3386R8ZK9IWWKAW","","null","<img src=""img/flower5.png"" style=""width:200px; border:14px solid green;"">","null","","","","","","","","",""
"","html-keyboard-response","182","65714","0.0-182.0","3W8CV64QJ3L4LLBKWJUWOVPLSEO9H3","A2T8U68Y44GPVD","3P7RGTLO6EZ76AO3386R8ZK9IWWKAW","","","","","","","","","","","","",""
"","image-keyboard-response","183","66593","0.0-183.0","3W8CV64QJ3L4LLBKWJUWOVPLSEO9H3","A2T8U68Y44GPVD","3P7RGTLO6EZ76AO3386R8ZK9IWWKAW","","877","img/flower1.png","75","879","2","1","1","2","1,0,0,1,1,0,1,0,1","0,1,0,0,1,1,1,1,0","3",""
"","html-keyboard-response","184","66974","0.0-184.0","3W8CV64QJ3L4LLBKWJUWOVPLSEO9H3","A2T8U68Y44GPVD","3P7RGTLO6EZ76AO3386R8ZK9IWWKAW","","null","<img src=""img/flower1.png"" style=""width:200px; border:14px solid green;"">","null","","","","","","","","",""
"","image-keyboard-response","185","66994","0.0-185.0","3W8CV64QJ3L4LLBKWJUWOVPLSEO9H3","A2T8U68Y44GPVD","3P7RGTLO6EZ76AO3386R8ZK9IWWKAW","","18","img/flower1.png","74","20","1","0","1","2","1,0,0,1,1,0,1,0,1","0,1,0,0,1,1,1,1,0","3",""
"","html-keyboard-response","186","67295","0.0-186.0","3W8CV64QJ3L4LLBKWJUWOVPLSEO9H3","A2T8U68Y44GPVD","3P7RGTLO6EZ76AO3386R8ZK9IWWKAW","","null","<img src=""img/flower1.png"" style=""width:200px;border:14px solid red;"">","null","","","","","","","","",""
"","image-keyboard-response","187","67377","0.0-187.0","3W8CV64QJ3L4LLBKWJUWOVPLSEO9H3","A2T8U68Y44GPVD","3P7RGTLO6EZ76AO3386R8ZK9IWWKAW","","81","img/flower1.png","76","83","3","0","1","2","1,0,0,1,1,0,1,0,1","0,1,0,0,1,1,1,1,0","3",""
"","html-keyboard-response","188","67678","0.0-188.0","3W8CV64QJ3L4LLBKWJUWOVPLSEO9H3","A2T8U68Y44GPVD","3P7RGTLO6EZ76AO3386R8ZK9IWWKAW","","null","<img src=""img/flower1.png"" style=""width:200px;border:14px solid red;"">","null","","","","","","","","",""
"","image-keyboard-response","189","67937","0.0-189.0","3W8CV64QJ3L4LLBKWJUWOVPLSEO9H3","A2T8U68Y44GPVD","3P7RGTLO6EZ76AO3386R8ZK9IWWKAW","","257","img/flower2.png","76","259","3","0","3","2","1,0,0,1,1,0,1,0,1","0,1,0,0,1,1,1,1,0","3",""
"","html-keyboard-response","190","68239","0.0-190.0","3W8CV64QJ3L4LLBKWJUWOVPLSEO9H3","A2T8U68Y44GPVD","3P7RGTLO6EZ76AO3386R8ZK9IWWKAW","","null","<img src=""img/flower2.png"" style=""width:200px;border:14px solid red;"">","null","","","","","","","","",""
"","image-keyboard-response","191","68264","0.0-191.0","3W8CV64QJ3L4LLBKWJUWOVPLSEO9H3","A2T8U68Y44GPVD","3P7RGTLO6EZ76AO3386R8ZK9IWWKAW","","25","img/flower1.png","75","25","2","1","1","2","1,0,0,1,1,0,1,0,1","0,1,0,0,1,1,1,1,0","3",""
"","html-keyboard-response","192","68635","0.0-192.0","3W8CV64QJ3L4LLBKWJUWOVPLSEO9H3","A2T8U68Y44GPVD","3P7RGTLO6EZ76AO3386R8ZK9IWWKAW","","null","<img src=""img/flower1.png"" style=""width:200px; border:14px solid green;"">","null","","","","","","","","",""
"","image-keyboard-response","193","68642","0.0-193.0","3W8CV64QJ3L4LLBKWJUWOVPLSEO9H3","A2T8U68Y44GPVD","3P7RGTLO6EZ76AO3386R8ZK9IWWKAW","","7","img/flower1.png","74","7","1","0","1","2","1,0,0,1,1,0,1,0,1","0,1,0,0,1,1,1,1,0","3",""
"","html-keyboard-response","194","68942","0.0-194.0","3W8CV64QJ3L4LLBKWJUWOVPLSEO9H3","A2T8U68Y44GPVD","3P7RGTLO6EZ76AO3386R8ZK9IWWKAW","","null","<img src=""img/flower1.png"" style=""width:200px;border:14px solid red;"">","null","","","","","","","","",""
"","image-keyboard-response","195","69208","0.0-195.0","3W8CV64QJ3L4LLBKWJUWOVPLSEO9H3","A2T8U68Y44GPVD","3P7RGTLO6EZ76AO3386R8ZK9IWWKAW","","266","img/flower6.png","76","266","3","1","2","2","1,0,0,1,1,0,1,0,1","0,1,0,0,1,1,1,1,0","3",""
"","html-keyboard-response","196","69509","0.0-196.0","3W8CV64QJ3L4LLBKWJUWOVPLSEO9H3","A2T8U68Y44GPVD","3P7RGTLO6EZ76AO3386R8ZK9IWWKAW","","null","<img src=""img/flower6.png"" style=""width:200px; border:14px solid green;"">","null","","","","","","","","",""
"","image-keyboard-response","197","69576","0.0-197.0","3W8CV64QJ3L4LLBKWJUWOVPLSEO9H3","A2T8U68Y44GPVD","3P7RGTLO6EZ76AO3386R8ZK9IWWKAW","","66","img/flower1.png","76","67","3","0","1","2","1,0,0,1,1,0,1,0,1","0,1,0,0,1,1,1,1,0","3",""
"","html-keyboard-response","198","69878","0.0-198.0","3W8CV64QJ3L4LLBKWJUWOVPLSEO9H3","A2T8U68Y44GPVD","3P7RGTLO6EZ76AO3386R8ZK9IWWKAW","","null","<img src=""img/flower1.png"" style=""width:200px;border:14px solid red;"">","null","","","","","","","","",""
"","image-keyboard-response","199","70025","0.0-199.0","3W8CV64QJ3L4LLBKWJUWOVPLSEO9H3","A2T8U68Y44GPVD","3P7RGTLO6EZ76AO3386R8ZK9IWWKAW","","145","img/flower6.png","76","146","3","1","2","2","1,0,0,1,1,0,1,0,1","0,1,0,0,1,1,1,1,0","3",""
"","html-keyboard-response","200","70325","0.0-200.0","3W8CV64QJ3L4LLBKWJUWOVPLSEO9H3","A2T8U68Y44GPVD","3P7RGTLO6EZ76AO3386R8ZK9IWWKAW","","null","<img src=""img/flower6.png"" style=""width:200px; border:14px solid green;"">","null","","","","","","","","",""
"","image-keyboard-response","201","70638","0.0-201.0","3W8CV64QJ3L4LLBKWJUWOVPLSEO9H3","A2T8U68Y44GPVD","3P7RGTLO6EZ76AO3386R8ZK9IWWKAW","","312","img/flower1.png","74","314","1","0","1","2","1,0,0,1,1,0,1,0,1","0,1,0,0,1,1,1,1,0","3",""
"","html-keyboard-response","202","70939","0.0-202.0","3W8CV64QJ3L4LLBKWJUWOVPLSEO9H3","A2T8U68Y44GPVD","3P7RGTLO6EZ76AO3386R8ZK9IWWKAW","","null","<img src=""img/flower1.png"" style=""width:200px;border:14px solid red;"">","null","","","","","","","","",""
"","image-keyboard-response","203","70986","0.0-203.0","3W8CV64QJ3L4LLBKWJUWOVPLSEO9H3","A2T8U68Y44GPVD","3P7RGTLO6EZ76AO3386R8ZK9IWWKAW","","46","img/flower1.png","74","47","1","0","1","2","1,0,0,1,1,0,1,0,1","0,1,0,0,1,1,1,1,0","3",""
"","html-keyboard-response","204","71286","0.0-204.0","3W8CV64QJ3L4LLBKWJUWOVPLSEO9H3","A2T8U68Y44GPVD","3P7RGTLO6EZ76AO3386R8ZK9IWWKAW","","null","<img src=""img/flower1.png"" style=""width:200px;border:14px solid red;"">","null","","","","","","","","",""
"","image-keyboard-response","205","71511","0.0-205.0","3W8CV64QJ3L4LLBKWJUWOVPLSEO9H3","A2T8U68Y44GPVD","3P7RGTLO6EZ76AO3386R8ZK9IWWKAW","","223","img/flower6.png","75","225","2","1","2","2","1,0,0,1,1,0,1,0,1","0,1,0,0,1,1,1,1,0","3",""
"","html-keyboard-response","206","71815","0.0-206.0","3W8CV64QJ3L4LLBKWJUWOVPLSEO9H3","A2T8U68Y44GPVD","3P7RGTLO6EZ76AO3386R8ZK9IWWKAW","","null","<img src=""img/flower6.png"" style=""width:200px; border:14px solid green;"">","null","","","","","","","","",""
"","image-keyboard-response","207","71889","0.0-207.0","3W8CV64QJ3L4LLBKWJUWOVPLSEO9H3","A2T8U68Y44GPVD","3P7RGTLO6EZ76AO3386R8ZK9IWWKAW","","74","img/flower2.png","74","74","1","1","3","2","1,0,0,1,1,0,1,0,1","0,1,0,0,1,1,1,1,0","3",""
"","html-keyboard-response","208","72192","0.0-208.0","3W8CV64QJ3L4LLBKWJUWOVPLSEO9H3","A2T8U68Y44GPVD","3P7RGTLO6EZ76AO3386R8ZK9IWWKAW","","null","<img src=""img/flower2.png"" style=""width:200px; border:14px solid green;"">","null","","","","","","","","",""
"","image-keyboard-response","209","72337","0.0-209.0","3W8CV64QJ3L4LLBKWJUWOVPLSEO9H3","A2T8U68Y44GPVD","3P7RGTLO6EZ76AO3386R8ZK9IWWKAW","","144","img/flower6.png","75","145","2","1","2","2","1,0,0,1,1,0,1,0,1","0,1,0,0,1,1,1,1,0","3",""
"","html-keyboard-response","210","72639","0.0-210.0","3W8CV64QJ3L4LLBKWJUWOVPLSEO9H3","A2T8U68Y44GPVD","3P7RGTLO6EZ76AO3386R8ZK9IWWKAW","","null","<img src=""img/flower6.png"" style=""width:200px; border:14px solid green;"">","null","","","","","","","","",""
"","image-keyboard-response","211","72819","0.0-211.0","3W8CV64QJ3L4LLBKWJUWOVPLSEO9H3","A2T8U68Y44GPVD","3P7RGTLO6EZ76AO3386R8ZK9IWWKAW","","180","img/flower6.png","74","189","1","0","2","2","1,0,0,1,1,0,1,0,1","0,1,0,0,1,1,1,1,0","3",""
"","html-keyboard-response","212","73244","0.0-212.0","3W8CV64QJ3L4LLBKWJUWOVPLSEO9H3","A2T8U68Y44GPVD","3P7RGTLO6EZ76AO3386R8ZK9IWWKAW","","null","<img src=""img/flower6.png"" style=""width:200px;border:14px solid red;"">","null","","","","","","","","",""
"","image-keyboard-response","213","73360","0.0-213.0","3W8CV64QJ3L4LLBKWJUWOVPLSEO9H3","A2T8U68Y44GPVD","3P7RGTLO6EZ76AO3386R8ZK9IWWKAW","","115","img/flower6.png","76","116","3","1","2","2","1,0,0,1,1,0,1,0,1","0,1,0,0,1,1,1,1,0","3",""
"","html-keyboard-response","214","73662","0.0-214.0","3W8CV64QJ3L4LLBKWJUWOVPLSEO9H3","A2T8U68Y44GPVD","3P7RGTLO6EZ76AO3386R8ZK9IWWKAW","","null","<img src=""img/flower6.png"" style=""width:200px; border:14px solid green;"">","null","","","","","","","","",""
"","image-keyboard-response","215","73889","0.0-215.0","3W8CV64QJ3L4LLBKWJUWOVPLSEO9H3","A2T8U68Y44GPVD","3P7RGTLO6EZ76AO3386R8ZK9IWWKAW","","227","img/flower2.png","76","227","3","0","3","2","1,0,0,1,1,0,1,0,1","0,1,0,0,1,1,1,1,0","3",""
"","html-keyboard-response","216","74190","0.0-216.0","3W8CV64QJ3L4LLBKWJUWOVPLSEO9H3","A2T8U68Y44GPVD","3P7RGTLO6EZ76AO3386R8ZK9IWWKAW","","null","<img src=""img/flower2.png"" style=""width:200px;border:14px solid red;"">","null","","","","","","","","",""
"","image-keyboard-response","217","74369","0.0-217.0","3W8CV64QJ3L4LLBKWJUWOVPLSEO9H3","A2T8U68Y44GPVD","3P7RGTLO6EZ76AO3386R8ZK9IWWKAW","","177","img/flower6.png","76","178","3","1","2","2","1,0,0,1,1,0,1,0,1","0,1,0,0,1,1,1,1,0","3",""
"","html-keyboard-response","218","74671","0.0-218.0","3W8CV64QJ3L4LLBKWJUWOVPLSEO9H3","A2T8U68Y44GPVD","3P7RGTLO6EZ76AO3386R8ZK9IWWKAW","","null","<img src=""img/flower6.png"" style=""width:200px; border:14px solid green;"">","null","","","","","","","","",""
"","image-keyboard-response","219","74793","0.0-219.0","3W8CV64QJ3L4LLBKWJUWOVPLSEO9H3","A2T8U68Y44GPVD","3P7RGTLO6EZ76AO3386R8ZK9IWWKAW","","121","img/flower2.png","76","122","3","0","3","2","1,0,0,1,1,0,1,0,1","0,1,0,0,1,1,1,1,0","3",""
"","html-keyboard-response","220","75104","0.0-220.0","3W8CV64QJ3L4LLBKWJUWOVPLSEO9H3","A2T8U68Y44GPVD","3P7RGTLO6EZ76AO3386R8ZK9IWWKAW","","null","<img src=""img/flower2.png"" style=""width:200px;border:14px solid red;"">","null","","","","","","","","",""
"","image-keyboard-response","221","75265","0.0-221.0","3W8CV64QJ3L4LLBKWJUWOVPLSEO9H3","A2T8U68Y44GPVD","3P7RGTLO6EZ76AO3386R8ZK9IWWKAW","","159","img/flower1.png","76","160","3","0","1","2","1,0,0,1,1,0,1,0,1","0,1,0,0,1,1,1,1,0","3",""
"","html-keyboard-response","222","75566","0.0-222.0","3W8CV64QJ3L4LLBKWJUWOVPLSEO9H3","A2T8U68Y44GPVD","3P7RGTLO6EZ76AO3386R8ZK9IWWKAW","","null","<img src=""img/flower1.png"" style=""width:200px;border:14px solid red;"">","null","","","","","","","","",""
"","image-keyboard-response","223","75673","0.0-223.0","3W8CV64QJ3L4LLBKWJUWOVPLSEO9H3","A2T8U68Y44GPVD","3P7RGTLO6EZ76AO3386R8ZK9IWWKAW","","106","img/flower1.png","76","106","3","0","1","2","1,0,0,1,1,0,1,0,1","0,1,0,0,1,1,1,1,0","3",""
"","html-keyboard-response","224","75974","0.0-224.0","3W8CV64QJ3L4LLBKWJUWOVPLSEO9H3","A2T8U68Y44GPVD","3P7RGTLO6EZ76AO3386R8ZK9IWWKAW","","null","<img src=""img/flower1.png"" style=""width:200px;border:14px solid red;"">","null","","","","","","","","",""
"","image-keyboard-response","225","76001","0.0-225.0","3W8CV64QJ3L4LLBKWJUWOVPLSEO9H3","A2T8U68Y44GPVD","3P7RGTLO6EZ76AO3386R8ZK9IWWKAW","","26","img/flower2.png","76","27","3","0","3","2","1,0,0,1,1,0,1,0,1","0,1,0,0,1,1,1,1,0","3",""
"","html-keyboard-response","226","76303","0.0-226.0","3W8CV64QJ3L4LLBKWJUWOVPLSEO9H3","A2T8U68Y44GPVD","3P7RGTLO6EZ76AO3386R8ZK9IWWKAW","","null","<img src=""img/flower2.png"" style=""width:200px;border:14px solid red;"">","null","","","","","","","","",""
"","image-keyboard-response","227","76652","0.0-227.0","3W8CV64QJ3L4LLBKWJUWOVPLSEO9H3","A2T8U68Y44GPVD","3P7RGTLO6EZ76AO3386R8ZK9IWWKAW","","349","img/flower2.png","76","349","3","0","3","2","1,0,0,1,1,0,1,0,1","0,1,0,0,1,1,1,1,0","3",""
"","html-keyboard-response","228","76954","0.0-228.0","3W8CV64QJ3L4LLBKWJUWOVPLSEO9H3","A2T8U68Y44GPVD","3P7RGTLO6EZ76AO3386R8ZK9IWWKAW","","null","<img src=""img/flower2.png"" style=""width:200px;border:14px solid red;"">","null","","","","","","","","",""
"","image-keyboard-response","229","77146","0.0-229.0","3W8CV64QJ3L4LLBKWJUWOVPLSEO9H3","A2T8U68Y44GPVD","3P7RGTLO6EZ76AO3386R8ZK9IWWKAW","","191","img/flower2.png","74","192","1","1","3","2","1,0,0,1,1,0,1,0,1","0,1,0,0,1,1,1,1,0","3",""
"","html-keyboard-response","230","77446","0.0-230.0","3W8CV64QJ3L4LLBKWJUWOVPLSEO9H3","A2T8U68Y44GPVD","3P7RGTLO6EZ76AO3386R8ZK9IWWKAW","","null","<img src=""img/flower2.png"" style=""width:200px; border:14px solid green;"">","null","","","","","","","","",""
"","image-keyboard-response","231","77473","0.0-231.0","3W8CV64QJ3L4LLBKWJUWOVPLSEO9H3","A2T8U68Y44GPVD","3P7RGTLO6EZ76AO3386R8ZK9IWWKAW","","27","img/flower2.png","74","27","1","1","3","2","1,0,0,1,1,0,1,0,1","0,1,0,0,1,1,1,1,0","3",""
"","html-keyboard-response","232","77773","0.0-232.0","3W8CV64QJ3L4LLBKWJUWOVPLSEO9H3","A2T8U68Y44GPVD","3P7RGTLO6EZ76AO3386R8ZK9IWWKAW","","null","<img src=""img/flower2.png"" style=""width:200px; border:14px solid green;"">","null","","","","","","","","",""
"","image-keyboard-response","233","77809","0.0-233.0","3W8CV64QJ3L4LLBKWJUWOVPLSEO9H3","A2T8U68Y44GPVD","3P7RGTLO6EZ76AO3386R8ZK9IWWKAW","","35","img/flower1.png","75","36","2","1","1","2","1,0,0,1,1,0,1,0,1","0,1,0,0,1,1,1,1,0","3",""
"","html-keyboard-response","234","78111","0.0-234.0","3W8CV64QJ3L4LLBKWJUWOVPLSEO9H3","A2T8U68Y44GPVD","3P7RGTLO6EZ76AO3386R8ZK9IWWKAW","","null","<img src=""img/flower1.png"" style=""width:200px; border:14px solid green;"">","null","","","","","","","","",""
"","image-keyboard-response","235","78118","0.0-235.0","3W8CV64QJ3L4LLBKWJUWOVPLSEO9H3","A2T8U68Y44GPVD","3P7RGTLO6EZ76AO3386R8ZK9IWWKAW","","5","img/flower2.png","74","7","1","1","3","2","1,0,0,1,1,0,1,0,1","0,1,0,0,1,1,1,1,0","3",""
"","html-keyboard-response","236","78418","0.0-236.0","3W8CV64QJ3L4LLBKWJUWOVPLSEO9H3","A2T8U68Y44GPVD","3P7RGTLO6EZ76AO3386R8ZK9IWWKAW","","null","<img src=""img/flower2.png"" style=""width:200px; border:14px solid green;"">","null","","","","","","","","",""
"","image-keyboard-response","237","78446","0.0-237.0","3W8CV64QJ3L4LLBKWJUWOVPLSEO9H3","A2T8U68Y44GPVD","3P7RGTLO6EZ76AO3386R8ZK9IWWKAW","","28","img/flower6.png","75","28","2","1","2","2","1,0,0,1,1,0,1,0,1","0,1,0,0,1,1,1,1,0","3",""
"","html-keyboard-response","238","78747","0.0-238.0","3W8CV64QJ3L4LLBKWJUWOVPLSEO9H3","A2T8U68Y44GPVD","3P7RGTLO6EZ76AO3386R8ZK9IWWKAW","","null","<img src=""img/flower6.png"" style=""width:200px; border:14px solid green;"">","null","","","","","","","","",""
"","image-keyboard-response","239","79177","0.0-239.0","3W8CV64QJ3L4LLBKWJUWOVPLSEO9H3","A2T8U68Y44GPVD","3P7RGTLO6EZ76AO3386R8ZK9IWWKAW","","430","img/flower2.png","74","431","1","1","3","2","1,0,0,1,1,0,1,0,1","0,1,0,0,1,1,1,1,0","3",""
"","html-keyboard-response","240","79480","0.0-240.0","3W8CV64QJ3L4LLBKWJUWOVPLSEO9H3","A2T8U68Y44GPVD","3P7RGTLO6EZ76AO3386R8ZK9IWWKAW","","null","<img src=""img/flower2.png"" style=""width:200px; border:14px solid green;"">","null","","","","","","","","",""
"","image-keyboard-response","241","79649","0.0-241.0","3W8CV64QJ3L4LLBKWJUWOVPLSEO9H3","A2T8U68Y44GPVD","3P7RGTLO6EZ76AO3386R8ZK9IWWKAW","","169","img/flower6.png","74","169","1","0","2","2","1,0,0,1,1,0,1,0,1","0,1,0,0,1,1,1,1,0","3",""
"","html-keyboard-response","242","79951","0.0-242.0","3W8CV64QJ3L4LLBKWJUWOVPLSEO9H3","A2T8U68Y44GPVD","3P7RGTLO6EZ76AO3386R8ZK9IWWKAW","","null","<img src=""img/flower6.png"" style=""width:200px;border:14px solid red;"">","null","","","","","","","","",""
"","image-keyboard-response","243","80009","0.0-243.0","3W8CV64QJ3L4LLBKWJUWOVPLSEO9H3","A2T8U68Y44GPVD","3P7RGTLO6EZ76AO3386R8ZK9IWWKAW","","57","img/flower2.png","74","58","1","1","3","2","1,0,0,1,1,0,1,0,1","0,1,0,0,1,1,1,1,0","3",""
"","html-keyboard-response","244","80310","0.0-244.0","3W8CV64QJ3L4LLBKWJUWOVPLSEO9H3","A2T8U68Y44GPVD","3P7RGTLO6EZ76AO3386R8ZK9IWWKAW","","null","<img src=""img/flower2.png"" style=""width:200px; border:14px solid green;"">","null","","","","","","","","",""
"","image-keyboard-response","245","80313","0.0-245.0","3W8CV64QJ3L4LLBKWJUWOVPLSEO9H3","A2T8U68Y44GPVD","3P7RGTLO6EZ76AO3386R8ZK9IWWKAW","","2","img/flower2.png","76","3","3","0","3","2","1,0,0,1,1,0,1,0,1","0,1,0,0,1,1,1,1,0","3",""
"","html-keyboard-response","246","80615","0.0-246.0","3W8CV64QJ3L4LLBKWJUWOVPLSEO9H3","A2T8U68Y44GPVD","3P7RGTLO6EZ76AO3386R8ZK9IWWKAW","","null","<img src=""img/flower2.png"" style=""width:200px;border:14px solid red;"">","null","","","","","","","","",""
"","image-keyboard-response","247","80738","0.0-247.0","3W8CV64QJ3L4LLBKWJUWOVPLSEO9H3","A2T8U68Y44GPVD","3P7RGTLO6EZ76AO3386R8ZK9IWWKAW","","121","img/flower2.png","76","123","3","0","3","2","1,0,0,1,1,0,1,0,1","0,1,0,0,1,1,1,1,0","3",""
"","html-keyboard-response","248","81096","0.0-248.0","3W8CV64QJ3L4LLBKWJUWOVPLSEO9H3","A2T8U68Y44GPVD","3P7RGTLO6EZ76AO3386R8ZK9IWWKAW","","null","<img src=""img/flower2.png"" style=""width:200px;border:14px solid red;"">","null","","","","","","","","",""
"","image-keyboard-response","249","81105","0.0-249.0","3W8CV64QJ3L4LLBKWJUWOVPLSEO9H3","A2T8U68Y44GPVD","3P7RGTLO6EZ76AO3386R8ZK9IWWKAW","","7","img/flower6.png","76","8","3","1","2","2","1,0,0,1,1,0,1,0,1","0,1,0,0,1,1,1,1,0","3",""
"","html-keyboard-response","250","81407","0.0-250.0","3W8CV64QJ3L4LLBKWJUWOVPLSEO9H3","A2T8U68Y44GPVD","3P7RGTLO6EZ76AO3386R8ZK9IWWKAW","","null","<img src=""img/flower6.png"" style=""width:200px; border:14px solid green;"">","null","","","","","","","","",""
"","image-keyboard-response","251","81425","0.0-251.0","3W8CV64QJ3L4LLBKWJUWOVPLSEO9H3","A2T8U68Y44GPVD","3P7RGTLO6EZ76AO3386R8ZK9IWWKAW","","17","img/flower2.png","76","18","3","0","3","2","1,0,0,1,1,0,1,0,1","0,1,0,0,1,1,1,1,0","3",""
"","html-keyboard-response","252","81727","0.0-252.0","3W8CV64QJ3L4LLBKWJUWOVPLSEO9H3","A2T8U68Y44GPVD","3P7RGTLO6EZ76AO3386R8ZK9IWWKAW","","null","<img src=""img/flower2.png"" style=""width:200px;border:14px solid red;"">","null","","","","","","","","",""
"","image-keyboard-response","253","81897","0.0-253.0","3W8CV64QJ3L4LLBKWJUWOVPLSEO9H3","A2T8U68Y44GPVD","3P7RGTLO6EZ76AO3386R8ZK9IWWKAW","","169","img/flower2.png","76","170","3","0","3","2","1,0,0,1,1,0,1,0,1","0,1,0,0,1,1,1,1,0","3",""
"","html-keyboard-response","254","82198","0.0-254.0","3W8CV64QJ3L4LLBKWJUWOVPLSEO9H3","A2T8U68Y44GPVD","3P7RGTLO6EZ76AO3386R8ZK9IWWKAW","","null","<img src=""img/flower2.png"" style=""width:200px;border:14px solid red;"">","null","","","","","","","","",""
"","image-keyboard-response","255","82257","0.0-255.0","3W8CV64QJ3L4LLBKWJUWOVPLSEO9H3","A2T8U68Y44GPVD","3P7RGTLO6EZ76AO3386R8ZK9IWWKAW","","58","img/flower6.png","76","58","3","1","2","2","1,0,0,1,1,0,1,0,1","0,1,0,0,1,1,1,1,0","3",""
"","html-keyboard-response","256","82559","0.0-256.0","3W8CV64QJ3L4LLBKWJUWOVPLSEO9H3","A2T8U68Y44GPVD","3P7RGTLO6EZ76AO3386R8ZK9IWWKAW","","null","<img src=""img/flower6.png"" style=""width:200px; border:14px solid green;"">","null","","","","","","","","",""
"","image-keyboard-response","257","82571","0.0-257.0","3W8CV64QJ3L4LLBKWJUWOVPLSEO9H3","A2T8U68Y44GPVD","3P7RGTLO6EZ76AO3386R8ZK9IWWKAW","","11","img/flower1.png","76","12","3","0","1","2","1,0,0,1,1,0,1,0,1","0,1,0,0,1,1,1,1,0","3",""
"","html-keyboard-response","258","82877","0.0-258.0","3W8CV64QJ3L4LLBKWJUWOVPLSEO9H3","A2T8U68Y44GPVD","3P7RGTLO6EZ76AO3386R8ZK9IWWKAW","","null","<img src=""img/flower1.png"" style=""width:200px;border:14px solid red;"">","null","","","","","","","","",""
"","image-keyboard-response","259","83001","0.0-259.0","3W8CV64QJ3L4LLBKWJUWOVPLSEO9H3","A2T8U68Y44GPVD","3P7RGTLO6EZ76AO3386R8ZK9IWWKAW","","123","img/flower1.png","76","124","3","0","1","2","1,0,0,1,1,0,1,0,1","0,1,0,0,1,1,1,1,0","3",""
"","html-keyboard-response","260","83301","0.0-260.0","3W8CV64QJ3L4LLBKWJUWOVPLSEO9H3","A2T8U68Y44GPVD","3P7RGTLO6EZ76AO3386R8ZK9IWWKAW","","null","<img src=""img/flower1.png"" style=""width:200px;border:14px solid red;"">","null","","","","","","","","",""
"","image-keyboard-response","261","83360","0.0-261.0","3W8CV64QJ3L4LLBKWJUWOVPLSEO9H3","A2T8U68Y44GPVD","3P7RGTLO6EZ76AO3386R8ZK9IWWKAW","","58","img/flower6.png","75","59","2","1","2","2","1,0,0,1,1,0,1,0,1","0,1,0,0,1,1,1,1,0","3",""
"","html-keyboard-response","262","83661","0.0-262.0","3W8CV64QJ3L4LLBKWJUWOVPLSEO9H3","A2T8U68Y44GPVD","3P7RGTLO6EZ76AO3386R8ZK9IWWKAW","","null","<img src=""img/flower6.png"" style=""width:200px; border:14px solid green;"">","null","","","","","","","","",""
"","image-keyboard-response","263","83794","0.0-263.0","3W8CV64QJ3L4LLBKWJUWOVPLSEO9H3","A2T8U68Y44GPVD","3P7RGTLO6EZ76AO3386R8ZK9IWWKAW","","132","img/flower6.png","75","133","2","1","2","2","1,0,0,1,1,0,1,0,1","0,1,0,0,1,1,1,1,0","3",""
"","html-keyboard-response","264","84095","0.0-264.0","3W8CV64QJ3L4LLBKWJUWOVPLSEO9H3","A2T8U68Y44GPVD","3P7RGTLO6EZ76AO3386R8ZK9IWWKAW","","null","<img src=""img/flower6.png"" style=""width:200px; border:14px solid green;"">","null","","","","","","","","",""
"","image-keyboard-response","265","84145","0.0-265.0","3W8CV64QJ3L4LLBKWJUWOVPLSEO9H3","A2T8U68Y44GPVD","3P7RGTLO6EZ76AO3386R8ZK9IWWKAW","","49","img/flower6.png","75","50","2","1","2","2","1,0,0,1,1,0,1,0,1","0,1,0,0,1,1,1,1,0","3",""
"","html-keyboard-response","266","84446","0.0-266.0","3W8CV64QJ3L4LLBKWJUWOVPLSEO9H3","A2T8U68Y44GPVD","3P7RGTLO6EZ76AO3386R8ZK9IWWKAW","","null","<img src=""img/flower6.png"" style=""width:200px; border:14px solid green;"">","null","","","","","","","","",""
"","image-keyboard-response","267","84499","0.0-267.0","3W8CV64QJ3L4LLBKWJUWOVPLSEO9H3","A2T8U68Y44GPVD","3P7RGTLO6EZ76AO3386R8ZK9IWWKAW","","53","img/flower2.png","76","53","3","0","3","2","1,0,0,1,1,0,1,0,1","0,1,0,0,1,1,1,1,0","3",""
"","html-keyboard-response","268","84827","0.0-268.0","3W8CV64QJ3L4LLBKWJUWOVPLSEO9H3","A2T8U68Y44GPVD","3P7RGTLO6EZ76AO3386R8ZK9IWWKAW","","null","<img src=""img/flower2.png"" style=""width:200px;border:14px solid red;"">","null","","","","","","","","",""
"","image-keyboard-response","269","84857","0.0-269.0","3W8CV64QJ3L4LLBKWJUWOVPLSEO9H3","A2T8U68Y44GPVD","3P7RGTLO6EZ76AO3386R8ZK9IWWKAW","","29","img/flower6.png","76","31","3","1","2","2","1,0,0,1,1,0,1,0,1","0,1,0,0,1,1,1,1,0","3",""
"","html-keyboard-response","270","85160","0.0-270.0","3W8CV64QJ3L4LLBKWJUWOVPLSEO9H3","A2T8U68Y44GPVD","3P7RGTLO6EZ76AO3386R8ZK9IWWKAW","","null","<img src=""img/flower6.png"" style=""width:200px; border:14px solid green;"">","null","","","","","","","","",""
"","image-keyboard-response","271","85249","0.0-271.0","3W8CV64QJ3L4LLBKWJUWOVPLSEO9H3","A2T8U68Y44GPVD","3P7RGTLO6EZ76AO3386R8ZK9IWWKAW","","88","img/flower6.png","75","89","2","1","2","2","1,0,0,1,1,0,1,0,1","0,1,0,0,1,1,1,1,0","3",""
"","html-keyboard-response","272","85549","0.0-272.0","3W8CV64QJ3L4LLBKWJUWOVPLSEO9H3","A2T8U68Y44GPVD","3P7RGTLO6EZ76AO3386R8ZK9IWWKAW","","null","<img src=""img/flower6.png"" style=""width:200px; border:14px solid green;"">","null","","","","","","","","",""
"","image-keyboard-response","273","85593","0.0-273.0","3W8CV64QJ3L4LLBKWJUWOVPLSEO9H3","A2T8U68Y44GPVD","3P7RGTLO6EZ76AO3386R8ZK9IWWKAW","","43","img/flower2.png","74","44","1","1","3","2","1,0,0,1,1,0,1,0,1","0,1,0,0,1,1,1,1,0","3",""
"","html-keyboard-response","274","85894","0.0-274.0","3W8CV64QJ3L4LLBKWJUWOVPLSEO9H3","A2T8U68Y44GPVD","3P7RGTLO6EZ76AO3386R8ZK9IWWKAW","","null","<img src=""img/flower2.png"" style=""width:200px; border:14px solid green;"">","null","","","","","","","","",""
"","image-keyboard-response","275","85899","0.0-275.0","3W8CV64QJ3L4LLBKWJUWOVPLSEO9H3","A2T8U68Y44GPVD","3P7RGTLO6EZ76AO3386R8ZK9IWWKAW","","4","img/flower1.png","76","5","3","0","1","2","1,0,0,1,1,0,1,0,1","0,1,0,0,1,1,1,1,0","3",""
"","html-keyboard-response","276","86201","0.0-276.0","3W8CV64QJ3L4LLBKWJUWOVPLSEO9H3","A2T8U68Y44GPVD","3P7RGTLO6EZ76AO3386R8ZK9IWWKAW","","null","<img src=""img/flower1.png"" style=""width:200px;border:14px solid red;"">","null","","","","","","","","",""
"","image-keyboard-response","277","86225","0.0-277.0","3W8CV64QJ3L4LLBKWJUWOVPLSEO9H3","A2T8U68Y44GPVD","3P7RGTLO6EZ76AO3386R8ZK9IWWKAW","","24","img/flower6.png","75","24","2","1","2","2","1,0,0,1,1,0,1,0,1","0,1,0,0,1,1,1,1,0","3",""
"","html-keyboard-response","278","86527","0.0-278.0","3W8CV64QJ3L4LLBKWJUWOVPLSEO9H3","A2T8U68Y44GPVD","3P7RGTLO6EZ76AO3386R8ZK9IWWKAW","","null","<img src=""img/flower6.png"" style=""width:200px; border:14px solid green;"">","null","","","","","","","","",""
"","image-keyboard-response","279","86556","0.0-279.0","3W8CV64QJ3L4LLBKWJUWOVPLSEO9H3","A2T8U68Y44GPVD","3P7RGTLO6EZ76AO3386R8ZK9IWWKAW","","28","img/flower2.png","74","29","1","1","3","2","1,0,0,1,1,0,1,0,1","0,1,0,0,1,1,1,1,0","3",""
"","html-keyboard-response","280","86919","0.0-280.0","3W8CV64QJ3L4LLBKWJUWOVPLSEO9H3","A2T8U68Y44GPVD","3P7RGTLO6EZ76AO3386R8ZK9IWWKAW","","null","<img src=""img/flower2.png"" style=""width:200px; border:14px solid green;"">","null","","","","","","","","",""
"","image-keyboard-response","281","87145","0.0-281.0","3W8CV64QJ3L4LLBKWJUWOVPLSEO9H3","A2T8U68Y44GPVD","3P7RGTLO6EZ76AO3386R8ZK9IWWKAW","","226","img/flower6.png","74","226","1","0","2","2","1,0,0,1,1,0,1,0,1","0,1,0,0,1,1,1,1,0","3",""
"","html-keyboard-response","282","87446","0.0-282.0","3W8CV64QJ3L4LLBKWJUWOVPLSEO9H3","A2T8U68Y44GPVD","3P7RGTLO6EZ76AO3386R8ZK9IWWKAW","","null","<img src=""img/flower6.png"" style=""width:200px;border:14px solid red;"">","null","","","","","","","","",""
"","image-keyboard-response","283","87577","0.0-283.0","3W8CV64QJ3L4LLBKWJUWOVPLSEO9H3","A2T8U68Y44GPVD","3P7RGTLO6EZ76AO3386R8ZK9IWWKAW","","130","img/flower2.png","74","131","1","1","3","2","1,0,0,1,1,0,1,0,1","0,1,0,0,1,1,1,1,0","3",""
"","html-keyboard-response","284","87879","0.0-284.0","3W8CV64QJ3L4LLBKWJUWOVPLSEO9H3","A2T8U68Y44GPVD","3P7RGTLO6EZ76AO3386R8ZK9IWWKAW","","null","<img src=""img/flower2.png"" style=""width:200px; border:14px solid green;"">","null","","","","","","","","",""
"","image-keyboard-response","285","87993","0.0-285.0","3W8CV64QJ3L4LLBKWJUWOVPLSEO9H3","A2T8U68Y44GPVD","3P7RGTLO6EZ76AO3386R8ZK9IWWKAW","","112","img/flower6.png","76","114","3","1","2","2","1,0,0,1,1,0,1,0,1","0,1,0,0,1,1,1,1,0","3",""
"","html-keyboard-response","286","88294","0.0-286.0","3W8CV64QJ3L4LLBKWJUWOVPLSEO9H3","A2T8U68Y44GPVD","3P7RGTLO6EZ76AO3386R8ZK9IWWKAW","","null","<img src=""img/flower6.png"" style=""width:200px; border:14px solid green;"">","null","","","","","","","","",""
"","image-keyboard-response","287","88426","0.0-287.0","3W8CV64QJ3L4LLBKWJUWOVPLSEO9H3","A2T8U68Y44GPVD","3P7RGTLO6EZ76AO3386R8ZK9IWWKAW","","131","img/flower1.png","76","132","3","0","1","2","1,0,0,1,1,0,1,0,1","0,1,0,0,1,1,1,1,0","3",""
"","html-keyboard-response","288","88730","0.0-288.0","3W8CV64QJ3L4LLBKWJUWOVPLSEO9H3","A2T8U68Y44GPVD","3P7RGTLO6EZ76AO3386R8ZK9IWWKAW","","null","<img src=""img/flower1.png"" style=""width:200px;border:14px solid red;"">","null","","","","","","","","",""
"","image-keyboard-response","289","88738","0.0-289.0","3W8CV64QJ3L4LLBKWJUWOVPLSEO9H3","A2T8U68Y44GPVD","3P7RGTLO6EZ76AO3386R8ZK9IWWKAW","","8","img/flower1.png","75","9","2","1","1","2","1,0,0,1,1,0,1,0,1","0,1,0,0,1,1,1,1,0","3",""
"","html-keyboard-response","290","89040","0.0-290.0","3W8CV64QJ3L4LLBKWJUWOVPLSEO9H3","A2T8U68Y44GPVD","3P7RGTLO6EZ76AO3386R8ZK9IWWKAW","","null","<img src=""img/flower1.png"" style=""width:200px; border:14px solid green;"">","null","","","","","","","","",""
"","image-keyboard-response","291","89226","0.0-291.0","3W8CV64QJ3L4LLBKWJUWOVPLSEO9H3","A2T8U68Y44GPVD","3P7RGTLO6EZ76AO3386R8ZK9IWWKAW","","184","img/flower1.png","74","186","1","0","1","2","1,0,0,1,1,0,1,0,1","0,1,0,0,1,1,1,1,0","3",""
"","html-keyboard-response","292","89527","0.0-292.0","3W8CV64QJ3L4LLBKWJUWOVPLSEO9H3","A2T8U68Y44GPVD","3P7RGTLO6EZ76AO3386R8ZK9IWWKAW","","null","<img src=""img/flower1.png"" style=""width:200px;border:14px solid red;"">","null","","","","","","","","",""
"","image-keyboard-response","293","89586","0.0-293.0","3W8CV64QJ3L4LLBKWJUWOVPLSEO9H3","A2T8U68Y44GPVD","3P7RGTLO6EZ76AO3386R8ZK9IWWKAW","","58","img/flower2.png","74","59","1","1","3","2","1,0,0,1,1,0,1,0,1","0,1,0,0,1,1,1,1,0","3",""
"","html-keyboard-response","294","89886","0.0-294.0","3W8CV64QJ3L4LLBKWJUWOVPLSEO9H3","A2T8U68Y44GPVD","3P7RGTLO6EZ76AO3386R8ZK9IWWKAW","","null","<img src=""img/flower2.png"" style=""width:200px; border:14px solid green;"">","null","","","","","","","","",""
"","image-keyboard-response","295","89978","0.0-295.0","3W8CV64QJ3L4LLBKWJUWOVPLSEO9H3","A2T8U68Y44GPVD","3P7RGTLO6EZ76AO3386R8ZK9IWWKAW","","90","img/flower1.png","76","92","3","0","1","2","1,0,0,1,1,0,1,0,1","0,1,0,0,1,1,1,1,0","3",""
"","html-keyboard-response","296","90280","0.0-296.0","3W8CV64QJ3L4LLBKWJUWOVPLSEO9H3","A2T8U68Y44GPVD","3P7RGTLO6EZ76AO3386R8ZK9IWWKAW","","null","<img src=""img/flower1.png"" style=""width:200px;border:14px solid red;"">","null","","","","","","","","",""
"","image-keyboard-response","297","90305","0.0-297.0","3W8CV64QJ3L4LLBKWJUWOVPLSEO9H3","A2T8U68Y44GPVD","3P7RGTLO6EZ76AO3386R8ZK9IWWKAW","","24","img/flower6.png","76","24","3","1","2","2","1,0,0,1,1,0,1,0,1","0,1,0,0,1,1,1,1,0","3",""
"","html-keyboard-response","298","90651","0.0-298.0","3W8CV64QJ3L4LLBKWJUWOVPLSEO9H3","A2T8U68Y44GPVD","3P7RGTLO6EZ76AO3386R8ZK9IWWKAW","","null","<img src=""img/flower6.png"" style=""width:200px; border:14px solid green;"">","null","","","","","","","","",""
"","image-keyboard-response","299","90653","0.0-299.0","3W8CV64QJ3L4LLBKWJUWOVPLSEO9H3","A2T8U68Y44GPVD","3P7RGTLO6EZ76AO3386R8ZK9IWWKAW","","2","img/flower1.png","76","3","3","0","1","2","1,0,0,1,1,0,1,0,1","0,1,0,0,1,1,1,1,0","3",""
"","html-keyboard-response","300","90955","0.0-300.0","3W8CV64QJ3L4LLBKWJUWOVPLSEO9H3","A2T8U68Y44GPVD","3P7RGTLO6EZ76AO3386R8ZK9IWWKAW","","null","<img src=""img/flower1.png"" style=""width:200px;border:14px solid red;"">","null","","","","","","","","",""
"","image-keyboard-response","301","91078","0.0-301.0","3W8CV64QJ3L4LLBKWJUWOVPLSEO9H3","A2T8U68Y44GPVD","3P7RGTLO6EZ76AO3386R8ZK9IWWKAW","","121","img/flower1.png","76","123","3","0","1","2","1,0,0,1,1,0,1,0,1","0,1,0,0,1,1,1,1,0","3",""
"","html-keyboard-response","302","91379","0.0-302.0","3W8CV64QJ3L4LLBKWJUWOVPLSEO9H3","A2T8U68Y44GPVD","3P7RGTLO6EZ76AO3386R8ZK9IWWKAW","","null","<img src=""img/flower1.png"" style=""width:200px;border:14px solid red;"">","null","","","","","","","","",""
"","image-keyboard-response","303","91562","0.0-303.0","3W8CV64QJ3L4LLBKWJUWOVPLSEO9H3","A2T8U68Y44GPVD","3P7RGTLO6EZ76AO3386R8ZK9IWWKAW","","181","img/flower6.png","76","183","3","1","2","2","1,0,0,1,1,0,1,0,1","0,1,0,0,1,1,1,1,0","3",""
"","html-keyboard-response","304","91863","0.0-304.0","3W8CV64QJ3L4LLBKWJUWOVPLSEO9H3","A2T8U68Y44GPVD","3P7RGTLO6EZ76AO3386R8ZK9IWWKAW","","null","<img src=""img/flower6.png"" style=""width:200px; border:14px solid green;"">","null","","","","","","","","",""
"","image-keyboard-response","305","91930","0.0-305.0","3W8CV64QJ3L4LLBKWJUWOVPLSEO9H3","A2T8U68Y44GPVD","3P7RGTLO6EZ76AO3386R8ZK9IWWKAW","","65","img/flower1.png","75","67","2","1","1","2","1,0,0,1,1,0,1,0,1","0,1,0,0,1,1,1,1,0","3",""
"","html-keyboard-response","306","92230","0.0-306.0","3W8CV64QJ3L4LLBKWJUWOVPLSEO9H3","A2T8U68Y44GPVD","3P7RGTLO6EZ76AO3386R8ZK9IWWKAW","","null","<img src=""img/flower1.png"" style=""width:200px; border:14px solid green;"">","null","","","","","","","","",""
"","image-keyboard-response","307","92276","0.0-307.0","3W8CV64QJ3L4LLBKWJUWOVPLSEO9H3","A2T8U68Y44GPVD","3P7RGTLO6EZ76AO3386R8ZK9IWWKAW","","46","img/flower2.png","74","46","1","1","3","2","1,0,0,1,1,0,1,0,1","0,1,0,0,1,1,1,1,0","3",""
"","html-keyboard-response","308","92577","0.0-308.0","3W8CV64QJ3L4LLBKWJUWOVPLSEO9H3","A2T8U68Y44GPVD","3P7RGTLO6EZ76AO3386R8ZK9IWWKAW","","null","<img src=""img/flower2.png"" style=""width:200px; border:14px solid green;"">","null","","","","","","","","",""
"","image-keyboard-response","309","92770","0.0-309.0","3W8CV64QJ3L4LLBKWJUWOVPLSEO9H3","A2T8U68Y44GPVD","3P7RGTLO6EZ76AO3386R8ZK9IWWKAW","","192","img/flower2.png","74","193","1","1","3","2","1,0,0,1,1,0,1,0,1","0,1,0,0,1,1,1,1,0","3",""
"","html-keyboard-response","310","93072","0.0-310.0","3W8CV64QJ3L4LLBKWJUWOVPLSEO9H3","A2T8U68Y44GPVD","3P7RGTLO6EZ76AO3386R8ZK9IWWKAW","","null","<img src=""img/flower2.png"" style=""width:200px; border:14px solid green;"">","null","","","","","","","","",""
"","image-keyboard-response","311","93379","0.0-311.0","3W8CV64QJ3L4LLBKWJUWOVPLSEO9H3","A2T8U68Y44GPVD","3P7RGTLO6EZ76AO3386R8ZK9IWWKAW","","304","img/flower2.png","75","307","2","1","3","2","1,0,0,1,1,0,1,0,1","0,1,0,0,1,1,1,1,0","3",""
"","html-keyboard-response","312","93680","0.0-312.0","3W8CV64QJ3L4LLBKWJUWOVPLSEO9H3","A2T8U68Y44GPVD","3P7RGTLO6EZ76AO3386R8ZK9IWWKAW","","null","<img src=""img/flower2.png"" style=""width:200px; border:14px solid green;"">","null","","","","","","","","",""
"","image-keyboard-response","313","93737","0.0-313.0","3W8CV64QJ3L4LLBKWJUWOVPLSEO9H3","A2T8U68Y44GPVD","3P7RGTLO6EZ76AO3386R8ZK9IWWKAW","","56","img/flower6.png","76","57","3","1","2","2","1,0,0,1,1,0,1,0,1","0,1,0,0,1,1,1,1,0","3",""
"","html-keyboard-response","314","94039","0.0-314.0","3W8CV64QJ3L4LLBKWJUWOVPLSEO9H3","A2T8U68Y44GPVD","3P7RGTLO6EZ76AO3386R8ZK9IWWKAW","","null","<img src=""img/flower6.png"" style=""width:200px; border:14px solid green;"">","null","","","","","","","","",""
"","image-keyboard-response","315","94314","0.0-315.0","3W8CV64QJ3L4LLBKWJUWOVPLSEO9H3","A2T8U68Y44GPVD","3P7RGTLO6EZ76AO3386R8ZK9IWWKAW","","274","img/flower6.png","75","275","2","1","2","2","1,0,0,1,1,0,1,0,1","0,1,0,0,1,1,1,1,0","3",""
"","html-keyboard-response","316","94639","0.0-316.0","3W8CV64QJ3L4LLBKWJUWOVPLSEO9H3","A2T8U68Y44GPVD","3P7RGTLO6EZ76AO3386R8ZK9IWWKAW","","null","<img src=""img/flower6.png"" style=""width:200px; border:14px solid green;"">","null","","","","","","","","",""
"","image-keyboard-response","317","94770","0.0-317.0","3W8CV64QJ3L4LLBKWJUWOVPLSEO9H3","A2T8U68Y44GPVD","3P7RGTLO6EZ76AO3386R8ZK9IWWKAW","","129","img/flower6.png","76","134","3","1","2","2","1,0,0,1,1,0,1,0,1","0,1,0,0,1,1,1,1,0","3",""
"","html-keyboard-response","318","95073","0.0-318.0","3W8CV64QJ3L4LLBKWJUWOVPLSEO9H3","A2T8U68Y44GPVD","3P7RGTLO6EZ76AO3386R8ZK9IWWKAW","","null","<img src=""img/flower6.png"" style=""width:200px; border:14px solid green;"">","null","","","","","","","","",""
"","image-keyboard-response","319","95090","0.0-319.0","3W8CV64QJ3L4LLBKWJUWOVPLSEO9H3","A2T8U68Y44GPVD","3P7RGTLO6EZ76AO3386R8ZK9IWWKAW","","16","img/flower1.png","76","17","3","0","1","2","1,0,0,1,1,0,1,0,1","0,1,0,0,1,1,1,1,0","3",""
"","html-keyboard-response","320","95391","0.0-320.0","3W8CV64QJ3L4LLBKWJUWOVPLSEO9H3","A2T8U68Y44GPVD","3P7RGTLO6EZ76AO3386R8ZK9IWWKAW","","null","<img src=""img/flower1.png"" style=""width:200px;border:14px solid red;"">","null","","","","","","","","",""
"","image-keyboard-response","321","95786","0.0-321.0","3W8CV64QJ3L4LLBKWJUWOVPLSEO9H3","A2T8U68Y44GPVD","3P7RGTLO6EZ76AO3386R8ZK9IWWKAW","","395","img/flower1.png","76","395","3","0","1","2","1,0,0,1,1,0,1,0,1","0,1,0,0,1,1,1,1,0","3",""
"","html-keyboard-response","322","96087","0.0-322.0","3W8CV64QJ3L4LLBKWJUWOVPLSEO9H3","A2T8U68Y44GPVD","3P7RGTLO6EZ76AO3386R8ZK9IWWKAW","","null","<img src=""img/flower1.png"" style=""width:200px;border:14px solid red;"">","null","","","","","","","","",""
"","image-keyboard-response","323","96329","0.0-323.0","3W8CV64QJ3L4LLBKWJUWOVPLSEO9H3","A2T8U68Y44GPVD","3P7RGTLO6EZ76AO3386R8ZK9IWWKAW","","241","img/flower1.png","75","242","2","1","1","2","1,0,0,1,1,0,1,0,1","0,1,0,0,1,1,1,1,0","3",""
"","html-keyboard-response","324","96830","0.0-324.0","3W8CV64QJ3L4LLBKWJUWOVPLSEO9H3","A2T8U68Y44GPVD","3P7RGTLO6EZ76AO3386R8ZK9IWWKAW","","null","<img src=""img/flower1.png"" style=""width:200px; border:14px solid green;"">","null","","","","","","","","",""
"","image-keyboard-response","325","96862","0.0-325.0","3W8CV64QJ3L4LLBKWJUWOVPLSEO9H3","A2T8U68Y44GPVD","3P7RGTLO6EZ76AO3386R8ZK9IWWKAW","","32","img/flower2.png","76","32","3","0","3","2","1,0,0,1,1,0,1,0,1","0,1,0,0,1,1,1,1,0","3",""
"","html-keyboard-response","326","97163","0.0-326.0","3W8CV64QJ3L4LLBKWJUWOVPLSEO9H3","A2T8U68Y44GPVD","3P7RGTLO6EZ76AO3386R8ZK9IWWKAW","","null","<img src=""img/flower2.png"" style=""width:200px;border:14px solid red;"">","null","","","","","","","","",""
"","image-keyboard-response","327","97393","0.0-327.0","3W8CV64QJ3L4LLBKWJUWOVPLSEO9H3","A2T8U68Y44GPVD","3P7RGTLO6EZ76AO3386R8ZK9IWWKAW","","229","img/flower6.png","75","230","2","1","2","2","1,0,0,1,1,0,1,0,1","0,1,0,0,1,1,1,1,0","3",""
"","html-keyboard-response","328","97695","0.0-328.0","3W8CV64QJ3L4LLBKWJUWOVPLSEO9H3","A2T8U68Y44GPVD","3P7RGTLO6EZ76AO3386R8ZK9IWWKAW","","null","<img src=""img/flower6.png"" style=""width:200px; border:14px solid green;"">","null","","","","","","","","",""
"","image-keyboard-response","329","97778","0.0-329.0","3W8CV64QJ3L4LLBKWJUWOVPLSEO9H3","A2T8U68Y44GPVD","3P7RGTLO6EZ76AO3386R8ZK9IWWKAW","","82","img/flower1.png","75","84","2","1","1","2","1,0,0,1,1,0,1,0,1","0,1,0,0,1,1,1,1,0","3",""
"","html-keyboard-response","330","98081","0.0-330.0","3W8CV64QJ3L4LLBKWJUWOVPLSEO9H3","A2T8U68Y44GPVD","3P7RGTLO6EZ76AO3386R8ZK9IWWKAW","","null","<img src=""img/flower1.png"" style=""width:200px; border:14px solid green;"">","null","","","","","","","","",""
"","image-keyboard-response","331","98314","0.0-331.0","3W8CV64QJ3L4LLBKWJUWOVPLSEO9H3","A2T8U68Y44GPVD","3P7RGTLO6EZ76AO3386R8ZK9IWWKAW","","232","img/flower6.png","75","233","2","1","2","2","1,0,0,1,1,0,1,0,1","0,1,0,0,1,1,1,1,0","3",""
"","html-keyboard-response","332","98616","0.0-332.0","3W8CV64QJ3L4LLBKWJUWOVPLSEO9H3","A2T8U68Y44GPVD","3P7RGTLO6EZ76AO3386R8ZK9IWWKAW","","null","<img src=""img/flower6.png"" style=""width:200px; border:14px solid green;"">","null","","","","","","","","",""
"","image-keyboard-response","333","98785","0.0-333.0","3W8CV64QJ3L4LLBKWJUWOVPLSEO9H3","A2T8U68Y44GPVD","3P7RGTLO6EZ76AO3386R8ZK9IWWKAW","","169","img/flower2.png","76","169","3","0","3","2","1,0,0,1,1,0,1,0,1","0,1,0,0,1,1,1,1,0","3",""
"","html-keyboard-response","334","99092","0.0-334.0","3W8CV64QJ3L4LLBKWJUWOVPLSEO9H3","A2T8U68Y44GPVD","3P7RGTLO6EZ76AO3386R8ZK9IWWKAW","","null","<img src=""img/flower2.png"" style=""width:200px;border:14px solid red;"">","null","","","","","","","","",""
"","image-keyboard-response","335","99314","0.0-335.0","3W8CV64QJ3L4LLBKWJUWOVPLSEO9H3","A2T8U68Y44GPVD","3P7RGTLO6EZ76AO3386R8ZK9IWWKAW","","202","img/flower2.png","76","215","3","0","3","2","1,0,0,1,1,0,1,0,1","0,1,0,0,1,1,1,1,0","3",""
"","html-keyboard-response","336","99614","0.0-336.0","3W8CV64QJ3L4LLBKWJUWOVPLSEO9H3","A2T8U68Y44GPVD","3P7RGTLO6EZ76AO3386R8ZK9IWWKAW","","null","<img src=""img/flower2.png"" style=""width:200px;border:14px solid red;"">","null","","","","","","","","",""
"","image-keyboard-response","337","99715","0.0-337.0","3W8CV64QJ3L4LLBKWJUWOVPLSEO9H3","A2T8U68Y44GPVD","3P7RGTLO6EZ76AO3386R8ZK9IWWKAW","","99","img/flower2.png","75","101","2","1","3","2","1,0,0,1,1,0,1,0,1","0,1,0,0,1,1,1,1,0","3",""
"","html-keyboard-response","338","100017","0.0-338.0","3W8CV64QJ3L4LLBKWJUWOVPLSEO9H3","A2T8U68Y44GPVD","3P7RGTLO6EZ76AO3386R8ZK9IWWKAW","","null","<img src=""img/flower2.png"" style=""width:200px; border:14px solid green;"">","null","","","","","","","","",""
"","image-keyboard-response","339","100091","0.0-339.0","3W8CV64QJ3L4LLBKWJUWOVPLSEO9H3","A2T8U68Y44GPVD","3P7RGTLO6EZ76AO3386R8ZK9IWWKAW","","73","img/flower2.png","74","74","1","1","3","2","1,0,0,1,1,0,1,0,1","0,1,0,0,1,1,1,1,0","3",""
"","html-keyboard-response","340","100392","0.0-340.0","3W8CV64QJ3L4LLBKWJUWOVPLSEO9H3","A2T8U68Y44GPVD","3P7RGTLO6EZ76AO3386R8ZK9IWWKAW","","null","<img src=""img/flower2.png"" style=""width:200px; border:14px solid green;"">","null","","","","","","","","",""
"","image-keyboard-response","341","100657","0.0-341.0","3W8CV64QJ3L4LLBKWJUWOVPLSEO9H3","A2T8U68Y44GPVD","3P7RGTLO6EZ76AO3386R8ZK9IWWKAW","","265","img/flower1.png","76","265","3","0","1","2","1,0,0,1,1,0,1,0,1","0,1,0,0,1,1,1,1,0","3",""
"","html-keyboard-response","342","100958","0.0-342.0","3W8CV64QJ3L4LLBKWJUWOVPLSEO9H3","A2T8U68Y44GPVD","3P7RGTLO6EZ76AO3386R8ZK9IWWKAW","","null","<img src=""img/flower1.png"" style=""width:200px;border:14px solid red;"">","null","","","","","","","","",""
"","image-keyboard-response","343","100993","0.0-343.0","3W8CV64QJ3L4LLBKWJUWOVPLSEO9H3","A2T8U68Y44GPVD","3P7RGTLO6EZ76AO3386R8ZK9IWWKAW","","33","img/flower1.png","75","35","2","1","1","2","1,0,0,1,1,0,1,0,1","0,1,0,0,1,1,1,1,0","3",""
"","html-keyboard-response","344","101295","0.0-344.0","3W8CV64QJ3L4LLBKWJUWOVPLSEO9H3","A2T8U68Y44GPVD","3P7RGTLO6EZ76AO3386R8ZK9IWWKAW","","null","<img src=""img/flower1.png"" style=""width:200px; border:14px solid green;"">","null","","","","","","","","",""
"","image-keyboard-response","345","101530","0.0-345.0","3W8CV64QJ3L4LLBKWJUWOVPLSEO9H3","A2T8U68Y44GPVD","3P7RGTLO6EZ76AO3386R8ZK9IWWKAW","","233","img/flower6.png","75","235","2","1","2","2","1,0,0,1,1,0,1,0,1","0,1,0,0,1,1,1,1,0","3",""
"","html-keyboard-response","346","101831","0.0-346.0","3W8CV64QJ3L4LLBKWJUWOVPLSEO9H3","A2T8U68Y44GPVD","3P7RGTLO6EZ76AO3386R8ZK9IWWKAW","","null","<img src=""img/flower6.png"" style=""width:200px; border:14px solid green;"">","null","","","","","","","","",""
"","image-keyboard-response","347","101906","0.0-347.0","3W8CV64QJ3L4LLBKWJUWOVPLSEO9H3","A2T8U68Y44GPVD","3P7RGTLO6EZ76AO3386R8ZK9IWWKAW","","73","img/flower6.png","75","75","2","1","2","2","1,0,0,1,1,0,1,0,1","0,1,0,0,1,1,1,1,0","3",""
"","html-keyboard-response","348","102206","0.0-348.0","3W8CV64QJ3L4LLBKWJUWOVPLSEO9H3","A2T8U68Y44GPVD","3P7RGTLO6EZ76AO3386R8ZK9IWWKAW","","null","<img src=""img/flower6.png"" style=""width:200px; border:14px solid green;"">","null","","","","","","","","",""
"","image-keyboard-response","349","102475","0.0-349.0","3W8CV64QJ3L4LLBKWJUWOVPLSEO9H3","A2T8U68Y44GPVD","3P7RGTLO6EZ76AO3386R8ZK9IWWKAW","","268","img/flower1.png","74","269","1","0","1","2","1,0,0,1,1,0,1,0,1","0,1,0,0,1,1,1,1,0","3",""
"","html-keyboard-response","350","102776","0.0-350.0","3W8CV64QJ3L4LLBKWJUWOVPLSEO9H3","A2T8U68Y44GPVD","3P7RGTLO6EZ76AO3386R8ZK9IWWKAW","","null","<img src=""img/flower1.png"" style=""width:200px;border:14px solid red;"">","null","","","","","","","","",""
"","image-keyboard-response","351","103053","0.0-351.0","3W8CV64QJ3L4LLBKWJUWOVPLSEO9H3","A2T8U68Y44GPVD","3P7RGTLO6EZ76AO3386R8ZK9IWWKAW","","263","img/flower6.png","76","277","3","1","2","2","1,0,0,1,1,0,1,0,1","0,1,0,0,1,1,1,1,0","3",""
"","html-keyboard-response","352","103355","0.0-352.0","3W8CV64QJ3L4LLBKWJUWOVPLSEO9H3","A2T8U68Y44GPVD","3P7RGTLO6EZ76AO3386R8ZK9IWWKAW","","null","<img src=""img/flower6.png"" style=""width:200px; border:14px solid green;"">","null","","","","","","","","",""
"","image-keyboard-response","353","103393","0.0-353.0","3W8CV64QJ3L4LLBKWJUWOVPLSEO9H3","A2T8U68Y44GPVD","3P7RGTLO6EZ76AO3386R8ZK9IWWKAW","","37","img/flower2.png","76","38","3","0","3","2","1,0,0,1,1,0,1,0,1","0,1,0,0,1,1,1,1,0","3",""
"","html-keyboard-response","354","103694","0.0-354.0","3W8CV64QJ3L4LLBKWJUWOVPLSEO9H3","A2T8U68Y44GPVD","3P7RGTLO6EZ76AO3386R8ZK9IWWKAW","","null","<img src=""img/flower2.png"" style=""width:200px;border:14px solid red;"">","null","","","","","","","","",""
"","image-keyboard-response","355","104057","0.0-355.0","3W8CV64QJ3L4LLBKWJUWOVPLSEO9H3","A2T8U68Y44GPVD","3P7RGTLO6EZ76AO3386R8ZK9IWWKAW","","362","img/flower6.png","76","364","3","1","2","2","1,0,0,1,1,0,1,0,1","0,1,0,0,1,1,1,1,0","3",""
"","html-keyboard-response","356","104358","0.0-356.0","3W8CV64QJ3L4LLBKWJUWOVPLSEO9H3","A2T8U68Y44GPVD","3P7RGTLO6EZ76AO3386R8ZK9IWWKAW","","null","<img src=""img/flower6.png"" style=""width:200px; border:14px solid green;"">","null","","","","","","","","",""
"","image-keyboard-response","357","104739","0.0-357.0","3W8CV64QJ3L4LLBKWJUWOVPLSEO9H3","A2T8U68Y44GPVD","3P7RGTLO6EZ76AO3386R8ZK9IWWKAW","","380","img/flower1.png","74","381","1","0","1","2","1,0,0,1,1,0,1,0,1","0,1,0,0,1,1,1,1,0","3",""
"","html-keyboard-response","358","105041","0.0-358.0","3W8CV64QJ3L4LLBKWJUWOVPLSEO9H3","A2T8U68Y44GPVD","3P7RGTLO6EZ76AO3386R8ZK9IWWKAW","","null","<img src=""img/flower1.png"" style=""width:200px;border:14px solid red;"">","null","","","","","","","","",""
"","image-keyboard-response","359","105249","0.0-359.0","3W8CV64QJ3L4LLBKWJUWOVPLSEO9H3","A2T8U68Y44GPVD","3P7RGTLO6EZ76AO3386R8ZK9IWWKAW","","208","img/flower1.png","74","208","1","0","1","2","1,0,0,1,1,0,1,0,1","0,1,0,0,1,1,1,1,0","3",""
"","html-keyboard-response","360","105550","0.0-360.0","3W8CV64QJ3L4LLBKWJUWOVPLSEO9H3","A2T8U68Y44GPVD","3P7RGTLO6EZ76AO3386R8ZK9IWWKAW","","null","<img src=""img/flower1.png"" style=""width:200px;border:14px solid red;"">","null","","","","","","","","",""
"","image-keyboard-response","361","105691","0.0-361.0","3W8CV64QJ3L4LLBKWJUWOVPLSEO9H3","A2T8U68Y44GPVD","3P7RGTLO6EZ76AO3386R8ZK9IWWKAW","","140","img/flower2.png","74","141","1","1","3","2","1,0,0,1,1,0,1,0,1","0,1,0,0,1,1,1,1,0","3",""
"","html-keyboard-response","362","105993","0.0-362.0","3W8CV64QJ3L4LLBKWJUWOVPLSEO9H3","A2T8U68Y44GPVD","3P7RGTLO6EZ76AO3386R8ZK9IWWKAW","","null","<img src=""img/flower2.png"" style=""width:200px; border:14px solid green;"">","null","","","","","","","","",""
"","instructions","363","107956","0.0-363.0","3W8CV64QJ3L4LLBKWJUWOVPLSEO9H3","A2T8U68Y44GPVD","3P7RGTLO6EZ76AO3386R8ZK9IWWKAW","[{""page_index"":0,""viewing_time"":1962}]","1963","","","","","","","","","","",""
"","survey-text","364","115477","0.0-364.0","3W8CV64QJ3L4LLBKWJUWOVPLSEO9H3","A2T8U68Y44GPVD","3P7RGTLO6EZ76AO3386R8ZK9IWWKAW","","7513","","","","","","","","","","","{""Q0"":""A2T8U68Y44GPVD""}"
