"rt","url","trial_type","trial_index","time_elapsed","internal_node_id","assignmentID","mturkID","hitID","success","view_history","stimulus","key_press","reactionTime","a","r","s","reward_cond","responses"
"83687.69999999553","consent.html","external-html","0","83737","0.0-0.0","3A1COHJ8NKH47GSARROIOZUA4TXH8F","A2TLN8489YGY81","3S829FDFT2NBOHQMM1CIOU0HZYXDXL","","","","","","","","","",""
"","","fullscreen","1","115505","0.0-1.0","3A1COHJ8NKH47GSARROIOZUA4TXH8F","A2TLN8489YGY81","3S829FDFT2NBOHQMM1CIOU0HZYXDXL","true","","","","","","","","",""
"144735.69999999553","","instructions","2","260242","0.0-2.0","3A1COHJ8NKH47GSARROIOZUA4TXH8F","A2TLN8489YGY81","3S829FDFT2NBOHQMM1CIOU0HZYXDXL","","[{""page_index"":0,""viewing_time"":81904.19999999553},{""page_index"":1,""viewing_time"":7198.5},{""page_index"":2,""viewing_time"":10969.5},{""page_index"":3,""viewing_time"":9110.60000000149},{""page_index"":4,""viewing_time"":8085.89999999851},{""page_index"":5,""viewing_time"":21936.20000000298},{""page_index"":6,""viewing_time"":5529.79999999702}]","","","","","","","",""
"21836.59999999404","","instructions","3","282079","0.0-3.0","3A1COHJ8NKH47GSARROIOZUA4TXH8F","A2TLN8489YGY81","3S829FDFT2NBOHQMM1CIOU0HZYXDXL","","[{""page_index"":0,""viewing_time"":21836.29999999702}]","","","","","","","",""
"1071.0999999940395","","image-keyboard-response","4","283152","0.0-4.0","3A1COHJ8NKH47GSARROIOZUA4TXH8F","A2TLN8489YGY81","3S829FDFT2NBOHQMM1CIOU0HZYXDXL","","","img/flower4.png","74","1072.6000000014901","1","1","1","",""
"null","","html-keyboard-response","5","283459","0.0-5.0","3A1COHJ8NKH47GSARROIOZUA4TXH8F","A2TLN8489YGY81","3S829FDFT2NBOHQMM1CIOU0HZYXDXL","","","<img src=""img/flower4.png"" style=""width:200px; border:14px solid green;"">","null","","","","","",""
"904.5","","image-keyboard-response","6","284365","0.0-6.0","3A1COHJ8NKH47GSARROIOZUA4TXH8F","A2TLN8489YGY81","3S829FDFT2NBOHQMM1CIOU0HZYXDXL","","","img/flower4.png","74","905.2999999970198","1","1","1","",""
"null","","html-keyboard-response","7","284678","0.0-7.0","3A1COHJ8NKH47GSARROIOZUA4TXH8F","A2TLN8489YGY81","3S829FDFT2NBOHQMM1CIOU0HZYXDXL","","","<img src=""img/flower4.png"" style=""width:200px; border:14px solid green;"">","null","","","","","",""
"559.1000000014901","","image-keyboard-response","8","285238","0.0-8.0","3A1COHJ8NKH47GSARROIOZUA4TXH8F","A2TLN8489YGY81","3S829FDFT2NBOHQMM1CIOU0HZYXDXL","","","img/flower4.png","74","560.2000000029802","1","0","1","",""
"null","","html-keyboard-response","9","285552","0.0-9.0","3A1COHJ8NKH47GSARROIOZUA4TXH8F","A2TLN8489YGY81","3S829FDFT2NBOHQMM1CIOU0HZYXDXL","","","<img src=""img/flower4.png"" style=""width:200px;border:14px solid red;"">","null","","","","","",""
"1040.6000000014901","","image-keyboard-response","10","286593","0.0-10.0","3A1COHJ8NKH47GSARROIOZUA4TXH8F","A2TLN8489YGY81","3S829FDFT2NBOHQMM1CIOU0HZYXDXL","","","img/flower5.png","75","1041.3999999985099","2","1","2","",""
"null","","html-keyboard-response","11","286902","0.0-11.0","3A1COHJ8NKH47GSARROIOZUA4TXH8F","A2TLN8489YGY81","3S829FDFT2NBOHQMM1CIOU0HZYXDXL","","","<img src=""img/flower5.png"" style=""width:200px; border:14px solid green;"">","null","","","","","",""
"630.8000000044703","","image-keyboard-response","12","287534","0.0-12.0","3A1COHJ8NKH47GSARROIOZUA4TXH8F","A2TLN8489YGY81","3S829FDFT2NBOHQMM1CIOU0HZYXDXL","","","img/flower4.png","74","631.7000000029802","1","1","1","",""
"null","","html-keyboard-response","13","287837","0.0-13.0","3A1COHJ8NKH47GSARROIOZUA4TXH8F","A2TLN8489YGY81","3S829FDFT2NBOHQMM1CIOU0HZYXDXL","","","<img src=""img/flower4.png"" style=""width:200px; border:14px solid green;"">","null","","","","","",""
"822.7999999970198","","image-keyboard-response","14","288660","0.0-14.0","3A1COHJ8NKH47GSARROIOZUA4TXH8F","A2TLN8489YGY81","3S829FDFT2NBOHQMM1CIOU0HZYXDXL","","","img/flower6.png","76","823.5999999940395","3","1","3","",""
"null","","html-keyboard-response","15","288977","0.0-15.0","3A1COHJ8NKH47GSARROIOZUA4TXH8F","A2TLN8489YGY81","3S829FDFT2NBOHQMM1CIOU0HZYXDXL","","","<img src=""img/flower6.png"" style=""width:200px; border:14px solid green;"">","null","","","","","",""
"555.8999999985099","","image-keyboard-response","16","289534","0.0-16.0","3A1COHJ8NKH47GSARROIOZUA4TXH8F","A2TLN8489YGY81","3S829FDFT2NBOHQMM1CIOU0HZYXDXL","","","img/flower6.png","76","556.8000000044703","3","1","3","",""
"null","","html-keyboard-response","17","289849","0.0-17.0","3A1COHJ8NKH47GSARROIOZUA4TXH8F","A2TLN8489YGY81","3S829FDFT2NBOHQMM1CIOU0HZYXDXL","","","<img src=""img/flower6.png"" style=""width:200px; border:14px solid green;"">","null","","","","","",""
"860.6999999955297","","image-keyboard-response","18","290711","0.0-18.0","3A1COHJ8NKH47GSARROIOZUA4TXH8F","A2TLN8489YGY81","3S829FDFT2NBOHQMM1CIOU0HZYXDXL","","","img/flower5.png","75","861.6000000014901","2","0","2","",""
"null","","html-keyboard-response","19","291018","0.0-19.0","3A1COHJ8NKH47GSARROIOZUA4TXH8F","A2TLN8489YGY81","3S829FDFT2NBOHQMM1CIOU0HZYXDXL","","","<img src=""img/flower5.png"" style=""width:200px;border:14px solid red;"">","null","","","","","",""
"777.4000000059605","","image-keyboard-response","20","291796","0.0-20.0","3A1COHJ8NKH47GSARROIOZUA4TXH8F","A2TLN8489YGY81","3S829FDFT2NBOHQMM1CIOU0HZYXDXL","","","img/flower4.png","74","778.5","1","1","1","",""
"null","","html-keyboard-response","21","292108","0.0-21.0","3A1COHJ8NKH47GSARROIOZUA4TXH8F","A2TLN8489YGY81","3S829FDFT2NBOHQMM1CIOU0HZYXDXL","","","<img src=""img/flower4.png"" style=""width:200px; border:14px solid green;"">","null","","","","","",""
"1013.2999999970198","","image-keyboard-response","22","293122","0.0-22.0","3A1COHJ8NKH47GSARROIOZUA4TXH8F","A2TLN8489YGY81","3S829FDFT2NBOHQMM1CIOU0HZYXDXL","","","img/flower6.png","76","1014.5","3","0","3","",""
"null","","html-keyboard-response","23","293438","0.0-23.0","3A1COHJ8NKH47GSARROIOZUA4TXH8F","A2TLN8489YGY81","3S829FDFT2NBOHQMM1CIOU0HZYXDXL","","","<img src=""img/flower6.png"" style=""width:200px;border:14px solid red;"">","null","","","","","",""
"847.2999999970198","","image-keyboard-response","24","294286","0.0-24.0","3A1COHJ8NKH47GSARROIOZUA4TXH8F","A2TLN8489YGY81","3S829FDFT2NBOHQMM1CIOU0HZYXDXL","","","img/flower5.png","75","848.2000000029802","2","1","2","",""
"null","","html-keyboard-response","25","294597","0.0-25.0","3A1COHJ8NKH47GSARROIOZUA4TXH8F","A2TLN8489YGY81","3S829FDFT2NBOHQMM1CIOU0HZYXDXL","","","<img src=""img/flower5.png"" style=""width:200px; border:14px solid green;"">","null","","","","","",""
"512","","image-keyboard-response","26","295110","0.0-26.0","3A1COHJ8NKH47GSARROIOZUA4TXH8F","A2TLN8489YGY81","3S829FDFT2NBOHQMM1CIOU0HZYXDXL","","","img/flower5.png","75","512.8000000044703","2","1","2","",""
"null","","html-keyboard-response","27","295420","0.0-27.0","3A1COHJ8NKH47GSARROIOZUA4TXH8F","A2TLN8489YGY81","3S829FDFT2NBOHQMM1CIOU0HZYXDXL","","","<img src=""img/flower5.png"" style=""width:200px; border:14px solid green;"">","null","","","","","",""
"729.1000000014901","","image-keyboard-response","28","296150","0.0-28.0","3A1COHJ8NKH47GSARROIOZUA4TXH8F","A2TLN8489YGY81","3S829FDFT2NBOHQMM1CIOU0HZYXDXL","","","img/flower6.png","76","729.7999999970198","3","1","3","",""
"null","","html-keyboard-response","29","296453","0.0-29.0","3A1COHJ8NKH47GSARROIOZUA4TXH8F","A2TLN8489YGY81","3S829FDFT2NBOHQMM1CIOU0HZYXDXL","","","<img src=""img/flower6.png"" style=""width:200px; border:14px solid green;"">","null","","","","","",""
"429.30000000447035","","image-keyboard-response","30","296883","0.0-30.0","3A1COHJ8NKH47GSARROIOZUA4TXH8F","A2TLN8489YGY81","3S829FDFT2NBOHQMM1CIOU0HZYXDXL","","","img/flower6.png","76","430.1000000014901","3","1","3","",""
"null","","html-keyboard-response","31","297197","0.0-31.0","3A1COHJ8NKH47GSARROIOZUA4TXH8F","A2TLN8489YGY81","3S829FDFT2NBOHQMM1CIOU0HZYXDXL","","","<img src=""img/flower6.png"" style=""width:200px; border:14px solid green;"">","null","","","","","",""
"616.8000000044703","","image-keyboard-response","32","297815","0.0-32.0","3A1COHJ8NKH47GSARROIOZUA4TXH8F","A2TLN8489YGY81","3S829FDFT2NBOHQMM1CIOU0HZYXDXL","","","img/flower4.png","74","617.5","1","1","1","",""
"null","","html-keyboard-response","33","298119","0.0-33.0","3A1COHJ8NKH47GSARROIOZUA4TXH8F","A2TLN8489YGY81","3S829FDFT2NBOHQMM1CIOU0HZYXDXL","","","<img src=""img/flower4.png"" style=""width:200px; border:14px solid green;"">","null","","","","","",""
"833.7999999970198","","image-keyboard-response","34","298954","0.0-34.0","3A1COHJ8NKH47GSARROIOZUA4TXH8F","A2TLN8489YGY81","3S829FDFT2NBOHQMM1CIOU0HZYXDXL","","","img/flower6.png","76","834.6000000014901","3","1","3","",""
"null","","html-keyboard-response","35","299262","0.0-35.0","3A1COHJ8NKH47GSARROIOZUA4TXH8F","A2TLN8489YGY81","3S829FDFT2NBOHQMM1CIOU0HZYXDXL","","","<img src=""img/flower6.png"" style=""width:200px; border:14px solid green;"">","null","","","","","",""
"755","","image-keyboard-response","36","300018","0.0-36.0","3A1COHJ8NKH47GSARROIOZUA4TXH8F","A2TLN8489YGY81","3S829FDFT2NBOHQMM1CIOU0HZYXDXL","","","img/flower5.png","75","755.8999999985099","2","1","2","",""
"null","","html-keyboard-response","37","300326","0.0-37.0","3A1COHJ8NKH47GSARROIOZUA4TXH8F","A2TLN8489YGY81","3S829FDFT2NBOHQMM1CIOU0HZYXDXL","","","<img src=""img/flower5.png"" style=""width:200px; border:14px solid green;"">","null","","","","","",""
"469.90000000596046","","image-keyboard-response","38","300797","0.0-38.0","3A1COHJ8NKH47GSARROIOZUA4TXH8F","A2TLN8489YGY81","3S829FDFT2NBOHQMM1CIOU0HZYXDXL","","","img/flower5.png","75","470.70000000298023","2","1","2","",""
"null","","html-keyboard-response","39","301109","0.0-39.0","3A1COHJ8NKH47GSARROIOZUA4TXH8F","A2TLN8489YGY81","3S829FDFT2NBOHQMM1CIOU0HZYXDXL","","","<img src=""img/flower5.png"" style=""width:200px; border:14px solid green;"">","null","","","","","",""
"465","","image-keyboard-response","40","301575","0.0-40.0","3A1COHJ8NKH47GSARROIOZUA4TXH8F","A2TLN8489YGY81","3S829FDFT2NBOHQMM1CIOU0HZYXDXL","","","img/flower5.png","75","465.80000000447035","2","1","2","",""
"null","","html-keyboard-response","41","301890","0.0-41.0","3A1COHJ8NKH47GSARROIOZUA4TXH8F","A2TLN8489YGY81","3S829FDFT2NBOHQMM1CIOU0HZYXDXL","","","<img src=""img/flower5.png"" style=""width:200px; border:14px solid green;"">","null","","","","","",""
"831.5","","image-keyboard-response","42","302722","0.0-42.0","3A1COHJ8NKH47GSARROIOZUA4TXH8F","A2TLN8489YGY81","3S829FDFT2NBOHQMM1CIOU0HZYXDXL","","","img/flower6.png","76","832.2000000029802","3","1","3","",""
"null","","html-keyboard-response","43","303029","0.0-43.0","3A1COHJ8NKH47GSARROIOZUA4TXH8F","A2TLN8489YGY81","3S829FDFT2NBOHQMM1CIOU0HZYXDXL","","","<img src=""img/flower6.png"" style=""width:200px; border:14px solid green;"">","null","","","","","",""
"508.40000000596046","","image-keyboard-response","44","303538","0.0-44.0","3A1COHJ8NKH47GSARROIOZUA4TXH8F","A2TLN8489YGY81","3S829FDFT2NBOHQMM1CIOU0HZYXDXL","","","img/flower6.png","76","509.20000000298023","3","0","3","",""
"null","","html-keyboard-response","45","303852","0.0-45.0","3A1COHJ8NKH47GSARROIOZUA4TXH8F","A2TLN8489YGY81","3S829FDFT2NBOHQMM1CIOU0HZYXDXL","","","<img src=""img/flower6.png"" style=""width:200px;border:14px solid red;"">","null","","","","","",""
"803.0999999940395","","image-keyboard-response","46","304656","0.0-46.0","3A1COHJ8NKH47GSARROIOZUA4TXH8F","A2TLN8489YGY81","3S829FDFT2NBOHQMM1CIOU0HZYXDXL","","","img/flower4.png","74","803.8999999985099","1","1","1","",""
"null","","html-keyboard-response","47","304962","0.0-47.0","3A1COHJ8NKH47GSARROIOZUA4TXH8F","A2TLN8489YGY81","3S829FDFT2NBOHQMM1CIOU0HZYXDXL","","","<img src=""img/flower4.png"" style=""width:200px; border:14px solid green;"">","null","","","","","",""
"770.4000000059605","","image-keyboard-response","48","305733","0.0-48.0","3A1COHJ8NKH47GSARROIOZUA4TXH8F","A2TLN8489YGY81","3S829FDFT2NBOHQMM1CIOU0HZYXDXL","","","img/flower6.png","76","771.3000000044703","3","1","3","",""
"null","","html-keyboard-response","49","306042","0.0-49.0","3A1COHJ8NKH47GSARROIOZUA4TXH8F","A2TLN8489YGY81","3S829FDFT2NBOHQMM1CIOU0HZYXDXL","","","<img src=""img/flower6.png"" style=""width:200px; border:14px solid green;"">","null","","","","","",""
"754.7999999970198","","image-keyboard-response","50","306798","0.0-50.0","3A1COHJ8NKH47GSARROIOZUA4TXH8F","A2TLN8489YGY81","3S829FDFT2NBOHQMM1CIOU0HZYXDXL","","","img/flower4.png","74","755.7000000029802","1","0","1","",""
"null","","html-keyboard-response","51","307102","0.0-51.0","3A1COHJ8NKH47GSARROIOZUA4TXH8F","A2TLN8489YGY81","3S829FDFT2NBOHQMM1CIOU0HZYXDXL","","","<img src=""img/flower4.png"" style=""width:200px;border:14px solid red;"">","null","","","","","",""
"750.1000000014901","","image-keyboard-response","52","307854","0.0-52.0","3A1COHJ8NKH47GSARROIOZUA4TXH8F","A2TLN8489YGY81","3S829FDFT2NBOHQMM1CIOU0HZYXDXL","","","img/flower5.png","75","751.5","2","1","2","",""
"null","","html-keyboard-response","53","308167","0.0-53.0","3A1COHJ8NKH47GSARROIOZUA4TXH8F","A2TLN8489YGY81","3S829FDFT2NBOHQMM1CIOU0HZYXDXL","","","<img src=""img/flower5.png"" style=""width:200px; border:14px solid green;"">","null","","","","","",""
"742.1999999955297","","image-keyboard-response","54","308910","0.0-54.0","3A1COHJ8NKH47GSARROIOZUA4TXH8F","A2TLN8489YGY81","3S829FDFT2NBOHQMM1CIOU0HZYXDXL","","","img/flower6.png","76","743","3","1","3","",""
"null","","html-keyboard-response","55","309212","0.0-55.0","3A1COHJ8NKH47GSARROIOZUA4TXH8F","A2TLN8489YGY81","3S829FDFT2NBOHQMM1CIOU0HZYXDXL","","","<img src=""img/flower6.png"" style=""width:200px; border:14px solid green;"">","null","","","","","",""
"869.7000000029802","","image-keyboard-response","56","310083","0.0-56.0","3A1COHJ8NKH47GSARROIOZUA4TXH8F","A2TLN8489YGY81","3S829FDFT2NBOHQMM1CIOU0HZYXDXL","","","img/flower5.png","75","870.3999999985099","2","1","2","",""
"null","","html-keyboard-response","57","310399","0.0-57.0","3A1COHJ8NKH47GSARROIOZUA4TXH8F","A2TLN8489YGY81","3S829FDFT2NBOHQMM1CIOU0HZYXDXL","","","<img src=""img/flower5.png"" style=""width:200px; border:14px solid green;"">","null","","","","","",""
"622.7999999970198","","image-keyboard-response","58","311023","0.0-58.0","3A1COHJ8NKH47GSARROIOZUA4TXH8F","A2TLN8489YGY81","3S829FDFT2NBOHQMM1CIOU0HZYXDXL","","","img/flower5.png","75","623.7000000029802","2","1","2","",""
"null","","html-keyboard-response","59","311331","0.0-59.0","3A1COHJ8NKH47GSARROIOZUA4TXH8F","A2TLN8489YGY81","3S829FDFT2NBOHQMM1CIOU0HZYXDXL","","","<img src=""img/flower5.png"" style=""width:200px; border:14px solid green;"">","null","","","","","",""
"718.3999999985099","","image-keyboard-response","60","312050","0.0-60.0","3A1COHJ8NKH47GSARROIOZUA4TXH8F","A2TLN8489YGY81","3S829FDFT2NBOHQMM1CIOU0HZYXDXL","","","img/flower4.png","74","719.1000000014901","1","1","1","",""
"null","","html-keyboard-response","61","312364","0.0-61.0","3A1COHJ8NKH47GSARROIOZUA4TXH8F","A2TLN8489YGY81","3S829FDFT2NBOHQMM1CIOU0HZYXDXL","","","<img src=""img/flower4.png"" style=""width:200px; border:14px solid green;"">","null","","","","","",""
"530.1999999955297","","image-keyboard-response","62","312895","0.0-62.0","3A1COHJ8NKH47GSARROIOZUA4TXH8F","A2TLN8489YGY81","3S829FDFT2NBOHQMM1CIOU0HZYXDXL","","","img/flower4.png","74","531","1","1","1","",""
"null","","html-keyboard-response","63","313202","0.0-63.0","3A1COHJ8NKH47GSARROIOZUA4TXH8F","A2TLN8489YGY81","3S829FDFT2NBOHQMM1CIOU0HZYXDXL","","","<img src=""img/flower4.png"" style=""width:200px; border:14px solid green;"">","null","","","","","",""
"61468.80000000447","","instructions","64","374671","0.0-64.0","3A1COHJ8NKH47GSARROIOZUA4TXH8F","A2TLN8489YGY81","3S829FDFT2NBOHQMM1CIOU0HZYXDXL","","[{""page_index"":0,""viewing_time"":43210.20000000298},{""page_index"":1,""viewing_time"":18258.29999999702}]","","","","","","","",""
"1053.6000000014901","","image-keyboard-response","65","375726","0.0-65.0","3A1COHJ8NKH47GSARROIOZUA4TXH8F","A2TLN8489YGY81","3S829FDFT2NBOHQMM1CIOU0HZYXDXL","","","img/flower6.png","76","1054.7000000029802","3","1","3","",""
"null","","html-keyboard-response","66","376043","0.0-66.0","3A1COHJ8NKH47GSARROIOZUA4TXH8F","A2TLN8489YGY81","3S829FDFT2NBOHQMM1CIOU0HZYXDXL","","","<img src=""img/flower6.png"" style=""width:200px; border:14px solid green;"">","null","","","","","",""
"887.7000000029802","","image-keyboard-response","67","376931","0.0-67.0","3A1COHJ8NKH47GSARROIOZUA4TXH8F","A2TLN8489YGY81","3S829FDFT2NBOHQMM1CIOU0HZYXDXL","","","img/flower5.png","75","888.5999999940395","2","1","2","",""
"null","","html-keyboard-response","68","377244","0.0-68.0","3A1COHJ8NKH47GSARROIOZUA4TXH8F","A2TLN8489YGY81","3S829FDFT2NBOHQMM1CIOU0HZYXDXL","","","<img src=""img/flower5.png"" style=""width:200px; border:14px solid green;"">","null","","","","","",""
"663.6000000014901","","image-keyboard-response","69","377909","0.0-69.0","3A1COHJ8NKH47GSARROIOZUA4TXH8F","A2TLN8489YGY81","3S829FDFT2NBOHQMM1CIOU0HZYXDXL","","","img/flower6.png","76","664.4000000059605","3","1","3","",""
"null","","html-keyboard-response","70","378217","0.0-70.0","3A1COHJ8NKH47GSARROIOZUA4TXH8F","A2TLN8489YGY81","3S829FDFT2NBOHQMM1CIOU0HZYXDXL","","","<img src=""img/flower6.png"" style=""width:200px; border:14px solid green;"">","null","","","","","",""
"763.8000000044703","","image-keyboard-response","71","378982","0.0-71.0","3A1COHJ8NKH47GSARROIOZUA4TXH8F","A2TLN8489YGY81","3S829FDFT2NBOHQMM1CIOU0HZYXDXL","","","img/flower4.png","74","764.6000000014901","1","1","1","",""
"null","","html-keyboard-response","72","379293","0.0-72.0","3A1COHJ8NKH47GSARROIOZUA4TXH8F","A2TLN8489YGY81","3S829FDFT2NBOHQMM1CIOU0HZYXDXL","","","<img src=""img/flower4.png"" style=""width:200px; border:14px solid green;"">","null","","","","","",""
"731.7999999970198","","image-keyboard-response","73","380025","0.0-73.0","3A1COHJ8NKH47GSARROIOZUA4TXH8F","A2TLN8489YGY81","3S829FDFT2NBOHQMM1CIOU0HZYXDXL","","","img/flower5.png","75","732.5","2","1","2","",""
"null","","html-keyboard-response","74","380339","0.0-74.0","3A1COHJ8NKH47GSARROIOZUA4TXH8F","A2TLN8489YGY81","3S829FDFT2NBOHQMM1CIOU0HZYXDXL","","","<img src=""img/flower5.png"" style=""width:200px; border:14px solid green;"">","null","","","","","",""
"484.79999999701977","","image-keyboard-response","75","380824","0.0-75.0","3A1COHJ8NKH47GSARROIOZUA4TXH8F","A2TLN8489YGY81","3S829FDFT2NBOHQMM1CIOU0HZYXDXL","","","img/flower5.png","75","485.5","2","0","2","",""
"null","","html-keyboard-response","76","381134","0.0-76.0","3A1COHJ8NKH47GSARROIOZUA4TXH8F","A2TLN8489YGY81","3S829FDFT2NBOHQMM1CIOU0HZYXDXL","","","<img src=""img/flower5.png"" style=""width:200px;border:14px solid red;"">","null","","","","","",""
"1364.2999999970198","","image-keyboard-response","77","382499","0.0-77.0","3A1COHJ8NKH47GSARROIOZUA4TXH8F","A2TLN8489YGY81","3S829FDFT2NBOHQMM1CIOU0HZYXDXL","","","img/flower4.png","74","1365.3000000044703","1","1","1","",""
"null","","html-keyboard-response","78","382805","0.0-78.0","3A1COHJ8NKH47GSARROIOZUA4TXH8F","A2TLN8489YGY81","3S829FDFT2NBOHQMM1CIOU0HZYXDXL","","","<img src=""img/flower4.png"" style=""width:200px; border:14px solid green;"">","null","","","","","",""
"922.8999999985099","","image-keyboard-response","79","383729","0.0-79.0","3A1COHJ8NKH47GSARROIOZUA4TXH8F","A2TLN8489YGY81","3S829FDFT2NBOHQMM1CIOU0HZYXDXL","","","img/flower5.png","75","923.6000000014901","2","1","2","",""
"null","","html-keyboard-response","80","384040","0.0-80.0","3A1COHJ8NKH47GSARROIOZUA4TXH8F","A2TLN8489YGY81","3S829FDFT2NBOHQMM1CIOU0HZYXDXL","","","<img src=""img/flower5.png"" style=""width:200px; border:14px solid green;"">","null","","","","","",""
"570.5","","image-keyboard-response","81","384611","0.0-81.0","3A1COHJ8NKH47GSARROIOZUA4TXH8F","A2TLN8489YGY81","3S829FDFT2NBOHQMM1CIOU0HZYXDXL","","","img/flower5.png","75","571.6000000014901","2","0","2","",""
"null","","html-keyboard-response","82","384926","0.0-82.0","3A1COHJ8NKH47GSARROIOZUA4TXH8F","A2TLN8489YGY81","3S829FDFT2NBOHQMM1CIOU0HZYXDXL","","","<img src=""img/flower5.png"" style=""width:200px;border:14px solid red;"">","null","","","","","",""
"810.8000000044703","","image-keyboard-response","83","385738","0.0-83.0","3A1COHJ8NKH47GSARROIOZUA4TXH8F","A2TLN8489YGY81","3S829FDFT2NBOHQMM1CIOU0HZYXDXL","","","img/flower6.png","76","811.6000000014901","3","1","3","",""
"null","","html-keyboard-response","84","386048","0.0-84.0","3A1COHJ8NKH47GSARROIOZUA4TXH8F","A2TLN8489YGY81","3S829FDFT2NBOHQMM1CIOU0HZYXDXL","","","<img src=""img/flower6.png"" style=""width:200px; border:14px solid green;"">","null","","","","","",""
"828.3000000044703","","image-keyboard-response","85","386877","0.0-85.0","3A1COHJ8NKH47GSARROIOZUA4TXH8F","A2TLN8489YGY81","3S829FDFT2NBOHQMM1CIOU0HZYXDXL","","","img/flower4.png","74","829.0999999940395","1","0","1","",""
"null","","html-keyboard-response","86","387186","0.0-86.0","3A1COHJ8NKH47GSARROIOZUA4TXH8F","A2TLN8489YGY81","3S829FDFT2NBOHQMM1CIOU0HZYXDXL","","","<img src=""img/flower4.png"" style=""width:200px;border:14px solid red;"">","null","","","","","",""
"945.3999999985099","","image-keyboard-response","87","388133","0.0-87.0","3A1COHJ8NKH47GSARROIOZUA4TXH8F","A2TLN8489YGY81","3S829FDFT2NBOHQMM1CIOU0HZYXDXL","","","img/flower6.png","76","946.2000000029802","3","0","3","",""
"null","","html-keyboard-response","88","388436","0.0-88.0","3A1COHJ8NKH47GSARROIOZUA4TXH8F","A2TLN8489YGY81","3S829FDFT2NBOHQMM1CIOU0HZYXDXL","","","<img src=""img/flower6.png"" style=""width:200px;border:14px solid red;"">","null","","","","","",""
"1054.6000000014901","","image-keyboard-response","89","389492","0.0-89.0","3A1COHJ8NKH47GSARROIOZUA4TXH8F","A2TLN8489YGY81","3S829FDFT2NBOHQMM1CIOU0HZYXDXL","","","img/flower5.png","75","1055.4000000059605","2","1","2","",""
"null","","html-keyboard-response","90","389803","0.0-90.0","3A1COHJ8NKH47GSARROIOZUA4TXH8F","A2TLN8489YGY81","3S829FDFT2NBOHQMM1CIOU0HZYXDXL","","","<img src=""img/flower5.png"" style=""width:200px; border:14px solid green;"">","null","","","","","",""
"847.8999999985099","","image-keyboard-response","91","390652","0.0-91.0","3A1COHJ8NKH47GSARROIOZUA4TXH8F","A2TLN8489YGY81","3S829FDFT2NBOHQMM1CIOU0HZYXDXL","","","img/flower4.png","74","848.8999999985099","1","0","1","",""
"null","","html-keyboard-response","92","390958","0.0-92.0","3A1COHJ8NKH47GSARROIOZUA4TXH8F","A2TLN8489YGY81","3S829FDFT2NBOHQMM1CIOU0HZYXDXL","","","<img src=""img/flower4.png"" style=""width:200px;border:14px solid red;"">","null","","","","","",""
"926.5","","image-keyboard-response","93","391886","0.0-93.0","3A1COHJ8NKH47GSARROIOZUA4TXH8F","A2TLN8489YGY81","3S829FDFT2NBOHQMM1CIOU0HZYXDXL","","","img/flower6.png","76","927.6000000014901","3","0","3","",""
"null","","html-keyboard-response","94","392192","0.0-94.0","3A1COHJ8NKH47GSARROIOZUA4TXH8F","A2TLN8489YGY81","3S829FDFT2NBOHQMM1CIOU0HZYXDXL","","","<img src=""img/flower6.png"" style=""width:200px;border:14px solid red;"">","null","","","","","",""
"1172.6000000014901","","image-keyboard-response","95","393366","0.0-95.0","3A1COHJ8NKH47GSARROIOZUA4TXH8F","A2TLN8489YGY81","3S829FDFT2NBOHQMM1CIOU0HZYXDXL","","","img/flower4.png","74","1173.2000000029802","1","1","1","",""
"null","","html-keyboard-response","96","393682","0.0-96.0","3A1COHJ8NKH47GSARROIOZUA4TXH8F","A2TLN8489YGY81","3S829FDFT2NBOHQMM1CIOU0HZYXDXL","","","<img src=""img/flower4.png"" style=""width:200px; border:14px solid green;"">","null","","","","","",""
"1008.2000000029802","","image-keyboard-response","97","394691","0.0-97.0","3A1COHJ8NKH47GSARROIOZUA4TXH8F","A2TLN8489YGY81","3S829FDFT2NBOHQMM1CIOU0HZYXDXL","","","img/flower6.png","76","1009.2000000029802","3","0","3","",""
"null","","html-keyboard-response","98","395007","0.0-98.0","3A1COHJ8NKH47GSARROIOZUA4TXH8F","A2TLN8489YGY81","3S829FDFT2NBOHQMM1CIOU0HZYXDXL","","","<img src=""img/flower6.png"" style=""width:200px;border:14px solid red;"">","null","","","","","",""
"722.8000000044703","","image-keyboard-response","99","395731","0.0-99.0","3A1COHJ8NKH47GSARROIOZUA4TXH8F","A2TLN8489YGY81","3S829FDFT2NBOHQMM1CIOU0HZYXDXL","","","img/flower6.png","76","723.5","3","1","3","",""
"null","","html-keyboard-response","100","396035","0.0-100.0","3A1COHJ8NKH47GSARROIOZUA4TXH8F","A2TLN8489YGY81","3S829FDFT2NBOHQMM1CIOU0HZYXDXL","","","<img src=""img/flower6.png"" style=""width:200px; border:14px solid green;"">","null","","","","","",""
"809.3999999985099","","image-keyboard-response","101","396845","0.0-101.0","3A1COHJ8NKH47GSARROIOZUA4TXH8F","A2TLN8489YGY81","3S829FDFT2NBOHQMM1CIOU0HZYXDXL","","","img/flower6.png","76","810.1999999955297","3","1","3","",""
"null","","html-keyboard-response","102","397160","0.0-102.0","3A1COHJ8NKH47GSARROIOZUA4TXH8F","A2TLN8489YGY81","3S829FDFT2NBOHQMM1CIOU0HZYXDXL","","","<img src=""img/flower6.png"" style=""width:200px; border:14px solid green;"">","null","","","","","",""
"1030.7000000029802","","image-keyboard-response","103","398192","0.0-103.0","3A1COHJ8NKH47GSARROIOZUA4TXH8F","A2TLN8489YGY81","3S829FDFT2NBOHQMM1CIOU0HZYXDXL","","","img/flower4.png","74","1031.5","1","1","1","",""
"null","","html-keyboard-response","104","398504","0.0-104.0","3A1COHJ8NKH47GSARROIOZUA4TXH8F","A2TLN8489YGY81","3S829FDFT2NBOHQMM1CIOU0HZYXDXL","","","<img src=""img/flower4.png"" style=""width:200px; border:14px solid green;"">","null","","","","","",""
"925.3999999985099","","image-keyboard-response","105","399430","0.0-105.0","3A1COHJ8NKH47GSARROIOZUA4TXH8F","A2TLN8489YGY81","3S829FDFT2NBOHQMM1CIOU0HZYXDXL","","","img/flower6.png","76","926.2999999970198","3","0","3","",""
"null","","html-keyboard-response","106","399741","0.0-106.0","3A1COHJ8NKH47GSARROIOZUA4TXH8F","A2TLN8489YGY81","3S829FDFT2NBOHQMM1CIOU0HZYXDXL","","","<img src=""img/flower6.png"" style=""width:200px;border:14px solid red;"">","null","","","","","",""
"1076.7000000029802","","image-keyboard-response","107","400818","0.0-107.0","3A1COHJ8NKH47GSARROIOZUA4TXH8F","A2TLN8489YGY81","3S829FDFT2NBOHQMM1CIOU0HZYXDXL","","","img/flower4.png","74","1077.3999999985099","1","1","1","",""
"null","","html-keyboard-response","108","401120","0.0-108.0","3A1COHJ8NKH47GSARROIOZUA4TXH8F","A2TLN8489YGY81","3S829FDFT2NBOHQMM1CIOU0HZYXDXL","","","<img src=""img/flower4.png"" style=""width:200px; border:14px solid green;"">","null","","","","","",""
"603.8999999985099","","image-keyboard-response","109","401725","0.0-109.0","3A1COHJ8NKH47GSARROIOZUA4TXH8F","A2TLN8489YGY81","3S829FDFT2NBOHQMM1CIOU0HZYXDXL","","","img/flower4.png","74","604.8000000044703","1","1","1","",""
"null","","html-keyboard-response","110","402028","0.0-110.0","3A1COHJ8NKH47GSARROIOZUA4TXH8F","A2TLN8489YGY81","3S829FDFT2NBOHQMM1CIOU0HZYXDXL","","","<img src=""img/flower4.png"" style=""width:200px; border:14px solid green;"">","null","","","","","",""
"760.8999999985099","","image-keyboard-response","111","402790","0.0-111.0","3A1COHJ8NKH47GSARROIOZUA4TXH8F","A2TLN8489YGY81","3S829FDFT2NBOHQMM1CIOU0HZYXDXL","","","img/flower5.png","75","761.7000000029802","2","1","2","",""
"null","","html-keyboard-response","112","403100","0.0-112.0","3A1COHJ8NKH47GSARROIOZUA4TXH8F","A2TLN8489YGY81","3S829FDFT2NBOHQMM1CIOU0HZYXDXL","","","<img src=""img/flower5.png"" style=""width:200px; border:14px solid green;"">","null","","","","","",""
"852.2000000029802","","image-keyboard-response","113","403954","0.0-113.0","3A1COHJ8NKH47GSARROIOZUA4TXH8F","A2TLN8489YGY81","3S829FDFT2NBOHQMM1CIOU0HZYXDXL","","","img/flower4.png","74","853.1999999955297","1","1","1","",""
"null","","html-keyboard-response","114","404266","0.0-114.0","3A1COHJ8NKH47GSARROIOZUA4TXH8F","A2TLN8489YGY81","3S829FDFT2NBOHQMM1CIOU0HZYXDXL","","","<img src=""img/flower4.png"" style=""width:200px; border:14px solid green;"">","null","","","","","",""
"1095.8000000044703","","image-keyboard-response","115","405363","0.0-115.0","3A1COHJ8NKH47GSARROIOZUA4TXH8F","A2TLN8489YGY81","3S829FDFT2NBOHQMM1CIOU0HZYXDXL","","","img/flower5.png","75","1096.7000000029802","2","0","2","",""
"null","","html-keyboard-response","116","405677","0.0-116.0","3A1COHJ8NKH47GSARROIOZUA4TXH8F","A2TLN8489YGY81","3S829FDFT2NBOHQMM1CIOU0HZYXDXL","","","<img src=""img/flower5.png"" style=""width:200px;border:14px solid red;"">","null","","","","","",""
"517","","image-keyboard-response","117","406195","0.0-117.0","3A1COHJ8NKH47GSARROIOZUA4TXH8F","A2TLN8489YGY81","3S829FDFT2NBOHQMM1CIOU0HZYXDXL","","","img/flower5.png","75","517.9000000059605","2","1","2","",""
"null","","html-keyboard-response","118","406509","0.0-118.0","3A1COHJ8NKH47GSARROIOZUA4TXH8F","A2TLN8489YGY81","3S829FDFT2NBOHQMM1CIOU0HZYXDXL","","","<img src=""img/flower5.png"" style=""width:200px; border:14px solid green;"">","null","","","","","",""
"840.8000000044703","","image-keyboard-response","119","407350","0.0-119.0","3A1COHJ8NKH47GSARROIOZUA4TXH8F","A2TLN8489YGY81","3S829FDFT2NBOHQMM1CIOU0HZYXDXL","","","img/flower4.png","74","841.6000000014901","1","0","1","",""
"null","","html-keyboard-response","120","407666","0.0-120.0","3A1COHJ8NKH47GSARROIOZUA4TXH8F","A2TLN8489YGY81","3S829FDFT2NBOHQMM1CIOU0HZYXDXL","","","<img src=""img/flower4.png"" style=""width:200px;border:14px solid red;"">","null","","","","","",""
"822.6000000014901","","image-keyboard-response","121","408490","0.0-121.0","3A1COHJ8NKH47GSARROIOZUA4TXH8F","A2TLN8489YGY81","3S829FDFT2NBOHQMM1CIOU0HZYXDXL","","","img/flower6.png","76","823.6000000014901","3","1","3","",""
"null","","html-keyboard-response","122","408795","0.0-122.0","3A1COHJ8NKH47GSARROIOZUA4TXH8F","A2TLN8489YGY81","3S829FDFT2NBOHQMM1CIOU0HZYXDXL","","","<img src=""img/flower6.png"" style=""width:200px; border:14px solid green;"">","null","","","","","",""
"832.8999999985099","","image-keyboard-response","123","409629","0.0-123.0","3A1COHJ8NKH47GSARROIOZUA4TXH8F","A2TLN8489YGY81","3S829FDFT2NBOHQMM1CIOU0HZYXDXL","","","img/flower5.png","75","833.7000000029802","2","1","2","",""
"null","","html-keyboard-response","124","409935","0.0-124.0","3A1COHJ8NKH47GSARROIOZUA4TXH8F","A2TLN8489YGY81","3S829FDFT2NBOHQMM1CIOU0HZYXDXL","","","<img src=""img/flower5.png"" style=""width:200px; border:14px solid green;"">","null","","","","","",""
"3197.5","","instructions","125","413134","0.0-125.0","3A1COHJ8NKH47GSARROIOZUA4TXH8F","A2TLN8489YGY81","3S829FDFT2NBOHQMM1CIOU0HZYXDXL","","[{""page_index"":0,""viewing_time"":3197.2000000029802}]","","","","","","","",""
"1507.5","","image-keyboard-response","126","414642","0.0-126.0","3A1COHJ8NKH47GSARROIOZUA4TXH8F","A2TLN8489YGY81","3S829FDFT2NBOHQMM1CIOU0HZYXDXL","","","img/flower2.png","74","1508.3999999985099","1","1","1","0.6,0.6,0,0,0.6,0.6,0.6,0,0.6",""
"null","","html-keyboard-response","127","414948","0.0-127.0","3A1COHJ8NKH47GSARROIOZUA4TXH8F","A2TLN8489YGY81","3S829FDFT2NBOHQMM1CIOU0HZYXDXL","","","<img src=""img/flower2.png"" style=""width:200px; border:14px solid green;"">","null","","","","","",""
"1126.6000000014901","","image-keyboard-response","128","416076","0.0-128.0","3A1COHJ8NKH47GSARROIOZUA4TXH8F","A2TLN8489YGY81","3S829FDFT2NBOHQMM1CIOU0HZYXDXL","","","img/flower6.png","76","1127.5","3","1","3","0.6,0.6,0,0,0.6,0.6,0.6,0,0.6",""
"null","","html-keyboard-response","129","416385","0.0-129.0","3A1COHJ8NKH47GSARROIOZUA4TXH8F","A2TLN8489YGY81","3S829FDFT2NBOHQMM1CIOU0HZYXDXL","","","<img src=""img/flower6.png"" style=""width:200px; border:14px solid green;"">","null","","","","","",""
"1600.7999999970198","","image-keyboard-response","130","417987","0.0-130.0","3A1COHJ8NKH47GSARROIOZUA4TXH8F","A2TLN8489YGY81","3S829FDFT2NBOHQMM1CIOU0HZYXDXL","","","img/flower9.png","75","1601.8000000044703","2","0","2","0.6,0.6,0,0,0.6,0.6,0.6,0,0.6",""
"null","","html-keyboard-response","131","418294","0.0-131.0","3A1COHJ8NKH47GSARROIOZUA4TXH8F","A2TLN8489YGY81","3S829FDFT2NBOHQMM1CIOU0HZYXDXL","","","<img src=""img/flower9.png"" style=""width:200px;border:14px solid red;"">","null","","","","","",""
"1411.6000000014901","","image-keyboard-response","132","419707","0.0-132.0","3A1COHJ8NKH47GSARROIOZUA4TXH8F","A2TLN8489YGY81","3S829FDFT2NBOHQMM1CIOU0HZYXDXL","","","img/flower2.png","74","1412.5999999940395","1","0","1","0.6,0.6,0,0,0.6,0.6,0.6,0,0.6",""
"null","","html-keyboard-response","133","420012","0.0-133.0","3A1COHJ8NKH47GSARROIOZUA4TXH8F","A2TLN8489YGY81","3S829FDFT2NBOHQMM1CIOU0HZYXDXL","","","<img src=""img/flower2.png"" style=""width:200px;border:14px solid red;"">","null","","","","","",""
"1103.1999999955297","","image-keyboard-response","134","421116","0.0-134.0","3A1COHJ8NKH47GSARROIOZUA4TXH8F","A2TLN8489YGY81","3S829FDFT2NBOHQMM1CIOU0HZYXDXL","","","img/flower2.png","74","1104","1","1","1","0.6,0.6,0,0,0.6,0.6,0.6,0,0.6",""
"null","","html-keyboard-response","135","421418","0.0-135.0","3A1COHJ8NKH47GSARROIOZUA4TXH8F","A2TLN8489YGY81","3S829FDFT2NBOHQMM1CIOU0HZYXDXL","","","<img src=""img/flower2.png"" style=""width:200px; border:14px solid green;"">","null","","","","","",""
"868.7999999970198","","image-keyboard-response","136","422288","0.0-136.0","3A1COHJ8NKH47GSARROIOZUA4TXH8F","A2TLN8489YGY81","3S829FDFT2NBOHQMM1CIOU0HZYXDXL","","","img/flower2.png","74","869.6000000014901","1","1","1","0.6,0.6,0,0,0.6,0.6,0.6,0,0.6",""
"null","","html-keyboard-response","137","422599","0.0-137.0","3A1COHJ8NKH47GSARROIOZUA4TXH8F","A2TLN8489YGY81","3S829FDFT2NBOHQMM1CIOU0HZYXDXL","","","<img src=""img/flower2.png"" style=""width:200px; border:14px solid green;"">","null","","","","","",""
"810.5","","image-keyboard-response","138","423411","0.0-138.0","3A1COHJ8NKH47GSARROIOZUA4TXH8F","A2TLN8489YGY81","3S829FDFT2NBOHQMM1CIOU0HZYXDXL","","","img/flower2.png","74","811.3000000044703","1","0","1","0.6,0.6,0,0,0.6,0.6,0.6,0,0.6",""
"null","","html-keyboard-response","139","423719","0.0-139.0","3A1COHJ8NKH47GSARROIOZUA4TXH8F","A2TLN8489YGY81","3S829FDFT2NBOHQMM1CIOU0HZYXDXL","","","<img src=""img/flower2.png"" style=""width:200px;border:14px solid red;"">","null","","","","","",""
"979.7999999970198","","image-keyboard-response","140","424700","0.0-140.0","3A1COHJ8NKH47GSARROIOZUA4TXH8F","A2TLN8489YGY81","3S829FDFT2NBOHQMM1CIOU0HZYXDXL","","","img/flower6.png","76","980.7000000029802","3","0","3","0.6,0.6,0,0,0.6,0.6,0.6,0,0.6",""
"null","","html-keyboard-response","141","425002","0.0-141.0","3A1COHJ8NKH47GSARROIOZUA4TXH8F","A2TLN8489YGY81","3S829FDFT2NBOHQMM1CIOU0HZYXDXL","","","<img src=""img/flower6.png"" style=""width:200px;border:14px solid red;"">","null","","","","","",""
"1337.8000000044703","","image-keyboard-response","142","426340","0.0-142.0","3A1COHJ8NKH47GSARROIOZUA4TXH8F","A2TLN8489YGY81","3S829FDFT2NBOHQMM1CIOU0HZYXDXL","","","img/flower9.png","75","1338.5","2","1","2","0.6,0.6,0,0,0.6,0.6,0.6,0,0.6",""
"null","","html-keyboard-response","143","426649","0.0-143.0","3A1COHJ8NKH47GSARROIOZUA4TXH8F","A2TLN8489YGY81","3S829FDFT2NBOHQMM1CIOU0HZYXDXL","","","<img src=""img/flower9.png"" style=""width:200px; border:14px solid green;"">","null","","","","","",""
"805.1000000014901","","image-keyboard-response","144","427455","0.0-144.0","3A1COHJ8NKH47GSARROIOZUA4TXH8F","A2TLN8489YGY81","3S829FDFT2NBOHQMM1CIOU0HZYXDXL","","","img/flower9.png","75","805.8999999985099","2","1","2","0.6,0.6,0,0,0.6,0.6,0.6,0,0.6",""
"null","","html-keyboard-response","145","427764","0.0-145.0","3A1COHJ8NKH47GSARROIOZUA4TXH8F","A2TLN8489YGY81","3S829FDFT2NBOHQMM1CIOU0HZYXDXL","","","<img src=""img/flower9.png"" style=""width:200px; border:14px solid green;"">","null","","","","","",""
"846.0999999940395","","image-keyboard-response","146","428611","0.0-146.0","3A1COHJ8NKH47GSARROIOZUA4TXH8F","A2TLN8489YGY81","3S829FDFT2NBOHQMM1CIOU0HZYXDXL","","","img/flower6.png","76","847","3","0","3","0.6,0.6,0,0,0.6,0.6,0.6,0,0.6",""
"null","","html-keyboard-response","147","428912","0.0-147.0","3A1COHJ8NKH47GSARROIOZUA4TXH8F","A2TLN8489YGY81","3S829FDFT2NBOHQMM1CIOU0HZYXDXL","","","<img src=""img/flower6.png"" style=""width:200px;border:14px solid red;"">","null","","","","","",""
"492.1000000014901","","image-keyboard-response","148","429405","0.0-148.0","3A1COHJ8NKH47GSARROIOZUA4TXH8F","A2TLN8489YGY81","3S829FDFT2NBOHQMM1CIOU0HZYXDXL","","","img/flower6.png","76","492.79999999701977","3","0","3","0.6,0.6,0,0,0.6,0.6,0.6,0,0.6",""
"null","","html-keyboard-response","149","429711","0.0-149.0","3A1COHJ8NKH47GSARROIOZUA4TXH8F","A2TLN8489YGY81","3S829FDFT2NBOHQMM1CIOU0HZYXDXL","","","<img src=""img/flower6.png"" style=""width:200px;border:14px solid red;"">","null","","","","","",""
"724.2000000029802","","image-keyboard-response","150","430437","0.0-150.0","3A1COHJ8NKH47GSARROIOZUA4TXH8F","A2TLN8489YGY81","3S829FDFT2NBOHQMM1CIOU0HZYXDXL","","","img/flower2.png","74","725","1","0","1","0.6,0.6,0,0,0.6,0.6,0.6,0,0.6",""
"null","","html-keyboard-response","151","430741","0.0-151.0","3A1COHJ8NKH47GSARROIOZUA4TXH8F","A2TLN8489YGY81","3S829FDFT2NBOHQMM1CIOU0HZYXDXL","","","<img src=""img/flower2.png"" style=""width:200px;border:14px solid red;"">","null","","","","","",""
"440.30000000447035","","image-keyboard-response","152","431182","0.0-152.0","3A1COHJ8NKH47GSARROIOZUA4TXH8F","A2TLN8489YGY81","3S829FDFT2NBOHQMM1CIOU0HZYXDXL","","","img/flower2.png","74","441.20000000298023","1","1","1","0.6,0.6,0,0,0.6,0.6,0.6,0,0.6",""
"null","","html-keyboard-response","153","431490","0.0-153.0","3A1COHJ8NKH47GSARROIOZUA4TXH8F","A2TLN8489YGY81","3S829FDFT2NBOHQMM1CIOU0HZYXDXL","","","<img src=""img/flower2.png"" style=""width:200px; border:14px solid green;"">","null","","","","","",""
"693","","image-keyboard-response","154","432184","0.0-154.0","3A1COHJ8NKH47GSARROIOZUA4TXH8F","A2TLN8489YGY81","3S829FDFT2NBOHQMM1CIOU0HZYXDXL","","","img/flower2.png","74","693.7000000029802","1","1","1","0.6,0.6,0,0,0.6,0.6,0.6,0,0.6",""
"null","","html-keyboard-response","155","432498","0.0-155.0","3A1COHJ8NKH47GSARROIOZUA4TXH8F","A2TLN8489YGY81","3S829FDFT2NBOHQMM1CIOU0HZYXDXL","","","<img src=""img/flower2.png"" style=""width:200px; border:14px solid green;"">","null","","","","","",""
"703.7000000029802","","image-keyboard-response","156","433203","0.0-156.0","3A1COHJ8NKH47GSARROIOZUA4TXH8F","A2TLN8489YGY81","3S829FDFT2NBOHQMM1CIOU0HZYXDXL","","","img/flower2.png","74","704.6000000014901","1","0","1","0.6,0.6,0,0,0.6,0.6,0.6,0,0.6",""
"null","","html-keyboard-response","157","433505","0.0-157.0","3A1COHJ8NKH47GSARROIOZUA4TXH8F","A2TLN8489YGY81","3S829FDFT2NBOHQMM1CIOU0HZYXDXL","","","<img src=""img/flower2.png"" style=""width:200px;border:14px solid red;"">","null","","","","","",""
"918.8000000044703","","image-keyboard-response","158","434425","0.0-158.0","3A1COHJ8NKH47GSARROIOZUA4TXH8F","A2TLN8489YGY81","3S829FDFT2NBOHQMM1CIOU0HZYXDXL","","","img/flower6.png","76","919.6000000014901","3","1","3","0.6,0.6,0,0,0.6,0.6,0.6,0,0.6",""
"null","","html-keyboard-response","159","434733","0.0-159.0","3A1COHJ8NKH47GSARROIOZUA4TXH8F","A2TLN8489YGY81","3S829FDFT2NBOHQMM1CIOU0HZYXDXL","","","<img src=""img/flower6.png"" style=""width:200px; border:14px solid green;"">","null","","","","","",""
"668.3999999985099","","image-keyboard-response","160","435403","0.0-160.0","3A1COHJ8NKH47GSARROIOZUA4TXH8F","A2TLN8489YGY81","3S829FDFT2NBOHQMM1CIOU0HZYXDXL","","","img/flower6.png","76","669.4000000059605","3","1","3","0.6,0.6,0,0,0.6,0.6,0.6,0,0.6",""
"null","","html-keyboard-response","161","435716","0.0-161.0","3A1COHJ8NKH47GSARROIOZUA4TXH8F","A2TLN8489YGY81","3S829FDFT2NBOHQMM1CIOU0HZYXDXL","","","<img src=""img/flower6.png"" style=""width:200px; border:14px solid green;"">","null","","","","","",""
"949.3999999985099","","image-keyboard-response","162","436666","0.0-162.0","3A1COHJ8NKH47GSARROIOZUA4TXH8F","A2TLN8489YGY81","3S829FDFT2NBOHQMM1CIOU0HZYXDXL","","","img/flower9.png","75","951.1999999955297","2","1","2","0.6,0.6,0,0,0.6,0.6,0.6,0,0.6",""
"null","","html-keyboard-response","163","436981","0.0-163.0","3A1COHJ8NKH47GSARROIOZUA4TXH8F","A2TLN8489YGY81","3S829FDFT2NBOHQMM1CIOU0HZYXDXL","","","<img src=""img/flower9.png"" style=""width:200px; border:14px solid green;"">","null","","","","","",""
"865.2000000029802","","image-keyboard-response","164","437847","0.0-164.0","3A1COHJ8NKH47GSARROIOZUA4TXH8F","A2TLN8489YGY81","3S829FDFT2NBOHQMM1CIOU0HZYXDXL","","","img/flower6.png","76","865.8999999985099","3","1","3","0.6,0.6,0,0,0.6,0.6,0.6,0,0.6",""
"null","","html-keyboard-response","165","438152","0.0-165.0","3A1COHJ8NKH47GSARROIOZUA4TXH8F","A2TLN8489YGY81","3S829FDFT2NBOHQMM1CIOU0HZYXDXL","","","<img src=""img/flower6.png"" style=""width:200px; border:14px solid green;"">","null","","","","","",""
"642.7999999970198","","image-keyboard-response","166","438795","0.0-166.0","3A1COHJ8NKH47GSARROIOZUA4TXH8F","A2TLN8489YGY81","3S829FDFT2NBOHQMM1CIOU0HZYXDXL","","","img/flower6.png","76","643.5","3","0","3","0.6,0.6,0,0,0.6,0.6,0.6,0,0.6",""
"null","","html-keyboard-response","167","439102","0.0-167.0","3A1COHJ8NKH47GSARROIOZUA4TXH8F","A2TLN8489YGY81","3S829FDFT2NBOHQMM1CIOU0HZYXDXL","","","<img src=""img/flower6.png"" style=""width:200px;border:14px solid red;"">","null","","","","","",""
"831.3999999985099","","image-keyboard-response","168","439935","0.0-168.0","3A1COHJ8NKH47GSARROIOZUA4TXH8F","A2TLN8489YGY81","3S829FDFT2NBOHQMM1CIOU0HZYXDXL","","","img/flower9.png","75","832.2999999970198","2","1","2","0.6,0.6,0,0,0.6,0.6,0.6,0,0.6",""
"null","","html-keyboard-response","169","440245","0.0-169.0","3A1COHJ8NKH47GSARROIOZUA4TXH8F","A2TLN8489YGY81","3S829FDFT2NBOHQMM1CIOU0HZYXDXL","","","<img src=""img/flower9.png"" style=""width:200px; border:14px solid green;"">","null","","","","","",""
"641.2999999970198","","image-keyboard-response","170","440887","0.0-170.0","3A1COHJ8NKH47GSARROIOZUA4TXH8F","A2TLN8489YGY81","3S829FDFT2NBOHQMM1CIOU0HZYXDXL","","","img/flower9.png","75","642","2","0","2","0.6,0.6,0,0,0.6,0.6,0.6,0,0.6",""
"null","","html-keyboard-response","171","441204","0.0-171.0","3A1COHJ8NKH47GSARROIOZUA4TXH8F","A2TLN8489YGY81","3S829FDFT2NBOHQMM1CIOU0HZYXDXL","","","<img src=""img/flower9.png"" style=""width:200px;border:14px solid red;"">","null","","","","","",""
"601.3999999985099","","image-keyboard-response","172","441806","0.0-172.0","3A1COHJ8NKH47GSARROIOZUA4TXH8F","A2TLN8489YGY81","3S829FDFT2NBOHQMM1CIOU0HZYXDXL","","","img/flower9.png","75","602.2000000029802","2","0","2","0.6,0.6,0,0,0.6,0.6,0.6,0,0.6",""
"null","","html-keyboard-response","173","442109","0.0-173.0","3A1COHJ8NKH47GSARROIOZUA4TXH8F","A2TLN8489YGY81","3S829FDFT2NBOHQMM1CIOU0HZYXDXL","","","<img src=""img/flower9.png"" style=""width:200px;border:14px solid red;"">","null","","","","","",""
"702.6000000014901","","image-keyboard-response","174","442813","0.0-174.0","3A1COHJ8NKH47GSARROIOZUA4TXH8F","A2TLN8489YGY81","3S829FDFT2NBOHQMM1CIOU0HZYXDXL","","","img/flower2.png","74","703.7000000029802","1","0","1","0.6,0.6,0,0,0.6,0.6,0.6,0,0.6",""
"null","","html-keyboard-response","175","443125","0.0-175.0","3A1COHJ8NKH47GSARROIOZUA4TXH8F","A2TLN8489YGY81","3S829FDFT2NBOHQMM1CIOU0HZYXDXL","","","<img src=""img/flower2.png"" style=""width:200px;border:14px solid red;"">","null","","","","","",""
"481.5","","image-keyboard-response","176","443608","0.0-176.0","3A1COHJ8NKH47GSARROIOZUA4TXH8F","A2TLN8489YGY81","3S829FDFT2NBOHQMM1CIOU0HZYXDXL","","","img/flower2.png","74","482.3999999985099","1","1","1","0.6,0.6,0,0,0.6,0.6,0.6,0,0.6",""
"null","","html-keyboard-response","177","443924","0.0-177.0","3A1COHJ8NKH47GSARROIOZUA4TXH8F","A2TLN8489YGY81","3S829FDFT2NBOHQMM1CIOU0HZYXDXL","","","<img src=""img/flower2.png"" style=""width:200px; border:14px solid green;"">","null","","","","","",""
"855.2999999970198","","image-keyboard-response","178","444780","0.0-178.0","3A1COHJ8NKH47GSARROIOZUA4TXH8F","A2TLN8489YGY81","3S829FDFT2NBOHQMM1CIOU0HZYXDXL","","","img/flower6.png","76","856.1999999955297","3","1","3","0.6,0.6,0,0,0.6,0.6,0.6,0,0.6",""
"null","","html-keyboard-response","179","445094","0.0-179.0","3A1COHJ8NKH47GSARROIOZUA4TXH8F","A2TLN8489YGY81","3S829FDFT2NBOHQMM1CIOU0HZYXDXL","","","<img src=""img/flower6.png"" style=""width:200px; border:14px solid green;"">","null","","","","","",""
"1223.1000000014901","","image-keyboard-response","180","446318","0.0-180.0","3A1COHJ8NKH47GSARROIOZUA4TXH8F","A2TLN8489YGY81","3S829FDFT2NBOHQMM1CIOU0HZYXDXL","","","img/flower9.png","75","1223.8999999985099","2","0","2","0.6,0.6,0,0,0.6,0.6,0.6,0,0.6",""
"null","","html-keyboard-response","181","446621","0.0-181.0","3A1COHJ8NKH47GSARROIOZUA4TXH8F","A2TLN8489YGY81","3S829FDFT2NBOHQMM1CIOU0HZYXDXL","","","<img src=""img/flower9.png"" style=""width:200px;border:14px solid red;"">","null","","","","","",""
"988.6000000014901","","image-keyboard-response","182","447611","0.0-182.0","3A1COHJ8NKH47GSARROIOZUA4TXH8F","A2TLN8489YGY81","3S829FDFT2NBOHQMM1CIOU0HZYXDXL","","","img/flower2.png","74","989.5","1","1","1","0.6,0.6,0,0,0.6,0.6,0.6,0,0.6",""
"null","","html-keyboard-response","183","447923","0.0-183.0","3A1COHJ8NKH47GSARROIOZUA4TXH8F","A2TLN8489YGY81","3S829FDFT2NBOHQMM1CIOU0HZYXDXL","","","<img src=""img/flower2.png"" style=""width:200px; border:14px solid green;"">","null","","","","","",""
"792.1000000014901","","image-keyboard-response","184","448717","0.0-184.0","3A1COHJ8NKH47GSARROIOZUA4TXH8F","A2TLN8489YGY81","3S829FDFT2NBOHQMM1CIOU0HZYXDXL","","","img/flower9.png","75","793.1000000014901","2","1","2","0.6,0.6,0,0,0.6,0.6,0.6,0,0.6",""
"null","","html-keyboard-response","185","449026","0.0-185.0","3A1COHJ8NKH47GSARROIOZUA4TXH8F","A2TLN8489YGY81","3S829FDFT2NBOHQMM1CIOU0HZYXDXL","","","<img src=""img/flower9.png"" style=""width:200px; border:14px solid green;"">","null","","","","","",""
"567.1000000014901","","image-keyboard-response","186","449594","0.0-186.0","3A1COHJ8NKH47GSARROIOZUA4TXH8F","A2TLN8489YGY81","3S829FDFT2NBOHQMM1CIOU0HZYXDXL","","","img/flower9.png","75","568","2","0","2","0.6,0.6,0,0,0.6,0.6,0.6,0,0.6",""
"null","","html-keyboard-response","187","449904","0.0-187.0","3A1COHJ8NKH47GSARROIOZUA4TXH8F","A2TLN8489YGY81","3S829FDFT2NBOHQMM1CIOU0HZYXDXL","","","<img src=""img/flower9.png"" style=""width:200px;border:14px solid red;"">","null","","","","","",""
"874.1999999955297","","image-keyboard-response","188","450779","0.0-188.0","3A1COHJ8NKH47GSARROIOZUA4TXH8F","A2TLN8489YGY81","3S829FDFT2NBOHQMM1CIOU0HZYXDXL","","","img/flower6.png","76","874.8999999985099","3","1","3","0.6,0.6,0,0,0.6,0.6,0.6,0,0.6",""
"null","","html-keyboard-response","189","451089","0.0-189.0","3A1COHJ8NKH47GSARROIOZUA4TXH8F","A2TLN8489YGY81","3S829FDFT2NBOHQMM1CIOU0HZYXDXL","","","<img src=""img/flower6.png"" style=""width:200px; border:14px solid green;"">","null","","","","","",""
"795.8999999985099","","image-keyboard-response","190","451885","0.0-190.0","3A1COHJ8NKH47GSARROIOZUA4TXH8F","A2TLN8489YGY81","3S829FDFT2NBOHQMM1CIOU0HZYXDXL","","","img/flower2.png","74","796.7999999970198","1","1","1","0.6,0.6,0,0,0.6,0.6,0.6,0,0.6",""
"null","","html-keyboard-response","191","452188","0.0-191.0","3A1COHJ8NKH47GSARROIOZUA4TXH8F","A2TLN8489YGY81","3S829FDFT2NBOHQMM1CIOU0HZYXDXL","","","<img src=""img/flower2.png"" style=""width:200px; border:14px solid green;"">","null","","","","","",""
"710.5","","image-keyboard-response","192","452900","0.0-192.0","3A1COHJ8NKH47GSARROIOZUA4TXH8F","A2TLN8489YGY81","3S829FDFT2NBOHQMM1CIOU0HZYXDXL","","","img/flower9.png","75","711.5","2","0","2","0.6,0.6,0,0,0.6,0.6,0.6,0,0.6",""
"null","","html-keyboard-response","193","453206","0.0-193.0","3A1COHJ8NKH47GSARROIOZUA4TXH8F","A2TLN8489YGY81","3S829FDFT2NBOHQMM1CIOU0HZYXDXL","","","<img src=""img/flower9.png"" style=""width:200px;border:14px solid red;"">","null","","","","","",""
"500","","image-keyboard-response","194","453707","0.0-194.0","3A1COHJ8NKH47GSARROIOZUA4TXH8F","A2TLN8489YGY81","3S829FDFT2NBOHQMM1CIOU0HZYXDXL","","","img/flower9.png","75","500.79999999701977","2","1","2","0.6,0.6,0,0,0.6,0.6,0.6,0,0.6",""
"null","","html-keyboard-response","195","454016","0.0-195.0","3A1COHJ8NKH47GSARROIOZUA4TXH8F","A2TLN8489YGY81","3S829FDFT2NBOHQMM1CIOU0HZYXDXL","","","<img src=""img/flower9.png"" style=""width:200px; border:14px solid green;"">","null","","","","","",""
"692.3999999985099","","image-keyboard-response","196","454709","0.0-196.0","3A1COHJ8NKH47GSARROIOZUA4TXH8F","A2TLN8489YGY81","3S829FDFT2NBOHQMM1CIOU0HZYXDXL","","","img/flower9.png","75","693.3999999985099","2","0","2","0.6,0.6,0,0,0.6,0.6,0.6,0,0.6",""
"null","","html-keyboard-response","197","455014","0.0-197.0","3A1COHJ8NKH47GSARROIOZUA4TXH8F","A2TLN8489YGY81","3S829FDFT2NBOHQMM1CIOU0HZYXDXL","","","<img src=""img/flower9.png"" style=""width:200px;border:14px solid red;"">","null","","","","","",""
"281.8999999985099","","image-keyboard-response","198","455297","0.0-198.0","3A1COHJ8NKH47GSARROIOZUA4TXH8F","A2TLN8489YGY81","3S829FDFT2NBOHQMM1CIOU0HZYXDXL","","","img/flower2.png","75","282.79999999701977","2","1","1","0.6,0.6,0,0,0.6,0.6,0.6,0,0.6",""
"null","","html-keyboard-response","199","455610","0.0-199.0","3A1COHJ8NKH47GSARROIOZUA4TXH8F","A2TLN8489YGY81","3S829FDFT2NBOHQMM1CIOU0HZYXDXL","","","<img src=""img/flower2.png"" style=""width:200px; border:14px solid green;"">","null","","","","","",""
"845.7999999970198","","image-keyboard-response","200","456457","0.0-200.0","3A1COHJ8NKH47GSARROIOZUA4TXH8F","A2TLN8489YGY81","3S829FDFT2NBOHQMM1CIOU0HZYXDXL","","","img/flower9.png","75","846.6000000014901","2","1","2","0.6,0.6,0,0,0.6,0.6,0.6,0,0.6",""
"null","","html-keyboard-response","201","456761","0.0-201.0","3A1COHJ8NKH47GSARROIOZUA4TXH8F","A2TLN8489YGY81","3S829FDFT2NBOHQMM1CIOU0HZYXDXL","","","<img src=""img/flower9.png"" style=""width:200px; border:14px solid green;"">","null","","","","","",""
"742.5","","image-keyboard-response","202","457505","0.0-202.0","3A1COHJ8NKH47GSARROIOZUA4TXH8F","A2TLN8489YGY81","3S829FDFT2NBOHQMM1CIOU0HZYXDXL","","","img/flower6.png","76","743.3000000044703","3","1","3","0.6,0.6,0,0,0.6,0.6,0.6,0,0.6",""
"null","","html-keyboard-response","203","457807","0.0-203.0","3A1COHJ8NKH47GSARROIOZUA4TXH8F","A2TLN8489YGY81","3S829FDFT2NBOHQMM1CIOU0HZYXDXL","","","<img src=""img/flower6.png"" style=""width:200px; border:14px solid green;"">","null","","","","","",""
"810.8999999985099","","image-keyboard-response","204","458619","0.0-204.0","3A1COHJ8NKH47GSARROIOZUA4TXH8F","A2TLN8489YGY81","3S829FDFT2NBOHQMM1CIOU0HZYXDXL","","","img/flower9.png","75","811.7999999970198","2","1","2","0.6,0.6,0,0,0.6,0.6,0.6,0,0.6",""
"null","","html-keyboard-response","205","458930","0.0-205.0","3A1COHJ8NKH47GSARROIOZUA4TXH8F","A2TLN8489YGY81","3S829FDFT2NBOHQMM1CIOU0HZYXDXL","","","<img src=""img/flower9.png"" style=""width:200px; border:14px solid green;"">","null","","","","","",""
"590.5999999940395","","image-keyboard-response","206","459522","0.0-206.0","3A1COHJ8NKH47GSARROIOZUA4TXH8F","A2TLN8489YGY81","3S829FDFT2NBOHQMM1CIOU0HZYXDXL","","","img/flower9.png","75","591.5","2","0","2","0.6,0.6,0,0,0.6,0.6,0.6,0,0.6",""
"null","","html-keyboard-response","207","459836","0.0-207.0","3A1COHJ8NKH47GSARROIOZUA4TXH8F","A2TLN8489YGY81","3S829FDFT2NBOHQMM1CIOU0HZYXDXL","","","<img src=""img/flower9.png"" style=""width:200px;border:14px solid red;"">","null","","","","","",""
"1047.3999999985099","","image-keyboard-response","208","460885","0.0-208.0","3A1COHJ8NKH47GSARROIOZUA4TXH8F","A2TLN8489YGY81","3S829FDFT2NBOHQMM1CIOU0HZYXDXL","","","img/flower2.png","74","1048.3000000044703","1","0","1","0.6,0.6,0,0,0.6,0.6,0.6,0,0.6",""
"null","","html-keyboard-response","209","461197","0.0-209.0","3A1COHJ8NKH47GSARROIOZUA4TXH8F","A2TLN8489YGY81","3S829FDFT2NBOHQMM1CIOU0HZYXDXL","","","<img src=""img/flower2.png"" style=""width:200px;border:14px solid red;"">","null","","","","","",""
"295.1000000014901","","image-keyboard-response","210","461493","0.0-210.0","3A1COHJ8NKH47GSARROIOZUA4TXH8F","A2TLN8489YGY81","3S829FDFT2NBOHQMM1CIOU0HZYXDXL","","","img/flower2.png","74","295.8999999985099","1","0","1","0.6,0.6,0,0,0.6,0.6,0.6,0,0.6",""
"null","","html-keyboard-response","211","461805","0.0-211.0","3A1COHJ8NKH47GSARROIOZUA4TXH8F","A2TLN8489YGY81","3S829FDFT2NBOHQMM1CIOU0HZYXDXL","","","<img src=""img/flower2.png"" style=""width:200px;border:14px solid red;"">","null","","","","","",""
"282.40000000596046","","image-keyboard-response","212","462089","0.0-212.0","3A1COHJ8NKH47GSARROIOZUA4TXH8F","A2TLN8489YGY81","3S829FDFT2NBOHQMM1CIOU0HZYXDXL","","","img/flower2.png","74","283.29999999701977","1","1","1","0.6,0.6,0,0,0.6,0.6,0.6,0,0.6",""
"null","","html-keyboard-response","213","462401","0.0-213.0","3A1COHJ8NKH47GSARROIOZUA4TXH8F","A2TLN8489YGY81","3S829FDFT2NBOHQMM1CIOU0HZYXDXL","","","<img src=""img/flower2.png"" style=""width:200px; border:14px solid green;"">","null","","","","","",""
"941.8000000044703","","image-keyboard-response","214","463344","0.0-214.0","3A1COHJ8NKH47GSARROIOZUA4TXH8F","A2TLN8489YGY81","3S829FDFT2NBOHQMM1CIOU0HZYXDXL","","","img/flower9.png","75","942.8000000044703","2","0","2","0.6,0.6,0,0,0.6,0.6,0.6,0,0.6",""
"null","","html-keyboard-response","215","463651","0.0-215.0","3A1COHJ8NKH47GSARROIOZUA4TXH8F","A2TLN8489YGY81","3S829FDFT2NBOHQMM1CIOU0HZYXDXL","","","<img src=""img/flower9.png"" style=""width:200px;border:14px solid red;"">","null","","","","","",""
"1017.3999999985099","","image-keyboard-response","216","464670","0.0-216.0","3A1COHJ8NKH47GSARROIOZUA4TXH8F","A2TLN8489YGY81","3S829FDFT2NBOHQMM1CIOU0HZYXDXL","","","img/flower6.png","76","1018.3999999985099","3","1","3","0.6,0.6,0,0,0.6,0.6,0.6,0,0.6",""
"null","","html-keyboard-response","217","464985","0.0-217.0","3A1COHJ8NKH47GSARROIOZUA4TXH8F","A2TLN8489YGY81","3S829FDFT2NBOHQMM1CIOU0HZYXDXL","","","<img src=""img/flower6.png"" style=""width:200px; border:14px solid green;"">","null","","","","","",""
"615.3999999985099","","image-keyboard-response","218","465602","0.0-218.0","3A1COHJ8NKH47GSARROIOZUA4TXH8F","A2TLN8489YGY81","3S829FDFT2NBOHQMM1CIOU0HZYXDXL","","","img/flower6.png","76","616.3000000044703","3","1","3","0.6,0.6,0,0,0.6,0.6,0.6,0,0.6",""
"null","","html-keyboard-response","219","465908","0.0-219.0","3A1COHJ8NKH47GSARROIOZUA4TXH8F","A2TLN8489YGY81","3S829FDFT2NBOHQMM1CIOU0HZYXDXL","","","<img src=""img/flower6.png"" style=""width:200px; border:14px solid green;"">","null","","","","","",""
"981.2999999970198","","image-keyboard-response","220","466890","0.0-220.0","3A1COHJ8NKH47GSARROIOZUA4TXH8F","A2TLN8489YGY81","3S829FDFT2NBOHQMM1CIOU0HZYXDXL","","","img/flower2.png","74","982.3000000044703","1","1","1","0.6,0.6,0,0,0.6,0.6,0.6,0,0.6",""
"null","","html-keyboard-response","221","467201","0.0-221.0","3A1COHJ8NKH47GSARROIOZUA4TXH8F","A2TLN8489YGY81","3S829FDFT2NBOHQMM1CIOU0HZYXDXL","","","<img src=""img/flower2.png"" style=""width:200px; border:14px solid green;"">","null","","","","","",""
"1013.5","","image-keyboard-response","222","468216","0.0-222.0","3A1COHJ8NKH47GSARROIOZUA4TXH8F","A2TLN8489YGY81","3S829FDFT2NBOHQMM1CIOU0HZYXDXL","","","img/flower6.png","76","1014.4000000059605","3","0","3","0.6,0.6,0,0,0.6,0.6,0.6,0,0.6",""
"null","","html-keyboard-response","223","468528","0.0-223.0","3A1COHJ8NKH47GSARROIOZUA4TXH8F","A2TLN8489YGY81","3S829FDFT2NBOHQMM1CIOU0HZYXDXL","","","<img src=""img/flower6.png"" style=""width:200px;border:14px solid red;"">","null","","","","","",""
"635.1000000014901","","image-keyboard-response","224","469164","0.0-224.0","3A1COHJ8NKH47GSARROIOZUA4TXH8F","A2TLN8489YGY81","3S829FDFT2NBOHQMM1CIOU0HZYXDXL","","","img/flower6.png","76","635.7999999970198","3","1","3","0.6,0.6,0,0,0.6,0.6,0.6,0,0.6",""
"null","","html-keyboard-response","225","469480","0.0-225.0","3A1COHJ8NKH47GSARROIOZUA4TXH8F","A2TLN8489YGY81","3S829FDFT2NBOHQMM1CIOU0HZYXDXL","","","<img src=""img/flower6.png"" style=""width:200px; border:14px solid green;"">","null","","","","","",""
"594.0999999940395","","image-keyboard-response","226","470075","0.0-226.0","3A1COHJ8NKH47GSARROIOZUA4TXH8F","A2TLN8489YGY81","3S829FDFT2NBOHQMM1CIOU0HZYXDXL","","","img/flower6.png","76","594.8999999985099","3","1","3","0.6,0.6,0,0,0.6,0.6,0.6,0,0.6",""
"null","","html-keyboard-response","227","470389","0.0-227.0","3A1COHJ8NKH47GSARROIOZUA4TXH8F","A2TLN8489YGY81","3S829FDFT2NBOHQMM1CIOU0HZYXDXL","","","<img src=""img/flower6.png"" style=""width:200px; border:14px solid green;"">","null","","","","","",""
"463.30000000447035","","image-keyboard-response","228","470853","0.0-228.0","3A1COHJ8NKH47GSARROIOZUA4TXH8F","A2TLN8489YGY81","3S829FDFT2NBOHQMM1CIOU0HZYXDXL","","","img/flower6.png","76","463.8999999985099","3","1","3","0.6,0.6,0,0,0.6,0.6,0.6,0,0.6",""
"null","","html-keyboard-response","229","471158","0.0-229.0","3A1COHJ8NKH47GSARROIOZUA4TXH8F","A2TLN8489YGY81","3S829FDFT2NBOHQMM1CIOU0HZYXDXL","","","<img src=""img/flower6.png"" style=""width:200px; border:14px solid green;"">","null","","","","","",""
"1024.5","","image-keyboard-response","230","472183","0.0-230.0","3A1COHJ8NKH47GSARROIOZUA4TXH8F","A2TLN8489YGY81","3S829FDFT2NBOHQMM1CIOU0HZYXDXL","","","img/flower2.png","74","1025.3999999985099","1","1","1","0.6,0.6,0,0,0.6,0.6,0.6,0,0.6",""
"null","","html-keyboard-response","231","472497","0.0-231.0","3A1COHJ8NKH47GSARROIOZUA4TXH8F","A2TLN8489YGY81","3S829FDFT2NBOHQMM1CIOU0HZYXDXL","","","<img src=""img/flower2.png"" style=""width:200px; border:14px solid green;"">","null","","","","","",""
"1024","","image-keyboard-response","232","473522","0.0-232.0","3A1COHJ8NKH47GSARROIOZUA4TXH8F","A2TLN8489YGY81","3S829FDFT2NBOHQMM1CIOU0HZYXDXL","","","img/flower9.png","75","1024.7999999970198","2","1","2","0.6,0.6,0,0,0.6,0.6,0.6,0,0.6",""
"null","","html-keyboard-response","233","473829","0.0-233.0","3A1COHJ8NKH47GSARROIOZUA4TXH8F","A2TLN8489YGY81","3S829FDFT2NBOHQMM1CIOU0HZYXDXL","","","<img src=""img/flower9.png"" style=""width:200px; border:14px solid green;"">","null","","","","","",""
"839","","image-keyboard-response","234","474669","0.0-234.0","3A1COHJ8NKH47GSARROIOZUA4TXH8F","A2TLN8489YGY81","3S829FDFT2NBOHQMM1CIOU0HZYXDXL","","","img/flower6.png","76","839.8999999985099","3","0","3","0.6,0.6,0,0,0.6,0.6,0.6,0,0.6",""
"null","","html-keyboard-response","235","474985","0.0-235.0","3A1COHJ8NKH47GSARROIOZUA4TXH8F","A2TLN8489YGY81","3S829FDFT2NBOHQMM1CIOU0HZYXDXL","","","<img src=""img/flower6.png"" style=""width:200px;border:14px solid red;"">","null","","","","","",""
"551.6999999955297","","image-keyboard-response","236","475538","0.0-236.0","3A1COHJ8NKH47GSARROIOZUA4TXH8F","A2TLN8489YGY81","3S829FDFT2NBOHQMM1CIOU0HZYXDXL","","","img/flower6.png","76","552.6999999955297","3","1","3","0.6,0.6,0,0,0.6,0.6,0.6,0,0.6",""
"null","","html-keyboard-response","237","475849","0.0-237.0","3A1COHJ8NKH47GSARROIOZUA4TXH8F","A2TLN8489YGY81","3S829FDFT2NBOHQMM1CIOU0HZYXDXL","","","<img src=""img/flower6.png"" style=""width:200px; border:14px solid green;"">","null","","","","","",""
"383.8999999985099","","image-keyboard-response","238","476234","0.0-238.0","3A1COHJ8NKH47GSARROIOZUA4TXH8F","A2TLN8489YGY81","3S829FDFT2NBOHQMM1CIOU0HZYXDXL","","","img/flower6.png","76","384.80000000447035","3","1","3","0.6,0.6,0,0,0.6,0.6,0.6,0,0.6",""
"null","","html-keyboard-response","239","476550","0.0-239.0","3A1COHJ8NKH47GSARROIOZUA4TXH8F","A2TLN8489YGY81","3S829FDFT2NBOHQMM1CIOU0HZYXDXL","","","<img src=""img/flower6.png"" style=""width:200px; border:14px solid green;"">","null","","","","","",""
"789.3999999985099","","image-keyboard-response","240","477340","0.0-240.0","3A1COHJ8NKH47GSARROIOZUA4TXH8F","A2TLN8489YGY81","3S829FDFT2NBOHQMM1CIOU0HZYXDXL","","","img/flower9.png","75","790.1999999955297","2","1","2","0.6,0.6,0,0,0.6,0.6,0.6,0,0.6",""
"null","","html-keyboard-response","241","477656","0.0-241.0","3A1COHJ8NKH47GSARROIOZUA4TXH8F","A2TLN8489YGY81","3S829FDFT2NBOHQMM1CIOU0HZYXDXL","","","<img src=""img/flower9.png"" style=""width:200px; border:14px solid green;"">","null","","","","","",""
"772.1999999955297","","image-keyboard-response","242","478429","0.0-242.0","3A1COHJ8NKH47GSARROIOZUA4TXH8F","A2TLN8489YGY81","3S829FDFT2NBOHQMM1CIOU0HZYXDXL","","","img/flower2.png","74","773","1","1","1","0.6,0.6,0,0,0.6,0.6,0.6,0,0.6",""
"null","","html-keyboard-response","243","478740","0.0-243.0","3A1COHJ8NKH47GSARROIOZUA4TXH8F","A2TLN8489YGY81","3S829FDFT2NBOHQMM1CIOU0HZYXDXL","","","<img src=""img/flower2.png"" style=""width:200px; border:14px solid green;"">","null","","","","","",""
"686.2999999970198","","image-keyboard-response","244","479427","0.0-244.0","3A1COHJ8NKH47GSARROIOZUA4TXH8F","A2TLN8489YGY81","3S829FDFT2NBOHQMM1CIOU0HZYXDXL","","","img/flower2.png","74","687.1999999955297","1","1","1","0.6,0.6,0,0,0.6,0.6,0.6,0,0.6",""
"null","","html-keyboard-response","245","479730","0.0-245.0","3A1COHJ8NKH47GSARROIOZUA4TXH8F","A2TLN8489YGY81","3S829FDFT2NBOHQMM1CIOU0HZYXDXL","","","<img src=""img/flower2.png"" style=""width:200px; border:14px solid green;"">","null","","","","","",""
"914.2000000029802","","image-keyboard-response","246","480645","0.0-246.0","3A1COHJ8NKH47GSARROIOZUA4TXH8F","A2TLN8489YGY81","3S829FDFT2NBOHQMM1CIOU0HZYXDXL","","","img/flower6.png","76","915.0999999940395","3","1","3","0.6,0.6,0,0,0.6,0.6,0.6,0,0.6",""
"null","","html-keyboard-response","247","480952","0.0-247.0","3A1COHJ8NKH47GSARROIOZUA4TXH8F","A2TLN8489YGY81","3S829FDFT2NBOHQMM1CIOU0HZYXDXL","","","<img src=""img/flower6.png"" style=""width:200px; border:14px solid green;"">","null","","","","","",""
"673.8999999985099","","image-keyboard-response","248","481627","0.0-248.0","3A1COHJ8NKH47GSARROIOZUA4TXH8F","A2TLN8489YGY81","3S829FDFT2NBOHQMM1CIOU0HZYXDXL","","","img/flower9.png","75","674.8000000044703","2","0","2","0.6,0.6,0,0,0.6,0.6,0.6,0,0.6",""
"null","","html-keyboard-response","249","481939","0.0-249.0","3A1COHJ8NKH47GSARROIOZUA4TXH8F","A2TLN8489YGY81","3S829FDFT2NBOHQMM1CIOU0HZYXDXL","","","<img src=""img/flower9.png"" style=""width:200px;border:14px solid red;"">","null","","","","","",""
"726.4000000059605","","image-keyboard-response","250","482667","0.0-250.0","3A1COHJ8NKH47GSARROIOZUA4TXH8F","A2TLN8489YGY81","3S829FDFT2NBOHQMM1CIOU0HZYXDXL","","","img/flower2.png","74","727.5","1","1","1","0.6,0.6,0,0,0.6,0.6,0.6,0,0.6",""
"null","","html-keyboard-response","251","482981","0.0-251.0","3A1COHJ8NKH47GSARROIOZUA4TXH8F","A2TLN8489YGY81","3S829FDFT2NBOHQMM1CIOU0HZYXDXL","","","<img src=""img/flower2.png"" style=""width:200px; border:14px solid green;"">","null","","","","","",""
"1022.6000000014901","","image-keyboard-response","252","484005","0.0-252.0","3A1COHJ8NKH47GSARROIOZUA4TXH8F","A2TLN8489YGY81","3S829FDFT2NBOHQMM1CIOU0HZYXDXL","","","img/flower6.png","76","1023.5","3","1","3","0.6,0.6,0,0,0.6,0.6,0.6,0,0.6",""
"null","","html-keyboard-response","253","484321","0.0-253.0","3A1COHJ8NKH47GSARROIOZUA4TXH8F","A2TLN8489YGY81","3S829FDFT2NBOHQMM1CIOU0HZYXDXL","","","<img src=""img/flower6.png"" style=""width:200px; border:14px solid green;"">","null","","","","","",""
"743.1000000014901","","image-keyboard-response","254","485065","0.0-254.0","3A1COHJ8NKH47GSARROIOZUA4TXH8F","A2TLN8489YGY81","3S829FDFT2NBOHQMM1CIOU0HZYXDXL","","","img/flower9.png","75","743.8999999985099","2","1","2","0.6,0.6,0,0,0.6,0.6,0.6,0,0.6",""
"null","","html-keyboard-response","255","485369","0.0-255.0","3A1COHJ8NKH47GSARROIOZUA4TXH8F","A2TLN8489YGY81","3S829FDFT2NBOHQMM1CIOU0HZYXDXL","","","<img src=""img/flower9.png"" style=""width:200px; border:14px solid green;"">","null","","","","","",""
"610.6000000014901","","image-keyboard-response","256","485980","0.0-256.0","3A1COHJ8NKH47GSARROIOZUA4TXH8F","A2TLN8489YGY81","3S829FDFT2NBOHQMM1CIOU0HZYXDXL","","","img/flower9.png","75","611.3999999985099","2","1","2","0.6,0.6,0,0,0.6,0.6,0.6,0,0.6",""
"null","","html-keyboard-response","257","486288","0.0-257.0","3A1COHJ8NKH47GSARROIOZUA4TXH8F","A2TLN8489YGY81","3S829FDFT2NBOHQMM1CIOU0HZYXDXL","","","<img src=""img/flower9.png"" style=""width:200px; border:14px solid green;"">","null","","","","","",""
"785","","image-keyboard-response","258","487074","0.0-258.0","3A1COHJ8NKH47GSARROIOZUA4TXH8F","A2TLN8489YGY81","3S829FDFT2NBOHQMM1CIOU0HZYXDXL","","","img/flower6.png","76","785.7000000029802","3","1","3","0.6,0.6,0,0,0.6,0.6,0.6,0,0.6",""
"null","","html-keyboard-response","259","487376","0.0-259.0","3A1COHJ8NKH47GSARROIOZUA4TXH8F","A2TLN8489YGY81","3S829FDFT2NBOHQMM1CIOU0HZYXDXL","","","<img src=""img/flower6.png"" style=""width:200px; border:14px solid green;"">","null","","","","","",""
"728.6999999955297","","image-keyboard-response","260","488105","0.0-260.0","3A1COHJ8NKH47GSARROIOZUA4TXH8F","A2TLN8489YGY81","3S829FDFT2NBOHQMM1CIOU0HZYXDXL","","","img/flower2.png","74","729.6000000014901","1","0","1","0.6,0.6,0,0,0.6,0.6,0.6,0,0.6",""
"null","","html-keyboard-response","261","488421","0.0-261.0","3A1COHJ8NKH47GSARROIOZUA4TXH8F","A2TLN8489YGY81","3S829FDFT2NBOHQMM1CIOU0HZYXDXL","","","<img src=""img/flower2.png"" style=""width:200px;border:14px solid red;"">","null","","","","","",""
"1063.2000000029802","","image-keyboard-response","262","489485","0.0-262.0","3A1COHJ8NKH47GSARROIOZUA4TXH8F","A2TLN8489YGY81","3S829FDFT2NBOHQMM1CIOU0HZYXDXL","","","img/flower6.png","76","1064","3","0","3","0.6,0.6,0,0,0.6,0.6,0.6,0,0.6",""
"null","","html-keyboard-response","263","489800","0.0-263.0","3A1COHJ8NKH47GSARROIOZUA4TXH8F","A2TLN8489YGY81","3S829FDFT2NBOHQMM1CIOU0HZYXDXL","","","<img src=""img/flower6.png"" style=""width:200px;border:14px solid red;"">","null","","","","","",""
"1072.1000000014901","","image-keyboard-response","264","490873","0.0-264.0","3A1COHJ8NKH47GSARROIOZUA4TXH8F","A2TLN8489YGY81","3S829FDFT2NBOHQMM1CIOU0HZYXDXL","","","img/flower9.png","75","1072.8999999985099","2","1","2","0.6,0.6,0,0,0.6,0.6,0.6,0,0.6",""
"null","","html-keyboard-response","265","491179","0.0-265.0","3A1COHJ8NKH47GSARROIOZUA4TXH8F","A2TLN8489YGY81","3S829FDFT2NBOHQMM1CIOU0HZYXDXL","","","<img src=""img/flower9.png"" style=""width:200px; border:14px solid green;"">","null","","","","","",""
"442.5","","image-keyboard-response","266","491622","0.0-266.0","3A1COHJ8NKH47GSARROIOZUA4TXH8F","A2TLN8489YGY81","3S829FDFT2NBOHQMM1CIOU0HZYXDXL","","","img/flower9.png","75","443.30000000447035","2","0","2","0.6,0.6,0,0,0.6,0.6,0.6,0,0.6",""
"null","","html-keyboard-response","267","491925","0.0-267.0","3A1COHJ8NKH47GSARROIOZUA4TXH8F","A2TLN8489YGY81","3S829FDFT2NBOHQMM1CIOU0HZYXDXL","","","<img src=""img/flower9.png"" style=""width:200px;border:14px solid red;"">","null","","","","","",""
"408.19999999552965","","image-keyboard-response","268","492334","0.0-268.0","3A1COHJ8NKH47GSARROIOZUA4TXH8F","A2TLN8489YGY81","3S829FDFT2NBOHQMM1CIOU0HZYXDXL","","","img/flower9.png","75","409","2","0","2","0.6,0.6,0,0,0.6,0.6,0.6,0,0.6",""
"null","","html-keyboard-response","269","492647","0.0-269.0","3A1COHJ8NKH47GSARROIOZUA4TXH8F","A2TLN8489YGY81","3S829FDFT2NBOHQMM1CIOU0HZYXDXL","","","<img src=""img/flower9.png"" style=""width:200px;border:14px solid red;"">","null","","","","","",""
"1115.8000000044703","","image-keyboard-response","270","493764","0.0-270.0","3A1COHJ8NKH47GSARROIOZUA4TXH8F","A2TLN8489YGY81","3S829FDFT2NBOHQMM1CIOU0HZYXDXL","","","img/flower2.png","74","1116.7000000029802","1","0","1","0.6,0.6,0,0,0.6,0.6,0.6,0,0.6",""
"null","","html-keyboard-response","271","494067","0.0-271.0","3A1COHJ8NKH47GSARROIOZUA4TXH8F","A2TLN8489YGY81","3S829FDFT2NBOHQMM1CIOU0HZYXDXL","","","<img src=""img/flower2.png"" style=""width:200px;border:14px solid red;"">","null","","","","","",""
"975.5","","image-keyboard-response","272","495044","0.0-272.0","3A1COHJ8NKH47GSARROIOZUA4TXH8F","A2TLN8489YGY81","3S829FDFT2NBOHQMM1CIOU0HZYXDXL","","","img/flower9.png","75","976.5","2","0","2","0.6,0.6,0,0,0.6,0.6,0.6,0,0.6",""
"null","","html-keyboard-response","273","495348","0.0-273.0","3A1COHJ8NKH47GSARROIOZUA4TXH8F","A2TLN8489YGY81","3S829FDFT2NBOHQMM1CIOU0HZYXDXL","","","<img src=""img/flower9.png"" style=""width:200px;border:14px solid red;"">","null","","","","","",""
"714.3000000044703","","image-keyboard-response","274","496063","0.0-274.0","3A1COHJ8NKH47GSARROIOZUA4TXH8F","A2TLN8489YGY81","3S829FDFT2NBOHQMM1CIOU0HZYXDXL","","","img/flower6.png","76","714.8999999985099","3","1","3","0.6,0.6,0,0,0.6,0.6,0.6,0,0.6",""
"null","","html-keyboard-response","275","496373","0.0-275.0","3A1COHJ8NKH47GSARROIOZUA4TXH8F","A2TLN8489YGY81","3S829FDFT2NBOHQMM1CIOU0HZYXDXL","","","<img src=""img/flower6.png"" style=""width:200px; border:14px solid green;"">","null","","","","","",""
"877.9000000059605","","image-keyboard-response","276","497252","0.0-276.0","3A1COHJ8NKH47GSARROIOZUA4TXH8F","A2TLN8489YGY81","3S829FDFT2NBOHQMM1CIOU0HZYXDXL","","","img/flower2.png","74","878.8000000044703","1","0","1","0.6,0.6,0,0,0.6,0.6,0.6,0,0.6",""
"null","","html-keyboard-response","277","497567","0.0-277.0","3A1COHJ8NKH47GSARROIOZUA4TXH8F","A2TLN8489YGY81","3S829FDFT2NBOHQMM1CIOU0HZYXDXL","","","<img src=""img/flower2.png"" style=""width:200px;border:14px solid red;"">","null","","","","","",""
"1553.7000000029802","","image-keyboard-response","278","499122","0.0-278.0","3A1COHJ8NKH47GSARROIOZUA4TXH8F","A2TLN8489YGY81","3S829FDFT2NBOHQMM1CIOU0HZYXDXL","","","img/flower2.png","75","1554.6000000014901","2","1","1","0.6,0.6,0,0,0.6,0.6,0.6,0,0.6",""
"null","","html-keyboard-response","279","499433","0.0-279.0","3A1COHJ8NKH47GSARROIOZUA4TXH8F","A2TLN8489YGY81","3S829FDFT2NBOHQMM1CIOU0HZYXDXL","","","<img src=""img/flower2.png"" style=""width:200px; border:14px solid green;"">","null","","","","","",""
"743.0999999940395","","image-keyboard-response","280","500178","0.0-280.0","3A1COHJ8NKH47GSARROIOZUA4TXH8F","A2TLN8489YGY81","3S829FDFT2NBOHQMM1CIOU0HZYXDXL","","","img/flower2.png","75","744","2","0","1","0.6,0.6,0,0,0.6,0.6,0.6,0,0.6",""
"null","","html-keyboard-response","281","500480","0.0-281.0","3A1COHJ8NKH47GSARROIOZUA4TXH8F","A2TLN8489YGY81","3S829FDFT2NBOHQMM1CIOU0HZYXDXL","","","<img src=""img/flower2.png"" style=""width:200px;border:14px solid red;"">","null","","","","","",""
"1499.7999999970198","","image-keyboard-response","282","501980","0.0-282.0","3A1COHJ8NKH47GSARROIOZUA4TXH8F","A2TLN8489YGY81","3S829FDFT2NBOHQMM1CIOU0HZYXDXL","","","img/flower6.png","76","1500.5999999940395","3","1","3","0.6,0.6,0,0,0.6,0.6,0.6,0,0.6",""
"null","","html-keyboard-response","283","502294","0.0-283.0","3A1COHJ8NKH47GSARROIOZUA4TXH8F","A2TLN8489YGY81","3S829FDFT2NBOHQMM1CIOU0HZYXDXL","","","<img src=""img/flower6.png"" style=""width:200px; border:14px solid green;"">","null","","","","","",""
"2068.7000000029802","","image-keyboard-response","284","504364","0.0-284.0","3A1COHJ8NKH47GSARROIOZUA4TXH8F","A2TLN8489YGY81","3S829FDFT2NBOHQMM1CIOU0HZYXDXL","","","img/flower2.png","75","2069.5999999940395","2","1","1","0.6,0.6,0,0,0.6,0.6,0.6,0,0.6",""
"null","","html-keyboard-response","285","504668","0.0-285.0","3A1COHJ8NKH47GSARROIOZUA4TXH8F","A2TLN8489YGY81","3S829FDFT2NBOHQMM1CIOU0HZYXDXL","","","<img src=""img/flower2.png"" style=""width:200px; border:14px solid green;"">","null","","","","","",""
"916.8000000044703","","image-keyboard-response","286","505586","0.0-286.0","3A1COHJ8NKH47GSARROIOZUA4TXH8F","A2TLN8489YGY81","3S829FDFT2NBOHQMM1CIOU0HZYXDXL","","","img/flower6.png","76","917.6000000014901","3","1","3","0.6,0.6,0,0,0.6,0.6,0.6,0,0.6",""
"null","","html-keyboard-response","287","505904","0.0-287.0","3A1COHJ8NKH47GSARROIOZUA4TXH8F","A2TLN8489YGY81","3S829FDFT2NBOHQMM1CIOU0HZYXDXL","","","<img src=""img/flower6.png"" style=""width:200px; border:14px solid green;"">","null","","","","","",""
"944.1999999955297","","image-keyboard-response","288","506850","0.0-288.0","3A1COHJ8NKH47GSARROIOZUA4TXH8F","A2TLN8489YGY81","3S829FDFT2NBOHQMM1CIOU0HZYXDXL","","","img/flower9.png","74","945.2000000029802","1","0","2","0.6,0.6,0,0,0.6,0.6,0.6,0,0.6",""
"null","","html-keyboard-response","289","507164","0.0-289.0","3A1COHJ8NKH47GSARROIOZUA4TXH8F","A2TLN8489YGY81","3S829FDFT2NBOHQMM1CIOU0HZYXDXL","","","<img src=""img/flower9.png"" style=""width:200px;border:14px solid red;"">","null","","","","","",""
"1072.7999999970198","","image-keyboard-response","290","508238","0.0-290.0","3A1COHJ8NKH47GSARROIOZUA4TXH8F","A2TLN8489YGY81","3S829FDFT2NBOHQMM1CIOU0HZYXDXL","","","img/flower6.png","76","1073.5","3","1","3","0.6,0.6,0,0,0.6,0.6,0.6,0,0.6",""
"null","","html-keyboard-response","291","508553","0.0-291.0","3A1COHJ8NKH47GSARROIOZUA4TXH8F","A2TLN8489YGY81","3S829FDFT2NBOHQMM1CIOU0HZYXDXL","","","<img src=""img/flower6.png"" style=""width:200px; border:14px solid green;"">","null","","","","","",""
"893.8999999985099","","image-keyboard-response","292","509448","0.0-292.0","3A1COHJ8NKH47GSARROIOZUA4TXH8F","A2TLN8489YGY81","3S829FDFT2NBOHQMM1CIOU0HZYXDXL","","","img/flower9.png","74","894.7000000029802","1","0","2","0.6,0.6,0,0,0.6,0.6,0.6,0,0.6",""
"null","","html-keyboard-response","293","509763","0.0-293.0","3A1COHJ8NKH47GSARROIOZUA4TXH8F","A2TLN8489YGY81","3S829FDFT2NBOHQMM1CIOU0HZYXDXL","","","<img src=""img/flower9.png"" style=""width:200px;border:14px solid red;"">","null","","","","","",""
"848.1000000014901","","image-keyboard-response","294","510612","0.0-294.0","3A1COHJ8NKH47GSARROIOZUA4TXH8F","A2TLN8489YGY81","3S829FDFT2NBOHQMM1CIOU0HZYXDXL","","","img/flower6.png","76","849","3","1","3","0.6,0.6,0,0,0.6,0.6,0.6,0,0.6",""
"null","","html-keyboard-response","295","510922","0.0-295.0","3A1COHJ8NKH47GSARROIOZUA4TXH8F","A2TLN8489YGY81","3S829FDFT2NBOHQMM1CIOU0HZYXDXL","","","<img src=""img/flower6.png"" style=""width:200px; border:14px solid green;"">","null","","","","","",""
"591","","image-keyboard-response","296","511514","0.0-296.0","3A1COHJ8NKH47GSARROIOZUA4TXH8F","A2TLN8489YGY81","3S829FDFT2NBOHQMM1CIOU0HZYXDXL","","","img/flower9.png","74","592.1000000014901","1","0","2","0.6,0.6,0,0,0.6,0.6,0.6,0,0.6",""
"null","","html-keyboard-response","297","511821","0.0-297.0","3A1COHJ8NKH47GSARROIOZUA4TXH8F","A2TLN8489YGY81","3S829FDFT2NBOHQMM1CIOU0HZYXDXL","","","<img src=""img/flower9.png"" style=""width:200px;border:14px solid red;"">","null","","","","","",""
"1785.5999999940395","","image-keyboard-response","298","513608","0.0-298.0","3A1COHJ8NKH47GSARROIOZUA4TXH8F","A2TLN8489YGY81","3S829FDFT2NBOHQMM1CIOU0HZYXDXL","","","img/flower9.png","74","1786.3999999985099","1","0","2","0.6,0.6,0,0,0.6,0.6,0.6,0,0.6",""
"null","","html-keyboard-response","299","513922","0.0-299.0","3A1COHJ8NKH47GSARROIOZUA4TXH8F","A2TLN8489YGY81","3S829FDFT2NBOHQMM1CIOU0HZYXDXL","","","<img src=""img/flower9.png"" style=""width:200px;border:14px solid red;"">","null","","","","","",""
"2931.2999999970198","","image-keyboard-response","300","516854","0.0-300.0","3A1COHJ8NKH47GSARROIOZUA4TXH8F","A2TLN8489YGY81","3S829FDFT2NBOHQMM1CIOU0HZYXDXL","","","img/flower2.png","75","2932.0999999940395","2","1","1","0.6,0.6,0,0,0.6,0.6,0.6,0,0.6",""
"null","","html-keyboard-response","301","517167","0.0-301.0","3A1COHJ8NKH47GSARROIOZUA4TXH8F","A2TLN8489YGY81","3S829FDFT2NBOHQMM1CIOU0HZYXDXL","","","<img src=""img/flower2.png"" style=""width:200px; border:14px solid green;"">","null","","","","","",""
"820.3999999985099","","image-keyboard-response","302","517989","0.0-302.0","3A1COHJ8NKH47GSARROIOZUA4TXH8F","A2TLN8489YGY81","3S829FDFT2NBOHQMM1CIOU0HZYXDXL","","","img/flower2.png","75","821.2000000029802","2","0","1","0.6,0.6,0,0,0.6,0.6,0.6,0,0.6",""
"null","","html-keyboard-response","303","518294","0.0-303.0","3A1COHJ8NKH47GSARROIOZUA4TXH8F","A2TLN8489YGY81","3S829FDFT2NBOHQMM1CIOU0HZYXDXL","","","<img src=""img/flower2.png"" style=""width:200px;border:14px solid red;"">","null","","","","","",""
"791.5","","image-keyboard-response","304","519087","0.0-304.0","3A1COHJ8NKH47GSARROIOZUA4TXH8F","A2TLN8489YGY81","3S829FDFT2NBOHQMM1CIOU0HZYXDXL","","","img/flower6.png","76","792.1999999955297","3","1","3","0.6,0.6,0,0,0.6,0.6,0.6,0,0.6",""
"null","","html-keyboard-response","305","519388","0.0-305.0","3A1COHJ8NKH47GSARROIOZUA4TXH8F","A2TLN8489YGY81","3S829FDFT2NBOHQMM1CIOU0HZYXDXL","","","<img src=""img/flower6.png"" style=""width:200px; border:14px solid green;"">","null","","","","","",""
"","","html-keyboard-response","306","522608","0.0-306.0","3A1COHJ8NKH47GSARROIOZUA4TXH8F","A2TLN8489YGY81","3S829FDFT2NBOHQMM1CIOU0HZYXDXL","","","","","","","","","",""
"1822.8000000044703","","image-keyboard-response","307","524432","0.0-307.0","3A1COHJ8NKH47GSARROIOZUA4TXH8F","A2TLN8489YGY81","3S829FDFT2NBOHQMM1CIOU0HZYXDXL","","","img/flower8.png","74","1823.7000000029802","1","0","2","0.8,0.2,0.2,0.2,0.8,0.2,0.2,0.2,0.8",""
"null","","html-keyboard-response","308","524735","0.0-308.0","3A1COHJ8NKH47GSARROIOZUA4TXH8F","A2TLN8489YGY81","3S829FDFT2NBOHQMM1CIOU0HZYXDXL","","","<img src=""img/flower8.png"" style=""width:200px;border:14px solid red;"">","null","","","","","",""
"1187.5","","image-keyboard-response","309","525924","0.0-309.0","3A1COHJ8NKH47GSARROIOZUA4TXH8F","A2TLN8489YGY81","3S829FDFT2NBOHQMM1CIOU0HZYXDXL","","","img/flower5.png","75","1188.2000000029802","2","1","3","0.8,0.2,0.2,0.2,0.8,0.2,0.2,0.2,0.8",""
"null","","html-keyboard-response","310","526238","0.0-310.0","3A1COHJ8NKH47GSARROIOZUA4TXH8F","A2TLN8489YGY81","3S829FDFT2NBOHQMM1CIOU0HZYXDXL","","","<img src=""img/flower5.png"" style=""width:200px; border:14px solid green;"">","null","","","","","",""
"1188.7999999970198","","image-keyboard-response","311","527428","0.0-311.0","3A1COHJ8NKH47GSARROIOZUA4TXH8F","A2TLN8489YGY81","3S829FDFT2NBOHQMM1CIOU0HZYXDXL","","","img/flower3.png","76","1189.7000000029802","3","0","1","0.8,0.2,0.2,0.2,0.8,0.2,0.2,0.2,0.8",""
"null","","html-keyboard-response","312","527743","0.0-312.0","3A1COHJ8NKH47GSARROIOZUA4TXH8F","A2TLN8489YGY81","3S829FDFT2NBOHQMM1CIOU0HZYXDXL","","","<img src=""img/flower3.png"" style=""width:200px;border:14px solid red;"">","null","","","","","",""
"1188","","image-keyboard-response","313","528932","0.0-313.0","3A1COHJ8NKH47GSARROIOZUA4TXH8F","A2TLN8489YGY81","3S829FDFT2NBOHQMM1CIOU0HZYXDXL","","","img/flower3.png","74","1188.7999999970198","1","1","1","0.8,0.2,0.2,0.2,0.8,0.2,0.2,0.2,0.8",""
"null","","html-keyboard-response","314","529240","0.0-314.0","3A1COHJ8NKH47GSARROIOZUA4TXH8F","A2TLN8489YGY81","3S829FDFT2NBOHQMM1CIOU0HZYXDXL","","","<img src=""img/flower3.png"" style=""width:200px; border:14px solid green;"">","null","","","","","",""
"1465.7999999970198","","image-keyboard-response","315","530706","0.0-315.0","3A1COHJ8NKH47GSARROIOZUA4TXH8F","A2TLN8489YGY81","3S829FDFT2NBOHQMM1CIOU0HZYXDXL","","","img/flower5.png","75","1466.6000000014901","2","0","3","0.8,0.2,0.2,0.2,0.8,0.2,0.2,0.2,0.8",""
"null","","html-keyboard-response","316","531009","0.0-316.0","3A1COHJ8NKH47GSARROIOZUA4TXH8F","A2TLN8489YGY81","3S829FDFT2NBOHQMM1CIOU0HZYXDXL","","","<img src=""img/flower5.png"" style=""width:200px;border:14px solid red;"">","null","","","","","",""
"1117.6000000014901","","image-keyboard-response","317","532127","0.0-317.0","3A1COHJ8NKH47GSARROIOZUA4TXH8F","A2TLN8489YGY81","3S829FDFT2NBOHQMM1CIOU0HZYXDXL","","","img/flower3.png","74","1118.3999999985099","1","1","1","0.8,0.2,0.2,0.2,0.8,0.2,0.2,0.2,0.8",""
"null","","html-keyboard-response","318","532436","0.0-318.0","3A1COHJ8NKH47GSARROIOZUA4TXH8F","A2TLN8489YGY81","3S829FDFT2NBOHQMM1CIOU0HZYXDXL","","","<img src=""img/flower3.png"" style=""width:200px; border:14px solid green;"">","null","","","","","",""
"967.2999999970198","","image-keyboard-response","319","533404","0.0-319.0","3A1COHJ8NKH47GSARROIOZUA4TXH8F","A2TLN8489YGY81","3S829FDFT2NBOHQMM1CIOU0HZYXDXL","","","img/flower3.png","74","967.8999999985099","1","0","1","0.8,0.2,0.2,0.2,0.8,0.2,0.2,0.2,0.8",""
"null","","html-keyboard-response","320","533714","0.0-320.0","3A1COHJ8NKH47GSARROIOZUA4TXH8F","A2TLN8489YGY81","3S829FDFT2NBOHQMM1CIOU0HZYXDXL","","","<img src=""img/flower3.png"" style=""width:200px;border:14px solid red;"">","null","","","","","",""
"670.5","","image-keyboard-response","321","534385","0.0-321.0","3A1COHJ8NKH47GSARROIOZUA4TXH8F","A2TLN8489YGY81","3S829FDFT2NBOHQMM1CIOU0HZYXDXL","","","img/flower3.png","74","671.2999999970198","1","1","1","0.8,0.2,0.2,0.2,0.8,0.2,0.2,0.2,0.8",""
"null","","html-keyboard-response","322","534689","0.0-322.0","3A1COHJ8NKH47GSARROIOZUA4TXH8F","A2TLN8489YGY81","3S829FDFT2NBOHQMM1CIOU0HZYXDXL","","","<img src=""img/flower3.png"" style=""width:200px; border:14px solid green;"">","null","","","","","",""
"855.7000000029802","","image-keyboard-response","323","535545","0.0-323.0","3A1COHJ8NKH47GSARROIOZUA4TXH8F","A2TLN8489YGY81","3S829FDFT2NBOHQMM1CIOU0HZYXDXL","","","img/flower5.png","75","856.3000000044703","2","0","3","0.8,0.2,0.2,0.2,0.8,0.2,0.2,0.2,0.8",""
"null","","html-keyboard-response","324","535857","0.0-324.0","3A1COHJ8NKH47GSARROIOZUA4TXH8F","A2TLN8489YGY81","3S829FDFT2NBOHQMM1CIOU0HZYXDXL","","","<img src=""img/flower5.png"" style=""width:200px;border:14px solid red;"">","null","","","","","",""
"764.1000000014901","","image-keyboard-response","325","536622","0.0-325.0","3A1COHJ8NKH47GSARROIOZUA4TXH8F","A2TLN8489YGY81","3S829FDFT2NBOHQMM1CIOU0HZYXDXL","","","img/flower3.png","74","765","1","1","1","0.8,0.2,0.2,0.2,0.8,0.2,0.2,0.2,0.8",""
"null","","html-keyboard-response","326","536936","0.0-326.0","3A1COHJ8NKH47GSARROIOZUA4TXH8F","A2TLN8489YGY81","3S829FDFT2NBOHQMM1CIOU0HZYXDXL","","","<img src=""img/flower3.png"" style=""width:200px; border:14px solid green;"">","null","","","","","",""
"667.1000000014901","","image-keyboard-response","327","537604","0.0-327.0","3A1COHJ8NKH47GSARROIOZUA4TXH8F","A2TLN8489YGY81","3S829FDFT2NBOHQMM1CIOU0HZYXDXL","","","img/flower3.png","74","667.8999999985099","1","1","1","0.8,0.2,0.2,0.2,0.8,0.2,0.2,0.2,0.8",""
"null","","html-keyboard-response","328","537919","0.0-328.0","3A1COHJ8NKH47GSARROIOZUA4TXH8F","A2TLN8489YGY81","3S829FDFT2NBOHQMM1CIOU0HZYXDXL","","","<img src=""img/flower3.png"" style=""width:200px; border:14px solid green;"">","null","","","","","",""
"594.7999999970198","","image-keyboard-response","329","538515","0.0-329.0","3A1COHJ8NKH47GSARROIOZUA4TXH8F","A2TLN8489YGY81","3S829FDFT2NBOHQMM1CIOU0HZYXDXL","","","img/flower3.png","74","595.8999999985099","1","0","1","0.8,0.2,0.2,0.2,0.8,0.2,0.2,0.2,0.8",""
"null","","html-keyboard-response","330","538830","0.0-330.0","3A1COHJ8NKH47GSARROIOZUA4TXH8F","A2TLN8489YGY81","3S829FDFT2NBOHQMM1CIOU0HZYXDXL","","","<img src=""img/flower3.png"" style=""width:200px;border:14px solid red;"">","null","","","","","",""
"1349.5","","image-keyboard-response","331","540181","0.0-331.0","3A1COHJ8NKH47GSARROIOZUA4TXH8F","A2TLN8489YGY81","3S829FDFT2NBOHQMM1CIOU0HZYXDXL","","","img/flower8.png","76","1350.3999999985099","3","0","2","0.8,0.2,0.2,0.2,0.8,0.2,0.2,0.2,0.8",""
"null","","html-keyboard-response","332","540496","0.0-332.0","3A1COHJ8NKH47GSARROIOZUA4TXH8F","A2TLN8489YGY81","3S829FDFT2NBOHQMM1CIOU0HZYXDXL","","","<img src=""img/flower8.png"" style=""width:200px;border:14px solid red;"">","null","","","","","",""
"855.7000000029802","","image-keyboard-response","333","541353","0.0-333.0","3A1COHJ8NKH47GSARROIOZUA4TXH8F","A2TLN8489YGY81","3S829FDFT2NBOHQMM1CIOU0HZYXDXL","","","img/flower5.png","75","856.3999999985099","2","0","3","0.8,0.2,0.2,0.2,0.8,0.2,0.2,0.2,0.8",""
"null","","html-keyboard-response","334","541669","0.0-334.0","3A1COHJ8NKH47GSARROIOZUA4TXH8F","A2TLN8489YGY81","3S829FDFT2NBOHQMM1CIOU0HZYXDXL","","","<img src=""img/flower5.png"" style=""width:200px;border:14px solid red;"">","null","","","","","",""
"1071.4000000059605","","image-keyboard-response","335","542741","0.0-335.0","3A1COHJ8NKH47GSARROIOZUA4TXH8F","A2TLN8489YGY81","3S829FDFT2NBOHQMM1CIOU0HZYXDXL","","","img/flower3.png","74","1072.2999999970198","1","1","1","0.8,0.2,0.2,0.2,0.8,0.2,0.2,0.2,0.8",""
"null","","html-keyboard-response","336","543043","0.0-336.0","3A1COHJ8NKH47GSARROIOZUA4TXH8F","A2TLN8489YGY81","3S829FDFT2NBOHQMM1CIOU0HZYXDXL","","","<img src=""img/flower3.png"" style=""width:200px; border:14px solid green;"">","null","","","","","",""
"529.1999999955297","","image-keyboard-response","337","543573","0.0-337.0","3A1COHJ8NKH47GSARROIOZUA4TXH8F","A2TLN8489YGY81","3S829FDFT2NBOHQMM1CIOU0HZYXDXL","","","img/flower3.png","74","529.9000000059605","1","1","1","0.8,0.2,0.2,0.2,0.8,0.2,0.2,0.2,0.8",""
"null","","html-keyboard-response","338","543889","0.0-338.0","3A1COHJ8NKH47GSARROIOZUA4TXH8F","A2TLN8489YGY81","3S829FDFT2NBOHQMM1CIOU0HZYXDXL","","","<img src=""img/flower3.png"" style=""width:200px; border:14px solid green;"">","null","","","","","",""
"768","","image-keyboard-response","339","544659","0.0-339.0","3A1COHJ8NKH47GSARROIOZUA4TXH8F","A2TLN8489YGY81","3S829FDFT2NBOHQMM1CIOU0HZYXDXL","","","img/flower5.png","75","769.1000000014901","2","0","3","0.8,0.2,0.2,0.2,0.8,0.2,0.2,0.2,0.8",""
"null","","html-keyboard-response","340","544966","0.0-340.0","3A1COHJ8NKH47GSARROIOZUA4TXH8F","A2TLN8489YGY81","3S829FDFT2NBOHQMM1CIOU0HZYXDXL","","","<img src=""img/flower5.png"" style=""width:200px;border:14px solid red;"">","null","","","","","",""
"673.1000000014901","","image-keyboard-response","341","545640","0.0-341.0","3A1COHJ8NKH47GSARROIOZUA4TXH8F","A2TLN8489YGY81","3S829FDFT2NBOHQMM1CIOU0HZYXDXL","","","img/flower5.png","75","673.8999999985099","2","0","3","0.8,0.2,0.2,0.2,0.8,0.2,0.2,0.2,0.8",""
"null","","html-keyboard-response","342","545948","0.0-342.0","3A1COHJ8NKH47GSARROIOZUA4TXH8F","A2TLN8489YGY81","3S829FDFT2NBOHQMM1CIOU0HZYXDXL","","","<img src=""img/flower5.png"" style=""width:200px;border:14px solid red;"">","null","","","","","",""
"2306.5","","image-keyboard-response","343","548256","0.0-343.0","3A1COHJ8NKH47GSARROIOZUA4TXH8F","A2TLN8489YGY81","3S829FDFT2NBOHQMM1CIOU0HZYXDXL","","","img/flower3.png","74","2307.39999999851","1","1","1","0.8,0.2,0.2,0.2,0.8,0.2,0.2,0.2,0.8",""
"null","","html-keyboard-response","344","548567","0.0-344.0","3A1COHJ8NKH47GSARROIOZUA4TXH8F","A2TLN8489YGY81","3S829FDFT2NBOHQMM1CIOU0HZYXDXL","","","<img src=""img/flower3.png"" style=""width:200px; border:14px solid green;"">","null","","","","","",""
"627.6000000014901","","image-keyboard-response","345","549196","0.0-345.0","3A1COHJ8NKH47GSARROIOZUA4TXH8F","A2TLN8489YGY81","3S829FDFT2NBOHQMM1CIOU0HZYXDXL","","","img/flower3.png","74","628.7000000029802","1","1","1","0.8,0.2,0.2,0.2,0.8,0.2,0.2,0.2,0.8",""
"null","","html-keyboard-response","346","549510","0.0-346.0","3A1COHJ8NKH47GSARROIOZUA4TXH8F","A2TLN8489YGY81","3S829FDFT2NBOHQMM1CIOU0HZYXDXL","","","<img src=""img/flower3.png"" style=""width:200px; border:14px solid green;"">","null","","","","","",""
"721.1999999955297","","image-keyboard-response","347","550232","0.0-347.0","3A1COHJ8NKH47GSARROIOZUA4TXH8F","A2TLN8489YGY81","3S829FDFT2NBOHQMM1CIOU0HZYXDXL","","","img/flower5.png","75","722.0999999940395","2","1","3","0.8,0.2,0.2,0.2,0.8,0.2,0.2,0.2,0.8",""
"null","","html-keyboard-response","348","550547","0.0-348.0","3A1COHJ8NKH47GSARROIOZUA4TXH8F","A2TLN8489YGY81","3S829FDFT2NBOHQMM1CIOU0HZYXDXL","","","<img src=""img/flower5.png"" style=""width:200px; border:14px solid green;"">","null","","","","","",""
"1121.2000000029802","","image-keyboard-response","349","551670","0.0-349.0","3A1COHJ8NKH47GSARROIOZUA4TXH8F","A2TLN8489YGY81","3S829FDFT2NBOHQMM1CIOU0HZYXDXL","","","img/flower8.png","76","1121.7999999970198","3","0","2","0.8,0.2,0.2,0.2,0.8,0.2,0.2,0.2,0.8",""
"null","","html-keyboard-response","350","551984","0.0-350.0","3A1COHJ8NKH47GSARROIOZUA4TXH8F","A2TLN8489YGY81","3S829FDFT2NBOHQMM1CIOU0HZYXDXL","","","<img src=""img/flower8.png"" style=""width:200px;border:14px solid red;"">","null","","","","","",""
"724.3999999985099","","image-keyboard-response","351","552709","0.0-351.0","3A1COHJ8NKH47GSARROIOZUA4TXH8F","A2TLN8489YGY81","3S829FDFT2NBOHQMM1CIOU0HZYXDXL","","","img/flower8.png","76","725.6999999955297","3","1","2","0.8,0.2,0.2,0.2,0.8,0.2,0.2,0.2,0.8",""
"null","","html-keyboard-response","352","553014","0.0-352.0","3A1COHJ8NKH47GSARROIOZUA4TXH8F","A2TLN8489YGY81","3S829FDFT2NBOHQMM1CIOU0HZYXDXL","","","<img src=""img/flower8.png"" style=""width:200px; border:14px solid green;"">","null","","","","","",""
"638.3999999985099","","image-keyboard-response","353","553654","0.0-353.0","3A1COHJ8NKH47GSARROIOZUA4TXH8F","A2TLN8489YGY81","3S829FDFT2NBOHQMM1CIOU0HZYXDXL","","","img/flower8.png","76","639.3000000044703","3","0","2","0.8,0.2,0.2,0.2,0.8,0.2,0.2,0.2,0.8",""
"null","","html-keyboard-response","354","553965","0.0-354.0","3A1COHJ8NKH47GSARROIOZUA4TXH8F","A2TLN8489YGY81","3S829FDFT2NBOHQMM1CIOU0HZYXDXL","","","<img src=""img/flower8.png"" style=""width:200px;border:14px solid red;"">","null","","","","","",""
"1640.2999999970198","","image-keyboard-response","355","555606","0.0-355.0","3A1COHJ8NKH47GSARROIOZUA4TXH8F","A2TLN8489YGY81","3S829FDFT2NBOHQMM1CIOU0HZYXDXL","","","img/flower3.png","74","1641","1","1","1","0.8,0.2,0.2,0.2,0.8,0.2,0.2,0.2,0.8",""
"null","","html-keyboard-response","356","555920","0.0-356.0","3A1COHJ8NKH47GSARROIOZUA4TXH8F","A2TLN8489YGY81","3S829FDFT2NBOHQMM1CIOU0HZYXDXL","","","<img src=""img/flower3.png"" style=""width:200px; border:14px solid green;"">","null","","","","","",""
"496.29999999701977","","image-keyboard-response","357","556418","0.0-357.0","3A1COHJ8NKH47GSARROIOZUA4TXH8F","A2TLN8489YGY81","3S829FDFT2NBOHQMM1CIOU0HZYXDXL","","","img/flower3.png","74","497.3999999985099","1","0","1","0.8,0.2,0.2,0.2,0.8,0.2,0.2,0.2,0.8",""
"null","","html-keyboard-response","358","556731","0.0-358.0","3A1COHJ8NKH47GSARROIOZUA4TXH8F","A2TLN8489YGY81","3S829FDFT2NBOHQMM1CIOU0HZYXDXL","","","<img src=""img/flower3.png"" style=""width:200px;border:14px solid red;"">","null","","","","","",""
"1770.6000000014901","","image-keyboard-response","359","558502","0.0-359.0","3A1COHJ8NKH47GSARROIOZUA4TXH8F","A2TLN8489YGY81","3S829FDFT2NBOHQMM1CIOU0HZYXDXL","","","img/flower8.png","75","1771.5","2","0","2","0.8,0.2,0.2,0.2,0.8,0.2,0.2,0.2,0.8",""
"null","","html-keyboard-response","360","558808","0.0-360.0","3A1COHJ8NKH47GSARROIOZUA4TXH8F","A2TLN8489YGY81","3S829FDFT2NBOHQMM1CIOU0HZYXDXL","","","<img src=""img/flower8.png"" style=""width:200px;border:14px solid red;"">","null","","","","","",""
"1354.8999999985099","","image-keyboard-response","361","560165","0.0-361.0","3A1COHJ8NKH47GSARROIOZUA4TXH8F","A2TLN8489YGY81","3S829FDFT2NBOHQMM1CIOU0HZYXDXL","","","img/flower3.png","74","1356","1","1","1","0.8,0.2,0.2,0.2,0.8,0.2,0.2,0.2,0.8",""
"null","","html-keyboard-response","362","560480","0.0-362.0","3A1COHJ8NKH47GSARROIOZUA4TXH8F","A2TLN8489YGY81","3S829FDFT2NBOHQMM1CIOU0HZYXDXL","","","<img src=""img/flower3.png"" style=""width:200px; border:14px solid green;"">","null","","","","","",""
"988.3000000044703","","image-keyboard-response","363","561470","0.0-363.0","3A1COHJ8NKH47GSARROIOZUA4TXH8F","A2TLN8489YGY81","3S829FDFT2NBOHQMM1CIOU0HZYXDXL","","","img/flower5.png","75","989.2000000029802","2","0","3","0.8,0.2,0.2,0.2,0.8,0.2,0.2,0.2,0.8",""
"null","","html-keyboard-response","364","561783","0.0-364.0","3A1COHJ8NKH47GSARROIOZUA4TXH8F","A2TLN8489YGY81","3S829FDFT2NBOHQMM1CIOU0HZYXDXL","","","<img src=""img/flower5.png"" style=""width:200px;border:14px solid red;"">","null","","","","","",""
"940.3999999985099","","image-keyboard-response","365","562725","0.0-365.0","3A1COHJ8NKH47GSARROIOZUA4TXH8F","A2TLN8489YGY81","3S829FDFT2NBOHQMM1CIOU0HZYXDXL","","","img/flower8.png","75","941.5","2","1","2","0.8,0.2,0.2,0.2,0.8,0.2,0.2,0.2,0.8",""
"null","","html-keyboard-response","366","563032","0.0-366.0","3A1COHJ8NKH47GSARROIOZUA4TXH8F","A2TLN8489YGY81","3S829FDFT2NBOHQMM1CIOU0HZYXDXL","","","<img src=""img/flower8.png"" style=""width:200px; border:14px solid green;"">","null","","","","","",""
"1387.3999999985099","","image-keyboard-response","367","564420","0.0-367.0","3A1COHJ8NKH47GSARROIOZUA4TXH8F","A2TLN8489YGY81","3S829FDFT2NBOHQMM1CIOU0HZYXDXL","","","img/flower3.png","74","1388.1000000014901","1","1","1","0.8,0.2,0.2,0.2,0.8,0.2,0.2,0.2,0.8",""
"null","","html-keyboard-response","368","564733","0.0-368.0","3A1COHJ8NKH47GSARROIOZUA4TXH8F","A2TLN8489YGY81","3S829FDFT2NBOHQMM1CIOU0HZYXDXL","","","<img src=""img/flower3.png"" style=""width:200px; border:14px solid green;"">","null","","","","","",""
"572.2999999970198","","image-keyboard-response","369","565306","0.0-369.0","3A1COHJ8NKH47GSARROIOZUA4TXH8F","A2TLN8489YGY81","3S829FDFT2NBOHQMM1CIOU0HZYXDXL","","","img/flower3.png","74","573.1000000014901","1","1","1","0.8,0.2,0.2,0.2,0.8,0.2,0.2,0.2,0.8",""
"null","","html-keyboard-response","370","565622","0.0-370.0","3A1COHJ8NKH47GSARROIOZUA4TXH8F","A2TLN8489YGY81","3S829FDFT2NBOHQMM1CIOU0HZYXDXL","","","<img src=""img/flower3.png"" style=""width:200px; border:14px solid green;"">","null","","","","","",""
"897","","image-keyboard-response","371","566520","0.0-371.0","3A1COHJ8NKH47GSARROIOZUA4TXH8F","A2TLN8489YGY81","3S829FDFT2NBOHQMM1CIOU0HZYXDXL","","","img/flower5.png","75","897.7999999970198","2","1","3","0.8,0.2,0.2,0.2,0.8,0.2,0.2,0.2,0.8",""
"null","","html-keyboard-response","372","566829","0.0-372.0","3A1COHJ8NKH47GSARROIOZUA4TXH8F","A2TLN8489YGY81","3S829FDFT2NBOHQMM1CIOU0HZYXDXL","","","<img src=""img/flower5.png"" style=""width:200px; border:14px solid green;"">","null","","","","","",""
"1248.0999999940395","","image-keyboard-response","373","568078","0.0-373.0","3A1COHJ8NKH47GSARROIOZUA4TXH8F","A2TLN8489YGY81","3S829FDFT2NBOHQMM1CIOU0HZYXDXL","","","img/flower3.png","74","1248.8999999985099","1","1","1","0.8,0.2,0.2,0.2,0.8,0.2,0.2,0.2,0.8",""
"null","","html-keyboard-response","374","568387","0.0-374.0","3A1COHJ8NKH47GSARROIOZUA4TXH8F","A2TLN8489YGY81","3S829FDFT2NBOHQMM1CIOU0HZYXDXL","","","<img src=""img/flower3.png"" style=""width:200px; border:14px solid green;"">","null","","","","","",""
"1016.2000000029802","","image-keyboard-response","375","569404","0.0-375.0","3A1COHJ8NKH47GSARROIOZUA4TXH8F","A2TLN8489YGY81","3S829FDFT2NBOHQMM1CIOU0HZYXDXL","","","img/flower5.png","75","1017.1999999955297","2","0","3","0.8,0.2,0.2,0.2,0.8,0.2,0.2,0.2,0.8",""
"null","","html-keyboard-response","376","569719","0.0-376.0","3A1COHJ8NKH47GSARROIOZUA4TXH8F","A2TLN8489YGY81","3S829FDFT2NBOHQMM1CIOU0HZYXDXL","","","<img src=""img/flower5.png"" style=""width:200px;border:14px solid red;"">","null","","","","","",""
"1230.0999999940395","","image-keyboard-response","377","570950","0.0-377.0","3A1COHJ8NKH47GSARROIOZUA4TXH8F","A2TLN8489YGY81","3S829FDFT2NBOHQMM1CIOU0HZYXDXL","","","img/flower3.png","74","1231","1","1","1","0.8,0.2,0.2,0.2,0.8,0.2,0.2,0.2,0.8",""
"null","","html-keyboard-response","378","571263","0.0-378.0","3A1COHJ8NKH47GSARROIOZUA4TXH8F","A2TLN8489YGY81","3S829FDFT2NBOHQMM1CIOU0HZYXDXL","","","<img src=""img/flower3.png"" style=""width:200px; border:14px solid green;"">","null","","","","","",""
"904","","image-keyboard-response","379","572168","0.0-379.0","3A1COHJ8NKH47GSARROIOZUA4TXH8F","A2TLN8489YGY81","3S829FDFT2NBOHQMM1CIOU0HZYXDXL","","","img/flower8.png","75","904.9000000059605","2","1","2","0.8,0.2,0.2,0.2,0.8,0.2,0.2,0.2,0.8",""
"null","","html-keyboard-response","380","572485","0.0-380.0","3A1COHJ8NKH47GSARROIOZUA4TXH8F","A2TLN8489YGY81","3S829FDFT2NBOHQMM1CIOU0HZYXDXL","","","<img src=""img/flower8.png"" style=""width:200px; border:14px solid green;"">","null","","","","","",""
"1177.6000000014901","","image-keyboard-response","381","573664","0.0-381.0","3A1COHJ8NKH47GSARROIOZUA4TXH8F","A2TLN8489YGY81","3S829FDFT2NBOHQMM1CIOU0HZYXDXL","","","img/flower3.png","74","1178.8999999985099","1","1","1","0.8,0.2,0.2,0.2,0.8,0.2,0.2,0.2,0.8",""
"null","","html-keyboard-response","382","573968","0.0-382.0","3A1COHJ8NKH47GSARROIOZUA4TXH8F","A2TLN8489YGY81","3S829FDFT2NBOHQMM1CIOU0HZYXDXL","","","<img src=""img/flower3.png"" style=""width:200px; border:14px solid green;"">","null","","","","","",""
"739.1000000014901","","image-keyboard-response","383","574708","0.0-383.0","3A1COHJ8NKH47GSARROIOZUA4TXH8F","A2TLN8489YGY81","3S829FDFT2NBOHQMM1CIOU0HZYXDXL","","","img/flower8.png","75","739.8999999985099","2","0","2","0.8,0.2,0.2,0.2,0.8,0.2,0.2,0.2,0.8",""
"null","","html-keyboard-response","384","575012","0.0-384.0","3A1COHJ8NKH47GSARROIOZUA4TXH8F","A2TLN8489YGY81","3S829FDFT2NBOHQMM1CIOU0HZYXDXL","","","<img src=""img/flower8.png"" style=""width:200px;border:14px solid red;"">","null","","","","","",""
"585.3999999985099","","image-keyboard-response","385","575598","0.0-385.0","3A1COHJ8NKH47GSARROIOZUA4TXH8F","A2TLN8489YGY81","3S829FDFT2NBOHQMM1CIOU0HZYXDXL","","","img/flower8.png","75","586.1999999955297","2","1","2","0.8,0.2,0.2,0.2,0.8,0.2,0.2,0.2,0.8",""
"null","","html-keyboard-response","386","575905","0.0-386.0","3A1COHJ8NKH47GSARROIOZUA4TXH8F","A2TLN8489YGY81","3S829FDFT2NBOHQMM1CIOU0HZYXDXL","","","<img src=""img/flower8.png"" style=""width:200px; border:14px solid green;"">","null","","","","","",""
"1100.5","","image-keyboard-response","387","577007","0.0-387.0","3A1COHJ8NKH47GSARROIOZUA4TXH8F","A2TLN8489YGY81","3S829FDFT2NBOHQMM1CIOU0HZYXDXL","","","img/flower5.png","76","1101.2999999970198","3","1","3","0.8,0.2,0.2,0.2,0.8,0.2,0.2,0.2,0.8",""
"null","","html-keyboard-response","388","577309","0.0-388.0","3A1COHJ8NKH47GSARROIOZUA4TXH8F","A2TLN8489YGY81","3S829FDFT2NBOHQMM1CIOU0HZYXDXL","","","<img src=""img/flower5.png"" style=""width:200px; border:14px solid green;"">","null","","","","","",""
"2076.2000000029802","","image-keyboard-response","389","579386","0.0-389.0","3A1COHJ8NKH47GSARROIOZUA4TXH8F","A2TLN8489YGY81","3S829FDFT2NBOHQMM1CIOU0HZYXDXL","","","img/flower8.png","75","2076.89999999851","2","1","2","0.8,0.2,0.2,0.2,0.8,0.2,0.2,0.2,0.8",""
"null","","html-keyboard-response","390","579696","0.0-390.0","3A1COHJ8NKH47GSARROIOZUA4TXH8F","A2TLN8489YGY81","3S829FDFT2NBOHQMM1CIOU0HZYXDXL","","","<img src=""img/flower8.png"" style=""width:200px; border:14px solid green;"">","null","","","","","",""
"579.1999999955297","","image-keyboard-response","391","580276","0.0-391.0","3A1COHJ8NKH47GSARROIOZUA4TXH8F","A2TLN8489YGY81","3S829FDFT2NBOHQMM1CIOU0HZYXDXL","","","img/flower8.png","75","580.0999999940395","2","1","2","0.8,0.2,0.2,0.2,0.8,0.2,0.2,0.2,0.8",""
"null","","html-keyboard-response","392","580585","0.0-392.0","3A1COHJ8NKH47GSARROIOZUA4TXH8F","A2TLN8489YGY81","3S829FDFT2NBOHQMM1CIOU0HZYXDXL","","","<img src=""img/flower8.png"" style=""width:200px; border:14px solid green;"">","null","","","","","",""
"431.1000000014901","","image-keyboard-response","393","581018","0.0-393.0","3A1COHJ8NKH47GSARROIOZUA4TXH8F","A2TLN8489YGY81","3S829FDFT2NBOHQMM1CIOU0HZYXDXL","","","img/flower8.png","75","432.1000000014901","2","1","2","0.8,0.2,0.2,0.2,0.8,0.2,0.2,0.2,0.8",""
"null","","html-keyboard-response","394","581325","0.0-394.0","3A1COHJ8NKH47GSARROIOZUA4TXH8F","A2TLN8489YGY81","3S829FDFT2NBOHQMM1CIOU0HZYXDXL","","","<img src=""img/flower8.png"" style=""width:200px; border:14px solid green;"">","null","","","","","",""
"992.2999999970198","","image-keyboard-response","395","582318","0.0-395.0","3A1COHJ8NKH47GSARROIOZUA4TXH8F","A2TLN8489YGY81","3S829FDFT2NBOHQMM1CIOU0HZYXDXL","","","img/flower3.png","74","993.0999999940395","1","1","1","0.8,0.2,0.2,0.2,0.8,0.2,0.2,0.2,0.8",""
"null","","html-keyboard-response","396","582634","0.0-396.0","3A1COHJ8NKH47GSARROIOZUA4TXH8F","A2TLN8489YGY81","3S829FDFT2NBOHQMM1CIOU0HZYXDXL","","","<img src=""img/flower3.png"" style=""width:200px; border:14px solid green;"">","null","","","","","",""
"1179.1000000014901","","image-keyboard-response","397","583815","0.0-397.0","3A1COHJ8NKH47GSARROIOZUA4TXH8F","A2TLN8489YGY81","3S829FDFT2NBOHQMM1CIOU0HZYXDXL","","","img/flower5.png","76","1180.1000000014901","3","1","3","0.8,0.2,0.2,0.2,0.8,0.2,0.2,0.2,0.8",""
"null","","html-keyboard-response","398","584117","0.0-398.0","3A1COHJ8NKH47GSARROIOZUA4TXH8F","A2TLN8489YGY81","3S829FDFT2NBOHQMM1CIOU0HZYXDXL","","","<img src=""img/flower5.png"" style=""width:200px; border:14px solid green;"">","null","","","","","",""
"1408.1999999955297","","image-keyboard-response","399","585526","0.0-399.0","3A1COHJ8NKH47GSARROIOZUA4TXH8F","A2TLN8489YGY81","3S829FDFT2NBOHQMM1CIOU0HZYXDXL","","","img/flower8.png","75","1409.0999999940395","2","1","2","0.8,0.2,0.2,0.2,0.8,0.2,0.2,0.2,0.8",""
