"success","trial_type","trial_index","time_elapsed","internal_node_id","assignmentID","mturkID","hitID","view_history","rt","stimulus","key_press","reactionTime","a","r","s","cond","reward_cond","reward_cond_actual","reward_matrix_idx","responses"
"true","fullscreen","0","2409","0.0-0.0","3NQL1CS15SUO4NEC9K3G2D9L90BVYR","A2U4JCTILX14EC","3SA4EMRVJVOCGON1OYE6FAUV3KKP05","","","","","","","","","","","","",""
"","instructions","1","17815","0.0-1.0","3NQL1CS15SUO4NEC9K3G2D9L90BVYR","A2U4JCTILX14EC","3SA4EMRVJVOCGON1OYE6FAUV3KKP05","[{""page_index"":0,""viewing_time"":3377.899999856949},{""page_index"":1,""viewing_time"":4318.100000143051},{""page_index"":2,""viewing_time"":703.7999999523163},{""page_index"":3,""viewing_time"":1578.5999999046326},{""page_index"":4,""viewing_time"":1898.9000000953674},{""page_index"":5,""viewing_time"":1538.0999999046326},{""page_index"":6,""viewing_time"":1117.9000000953674},{""page_index"":7,""viewing_time"":869.5}]","15403.700000047684","","","","","","","","","","",""
"","image-keyboard-response","2","18780","0.0-2.0","3NQL1CS15SUO4NEC9K3G2D9L90BVYR","A2U4JCTILX14EC","3SA4EMRVJVOCGON1OYE6FAUV3KKP05","","962.6000001430511","img/flower3.png","74","964.2000000476837","1","1","2","2","1,0,0,1,1,0,1,0,1","0,0,1,1,0,1,0,1,1","2",""
"","html-keyboard-response","3","19091","0.0-3.0","3NQL1CS15SUO4NEC9K3G2D9L90BVYR","A2U4JCTILX14EC","3SA4EMRVJVOCGON1OYE6FAUV3KKP05","","null","<img src=""img/flower3.png"" style=""width:200px; border:14px solid green;"">","null","","","","","","","","",""
"","image-keyboard-response","4","20720","0.0-4.0","3NQL1CS15SUO4NEC9K3G2D9L90BVYR","A2U4JCTILX14EC","3SA4EMRVJVOCGON1OYE6FAUV3KKP05","","1627.5999999046326","img/flower2.png","75","1628.7000000476837","2","0","1","2","1,0,0,1,1,0,1,0,1","0,0,1,1,0,1,0,1,1","2",""
"","html-keyboard-response","5","21036","0.0-5.0","3NQL1CS15SUO4NEC9K3G2D9L90BVYR","A2U4JCTILX14EC","3SA4EMRVJVOCGON1OYE6FAUV3KKP05","","null","<img src=""img/flower2.png"" style=""width:200px;border:14px solid red;"">","null","","","","","","","","",""
"","image-keyboard-response","6","21320","0.0-6.0","3NQL1CS15SUO4NEC9K3G2D9L90BVYR","A2U4JCTILX14EC","3SA4EMRVJVOCGON1OYE6FAUV3KKP05","","282.30000019073486","img/flower5.png","75","283.39999985694885","2","1","3","2","1,0,0,1,1,0,1,0,1","0,0,1,1,0,1,0,1,1","2",""
"","html-keyboard-response","7","21627","0.0-7.0","3NQL1CS15SUO4NEC9K3G2D9L90BVYR","A2U4JCTILX14EC","3SA4EMRVJVOCGON1OYE6FAUV3KKP05","","null","<img src=""img/flower5.png"" style=""width:200px; border:14px solid green;"">","null","","","","","","","","",""
"","image-keyboard-response","8","22491","0.0-8.0","3NQL1CS15SUO4NEC9K3G2D9L90BVYR","A2U4JCTILX14EC","3SA4EMRVJVOCGON1OYE6FAUV3KKP05","","862","img/flower2.png","75","862.8999998569489","2","0","1","2","1,0,0,1,1,0,1,0,1","0,0,1,1,0,1,0,1,1","2",""
"","html-keyboard-response","9","22798","0.0-9.0","3NQL1CS15SUO4NEC9K3G2D9L90BVYR","A2U4JCTILX14EC","3SA4EMRVJVOCGON1OYE6FAUV3KKP05","","null","<img src=""img/flower2.png"" style=""width:200px;border:14px solid red;"">","null","","","","","","","","",""
"","image-keyboard-response","10","23530","0.0-10.0","3NQL1CS15SUO4NEC9K3G2D9L90BVYR","A2U4JCTILX14EC","3SA4EMRVJVOCGON1OYE6FAUV3KKP05","","730","img/flower3.png","74","731.0999999046326","1","1","2","2","1,0,0,1,1,0,1,0,1","0,0,1,1,0,1,0,1,1","2",""
"","html-keyboard-response","11","23845","0.0-11.0","3NQL1CS15SUO4NEC9K3G2D9L90BVYR","A2U4JCTILX14EC","3SA4EMRVJVOCGON1OYE6FAUV3KKP05","","null","<img src=""img/flower3.png"" style=""width:200px; border:14px solid green;"">","null","","","","","","","","",""
"","image-keyboard-response","12","25161","0.0-12.0","3NQL1CS15SUO4NEC9K3G2D9L90BVYR","A2U4JCTILX14EC","3SA4EMRVJVOCGON1OYE6FAUV3KKP05","","1314","img/flower5.png","76","1315","3","1","3","2","1,0,0,1,1,0,1,0,1","0,0,1,1,0,1,0,1,1","2",""
"","html-keyboard-response","13","25477","0.0-13.0","3NQL1CS15SUO4NEC9K3G2D9L90BVYR","A2U4JCTILX14EC","3SA4EMRVJVOCGON1OYE6FAUV3KKP05","","null","<img src=""img/flower5.png"" style=""width:200px; border:14px solid green;"">","null","","","","","","","","",""
"","image-keyboard-response","14","26431","0.0-14.0","3NQL1CS15SUO4NEC9K3G2D9L90BVYR","A2U4JCTILX14EC","3SA4EMRVJVOCGON1OYE6FAUV3KKP05","","951.5999999046326","img/flower2.png","75","952.5999999046326","2","0","1","2","1,0,0,1,1,0,1,0,1","0,0,1,1,0,1,0,1,1","2",""
"","html-keyboard-response","15","26732","0.0-15.0","3NQL1CS15SUO4NEC9K3G2D9L90BVYR","A2U4JCTILX14EC","3SA4EMRVJVOCGON1OYE6FAUV3KKP05","","null","<img src=""img/flower2.png"" style=""width:200px;border:14px solid red;"">","null","","","","","","","","",""
"","image-keyboard-response","16","27161","0.0-16.0","3NQL1CS15SUO4NEC9K3G2D9L90BVYR","A2U4JCTILX14EC","3SA4EMRVJVOCGON1OYE6FAUV3KKP05","","427.09999990463257","img/flower2.png","75","428.2000000476837","2","0","1","2","1,0,0,1,1,0,1,0,1","0,0,1,1,0,1,0,1,1","2",""
"","html-keyboard-response","17","27463","0.0-17.0","3NQL1CS15SUO4NEC9K3G2D9L90BVYR","A2U4JCTILX14EC","3SA4EMRVJVOCGON1OYE6FAUV3KKP05","","null","<img src=""img/flower2.png"" style=""width:200px;border:14px solid red;"">","null","","","","","","","","",""
"","image-keyboard-response","18","28801","0.0-18.0","3NQL1CS15SUO4NEC9K3G2D9L90BVYR","A2U4JCTILX14EC","3SA4EMRVJVOCGON1OYE6FAUV3KKP05","","1336.2000000476837","img/flower5.png","76","1337","3","1","3","2","1,0,0,1,1,0,1,0,1","0,0,1,1,0,1,0,1,1","2",""
"","html-keyboard-response","19","29103","0.0-19.0","3NQL1CS15SUO4NEC9K3G2D9L90BVYR","A2U4JCTILX14EC","3SA4EMRVJVOCGON1OYE6FAUV3KKP05","","null","<img src=""img/flower5.png"" style=""width:200px; border:14px solid green;"">","null","","","","","","","","",""
"","image-keyboard-response","20","29677","0.0-20.0","3NQL1CS15SUO4NEC9K3G2D9L90BVYR","A2U4JCTILX14EC","3SA4EMRVJVOCGON1OYE6FAUV3KKP05","","573.2999999523163","img/flower5.png","76","574.3000001907349","3","1","3","2","1,0,0,1,1,0,1,0,1","0,0,1,1,0,1,0,1,1","2",""
"","html-keyboard-response","21","29979","0.0-21.0","3NQL1CS15SUO4NEC9K3G2D9L90BVYR","A2U4JCTILX14EC","3SA4EMRVJVOCGON1OYE6FAUV3KKP05","","null","<img src=""img/flower5.png"" style=""width:200px; border:14px solid green;"">","null","","","","","","","","",""
"","image-keyboard-response","22","31507","0.0-22.0","3NQL1CS15SUO4NEC9K3G2D9L90BVYR","A2U4JCTILX14EC","3SA4EMRVJVOCGON1OYE6FAUV3KKP05","","1527","img/flower2.png","75","1527.7999999523163","2","0","1","2","1,0,0,1,1,0,1,0,1","0,0,1,1,0,1,0,1,1","2",""
"","html-keyboard-response","23","31809","0.0-23.0","3NQL1CS15SUO4NEC9K3G2D9L90BVYR","A2U4JCTILX14EC","3SA4EMRVJVOCGON1OYE6FAUV3KKP05","","null","<img src=""img/flower2.png"" style=""width:200px;border:14px solid red;"">","null","","","","","","","","",""
"","image-keyboard-response","24","32751","0.0-24.0","3NQL1CS15SUO4NEC9K3G2D9L90BVYR","A2U4JCTILX14EC","3SA4EMRVJVOCGON1OYE6FAUV3KKP05","","940.2000000476837","img/flower3.png","74","941","1","1","2","2","1,0,0,1,1,0,1,0,1","0,0,1,1,0,1,0,1,1","2",""
"","html-keyboard-response","25","33052","0.0-25.0","3NQL1CS15SUO4NEC9K3G2D9L90BVYR","A2U4JCTILX14EC","3SA4EMRVJVOCGON1OYE6FAUV3KKP05","","null","<img src=""img/flower3.png"" style=""width:200px; border:14px solid green;"">","null","","","","","","","","",""
"","image-keyboard-response","26","33459","0.0-26.0","3NQL1CS15SUO4NEC9K3G2D9L90BVYR","A2U4JCTILX14EC","3SA4EMRVJVOCGON1OYE6FAUV3KKP05","","405.5","img/flower3.png","74","406.39999985694885","1","1","2","2","1,0,0,1,1,0,1,0,1","0,0,1,1,0,1,0,1,1","2",""
"","html-keyboard-response","27","33761","0.0-27.0","3NQL1CS15SUO4NEC9K3G2D9L90BVYR","A2U4JCTILX14EC","3SA4EMRVJVOCGON1OYE6FAUV3KKP05","","null","<img src=""img/flower3.png"" style=""width:200px; border:14px solid green;"">","null","","","","","","","","",""
"","image-keyboard-response","28","34497","0.0-28.0","3NQL1CS15SUO4NEC9K3G2D9L90BVYR","A2U4JCTILX14EC","3SA4EMRVJVOCGON1OYE6FAUV3KKP05","","734.6999998092651","img/flower5.png","76","735.7000000476837","3","1","3","2","1,0,0,1,1,0,1,0,1","0,0,1,1,0,1,0,1,1","2",""
"","html-keyboard-response","29","34800","0.0-29.0","3NQL1CS15SUO4NEC9K3G2D9L90BVYR","A2U4JCTILX14EC","3SA4EMRVJVOCGON1OYE6FAUV3KKP05","","null","<img src=""img/flower5.png"" style=""width:200px; border:14px solid green;"">","null","","","","","","","","",""
"","image-keyboard-response","30","36329","0.0-30.0","3NQL1CS15SUO4NEC9K3G2D9L90BVYR","A2U4JCTILX14EC","3SA4EMRVJVOCGON1OYE6FAUV3KKP05","","1528.3999998569489","img/flower3.png","74","1529.3000001907349","1","1","2","2","1,0,0,1,1,0,1,0,1","0,0,1,1,0,1,0,1,1","2",""
"","html-keyboard-response","31","36631","0.0-31.0","3NQL1CS15SUO4NEC9K3G2D9L90BVYR","A2U4JCTILX14EC","3SA4EMRVJVOCGON1OYE6FAUV3KKP05","","null","<img src=""img/flower3.png"" style=""width:200px; border:14px solid green;"">","null","","","","","","","","",""
"","image-keyboard-response","32","37525","0.0-32.0","3NQL1CS15SUO4NEC9K3G2D9L90BVYR","A2U4JCTILX14EC","3SA4EMRVJVOCGON1OYE6FAUV3KKP05","","892.6000001430511","img/flower5.png","76","893.6000001430511","3","1","3","2","1,0,0,1,1,0,1,0,1","0,0,1,1,0,1,0,1,1","2",""
"","html-keyboard-response","33","37827","0.0-33.0","3NQL1CS15SUO4NEC9K3G2D9L90BVYR","A2U4JCTILX14EC","3SA4EMRVJVOCGON1OYE6FAUV3KKP05","","null","<img src=""img/flower5.png"" style=""width:200px; border:14px solid green;"">","null","","","","","","","","",""
"","image-keyboard-response","34","38585","0.0-34.0","3NQL1CS15SUO4NEC9K3G2D9L90BVYR","A2U4JCTILX14EC","3SA4EMRVJVOCGON1OYE6FAUV3KKP05","","757","img/flower2.png","75","758","2","0","1","2","1,0,0,1,1,0,1,0,1","0,0,1,1,0,1,0,1,1","2",""
"","html-keyboard-response","35","38887","0.0-35.0","3NQL1CS15SUO4NEC9K3G2D9L90BVYR","A2U4JCTILX14EC","3SA4EMRVJVOCGON1OYE6FAUV3KKP05","","null","<img src=""img/flower2.png"" style=""width:200px;border:14px solid red;"">","null","","","","","","","","",""
"","image-keyboard-response","36","39702","0.0-36.0","3NQL1CS15SUO4NEC9K3G2D9L90BVYR","A2U4JCTILX14EC","3SA4EMRVJVOCGON1OYE6FAUV3KKP05","","813.6999998092651","img/flower3.png","74","814.3999998569489","1","1","2","2","1,0,0,1,1,0,1,0,1","0,0,1,1,0,1,0,1,1","2",""
"","html-keyboard-response","37","40003","0.0-37.0","3NQL1CS15SUO4NEC9K3G2D9L90BVYR","A2U4JCTILX14EC","3SA4EMRVJVOCGON1OYE6FAUV3KKP05","","null","<img src=""img/flower3.png"" style=""width:200px; border:14px solid green;"">","null","","","","","","","","",""
"","image-keyboard-response","38","40703","0.0-38.0","3NQL1CS15SUO4NEC9K3G2D9L90BVYR","A2U4JCTILX14EC","3SA4EMRVJVOCGON1OYE6FAUV3KKP05","","698.2000000476837","img/flower3.png","74","699","1","1","2","2","1,0,0,1,1,0,1,0,1","0,0,1,1,0,1,0,1,1","2",""
"","html-keyboard-response","39","41005","0.0-39.0","3NQL1CS15SUO4NEC9K3G2D9L90BVYR","A2U4JCTILX14EC","3SA4EMRVJVOCGON1OYE6FAUV3KKP05","","null","<img src=""img/flower3.png"" style=""width:200px; border:14px solid green;"">","null","","","","","","","","",""
"","image-keyboard-response","40","41571","0.0-40.0","3NQL1CS15SUO4NEC9K3G2D9L90BVYR","A2U4JCTILX14EC","3SA4EMRVJVOCGON1OYE6FAUV3KKP05","","564.5","img/flower3.png","74","565.5","1","1","2","2","1,0,0,1,1,0,1,0,1","0,0,1,1,0,1,0,1,1","2",""
"","html-keyboard-response","41","41872","0.0-41.0","3NQL1CS15SUO4NEC9K3G2D9L90BVYR","A2U4JCTILX14EC","3SA4EMRVJVOCGON1OYE6FAUV3KKP05","","null","<img src=""img/flower3.png"" style=""width:200px; border:14px solid green;"">","null","","","","","","","","",""
"","image-keyboard-response","42","42975","0.0-42.0","3NQL1CS15SUO4NEC9K3G2D9L90BVYR","A2U4JCTILX14EC","3SA4EMRVJVOCGON1OYE6FAUV3KKP05","","1101.7999999523163","img/flower2.png","76","1102.8000001907349","3","1","1","2","1,0,0,1,1,0,1,0,1","0,0,1,1,0,1,0,1,1","2",""
"","html-keyboard-response","43","43277","0.0-43.0","3NQL1CS15SUO4NEC9K3G2D9L90BVYR","A2U4JCTILX14EC","3SA4EMRVJVOCGON1OYE6FAUV3KKP05","","null","<img src=""img/flower2.png"" style=""width:200px; border:14px solid green;"">","null","","","","","","","","",""
"","image-keyboard-response","44","43675","0.0-44.0","3NQL1CS15SUO4NEC9K3G2D9L90BVYR","A2U4JCTILX14EC","3SA4EMRVJVOCGON1OYE6FAUV3KKP05","","396","img/flower2.png","76","397","3","1","1","2","1,0,0,1,1,0,1,0,1","0,0,1,1,0,1,0,1,1","2",""
"","html-keyboard-response","45","43977","0.0-45.0","3NQL1CS15SUO4NEC9K3G2D9L90BVYR","A2U4JCTILX14EC","3SA4EMRVJVOCGON1OYE6FAUV3KKP05","","null","<img src=""img/flower2.png"" style=""width:200px; border:14px solid green;"">","null","","","","","","","","",""
"","image-keyboard-response","46","45204","0.0-46.0","3NQL1CS15SUO4NEC9K3G2D9L90BVYR","A2U4JCTILX14EC","3SA4EMRVJVOCGON1OYE6FAUV3KKP05","","1226.3000001907349","img/flower5.png","75","1227.1000001430511","2","1","3","2","1,0,0,1,1,0,1,0,1","0,0,1,1,0,1,0,1,1","2",""
"","html-keyboard-response","47","45506","0.0-47.0","3NQL1CS15SUO4NEC9K3G2D9L90BVYR","A2U4JCTILX14EC","3SA4EMRVJVOCGON1OYE6FAUV3KKP05","","null","<img src=""img/flower5.png"" style=""width:200px; border:14px solid green;"">","null","","","","","","","","",""
"","image-keyboard-response","48","46063","0.0-48.0","3NQL1CS15SUO4NEC9K3G2D9L90BVYR","A2U4JCTILX14EC","3SA4EMRVJVOCGON1OYE6FAUV3KKP05","","555.1999998092651","img/flower5.png","75","556.1000001430511","2","1","3","2","1,0,0,1,1,0,1,0,1","0,0,1,1,0,1,0,1,1","2",""
"","html-keyboard-response","49","46365","0.0-49.0","3NQL1CS15SUO4NEC9K3G2D9L90BVYR","A2U4JCTILX14EC","3SA4EMRVJVOCGON1OYE6FAUV3KKP05","","null","<img src=""img/flower5.png"" style=""width:200px; border:14px solid green;"">","null","","","","","","","","",""
"","image-keyboard-response","50","48367","0.0-50.0","3NQL1CS15SUO4NEC9K3G2D9L90BVYR","A2U4JCTILX14EC","3SA4EMRVJVOCGON1OYE6FAUV3KKP05","","","img/flower2.png","","2001.4000000953674","-1","0","1","2","1,0,0,1,1,0,1,0,1","0,0,1,1,0,1,0,1,1","2",""
"","html-keyboard-response","51","48669","0.0-51.0","3NQL1CS15SUO4NEC9K3G2D9L90BVYR","A2U4JCTILX14EC","3SA4EMRVJVOCGON1OYE6FAUV3KKP05","","null","<img src=""img/flower2.png"" style=""width:200px;border:14px solid red;"">","null","","","","","","","","",""
"","image-keyboard-response","52","48900","0.0-52.0","3NQL1CS15SUO4NEC9K3G2D9L90BVYR","A2U4JCTILX14EC","3SA4EMRVJVOCGON1OYE6FAUV3KKP05","","229.09999990463257","img/flower2.png","74","230","1","0","1","2","1,0,0,1,1,0,1,0,1","0,0,1,1,0,1,0,1,1","2",""
"","html-keyboard-response","53","49203","0.0-53.0","3NQL1CS15SUO4NEC9K3G2D9L90BVYR","A2U4JCTILX14EC","3SA4EMRVJVOCGON1OYE6FAUV3KKP05","","null","<img src=""img/flower2.png"" style=""width:200px;border:14px solid red;"">","null","","","","","","","","",""
"","image-keyboard-response","54","49305","0.0-54.0","3NQL1CS15SUO4NEC9K3G2D9L90BVYR","A2U4JCTILX14EC","3SA4EMRVJVOCGON1OYE6FAUV3KKP05","","100.29999995231628","img/flower2.png","75","101.30000019073486","2","0","1","2","1,0,0,1,1,0,1,0,1","0,0,1,1,0,1,0,1,1","2",""
"","html-keyboard-response","55","49607","0.0-55.0","3NQL1CS15SUO4NEC9K3G2D9L90BVYR","A2U4JCTILX14EC","3SA4EMRVJVOCGON1OYE6FAUV3KKP05","","null","<img src=""img/flower2.png"" style=""width:200px;border:14px solid red;"">","null","","","","","","","","",""
"","image-keyboard-response","56","50878","0.0-56.0","3NQL1CS15SUO4NEC9K3G2D9L90BVYR","A2U4JCTILX14EC","3SA4EMRVJVOCGON1OYE6FAUV3KKP05","","1269.2000000476837","img/flower3.png","74","1270.1999998092651","1","1","2","2","1,0,0,1,1,0,1,0,1","0,0,1,1,0,1,0,1,1","2",""
"","html-keyboard-response","57","51180","0.0-57.0","3NQL1CS15SUO4NEC9K3G2D9L90BVYR","A2U4JCTILX14EC","3SA4EMRVJVOCGON1OYE6FAUV3KKP05","","null","<img src=""img/flower3.png"" style=""width:200px; border:14px solid green;"">","null","","","","","","","","",""
"","image-keyboard-response","58","51528","0.0-58.0","3NQL1CS15SUO4NEC9K3G2D9L90BVYR","A2U4JCTILX14EC","3SA4EMRVJVOCGON1OYE6FAUV3KKP05","","345.5","img/flower3.png","74","346.59999990463257","1","1","2","2","1,0,0,1,1,0,1,0,1","0,0,1,1,0,1,0,1,1","2",""
"","html-keyboard-response","59","51830","0.0-59.0","3NQL1CS15SUO4NEC9K3G2D9L90BVYR","A2U4JCTILX14EC","3SA4EMRVJVOCGON1OYE6FAUV3KKP05","","null","<img src=""img/flower3.png"" style=""width:200px; border:14px solid green;"">","null","","","","","","","","",""
"","image-keyboard-response","60","52143","0.0-60.0","3NQL1CS15SUO4NEC9K3G2D9L90BVYR","A2U4JCTILX14EC","3SA4EMRVJVOCGON1OYE6FAUV3KKP05","","311.7000000476837","img/flower3.png","74","312.7999999523163","1","1","2","2","1,0,0,1,1,0,1,0,1","0,0,1,1,0,1,0,1,1","2",""
"","html-keyboard-response","61","52445","0.0-61.0","3NQL1CS15SUO4NEC9K3G2D9L90BVYR","A2U4JCTILX14EC","3SA4EMRVJVOCGON1OYE6FAUV3KKP05","","null","<img src=""img/flower3.png"" style=""width:200px; border:14px solid green;"">","null","","","","","","","","",""
"","image-keyboard-response","62","52912","0.0-62.0","3NQL1CS15SUO4NEC9K3G2D9L90BVYR","A2U4JCTILX14EC","3SA4EMRVJVOCGON1OYE6FAUV3KKP05","","465.7999999523163","img/flower3.png","74","466.7000000476837","1","1","2","2","1,0,0,1,1,0,1,0,1","0,0,1,1,0,1,0,1,1","2",""
"","html-keyboard-response","63","53213","0.0-63.0","3NQL1CS15SUO4NEC9K3G2D9L90BVYR","A2U4JCTILX14EC","3SA4EMRVJVOCGON1OYE6FAUV3KKP05","","null","<img src=""img/flower3.png"" style=""width:200px; border:14px solid green;"">","null","","","","","","","","",""
"","image-keyboard-response","64","53519","0.0-64.0","3NQL1CS15SUO4NEC9K3G2D9L90BVYR","A2U4JCTILX14EC","3SA4EMRVJVOCGON1OYE6FAUV3KKP05","","304.5","img/flower3.png","74","305.2999999523163","1","1","2","2","1,0,0,1,1,0,1,0,1","0,0,1,1,0,1,0,1,1","2",""
"","html-keyboard-response","65","53821","0.0-65.0","3NQL1CS15SUO4NEC9K3G2D9L90BVYR","A2U4JCTILX14EC","3SA4EMRVJVOCGON1OYE6FAUV3KKP05","","null","<img src=""img/flower3.png"" style=""width:200px; border:14px solid green;"">","null","","","","","","","","",""
"","image-keyboard-response","66","54578","0.0-66.0","3NQL1CS15SUO4NEC9K3G2D9L90BVYR","A2U4JCTILX14EC","3SA4EMRVJVOCGON1OYE6FAUV3KKP05","","754.7000000476837","img/flower5.png","76","755.7999999523163","3","1","3","2","1,0,0,1,1,0,1,0,1","0,0,1,1,0,1,0,1,1","2",""
"","html-keyboard-response","67","54893","0.0-67.0","3NQL1CS15SUO4NEC9K3G2D9L90BVYR","A2U4JCTILX14EC","3SA4EMRVJVOCGON1OYE6FAUV3KKP05","","null","<img src=""img/flower5.png"" style=""width:200px; border:14px solid green;"">","null","","","","","","","","",""
"","image-keyboard-response","68","55181","0.0-68.0","3NQL1CS15SUO4NEC9K3G2D9L90BVYR","A2U4JCTILX14EC","3SA4EMRVJVOCGON1OYE6FAUV3KKP05","","286.2999999523163","img/flower5.png","76","287","3","1","3","2","1,0,0,1,1,0,1,0,1","0,0,1,1,0,1,0,1,1","2",""
"","html-keyboard-response","69","55483","0.0-69.0","3NQL1CS15SUO4NEC9K3G2D9L90BVYR","A2U4JCTILX14EC","3SA4EMRVJVOCGON1OYE6FAUV3KKP05","","null","<img src=""img/flower5.png"" style=""width:200px; border:14px solid green;"">","null","","","","","","","","",""
"","image-keyboard-response","70","56200","0.0-70.0","3NQL1CS15SUO4NEC9K3G2D9L90BVYR","A2U4JCTILX14EC","3SA4EMRVJVOCGON1OYE6FAUV3KKP05","","715.4000000953674","img/flower3.png","74","716.2000000476837","1","1","2","2","1,0,0,1,1,0,1,0,1","0,0,1,1,0,1,0,1,1","2",""
"","html-keyboard-response","71","56501","0.0-71.0","3NQL1CS15SUO4NEC9K3G2D9L90BVYR","A2U4JCTILX14EC","3SA4EMRVJVOCGON1OYE6FAUV3KKP05","","null","<img src=""img/flower3.png"" style=""width:200px; border:14px solid green;"">","null","","","","","","","","",""
"","image-keyboard-response","72","57538","0.0-72.0","3NQL1CS15SUO4NEC9K3G2D9L90BVYR","A2U4JCTILX14EC","3SA4EMRVJVOCGON1OYE6FAUV3KKP05","","1034.8999998569489","img/flower2.png","76","1035.5999999046326","3","1","1","2","1,0,0,1,1,0,1,0,1","0,0,1,1,0,1,0,1,1","2",""
"","html-keyboard-response","73","57840","0.0-73.0","3NQL1CS15SUO4NEC9K3G2D9L90BVYR","A2U4JCTILX14EC","3SA4EMRVJVOCGON1OYE6FAUV3KKP05","","null","<img src=""img/flower2.png"" style=""width:200px; border:14px solid green;"">","null","","","","","","","","",""
"","image-keyboard-response","74","58163","0.0-74.0","3NQL1CS15SUO4NEC9K3G2D9L90BVYR","A2U4JCTILX14EC","3SA4EMRVJVOCGON1OYE6FAUV3KKP05","","322","img/flower2.png","76","323","3","1","1","2","1,0,0,1,1,0,1,0,1","0,0,1,1,0,1,0,1,1","2",""
"","html-keyboard-response","75","58465","0.0-75.0","3NQL1CS15SUO4NEC9K3G2D9L90BVYR","A2U4JCTILX14EC","3SA4EMRVJVOCGON1OYE6FAUV3KKP05","","null","<img src=""img/flower2.png"" style=""width:200px; border:14px solid green;"">","null","","","","","","","","",""
"","image-keyboard-response","76","59796","0.0-76.0","3NQL1CS15SUO4NEC9K3G2D9L90BVYR","A2U4JCTILX14EC","3SA4EMRVJVOCGON1OYE6FAUV3KKP05","","1329.3000001907349","img/flower5.png","75","1330.2999999523163","2","1","3","2","1,0,0,1,1,0,1,0,1","0,0,1,1,0,1,0,1,1","2",""
"","html-keyboard-response","77","60098","0.0-77.0","3NQL1CS15SUO4NEC9K3G2D9L90BVYR","A2U4JCTILX14EC","3SA4EMRVJVOCGON1OYE6FAUV3KKP05","","null","<img src=""img/flower5.png"" style=""width:200px; border:14px solid green;"">","null","","","","","","","","",""
"","image-keyboard-response","78","61096","0.0-78.0","3NQL1CS15SUO4NEC9K3G2D9L90BVYR","A2U4JCTILX14EC","3SA4EMRVJVOCGON1OYE6FAUV3KKP05","","996.8999998569489","img/flower3.png","74","997.8999998569489","1","1","2","2","1,0,0,1,1,0,1,0,1","0,0,1,1,0,1,0,1,1","2",""
"","html-keyboard-response","79","61398","0.0-79.0","3NQL1CS15SUO4NEC9K3G2D9L90BVYR","A2U4JCTILX14EC","3SA4EMRVJVOCGON1OYE6FAUV3KKP05","","null","<img src=""img/flower3.png"" style=""width:200px; border:14px solid green;"">","null","","","","","","","","",""
"","image-keyboard-response","80","61712","0.0-80.0","3NQL1CS15SUO4NEC9K3G2D9L90BVYR","A2U4JCTILX14EC","3SA4EMRVJVOCGON1OYE6FAUV3KKP05","","312","img/flower3.png","74","313","1","1","2","2","1,0,0,1,1,0,1,0,1","0,0,1,1,0,1,0,1,1","2",""
"","html-keyboard-response","81","62014","0.0-81.0","3NQL1CS15SUO4NEC9K3G2D9L90BVYR","A2U4JCTILX14EC","3SA4EMRVJVOCGON1OYE6FAUV3KKP05","","null","<img src=""img/flower3.png"" style=""width:200px; border:14px solid green;"">","null","","","","","","","","",""
"","image-keyboard-response","82","63134","0.0-82.0","3NQL1CS15SUO4NEC9K3G2D9L90BVYR","A2U4JCTILX14EC","3SA4EMRVJVOCGON1OYE6FAUV3KKP05","","1118.3999998569489","img/flower5.png","76","1119.5","3","1","3","2","1,0,0,1,1,0,1,0,1","0,0,1,1,0,1,0,1,1","2",""
"","html-keyboard-response","83","63444","0.0-83.0","3NQL1CS15SUO4NEC9K3G2D9L90BVYR","A2U4JCTILX14EC","3SA4EMRVJVOCGON1OYE6FAUV3KKP05","","null","<img src=""img/flower5.png"" style=""width:200px; border:14px solid green;"">","null","","","","","","","","",""
"","image-keyboard-response","84","64587","0.0-84.0","3NQL1CS15SUO4NEC9K3G2D9L90BVYR","A2U4JCTILX14EC","3SA4EMRVJVOCGON1OYE6FAUV3KKP05","","1141.4000000953674","img/flower3.png","76","1142.5","3","1","2","2","1,0,0,1,1,0,1,0,1","0,0,1,1,0,1,0,1,1","2",""
"","html-keyboard-response","85","64890","0.0-85.0","3NQL1CS15SUO4NEC9K3G2D9L90BVYR","A2U4JCTILX14EC","3SA4EMRVJVOCGON1OYE6FAUV3KKP05","","null","<img src=""img/flower3.png"" style=""width:200px; border:14px solid green;"">","null","","","","","","","","",""
"","image-keyboard-response","86","65178","0.0-86.0","3NQL1CS15SUO4NEC9K3G2D9L90BVYR","A2U4JCTILX14EC","3SA4EMRVJVOCGON1OYE6FAUV3KKP05","","286.7999999523163","img/flower3.png","76","287.60000014305115","3","1","2","2","1,0,0,1,1,0,1,0,1","0,0,1,1,0,1,0,1,1","2",""
"","html-keyboard-response","87","65481","0.0-87.0","3NQL1CS15SUO4NEC9K3G2D9L90BVYR","A2U4JCTILX14EC","3SA4EMRVJVOCGON1OYE6FAUV3KKP05","","null","<img src=""img/flower3.png"" style=""width:200px; border:14px solid green;"">","null","","","","","","","","",""
"","image-keyboard-response","88","67483","0.0-88.0","3NQL1CS15SUO4NEC9K3G2D9L90BVYR","A2U4JCTILX14EC","3SA4EMRVJVOCGON1OYE6FAUV3KKP05","","","img/flower2.png","","2001.7999999523163","-1","0","1","2","1,0,0,1,1,0,1,0,1","0,0,1,1,0,1,0,1,1","2",""
"","html-keyboard-response","89","67786","0.0-89.0","3NQL1CS15SUO4NEC9K3G2D9L90BVYR","A2U4JCTILX14EC","3SA4EMRVJVOCGON1OYE6FAUV3KKP05","","null","<img src=""img/flower2.png"" style=""width:200px;border:14px solid red;"">","null","","","","","","","","",""
"","image-keyboard-response","90","68980","0.0-90.0","3NQL1CS15SUO4NEC9K3G2D9L90BVYR","A2U4JCTILX14EC","3SA4EMRVJVOCGON1OYE6FAUV3KKP05","","1192.4000000953674","img/flower3.png","74","1193.5","1","1","2","2","1,0,0,1,1,0,1,0,1","0,0,1,1,0,1,0,1,1","2",""
"","html-keyboard-response","91","69282","0.0-91.0","3NQL1CS15SUO4NEC9K3G2D9L90BVYR","A2U4JCTILX14EC","3SA4EMRVJVOCGON1OYE6FAUV3KKP05","","null","<img src=""img/flower3.png"" style=""width:200px; border:14px solid green;"">","null","","","","","","","","",""
"","image-keyboard-response","92","69605","0.0-92.0","3NQL1CS15SUO4NEC9K3G2D9L90BVYR","A2U4JCTILX14EC","3SA4EMRVJVOCGON1OYE6FAUV3KKP05","","322.09999990463257","img/flower3.png","74","323","1","1","2","2","1,0,0,1,1,0,1,0,1","0,0,1,1,0,1,0,1,1","2",""
"","html-keyboard-response","93","69907","0.0-93.0","3NQL1CS15SUO4NEC9K3G2D9L90BVYR","A2U4JCTILX14EC","3SA4EMRVJVOCGON1OYE6FAUV3KKP05","","null","<img src=""img/flower3.png"" style=""width:200px; border:14px solid green;"">","null","","","","","","","","",""
"","image-keyboard-response","94","71452","0.0-94.0","3NQL1CS15SUO4NEC9K3G2D9L90BVYR","A2U4JCTILX14EC","3SA4EMRVJVOCGON1OYE6FAUV3KKP05","","1543.7000000476837","img/flower5.png","76","1544.7000000476837","3","1","3","2","1,0,0,1,1,0,1,0,1","0,0,1,1,0,1,0,1,1","2",""
"","html-keyboard-response","95","71754","0.0-95.0","3NQL1CS15SUO4NEC9K3G2D9L90BVYR","A2U4JCTILX14EC","3SA4EMRVJVOCGON1OYE6FAUV3KKP05","","null","<img src=""img/flower5.png"" style=""width:200px; border:14px solid green;"">","null","","","","","","","","",""
"","image-keyboard-response","96","72092","0.0-96.0","3NQL1CS15SUO4NEC9K3G2D9L90BVYR","A2U4JCTILX14EC","3SA4EMRVJVOCGON1OYE6FAUV3KKP05","","337","img/flower5.png","76","338","3","1","3","2","1,0,0,1,1,0,1,0,1","0,0,1,1,0,1,0,1,1","2",""
"","html-keyboard-response","97","72394","0.0-97.0","3NQL1CS15SUO4NEC9K3G2D9L90BVYR","A2U4JCTILX14EC","3SA4EMRVJVOCGON1OYE6FAUV3KKP05","","null","<img src=""img/flower5.png"" style=""width:200px; border:14px solid green;"">","null","","","","","","","","",""
"","image-keyboard-response","98","72703","0.0-98.0","3NQL1CS15SUO4NEC9K3G2D9L90BVYR","A2U4JCTILX14EC","3SA4EMRVJVOCGON1OYE6FAUV3KKP05","","307.69999980926514","img/flower5.png","76","308.89999985694885","3","1","3","2","1,0,0,1,1,0,1,0,1","0,0,1,1,0,1,0,1,1","2",""
"","html-keyboard-response","99","73005","0.0-99.0","3NQL1CS15SUO4NEC9K3G2D9L90BVYR","A2U4JCTILX14EC","3SA4EMRVJVOCGON1OYE6FAUV3KKP05","","null","<img src=""img/flower5.png"" style=""width:200px; border:14px solid green;"">","null","","","","","","","","",""
"","image-keyboard-response","100","75007","0.0-100.0","3NQL1CS15SUO4NEC9K3G2D9L90BVYR","A2U4JCTILX14EC","3SA4EMRVJVOCGON1OYE6FAUV3KKP05","","","img/flower2.png","","2001.5","-1","0","1","2","1,0,0,1,1,0,1,0,1","0,0,1,1,0,1,0,1,1","2",""
"","html-keyboard-response","101","75309","0.0-101.0","3NQL1CS15SUO4NEC9K3G2D9L90BVYR","A2U4JCTILX14EC","3SA4EMRVJVOCGON1OYE6FAUV3KKP05","","null","<img src=""img/flower2.png"" style=""width:200px;border:14px solid red;"">","null","","","","","","","","",""
"","image-keyboard-response","102","75559","0.0-102.0","3NQL1CS15SUO4NEC9K3G2D9L90BVYR","A2U4JCTILX14EC","3SA4EMRVJVOCGON1OYE6FAUV3KKP05","","248.90000009536743","img/flower2.png","76","250","3","1","1","2","1,0,0,1,1,0,1,0,1","0,0,1,1,0,1,0,1,1","2",""
"","html-keyboard-response","103","75862","0.0-103.0","3NQL1CS15SUO4NEC9K3G2D9L90BVYR","A2U4JCTILX14EC","3SA4EMRVJVOCGON1OYE6FAUV3KKP05","","null","<img src=""img/flower2.png"" style=""width:200px; border:14px solid green;"">","null","","","","","","","","",""
"","image-keyboard-response","104","75906","0.0-104.0","3NQL1CS15SUO4NEC9K3G2D9L90BVYR","A2U4JCTILX14EC","3SA4EMRVJVOCGON1OYE6FAUV3KKP05","","42.700000047683716","img/flower3.png","76","43.700000047683716","3","1","2","2","1,0,0,1,1,0,1,0,1","0,0,1,1,0,1,0,1,1","2",""
"","html-keyboard-response","105","76208","0.0-105.0","3NQL1CS15SUO4NEC9K3G2D9L90BVYR","A2U4JCTILX14EC","3SA4EMRVJVOCGON1OYE6FAUV3KKP05","","null","<img src=""img/flower3.png"" style=""width:200px; border:14px solid green;"">","null","","","","","","","","",""
"","image-keyboard-response","106","76677","0.0-106.0","3NQL1CS15SUO4NEC9K3G2D9L90BVYR","A2U4JCTILX14EC","3SA4EMRVJVOCGON1OYE6FAUV3KKP05","","467.60000014305115","img/flower3.png","76","468.5","3","1","2","2","1,0,0,1,1,0,1,0,1","0,0,1,1,0,1,0,1,1","2",""
"","html-keyboard-response","107","76978","0.0-107.0","3NQL1CS15SUO4NEC9K3G2D9L90BVYR","A2U4JCTILX14EC","3SA4EMRVJVOCGON1OYE6FAUV3KKP05","","null","<img src=""img/flower3.png"" style=""width:200px; border:14px solid green;"">","null","","","","","","","","",""
"","image-keyboard-response","108","77183","0.0-108.0","3NQL1CS15SUO4NEC9K3G2D9L90BVYR","A2U4JCTILX14EC","3SA4EMRVJVOCGON1OYE6FAUV3KKP05","","203","img/flower5.png","74","204.09999990463257","1","0","3","2","1,0,0,1,1,0,1,0,1","0,0,1,1,0,1,0,1,1","2",""
"","html-keyboard-response","109","77485","0.0-109.0","3NQL1CS15SUO4NEC9K3G2D9L90BVYR","A2U4JCTILX14EC","3SA4EMRVJVOCGON1OYE6FAUV3KKP05","","null","<img src=""img/flower5.png"" style=""width:200px;border:14px solid red;"">","null","","","","","","","","",""
"","image-keyboard-response","110","77734","0.0-110.0","3NQL1CS15SUO4NEC9K3G2D9L90BVYR","A2U4JCTILX14EC","3SA4EMRVJVOCGON1OYE6FAUV3KKP05","","247.80000019073486","img/flower3.png","76","248.79999995231628","3","1","2","2","1,0,0,1,1,0,1,0,1","0,0,1,1,0,1,0,1,1","2",""
"","html-keyboard-response","111","78036","0.0-111.0","3NQL1CS15SUO4NEC9K3G2D9L90BVYR","A2U4JCTILX14EC","3SA4EMRVJVOCGON1OYE6FAUV3KKP05","","null","<img src=""img/flower3.png"" style=""width:200px; border:14px solid green;"">","null","","","","","","","","",""
"","image-keyboard-response","112","78484","0.0-112.0","3NQL1CS15SUO4NEC9K3G2D9L90BVYR","A2U4JCTILX14EC","3SA4EMRVJVOCGON1OYE6FAUV3KKP05","","447.10000014305115","img/flower3.png","76","448.10000014305115","3","1","2","2","1,0,0,1,1,0,1,0,1","0,0,1,1,0,1,0,1,1","2",""
"","html-keyboard-response","113","78787","0.0-113.0","3NQL1CS15SUO4NEC9K3G2D9L90BVYR","A2U4JCTILX14EC","3SA4EMRVJVOCGON1OYE6FAUV3KKP05","","null","<img src=""img/flower3.png"" style=""width:200px; border:14px solid green;"">","null","","","","","","","","",""
"","image-keyboard-response","114","79771","0.0-114.0","3NQL1CS15SUO4NEC9K3G2D9L90BVYR","A2U4JCTILX14EC","3SA4EMRVJVOCGON1OYE6FAUV3KKP05","","982.9000000953674","img/flower2.png","76","983.7000000476837","3","1","1","2","1,0,0,1,1,0,1,0,1","0,0,1,1,0,1,0,1,1","2",""
"","html-keyboard-response","115","80072","0.0-115.0","3NQL1CS15SUO4NEC9K3G2D9L90BVYR","A2U4JCTILX14EC","3SA4EMRVJVOCGON1OYE6FAUV3KKP05","","null","<img src=""img/flower2.png"" style=""width:200px; border:14px solid green;"">","null","","","","","","","","",""
"","image-keyboard-response","116","80353","0.0-116.0","3NQL1CS15SUO4NEC9K3G2D9L90BVYR","A2U4JCTILX14EC","3SA4EMRVJVOCGON1OYE6FAUV3KKP05","","278.7000000476837","img/flower3.png","76","279.59999990463257","3","1","2","2","1,0,0,1,1,0,1,0,1","0,0,1,1,0,1,0,1,1","2",""
"","html-keyboard-response","117","80654","0.0-117.0","3NQL1CS15SUO4NEC9K3G2D9L90BVYR","A2U4JCTILX14EC","3SA4EMRVJVOCGON1OYE6FAUV3KKP05","","null","<img src=""img/flower3.png"" style=""width:200px; border:14px solid green;"">","null","","","","","","","","",""
"","image-keyboard-response","118","81575","0.0-118.0","3NQL1CS15SUO4NEC9K3G2D9L90BVYR","A2U4JCTILX14EC","3SA4EMRVJVOCGON1OYE6FAUV3KKP05","","919.3000001907349","img/flower5.png","74","920.1000001430511","1","0","3","2","1,0,0,1,1,0,1,0,1","0,0,1,1,0,1,0,1,1","2",""
"","html-keyboard-response","119","81876","0.0-119.0","3NQL1CS15SUO4NEC9K3G2D9L90BVYR","A2U4JCTILX14EC","3SA4EMRVJVOCGON1OYE6FAUV3KKP05","","null","<img src=""img/flower5.png"" style=""width:200px;border:14px solid red;"">","null","","","","","","","","",""
"","image-keyboard-response","120","83328","0.0-120.0","3NQL1CS15SUO4NEC9K3G2D9L90BVYR","A2U4JCTILX14EC","3SA4EMRVJVOCGON1OYE6FAUV3KKP05","","1449.8000001907349","img/flower2.png","76","1450.8999998569489","3","1","1","2","1,0,0,1,1,0,1,0,1","0,0,1,1,0,1,0,1,1","2",""
"","html-keyboard-response","121","83630","0.0-121.0","3NQL1CS15SUO4NEC9K3G2D9L90BVYR","A2U4JCTILX14EC","3SA4EMRVJVOCGON1OYE6FAUV3KKP05","","null","<img src=""img/flower2.png"" style=""width:200px; border:14px solid green;"">","null","","","","","","","","",""
"","image-keyboard-response","122","83923","0.0-122.0","3NQL1CS15SUO4NEC9K3G2D9L90BVYR","A2U4JCTILX14EC","3SA4EMRVJVOCGON1OYE6FAUV3KKP05","","292.2999999523163","img/flower2.png","76","293.19999980926514","3","1","1","2","1,0,0,1,1,0,1,0,1","0,0,1,1,0,1,0,1,1","2",""
"","html-keyboard-response","123","84225","0.0-123.0","3NQL1CS15SUO4NEC9K3G2D9L90BVYR","A2U4JCTILX14EC","3SA4EMRVJVOCGON1OYE6FAUV3KKP05","","null","<img src=""img/flower2.png"" style=""width:200px; border:14px solid green;"">","null","","","","","","","","",""
"","image-keyboard-response","124","86133","0.0-124.0","3NQL1CS15SUO4NEC9K3G2D9L90BVYR","A2U4JCTILX14EC","3SA4EMRVJVOCGON1OYE6FAUV3KKP05","","1907","img/flower5.png","76","1907.8999998569489","3","1","3","2","1,0,0,1,1,0,1,0,1","0,0,1,1,0,1,0,1,1","2",""
"","html-keyboard-response","125","86435","0.0-125.0","3NQL1CS15SUO4NEC9K3G2D9L90BVYR","A2U4JCTILX14EC","3SA4EMRVJVOCGON1OYE6FAUV3KKP05","","null","<img src=""img/flower5.png"" style=""width:200px; border:14px solid green;"">","null","","","","","","","","",""
"","image-keyboard-response","126","87703","0.0-126.0","3NQL1CS15SUO4NEC9K3G2D9L90BVYR","A2U4JCTILX14EC","3SA4EMRVJVOCGON1OYE6FAUV3KKP05","","1267.0999999046326","img/flower2.png","76","1268","3","1","1","2","1,0,0,1,1,0,1,0,1","0,0,1,1,0,1,0,1,1","2",""
"","html-keyboard-response","127","88005","0.0-127.0","3NQL1CS15SUO4NEC9K3G2D9L90BVYR","A2U4JCTILX14EC","3SA4EMRVJVOCGON1OYE6FAUV3KKP05","","null","<img src=""img/flower2.png"" style=""width:200px; border:14px solid green;"">","null","","","","","","","","",""
"","image-keyboard-response","128","88157","0.0-128.0","3NQL1CS15SUO4NEC9K3G2D9L90BVYR","A2U4JCTILX14EC","3SA4EMRVJVOCGON1OYE6FAUV3KKP05","","150.40000009536743","img/flower5.png","76","151.30000019073486","3","1","3","2","1,0,0,1,1,0,1,0,1","0,0,1,1,0,1,0,1,1","2",""
"","html-keyboard-response","129","88459","0.0-129.0","3NQL1CS15SUO4NEC9K3G2D9L90BVYR","A2U4JCTILX14EC","3SA4EMRVJVOCGON1OYE6FAUV3KKP05","","null","<img src=""img/flower5.png"" style=""width:200px; border:14px solid green;"">","null","","","","","","","","",""
"","image-keyboard-response","130","88944","0.0-130.0","3NQL1CS15SUO4NEC9K3G2D9L90BVYR","A2U4JCTILX14EC","3SA4EMRVJVOCGON1OYE6FAUV3KKP05","","484.09999990463257","img/flower5.png","76","484.7999999523163","3","1","3","2","1,0,0,1,1,0,1,0,1","0,0,1,1,0,1,0,1,1","2",""
"","html-keyboard-response","131","89245","0.0-131.0","3NQL1CS15SUO4NEC9K3G2D9L90BVYR","A2U4JCTILX14EC","3SA4EMRVJVOCGON1OYE6FAUV3KKP05","","null","<img src=""img/flower5.png"" style=""width:200px; border:14px solid green;"">","null","","","","","","","","",""
"","image-keyboard-response","132","89839","0.0-132.0","3NQL1CS15SUO4NEC9K3G2D9L90BVYR","A2U4JCTILX14EC","3SA4EMRVJVOCGON1OYE6FAUV3KKP05","","592.1000001430511","img/flower3.png","74","592.8999998569489","1","1","2","2","1,0,0,1,1,0,1,0,1","0,0,1,1,0,1,0,1,1","2",""
"","html-keyboard-response","133","90140","0.0-133.0","3NQL1CS15SUO4NEC9K3G2D9L90BVYR","A2U4JCTILX14EC","3SA4EMRVJVOCGON1OYE6FAUV3KKP05","","null","<img src=""img/flower3.png"" style=""width:200px; border:14px solid green;"">","null","","","","","","","","",""
"","image-keyboard-response","134","90502","0.0-134.0","3NQL1CS15SUO4NEC9K3G2D9L90BVYR","A2U4JCTILX14EC","3SA4EMRVJVOCGON1OYE6FAUV3KKP05","","360.10000014305115","img/flower3.png","74","361","1","1","2","2","1,0,0,1,1,0,1,0,1","0,0,1,1,0,1,0,1,1","2",""
"","html-keyboard-response","135","90803","0.0-135.0","3NQL1CS15SUO4NEC9K3G2D9L90BVYR","A2U4JCTILX14EC","3SA4EMRVJVOCGON1OYE6FAUV3KKP05","","null","<img src=""img/flower3.png"" style=""width:200px; border:14px solid green;"">","null","","","","","","","","",""
"","image-keyboard-response","136","91698","0.0-136.0","3NQL1CS15SUO4NEC9K3G2D9L90BVYR","A2U4JCTILX14EC","3SA4EMRVJVOCGON1OYE6FAUV3KKP05","","893.3000001907349","img/flower5.png","76","894.1000001430511","3","1","3","2","1,0,0,1,1,0,1,0,1","0,0,1,1,0,1,0,1,1","2",""
"","html-keyboard-response","137","92000","0.0-137.0","3NQL1CS15SUO4NEC9K3G2D9L90BVYR","A2U4JCTILX14EC","3SA4EMRVJVOCGON1OYE6FAUV3KKP05","","null","<img src=""img/flower5.png"" style=""width:200px; border:14px solid green;"">","null","","","","","","","","",""
"","image-keyboard-response","138","93370","0.0-138.0","3NQL1CS15SUO4NEC9K3G2D9L90BVYR","A2U4JCTILX14EC","3SA4EMRVJVOCGON1OYE6FAUV3KKP05","","1369.1999998092651","img/flower2.png","75","1370.1000001430511","2","0","1","2","1,0,0,1,1,0,1,0,1","0,0,1,1,0,1,0,1,1","2",""
"","html-keyboard-response","139","93673","0.0-139.0","3NQL1CS15SUO4NEC9K3G2D9L90BVYR","A2U4JCTILX14EC","3SA4EMRVJVOCGON1OYE6FAUV3KKP05","","null","<img src=""img/flower2.png"" style=""width:200px;border:14px solid red;"">","null","","","","","","","","",""
"","image-keyboard-response","140","93885","0.0-140.0","3NQL1CS15SUO4NEC9K3G2D9L90BVYR","A2U4JCTILX14EC","3SA4EMRVJVOCGON1OYE6FAUV3KKP05","","210.59999990463257","img/flower2.png","74","211.70000004768372","1","0","1","2","1,0,0,1,1,0,1,0,1","0,0,1,1,0,1,0,1,1","2",""
"","html-keyboard-response","141","94194","0.0-141.0","3NQL1CS15SUO4NEC9K3G2D9L90BVYR","A2U4JCTILX14EC","3SA4EMRVJVOCGON1OYE6FAUV3KKP05","","null","<img src=""img/flower2.png"" style=""width:200px;border:14px solid red;"">","null","","","","","","","","",""
"","image-keyboard-response","142","94318","0.0-142.0","3NQL1CS15SUO4NEC9K3G2D9L90BVYR","A2U4JCTILX14EC","3SA4EMRVJVOCGON1OYE6FAUV3KKP05","","121.79999995231628","img/flower5.png","76","122.80000019073486","3","1","3","2","1,0,0,1,1,0,1,0,1","0,0,1,1,0,1,0,1,1","2",""
"","html-keyboard-response","143","94620","0.0-143.0","3NQL1CS15SUO4NEC9K3G2D9L90BVYR","A2U4JCTILX14EC","3SA4EMRVJVOCGON1OYE6FAUV3KKP05","","null","<img src=""img/flower5.png"" style=""width:200px; border:14px solid green;"">","null","","","","","","","","",""
"","image-keyboard-response","144","95225","0.0-144.0","3NQL1CS15SUO4NEC9K3G2D9L90BVYR","A2U4JCTILX14EC","3SA4EMRVJVOCGON1OYE6FAUV3KKP05","","603.1999998092651","img/flower5.png","76","604","3","1","3","2","1,0,0,1,1,0,1,0,1","0,0,1,1,0,1,0,1,1","2",""
"","html-keyboard-response","145","95528","0.0-145.0","3NQL1CS15SUO4NEC9K3G2D9L90BVYR","A2U4JCTILX14EC","3SA4EMRVJVOCGON1OYE6FAUV3KKP05","","null","<img src=""img/flower5.png"" style=""width:200px; border:14px solid green;"">","null","","","","","","","","",""
"","image-keyboard-response","146","97529","0.0-146.0","3NQL1CS15SUO4NEC9K3G2D9L90BVYR","A2U4JCTILX14EC","3SA4EMRVJVOCGON1OYE6FAUV3KKP05","","","img/flower2.png","","2001.2000000476837","-1","0","1","2","1,0,0,1,1,0,1,0,1","0,0,1,1,0,1,0,1,1","2",""
"","html-keyboard-response","147","97831","0.0-147.0","3NQL1CS15SUO4NEC9K3G2D9L90BVYR","A2U4JCTILX14EC","3SA4EMRVJVOCGON1OYE6FAUV3KKP05","","null","<img src=""img/flower2.png"" style=""width:200px;border:14px solid red;"">","null","","","","","","","","",""
"","image-keyboard-response","148","97967","0.0-148.0","3NQL1CS15SUO4NEC9K3G2D9L90BVYR","A2U4JCTILX14EC","3SA4EMRVJVOCGON1OYE6FAUV3KKP05","","134.70000004768372","img/flower5.png","76","135.40000009536743","3","1","3","2","1,0,0,1,1,0,1,0,1","0,0,1,1,0,1,0,1,1","2",""
"","html-keyboard-response","149","98269","0.0-149.0","3NQL1CS15SUO4NEC9K3G2D9L90BVYR","A2U4JCTILX14EC","3SA4EMRVJVOCGON1OYE6FAUV3KKP05","","null","<img src=""img/flower5.png"" style=""width:200px; border:14px solid green;"">","null","","","","","","","","",""
"","image-keyboard-response","150","98508","0.0-150.0","3NQL1CS15SUO4NEC9K3G2D9L90BVYR","A2U4JCTILX14EC","3SA4EMRVJVOCGON1OYE6FAUV3KKP05","","237.09999990463257","img/flower3.png","76","238.09999990463257","3","1","2","2","1,0,0,1,1,0,1,0,1","0,0,1,1,0,1,0,1,1","2",""
"","html-keyboard-response","151","98810","0.0-151.0","3NQL1CS15SUO4NEC9K3G2D9L90BVYR","A2U4JCTILX14EC","3SA4EMRVJVOCGON1OYE6FAUV3KKP05","","null","<img src=""img/flower3.png"" style=""width:200px; border:14px solid green;"">","null","","","","","","","","",""
"","image-keyboard-response","152","99424","0.0-152.0","3NQL1CS15SUO4NEC9K3G2D9L90BVYR","A2U4JCTILX14EC","3SA4EMRVJVOCGON1OYE6FAUV3KKP05","","612.6000001430511","img/flower2.png","76","613.5","3","1","1","2","1,0,0,1,1,0,1,0,1","0,0,1,1,0,1,0,1,1","2",""
"","html-keyboard-response","153","99725","0.0-153.0","3NQL1CS15SUO4NEC9K3G2D9L90BVYR","A2U4JCTILX14EC","3SA4EMRVJVOCGON1OYE6FAUV3KKP05","","null","<img src=""img/flower2.png"" style=""width:200px; border:14px solid green;"">","null","","","","","","","","",""
"","image-keyboard-response","154","100178","0.0-154.0","3NQL1CS15SUO4NEC9K3G2D9L90BVYR","A2U4JCTILX14EC","3SA4EMRVJVOCGON1OYE6FAUV3KKP05","","451.7000000476837","img/flower2.png","76","452.69999980926514","3","1","1","2","1,0,0,1,1,0,1,0,1","0,0,1,1,0,1,0,1,1","2",""
"","html-keyboard-response","155","100480","0.0-155.0","3NQL1CS15SUO4NEC9K3G2D9L90BVYR","A2U4JCTILX14EC","3SA4EMRVJVOCGON1OYE6FAUV3KKP05","","null","<img src=""img/flower2.png"" style=""width:200px; border:14px solid green;"">","null","","","","","","","","",""
"","image-keyboard-response","156","101255","0.0-156.0","3NQL1CS15SUO4NEC9K3G2D9L90BVYR","A2U4JCTILX14EC","3SA4EMRVJVOCGON1OYE6FAUV3KKP05","","773.8000001907349","img/flower5.png","76","774.7999999523163","3","1","3","2","1,0,0,1,1,0,1,0,1","0,0,1,1,0,1,0,1,1","2",""
"","html-keyboard-response","157","101557","0.0-157.0","3NQL1CS15SUO4NEC9K3G2D9L90BVYR","A2U4JCTILX14EC","3SA4EMRVJVOCGON1OYE6FAUV3KKP05","","null","<img src=""img/flower5.png"" style=""width:200px; border:14px solid green;"">","null","","","","","","","","",""
"","image-keyboard-response","158","102550","0.0-158.0","3NQL1CS15SUO4NEC9K3G2D9L90BVYR","A2U4JCTILX14EC","3SA4EMRVJVOCGON1OYE6FAUV3KKP05","","992.2000000476837","img/flower2.png","76","993.0999999046326","3","1","1","2","1,0,0,1,1,0,1,0,1","0,0,1,1,0,1,0,1,1","2",""
"","html-keyboard-response","159","102852","0.0-159.0","3NQL1CS15SUO4NEC9K3G2D9L90BVYR","A2U4JCTILX14EC","3SA4EMRVJVOCGON1OYE6FAUV3KKP05","","null","<img src=""img/flower2.png"" style=""width:200px; border:14px solid green;"">","null","","","","","","","","",""
"","image-keyboard-response","160","103751","0.0-160.0","3NQL1CS15SUO4NEC9K3G2D9L90BVYR","A2U4JCTILX14EC","3SA4EMRVJVOCGON1OYE6FAUV3KKP05","","897.2000000476837","img/flower3.png","74","897.8999998569489","1","1","2","2","1,0,0,1,1,0,1,0,1","0,0,1,1,0,1,0,1,1","2",""
"","html-keyboard-response","161","104052","0.0-161.0","3NQL1CS15SUO4NEC9K3G2D9L90BVYR","A2U4JCTILX14EC","3SA4EMRVJVOCGON1OYE6FAUV3KKP05","","null","<img src=""img/flower3.png"" style=""width:200px; border:14px solid green;"">","null","","","","","","","","",""
"","image-keyboard-response","162","104781","0.0-162.0","3NQL1CS15SUO4NEC9K3G2D9L90BVYR","A2U4JCTILX14EC","3SA4EMRVJVOCGON1OYE6FAUV3KKP05","","727.4000000953674","img/flower2.png","76","728.2000000476837","3","1","1","2","1,0,0,1,1,0,1,0,1","0,0,1,1,0,1,0,1,1","2",""
"","html-keyboard-response","163","105082","0.0-163.0","3NQL1CS15SUO4NEC9K3G2D9L90BVYR","A2U4JCTILX14EC","3SA4EMRVJVOCGON1OYE6FAUV3KKP05","","null","<img src=""img/flower2.png"" style=""width:200px; border:14px solid green;"">","null","","","","","","","","",""
"","image-keyboard-response","164","105901","0.0-164.0","3NQL1CS15SUO4NEC9K3G2D9L90BVYR","A2U4JCTILX14EC","3SA4EMRVJVOCGON1OYE6FAUV3KKP05","","816.7999999523163","img/flower5.png","76","817.9000000953674","3","1","3","2","1,0,0,1,1,0,1,0,1","0,0,1,1,0,1,0,1,1","2",""
"","html-keyboard-response","165","106202","0.0-165.0","3NQL1CS15SUO4NEC9K3G2D9L90BVYR","A2U4JCTILX14EC","3SA4EMRVJVOCGON1OYE6FAUV3KKP05","","null","<img src=""img/flower5.png"" style=""width:200px; border:14px solid green;"">","null","","","","","","","","",""
"","image-keyboard-response","166","106649","0.0-166.0","3NQL1CS15SUO4NEC9K3G2D9L90BVYR","A2U4JCTILX14EC","3SA4EMRVJVOCGON1OYE6FAUV3KKP05","","445.59999990463257","img/flower5.png","76","446.69999980926514","3","1","3","2","1,0,0,1,1,0,1,0,1","0,0,1,1,0,1,0,1,1","2",""
"","html-keyboard-response","167","106952","0.0-167.0","3NQL1CS15SUO4NEC9K3G2D9L90BVYR","A2U4JCTILX14EC","3SA4EMRVJVOCGON1OYE6FAUV3KKP05","","null","<img src=""img/flower5.png"" style=""width:200px; border:14px solid green;"">","null","","","","","","","","",""
"","image-keyboard-response","168","107828","0.0-168.0","3NQL1CS15SUO4NEC9K3G2D9L90BVYR","A2U4JCTILX14EC","3SA4EMRVJVOCGON1OYE6FAUV3KKP05","","874.0999999046326","img/flower3.png","74","875.1000001430511","1","1","2","2","1,0,0,1,1,0,1,0,1","0,0,1,1,0,1,0,1,1","2",""
"","html-keyboard-response","169","108130","0.0-169.0","3NQL1CS15SUO4NEC9K3G2D9L90BVYR","A2U4JCTILX14EC","3SA4EMRVJVOCGON1OYE6FAUV3KKP05","","null","<img src=""img/flower3.png"" style=""width:200px; border:14px solid green;"">","null","","","","","","","","",""
"","image-keyboard-response","170","108362","0.0-170.0","3NQL1CS15SUO4NEC9K3G2D9L90BVYR","A2U4JCTILX14EC","3SA4EMRVJVOCGON1OYE6FAUV3KKP05","","231.40000009536743","img/flower5.png","74","232.20000004768372","1","0","3","2","1,0,0,1,1,0,1,0,1","0,0,1,1,0,1,0,1,1","2",""
"","html-keyboard-response","171","108664","0.0-171.0","3NQL1CS15SUO4NEC9K3G2D9L90BVYR","A2U4JCTILX14EC","3SA4EMRVJVOCGON1OYE6FAUV3KKP05","","null","<img src=""img/flower5.png"" style=""width:200px;border:14px solid red;"">","null","","","","","","","","",""
"","image-keyboard-response","172","108786","0.0-172.0","3NQL1CS15SUO4NEC9K3G2D9L90BVYR","A2U4JCTILX14EC","3SA4EMRVJVOCGON1OYE6FAUV3KKP05","","120.69999980926514","img/flower2.png","76","121.60000014305115","3","1","1","2","1,0,0,1,1,0,1,0,1","0,0,1,1,0,1,0,1,1","2",""
"","html-keyboard-response","173","109088","0.0-173.0","3NQL1CS15SUO4NEC9K3G2D9L90BVYR","A2U4JCTILX14EC","3SA4EMRVJVOCGON1OYE6FAUV3KKP05","","null","<img src=""img/flower2.png"" style=""width:200px; border:14px solid green;"">","null","","","","","","","","",""
"","image-keyboard-response","174","110085","0.0-174.0","3NQL1CS15SUO4NEC9K3G2D9L90BVYR","A2U4JCTILX14EC","3SA4EMRVJVOCGON1OYE6FAUV3KKP05","","995.5","img/flower2.png","76","996.5","3","1","1","2","1,0,0,1,1,0,1,0,1","0,0,1,1,0,1,0,1,1","2",""
"","html-keyboard-response","175","110390","0.0-175.0","3NQL1CS15SUO4NEC9K3G2D9L90BVYR","A2U4JCTILX14EC","3SA4EMRVJVOCGON1OYE6FAUV3KKP05","","null","<img src=""img/flower2.png"" style=""width:200px; border:14px solid green;"">","null","","","","","","","","",""
"","image-keyboard-response","176","110683","0.0-176.0","3NQL1CS15SUO4NEC9K3G2D9L90BVYR","A2U4JCTILX14EC","3SA4EMRVJVOCGON1OYE6FAUV3KKP05","","290.90000009536743","img/flower2.png","76","291.89999985694885","3","1","1","2","1,0,0,1,1,0,1,0,1","0,0,1,1,0,1,0,1,1","2",""
"","html-keyboard-response","177","110985","0.0-177.0","3NQL1CS15SUO4NEC9K3G2D9L90BVYR","A2U4JCTILX14EC","3SA4EMRVJVOCGON1OYE6FAUV3KKP05","","null","<img src=""img/flower2.png"" style=""width:200px; border:14px solid green;"">","null","","","","","","","","",""
"","image-keyboard-response","178","111522","0.0-178.0","3NQL1CS15SUO4NEC9K3G2D9L90BVYR","A2U4JCTILX14EC","3SA4EMRVJVOCGON1OYE6FAUV3KKP05","","534.9000000953674","img/flower5.png","76","535.7999999523163","3","1","3","2","1,0,0,1,1,0,1,0,1","0,0,1,1,0,1,0,1,1","2",""
"","html-keyboard-response","179","111823","0.0-179.0","3NQL1CS15SUO4NEC9K3G2D9L90BVYR","A2U4JCTILX14EC","3SA4EMRVJVOCGON1OYE6FAUV3KKP05","","null","<img src=""img/flower5.png"" style=""width:200px; border:14px solid green;"">","null","","","","","","","","",""
"","image-keyboard-response","180","111879","0.0-180.0","3NQL1CS15SUO4NEC9K3G2D9L90BVYR","A2U4JCTILX14EC","3SA4EMRVJVOCGON1OYE6FAUV3KKP05","","54.299999952316284","img/flower5.png","76","55.19999980926514","3","1","3","2","1,0,0,1,1,0,1,0,1","0,0,1,1,0,1,0,1,1","2",""
"","html-keyboard-response","181","112181","0.0-181.0","3NQL1CS15SUO4NEC9K3G2D9L90BVYR","A2U4JCTILX14EC","3SA4EMRVJVOCGON1OYE6FAUV3KKP05","","null","<img src=""img/flower5.png"" style=""width:200px; border:14px solid green;"">","null","","","","","","","","",""
"","image-keyboard-response","182","113161","0.0-182.0","3NQL1CS15SUO4NEC9K3G2D9L90BVYR","A2U4JCTILX14EC","3SA4EMRVJVOCGON1OYE6FAUV3KKP05","","978.2999999523163","img/flower6.png","75","979.2999999523163","2","0","3","1","1,0.333,0.333,0.333,1,0.333,0.333,0.333,1","1,0.333,0.333,0.333,1,0.333,0.333,0.333,1","1",""
"","html-keyboard-response","183","113463","0.0-183.0","3NQL1CS15SUO4NEC9K3G2D9L90BVYR","A2U4JCTILX14EC","3SA4EMRVJVOCGON1OYE6FAUV3KKP05","","null","<img src=""img/flower6.png"" style=""width:200px;border:14px solid red;"">","null","","","","","","","","",""
"","image-keyboard-response","184","113467","0.0-184.0","3NQL1CS15SUO4NEC9K3G2D9L90BVYR","A2U4JCTILX14EC","3SA4EMRVJVOCGON1OYE6FAUV3KKP05","","2.299999952316284","img/flower4.png","75","3.0999999046325684","2","0","1","1","1,0.333,0.333,0.333,1,0.333,0.333,0.333,1","1,0.333,0.333,0.333,1,0.333,0.333,0.333,1","1",""
"","html-keyboard-response","185","113768","0.0-185.0","3NQL1CS15SUO4NEC9K3G2D9L90BVYR","A2U4JCTILX14EC","3SA4EMRVJVOCGON1OYE6FAUV3KKP05","","null","<img src=""img/flower4.png"" style=""width:200px;border:14px solid red;"">","null","","","","","","","","",""
"","image-keyboard-response","186","114935","0.0-186.0","3NQL1CS15SUO4NEC9K3G2D9L90BVYR","A2U4JCTILX14EC","3SA4EMRVJVOCGON1OYE6FAUV3KKP05","","1163.7999999523163","img/flower1.png","76","1164.7999999523163","3","0","2","1","1,0.333,0.333,0.333,1,0.333,0.333,0.333,1","1,0.333,0.333,0.333,1,0.333,0.333,0.333,1","1",""
"","html-keyboard-response","187","115236","0.0-187.0","3NQL1CS15SUO4NEC9K3G2D9L90BVYR","A2U4JCTILX14EC","3SA4EMRVJVOCGON1OYE6FAUV3KKP05","","null","<img src=""img/flower1.png"" style=""width:200px;border:14px solid red;"">","null","","","","","","","","",""
"","image-keyboard-response","188","115543","0.0-188.0","3NQL1CS15SUO4NEC9K3G2D9L90BVYR","A2U4JCTILX14EC","3SA4EMRVJVOCGON1OYE6FAUV3KKP05","","306.89999985694885","img/flower6.png","74","307.7000000476837","1","1","3","1","1,0.333,0.333,0.333,1,0.333,0.333,0.333,1","1,0.333,0.333,0.333,1,0.333,0.333,0.333,1","1",""
"","html-keyboard-response","189","115844","0.0-189.0","3NQL1CS15SUO4NEC9K3G2D9L90BVYR","A2U4JCTILX14EC","3SA4EMRVJVOCGON1OYE6FAUV3KKP05","","null","<img src=""img/flower6.png"" style=""width:200px; border:14px solid green;"">","null","","","","","","","","",""
"","image-keyboard-response","190","116953","0.0-190.0","3NQL1CS15SUO4NEC9K3G2D9L90BVYR","A2U4JCTILX14EC","3SA4EMRVJVOCGON1OYE6FAUV3KKP05","","1107.5","img/flower6.png","74","1108.5","1","0","3","1","1,0.333,0.333,0.333,1,0.333,0.333,0.333,1","1,0.333,0.333,0.333,1,0.333,0.333,0.333,1","1",""
"","html-keyboard-response","191","117255","0.0-191.0","3NQL1CS15SUO4NEC9K3G2D9L90BVYR","A2U4JCTILX14EC","3SA4EMRVJVOCGON1OYE6FAUV3KKP05","","null","<img src=""img/flower6.png"" style=""width:200px;border:14px solid red;"">","null","","","","","","","","",""
"","image-keyboard-response","192","117808","0.0-192.0","3NQL1CS15SUO4NEC9K3G2D9L90BVYR","A2U4JCTILX14EC","3SA4EMRVJVOCGON1OYE6FAUV3KKP05","","551.5","img/flower6.png","74","552.5","1","0","3","1","1,0.333,0.333,0.333,1,0.333,0.333,0.333,1","1,0.333,0.333,0.333,1,0.333,0.333,0.333,1","1",""
"","html-keyboard-response","193","118110","0.0-193.0","3NQL1CS15SUO4NEC9K3G2D9L90BVYR","A2U4JCTILX14EC","3SA4EMRVJVOCGON1OYE6FAUV3KKP05","","null","<img src=""img/flower6.png"" style=""width:200px;border:14px solid red;"">","null","","","","","","","","",""
"","image-keyboard-response","194","118991","0.0-194.0","3NQL1CS15SUO4NEC9K3G2D9L90BVYR","A2U4JCTILX14EC","3SA4EMRVJVOCGON1OYE6FAUV3KKP05","","879.5","img/flower1.png","75","880.5999999046326","2","1","2","1","1,0.333,0.333,0.333,1,0.333,0.333,0.333,1","1,0.333,0.333,0.333,1,0.333,0.333,0.333,1","1",""
"","html-keyboard-response","195","119294","0.0-195.0","3NQL1CS15SUO4NEC9K3G2D9L90BVYR","A2U4JCTILX14EC","3SA4EMRVJVOCGON1OYE6FAUV3KKP05","","null","<img src=""img/flower1.png"" style=""width:200px; border:14px solid green;"">","null","","","","","","","","",""
"","image-keyboard-response","196","120026","0.0-196.0","3NQL1CS15SUO4NEC9K3G2D9L90BVYR","A2U4JCTILX14EC","3SA4EMRVJVOCGON1OYE6FAUV3KKP05","","730.7999999523163","img/flower6.png","75","731.8999998569489","2","1","3","1","1,0.333,0.333,0.333,1,0.333,0.333,0.333,1","1,0.333,0.333,0.333,1,0.333,0.333,0.333,1","1",""
"","html-keyboard-response","197","120328","0.0-197.0","3NQL1CS15SUO4NEC9K3G2D9L90BVYR","A2U4JCTILX14EC","3SA4EMRVJVOCGON1OYE6FAUV3KKP05","","null","<img src=""img/flower6.png"" style=""width:200px; border:14px solid green;"">","null","","","","","","","","",""
"","image-keyboard-response","198","120657","0.0-198.0","3NQL1CS15SUO4NEC9K3G2D9L90BVYR","A2U4JCTILX14EC","3SA4EMRVJVOCGON1OYE6FAUV3KKP05","","327.7000000476837","img/flower6.png","75","328.7999999523163","2","1","3","1","1,0.333,0.333,0.333,1,0.333,0.333,0.333,1","1,0.333,0.333,0.333,1,0.333,0.333,0.333,1","1",""
"","html-keyboard-response","199","120959","0.0-199.0","3NQL1CS15SUO4NEC9K3G2D9L90BVYR","A2U4JCTILX14EC","3SA4EMRVJVOCGON1OYE6FAUV3KKP05","","null","<img src=""img/flower6.png"" style=""width:200px; border:14px solid green;"">","null","","","","","","","","",""
"","image-keyboard-response","200","121425","0.0-200.0","3NQL1CS15SUO4NEC9K3G2D9L90BVYR","A2U4JCTILX14EC","3SA4EMRVJVOCGON1OYE6FAUV3KKP05","","464.89999985694885","img/flower4.png","75","465.7000000476837","2","0","1","1","1,0.333,0.333,0.333,1,0.333,0.333,0.333,1","1,0.333,0.333,0.333,1,0.333,0.333,0.333,1","1",""
"","html-keyboard-response","201","121727","0.0-201.0","3NQL1CS15SUO4NEC9K3G2D9L90BVYR","A2U4JCTILX14EC","3SA4EMRVJVOCGON1OYE6FAUV3KKP05","","null","<img src=""img/flower4.png"" style=""width:200px;border:14px solid red;"">","null","","","","","","","","",""
"","image-keyboard-response","202","122148","0.0-202.0","3NQL1CS15SUO4NEC9K3G2D9L90BVYR","A2U4JCTILX14EC","3SA4EMRVJVOCGON1OYE6FAUV3KKP05","","419.90000009536743","img/flower4.png","76","420.89999985694885","3","0","1","1","1,0.333,0.333,0.333,1,0.333,0.333,0.333,1","1,0.333,0.333,0.333,1,0.333,0.333,0.333,1","1",""
"","html-keyboard-response","203","122450","0.0-203.0","3NQL1CS15SUO4NEC9K3G2D9L90BVYR","A2U4JCTILX14EC","3SA4EMRVJVOCGON1OYE6FAUV3KKP05","","null","<img src=""img/flower4.png"" style=""width:200px;border:14px solid red;"">","null","","","","","","","","",""
"","image-keyboard-response","204","122605","0.0-204.0","3NQL1CS15SUO4NEC9K3G2D9L90BVYR","A2U4JCTILX14EC","3SA4EMRVJVOCGON1OYE6FAUV3KKP05","","153.70000004768372","img/flower4.png","74","154.79999995231628","1","1","1","1","1,0.333,0.333,0.333,1,0.333,0.333,0.333,1","1,0.333,0.333,0.333,1,0.333,0.333,0.333,1","1",""
"","html-keyboard-response","205","122908","0.0-205.0","3NQL1CS15SUO4NEC9K3G2D9L90BVYR","A2U4JCTILX14EC","3SA4EMRVJVOCGON1OYE6FAUV3KKP05","","null","<img src=""img/flower4.png"" style=""width:200px; border:14px solid green;"">","null","","","","","","","","",""
"","image-keyboard-response","206","124102","0.0-206.0","3NQL1CS15SUO4NEC9K3G2D9L90BVYR","A2U4JCTILX14EC","3SA4EMRVJVOCGON1OYE6FAUV3KKP05","","1193.2000000476837","img/flower4.png","74","1194.0999999046326","1","1","1","1","1,0.333,0.333,0.333,1,0.333,0.333,0.333,1","1,0.333,0.333,0.333,1,0.333,0.333,0.333,1","1",""
"","html-keyboard-response","207","124405","0.0-207.0","3NQL1CS15SUO4NEC9K3G2D9L90BVYR","A2U4JCTILX14EC","3SA4EMRVJVOCGON1OYE6FAUV3KKP05","","null","<img src=""img/flower4.png"" style=""width:200px; border:14px solid green;"">","null","","","","","","","","",""
"","image-keyboard-response","208","125073","0.0-208.0","3NQL1CS15SUO4NEC9K3G2D9L90BVYR","A2U4JCTILX14EC","3SA4EMRVJVOCGON1OYE6FAUV3KKP05","","667.5","img/flower1.png","76","668.2999999523163","3","1","2","1","1,0.333,0.333,0.333,1,0.333,0.333,0.333,1","1,0.333,0.333,0.333,1,0.333,0.333,0.333,1","1",""
"","html-keyboard-response","209","125375","0.0-209.0","3NQL1CS15SUO4NEC9K3G2D9L90BVYR","A2U4JCTILX14EC","3SA4EMRVJVOCGON1OYE6FAUV3KKP05","","null","<img src=""img/flower1.png"" style=""width:200px; border:14px solid green;"">","null","","","","","","","","",""
"","image-keyboard-response","210","125400","0.0-210.0","3NQL1CS15SUO4NEC9K3G2D9L90BVYR","A2U4JCTILX14EC","3SA4EMRVJVOCGON1OYE6FAUV3KKP05","","23.799999952316284","img/flower1.png","76","24.59999990463257","3","0","2","1","1,0.333,0.333,0.333,1,0.333,0.333,0.333,1","1,0.333,0.333,0.333,1,0.333,0.333,0.333,1","1",""
"","html-keyboard-response","211","125702","0.0-211.0","3NQL1CS15SUO4NEC9K3G2D9L90BVYR","A2U4JCTILX14EC","3SA4EMRVJVOCGON1OYE6FAUV3KKP05","","null","<img src=""img/flower1.png"" style=""width:200px;border:14px solid red;"">","null","","","","","","","","",""
"","image-keyboard-response","212","126581","0.0-212.0","3NQL1CS15SUO4NEC9K3G2D9L90BVYR","A2U4JCTILX14EC","3SA4EMRVJVOCGON1OYE6FAUV3KKP05","","877.7999999523163","img/flower6.png","75","878.8999998569489","2","1","3","1","1,0.333,0.333,0.333,1,0.333,0.333,0.333,1","1,0.333,0.333,0.333,1,0.333,0.333,0.333,1","1",""
"","html-keyboard-response","213","126883","0.0-213.0","3NQL1CS15SUO4NEC9K3G2D9L90BVYR","A2U4JCTILX14EC","3SA4EMRVJVOCGON1OYE6FAUV3KKP05","","null","<img src=""img/flower6.png"" style=""width:200px; border:14px solid green;"">","null","","","","","","","","",""
"","image-keyboard-response","214","126998","0.0-214.0","3NQL1CS15SUO4NEC9K3G2D9L90BVYR","A2U4JCTILX14EC","3SA4EMRVJVOCGON1OYE6FAUV3KKP05","","114","img/flower6.png","75","115.10000014305115","2","0","3","1","1,0.333,0.333,0.333,1,0.333,0.333,0.333,1","1,0.333,0.333,0.333,1,0.333,0.333,0.333,1","1",""
"","html-keyboard-response","215","127301","0.0-215.0","3NQL1CS15SUO4NEC9K3G2D9L90BVYR","A2U4JCTILX14EC","3SA4EMRVJVOCGON1OYE6FAUV3KKP05","","null","<img src=""img/flower6.png"" style=""width:200px;border:14px solid red;"">","null","","","","","","","","",""
"","image-keyboard-response","216","127649","0.0-216.0","3NQL1CS15SUO4NEC9K3G2D9L90BVYR","A2U4JCTILX14EC","3SA4EMRVJVOCGON1OYE6FAUV3KKP05","","346.59999990463257","img/flower6.png","75","348.7999999523163","2","1","3","1","1,0.333,0.333,0.333,1,0.333,0.333,0.333,1","1,0.333,0.333,0.333,1,0.333,0.333,0.333,1","1",""
"","html-keyboard-response","217","127952","0.0-217.0","3NQL1CS15SUO4NEC9K3G2D9L90BVYR","A2U4JCTILX14EC","3SA4EMRVJVOCGON1OYE6FAUV3KKP05","","null","<img src=""img/flower6.png"" style=""width:200px; border:14px solid green;"">","null","","","","","","","","",""
"","image-keyboard-response","218","128557","0.0-218.0","3NQL1CS15SUO4NEC9K3G2D9L90BVYR","A2U4JCTILX14EC","3SA4EMRVJVOCGON1OYE6FAUV3KKP05","","603.7000000476837","img/flower6.png","75","604.5999999046326","2","0","3","1","1,0.333,0.333,0.333,1,0.333,0.333,0.333,1","1,0.333,0.333,0.333,1,0.333,0.333,0.333,1","1",""
"","html-keyboard-response","219","128859","0.0-219.0","3NQL1CS15SUO4NEC9K3G2D9L90BVYR","A2U4JCTILX14EC","3SA4EMRVJVOCGON1OYE6FAUV3KKP05","","null","<img src=""img/flower6.png"" style=""width:200px;border:14px solid red;"">","null","","","","","","","","",""
"","image-keyboard-response","220","129160","0.0-220.0","3NQL1CS15SUO4NEC9K3G2D9L90BVYR","A2U4JCTILX14EC","3SA4EMRVJVOCGON1OYE6FAUV3KKP05","","300.2000000476837","img/flower6.png","75","301.09999990463257","2","0","3","1","1,0.333,0.333,0.333,1,0.333,0.333,0.333,1","1,0.333,0.333,0.333,1,0.333,0.333,0.333,1","1",""
"","html-keyboard-response","221","129462","0.0-221.0","3NQL1CS15SUO4NEC9K3G2D9L90BVYR","A2U4JCTILX14EC","3SA4EMRVJVOCGON1OYE6FAUV3KKP05","","null","<img src=""img/flower6.png"" style=""width:200px;border:14px solid red;"">","null","","","","","","","","",""
"","image-keyboard-response","222","129818","0.0-222.0","3NQL1CS15SUO4NEC9K3G2D9L90BVYR","A2U4JCTILX14EC","3SA4EMRVJVOCGON1OYE6FAUV3KKP05","","354.40000009536743","img/flower6.png","75","355.2999999523163","2","0","3","1","1,0.333,0.333,0.333,1,0.333,0.333,0.333,1","1,0.333,0.333,0.333,1,0.333,0.333,0.333,1","1",""
"","html-keyboard-response","223","130119","0.0-223.0","3NQL1CS15SUO4NEC9K3G2D9L90BVYR","A2U4JCTILX14EC","3SA4EMRVJVOCGON1OYE6FAUV3KKP05","","null","<img src=""img/flower6.png"" style=""width:200px;border:14px solid red;"">","null","","","","","","","","",""
"","image-keyboard-response","224","130239","0.0-224.0","3NQL1CS15SUO4NEC9K3G2D9L90BVYR","A2U4JCTILX14EC","3SA4EMRVJVOCGON1OYE6FAUV3KKP05","","118.19999980926514","img/flower4.png","74","119.20000004768372","1","1","1","1","1,0.333,0.333,0.333,1,0.333,0.333,0.333,1","1,0.333,0.333,0.333,1,0.333,0.333,0.333,1","1",""
"","html-keyboard-response","225","130542","0.0-225.0","3NQL1CS15SUO4NEC9K3G2D9L90BVYR","A2U4JCTILX14EC","3SA4EMRVJVOCGON1OYE6FAUV3KKP05","","null","<img src=""img/flower4.png"" style=""width:200px; border:14px solid green;"">","null","","","","","","","","",""
"","image-keyboard-response","226","131025","0.0-226.0","3NQL1CS15SUO4NEC9K3G2D9L90BVYR","A2U4JCTILX14EC","3SA4EMRVJVOCGON1OYE6FAUV3KKP05","","482.7999999523163","img/flower1.png","76","483.59999990463257","3","0","2","1","1,0.333,0.333,0.333,1,0.333,0.333,0.333,1","1,0.333,0.333,0.333,1,0.333,0.333,0.333,1","1",""
"","html-keyboard-response","227","131327","0.0-227.0","3NQL1CS15SUO4NEC9K3G2D9L90BVYR","A2U4JCTILX14EC","3SA4EMRVJVOCGON1OYE6FAUV3KKP05","","null","<img src=""img/flower1.png"" style=""width:200px;border:14px solid red;"">","null","","","","","","","","",""
"","image-keyboard-response","228","131509","0.0-228.0","3NQL1CS15SUO4NEC9K3G2D9L90BVYR","A2U4JCTILX14EC","3SA4EMRVJVOCGON1OYE6FAUV3KKP05","","180.70000004768372","img/flower4.png","74","181.70000004768372","1","1","1","1","1,0.333,0.333,0.333,1,0.333,0.333,0.333,1","1,0.333,0.333,0.333,1,0.333,0.333,0.333,1","1",""
"","html-keyboard-response","229","131811","0.0-229.0","3NQL1CS15SUO4NEC9K3G2D9L90BVYR","A2U4JCTILX14EC","3SA4EMRVJVOCGON1OYE6FAUV3KKP05","","null","<img src=""img/flower4.png"" style=""width:200px; border:14px solid green;"">","null","","","","","","","","",""
"","image-keyboard-response","230","132207","0.0-230.0","3NQL1CS15SUO4NEC9K3G2D9L90BVYR","A2U4JCTILX14EC","3SA4EMRVJVOCGON1OYE6FAUV3KKP05","","394.69999980926514","img/flower6.png","74","395.5","1","0","3","1","1,0.333,0.333,0.333,1,0.333,0.333,0.333,1","1,0.333,0.333,0.333,1,0.333,0.333,0.333,1","1",""
"","html-keyboard-response","231","132510","0.0-231.0","3NQL1CS15SUO4NEC9K3G2D9L90BVYR","A2U4JCTILX14EC","3SA4EMRVJVOCGON1OYE6FAUV3KKP05","","null","<img src=""img/flower6.png"" style=""width:200px;border:14px solid red;"">","null","","","","","","","","",""
"","image-keyboard-response","232","132749","0.0-232.0","3NQL1CS15SUO4NEC9K3G2D9L90BVYR","A2U4JCTILX14EC","3SA4EMRVJVOCGON1OYE6FAUV3KKP05","","238","img/flower4.png","76","238.89999985694885","3","0","1","1","1,0.333,0.333,0.333,1,0.333,0.333,0.333,1","1,0.333,0.333,0.333,1,0.333,0.333,0.333,1","1",""
"","html-keyboard-response","233","133051","0.0-233.0","3NQL1CS15SUO4NEC9K3G2D9L90BVYR","A2U4JCTILX14EC","3SA4EMRVJVOCGON1OYE6FAUV3KKP05","","null","<img src=""img/flower4.png"" style=""width:200px;border:14px solid red;"">","null","","","","","","","","",""
"","image-keyboard-response","234","133191","0.0-234.0","3NQL1CS15SUO4NEC9K3G2D9L90BVYR","A2U4JCTILX14EC","3SA4EMRVJVOCGON1OYE6FAUV3KKP05","","138.60000014305115","img/flower1.png","75","139.79999995231628","2","1","2","1","1,0.333,0.333,0.333,1,0.333,0.333,0.333,1","1,0.333,0.333,0.333,1,0.333,0.333,0.333,1","1",""
"","html-keyboard-response","235","133493","0.0-235.0","3NQL1CS15SUO4NEC9K3G2D9L90BVYR","A2U4JCTILX14EC","3SA4EMRVJVOCGON1OYE6FAUV3KKP05","","null","<img src=""img/flower1.png"" style=""width:200px; border:14px solid green;"">","null","","","","","","","","",""
"","image-keyboard-response","236","134332","0.0-236.0","3NQL1CS15SUO4NEC9K3G2D9L90BVYR","A2U4JCTILX14EC","3SA4EMRVJVOCGON1OYE6FAUV3KKP05","","838.2000000476837","img/flower4.png","75","839.2000000476837","2","0","1","1","1,0.333,0.333,0.333,1,0.333,0.333,0.333,1","1,0.333,0.333,0.333,1,0.333,0.333,0.333,1","1",""
"","html-keyboard-response","237","134635","0.0-237.0","3NQL1CS15SUO4NEC9K3G2D9L90BVYR","A2U4JCTILX14EC","3SA4EMRVJVOCGON1OYE6FAUV3KKP05","","null","<img src=""img/flower4.png"" style=""width:200px;border:14px solid red;"">","null","","","","","","","","",""
"","image-keyboard-response","238","134878","0.0-238.0","3NQL1CS15SUO4NEC9K3G2D9L90BVYR","A2U4JCTILX14EC","3SA4EMRVJVOCGON1OYE6FAUV3KKP05","","241.40000009536743","img/flower4.png","76","242.40000009536743","3","0","1","1","1,0.333,0.333,0.333,1,0.333,0.333,0.333,1","1,0.333,0.333,0.333,1,0.333,0.333,0.333,1","1",""
"","html-keyboard-response","239","135180","0.0-239.0","3NQL1CS15SUO4NEC9K3G2D9L90BVYR","A2U4JCTILX14EC","3SA4EMRVJVOCGON1OYE6FAUV3KKP05","","null","<img src=""img/flower4.png"" style=""width:200px;border:14px solid red;"">","null","","","","","","","","",""
"","image-keyboard-response","240","135334","0.0-240.0","3NQL1CS15SUO4NEC9K3G2D9L90BVYR","A2U4JCTILX14EC","3SA4EMRVJVOCGON1OYE6FAUV3KKP05","","152.80000019073486","img/flower4.png","74","153.90000009536743","1","1","1","1","1,0.333,0.333,0.333,1,0.333,0.333,0.333,1","1,0.333,0.333,0.333,1,0.333,0.333,0.333,1","1",""
"","html-keyboard-response","241","135636","0.0-241.0","3NQL1CS15SUO4NEC9K3G2D9L90BVYR","A2U4JCTILX14EC","3SA4EMRVJVOCGON1OYE6FAUV3KKP05","","null","<img src=""img/flower4.png"" style=""width:200px; border:14px solid green;"">","null","","","","","","","","",""
"","image-keyboard-response","242","136216","0.0-242.0","3NQL1CS15SUO4NEC9K3G2D9L90BVYR","A2U4JCTILX14EC","3SA4EMRVJVOCGON1OYE6FAUV3KKP05","","577.8999998569489","img/flower4.png","74","579","1","1","1","1","1,0.333,0.333,0.333,1,0.333,0.333,0.333,1","1,0.333,0.333,0.333,1,0.333,0.333,0.333,1","1",""
"","html-keyboard-response","243","136518","0.0-243.0","3NQL1CS15SUO4NEC9K3G2D9L90BVYR","A2U4JCTILX14EC","3SA4EMRVJVOCGON1OYE6FAUV3KKP05","","null","<img src=""img/flower4.png"" style=""width:200px; border:14px solid green;"">","null","","","","","","","","",""
"","image-keyboard-response","244","137573","0.0-244.0","3NQL1CS15SUO4NEC9K3G2D9L90BVYR","A2U4JCTILX14EC","3SA4EMRVJVOCGON1OYE6FAUV3KKP05","","1053.2000000476837","img/flower6.png","75","1054.2000000476837","2","1","3","1","1,0.333,0.333,0.333,1,0.333,0.333,0.333,1","1,0.333,0.333,0.333,1,0.333,0.333,0.333,1","1",""
"","html-keyboard-response","245","137874","0.0-245.0","3NQL1CS15SUO4NEC9K3G2D9L90BVYR","A2U4JCTILX14EC","3SA4EMRVJVOCGON1OYE6FAUV3KKP05","","null","<img src=""img/flower6.png"" style=""width:200px; border:14px solid green;"">","null","","","","","","","","",""
"","image-keyboard-response","246","138758","0.0-246.0","3NQL1CS15SUO4NEC9K3G2D9L90BVYR","A2U4JCTILX14EC","3SA4EMRVJVOCGON1OYE6FAUV3KKP05","","881.6999998092651","img/flower1.png","74","882.7000000476837","1","0","2","1","1,0.333,0.333,0.333,1,0.333,0.333,0.333,1","1,0.333,0.333,0.333,1,0.333,0.333,0.333,1","1",""
"","html-keyboard-response","247","139059","0.0-247.0","3NQL1CS15SUO4NEC9K3G2D9L90BVYR","A2U4JCTILX14EC","3SA4EMRVJVOCGON1OYE6FAUV3KKP05","","null","<img src=""img/flower1.png"" style=""width:200px;border:14px solid red;"">","null","","","","","","","","",""
"","image-keyboard-response","248","140068","0.0-248.0","3NQL1CS15SUO4NEC9K3G2D9L90BVYR","A2U4JCTILX14EC","3SA4EMRVJVOCGON1OYE6FAUV3KKP05","","1006.4000000953674","img/flower4.png","75","1007.2999999523163","2","1","1","1","1,0.333,0.333,0.333,1,0.333,0.333,0.333,1","1,0.333,0.333,0.333,1,0.333,0.333,0.333,1","1",""
"","html-keyboard-response","249","140371","0.0-249.0","3NQL1CS15SUO4NEC9K3G2D9L90BVYR","A2U4JCTILX14EC","3SA4EMRVJVOCGON1OYE6FAUV3KKP05","","null","<img src=""img/flower4.png"" style=""width:200px; border:14px solid green;"">","null","","","","","","","","",""
"","image-keyboard-response","250","141519","0.0-250.0","3NQL1CS15SUO4NEC9K3G2D9L90BVYR","A2U4JCTILX14EC","3SA4EMRVJVOCGON1OYE6FAUV3KKP05","","1147.2000000476837","img/flower1.png","76","1148.0999999046326","3","0","2","1","1,0.333,0.333,0.333,1,0.333,0.333,0.333,1","1,0.333,0.333,0.333,1,0.333,0.333,0.333,1","1",""
"","html-keyboard-response","251","141821","0.0-251.0","3NQL1CS15SUO4NEC9K3G2D9L90BVYR","A2U4JCTILX14EC","3SA4EMRVJVOCGON1OYE6FAUV3KKP05","","null","<img src=""img/flower1.png"" style=""width:200px;border:14px solid red;"">","null","","","","","","","","",""
"","image-keyboard-response","252","142442","0.0-252.0","3NQL1CS15SUO4NEC9K3G2D9L90BVYR","A2U4JCTILX14EC","3SA4EMRVJVOCGON1OYE6FAUV3KKP05","","619","img/flower4.png","74","619.9000000953674","1","1","1","1","1,0.333,0.333,0.333,1,0.333,0.333,0.333,1","1,0.333,0.333,0.333,1,0.333,0.333,0.333,1","1",""
"","html-keyboard-response","253","142743","0.0-253.0","3NQL1CS15SUO4NEC9K3G2D9L90BVYR","A2U4JCTILX14EC","3SA4EMRVJVOCGON1OYE6FAUV3KKP05","","null","<img src=""img/flower4.png"" style=""width:200px; border:14px solid green;"">","null","","","","","","","","",""
"","image-keyboard-response","254","143758","0.0-254.0","3NQL1CS15SUO4NEC9K3G2D9L90BVYR","A2U4JCTILX14EC","3SA4EMRVJVOCGON1OYE6FAUV3KKP05","","1013.8000001907349","img/flower1.png","75","1014.6000001430511","2","1","2","1","1,0.333,0.333,0.333,1,0.333,0.333,0.333,1","1,0.333,0.333,0.333,1,0.333,0.333,0.333,1","1",""
"","html-keyboard-response","255","144060","0.0-255.0","3NQL1CS15SUO4NEC9K3G2D9L90BVYR","A2U4JCTILX14EC","3SA4EMRVJVOCGON1OYE6FAUV3KKP05","","null","<img src=""img/flower1.png"" style=""width:200px; border:14px solid green;"">","null","","","","","","","","",""
"","image-keyboard-response","256","144911","0.0-256.0","3NQL1CS15SUO4NEC9K3G2D9L90BVYR","A2U4JCTILX14EC","3SA4EMRVJVOCGON1OYE6FAUV3KKP05","","849.2000000476837","img/flower4.png","74","850.2000000476837","1","1","1","1","1,0.333,0.333,0.333,1,0.333,0.333,0.333,1","1,0.333,0.333,0.333,1,0.333,0.333,0.333,1","1",""
"","html-keyboard-response","257","145212","0.0-257.0","3NQL1CS15SUO4NEC9K3G2D9L90BVYR","A2U4JCTILX14EC","3SA4EMRVJVOCGON1OYE6FAUV3KKP05","","null","<img src=""img/flower4.png"" style=""width:200px; border:14px solid green;"">","null","","","","","","","","",""
"","image-keyboard-response","258","146477","0.0-258.0","3NQL1CS15SUO4NEC9K3G2D9L90BVYR","A2U4JCTILX14EC","3SA4EMRVJVOCGON1OYE6FAUV3KKP05","","1263.0999999046326","img/flower6.png","74","1264","1","0","3","1","1,0.333,0.333,0.333,1,0.333,0.333,0.333,1","1,0.333,0.333,0.333,1,0.333,0.333,0.333,1","1",""
"","html-keyboard-response","259","146779","0.0-259.0","3NQL1CS15SUO4NEC9K3G2D9L90BVYR","A2U4JCTILX14EC","3SA4EMRVJVOCGON1OYE6FAUV3KKP05","","null","<img src=""img/flower6.png"" style=""width:200px;border:14px solid red;"">","null","","","","","","","","",""
"","image-keyboard-response","260","147466","0.0-260.0","3NQL1CS15SUO4NEC9K3G2D9L90BVYR","A2U4JCTILX14EC","3SA4EMRVJVOCGON1OYE6FAUV3KKP05","","685.6999998092651","img/flower4.png","76","686.7000000476837","3","0","1","1","1,0.333,0.333,0.333,1,0.333,0.333,0.333,1","1,0.333,0.333,0.333,1,0.333,0.333,0.333,1","1",""
"","html-keyboard-response","261","147768","0.0-261.0","3NQL1CS15SUO4NEC9K3G2D9L90BVYR","A2U4JCTILX14EC","3SA4EMRVJVOCGON1OYE6FAUV3KKP05","","null","<img src=""img/flower4.png"" style=""width:200px;border:14px solid red;"">","null","","","","","","","","",""
"","image-keyboard-response","262","148168","0.0-262.0","3NQL1CS15SUO4NEC9K3G2D9L90BVYR","A2U4JCTILX14EC","3SA4EMRVJVOCGON1OYE6FAUV3KKP05","","399.10000014305115","img/flower6.png","75","400","2","0","3","1","1,0.333,0.333,0.333,1,0.333,0.333,0.333,1","1,0.333,0.333,0.333,1,0.333,0.333,0.333,1","1",""
"","html-keyboard-response","263","148475","0.0-263.0","3NQL1CS15SUO4NEC9K3G2D9L90BVYR","A2U4JCTILX14EC","3SA4EMRVJVOCGON1OYE6FAUV3KKP05","","null","<img src=""img/flower6.png"" style=""width:200px;border:14px solid red;"">","null","","","","","","","","",""
"","image-keyboard-response","264","148744","0.0-264.0","3NQL1CS15SUO4NEC9K3G2D9L90BVYR","A2U4JCTILX14EC","3SA4EMRVJVOCGON1OYE6FAUV3KKP05","","267.7999999523163","img/flower6.png","74","268.80000019073486","1","1","3","1","1,0.333,0.333,0.333,1,0.333,0.333,0.333,1","1,0.333,0.333,0.333,1,0.333,0.333,0.333,1","1",""
"","html-keyboard-response","265","149046","0.0-265.0","3NQL1CS15SUO4NEC9K3G2D9L90BVYR","A2U4JCTILX14EC","3SA4EMRVJVOCGON1OYE6FAUV3KKP05","","null","<img src=""img/flower6.png"" style=""width:200px; border:14px solid green;"">","null","","","","","","","","",""
"","image-keyboard-response","266","150027","0.0-266.0","3NQL1CS15SUO4NEC9K3G2D9L90BVYR","A2U4JCTILX14EC","3SA4EMRVJVOCGON1OYE6FAUV3KKP05","","979.6000001430511","img/flower1.png","74","980.5","1","0","2","1","1,0.333,0.333,0.333,1,0.333,0.333,0.333,1","1,0.333,0.333,0.333,1,0.333,0.333,0.333,1","1",""
"","html-keyboard-response","267","150331","0.0-267.0","3NQL1CS15SUO4NEC9K3G2D9L90BVYR","A2U4JCTILX14EC","3SA4EMRVJVOCGON1OYE6FAUV3KKP05","","null","<img src=""img/flower1.png"" style=""width:200px;border:14px solid red;"">","null","","","","","","","","",""
"","image-keyboard-response","268","150630","0.0-268.0","3NQL1CS15SUO4NEC9K3G2D9L90BVYR","A2U4JCTILX14EC","3SA4EMRVJVOCGON1OYE6FAUV3KKP05","","298.10000014305115","img/flower6.png","75","299.09999990463257","2","1","3","1","1,0.333,0.333,0.333,1,0.333,0.333,0.333,1","1,0.333,0.333,0.333,1,0.333,0.333,0.333,1","1",""
"","html-keyboard-response","269","150932","0.0-269.0","3NQL1CS15SUO4NEC9K3G2D9L90BVYR","A2U4JCTILX14EC","3SA4EMRVJVOCGON1OYE6FAUV3KKP05","","null","<img src=""img/flower6.png"" style=""width:200px; border:14px solid green;"">","null","","","","","","","","",""
"","image-keyboard-response","270","151460","0.0-270.0","3NQL1CS15SUO4NEC9K3G2D9L90BVYR","A2U4JCTILX14EC","3SA4EMRVJVOCGON1OYE6FAUV3KKP05","","527.2999999523163","img/flower6.png","75","528.4000000953674","2","1","3","1","1,0.333,0.333,0.333,1,0.333,0.333,0.333,1","1,0.333,0.333,0.333,1,0.333,0.333,0.333,1","1",""
"","html-keyboard-response","271","151763","0.0-271.0","3NQL1CS15SUO4NEC9K3G2D9L90BVYR","A2U4JCTILX14EC","3SA4EMRVJVOCGON1OYE6FAUV3KKP05","","null","<img src=""img/flower6.png"" style=""width:200px; border:14px solid green;"">","null","","","","","","","","",""
"","image-keyboard-response","272","152199","0.0-272.0","3NQL1CS15SUO4NEC9K3G2D9L90BVYR","A2U4JCTILX14EC","3SA4EMRVJVOCGON1OYE6FAUV3KKP05","","435.5","img/flower6.png","75","436.2000000476837","2","1","3","1","1,0.333,0.333,0.333,1,0.333,0.333,0.333,1","1,0.333,0.333,0.333,1,0.333,0.333,0.333,1","1",""
"","html-keyboard-response","273","152502","0.0-273.0","3NQL1CS15SUO4NEC9K3G2D9L90BVYR","A2U4JCTILX14EC","3SA4EMRVJVOCGON1OYE6FAUV3KKP05","","null","<img src=""img/flower6.png"" style=""width:200px; border:14px solid green;"">","null","","","","","","","","",""
"","image-keyboard-response","274","153277","0.0-274.0","3NQL1CS15SUO4NEC9K3G2D9L90BVYR","A2U4JCTILX14EC","3SA4EMRVJVOCGON1OYE6FAUV3KKP05","","772.7999999523163","img/flower4.png","75","774","2","0","1","1","1,0.333,0.333,0.333,1,0.333,0.333,0.333,1","1,0.333,0.333,0.333,1,0.333,0.333,0.333,1","1",""
"","html-keyboard-response","275","153578","0.0-275.0","3NQL1CS15SUO4NEC9K3G2D9L90BVYR","A2U4JCTILX14EC","3SA4EMRVJVOCGON1OYE6FAUV3KKP05","","null","<img src=""img/flower4.png"" style=""width:200px;border:14px solid red;"">","null","","","","","","","","",""
"","image-keyboard-response","276","153701","0.0-276.0","3NQL1CS15SUO4NEC9K3G2D9L90BVYR","A2U4JCTILX14EC","3SA4EMRVJVOCGON1OYE6FAUV3KKP05","","121.40000009536743","img/flower6.png","76","122.5","3","1","3","1","1,0.333,0.333,0.333,1,0.333,0.333,0.333,1","1,0.333,0.333,0.333,1,0.333,0.333,0.333,1","1",""
"","html-keyboard-response","277","154003","0.0-277.0","3NQL1CS15SUO4NEC9K3G2D9L90BVYR","A2U4JCTILX14EC","3SA4EMRVJVOCGON1OYE6FAUV3KKP05","","null","<img src=""img/flower6.png"" style=""width:200px; border:14px solid green;"">","null","","","","","","","","",""
"","image-keyboard-response","278","154662","0.0-278.0","3NQL1CS15SUO4NEC9K3G2D9L90BVYR","A2U4JCTILX14EC","3SA4EMRVJVOCGON1OYE6FAUV3KKP05","","657.2000000476837","img/flower1.png","74","658","1","0","2","1","1,0.333,0.333,0.333,1,0.333,0.333,0.333,1","1,0.333,0.333,0.333,1,0.333,0.333,0.333,1","1",""
"","html-keyboard-response","279","154964","0.0-279.0","3NQL1CS15SUO4NEC9K3G2D9L90BVYR","A2U4JCTILX14EC","3SA4EMRVJVOCGON1OYE6FAUV3KKP05","","null","<img src=""img/flower1.png"" style=""width:200px;border:14px solid red;"">","null","","","","","","","","",""
"","image-keyboard-response","280","155188","0.0-280.0","3NQL1CS15SUO4NEC9K3G2D9L90BVYR","A2U4JCTILX14EC","3SA4EMRVJVOCGON1OYE6FAUV3KKP05","","222.60000014305115","img/flower4.png","76","223.69999980926514","3","0","1","1","1,0.333,0.333,0.333,1,0.333,0.333,0.333,1","1,0.333,0.333,0.333,1,0.333,0.333,0.333,1","1",""
"","html-keyboard-response","281","155490","0.0-281.0","3NQL1CS15SUO4NEC9K3G2D9L90BVYR","A2U4JCTILX14EC","3SA4EMRVJVOCGON1OYE6FAUV3KKP05","","null","<img src=""img/flower4.png"" style=""width:200px;border:14px solid red;"">","null","","","","","","","","",""
"","image-keyboard-response","282","155636","0.0-282.0","3NQL1CS15SUO4NEC9K3G2D9L90BVYR","A2U4JCTILX14EC","3SA4EMRVJVOCGON1OYE6FAUV3KKP05","","144.5","img/flower1.png","75","145.40000009536743","2","1","2","1","1,0.333,0.333,0.333,1,0.333,0.333,0.333,1","1,0.333,0.333,0.333,1,0.333,0.333,0.333,1","1",""
"","html-keyboard-response","283","155937","0.0-283.0","3NQL1CS15SUO4NEC9K3G2D9L90BVYR","A2U4JCTILX14EC","3SA4EMRVJVOCGON1OYE6FAUV3KKP05","","null","<img src=""img/flower1.png"" style=""width:200px; border:14px solid green;"">","null","","","","","","","","",""
"","image-keyboard-response","284","156884","0.0-284.0","3NQL1CS15SUO4NEC9K3G2D9L90BVYR","A2U4JCTILX14EC","3SA4EMRVJVOCGON1OYE6FAUV3KKP05","","945.1999998092651","img/flower4.png","75","946.2000000476837","2","0","1","1","1,0.333,0.333,0.333,1,0.333,0.333,0.333,1","1,0.333,0.333,0.333,1,0.333,0.333,0.333,1","1",""
"","html-keyboard-response","285","157186","0.0-285.0","3NQL1CS15SUO4NEC9K3G2D9L90BVYR","A2U4JCTILX14EC","3SA4EMRVJVOCGON1OYE6FAUV3KKP05","","null","<img src=""img/flower4.png"" style=""width:200px;border:14px solid red;"">","null","","","","","","","","",""
"","image-keyboard-response","286","157421","0.0-286.0","3NQL1CS15SUO4NEC9K3G2D9L90BVYR","A2U4JCTILX14EC","3SA4EMRVJVOCGON1OYE6FAUV3KKP05","","234.39999985694885","img/flower1.png","76","235.39999985694885","3","1","2","1","1,0.333,0.333,0.333,1,0.333,0.333,0.333,1","1,0.333,0.333,0.333,1,0.333,0.333,0.333,1","1",""
"","html-keyboard-response","287","157723","0.0-287.0","3NQL1CS15SUO4NEC9K3G2D9L90BVYR","A2U4JCTILX14EC","3SA4EMRVJVOCGON1OYE6FAUV3KKP05","","null","<img src=""img/flower1.png"" style=""width:200px; border:14px solid green;"">","null","","","","","","","","",""
"","image-keyboard-response","288","158333","0.0-288.0","3NQL1CS15SUO4NEC9K3G2D9L90BVYR","A2U4JCTILX14EC","3SA4EMRVJVOCGON1OYE6FAUV3KKP05","","608.2000000476837","img/flower4.png","76","609.2000000476837","3","0","1","1","1,0.333,0.333,0.333,1,0.333,0.333,0.333,1","1,0.333,0.333,0.333,1,0.333,0.333,0.333,1","1",""
"","html-keyboard-response","289","158635","0.0-289.0","3NQL1CS15SUO4NEC9K3G2D9L90BVYR","A2U4JCTILX14EC","3SA4EMRVJVOCGON1OYE6FAUV3KKP05","","null","<img src=""img/flower4.png"" style=""width:200px;border:14px solid red;"">","null","","","","","","","","",""
"","image-keyboard-response","290","158905","0.0-290.0","3NQL1CS15SUO4NEC9K3G2D9L90BVYR","A2U4JCTILX14EC","3SA4EMRVJVOCGON1OYE6FAUV3KKP05","","268.7999999523163","img/flower4.png","74","269.80000019073486","1","1","1","1","1,0.333,0.333,0.333,1,0.333,0.333,0.333,1","1,0.333,0.333,0.333,1,0.333,0.333,0.333,1","1",""
"","html-keyboard-response","291","159207","0.0-291.0","3NQL1CS15SUO4NEC9K3G2D9L90BVYR","A2U4JCTILX14EC","3SA4EMRVJVOCGON1OYE6FAUV3KKP05","","null","<img src=""img/flower4.png"" style=""width:200px; border:14px solid green;"">","null","","","","","","","","",""
"","image-keyboard-response","292","159845","0.0-292.0","3NQL1CS15SUO4NEC9K3G2D9L90BVYR","A2U4JCTILX14EC","3SA4EMRVJVOCGON1OYE6FAUV3KKP05","","636","img/flower1.png","74","637","1","0","2","1","1,0.333,0.333,0.333,1,0.333,0.333,0.333,1","1,0.333,0.333,0.333,1,0.333,0.333,0.333,1","1",""
"","html-keyboard-response","293","160147","0.0-293.0","3NQL1CS15SUO4NEC9K3G2D9L90BVYR","A2U4JCTILX14EC","3SA4EMRVJVOCGON1OYE6FAUV3KKP05","","null","<img src=""img/flower1.png"" style=""width:200px;border:14px solid red;"">","null","","","","","","","","",""
"","image-keyboard-response","294","160287","0.0-294.0","3NQL1CS15SUO4NEC9K3G2D9L90BVYR","A2U4JCTILX14EC","3SA4EMRVJVOCGON1OYE6FAUV3KKP05","","138.40000009536743","img/flower4.png","75","139.5","2","0","1","1","1,0.333,0.333,0.333,1,0.333,0.333,0.333,1","1,0.333,0.333,0.333,1,0.333,0.333,0.333,1","1",""
"","html-keyboard-response","295","160589","0.0-295.0","3NQL1CS15SUO4NEC9K3G2D9L90BVYR","A2U4JCTILX14EC","3SA4EMRVJVOCGON1OYE6FAUV3KKP05","","null","<img src=""img/flower4.png"" style=""width:200px;border:14px solid red;"">","null","","","","","","","","",""
"","image-keyboard-response","296","161027","0.0-296.0","3NQL1CS15SUO4NEC9K3G2D9L90BVYR","A2U4JCTILX14EC","3SA4EMRVJVOCGON1OYE6FAUV3KKP05","","437","img/flower6.png","76","438.2999999523163","3","1","3","1","1,0.333,0.333,0.333,1,0.333,0.333,0.333,1","1,0.333,0.333,0.333,1,0.333,0.333,0.333,1","1",""
"","html-keyboard-response","297","161330","0.0-297.0","3NQL1CS15SUO4NEC9K3G2D9L90BVYR","A2U4JCTILX14EC","3SA4EMRVJVOCGON1OYE6FAUV3KKP05","","null","<img src=""img/flower6.png"" style=""width:200px; border:14px solid green;"">","null","","","","","","","","",""
"","image-keyboard-response","298","163332","0.0-298.0","3NQL1CS15SUO4NEC9K3G2D9L90BVYR","A2U4JCTILX14EC","3SA4EMRVJVOCGON1OYE6FAUV3KKP05","","","img/flower1.png","","2001.5999999046326","-1","0","2","1","1,0.333,0.333,0.333,1,0.333,0.333,0.333,1","1,0.333,0.333,0.333,1,0.333,0.333,0.333,1","1",""
"","html-keyboard-response","299","163633","0.0-299.0","3NQL1CS15SUO4NEC9K3G2D9L90BVYR","A2U4JCTILX14EC","3SA4EMRVJVOCGON1OYE6FAUV3KKP05","","null","<img src=""img/flower1.png"" style=""width:200px;border:14px solid red;"">","null","","","","","","","","",""
"","image-keyboard-response","300","163730","0.0-300.0","3NQL1CS15SUO4NEC9K3G2D9L90BVYR","A2U4JCTILX14EC","3SA4EMRVJVOCGON1OYE6FAUV3KKP05","","95.5","img/flower4.png","74","96.29999995231628","1","1","1","1","1,0.333,0.333,0.333,1,0.333,0.333,0.333,1","1,0.333,0.333,0.333,1,0.333,0.333,0.333,1","1",""
"","html-keyboard-response","301","164032","0.0-301.0","3NQL1CS15SUO4NEC9K3G2D9L90BVYR","A2U4JCTILX14EC","3SA4EMRVJVOCGON1OYE6FAUV3KKP05","","null","<img src=""img/flower4.png"" style=""width:200px; border:14px solid green;"">","null","","","","","","","","",""
"","image-keyboard-response","302","164484","0.0-302.0","3NQL1CS15SUO4NEC9K3G2D9L90BVYR","A2U4JCTILX14EC","3SA4EMRVJVOCGON1OYE6FAUV3KKP05","","450.2999999523163","img/flower4.png","74","451.19999980926514","1","1","1","1","1,0.333,0.333,0.333,1,0.333,0.333,0.333,1","1,0.333,0.333,0.333,1,0.333,0.333,0.333,1","1",""
"","html-keyboard-response","303","164786","0.0-303.0","3NQL1CS15SUO4NEC9K3G2D9L90BVYR","A2U4JCTILX14EC","3SA4EMRVJVOCGON1OYE6FAUV3KKP05","","null","<img src=""img/flower4.png"" style=""width:200px; border:14px solid green;"">","null","","","","","","","","",""
"","image-keyboard-response","304","165407","0.0-304.0","3NQL1CS15SUO4NEC9K3G2D9L90BVYR","A2U4JCTILX14EC","3SA4EMRVJVOCGON1OYE6FAUV3KKP05","","619.7999999523163","img/flower1.png","74","620.5999999046326","1","1","2","1","1,0.333,0.333,0.333,1,0.333,0.333,0.333,1","1,0.333,0.333,0.333,1,0.333,0.333,0.333,1","1",""
"","html-keyboard-response","305","165713","0.0-305.0","3NQL1CS15SUO4NEC9K3G2D9L90BVYR","A2U4JCTILX14EC","3SA4EMRVJVOCGON1OYE6FAUV3KKP05","","null","<img src=""img/flower1.png"" style=""width:200px; border:14px solid green;"">","null","","","","","","","","",""
"","image-keyboard-response","306","166181","0.0-306.0","3NQL1CS15SUO4NEC9K3G2D9L90BVYR","A2U4JCTILX14EC","3SA4EMRVJVOCGON1OYE6FAUV3KKP05","","466.90000009536743","img/flower1.png","74","467.7999999523163","1","0","2","1","1,0.333,0.333,0.333,1,0.333,0.333,0.333,1","1,0.333,0.333,0.333,1,0.333,0.333,0.333,1","1",""
"","html-keyboard-response","307","166483","0.0-307.0","3NQL1CS15SUO4NEC9K3G2D9L90BVYR","A2U4JCTILX14EC","3SA4EMRVJVOCGON1OYE6FAUV3KKP05","","null","<img src=""img/flower1.png"" style=""width:200px;border:14px solid red;"">","null","","","","","","","","",""
"","image-keyboard-response","308","166751","0.0-308.0","3NQL1CS15SUO4NEC9K3G2D9L90BVYR","A2U4JCTILX14EC","3SA4EMRVJVOCGON1OYE6FAUV3KKP05","","266.39999985694885","img/flower1.png","75","267.30000019073486","2","1","2","1","1,0.333,0.333,0.333,1,0.333,0.333,0.333,1","1,0.333,0.333,0.333,1,0.333,0.333,0.333,1","1",""
"","html-keyboard-response","309","167052","0.0-309.0","3NQL1CS15SUO4NEC9K3G2D9L90BVYR","A2U4JCTILX14EC","3SA4EMRVJVOCGON1OYE6FAUV3KKP05","","null","<img src=""img/flower1.png"" style=""width:200px; border:14px solid green;"">","null","","","","","","","","",""
"","image-keyboard-response","310","167566","0.0-310.0","3NQL1CS15SUO4NEC9K3G2D9L90BVYR","A2U4JCTILX14EC","3SA4EMRVJVOCGON1OYE6FAUV3KKP05","","512.5","img/flower4.png","75","513.5","2","0","1","1","1,0.333,0.333,0.333,1,0.333,0.333,0.333,1","1,0.333,0.333,0.333,1,0.333,0.333,0.333,1","1",""
"","html-keyboard-response","311","167869","0.0-311.0","3NQL1CS15SUO4NEC9K3G2D9L90BVYR","A2U4JCTILX14EC","3SA4EMRVJVOCGON1OYE6FAUV3KKP05","","null","<img src=""img/flower4.png"" style=""width:200px;border:14px solid red;"">","null","","","","","","","","",""
"","image-keyboard-response","312","167960","0.0-312.0","3NQL1CS15SUO4NEC9K3G2D9L90BVYR","A2U4JCTILX14EC","3SA4EMRVJVOCGON1OYE6FAUV3KKP05","","90.10000014305115","img/flower4.png","74","91","1","1","1","1","1,0.333,0.333,0.333,1,0.333,0.333,0.333,1","1,0.333,0.333,0.333,1,0.333,0.333,0.333,1","1",""
"","html-keyboard-response","313","168262","0.0-313.0","3NQL1CS15SUO4NEC9K3G2D9L90BVYR","A2U4JCTILX14EC","3SA4EMRVJVOCGON1OYE6FAUV3KKP05","","null","<img src=""img/flower4.png"" style=""width:200px; border:14px solid green;"">","null","","","","","","","","",""
"","image-keyboard-response","314","168756","0.0-314.0","3NQL1CS15SUO4NEC9K3G2D9L90BVYR","A2U4JCTILX14EC","3SA4EMRVJVOCGON1OYE6FAUV3KKP05","","492.2999999523163","img/flower1.png","74","493.2000000476837","1","0","2","1","1,0.333,0.333,0.333,1,0.333,0.333,0.333,1","1,0.333,0.333,0.333,1,0.333,0.333,0.333,1","1",""
"","html-keyboard-response","315","169057","0.0-315.0","3NQL1CS15SUO4NEC9K3G2D9L90BVYR","A2U4JCTILX14EC","3SA4EMRVJVOCGON1OYE6FAUV3KKP05","","null","<img src=""img/flower1.png"" style=""width:200px;border:14px solid red;"">","null","","","","","","","","",""
"","image-keyboard-response","316","169202","0.0-316.0","3NQL1CS15SUO4NEC9K3G2D9L90BVYR","A2U4JCTILX14EC","3SA4EMRVJVOCGON1OYE6FAUV3KKP05","","143.79999995231628","img/flower6.png","75","144.79999995231628","2","0","3","1","1,0.333,0.333,0.333,1,0.333,0.333,0.333,1","1,0.333,0.333,0.333,1,0.333,0.333,0.333,1","1",""
"","html-keyboard-response","317","169504","0.0-317.0","3NQL1CS15SUO4NEC9K3G2D9L90BVYR","A2U4JCTILX14EC","3SA4EMRVJVOCGON1OYE6FAUV3KKP05","","null","<img src=""img/flower6.png"" style=""width:200px;border:14px solid red;"">","null","","","","","","","","",""
"","image-keyboard-response","318","169737","0.0-318.0","3NQL1CS15SUO4NEC9K3G2D9L90BVYR","A2U4JCTILX14EC","3SA4EMRVJVOCGON1OYE6FAUV3KKP05","","231.5","img/flower6.png","76","232.5","3","1","3","1","1,0.333,0.333,0.333,1,0.333,0.333,0.333,1","1,0.333,0.333,0.333,1,0.333,0.333,0.333,1","1",""
"","html-keyboard-response","319","170039","0.0-319.0","3NQL1CS15SUO4NEC9K3G2D9L90BVYR","A2U4JCTILX14EC","3SA4EMRVJVOCGON1OYE6FAUV3KKP05","","null","<img src=""img/flower6.png"" style=""width:200px; border:14px solid green;"">","null","","","","","","","","",""
"","image-keyboard-response","320","170501","0.0-320.0","3NQL1CS15SUO4NEC9K3G2D9L90BVYR","A2U4JCTILX14EC","3SA4EMRVJVOCGON1OYE6FAUV3KKP05","","461","img/flower4.png","75","462","2","0","1","1","1,0.333,0.333,0.333,1,0.333,0.333,0.333,1","1,0.333,0.333,0.333,1,0.333,0.333,0.333,1","1",""
"","html-keyboard-response","321","170804","0.0-321.0","3NQL1CS15SUO4NEC9K3G2D9L90BVYR","A2U4JCTILX14EC","3SA4EMRVJVOCGON1OYE6FAUV3KKP05","","null","<img src=""img/flower4.png"" style=""width:200px;border:14px solid red;"">","null","","","","","","","","",""
"","image-keyboard-response","322","171057","0.0-322.0","3NQL1CS15SUO4NEC9K3G2D9L90BVYR","A2U4JCTILX14EC","3SA4EMRVJVOCGON1OYE6FAUV3KKP05","","252.59999990463257","img/flower6.png","76","253.5","3","1","3","1","1,0.333,0.333,0.333,1,0.333,0.333,0.333,1","1,0.333,0.333,0.333,1,0.333,0.333,0.333,1","1",""
"","html-keyboard-response","323","171359","0.0-323.0","3NQL1CS15SUO4NEC9K3G2D9L90BVYR","A2U4JCTILX14EC","3SA4EMRVJVOCGON1OYE6FAUV3KKP05","","null","<img src=""img/flower6.png"" style=""width:200px; border:14px solid green;"">","null","","","","","","","","",""
"","image-keyboard-response","324","171728","0.0-324.0","3NQL1CS15SUO4NEC9K3G2D9L90BVYR","A2U4JCTILX14EC","3SA4EMRVJVOCGON1OYE6FAUV3KKP05","","368.09999990463257","img/flower6.png","76","368.89999985694885","3","1","3","1","1,0.333,0.333,0.333,1,0.333,0.333,0.333,1","1,0.333,0.333,0.333,1,0.333,0.333,0.333,1","1",""
"","html-keyboard-response","325","172029","0.0-325.0","3NQL1CS15SUO4NEC9K3G2D9L90BVYR","A2U4JCTILX14EC","3SA4EMRVJVOCGON1OYE6FAUV3KKP05","","null","<img src=""img/flower6.png"" style=""width:200px; border:14px solid green;"">","null","","","","","","","","",""
"","image-keyboard-response","326","172756","0.0-326.0","3NQL1CS15SUO4NEC9K3G2D9L90BVYR","A2U4JCTILX14EC","3SA4EMRVJVOCGON1OYE6FAUV3KKP05","","725.2999999523163","img/flower4.png","76","726","3","1","1","1","1,0.333,0.333,0.333,1,0.333,0.333,0.333,1","1,0.333,0.333,0.333,1,0.333,0.333,0.333,1","1",""
"","html-keyboard-response","327","173058","0.0-327.0","3NQL1CS15SUO4NEC9K3G2D9L90BVYR","A2U4JCTILX14EC","3SA4EMRVJVOCGON1OYE6FAUV3KKP05","","null","<img src=""img/flower4.png"" style=""width:200px; border:14px solid green;"">","null","","","","","","","","",""
"","image-keyboard-response","328","173116","0.0-328.0","3NQL1CS15SUO4NEC9K3G2D9L90BVYR","A2U4JCTILX14EC","3SA4EMRVJVOCGON1OYE6FAUV3KKP05","","57.799999952316284","img/flower1.png","74","58.59999990463257","1","0","2","1","1,0.333,0.333,0.333,1,0.333,0.333,0.333,1","1,0.333,0.333,0.333,1,0.333,0.333,0.333,1","1",""
"","html-keyboard-response","329","173418","0.0-329.0","3NQL1CS15SUO4NEC9K3G2D9L90BVYR","A2U4JCTILX14EC","3SA4EMRVJVOCGON1OYE6FAUV3KKP05","","null","<img src=""img/flower1.png"" style=""width:200px;border:14px solid red;"">","null","","","","","","","","",""
"","image-keyboard-response","330","173733","0.0-330.0","3NQL1CS15SUO4NEC9K3G2D9L90BVYR","A2U4JCTILX14EC","3SA4EMRVJVOCGON1OYE6FAUV3KKP05","","313.90000009536743","img/flower1.png","76","314.7999999523163","3","0","2","1","1,0.333,0.333,0.333,1,0.333,0.333,0.333,1","1,0.333,0.333,0.333,1,0.333,0.333,0.333,1","1",""
"","html-keyboard-response","331","174035","0.0-331.0","3NQL1CS15SUO4NEC9K3G2D9L90BVYR","A2U4JCTILX14EC","3SA4EMRVJVOCGON1OYE6FAUV3KKP05","","null","<img src=""img/flower1.png"" style=""width:200px;border:14px solid red;"">","null","","","","","","","","",""
"","image-keyboard-response","332","174308","0.0-332.0","3NQL1CS15SUO4NEC9K3G2D9L90BVYR","A2U4JCTILX14EC","3SA4EMRVJVOCGON1OYE6FAUV3KKP05","","271.60000014305115","img/flower1.png","76","272.5","3","1","2","1","1,0.333,0.333,0.333,1,0.333,0.333,0.333,1","1,0.333,0.333,0.333,1,0.333,0.333,0.333,1","1",""
"","html-keyboard-response","333","174610","0.0-333.0","3NQL1CS15SUO4NEC9K3G2D9L90BVYR","A2U4JCTILX14EC","3SA4EMRVJVOCGON1OYE6FAUV3KKP05","","null","<img src=""img/flower1.png"" style=""width:200px; border:14px solid green;"">","null","","","","","","","","",""
"","image-keyboard-response","334","175206","0.0-334.0","3NQL1CS15SUO4NEC9K3G2D9L90BVYR","A2U4JCTILX14EC","3SA4EMRVJVOCGON1OYE6FAUV3KKP05","","594.2999999523163","img/flower1.png","76","595.2999999523163","3","0","2","1","1,0.333,0.333,0.333,1,0.333,0.333,0.333,1","1,0.333,0.333,0.333,1,0.333,0.333,0.333,1","1",""
"","html-keyboard-response","335","175508","0.0-335.0","3NQL1CS15SUO4NEC9K3G2D9L90BVYR","A2U4JCTILX14EC","3SA4EMRVJVOCGON1OYE6FAUV3KKP05","","null","<img src=""img/flower1.png"" style=""width:200px;border:14px solid red;"">","null","","","","","","","","",""
"","image-keyboard-response","336","175773","0.0-336.0","3NQL1CS15SUO4NEC9K3G2D9L90BVYR","A2U4JCTILX14EC","3SA4EMRVJVOCGON1OYE6FAUV3KKP05","","261.39999985694885","img/flower1.png","74","262.5","1","0","2","1","1,0.333,0.333,0.333,1,0.333,0.333,0.333,1","1,0.333,0.333,0.333,1,0.333,0.333,0.333,1","1",""
"","html-keyboard-response","337","176074","0.0-337.0","3NQL1CS15SUO4NEC9K3G2D9L90BVYR","A2U4JCTILX14EC","3SA4EMRVJVOCGON1OYE6FAUV3KKP05","","null","<img src=""img/flower1.png"" style=""width:200px;border:14px solid red;"">","null","","","","","","","","",""
"","image-keyboard-response","338","176234","0.0-338.0","3NQL1CS15SUO4NEC9K3G2D9L90BVYR","A2U4JCTILX14EC","3SA4EMRVJVOCGON1OYE6FAUV3KKP05","","158.39999985694885","img/flower1.png","75","159.39999985694885","2","1","2","1","1,0.333,0.333,0.333,1,0.333,0.333,0.333,1","1,0.333,0.333,0.333,1,0.333,0.333,0.333,1","1",""
"","html-keyboard-response","339","176536","0.0-339.0","3NQL1CS15SUO4NEC9K3G2D9L90BVYR","A2U4JCTILX14EC","3SA4EMRVJVOCGON1OYE6FAUV3KKP05","","null","<img src=""img/flower1.png"" style=""width:200px; border:14px solid green;"">","null","","","","","","","","",""
"","image-keyboard-response","340","176989","0.0-340.0","3NQL1CS15SUO4NEC9K3G2D9L90BVYR","A2U4JCTILX14EC","3SA4EMRVJVOCGON1OYE6FAUV3KKP05","","451.2000000476837","img/flower6.png","75","452.2000000476837","2","0","3","1","1,0.333,0.333,0.333,1,0.333,0.333,0.333,1","1,0.333,0.333,0.333,1,0.333,0.333,0.333,1","1",""
"","html-keyboard-response","341","177290","0.0-341.0","3NQL1CS15SUO4NEC9K3G2D9L90BVYR","A2U4JCTILX14EC","3SA4EMRVJVOCGON1OYE6FAUV3KKP05","","null","<img src=""img/flower6.png"" style=""width:200px;border:14px solid red;"">","null","","","","","","","","",""
"","image-keyboard-response","342","177342","0.0-342.0","3NQL1CS15SUO4NEC9K3G2D9L90BVYR","A2U4JCTILX14EC","3SA4EMRVJVOCGON1OYE6FAUV3KKP05","","50","img/flower6.png","76","50.90000009536743","3","1","3","1","1,0.333,0.333,0.333,1,0.333,0.333,0.333,1","1,0.333,0.333,0.333,1,0.333,0.333,0.333,1","1",""
"","html-keyboard-response","343","177643","0.0-343.0","3NQL1CS15SUO4NEC9K3G2D9L90BVYR","A2U4JCTILX14EC","3SA4EMRVJVOCGON1OYE6FAUV3KKP05","","null","<img src=""img/flower6.png"" style=""width:200px; border:14px solid green;"">","null","","","","","","","","",""
"","image-keyboard-response","344","178163","0.0-344.0","3NQL1CS15SUO4NEC9K3G2D9L90BVYR","A2U4JCTILX14EC","3SA4EMRVJVOCGON1OYE6FAUV3KKP05","","518.2999999523163","img/flower1.png","75","519.2999999523163","2","1","2","1","1,0.333,0.333,0.333,1,0.333,0.333,0.333,1","1,0.333,0.333,0.333,1,0.333,0.333,0.333,1","1",""
"","html-keyboard-response","345","178466","0.0-345.0","3NQL1CS15SUO4NEC9K3G2D9L90BVYR","A2U4JCTILX14EC","3SA4EMRVJVOCGON1OYE6FAUV3KKP05","","null","<img src=""img/flower1.png"" style=""width:200px; border:14px solid green;"">","null","","","","","","","","",""
"","image-keyboard-response","346","179104","0.0-346.0","3NQL1CS15SUO4NEC9K3G2D9L90BVYR","A2U4JCTILX14EC","3SA4EMRVJVOCGON1OYE6FAUV3KKP05","","636.7999999523163","img/flower1.png","76","637.7999999523163","3","1","2","1","1,0.333,0.333,0.333,1,0.333,0.333,0.333,1","1,0.333,0.333,0.333,1,0.333,0.333,0.333,1","1",""
"","html-keyboard-response","347","179411","0.0-347.0","3NQL1CS15SUO4NEC9K3G2D9L90BVYR","A2U4JCTILX14EC","3SA4EMRVJVOCGON1OYE6FAUV3KKP05","","null","<img src=""img/flower1.png"" style=""width:200px; border:14px solid green;"">","null","","","","","","","","",""
"","image-keyboard-response","348","180013","0.0-348.0","3NQL1CS15SUO4NEC9K3G2D9L90BVYR","A2U4JCTILX14EC","3SA4EMRVJVOCGON1OYE6FAUV3KKP05","","600.1000001430511","img/flower1.png","76","601.2000000476837","3","1","2","1","1,0.333,0.333,0.333,1,0.333,0.333,0.333,1","1,0.333,0.333,0.333,1,0.333,0.333,0.333,1","1",""
"","html-keyboard-response","349","180330","0.0-349.0","3NQL1CS15SUO4NEC9K3G2D9L90BVYR","A2U4JCTILX14EC","3SA4EMRVJVOCGON1OYE6FAUV3KKP05","","null","<img src=""img/flower1.png"" style=""width:200px; border:14px solid green;"">","null","","","","","","","","",""
"","image-keyboard-response","350","180966","0.0-350.0","3NQL1CS15SUO4NEC9K3G2D9L90BVYR","A2U4JCTILX14EC","3SA4EMRVJVOCGON1OYE6FAUV3KKP05","","634.5","img/flower6.png","75","635.5","2","0","3","1","1,0.333,0.333,0.333,1,0.333,0.333,0.333,1","1,0.333,0.333,0.333,1,0.333,0.333,0.333,1","1",""
"","html-keyboard-response","351","181268","0.0-351.0","3NQL1CS15SUO4NEC9K3G2D9L90BVYR","A2U4JCTILX14EC","3SA4EMRVJVOCGON1OYE6FAUV3KKP05","","null","<img src=""img/flower6.png"" style=""width:200px;border:14px solid red;"">","null","","","","","","","","",""
"","image-keyboard-response","352","181689","0.0-352.0","3NQL1CS15SUO4NEC9K3G2D9L90BVYR","A2U4JCTILX14EC","3SA4EMRVJVOCGON1OYE6FAUV3KKP05","","419.7999999523163","img/flower4.png","76","420.7999999523163","3","0","1","1","1,0.333,0.333,0.333,1,0.333,0.333,0.333,1","1,0.333,0.333,0.333,1,0.333,0.333,0.333,1","1",""
"","html-keyboard-response","353","181995","0.0-353.0","3NQL1CS15SUO4NEC9K3G2D9L90BVYR","A2U4JCTILX14EC","3SA4EMRVJVOCGON1OYE6FAUV3KKP05","","null","<img src=""img/flower4.png"" style=""width:200px;border:14px solid red;"">","null","","","","","","","","",""
"","image-keyboard-response","354","182082","0.0-354.0","3NQL1CS15SUO4NEC9K3G2D9L90BVYR","A2U4JCTILX14EC","3SA4EMRVJVOCGON1OYE6FAUV3KKP05","","86.40000009536743","img/flower1.png","75","87.19999980926514","2","1","2","1","1,0.333,0.333,0.333,1,0.333,0.333,0.333,1","1,0.333,0.333,0.333,1,0.333,0.333,0.333,1","1",""
"","html-keyboard-response","355","182384","0.0-355.0","3NQL1CS15SUO4NEC9K3G2D9L90BVYR","A2U4JCTILX14EC","3SA4EMRVJVOCGON1OYE6FAUV3KKP05","","null","<img src=""img/flower1.png"" style=""width:200px; border:14px solid green;"">","null","","","","","","","","",""
"","image-keyboard-response","356","182794","0.0-356.0","3NQL1CS15SUO4NEC9K3G2D9L90BVYR","A2U4JCTILX14EC","3SA4EMRVJVOCGON1OYE6FAUV3KKP05","","409.10000014305115","img/flower4.png","75","410.09999990463257","2","1","1","1","1,0.333,0.333,0.333,1,0.333,0.333,0.333,1","1,0.333,0.333,0.333,1,0.333,0.333,0.333,1","1",""
"","html-keyboard-response","357","183096","0.0-357.0","3NQL1CS15SUO4NEC9K3G2D9L90BVYR","A2U4JCTILX14EC","3SA4EMRVJVOCGON1OYE6FAUV3KKP05","","null","<img src=""img/flower4.png"" style=""width:200px; border:14px solid green;"">","null","","","","","","","","",""
"","image-keyboard-response","358","183549","0.0-358.0","3NQL1CS15SUO4NEC9K3G2D9L90BVYR","A2U4JCTILX14EC","3SA4EMRVJVOCGON1OYE6FAUV3KKP05","","451.2000000476837","img/flower1.png","74","452.2999999523163","1","0","2","1","1,0.333,0.333,0.333,1,0.333,0.333,0.333,1","1,0.333,0.333,0.333,1,0.333,0.333,0.333,1","1",""
"","html-keyboard-response","359","183851","0.0-359.0","3NQL1CS15SUO4NEC9K3G2D9L90BVYR","A2U4JCTILX14EC","3SA4EMRVJVOCGON1OYE6FAUV3KKP05","","null","<img src=""img/flower1.png"" style=""width:200px;border:14px solid red;"">","null","","","","","","","","",""
"","image-keyboard-response","360","184514","0.0-360.0","3NQL1CS15SUO4NEC9K3G2D9L90BVYR","A2U4JCTILX14EC","3SA4EMRVJVOCGON1OYE6FAUV3KKP05","","662","img/flower6.png","76","662.9000000953674","3","1","3","1","1,0.333,0.333,0.333,1,0.333,0.333,0.333,1","1,0.333,0.333,0.333,1,0.333,0.333,0.333,1","1",""
"","html-keyboard-response","361","184816","0.0-361.0","3NQL1CS15SUO4NEC9K3G2D9L90BVYR","A2U4JCTILX14EC","3SA4EMRVJVOCGON1OYE6FAUV3KKP05","","null","<img src=""img/flower6.png"" style=""width:200px; border:14px solid green;"">","null","","","","","","","","",""
"","html-keyboard-response","362","186623","0.0-362.0","3NQL1CS15SUO4NEC9K3G2D9L90BVYR","A2U4JCTILX14EC","3SA4EMRVJVOCGON1OYE6FAUV3KKP05","","","","","","","","","","","","",""
"","instructions","363","190188","0.0-363.0","3NQL1CS15SUO4NEC9K3G2D9L90BVYR","A2U4JCTILX14EC","3SA4EMRVJVOCGON1OYE6FAUV3KKP05","[{""page_index"":0,""viewing_time"":3564}]","3564.399999856949","","","","","","","","","","",""
"","survey-text","364","200582","0.0-364.0","3NQL1CS15SUO4NEC9K3G2D9L90BVYR","A2U4JCTILX14EC","3SA4EMRVJVOCGON1OYE6FAUV3KKP05","","10389.699999809265","","","","","","","","","","","{""Q0"":""A2U4JCTILX14EC""}"
