"success","trial_type","trial_index","time_elapsed","internal_node_id","assignmentID","mturkID","hitID","view_history","rt","stimulus","key_press","reactionTime","a","r","s","cond","reward_cond","reward_cond_actual","reward_matrix_idx","responses"
"true","fullscreen","0","7312","0.0-0.0","3PXX5PX6LYK8ZRI3OXY0YFX73JOBAR","A2UKIUS36QADNI","37SDSEDIN9ORHL92Y0GV7TIFJ2X187","","","","","","","","","","","","",""
"","instructions","1","33574","0.0-1.0","3PXX5PX6LYK8ZRI3OXY0YFX73JOBAR","A2UKIUS36QADNI","37SDSEDIN9ORHL92Y0GV7TIFJ2X187","[{""page_index"":0,""viewing_time"":1819.8999999761581},{""page_index"":1,""viewing_time"":1266.4000000357628},{""page_index"":2,""viewing_time"":1258.2999999523163},{""page_index"":3,""viewing_time"":906.9000000357628},{""page_index"":4,""viewing_time"":2259.099999964237},{""page_index"":5,""viewing_time"":6622.700000047684},{""page_index"":6,""viewing_time"":9650.899999976158},{""page_index"":7,""viewing_time"":2475.5}]","26260.69999998808","","","","","","","","","","",""
"","image-keyboard-response","2","35004","0.0-2.0","3PXX5PX6LYK8ZRI3OXY0YFX73JOBAR","A2UKIUS36QADNI","37SDSEDIN9ORHL92Y0GV7TIFJ2X187","","1426.800000011921","img/flower2.png","74","1428.699999988079","1","0","1","2","1,0,0,1,1,0,1,0,1","0,0,1,1,0,1,0,1,1","2",""
"","html-keyboard-response","3","35306","0.0-3.0","3PXX5PX6LYK8ZRI3OXY0YFX73JOBAR","A2UKIUS36QADNI","37SDSEDIN9ORHL92Y0GV7TIFJ2X187","","null","<img src=""img/flower2.png"" style=""width:200px;border:14px solid red;"">","null","","","","","","","","",""
"","image-keyboard-response","4","36057","0.0-4.0","3PXX5PX6LYK8ZRI3OXY0YFX73JOBAR","A2UKIUS36QADNI","37SDSEDIN9ORHL92Y0GV7TIFJ2X187","","749.5999999642372","img/flower2.png","74","751.1999999880791","1","0","1","2","1,0,0,1,1,0,1,0,1","0,0,1,1,0,1,0,1,1","2",""
"","html-keyboard-response","5","36360","0.0-5.0","3PXX5PX6LYK8ZRI3OXY0YFX73JOBAR","A2UKIUS36QADNI","37SDSEDIN9ORHL92Y0GV7TIFJ2X187","","null","<img src=""img/flower2.png"" style=""width:200px;border:14px solid red;"">","null","","","","","","","","",""
"","image-keyboard-response","6","36716","0.0-6.0","3PXX5PX6LYK8ZRI3OXY0YFX73JOBAR","A2UKIUS36QADNI","37SDSEDIN9ORHL92Y0GV7TIFJ2X187","","355.2000000476837","img/flower2.png","74","356.10000002384186","1","0","1","2","1,0,0,1,1,0,1,0,1","0,0,1,1,0,1,0,1,1","2",""
"","html-keyboard-response","7","37018","0.0-7.0","3PXX5PX6LYK8ZRI3OXY0YFX73JOBAR","A2UKIUS36QADNI","37SDSEDIN9ORHL92Y0GV7TIFJ2X187","","null","<img src=""img/flower2.png"" style=""width:200px;border:14px solid red;"">","null","","","","","","","","",""
"","image-keyboard-response","8","38398","0.0-8.0","3PXX5PX6LYK8ZRI3OXY0YFX73JOBAR","A2UKIUS36QADNI","37SDSEDIN9ORHL92Y0GV7TIFJ2X187","","1377.6000000238419","img/flower5.png","74","1379.3999999761581","1","1","2","2","1,0,0,1,1,0,1,0,1","0,0,1,1,0,1,0,1,1","2",""
"","html-keyboard-response","9","38700","0.0-9.0","3PXX5PX6LYK8ZRI3OXY0YFX73JOBAR","A2UKIUS36QADNI","37SDSEDIN9ORHL92Y0GV7TIFJ2X187","","null","<img src=""img/flower5.png"" style=""width:200px; border:14px solid green;"">","null","","","","","","","","",""
"","image-keyboard-response","10","39741","0.0-10.0","3PXX5PX6LYK8ZRI3OXY0YFX73JOBAR","A2UKIUS36QADNI","37SDSEDIN9ORHL92Y0GV7TIFJ2X187","","1039.5","img/flower3.png","76","1040.0999999642372","3","1","3","2","1,0,0,1,1,0,1,0,1","0,0,1,1,0,1,0,1,1","2",""
"","html-keyboard-response","11","40042","0.0-11.0","3PXX5PX6LYK8ZRI3OXY0YFX73JOBAR","A2UKIUS36QADNI","37SDSEDIN9ORHL92Y0GV7TIFJ2X187","","null","<img src=""img/flower3.png"" style=""width:200px; border:14px solid green;"">","null","","","","","","","","",""
"","image-keyboard-response","12","40827","0.0-12.0","3PXX5PX6LYK8ZRI3OXY0YFX73JOBAR","A2UKIUS36QADNI","37SDSEDIN9ORHL92Y0GV7TIFJ2X187","","784","img/flower2.png","75","784.9000000357628","2","0","1","2","1,0,0,1,1,0,1,0,1","0,0,1,1,0,1,0,1,1","2",""
"","html-keyboard-response","13","41130","0.0-13.0","3PXX5PX6LYK8ZRI3OXY0YFX73JOBAR","A2UKIUS36QADNI","37SDSEDIN9ORHL92Y0GV7TIFJ2X187","","null","<img src=""img/flower2.png"" style=""width:200px;border:14px solid red;"">","null","","","","","","","","",""
"","image-keyboard-response","14","41310","0.0-14.0","3PXX5PX6LYK8ZRI3OXY0YFX73JOBAR","A2UKIUS36QADNI","37SDSEDIN9ORHL92Y0GV7TIFJ2X187","","177.79999995231628","img/flower3.png","75","179.19999998807907","2","1","3","2","1,0,0,1,1,0,1,0,1","0,0,1,1,0,1,0,1,1","2",""
"","html-keyboard-response","15","41611","0.0-15.0","3PXX5PX6LYK8ZRI3OXY0YFX73JOBAR","A2UKIUS36QADNI","37SDSEDIN9ORHL92Y0GV7TIFJ2X187","","null","<img src=""img/flower3.png"" style=""width:200px; border:14px solid green;"">","null","","","","","","","","",""
"","image-keyboard-response","16","42438","0.0-16.0","3PXX5PX6LYK8ZRI3OXY0YFX73JOBAR","A2UKIUS36QADNI","37SDSEDIN9ORHL92Y0GV7TIFJ2X187","","826.1999999880791","img/flower3.png","75","826.8999999761581","2","1","3","2","1,0,0,1,1,0,1,0,1","0,0,1,1,0,1,0,1,1","2",""
"","html-keyboard-response","17","42740","0.0-17.0","3PXX5PX6LYK8ZRI3OXY0YFX73JOBAR","A2UKIUS36QADNI","37SDSEDIN9ORHL92Y0GV7TIFJ2X187","","null","<img src=""img/flower3.png"" style=""width:200px; border:14px solid green;"">","null","","","","","","","","",""
"","image-keyboard-response","18","44237","0.0-18.0","3PXX5PX6LYK8ZRI3OXY0YFX73JOBAR","A2UKIUS36QADNI","37SDSEDIN9ORHL92Y0GV7TIFJ2X187","","1496.800000011921","img/flower5.png","74","1497.3999999761581","1","1","2","2","1,0,0,1,1,0,1,0,1","0,0,1,1,0,1,0,1,1","2",""
"","html-keyboard-response","19","44539","0.0-19.0","3PXX5PX6LYK8ZRI3OXY0YFX73JOBAR","A2UKIUS36QADNI","37SDSEDIN9ORHL92Y0GV7TIFJ2X187","","null","<img src=""img/flower5.png"" style=""width:200px; border:14px solid green;"">","null","","","","","","","","",""
"","image-keyboard-response","20","45699","0.0-20.0","3PXX5PX6LYK8ZRI3OXY0YFX73JOBAR","A2UKIUS36QADNI","37SDSEDIN9ORHL92Y0GV7TIFJ2X187","","1158.7000000476837","img/flower3.png","75","1159.800000011921","2","1","3","2","1,0,0,1,1,0,1,0,1","0,0,1,1,0,1,0,1,1","2",""
"","html-keyboard-response","21","46002","0.0-21.0","3PXX5PX6LYK8ZRI3OXY0YFX73JOBAR","A2UKIUS36QADNI","37SDSEDIN9ORHL92Y0GV7TIFJ2X187","","null","<img src=""img/flower3.png"" style=""width:200px; border:14px solid green;"">","null","","","","","","","","",""
"","image-keyboard-response","22","46535","0.0-22.0","3PXX5PX6LYK8ZRI3OXY0YFX73JOBAR","A2UKIUS36QADNI","37SDSEDIN9ORHL92Y0GV7TIFJ2X187","","530.8999999761581","img/flower2.png","76","532.5","3","1","1","2","1,0,0,1,1,0,1,0,1","0,0,1,1,0,1,0,1,1","2",""
"","html-keyboard-response","23","46837","0.0-23.0","3PXX5PX6LYK8ZRI3OXY0YFX73JOBAR","A2UKIUS36QADNI","37SDSEDIN9ORHL92Y0GV7TIFJ2X187","","null","<img src=""img/flower2.png"" style=""width:200px; border:14px solid green;"">","null","","","","","","","","",""
"","image-keyboard-response","24","47936","0.0-24.0","3PXX5PX6LYK8ZRI3OXY0YFX73JOBAR","A2UKIUS36QADNI","37SDSEDIN9ORHL92Y0GV7TIFJ2X187","","1098.300000011921","img/flower5.png","74","1099.199999988079","1","1","2","2","1,0,0,1,1,0,1,0,1","0,0,1,1,0,1,0,1,1","2",""
"","html-keyboard-response","25","48238","0.0-25.0","3PXX5PX6LYK8ZRI3OXY0YFX73JOBAR","A2UKIUS36QADNI","37SDSEDIN9ORHL92Y0GV7TIFJ2X187","","null","<img src=""img/flower5.png"" style=""width:200px; border:14px solid green;"">","null","","","","","","","","",""
"","image-keyboard-response","26","49364","0.0-26.0","3PXX5PX6LYK8ZRI3OXY0YFX73JOBAR","A2UKIUS36QADNI","37SDSEDIN9ORHL92Y0GV7TIFJ2X187","","1124.8999999761581","img/flower2.png","76","1125.5","3","1","1","2","1,0,0,1,1,0,1,0,1","0,0,1,1,0,1,0,1,1","2",""
"","html-keyboard-response","27","49666","0.0-27.0","3PXX5PX6LYK8ZRI3OXY0YFX73JOBAR","A2UKIUS36QADNI","37SDSEDIN9ORHL92Y0GV7TIFJ2X187","","null","<img src=""img/flower2.png"" style=""width:200px; border:14px solid green;"">","null","","","","","","","","",""
"","image-keyboard-response","28","50695","0.0-28.0","3PXX5PX6LYK8ZRI3OXY0YFX73JOBAR","A2UKIUS36QADNI","37SDSEDIN9ORHL92Y0GV7TIFJ2X187","","1028.9000000357628","img/flower5.png","74","1029.3999999761581","1","1","2","2","1,0,0,1,1,0,1,0,1","0,0,1,1,0,1,0,1,1","2",""
"","html-keyboard-response","29","50996","0.0-29.0","3PXX5PX6LYK8ZRI3OXY0YFX73JOBAR","A2UKIUS36QADNI","37SDSEDIN9ORHL92Y0GV7TIFJ2X187","","null","<img src=""img/flower5.png"" style=""width:200px; border:14px solid green;"">","null","","","","","","","","",""
"","image-keyboard-response","30","51776","0.0-30.0","3PXX5PX6LYK8ZRI3OXY0YFX73JOBAR","A2UKIUS36QADNI","37SDSEDIN9ORHL92Y0GV7TIFJ2X187","","777.7999999523163","img/flower3.png","75","779.1000000238419","2","1","3","2","1,0,0,1,1,0,1,0,1","0,0,1,1,0,1,0,1,1","2",""
"","html-keyboard-response","31","52078","0.0-31.0","3PXX5PX6LYK8ZRI3OXY0YFX73JOBAR","A2UKIUS36QADNI","37SDSEDIN9ORHL92Y0GV7TIFJ2X187","","null","<img src=""img/flower3.png"" style=""width:200px; border:14px solid green;"">","null","","","","","","","","",""
"","image-keyboard-response","32","53110","0.0-32.0","3PXX5PX6LYK8ZRI3OXY0YFX73JOBAR","A2UKIUS36QADNI","37SDSEDIN9ORHL92Y0GV7TIFJ2X187","","1030.4000000357628","img/flower2.png","76","1031.699999988079","3","1","1","2","1,0,0,1,1,0,1,0,1","0,0,1,1,0,1,0,1,1","2",""
"","html-keyboard-response","33","53412","0.0-33.0","3PXX5PX6LYK8ZRI3OXY0YFX73JOBAR","A2UKIUS36QADNI","37SDSEDIN9ORHL92Y0GV7TIFJ2X187","","null","<img src=""img/flower2.png"" style=""width:200px; border:14px solid green;"">","null","","","","","","","","",""
"","image-keyboard-response","34","54311","0.0-34.0","3PXX5PX6LYK8ZRI3OXY0YFX73JOBAR","A2UKIUS36QADNI","37SDSEDIN9ORHL92Y0GV7TIFJ2X187","","897.1999999880791","img/flower5.png","74","898.3999999761581","1","1","2","2","1,0,0,1,1,0,1,0,1","0,0,1,1,0,1,0,1,1","2",""
"","html-keyboard-response","35","54613","0.0-35.0","3PXX5PX6LYK8ZRI3OXY0YFX73JOBAR","A2UKIUS36QADNI","37SDSEDIN9ORHL92Y0GV7TIFJ2X187","","null","<img src=""img/flower5.png"" style=""width:200px; border:14px solid green;"">","null","","","","","","","","",""
"","image-keyboard-response","36","55175","0.0-36.0","3PXX5PX6LYK8ZRI3OXY0YFX73JOBAR","A2UKIUS36QADNI","37SDSEDIN9ORHL92Y0GV7TIFJ2X187","","561.1999999880791","img/flower5.png","74","562.1000000238419","1","1","2","2","1,0,0,1,1,0,1,0,1","0,0,1,1,0,1,0,1,1","2",""
"","html-keyboard-response","37","55477","0.0-37.0","3PXX5PX6LYK8ZRI3OXY0YFX73JOBAR","A2UKIUS36QADNI","37SDSEDIN9ORHL92Y0GV7TIFJ2X187","","null","<img src=""img/flower5.png"" style=""width:200px; border:14px solid green;"">","null","","","","","","","","",""
"","image-keyboard-response","38","56506","0.0-38.0","3PXX5PX6LYK8ZRI3OXY0YFX73JOBAR","A2UKIUS36QADNI","37SDSEDIN9ORHL92Y0GV7TIFJ2X187","","1028.4000000357628","img/flower3.png","75","1029.300000011921","2","1","3","2","1,0,0,1,1,0,1,0,1","0,0,1,1,0,1,0,1,1","2",""
"","html-keyboard-response","39","56808","0.0-39.0","3PXX5PX6LYK8ZRI3OXY0YFX73JOBAR","A2UKIUS36QADNI","37SDSEDIN9ORHL92Y0GV7TIFJ2X187","","null","<img src=""img/flower3.png"" style=""width:200px; border:14px solid green;"">","null","","","","","","","","",""
"","image-keyboard-response","40","57413","0.0-40.0","3PXX5PX6LYK8ZRI3OXY0YFX73JOBAR","A2UKIUS36QADNI","37SDSEDIN9ORHL92Y0GV7TIFJ2X187","","603.3000000119209","img/flower2.png","76","604.3000000119209","3","1","1","2","1,0,0,1,1,0,1,0,1","0,0,1,1,0,1,0,1,1","2",""
"","html-keyboard-response","41","57715","0.0-41.0","3PXX5PX6LYK8ZRI3OXY0YFX73JOBAR","A2UKIUS36QADNI","37SDSEDIN9ORHL92Y0GV7TIFJ2X187","","null","<img src=""img/flower2.png"" style=""width:200px; border:14px solid green;"">","null","","","","","","","","",""
"","image-keyboard-response","42","58671","0.0-42.0","3PXX5PX6LYK8ZRI3OXY0YFX73JOBAR","A2UKIUS36QADNI","37SDSEDIN9ORHL92Y0GV7TIFJ2X187","","954","img/flower3.png","75","955.5","2","1","3","2","1,0,0,1,1,0,1,0,1","0,0,1,1,0,1,0,1,1","2",""
"","html-keyboard-response","43","58973","0.0-43.0","3PXX5PX6LYK8ZRI3OXY0YFX73JOBAR","A2UKIUS36QADNI","37SDSEDIN9ORHL92Y0GV7TIFJ2X187","","null","<img src=""img/flower3.png"" style=""width:200px; border:14px solid green;"">","null","","","","","","","","",""
"","image-keyboard-response","44","59604","0.0-44.0","3PXX5PX6LYK8ZRI3OXY0YFX73JOBAR","A2UKIUS36QADNI","37SDSEDIN9ORHL92Y0GV7TIFJ2X187","","630.6000000238419","img/flower3.png","75","631.1999999880791","2","1","3","2","1,0,0,1,1,0,1,0,1","0,0,1,1,0,1,0,1,1","2",""
"","html-keyboard-response","45","59905","0.0-45.0","3PXX5PX6LYK8ZRI3OXY0YFX73JOBAR","A2UKIUS36QADNI","37SDSEDIN9ORHL92Y0GV7TIFJ2X187","","null","<img src=""img/flower3.png"" style=""width:200px; border:14px solid green;"">","null","","","","","","","","",""
"","image-keyboard-response","46","60628","0.0-46.0","3PXX5PX6LYK8ZRI3OXY0YFX73JOBAR","A2UKIUS36QADNI","37SDSEDIN9ORHL92Y0GV7TIFJ2X187","","722.3000000119209","img/flower5.png","74","723","1","1","2","2","1,0,0,1,1,0,1,0,1","0,0,1,1,0,1,0,1,1","2",""
"","html-keyboard-response","47","60930","0.0-47.0","3PXX5PX6LYK8ZRI3OXY0YFX73JOBAR","A2UKIUS36QADNI","37SDSEDIN9ORHL92Y0GV7TIFJ2X187","","null","<img src=""img/flower5.png"" style=""width:200px; border:14px solid green;"">","null","","","","","","","","",""
"","image-keyboard-response","48","61452","0.0-48.0","3PXX5PX6LYK8ZRI3OXY0YFX73JOBAR","A2UKIUS36QADNI","37SDSEDIN9ORHL92Y0GV7TIFJ2X187","","521.1000000238419","img/flower5.png","74","522","1","1","2","2","1,0,0,1,1,0,1,0,1","0,0,1,1,0,1,0,1,1","2",""
"","html-keyboard-response","49","61754","0.0-49.0","3PXX5PX6LYK8ZRI3OXY0YFX73JOBAR","A2UKIUS36QADNI","37SDSEDIN9ORHL92Y0GV7TIFJ2X187","","null","<img src=""img/flower5.png"" style=""width:200px; border:14px solid green;"">","null","","","","","","","","",""
"","image-keyboard-response","50","62603","0.0-50.0","3PXX5PX6LYK8ZRI3OXY0YFX73JOBAR","A2UKIUS36QADNI","37SDSEDIN9ORHL92Y0GV7TIFJ2X187","","847.6999999880791","img/flower2.png","76","848.7000000476837","3","1","1","2","1,0,0,1,1,0,1,0,1","0,0,1,1,0,1,0,1,1","2",""
"","html-keyboard-response","51","62910","0.0-51.0","3PXX5PX6LYK8ZRI3OXY0YFX73JOBAR","A2UKIUS36QADNI","37SDSEDIN9ORHL92Y0GV7TIFJ2X187","","null","<img src=""img/flower2.png"" style=""width:200px; border:14px solid green;"">","null","","","","","","","","",""
"","image-keyboard-response","52","63938","0.0-52.0","3PXX5PX6LYK8ZRI3OXY0YFX73JOBAR","A2UKIUS36QADNI","37SDSEDIN9ORHL92Y0GV7TIFJ2X187","","1027.6000000238419","img/flower3.png","75","1028.2999999523163","2","1","3","2","1,0,0,1,1,0,1,0,1","0,0,1,1,0,1,0,1,1","2",""
"","html-keyboard-response","53","64239","0.0-53.0","3PXX5PX6LYK8ZRI3OXY0YFX73JOBAR","A2UKIUS36QADNI","37SDSEDIN9ORHL92Y0GV7TIFJ2X187","","null","<img src=""img/flower3.png"" style=""width:200px; border:14px solid green;"">","null","","","","","","","","",""
"","image-keyboard-response","54","64817","0.0-54.0","3PXX5PX6LYK8ZRI3OXY0YFX73JOBAR","A2UKIUS36QADNI","37SDSEDIN9ORHL92Y0GV7TIFJ2X187","","576.1999999880791","img/flower3.png","75","577.0999999642372","2","1","3","2","1,0,0,1,1,0,1,0,1","0,0,1,1,0,1,0,1,1","2",""
"","html-keyboard-response","55","65118","0.0-55.0","3PXX5PX6LYK8ZRI3OXY0YFX73JOBAR","A2UKIUS36QADNI","37SDSEDIN9ORHL92Y0GV7TIFJ2X187","","null","<img src=""img/flower3.png"" style=""width:200px; border:14px solid green;"">","null","","","","","","","","",""
"","image-keyboard-response","56","65870","0.0-56.0","3PXX5PX6LYK8ZRI3OXY0YFX73JOBAR","A2UKIUS36QADNI","37SDSEDIN9ORHL92Y0GV7TIFJ2X187","","750.6999999880791","img/flower3.png","75","751.3000000119209","2","1","3","2","1,0,0,1,1,0,1,0,1","0,0,1,1,0,1,0,1,1","2",""
"","html-keyboard-response","57","66171","0.0-57.0","3PXX5PX6LYK8ZRI3OXY0YFX73JOBAR","A2UKIUS36QADNI","37SDSEDIN9ORHL92Y0GV7TIFJ2X187","","null","<img src=""img/flower3.png"" style=""width:200px; border:14px solid green;"">","null","","","","","","","","",""
"","image-keyboard-response","58","66703","0.0-58.0","3PXX5PX6LYK8ZRI3OXY0YFX73JOBAR","A2UKIUS36QADNI","37SDSEDIN9ORHL92Y0GV7TIFJ2X187","","531.1000000238419","img/flower3.png","75","532.1999999880791","2","1","3","2","1,0,0,1,1,0,1,0,1","0,0,1,1,0,1,0,1,1","2",""
"","html-keyboard-response","59","67005","0.0-59.0","3PXX5PX6LYK8ZRI3OXY0YFX73JOBAR","A2UKIUS36QADNI","37SDSEDIN9ORHL92Y0GV7TIFJ2X187","","null","<img src=""img/flower3.png"" style=""width:200px; border:14px solid green;"">","null","","","","","","","","",""
"","image-keyboard-response","60","67712","0.0-60.0","3PXX5PX6LYK8ZRI3OXY0YFX73JOBAR","A2UKIUS36QADNI","37SDSEDIN9ORHL92Y0GV7TIFJ2X187","","706.3000000119209","img/flower2.png","76","706.8999999761581","3","1","1","2","1,0,0,1,1,0,1,0,1","0,0,1,1,0,1,0,1,1","2",""
"","html-keyboard-response","61","68013","0.0-61.0","3PXX5PX6LYK8ZRI3OXY0YFX73JOBAR","A2UKIUS36QADNI","37SDSEDIN9ORHL92Y0GV7TIFJ2X187","","null","<img src=""img/flower2.png"" style=""width:200px; border:14px solid green;"">","null","","","","","","","","",""
"","image-keyboard-response","62","68877","0.0-62.0","3PXX5PX6LYK8ZRI3OXY0YFX73JOBAR","A2UKIUS36QADNI","37SDSEDIN9ORHL92Y0GV7TIFJ2X187","","862.1000000238419","img/flower3.png","75","863.5","2","1","3","2","1,0,0,1,1,0,1,0,1","0,0,1,1,0,1,0,1,1","2",""
"","html-keyboard-response","63","69179","0.0-63.0","3PXX5PX6LYK8ZRI3OXY0YFX73JOBAR","A2UKIUS36QADNI","37SDSEDIN9ORHL92Y0GV7TIFJ2X187","","null","<img src=""img/flower3.png"" style=""width:200px; border:14px solid green;"">","null","","","","","","","","",""
"","image-keyboard-response","64","69625","0.0-64.0","3PXX5PX6LYK8ZRI3OXY0YFX73JOBAR","A2UKIUS36QADNI","37SDSEDIN9ORHL92Y0GV7TIFJ2X187","","446","img/flower3.png","75","446.30000001192093","2","1","3","2","1,0,0,1,1,0,1,0,1","0,0,1,1,0,1,0,1,1","2",""
"","html-keyboard-response","65","69928","0.0-65.0","3PXX5PX6LYK8ZRI3OXY0YFX73JOBAR","A2UKIUS36QADNI","37SDSEDIN9ORHL92Y0GV7TIFJ2X187","","null","<img src=""img/flower3.png"" style=""width:200px; border:14px solid green;"">","null","","","","","","","","",""
"","image-keyboard-response","66","70443","0.0-66.0","3PXX5PX6LYK8ZRI3OXY0YFX73JOBAR","A2UKIUS36QADNI","37SDSEDIN9ORHL92Y0GV7TIFJ2X187","","514.4000000357628","img/flower3.png","75","515.6999999880791","2","1","3","2","1,0,0,1,1,0,1,0,1","0,0,1,1,0,1,0,1,1","2",""
"","html-keyboard-response","67","70753","0.0-67.0","3PXX5PX6LYK8ZRI3OXY0YFX73JOBAR","A2UKIUS36QADNI","37SDSEDIN9ORHL92Y0GV7TIFJ2X187","","null","<img src=""img/flower3.png"" style=""width:200px; border:14px solid green;"">","null","","","","","","","","",""
"","image-keyboard-response","68","71548","0.0-68.0","3PXX5PX6LYK8ZRI3OXY0YFX73JOBAR","A2UKIUS36QADNI","37SDSEDIN9ORHL92Y0GV7TIFJ2X187","","794.1999999880791","img/flower5.png","74","795.1000000238419","1","1","2","2","1,0,0,1,1,0,1,0,1","0,0,1,1,0,1,0,1,1","2",""
"","html-keyboard-response","69","71850","0.0-69.0","3PXX5PX6LYK8ZRI3OXY0YFX73JOBAR","A2UKIUS36QADNI","37SDSEDIN9ORHL92Y0GV7TIFJ2X187","","null","<img src=""img/flower5.png"" style=""width:200px; border:14px solid green;"">","null","","","","","","","","",""
"","image-keyboard-response","70","72480","0.0-70.0","3PXX5PX6LYK8ZRI3OXY0YFX73JOBAR","A2UKIUS36QADNI","37SDSEDIN9ORHL92Y0GV7TIFJ2X187","","629","img/flower2.png","76","630","3","1","1","2","1,0,0,1,1,0,1,0,1","0,0,1,1,0,1,0,1,1","2",""
"","html-keyboard-response","71","72783","0.0-71.0","3PXX5PX6LYK8ZRI3OXY0YFX73JOBAR","A2UKIUS36QADNI","37SDSEDIN9ORHL92Y0GV7TIFJ2X187","","null","<img src=""img/flower2.png"" style=""width:200px; border:14px solid green;"">","null","","","","","","","","",""
"","image-keyboard-response","72","73232","0.0-72.0","3PXX5PX6LYK8ZRI3OXY0YFX73JOBAR","A2UKIUS36QADNI","37SDSEDIN9ORHL92Y0GV7TIFJ2X187","","448.19999998807907","img/flower2.png","76","449.5999999642372","3","1","1","2","1,0,0,1,1,0,1,0,1","0,0,1,1,0,1,0,1,1","2",""
"","html-keyboard-response","73","73547","0.0-73.0","3PXX5PX6LYK8ZRI3OXY0YFX73JOBAR","A2UKIUS36QADNI","37SDSEDIN9ORHL92Y0GV7TIFJ2X187","","null","<img src=""img/flower2.png"" style=""width:200px; border:14px solid green;"">","null","","","","","","","","",""
"","image-keyboard-response","74","74315","0.0-74.0","3PXX5PX6LYK8ZRI3OXY0YFX73JOBAR","A2UKIUS36QADNI","37SDSEDIN9ORHL92Y0GV7TIFJ2X187","","766.2999999523163","img/flower3.png","75","767.2000000476837","2","1","3","2","1,0,0,1,1,0,1,0,1","0,0,1,1,0,1,0,1,1","2",""
"","html-keyboard-response","75","74617","0.0-75.0","3PXX5PX6LYK8ZRI3OXY0YFX73JOBAR","A2UKIUS36QADNI","37SDSEDIN9ORHL92Y0GV7TIFJ2X187","","null","<img src=""img/flower3.png"" style=""width:200px; border:14px solid green;"">","null","","","","","","","","",""
"","image-keyboard-response","76","75559","0.0-76.0","3PXX5PX6LYK8ZRI3OXY0YFX73JOBAR","A2UKIUS36QADNI","37SDSEDIN9ORHL92Y0GV7TIFJ2X187","","941.5999999642372","img/flower5.png","74","942.1999999880791","1","1","2","2","1,0,0,1,1,0,1,0,1","0,0,1,1,0,1,0,1,1","2",""
"","html-keyboard-response","77","75861","0.0-77.0","3PXX5PX6LYK8ZRI3OXY0YFX73JOBAR","A2UKIUS36QADNI","37SDSEDIN9ORHL92Y0GV7TIFJ2X187","","null","<img src=""img/flower5.png"" style=""width:200px; border:14px solid green;"">","null","","","","","","","","",""
"","image-keyboard-response","78","77863","0.0-78.0","3PXX5PX6LYK8ZRI3OXY0YFX73JOBAR","A2UKIUS36QADNI","37SDSEDIN9ORHL92Y0GV7TIFJ2X187","","","img/flower2.png","","2001.199999988079","-1","0","1","2","1,0,0,1,1,0,1,0,1","0,0,1,1,0,1,0,1,1","2",""
"","html-keyboard-response","79","78165","0.0-79.0","3PXX5PX6LYK8ZRI3OXY0YFX73JOBAR","A2UKIUS36QADNI","37SDSEDIN9ORHL92Y0GV7TIFJ2X187","","null","<img src=""img/flower2.png"" style=""width:200px;border:14px solid red;"">","null","","","","","","","","",""
"","image-keyboard-response","80","79496","0.0-80.0","3PXX5PX6LYK8ZRI3OXY0YFX73JOBAR","A2UKIUS36QADNI","37SDSEDIN9ORHL92Y0GV7TIFJ2X187","","1330.5","img/flower5.png","74","1331.300000011921","1","1","2","2","1,0,0,1,1,0,1,0,1","0,0,1,1,0,1,0,1,1","2",""
"","html-keyboard-response","81","79798","0.0-81.0","3PXX5PX6LYK8ZRI3OXY0YFX73JOBAR","A2UKIUS36QADNI","37SDSEDIN9ORHL92Y0GV7TIFJ2X187","","null","<img src=""img/flower5.png"" style=""width:200px; border:14px solid green;"">","null","","","","","","","","",""
"","image-keyboard-response","82","80141","0.0-82.0","3PXX5PX6LYK8ZRI3OXY0YFX73JOBAR","A2UKIUS36QADNI","37SDSEDIN9ORHL92Y0GV7TIFJ2X187","","342.2999999523163","img/flower5.png","74","343.19999998807907","1","1","2","2","1,0,0,1,1,0,1,0,1","0,0,1,1,0,1,0,1,1","2",""
"","html-keyboard-response","83","80443","0.0-83.0","3PXX5PX6LYK8ZRI3OXY0YFX73JOBAR","A2UKIUS36QADNI","37SDSEDIN9ORHL92Y0GV7TIFJ2X187","","null","<img src=""img/flower5.png"" style=""width:200px; border:14px solid green;"">","null","","","","","","","","",""
"","image-keyboard-response","84","81684","0.0-84.0","3PXX5PX6LYK8ZRI3OXY0YFX73JOBAR","A2UKIUS36QADNI","37SDSEDIN9ORHL92Y0GV7TIFJ2X187","","1240.3999999761581","img/flower2.png","76","1241","3","1","1","2","1,0,0,1,1,0,1,0,1","0,0,1,1,0,1,0,1,1","2",""
"","html-keyboard-response","85","81986","0.0-85.0","3PXX5PX6LYK8ZRI3OXY0YFX73JOBAR","A2UKIUS36QADNI","37SDSEDIN9ORHL92Y0GV7TIFJ2X187","","null","<img src=""img/flower2.png"" style=""width:200px; border:14px solid green;"">","null","","","","","","","","",""
"","image-keyboard-response","86","83813","0.0-86.0","3PXX5PX6LYK8ZRI3OXY0YFX73JOBAR","A2UKIUS36QADNI","37SDSEDIN9ORHL92Y0GV7TIFJ2X187","","1826.4000000357628","img/flower5.png","74","1827.199999988079","1","1","2","2","1,0,0,1,1,0,1,0,1","0,0,1,1,0,1,0,1,1","2",""
"","html-keyboard-response","87","84115","0.0-87.0","3PXX5PX6LYK8ZRI3OXY0YFX73JOBAR","A2UKIUS36QADNI","37SDSEDIN9ORHL92Y0GV7TIFJ2X187","","null","<img src=""img/flower5.png"" style=""width:200px; border:14px solid green;"">","null","","","","","","","","",""
"","image-keyboard-response","88","84737","0.0-88.0","3PXX5PX6LYK8ZRI3OXY0YFX73JOBAR","A2UKIUS36QADNI","37SDSEDIN9ORHL92Y0GV7TIFJ2X187","","620.8999999761581","img/flower3.png","75","622.3000000119209","2","1","3","2","1,0,0,1,1,0,1,0,1","0,0,1,1,0,1,0,1,1","2",""
"","html-keyboard-response","89","85040","0.0-89.0","3PXX5PX6LYK8ZRI3OXY0YFX73JOBAR","A2UKIUS36QADNI","37SDSEDIN9ORHL92Y0GV7TIFJ2X187","","null","<img src=""img/flower3.png"" style=""width:200px; border:14px solid green;"">","null","","","","","","","","",""
"","image-keyboard-response","90","85880","0.0-90.0","3PXX5PX6LYK8ZRI3OXY0YFX73JOBAR","A2UKIUS36QADNI","37SDSEDIN9ORHL92Y0GV7TIFJ2X187","","838.8999999761581","img/flower2.png","76","839.8999999761581","3","1","1","2","1,0,0,1,1,0,1,0,1","0,0,1,1,0,1,0,1,1","2",""
"","html-keyboard-response","91","86183","0.0-91.0","3PXX5PX6LYK8ZRI3OXY0YFX73JOBAR","A2UKIUS36QADNI","37SDSEDIN9ORHL92Y0GV7TIFJ2X187","","null","<img src=""img/flower2.png"" style=""width:200px; border:14px solid green;"">","null","","","","","","","","",""
"","image-keyboard-response","92","87017","0.0-92.0","3PXX5PX6LYK8ZRI3OXY0YFX73JOBAR","A2UKIUS36QADNI","37SDSEDIN9ORHL92Y0GV7TIFJ2X187","","832.8999999761581","img/flower5.png","74","833.8999999761581","1","1","2","2","1,0,0,1,1,0,1,0,1","0,0,1,1,0,1,0,1,1","2",""
"","html-keyboard-response","93","87319","0.0-93.0","3PXX5PX6LYK8ZRI3OXY0YFX73JOBAR","A2UKIUS36QADNI","37SDSEDIN9ORHL92Y0GV7TIFJ2X187","","null","<img src=""img/flower5.png"" style=""width:200px; border:14px solid green;"">","null","","","","","","","","",""
"","image-keyboard-response","94","87866","0.0-94.0","3PXX5PX6LYK8ZRI3OXY0YFX73JOBAR","A2UKIUS36QADNI","37SDSEDIN9ORHL92Y0GV7TIFJ2X187","","545.4000000357628","img/flower3.png","75","546.0999999642372","2","1","3","2","1,0,0,1,1,0,1,0,1","0,0,1,1,0,1,0,1,1","2",""
"","html-keyboard-response","95","88168","0.0-95.0","3PXX5PX6LYK8ZRI3OXY0YFX73JOBAR","A2UKIUS36QADNI","37SDSEDIN9ORHL92Y0GV7TIFJ2X187","","null","<img src=""img/flower3.png"" style=""width:200px; border:14px solid green;"">","null","","","","","","","","",""
"","image-keyboard-response","96","88810","0.0-96.0","3PXX5PX6LYK8ZRI3OXY0YFX73JOBAR","A2UKIUS36QADNI","37SDSEDIN9ORHL92Y0GV7TIFJ2X187","","640.6999999880791","img/flower3.png","75","642","2","1","3","2","1,0,0,1,1,0,1,0,1","0,0,1,1,0,1,0,1,1","2",""
"","html-keyboard-response","97","89112","0.0-97.0","3PXX5PX6LYK8ZRI3OXY0YFX73JOBAR","A2UKIUS36QADNI","37SDSEDIN9ORHL92Y0GV7TIFJ2X187","","null","<img src=""img/flower3.png"" style=""width:200px; border:14px solid green;"">","null","","","","","","","","",""
"","image-keyboard-response","98","89877","0.0-98.0","3PXX5PX6LYK8ZRI3OXY0YFX73JOBAR","A2UKIUS36QADNI","37SDSEDIN9ORHL92Y0GV7TIFJ2X187","","764.3999999761581","img/flower5.png","74","765.3999999761581","1","1","2","2","1,0,0,1,1,0,1,0,1","0,0,1,1,0,1,0,1,1","2",""
"","html-keyboard-response","99","90180","0.0-99.0","3PXX5PX6LYK8ZRI3OXY0YFX73JOBAR","A2UKIUS36QADNI","37SDSEDIN9ORHL92Y0GV7TIFJ2X187","","null","<img src=""img/flower5.png"" style=""width:200px; border:14px solid green;"">","null","","","","","","","","",""
"","image-keyboard-response","100","90793","0.0-100.0","3PXX5PX6LYK8ZRI3OXY0YFX73JOBAR","A2UKIUS36QADNI","37SDSEDIN9ORHL92Y0GV7TIFJ2X187","","611.6999999880791","img/flower5.png","74","612.6999999880791","1","1","2","2","1,0,0,1,1,0,1,0,1","0,0,1,1,0,1,0,1,1","2",""
"","html-keyboard-response","101","91097","0.0-101.0","3PXX5PX6LYK8ZRI3OXY0YFX73JOBAR","A2UKIUS36QADNI","37SDSEDIN9ORHL92Y0GV7TIFJ2X187","","null","<img src=""img/flower5.png"" style=""width:200px; border:14px solid green;"">","null","","","","","","","","",""
"","image-keyboard-response","102","91690","0.0-102.0","3PXX5PX6LYK8ZRI3OXY0YFX73JOBAR","A2UKIUS36QADNI","37SDSEDIN9ORHL92Y0GV7TIFJ2X187","","592.3000000119209","img/flower2.png","76","593.3999999761581","3","1","1","2","1,0,0,1,1,0,1,0,1","0,0,1,1,0,1,0,1,1","2",""
"","html-keyboard-response","103","91992","0.0-103.0","3PXX5PX6LYK8ZRI3OXY0YFX73JOBAR","A2UKIUS36QADNI","37SDSEDIN9ORHL92Y0GV7TIFJ2X187","","null","<img src=""img/flower2.png"" style=""width:200px; border:14px solid green;"">","null","","","","","","","","",""
"","image-keyboard-response","104","92478","0.0-104.0","3PXX5PX6LYK8ZRI3OXY0YFX73JOBAR","A2UKIUS36QADNI","37SDSEDIN9ORHL92Y0GV7TIFJ2X187","","484.30000001192093","img/flower2.png","76","485.30000001192093","3","1","1","2","1,0,0,1,1,0,1,0,1","0,0,1,1,0,1,0,1,1","2",""
"","html-keyboard-response","105","92779","0.0-105.0","3PXX5PX6LYK8ZRI3OXY0YFX73JOBAR","A2UKIUS36QADNI","37SDSEDIN9ORHL92Y0GV7TIFJ2X187","","null","<img src=""img/flower2.png"" style=""width:200px; border:14px solid green;"">","null","","","","","","","","",""
"","image-keyboard-response","106","93283","0.0-106.0","3PXX5PX6LYK8ZRI3OXY0YFX73JOBAR","A2UKIUS36QADNI","37SDSEDIN9ORHL92Y0GV7TIFJ2X187","","502.60000002384186","img/flower2.png","76","503.89999997615814","3","1","1","2","1,0,0,1,1,0,1,0,1","0,0,1,1,0,1,0,1,1","2",""
"","html-keyboard-response","107","93585","0.0-107.0","3PXX5PX6LYK8ZRI3OXY0YFX73JOBAR","A2UKIUS36QADNI","37SDSEDIN9ORHL92Y0GV7TIFJ2X187","","null","<img src=""img/flower2.png"" style=""width:200px; border:14px solid green;"">","null","","","","","","","","",""
"","image-keyboard-response","108","94215","0.0-108.0","3PXX5PX6LYK8ZRI3OXY0YFX73JOBAR","A2UKIUS36QADNI","37SDSEDIN9ORHL92Y0GV7TIFJ2X187","","628.5","img/flower5.png","74","629.3999999761581","1","1","2","2","1,0,0,1,1,0,1,0,1","0,0,1,1,0,1,0,1,1","2",""
"","html-keyboard-response","109","94517","0.0-109.0","3PXX5PX6LYK8ZRI3OXY0YFX73JOBAR","A2UKIUS36QADNI","37SDSEDIN9ORHL92Y0GV7TIFJ2X187","","null","<img src=""img/flower5.png"" style=""width:200px; border:14px solid green;"">","null","","","","","","","","",""
"","image-keyboard-response","110","95146","0.0-110.0","3PXX5PX6LYK8ZRI3OXY0YFX73JOBAR","A2UKIUS36QADNI","37SDSEDIN9ORHL92Y0GV7TIFJ2X187","","628","img/flower3.png","75","629.2999999523163","2","1","3","2","1,0,0,1,1,0,1,0,1","0,0,1,1,0,1,0,1,1","2",""
"","html-keyboard-response","111","95449","0.0-111.0","3PXX5PX6LYK8ZRI3OXY0YFX73JOBAR","A2UKIUS36QADNI","37SDSEDIN9ORHL92Y0GV7TIFJ2X187","","null","<img src=""img/flower3.png"" style=""width:200px; border:14px solid green;"">","null","","","","","","","","",""
"","image-keyboard-response","112","96807","0.0-112.0","3PXX5PX6LYK8ZRI3OXY0YFX73JOBAR","A2UKIUS36QADNI","37SDSEDIN9ORHL92Y0GV7TIFJ2X187","","1356.300000011921","img/flower5.png","74","1357.6000000238419","1","1","2","2","1,0,0,1,1,0,1,0,1","0,0,1,1,0,1,0,1,1","2",""
"","html-keyboard-response","113","97108","0.0-113.0","3PXX5PX6LYK8ZRI3OXY0YFX73JOBAR","A2UKIUS36QADNI","37SDSEDIN9ORHL92Y0GV7TIFJ2X187","","null","<img src=""img/flower5.png"" style=""width:200px; border:14px solid green;"">","null","","","","","","","","",""
"","image-keyboard-response","114","97573","0.0-114.0","3PXX5PX6LYK8ZRI3OXY0YFX73JOBAR","A2UKIUS36QADNI","37SDSEDIN9ORHL92Y0GV7TIFJ2X187","","464.10000002384186","img/flower5.png","74","464.9000000357628","1","1","2","2","1,0,0,1,1,0,1,0,1","0,0,1,1,0,1,0,1,1","2",""
"","html-keyboard-response","115","97890","0.0-115.0","3PXX5PX6LYK8ZRI3OXY0YFX73JOBAR","A2UKIUS36QADNI","37SDSEDIN9ORHL92Y0GV7TIFJ2X187","","null","<img src=""img/flower5.png"" style=""width:200px; border:14px solid green;"">","null","","","","","","","","",""
"","image-keyboard-response","116","98563","0.0-116.0","3PXX5PX6LYK8ZRI3OXY0YFX73JOBAR","A2UKIUS36QADNI","37SDSEDIN9ORHL92Y0GV7TIFJ2X187","","672.3000000119209","img/flower2.png","76","673","3","1","1","2","1,0,0,1,1,0,1,0,1","0,0,1,1,0,1,0,1,1","2",""
"","html-keyboard-response","117","98878","0.0-117.0","3PXX5PX6LYK8ZRI3OXY0YFX73JOBAR","A2UKIUS36QADNI","37SDSEDIN9ORHL92Y0GV7TIFJ2X187","","null","<img src=""img/flower2.png"" style=""width:200px; border:14px solid green;"">","null","","","","","","","","",""
"","image-keyboard-response","118","99813","0.0-118.0","3PXX5PX6LYK8ZRI3OXY0YFX73JOBAR","A2UKIUS36QADNI","37SDSEDIN9ORHL92Y0GV7TIFJ2X187","","933.5","img/flower5.png","74","934.3999999761581","1","1","2","2","1,0,0,1,1,0,1,0,1","0,0,1,1,0,1,0,1,1","2",""
"","html-keyboard-response","119","100118","0.0-119.0","3PXX5PX6LYK8ZRI3OXY0YFX73JOBAR","A2UKIUS36QADNI","37SDSEDIN9ORHL92Y0GV7TIFJ2X187","","null","<img src=""img/flower5.png"" style=""width:200px; border:14px solid green;"">","null","","","","","","","","",""
"","image-keyboard-response","120","100669","0.0-120.0","3PXX5PX6LYK8ZRI3OXY0YFX73JOBAR","A2UKIUS36QADNI","37SDSEDIN9ORHL92Y0GV7TIFJ2X187","","550.3999999761581","img/flower3.png","75","551.4000000357628","2","1","3","2","1,0,0,1,1,0,1,0,1","0,0,1,1,0,1,0,1,1","2",""
"","html-keyboard-response","121","100971","0.0-121.0","3PXX5PX6LYK8ZRI3OXY0YFX73JOBAR","A2UKIUS36QADNI","37SDSEDIN9ORHL92Y0GV7TIFJ2X187","","null","<img src=""img/flower3.png"" style=""width:200px; border:14px solid green;"">","null","","","","","","","","",""
"","image-keyboard-response","122","101603","0.0-122.0","3PXX5PX6LYK8ZRI3OXY0YFX73JOBAR","A2UKIUS36QADNI","37SDSEDIN9ORHL92Y0GV7TIFJ2X187","","630.6999999880791","img/flower5.png","74","631.6999999880791","1","1","2","2","1,0,0,1,1,0,1,0,1","0,0,1,1,0,1,0,1,1","2",""
"","html-keyboard-response","123","101905","0.0-123.0","3PXX5PX6LYK8ZRI3OXY0YFX73JOBAR","A2UKIUS36QADNI","37SDSEDIN9ORHL92Y0GV7TIFJ2X187","","null","<img src=""img/flower5.png"" style=""width:200px; border:14px solid green;"">","null","","","","","","","","",""
"","image-keyboard-response","124","102444","0.0-124.0","3PXX5PX6LYK8ZRI3OXY0YFX73JOBAR","A2UKIUS36QADNI","37SDSEDIN9ORHL92Y0GV7TIFJ2X187","","537.5","img/flower3.png","75","538.9000000357628","2","1","3","2","1,0,0,1,1,0,1,0,1","0,0,1,1,0,1,0,1,1","2",""
"","html-keyboard-response","125","102748","0.0-125.0","3PXX5PX6LYK8ZRI3OXY0YFX73JOBAR","A2UKIUS36QADNI","37SDSEDIN9ORHL92Y0GV7TIFJ2X187","","null","<img src=""img/flower3.png"" style=""width:200px; border:14px solid green;"">","null","","","","","","","","",""
"","image-keyboard-response","126","103428","0.0-126.0","3PXX5PX6LYK8ZRI3OXY0YFX73JOBAR","A2UKIUS36QADNI","37SDSEDIN9ORHL92Y0GV7TIFJ2X187","","679.1999999880791","img/flower2.png","76","680.2000000476837","3","1","1","2","1,0,0,1,1,0,1,0,1","0,0,1,1,0,1,0,1,1","2",""
"","html-keyboard-response","127","103731","0.0-127.0","3PXX5PX6LYK8ZRI3OXY0YFX73JOBAR","A2UKIUS36QADNI","37SDSEDIN9ORHL92Y0GV7TIFJ2X187","","null","<img src=""img/flower2.png"" style=""width:200px; border:14px solid green;"">","null","","","","","","","","",""
"","image-keyboard-response","128","104571","0.0-128.0","3PXX5PX6LYK8ZRI3OXY0YFX73JOBAR","A2UKIUS36QADNI","37SDSEDIN9ORHL92Y0GV7TIFJ2X187","","839.6999999880791","img/flower5.png","74","840.2999999523163","1","1","2","2","1,0,0,1,1,0,1,0,1","0,0,1,1,0,1,0,1,1","2",""
"","html-keyboard-response","129","104872","0.0-129.0","3PXX5PX6LYK8ZRI3OXY0YFX73JOBAR","A2UKIUS36QADNI","37SDSEDIN9ORHL92Y0GV7TIFJ2X187","","null","<img src=""img/flower5.png"" style=""width:200px; border:14px solid green;"">","null","","","","","","","","",""
"","image-keyboard-response","130","105520","0.0-130.0","3PXX5PX6LYK8ZRI3OXY0YFX73JOBAR","A2UKIUS36QADNI","37SDSEDIN9ORHL92Y0GV7TIFJ2X187","","646.6999999880791","img/flower3.png","75","647.1999999880791","2","1","3","2","1,0,0,1,1,0,1,0,1","0,0,1,1,0,1,0,1,1","2",""
"","html-keyboard-response","131","105821","0.0-131.0","3PXX5PX6LYK8ZRI3OXY0YFX73JOBAR","A2UKIUS36QADNI","37SDSEDIN9ORHL92Y0GV7TIFJ2X187","","null","<img src=""img/flower3.png"" style=""width:200px; border:14px solid green;"">","null","","","","","","","","",""
"","image-keyboard-response","132","106218","0.0-132.0","3PXX5PX6LYK8ZRI3OXY0YFX73JOBAR","A2UKIUS36QADNI","37SDSEDIN9ORHL92Y0GV7TIFJ2X187","","396","img/flower3.png","75","397","2","1","3","2","1,0,0,1,1,0,1,0,1","0,0,1,1,0,1,0,1,1","2",""
"","html-keyboard-response","133","106520","0.0-133.0","3PXX5PX6LYK8ZRI3OXY0YFX73JOBAR","A2UKIUS36QADNI","37SDSEDIN9ORHL92Y0GV7TIFJ2X187","","null","<img src=""img/flower3.png"" style=""width:200px; border:14px solid green;"">","null","","","","","","","","",""
"","image-keyboard-response","134","107215","0.0-134.0","3PXX5PX6LYK8ZRI3OXY0YFX73JOBAR","A2UKIUS36QADNI","37SDSEDIN9ORHL92Y0GV7TIFJ2X187","","694.5","img/flower5.png","74","694.8999999761581","1","1","2","2","1,0,0,1,1,0,1,0,1","0,0,1,1,0,1,0,1,1","2",""
"","html-keyboard-response","135","107517","0.0-135.0","3PXX5PX6LYK8ZRI3OXY0YFX73JOBAR","A2UKIUS36QADNI","37SDSEDIN9ORHL92Y0GV7TIFJ2X187","","null","<img src=""img/flower5.png"" style=""width:200px; border:14px solid green;"">","null","","","","","","","","",""
"","image-keyboard-response","136","107950","0.0-136.0","3PXX5PX6LYK8ZRI3OXY0YFX73JOBAR","A2UKIUS36QADNI","37SDSEDIN9ORHL92Y0GV7TIFJ2X187","","432.10000002384186","img/flower5.png","74","432.69999998807907","1","1","2","2","1,0,0,1,1,0,1,0,1","0,0,1,1,0,1,0,1,1","2",""
"","html-keyboard-response","137","108251","0.0-137.0","3PXX5PX6LYK8ZRI3OXY0YFX73JOBAR","A2UKIUS36QADNI","37SDSEDIN9ORHL92Y0GV7TIFJ2X187","","null","<img src=""img/flower5.png"" style=""width:200px; border:14px solid green;"">","null","","","","","","","","",""
"","image-keyboard-response","138","108844","0.0-138.0","3PXX5PX6LYK8ZRI3OXY0YFX73JOBAR","A2UKIUS36QADNI","37SDSEDIN9ORHL92Y0GV7TIFJ2X187","","592.6000000238419","img/flower2.png","76","593.1000000238419","3","1","1","2","1,0,0,1,1,0,1,0,1","0,0,1,1,0,1,0,1,1","2",""
"","html-keyboard-response","139","109161","0.0-139.0","3PXX5PX6LYK8ZRI3OXY0YFX73JOBAR","A2UKIUS36QADNI","37SDSEDIN9ORHL92Y0GV7TIFJ2X187","","null","<img src=""img/flower2.png"" style=""width:200px; border:14px solid green;"">","null","","","","","","","","",""
"","image-keyboard-response","140","109564","0.0-140.0","3PXX5PX6LYK8ZRI3OXY0YFX73JOBAR","A2UKIUS36QADNI","37SDSEDIN9ORHL92Y0GV7TIFJ2X187","","402.39999997615814","img/flower2.png","76","403.5","3","1","1","2","1,0,0,1,1,0,1,0,1","0,0,1,1,0,1,0,1,1","2",""
"","html-keyboard-response","141","109866","0.0-141.0","3PXX5PX6LYK8ZRI3OXY0YFX73JOBAR","A2UKIUS36QADNI","37SDSEDIN9ORHL92Y0GV7TIFJ2X187","","null","<img src=""img/flower2.png"" style=""width:200px; border:14px solid green;"">","null","","","","","","","","",""
"","image-keyboard-response","142","110519","0.0-142.0","3PXX5PX6LYK8ZRI3OXY0YFX73JOBAR","A2UKIUS36QADNI","37SDSEDIN9ORHL92Y0GV7TIFJ2X187","","651.9000000357628","img/flower3.png","75","653.1000000238419","2","1","3","2","1,0,0,1,1,0,1,0,1","0,0,1,1,0,1,0,1,1","2",""
"","html-keyboard-response","143","110821","0.0-143.0","3PXX5PX6LYK8ZRI3OXY0YFX73JOBAR","A2UKIUS36QADNI","37SDSEDIN9ORHL92Y0GV7TIFJ2X187","","null","<img src=""img/flower3.png"" style=""width:200px; border:14px solid green;"">","null","","","","","","","","",""
"","image-keyboard-response","144","111506","0.0-144.0","3PXX5PX6LYK8ZRI3OXY0YFX73JOBAR","A2UKIUS36QADNI","37SDSEDIN9ORHL92Y0GV7TIFJ2X187","","684.3999999761581","img/flower2.png","76","685","3","1","1","2","1,0,0,1,1,0,1,0,1","0,0,1,1,0,1,0,1,1","2",""
"","html-keyboard-response","145","111814","0.0-145.0","3PXX5PX6LYK8ZRI3OXY0YFX73JOBAR","A2UKIUS36QADNI","37SDSEDIN9ORHL92Y0GV7TIFJ2X187","","null","<img src=""img/flower2.png"" style=""width:200px; border:14px solid green;"">","null","","","","","","","","",""
"","image-keyboard-response","146","112407","0.0-146.0","3PXX5PX6LYK8ZRI3OXY0YFX73JOBAR","A2UKIUS36QADNI","37SDSEDIN9ORHL92Y0GV7TIFJ2X187","","591.8000000119209","img/flower3.png","75","592.6999999880791","2","1","3","2","1,0,0,1,1,0,1,0,1","0,0,1,1,0,1,0,1,1","2",""
"","html-keyboard-response","147","112709","0.0-147.0","3PXX5PX6LYK8ZRI3OXY0YFX73JOBAR","A2UKIUS36QADNI","37SDSEDIN9ORHL92Y0GV7TIFJ2X187","","null","<img src=""img/flower3.png"" style=""width:200px; border:14px solid green;"">","null","","","","","","","","",""
"","image-keyboard-response","148","113114","0.0-148.0","3PXX5PX6LYK8ZRI3OXY0YFX73JOBAR","A2UKIUS36QADNI","37SDSEDIN9ORHL92Y0GV7TIFJ2X187","","403","img/flower2.png","76","404.2999999523163","3","1","1","2","1,0,0,1,1,0,1,0,1","0,0,1,1,0,1,0,1,1","2",""
"","html-keyboard-response","149","113416","0.0-149.0","3PXX5PX6LYK8ZRI3OXY0YFX73JOBAR","A2UKIUS36QADNI","37SDSEDIN9ORHL92Y0GV7TIFJ2X187","","null","<img src=""img/flower2.png"" style=""width:200px; border:14px solid green;"">","null","","","","","","","","",""
"","image-keyboard-response","150","113924","0.0-150.0","3PXX5PX6LYK8ZRI3OXY0YFX73JOBAR","A2UKIUS36QADNI","37SDSEDIN9ORHL92Y0GV7TIFJ2X187","","507.69999998807907","img/flower2.png","76","508.5","3","1","1","2","1,0,0,1,1,0,1,0,1","0,0,1,1,0,1,0,1,1","2",""
"","html-keyboard-response","151","114226","0.0-151.0","3PXX5PX6LYK8ZRI3OXY0YFX73JOBAR","A2UKIUS36QADNI","37SDSEDIN9ORHL92Y0GV7TIFJ2X187","","null","<img src=""img/flower2.png"" style=""width:200px; border:14px solid green;"">","null","","","","","","","","",""
"","image-keyboard-response","152","114916","0.0-152.0","3PXX5PX6LYK8ZRI3OXY0YFX73JOBAR","A2UKIUS36QADNI","37SDSEDIN9ORHL92Y0GV7TIFJ2X187","","688.0999999642372","img/flower3.png","75","689.1000000238419","2","1","3","2","1,0,0,1,1,0,1,0,1","0,0,1,1,0,1,0,1,1","2",""
"","html-keyboard-response","153","115218","0.0-153.0","3PXX5PX6LYK8ZRI3OXY0YFX73JOBAR","A2UKIUS36QADNI","37SDSEDIN9ORHL92Y0GV7TIFJ2X187","","null","<img src=""img/flower3.png"" style=""width:200px; border:14px solid green;"">","null","","","","","","","","",""
"","image-keyboard-response","154","115807","0.0-154.0","3PXX5PX6LYK8ZRI3OXY0YFX73JOBAR","A2UKIUS36QADNI","37SDSEDIN9ORHL92Y0GV7TIFJ2X187","","587.2999999523163","img/flower2.png","76","588.6000000238419","3","1","1","2","1,0,0,1,1,0,1,0,1","0,0,1,1,0,1,0,1,1","2",""
"","html-keyboard-response","155","116122","0.0-155.0","3PXX5PX6LYK8ZRI3OXY0YFX73JOBAR","A2UKIUS36QADNI","37SDSEDIN9ORHL92Y0GV7TIFJ2X187","","null","<img src=""img/flower2.png"" style=""width:200px; border:14px solid green;"">","null","","","","","","","","",""
"","image-keyboard-response","156","116797","0.0-156.0","3PXX5PX6LYK8ZRI3OXY0YFX73JOBAR","A2UKIUS36QADNI","37SDSEDIN9ORHL92Y0GV7TIFJ2X187","","674.0999999642372","img/flower5.png","74","675.1999999880791","1","1","2","2","1,0,0,1,1,0,1,0,1","0,0,1,1,0,1,0,1,1","2",""
"","html-keyboard-response","157","117100","0.0-157.0","3PXX5PX6LYK8ZRI3OXY0YFX73JOBAR","A2UKIUS36QADNI","37SDSEDIN9ORHL92Y0GV7TIFJ2X187","","null","<img src=""img/flower5.png"" style=""width:200px; border:14px solid green;"">","null","","","","","","","","",""
"","image-keyboard-response","158","117764","0.0-158.0","3PXX5PX6LYK8ZRI3OXY0YFX73JOBAR","A2UKIUS36QADNI","37SDSEDIN9ORHL92Y0GV7TIFJ2X187","","663.7999999523163","img/flower3.png","75","664.5","2","1","3","2","1,0,0,1,1,0,1,0,1","0,0,1,1,0,1,0,1,1","2",""
"","html-keyboard-response","159","118077","0.0-159.0","3PXX5PX6LYK8ZRI3OXY0YFX73JOBAR","A2UKIUS36QADNI","37SDSEDIN9ORHL92Y0GV7TIFJ2X187","","null","<img src=""img/flower3.png"" style=""width:200px; border:14px solid green;"">","null","","","","","","","","",""
"","image-keyboard-response","160","118601","0.0-160.0","3PXX5PX6LYK8ZRI3OXY0YFX73JOBAR","A2UKIUS36QADNI","37SDSEDIN9ORHL92Y0GV7TIFJ2X187","","523.3999999761581","img/flower2.png","76","524.3999999761581","3","1","1","2","1,0,0,1,1,0,1,0,1","0,0,1,1,0,1,0,1,1","2",""
"","html-keyboard-response","161","118902","0.0-161.0","3PXX5PX6LYK8ZRI3OXY0YFX73JOBAR","A2UKIUS36QADNI","37SDSEDIN9ORHL92Y0GV7TIFJ2X187","","null","<img src=""img/flower2.png"" style=""width:200px; border:14px solid green;"">","null","","","","","","","","",""
"","image-keyboard-response","162","119555","0.0-162.0","3PXX5PX6LYK8ZRI3OXY0YFX73JOBAR","A2UKIUS36QADNI","37SDSEDIN9ORHL92Y0GV7TIFJ2X187","","651.6999999880791","img/flower5.png","74","652.8000000119209","1","1","2","2","1,0,0,1,1,0,1,0,1","0,0,1,1,0,1,0,1,1","2",""
"","html-keyboard-response","163","119857","0.0-163.0","3PXX5PX6LYK8ZRI3OXY0YFX73JOBAR","A2UKIUS36QADNI","37SDSEDIN9ORHL92Y0GV7TIFJ2X187","","null","<img src=""img/flower5.png"" style=""width:200px; border:14px solid green;"">","null","","","","","","","","",""
"","image-keyboard-response","164","120457","0.0-164.0","3PXX5PX6LYK8ZRI3OXY0YFX73JOBAR","A2UKIUS36QADNI","37SDSEDIN9ORHL92Y0GV7TIFJ2X187","","599","img/flower2.png","76","599.8999999761581","3","1","1","2","1,0,0,1,1,0,1,0,1","0,0,1,1,0,1,0,1,1","2",""
"","html-keyboard-response","165","120760","0.0-165.0","3PXX5PX6LYK8ZRI3OXY0YFX73JOBAR","A2UKIUS36QADNI","37SDSEDIN9ORHL92Y0GV7TIFJ2X187","","null","<img src=""img/flower2.png"" style=""width:200px; border:14px solid green;"">","null","","","","","","","","",""
"","image-keyboard-response","166","121251","0.0-166.0","3PXX5PX6LYK8ZRI3OXY0YFX73JOBAR","A2UKIUS36QADNI","37SDSEDIN9ORHL92Y0GV7TIFJ2X187","","489.5999999642372","img/flower3.png","75","490.69999998807907","2","1","3","2","1,0,0,1,1,0,1,0,1","0,0,1,1,0,1,0,1,1","2",""
"","html-keyboard-response","167","121553","0.0-167.0","3PXX5PX6LYK8ZRI3OXY0YFX73JOBAR","A2UKIUS36QADNI","37SDSEDIN9ORHL92Y0GV7TIFJ2X187","","null","<img src=""img/flower3.png"" style=""width:200px; border:14px solid green;"">","null","","","","","","","","",""
"","image-keyboard-response","168","122189","0.0-168.0","3PXX5PX6LYK8ZRI3OXY0YFX73JOBAR","A2UKIUS36QADNI","37SDSEDIN9ORHL92Y0GV7TIFJ2X187","","635.3000000119209","img/flower5.png","74","636.1000000238419","1","1","2","2","1,0,0,1,1,0,1,0,1","0,0,1,1,0,1,0,1,1","2",""
"","html-keyboard-response","169","122491","0.0-169.0","3PXX5PX6LYK8ZRI3OXY0YFX73JOBAR","A2UKIUS36QADNI","37SDSEDIN9ORHL92Y0GV7TIFJ2X187","","null","<img src=""img/flower5.png"" style=""width:200px; border:14px solid green;"">","null","","","","","","","","",""
"","image-keyboard-response","170","122994","0.0-170.0","3PXX5PX6LYK8ZRI3OXY0YFX73JOBAR","A2UKIUS36QADNI","37SDSEDIN9ORHL92Y0GV7TIFJ2X187","","501.60000002384186","img/flower2.png","76","502.4000000357628","3","1","1","2","1,0,0,1,1,0,1,0,1","0,0,1,1,0,1,0,1,1","2",""
"","html-keyboard-response","171","123296","0.0-171.0","3PXX5PX6LYK8ZRI3OXY0YFX73JOBAR","A2UKIUS36QADNI","37SDSEDIN9ORHL92Y0GV7TIFJ2X187","","null","<img src=""img/flower2.png"" style=""width:200px; border:14px solid green;"">","null","","","","","","","","",""
"","image-keyboard-response","172","123888","0.0-172.0","3PXX5PX6LYK8ZRI3OXY0YFX73JOBAR","A2UKIUS36QADNI","37SDSEDIN9ORHL92Y0GV7TIFJ2X187","","591.8000000119209","img/flower5.png","74","592.5999999642372","1","1","2","2","1,0,0,1,1,0,1,0,1","0,0,1,1,0,1,0,1,1","2",""
"","html-keyboard-response","173","124191","0.0-173.0","3PXX5PX6LYK8ZRI3OXY0YFX73JOBAR","A2UKIUS36QADNI","37SDSEDIN9ORHL92Y0GV7TIFJ2X187","","null","<img src=""img/flower5.png"" style=""width:200px; border:14px solid green;"">","null","","","","","","","","",""
"","image-keyboard-response","174","124669","0.0-174.0","3PXX5PX6LYK8ZRI3OXY0YFX73JOBAR","A2UKIUS36QADNI","37SDSEDIN9ORHL92Y0GV7TIFJ2X187","","476.80000001192093","img/flower3.png","75","477.80000001192093","2","1","3","2","1,0,0,1,1,0,1,0,1","0,0,1,1,0,1,0,1,1","2",""
"","html-keyboard-response","175","124970","0.0-175.0","3PXX5PX6LYK8ZRI3OXY0YFX73JOBAR","A2UKIUS36QADNI","37SDSEDIN9ORHL92Y0GV7TIFJ2X187","","null","<img src=""img/flower3.png"" style=""width:200px; border:14px solid green;"">","null","","","","","","","","",""
"","image-keyboard-response","176","125610","0.0-176.0","3PXX5PX6LYK8ZRI3OXY0YFX73JOBAR","A2UKIUS36QADNI","37SDSEDIN9ORHL92Y0GV7TIFJ2X187","","638.6999999880791","img/flower5.png","74","639.2999999523163","1","1","2","2","1,0,0,1,1,0,1,0,1","0,0,1,1,0,1,0,1,1","2",""
"","html-keyboard-response","177","125912","0.0-177.0","3PXX5PX6LYK8ZRI3OXY0YFX73JOBAR","A2UKIUS36QADNI","37SDSEDIN9ORHL92Y0GV7TIFJ2X187","","null","<img src=""img/flower5.png"" style=""width:200px; border:14px solid green;"">","null","","","","","","","","",""
"","image-keyboard-response","178","126472","0.0-178.0","3PXX5PX6LYK8ZRI3OXY0YFX73JOBAR","A2UKIUS36QADNI","37SDSEDIN9ORHL92Y0GV7TIFJ2X187","","558","img/flower2.png","76","559.0999999642372","3","1","1","2","1,0,0,1,1,0,1,0,1","0,0,1,1,0,1,0,1,1","2",""
"","html-keyboard-response","179","126774","0.0-179.0","3PXX5PX6LYK8ZRI3OXY0YFX73JOBAR","A2UKIUS36QADNI","37SDSEDIN9ORHL92Y0GV7TIFJ2X187","","null","<img src=""img/flower2.png"" style=""width:200px; border:14px solid green;"">","null","","","","","","","","",""
"","image-keyboard-response","180","127303","0.0-180.0","3PXX5PX6LYK8ZRI3OXY0YFX73JOBAR","A2UKIUS36QADNI","37SDSEDIN9ORHL92Y0GV7TIFJ2X187","","527.3999999761581","img/flower5.png","74","528.3000000119209","1","1","2","2","1,0,0,1,1,0,1,0,1","0,0,1,1,0,1,0,1,1","2",""
"","html-keyboard-response","181","127605","0.0-181.0","3PXX5PX6LYK8ZRI3OXY0YFX73JOBAR","A2UKIUS36QADNI","37SDSEDIN9ORHL92Y0GV7TIFJ2X187","","null","<img src=""img/flower5.png"" style=""width:200px; border:14px solid green;"">","null","","","","","","","","",""
"","image-keyboard-response","182","128255","0.0-182.0","3PXX5PX6LYK8ZRI3OXY0YFX73JOBAR","A2UKIUS36QADNI","37SDSEDIN9ORHL92Y0GV7TIFJ2X187","","649.3999999761581","img/flower4.png","75","650","2","1","2","1","1,0.333,0.333,0.333,1,0.333,0.333,0.333,1","1,0.333,0.333,0.333,1,0.333,0.333,0.333,1","1",""
"","html-keyboard-response","183","128556","0.0-183.0","3PXX5PX6LYK8ZRI3OXY0YFX73JOBAR","A2UKIUS36QADNI","37SDSEDIN9ORHL92Y0GV7TIFJ2X187","","null","<img src=""img/flower4.png"" style=""width:200px; border:14px solid green;"">","null","","","","","","","","",""
"","image-keyboard-response","184","129530","0.0-184.0","3PXX5PX6LYK8ZRI3OXY0YFX73JOBAR","A2UKIUS36QADNI","37SDSEDIN9ORHL92Y0GV7TIFJ2X187","","971.6999999880791","img/flower1.png","74","972.8999999761581","1","1","1","1","1,0.333,0.333,0.333,1,0.333,0.333,0.333,1","1,0.333,0.333,0.333,1,0.333,0.333,0.333,1","1",""
"","html-keyboard-response","185","129832","0.0-185.0","3PXX5PX6LYK8ZRI3OXY0YFX73JOBAR","A2UKIUS36QADNI","37SDSEDIN9ORHL92Y0GV7TIFJ2X187","","null","<img src=""img/flower1.png"" style=""width:200px; border:14px solid green;"">","null","","","","","","","","",""
"","image-keyboard-response","186","130811","0.0-186.0","3PXX5PX6LYK8ZRI3OXY0YFX73JOBAR","A2UKIUS36QADNI","37SDSEDIN9ORHL92Y0GV7TIFJ2X187","","977.5","img/flower6.png","76","978.8000000119209","3","1","3","1","1,0.333,0.333,0.333,1,0.333,0.333,0.333,1","1,0.333,0.333,0.333,1,0.333,0.333,0.333,1","1",""
"","html-keyboard-response","187","131114","0.0-187.0","3PXX5PX6LYK8ZRI3OXY0YFX73JOBAR","A2UKIUS36QADNI","37SDSEDIN9ORHL92Y0GV7TIFJ2X187","","null","<img src=""img/flower6.png"" style=""width:200px; border:14px solid green;"">","null","","","","","","","","",""
"","image-keyboard-response","188","132361","0.0-188.0","3PXX5PX6LYK8ZRI3OXY0YFX73JOBAR","A2UKIUS36QADNI","37SDSEDIN9ORHL92Y0GV7TIFJ2X187","","1245.199999988079","img/flower4.png","74","1246.7999999523163","1","0","2","1","1,0.333,0.333,0.333,1,0.333,0.333,0.333,1","1,0.333,0.333,0.333,1,0.333,0.333,0.333,1","1",""
"","html-keyboard-response","189","132663","0.0-189.0","3PXX5PX6LYK8ZRI3OXY0YFX73JOBAR","A2UKIUS36QADNI","37SDSEDIN9ORHL92Y0GV7TIFJ2X187","","null","<img src=""img/flower4.png"" style=""width:200px;border:14px solid red;"">","null","","","","","","","","",""
"","image-keyboard-response","190","133323","0.0-190.0","3PXX5PX6LYK8ZRI3OXY0YFX73JOBAR","A2UKIUS36QADNI","37SDSEDIN9ORHL92Y0GV7TIFJ2X187","","659","img/flower1.png","74","660.1000000238419","1","1","1","1","1,0.333,0.333,0.333,1,0.333,0.333,0.333,1","1,0.333,0.333,0.333,1,0.333,0.333,0.333,1","1",""
"","html-keyboard-response","191","133625","0.0-191.0","3PXX5PX6LYK8ZRI3OXY0YFX73JOBAR","A2UKIUS36QADNI","37SDSEDIN9ORHL92Y0GV7TIFJ2X187","","null","<img src=""img/flower1.png"" style=""width:200px; border:14px solid green;"">","null","","","","","","","","",""
"","image-keyboard-response","192","135026","0.0-192.0","3PXX5PX6LYK8ZRI3OXY0YFX73JOBAR","A2UKIUS36QADNI","37SDSEDIN9ORHL92Y0GV7TIFJ2X187","","1400.800000011921","img/flower6.png","76","1401.5999999642372","3","1","3","1","1,0.333,0.333,0.333,1,0.333,0.333,0.333,1","1,0.333,0.333,0.333,1,0.333,0.333,0.333,1","1",""
"","html-keyboard-response","193","135329","0.0-193.0","3PXX5PX6LYK8ZRI3OXY0YFX73JOBAR","A2UKIUS36QADNI","37SDSEDIN9ORHL92Y0GV7TIFJ2X187","","null","<img src=""img/flower6.png"" style=""width:200px; border:14px solid green;"">","null","","","","","","","","",""
"","image-keyboard-response","194","135975","0.0-194.0","3PXX5PX6LYK8ZRI3OXY0YFX73JOBAR","A2UKIUS36QADNI","37SDSEDIN9ORHL92Y0GV7TIFJ2X187","","644.5","img/flower6.png","76","645","3","1","3","1","1,0.333,0.333,0.333,1,0.333,0.333,0.333,1","1,0.333,0.333,0.333,1,0.333,0.333,0.333,1","1",""
"","html-keyboard-response","195","136277","0.0-195.0","3PXX5PX6LYK8ZRI3OXY0YFX73JOBAR","A2UKIUS36QADNI","37SDSEDIN9ORHL92Y0GV7TIFJ2X187","","null","<img src=""img/flower6.png"" style=""width:200px; border:14px solid green;"">","null","","","","","","","","",""
"","image-keyboard-response","196","137538","0.0-196.0","3PXX5PX6LYK8ZRI3OXY0YFX73JOBAR","A2UKIUS36QADNI","37SDSEDIN9ORHL92Y0GV7TIFJ2X187","","1259.800000011921","img/flower4.png","75","1261","2","1","2","1","1,0.333,0.333,0.333,1,0.333,0.333,0.333,1","1,0.333,0.333,0.333,1,0.333,0.333,0.333,1","1",""
"","html-keyboard-response","197","137840","0.0-197.0","3PXX5PX6LYK8ZRI3OXY0YFX73JOBAR","A2UKIUS36QADNI","37SDSEDIN9ORHL92Y0GV7TIFJ2X187","","null","<img src=""img/flower4.png"" style=""width:200px; border:14px solid green;"">","null","","","","","","","","",""
"","image-keyboard-response","198","138750","0.0-198.0","3PXX5PX6LYK8ZRI3OXY0YFX73JOBAR","A2UKIUS36QADNI","37SDSEDIN9ORHL92Y0GV7TIFJ2X187","","908.9000000357628","img/flower1.png","74","909.7999999523163","1","1","1","1","1,0.333,0.333,0.333,1,0.333,0.333,0.333,1","1,0.333,0.333,0.333,1,0.333,0.333,0.333,1","1",""
"","html-keyboard-response","199","139052","0.0-199.0","3PXX5PX6LYK8ZRI3OXY0YFX73JOBAR","A2UKIUS36QADNI","37SDSEDIN9ORHL92Y0GV7TIFJ2X187","","null","<img src=""img/flower1.png"" style=""width:200px; border:14px solid green;"">","null","","","","","","","","",""
"","image-keyboard-response","200","139577","0.0-200.0","3PXX5PX6LYK8ZRI3OXY0YFX73JOBAR","A2UKIUS36QADNI","37SDSEDIN9ORHL92Y0GV7TIFJ2X187","","523.8000000119209","img/flower1.png","74","524.6999999880791","1","1","1","1","1,0.333,0.333,0.333,1,0.333,0.333,0.333,1","1,0.333,0.333,0.333,1,0.333,0.333,0.333,1","1",""
"","html-keyboard-response","201","139879","0.0-201.0","3PXX5PX6LYK8ZRI3OXY0YFX73JOBAR","A2UKIUS36QADNI","37SDSEDIN9ORHL92Y0GV7TIFJ2X187","","null","<img src=""img/flower1.png"" style=""width:200px; border:14px solid green;"">","null","","","","","","","","",""
"","image-keyboard-response","202","140398","0.0-202.0","3PXX5PX6LYK8ZRI3OXY0YFX73JOBAR","A2UKIUS36QADNI","37SDSEDIN9ORHL92Y0GV7TIFJ2X187","","516.8000000119209","img/flower1.png","74","518.5","1","1","1","1","1,0.333,0.333,0.333,1,0.333,0.333,0.333,1","1,0.333,0.333,0.333,1,0.333,0.333,0.333,1","1",""
"","html-keyboard-response","203","140700","0.0-203.0","3PXX5PX6LYK8ZRI3OXY0YFX73JOBAR","A2UKIUS36QADNI","37SDSEDIN9ORHL92Y0GV7TIFJ2X187","","null","<img src=""img/flower1.png"" style=""width:200px; border:14px solid green;"">","null","","","","","","","","",""
"","image-keyboard-response","204","141359","0.0-204.0","3PXX5PX6LYK8ZRI3OXY0YFX73JOBAR","A2UKIUS36QADNI","37SDSEDIN9ORHL92Y0GV7TIFJ2X187","","657.8000000119209","img/flower4.png","75","658.5","2","1","2","1","1,0.333,0.333,0.333,1,0.333,0.333,0.333,1","1,0.333,0.333,0.333,1,0.333,0.333,0.333,1","1",""
"","html-keyboard-response","205","141661","0.0-205.0","3PXX5PX6LYK8ZRI3OXY0YFX73JOBAR","A2UKIUS36QADNI","37SDSEDIN9ORHL92Y0GV7TIFJ2X187","","null","<img src=""img/flower4.png"" style=""width:200px; border:14px solid green;"">","null","","","","","","","","",""
"","image-keyboard-response","206","142249","0.0-206.0","3PXX5PX6LYK8ZRI3OXY0YFX73JOBAR","A2UKIUS36QADNI","37SDSEDIN9ORHL92Y0GV7TIFJ2X187","","586.8000000119209","img/flower4.png","75","587.5999999642372","2","1","2","1","1,0.333,0.333,0.333,1,0.333,0.333,0.333,1","1,0.333,0.333,0.333,1,0.333,0.333,0.333,1","1",""
"","html-keyboard-response","207","142551","0.0-207.0","3PXX5PX6LYK8ZRI3OXY0YFX73JOBAR","A2UKIUS36QADNI","37SDSEDIN9ORHL92Y0GV7TIFJ2X187","","null","<img src=""img/flower4.png"" style=""width:200px; border:14px solid green;"">","null","","","","","","","","",""
"","image-keyboard-response","208","143163","0.0-208.0","3PXX5PX6LYK8ZRI3OXY0YFX73JOBAR","A2UKIUS36QADNI","37SDSEDIN9ORHL92Y0GV7TIFJ2X187","","611.3000000119209","img/flower6.png","76","612.1999999880791","3","1","3","1","1,0.333,0.333,0.333,1,0.333,0.333,0.333,1","1,0.333,0.333,0.333,1,0.333,0.333,0.333,1","1",""
"","html-keyboard-response","209","143466","0.0-209.0","3PXX5PX6LYK8ZRI3OXY0YFX73JOBAR","A2UKIUS36QADNI","37SDSEDIN9ORHL92Y0GV7TIFJ2X187","","null","<img src=""img/flower6.png"" style=""width:200px; border:14px solid green;"">","null","","","","","","","","",""
"","image-keyboard-response","210","144259","0.0-210.0","3PXX5PX6LYK8ZRI3OXY0YFX73JOBAR","A2UKIUS36QADNI","37SDSEDIN9ORHL92Y0GV7TIFJ2X187","","791.8000000119209","img/flower4.png","75","792.8999999761581","2","1","2","1","1,0.333,0.333,0.333,1,0.333,0.333,0.333,1","1,0.333,0.333,0.333,1,0.333,0.333,0.333,1","1",""
"","html-keyboard-response","211","144561","0.0-211.0","3PXX5PX6LYK8ZRI3OXY0YFX73JOBAR","A2UKIUS36QADNI","37SDSEDIN9ORHL92Y0GV7TIFJ2X187","","null","<img src=""img/flower4.png"" style=""width:200px; border:14px solid green;"">","null","","","","","","","","",""
"","image-keyboard-response","212","145012","0.0-212.0","3PXX5PX6LYK8ZRI3OXY0YFX73JOBAR","A2UKIUS36QADNI","37SDSEDIN9ORHL92Y0GV7TIFJ2X187","","449.5999999642372","img/flower4.png","75","450.69999998807907","2","1","2","1","1,0.333,0.333,0.333,1,0.333,0.333,0.333,1","1,0.333,0.333,0.333,1,0.333,0.333,0.333,1","1",""
"","html-keyboard-response","213","145314","0.0-213.0","3PXX5PX6LYK8ZRI3OXY0YFX73JOBAR","A2UKIUS36QADNI","37SDSEDIN9ORHL92Y0GV7TIFJ2X187","","null","<img src=""img/flower4.png"" style=""width:200px; border:14px solid green;"">","null","","","","","","","","",""
"","image-keyboard-response","214","145845","0.0-214.0","3PXX5PX6LYK8ZRI3OXY0YFX73JOBAR","A2UKIUS36QADNI","37SDSEDIN9ORHL92Y0GV7TIFJ2X187","","529","img/flower4.png","75","530.1999999880791","2","1","2","1","1,0.333,0.333,0.333,1,0.333,0.333,0.333,1","1,0.333,0.333,0.333,1,0.333,0.333,0.333,1","1",""
"","html-keyboard-response","215","146147","0.0-215.0","3PXX5PX6LYK8ZRI3OXY0YFX73JOBAR","A2UKIUS36QADNI","37SDSEDIN9ORHL92Y0GV7TIFJ2X187","","null","<img src=""img/flower4.png"" style=""width:200px; border:14px solid green;"">","null","","","","","","","","",""
"","image-keyboard-response","216","146921","0.0-216.0","3PXX5PX6LYK8ZRI3OXY0YFX73JOBAR","A2UKIUS36QADNI","37SDSEDIN9ORHL92Y0GV7TIFJ2X187","","773","img/flower6.png","76","774.1999999880791","3","1","3","1","1,0.333,0.333,0.333,1,0.333,0.333,0.333,1","1,0.333,0.333,0.333,1,0.333,0.333,0.333,1","1",""
"","html-keyboard-response","217","147223","0.0-217.0","3PXX5PX6LYK8ZRI3OXY0YFX73JOBAR","A2UKIUS36QADNI","37SDSEDIN9ORHL92Y0GV7TIFJ2X187","","null","<img src=""img/flower6.png"" style=""width:200px; border:14px solid green;"">","null","","","","","","","","",""
"","image-keyboard-response","218","147916","0.0-218.0","3PXX5PX6LYK8ZRI3OXY0YFX73JOBAR","A2UKIUS36QADNI","37SDSEDIN9ORHL92Y0GV7TIFJ2X187","","692.9000000357628","img/flower1.png","74","693.3000000119209","1","1","1","1","1,0.333,0.333,0.333,1,0.333,0.333,0.333,1","1,0.333,0.333,0.333,1,0.333,0.333,0.333,1","1",""
"","html-keyboard-response","219","148231","0.0-219.0","3PXX5PX6LYK8ZRI3OXY0YFX73JOBAR","A2UKIUS36QADNI","37SDSEDIN9ORHL92Y0GV7TIFJ2X187","","null","<img src=""img/flower1.png"" style=""width:200px; border:14px solid green;"">","null","","","","","","","","",""
"","image-keyboard-response","220","149133","0.0-220.0","3PXX5PX6LYK8ZRI3OXY0YFX73JOBAR","A2UKIUS36QADNI","37SDSEDIN9ORHL92Y0GV7TIFJ2X187","","900.5","img/flower4.png","75","901.6000000238419","2","1","2","1","1,0.333,0.333,0.333,1,0.333,0.333,0.333,1","1,0.333,0.333,0.333,1,0.333,0.333,0.333,1","1",""
"","html-keyboard-response","221","149434","0.0-221.0","3PXX5PX6LYK8ZRI3OXY0YFX73JOBAR","A2UKIUS36QADNI","37SDSEDIN9ORHL92Y0GV7TIFJ2X187","","null","<img src=""img/flower4.png"" style=""width:200px; border:14px solid green;"">","null","","","","","","","","",""
"","image-keyboard-response","222","149944","0.0-222.0","3PXX5PX6LYK8ZRI3OXY0YFX73JOBAR","A2UKIUS36QADNI","37SDSEDIN9ORHL92Y0GV7TIFJ2X187","","508","img/flower4.png","75","509.39999997615814","2","1","2","1","1,0.333,0.333,0.333,1,0.333,0.333,0.333,1","1,0.333,0.333,0.333,1,0.333,0.333,0.333,1","1",""
"","html-keyboard-response","223","150247","0.0-223.0","3PXX5PX6LYK8ZRI3OXY0YFX73JOBAR","A2UKIUS36QADNI","37SDSEDIN9ORHL92Y0GV7TIFJ2X187","","null","<img src=""img/flower4.png"" style=""width:200px; border:14px solid green;"">","null","","","","","","","","",""
"","image-keyboard-response","224","150879","0.0-224.0","3PXX5PX6LYK8ZRI3OXY0YFX73JOBAR","A2UKIUS36QADNI","37SDSEDIN9ORHL92Y0GV7TIFJ2X187","","631","img/flower4.png","75","631.9000000357628","2","1","2","1","1,0.333,0.333,0.333,1,0.333,0.333,0.333,1","1,0.333,0.333,0.333,1,0.333,0.333,0.333,1","1",""
"","html-keyboard-response","225","151182","0.0-225.0","3PXX5PX6LYK8ZRI3OXY0YFX73JOBAR","A2UKIUS36QADNI","37SDSEDIN9ORHL92Y0GV7TIFJ2X187","","null","<img src=""img/flower4.png"" style=""width:200px; border:14px solid green;"">","null","","","","","","","","",""
"","image-keyboard-response","226","151836","0.0-226.0","3PXX5PX6LYK8ZRI3OXY0YFX73JOBAR","A2UKIUS36QADNI","37SDSEDIN9ORHL92Y0GV7TIFJ2X187","","653.0999999642372","img/flower1.png","74","654.1999999880791","1","1","1","1","1,0.333,0.333,0.333,1,0.333,0.333,0.333,1","1,0.333,0.333,0.333,1,0.333,0.333,0.333,1","1",""
"","html-keyboard-response","227","152139","0.0-227.0","3PXX5PX6LYK8ZRI3OXY0YFX73JOBAR","A2UKIUS36QADNI","37SDSEDIN9ORHL92Y0GV7TIFJ2X187","","null","<img src=""img/flower1.png"" style=""width:200px; border:14px solid green;"">","null","","","","","","","","",""
"","image-keyboard-response","228","152781","0.0-228.0","3PXX5PX6LYK8ZRI3OXY0YFX73JOBAR","A2UKIUS36QADNI","37SDSEDIN9ORHL92Y0GV7TIFJ2X187","","640.6000000238419","img/flower6.png","76","641.6999999880791","3","1","3","1","1,0.333,0.333,0.333,1,0.333,0.333,0.333,1","1,0.333,0.333,0.333,1,0.333,0.333,0.333,1","1",""
"","html-keyboard-response","229","153083","0.0-229.0","3PXX5PX6LYK8ZRI3OXY0YFX73JOBAR","A2UKIUS36QADNI","37SDSEDIN9ORHL92Y0GV7TIFJ2X187","","null","<img src=""img/flower6.png"" style=""width:200px; border:14px solid green;"">","null","","","","","","","","",""
"","image-keyboard-response","230","153538","0.0-230.0","3PXX5PX6LYK8ZRI3OXY0YFX73JOBAR","A2UKIUS36QADNI","37SDSEDIN9ORHL92Y0GV7TIFJ2X187","","454.0999999642372","img/flower6.png","76","455.30000001192093","3","1","3","1","1,0.333,0.333,0.333,1,0.333,0.333,0.333,1","1,0.333,0.333,0.333,1,0.333,0.333,0.333,1","1",""
"","html-keyboard-response","231","153840","0.0-231.0","3PXX5PX6LYK8ZRI3OXY0YFX73JOBAR","A2UKIUS36QADNI","37SDSEDIN9ORHL92Y0GV7TIFJ2X187","","null","<img src=""img/flower6.png"" style=""width:200px; border:14px solid green;"">","null","","","","","","","","",""
"","image-keyboard-response","232","154702","0.0-232.0","3PXX5PX6LYK8ZRI3OXY0YFX73JOBAR","A2UKIUS36QADNI","37SDSEDIN9ORHL92Y0GV7TIFJ2X187","","861.1000000238419","img/flower4.png","75","861.8000000119209","2","1","2","1","1,0.333,0.333,0.333,1,0.333,0.333,0.333,1","1,0.333,0.333,0.333,1,0.333,0.333,0.333,1","1",""
"","html-keyboard-response","233","155004","0.0-233.0","3PXX5PX6LYK8ZRI3OXY0YFX73JOBAR","A2UKIUS36QADNI","37SDSEDIN9ORHL92Y0GV7TIFJ2X187","","null","<img src=""img/flower4.png"" style=""width:200px; border:14px solid green;"">","null","","","","","","","","",""
"","image-keyboard-response","234","155423","0.0-234.0","3PXX5PX6LYK8ZRI3OXY0YFX73JOBAR","A2UKIUS36QADNI","37SDSEDIN9ORHL92Y0GV7TIFJ2X187","","418.69999998807907","img/flower4.png","75","419","2","1","2","1","1,0.333,0.333,0.333,1,0.333,0.333,0.333,1","1,0.333,0.333,0.333,1,0.333,0.333,0.333,1","1",""
"","html-keyboard-response","235","155724","0.0-235.0","3PXX5PX6LYK8ZRI3OXY0YFX73JOBAR","A2UKIUS36QADNI","37SDSEDIN9ORHL92Y0GV7TIFJ2X187","","null","<img src=""img/flower4.png"" style=""width:200px; border:14px solid green;"">","null","","","","","","","","",""
"","image-keyboard-response","236","157048","0.0-236.0","3PXX5PX6LYK8ZRI3OXY0YFX73JOBAR","A2UKIUS36QADNI","37SDSEDIN9ORHL92Y0GV7TIFJ2X187","","1323","img/flower1.png","74","1323.800000011921","1","1","1","1","1,0.333,0.333,0.333,1,0.333,0.333,0.333,1","1,0.333,0.333,0.333,1,0.333,0.333,0.333,1","1",""
"","html-keyboard-response","237","157351","0.0-237.0","3PXX5PX6LYK8ZRI3OXY0YFX73JOBAR","A2UKIUS36QADNI","37SDSEDIN9ORHL92Y0GV7TIFJ2X187","","null","<img src=""img/flower1.png"" style=""width:200px; border:14px solid green;"">","null","","","","","","","","",""
"","image-keyboard-response","238","158025","0.0-238.0","3PXX5PX6LYK8ZRI3OXY0YFX73JOBAR","A2UKIUS36QADNI","37SDSEDIN9ORHL92Y0GV7TIFJ2X187","","672.8999999761581","img/flower6.png","76","673.6999999880791","3","1","3","1","1,0.333,0.333,0.333,1,0.333,0.333,0.333,1","1,0.333,0.333,0.333,1,0.333,0.333,0.333,1","1",""
"","html-keyboard-response","239","158327","0.0-239.0","3PXX5PX6LYK8ZRI3OXY0YFX73JOBAR","A2UKIUS36QADNI","37SDSEDIN9ORHL92Y0GV7TIFJ2X187","","null","<img src=""img/flower6.png"" style=""width:200px; border:14px solid green;"">","null","","","","","","","","",""
"","image-keyboard-response","240","158885","0.0-240.0","3PXX5PX6LYK8ZRI3OXY0YFX73JOBAR","A2UKIUS36QADNI","37SDSEDIN9ORHL92Y0GV7TIFJ2X187","","556.8999999761581","img/flower6.png","76","557.6999999880791","3","1","3","1","1,0.333,0.333,0.333,1,0.333,0.333,0.333,1","1,0.333,0.333,0.333,1,0.333,0.333,0.333,1","1",""
"","html-keyboard-response","241","159187","0.0-241.0","3PXX5PX6LYK8ZRI3OXY0YFX73JOBAR","A2UKIUS36QADNI","37SDSEDIN9ORHL92Y0GV7TIFJ2X187","","null","<img src=""img/flower6.png"" style=""width:200px; border:14px solid green;"">","null","","","","","","","","",""
"","image-keyboard-response","242","159837","0.0-242.0","3PXX5PX6LYK8ZRI3OXY0YFX73JOBAR","A2UKIUS36QADNI","37SDSEDIN9ORHL92Y0GV7TIFJ2X187","","649.0999999642372","img/flower6.png","76","650.1999999880791","3","1","3","1","1,0.333,0.333,0.333,1,0.333,0.333,0.333,1","1,0.333,0.333,0.333,1,0.333,0.333,0.333,1","1",""
"","html-keyboard-response","243","160139","0.0-243.0","3PXX5PX6LYK8ZRI3OXY0YFX73JOBAR","A2UKIUS36QADNI","37SDSEDIN9ORHL92Y0GV7TIFJ2X187","","null","<img src=""img/flower6.png"" style=""width:200px; border:14px solid green;"">","null","","","","","","","","",""
"","image-keyboard-response","244","161006","0.0-244.0","3PXX5PX6LYK8ZRI3OXY0YFX73JOBAR","A2UKIUS36QADNI","37SDSEDIN9ORHL92Y0GV7TIFJ2X187","","865.3000000119209","img/flower6.png","76","866.6999999880791","3","1","3","1","1,0.333,0.333,0.333,1,0.333,0.333,0.333,1","1,0.333,0.333,0.333,1,0.333,0.333,0.333,1","1",""
"","html-keyboard-response","245","161307","0.0-245.0","3PXX5PX6LYK8ZRI3OXY0YFX73JOBAR","A2UKIUS36QADNI","37SDSEDIN9ORHL92Y0GV7TIFJ2X187","","null","<img src=""img/flower6.png"" style=""width:200px; border:14px solid green;"">","null","","","","","","","","",""
"","image-keyboard-response","246","161812","0.0-246.0","3PXX5PX6LYK8ZRI3OXY0YFX73JOBAR","A2UKIUS36QADNI","37SDSEDIN9ORHL92Y0GV7TIFJ2X187","","504.19999998807907","img/flower6.png","76","505","3","1","3","1","1,0.333,0.333,0.333,1,0.333,0.333,0.333,1","1,0.333,0.333,0.333,1,0.333,0.333,0.333,1","1",""
"","html-keyboard-response","247","162114","0.0-247.0","3PXX5PX6LYK8ZRI3OXY0YFX73JOBAR","A2UKIUS36QADNI","37SDSEDIN9ORHL92Y0GV7TIFJ2X187","","null","<img src=""img/flower6.png"" style=""width:200px; border:14px solid green;"">","null","","","","","","","","",""
"","image-keyboard-response","248","162819","0.0-248.0","3PXX5PX6LYK8ZRI3OXY0YFX73JOBAR","A2UKIUS36QADNI","37SDSEDIN9ORHL92Y0GV7TIFJ2X187","","703.5","img/flower4.png","75","704.1999999880791","2","1","2","1","1,0.333,0.333,0.333,1,0.333,0.333,0.333,1","1,0.333,0.333,0.333,1,0.333,0.333,0.333,1","1",""
"","html-keyboard-response","249","163121","0.0-249.0","3PXX5PX6LYK8ZRI3OXY0YFX73JOBAR","A2UKIUS36QADNI","37SDSEDIN9ORHL92Y0GV7TIFJ2X187","","null","<img src=""img/flower4.png"" style=""width:200px; border:14px solid green;"">","null","","","","","","","","",""
"","image-keyboard-response","250","164048","0.0-250.0","3PXX5PX6LYK8ZRI3OXY0YFX73JOBAR","A2UKIUS36QADNI","37SDSEDIN9ORHL92Y0GV7TIFJ2X187","","926.1999999880791","img/flower4.png","75","927","2","1","2","1","1,0.333,0.333,0.333,1,0.333,0.333,0.333,1","1,0.333,0.333,0.333,1,0.333,0.333,0.333,1","1",""
"","html-keyboard-response","251","164350","0.0-251.0","3PXX5PX6LYK8ZRI3OXY0YFX73JOBAR","A2UKIUS36QADNI","37SDSEDIN9ORHL92Y0GV7TIFJ2X187","","null","<img src=""img/flower4.png"" style=""width:200px; border:14px solid green;"">","null","","","","","","","","",""
"","image-keyboard-response","252","164916","0.0-252.0","3PXX5PX6LYK8ZRI3OXY0YFX73JOBAR","A2UKIUS36QADNI","37SDSEDIN9ORHL92Y0GV7TIFJ2X187","","564.5","img/flower6.png","76","565.5","3","1","3","1","1,0.333,0.333,0.333,1,0.333,0.333,0.333,1","1,0.333,0.333,0.333,1,0.333,0.333,0.333,1","1",""
"","html-keyboard-response","253","165219","0.0-253.0","3PXX5PX6LYK8ZRI3OXY0YFX73JOBAR","A2UKIUS36QADNI","37SDSEDIN9ORHL92Y0GV7TIFJ2X187","","null","<img src=""img/flower6.png"" style=""width:200px; border:14px solid green;"">","null","","","","","","","","",""
"","image-keyboard-response","254","165951","0.0-254.0","3PXX5PX6LYK8ZRI3OXY0YFX73JOBAR","A2UKIUS36QADNI","37SDSEDIN9ORHL92Y0GV7TIFJ2X187","","730.5","img/flower4.png","75","731.5999999642372","2","1","2","1","1,0.333,0.333,0.333,1,0.333,0.333,0.333,1","1,0.333,0.333,0.333,1,0.333,0.333,0.333,1","1",""
"","html-keyboard-response","255","166253","0.0-255.0","3PXX5PX6LYK8ZRI3OXY0YFX73JOBAR","A2UKIUS36QADNI","37SDSEDIN9ORHL92Y0GV7TIFJ2X187","","null","<img src=""img/flower4.png"" style=""width:200px; border:14px solid green;"">","null","","","","","","","","",""
"","image-keyboard-response","256","166953","0.0-256.0","3PXX5PX6LYK8ZRI3OXY0YFX73JOBAR","A2UKIUS36QADNI","37SDSEDIN9ORHL92Y0GV7TIFJ2X187","","698.0999999642372","img/flower1.png","74","699","1","1","1","1","1,0.333,0.333,0.333,1,0.333,0.333,0.333,1","1,0.333,0.333,0.333,1,0.333,0.333,0.333,1","1",""
"","html-keyboard-response","257","167255","0.0-257.0","3PXX5PX6LYK8ZRI3OXY0YFX73JOBAR","A2UKIUS36QADNI","37SDSEDIN9ORHL92Y0GV7TIFJ2X187","","null","<img src=""img/flower1.png"" style=""width:200px; border:14px solid green;"">","null","","","","","","","","",""
"","image-keyboard-response","258","167937","0.0-258.0","3PXX5PX6LYK8ZRI3OXY0YFX73JOBAR","A2UKIUS36QADNI","37SDSEDIN9ORHL92Y0GV7TIFJ2X187","","681.2999999523163","img/flower6.png","76","682.3999999761581","3","1","3","1","1,0.333,0.333,0.333,1,0.333,0.333,0.333,1","1,0.333,0.333,0.333,1,0.333,0.333,0.333,1","1",""
"","html-keyboard-response","259","168238","0.0-259.0","3PXX5PX6LYK8ZRI3OXY0YFX73JOBAR","A2UKIUS36QADNI","37SDSEDIN9ORHL92Y0GV7TIFJ2X187","","null","<img src=""img/flower6.png"" style=""width:200px; border:14px solid green;"">","null","","","","","","","","",""
"","image-keyboard-response","260","168999","0.0-260.0","3PXX5PX6LYK8ZRI3OXY0YFX73JOBAR","A2UKIUS36QADNI","37SDSEDIN9ORHL92Y0GV7TIFJ2X187","","759.8000000119209","img/flower1.png","74","760.4000000357628","1","1","1","1","1,0.333,0.333,0.333,1,0.333,0.333,0.333,1","1,0.333,0.333,0.333,1,0.333,0.333,0.333,1","1",""
"","html-keyboard-response","261","169301","0.0-261.0","3PXX5PX6LYK8ZRI3OXY0YFX73JOBAR","A2UKIUS36QADNI","37SDSEDIN9ORHL92Y0GV7TIFJ2X187","","null","<img src=""img/flower1.png"" style=""width:200px; border:14px solid green;"">","null","","","","","","","","",""
"","image-keyboard-response","262","169802","0.0-262.0","3PXX5PX6LYK8ZRI3OXY0YFX73JOBAR","A2UKIUS36QADNI","37SDSEDIN9ORHL92Y0GV7TIFJ2X187","","499","img/flower1.png","74","500.39999997615814","1","1","1","1","1,0.333,0.333,0.333,1,0.333,0.333,0.333,1","1,0.333,0.333,0.333,1,0.333,0.333,0.333,1","1",""
"","html-keyboard-response","263","170105","0.0-263.0","3PXX5PX6LYK8ZRI3OXY0YFX73JOBAR","A2UKIUS36QADNI","37SDSEDIN9ORHL92Y0GV7TIFJ2X187","","null","<img src=""img/flower1.png"" style=""width:200px; border:14px solid green;"">","null","","","","","","","","",""
"","image-keyboard-response","264","170737","0.0-264.0","3PXX5PX6LYK8ZRI3OXY0YFX73JOBAR","A2UKIUS36QADNI","37SDSEDIN9ORHL92Y0GV7TIFJ2X187","","631.2000000476837","img/flower1.png","74","632.3000000119209","1","1","1","1","1,0.333,0.333,0.333,1,0.333,0.333,0.333,1","1,0.333,0.333,0.333,1,0.333,0.333,0.333,1","1",""
"","html-keyboard-response","265","171040","0.0-265.0","3PXX5PX6LYK8ZRI3OXY0YFX73JOBAR","A2UKIUS36QADNI","37SDSEDIN9ORHL92Y0GV7TIFJ2X187","","null","<img src=""img/flower1.png"" style=""width:200px; border:14px solid green;"">","null","","","","","","","","",""
"","image-keyboard-response","266","171472","0.0-266.0","3PXX5PX6LYK8ZRI3OXY0YFX73JOBAR","A2UKIUS36QADNI","37SDSEDIN9ORHL92Y0GV7TIFJ2X187","","431","img/flower1.png","74","432.2000000476837","1","1","1","1","1,0.333,0.333,0.333,1,0.333,0.333,0.333,1","1,0.333,0.333,0.333,1,0.333,0.333,0.333,1","1",""
"","html-keyboard-response","267","171775","0.0-267.0","3PXX5PX6LYK8ZRI3OXY0YFX73JOBAR","A2UKIUS36QADNI","37SDSEDIN9ORHL92Y0GV7TIFJ2X187","","null","<img src=""img/flower1.png"" style=""width:200px; border:14px solid green;"">","null","","","","","","","","",""
"","image-keyboard-response","268","172326","0.0-268.0","3PXX5PX6LYK8ZRI3OXY0YFX73JOBAR","A2UKIUS36QADNI","37SDSEDIN9ORHL92Y0GV7TIFJ2X187","","549.8999999761581","img/flower4.png","75","550.8000000119209","2","1","2","1","1,0.333,0.333,0.333,1,0.333,0.333,0.333,1","1,0.333,0.333,0.333,1,0.333,0.333,0.333,1","1",""
"","html-keyboard-response","269","172628","0.0-269.0","3PXX5PX6LYK8ZRI3OXY0YFX73JOBAR","A2UKIUS36QADNI","37SDSEDIN9ORHL92Y0GV7TIFJ2X187","","null","<img src=""img/flower4.png"" style=""width:200px; border:14px solid green;"">","null","","","","","","","","",""
"","image-keyboard-response","270","173175","0.0-270.0","3PXX5PX6LYK8ZRI3OXY0YFX73JOBAR","A2UKIUS36QADNI","37SDSEDIN9ORHL92Y0GV7TIFJ2X187","","546.8000000119209","img/flower6.png","76","547.5","3","1","3","1","1,0.333,0.333,0.333,1,0.333,0.333,0.333,1","1,0.333,0.333,0.333,1,0.333,0.333,0.333,1","1",""
"","html-keyboard-response","271","173479","0.0-271.0","3PXX5PX6LYK8ZRI3OXY0YFX73JOBAR","A2UKIUS36QADNI","37SDSEDIN9ORHL92Y0GV7TIFJ2X187","","null","<img src=""img/flower6.png"" style=""width:200px; border:14px solid green;"">","null","","","","","","","","",""
"","image-keyboard-response","272","174073","0.0-272.0","3PXX5PX6LYK8ZRI3OXY0YFX73JOBAR","A2UKIUS36QADNI","37SDSEDIN9ORHL92Y0GV7TIFJ2X187","","593.6000000238419","img/flower1.png","74","594.2000000476837","1","1","1","1","1,0.333,0.333,0.333,1,0.333,0.333,0.333,1","1,0.333,0.333,0.333,1,0.333,0.333,0.333,1","1",""
"","html-keyboard-response","273","174375","0.0-273.0","3PXX5PX6LYK8ZRI3OXY0YFX73JOBAR","A2UKIUS36QADNI","37SDSEDIN9ORHL92Y0GV7TIFJ2X187","","null","<img src=""img/flower1.png"" style=""width:200px; border:14px solid green;"">","null","","","","","","","","",""
"","image-keyboard-response","274","174996","0.0-274.0","3PXX5PX6LYK8ZRI3OXY0YFX73JOBAR","A2UKIUS36QADNI","37SDSEDIN9ORHL92Y0GV7TIFJ2X187","","620.5","img/flower1.png","74","621.2000000476837","1","1","1","1","1,0.333,0.333,0.333,1,0.333,0.333,0.333,1","1,0.333,0.333,0.333,1,0.333,0.333,0.333,1","1",""
"","html-keyboard-response","275","175299","0.0-275.0","3PXX5PX6LYK8ZRI3OXY0YFX73JOBAR","A2UKIUS36QADNI","37SDSEDIN9ORHL92Y0GV7TIFJ2X187","","null","<img src=""img/flower1.png"" style=""width:200px; border:14px solid green;"">","null","","","","","","","","",""
"","image-keyboard-response","276","176042","0.0-276.0","3PXX5PX6LYK8ZRI3OXY0YFX73JOBAR","A2UKIUS36QADNI","37SDSEDIN9ORHL92Y0GV7TIFJ2X187","","742.5","img/flower1.png","74","743.3999999761581","1","1","1","1","1,0.333,0.333,0.333,1,0.333,0.333,0.333,1","1,0.333,0.333,0.333,1,0.333,0.333,0.333,1","1",""
"","html-keyboard-response","277","176345","0.0-277.0","3PXX5PX6LYK8ZRI3OXY0YFX73JOBAR","A2UKIUS36QADNI","37SDSEDIN9ORHL92Y0GV7TIFJ2X187","","null","<img src=""img/flower1.png"" style=""width:200px; border:14px solid green;"">","null","","","","","","","","",""
"","image-keyboard-response","278","176938","0.0-278.0","3PXX5PX6LYK8ZRI3OXY0YFX73JOBAR","A2UKIUS36QADNI","37SDSEDIN9ORHL92Y0GV7TIFJ2X187","","591.1999999880791","img/flower4.png","75","592.6000000238419","2","1","2","1","1,0.333,0.333,0.333,1,0.333,0.333,0.333,1","1,0.333,0.333,0.333,1,0.333,0.333,0.333,1","1",""
"","html-keyboard-response","279","177241","0.0-279.0","3PXX5PX6LYK8ZRI3OXY0YFX73JOBAR","A2UKIUS36QADNI","37SDSEDIN9ORHL92Y0GV7TIFJ2X187","","null","<img src=""img/flower4.png"" style=""width:200px; border:14px solid green;"">","null","","","","","","","","",""
"","image-keyboard-response","280","177957","0.0-280.0","3PXX5PX6LYK8ZRI3OXY0YFX73JOBAR","A2UKIUS36QADNI","37SDSEDIN9ORHL92Y0GV7TIFJ2X187","","714.7000000476837","img/flower1.png","74","715.6000000238419","1","1","1","1","1,0.333,0.333,0.333,1,0.333,0.333,0.333,1","1,0.333,0.333,0.333,1,0.333,0.333,0.333,1","1",""
"","html-keyboard-response","281","178260","0.0-281.0","3PXX5PX6LYK8ZRI3OXY0YFX73JOBAR","A2UKIUS36QADNI","37SDSEDIN9ORHL92Y0GV7TIFJ2X187","","null","<img src=""img/flower1.png"" style=""width:200px; border:14px solid green;"">","null","","","","","","","","",""
"","image-keyboard-response","282","178857","0.0-282.0","3PXX5PX6LYK8ZRI3OXY0YFX73JOBAR","A2UKIUS36QADNI","37SDSEDIN9ORHL92Y0GV7TIFJ2X187","","595.8000000119209","img/flower1.png","74","597.3000000119209","1","1","1","1","1,0.333,0.333,0.333,1,0.333,0.333,0.333,1","1,0.333,0.333,0.333,1,0.333,0.333,0.333,1","1",""
"","html-keyboard-response","283","179159","0.0-283.0","3PXX5PX6LYK8ZRI3OXY0YFX73JOBAR","A2UKIUS36QADNI","37SDSEDIN9ORHL92Y0GV7TIFJ2X187","","null","<img src=""img/flower1.png"" style=""width:200px; border:14px solid green;"">","null","","","","","","","","",""
"","image-keyboard-response","284","179820","0.0-284.0","3PXX5PX6LYK8ZRI3OXY0YFX73JOBAR","A2UKIUS36QADNI","37SDSEDIN9ORHL92Y0GV7TIFJ2X187","","659.5","img/flower1.png","74","660.4000000357628","1","1","1","1","1,0.333,0.333,0.333,1,0.333,0.333,0.333,1","1,0.333,0.333,0.333,1,0.333,0.333,0.333,1","1",""
"","html-keyboard-response","285","180121","0.0-285.0","3PXX5PX6LYK8ZRI3OXY0YFX73JOBAR","A2UKIUS36QADNI","37SDSEDIN9ORHL92Y0GV7TIFJ2X187","","null","<img src=""img/flower1.png"" style=""width:200px; border:14px solid green;"">","null","","","","","","","","",""
"","image-keyboard-response","286","180608","0.0-286.0","3PXX5PX6LYK8ZRI3OXY0YFX73JOBAR","A2UKIUS36QADNI","37SDSEDIN9ORHL92Y0GV7TIFJ2X187","","485.80000001192093","img/flower1.png","74","487","1","1","1","1","1,0.333,0.333,0.333,1,0.333,0.333,0.333,1","1,0.333,0.333,0.333,1,0.333,0.333,0.333,1","1",""
"","html-keyboard-response","287","180911","0.0-287.0","3PXX5PX6LYK8ZRI3OXY0YFX73JOBAR","A2UKIUS36QADNI","37SDSEDIN9ORHL92Y0GV7TIFJ2X187","","null","<img src=""img/flower1.png"" style=""width:200px; border:14px solid green;"">","null","","","","","","","","",""
"","image-keyboard-response","288","181505","0.0-288.0","3PXX5PX6LYK8ZRI3OXY0YFX73JOBAR","A2UKIUS36QADNI","37SDSEDIN9ORHL92Y0GV7TIFJ2X187","","592.6000000238419","img/flower6.png","76","593.6999999880791","3","1","3","1","1,0.333,0.333,0.333,1,0.333,0.333,0.333,1","1,0.333,0.333,0.333,1,0.333,0.333,0.333,1","1",""
"","html-keyboard-response","289","181807","0.0-289.0","3PXX5PX6LYK8ZRI3OXY0YFX73JOBAR","A2UKIUS36QADNI","37SDSEDIN9ORHL92Y0GV7TIFJ2X187","","null","<img src=""img/flower6.png"" style=""width:200px; border:14px solid green;"">","null","","","","","","","","",""
"","image-keyboard-response","290","182497","0.0-290.0","3PXX5PX6LYK8ZRI3OXY0YFX73JOBAR","A2UKIUS36QADNI","37SDSEDIN9ORHL92Y0GV7TIFJ2X187","","687.8000000119209","img/flower4.png","75","689.5","2","1","2","1","1,0.333,0.333,0.333,1,0.333,0.333,0.333,1","1,0.333,0.333,0.333,1,0.333,0.333,0.333,1","1",""
"","html-keyboard-response","291","182800","0.0-291.0","3PXX5PX6LYK8ZRI3OXY0YFX73JOBAR","A2UKIUS36QADNI","37SDSEDIN9ORHL92Y0GV7TIFJ2X187","","null","<img src=""img/flower4.png"" style=""width:200px; border:14px solid green;"">","null","","","","","","","","",""
"","image-keyboard-response","292","183548","0.0-292.0","3PXX5PX6LYK8ZRI3OXY0YFX73JOBAR","A2UKIUS36QADNI","37SDSEDIN9ORHL92Y0GV7TIFJ2X187","","746.8999999761581","img/flower4.png","75","747.8999999761581","2","1","2","1","1,0.333,0.333,0.333,1,0.333,0.333,0.333,1","1,0.333,0.333,0.333,1,0.333,0.333,0.333,1","1",""
"","html-keyboard-response","293","183850","0.0-293.0","3PXX5PX6LYK8ZRI3OXY0YFX73JOBAR","A2UKIUS36QADNI","37SDSEDIN9ORHL92Y0GV7TIFJ2X187","","null","<img src=""img/flower4.png"" style=""width:200px; border:14px solid green;"">","null","","","","","","","","",""
"","image-keyboard-response","294","184198","0.0-294.0","3PXX5PX6LYK8ZRI3OXY0YFX73JOBAR","A2UKIUS36QADNI","37SDSEDIN9ORHL92Y0GV7TIFJ2X187","","346.2999999523163","img/flower4.png","75","347.30000001192093","2","1","2","1","1,0.333,0.333,0.333,1,0.333,0.333,0.333,1","1,0.333,0.333,0.333,1,0.333,0.333,0.333,1","1",""
"","html-keyboard-response","295","184499","0.0-295.0","3PXX5PX6LYK8ZRI3OXY0YFX73JOBAR","A2UKIUS36QADNI","37SDSEDIN9ORHL92Y0GV7TIFJ2X187","","null","<img src=""img/flower4.png"" style=""width:200px; border:14px solid green;"">","null","","","","","","","","",""
"","image-keyboard-response","296","185121","0.0-296.0","3PXX5PX6LYK8ZRI3OXY0YFX73JOBAR","A2UKIUS36QADNI","37SDSEDIN9ORHL92Y0GV7TIFJ2X187","","621.8999999761581","img/flower1.png","74","622.5999999642372","1","1","1","1","1,0.333,0.333,0.333,1,0.333,0.333,0.333,1","1,0.333,0.333,0.333,1,0.333,0.333,0.333,1","1",""
"","html-keyboard-response","297","185423","0.0-297.0","3PXX5PX6LYK8ZRI3OXY0YFX73JOBAR","A2UKIUS36QADNI","37SDSEDIN9ORHL92Y0GV7TIFJ2X187","","null","<img src=""img/flower1.png"" style=""width:200px; border:14px solid green;"">","null","","","","","","","","",""
"","image-keyboard-response","298","185986","0.0-298.0","3PXX5PX6LYK8ZRI3OXY0YFX73JOBAR","A2UKIUS36QADNI","37SDSEDIN9ORHL92Y0GV7TIFJ2X187","","561.8000000119209","img/flower6.png","76","562.6000000238419","3","1","3","1","1,0.333,0.333,0.333,1,0.333,0.333,0.333,1","1,0.333,0.333,0.333,1,0.333,0.333,0.333,1","1",""
"","html-keyboard-response","299","186288","0.0-299.0","3PXX5PX6LYK8ZRI3OXY0YFX73JOBAR","A2UKIUS36QADNI","37SDSEDIN9ORHL92Y0GV7TIFJ2X187","","null","<img src=""img/flower6.png"" style=""width:200px; border:14px solid green;"">","null","","","","","","","","",""
"","image-keyboard-response","300","186900","0.0-300.0","3PXX5PX6LYK8ZRI3OXY0YFX73JOBAR","A2UKIUS36QADNI","37SDSEDIN9ORHL92Y0GV7TIFJ2X187","","611.5","img/flower1.png","74","612.4000000357628","1","1","1","1","1,0.333,0.333,0.333,1,0.333,0.333,0.333,1","1,0.333,0.333,0.333,1,0.333,0.333,0.333,1","1",""
"","html-keyboard-response","301","187202","0.0-301.0","3PXX5PX6LYK8ZRI3OXY0YFX73JOBAR","A2UKIUS36QADNI","37SDSEDIN9ORHL92Y0GV7TIFJ2X187","","null","<img src=""img/flower1.png"" style=""width:200px; border:14px solid green;"">","null","","","","","","","","",""
"","image-keyboard-response","302","187878","0.0-302.0","3PXX5PX6LYK8ZRI3OXY0YFX73JOBAR","A2UKIUS36QADNI","37SDSEDIN9ORHL92Y0GV7TIFJ2X187","","674.1999999880791","img/flower6.png","76","675.7000000476837","3","1","3","1","1,0.333,0.333,0.333,1,0.333,0.333,0.333,1","1,0.333,0.333,0.333,1,0.333,0.333,0.333,1","1",""
"","html-keyboard-response","303","188179","0.0-303.0","3PXX5PX6LYK8ZRI3OXY0YFX73JOBAR","A2UKIUS36QADNI","37SDSEDIN9ORHL92Y0GV7TIFJ2X187","","null","<img src=""img/flower6.png"" style=""width:200px; border:14px solid green;"">","null","","","","","","","","",""
"","image-keyboard-response","304","188769","0.0-304.0","3PXX5PX6LYK8ZRI3OXY0YFX73JOBAR","A2UKIUS36QADNI","37SDSEDIN9ORHL92Y0GV7TIFJ2X187","","588.5","img/flower1.png","74","589.1999999880791","1","1","1","1","1,0.333,0.333,0.333,1,0.333,0.333,0.333,1","1,0.333,0.333,0.333,1,0.333,0.333,0.333,1","1",""
"","html-keyboard-response","305","189070","0.0-305.0","3PXX5PX6LYK8ZRI3OXY0YFX73JOBAR","A2UKIUS36QADNI","37SDSEDIN9ORHL92Y0GV7TIFJ2X187","","null","<img src=""img/flower1.png"" style=""width:200px; border:14px solid green;"">","null","","","","","","","","",""
"","image-keyboard-response","306","189809","0.0-306.0","3PXX5PX6LYK8ZRI3OXY0YFX73JOBAR","A2UKIUS36QADNI","37SDSEDIN9ORHL92Y0GV7TIFJ2X187","","737.6999999880791","img/flower6.png","76","738.5","3","1","3","1","1,0.333,0.333,0.333,1,0.333,0.333,0.333,1","1,0.333,0.333,0.333,1,0.333,0.333,0.333,1","1",""
"","html-keyboard-response","307","190111","0.0-307.0","3PXX5PX6LYK8ZRI3OXY0YFX73JOBAR","A2UKIUS36QADNI","37SDSEDIN9ORHL92Y0GV7TIFJ2X187","","null","<img src=""img/flower6.png"" style=""width:200px; border:14px solid green;"">","null","","","","","","","","",""
"","image-keyboard-response","308","190655","0.0-308.0","3PXX5PX6LYK8ZRI3OXY0YFX73JOBAR","A2UKIUS36QADNI","37SDSEDIN9ORHL92Y0GV7TIFJ2X187","","542.5999999642372","img/flower4.png","75","543.8999999761581","2","1","2","1","1,0.333,0.333,0.333,1,0.333,0.333,0.333,1","1,0.333,0.333,0.333,1,0.333,0.333,0.333,1","1",""
"","html-keyboard-response","309","190969","0.0-309.0","3PXX5PX6LYK8ZRI3OXY0YFX73JOBAR","A2UKIUS36QADNI","37SDSEDIN9ORHL92Y0GV7TIFJ2X187","","null","<img src=""img/flower4.png"" style=""width:200px; border:14px solid green;"">","null","","","","","","","","",""
"","image-keyboard-response","310","191460","0.0-310.0","3PXX5PX6LYK8ZRI3OXY0YFX73JOBAR","A2UKIUS36QADNI","37SDSEDIN9ORHL92Y0GV7TIFJ2X187","","489.5","img/flower4.png","75","490.5","2","1","2","1","1,0.333,0.333,0.333,1,0.333,0.333,0.333,1","1,0.333,0.333,0.333,1,0.333,0.333,0.333,1","1",""
"","html-keyboard-response","311","191762","0.0-311.0","3PXX5PX6LYK8ZRI3OXY0YFX73JOBAR","A2UKIUS36QADNI","37SDSEDIN9ORHL92Y0GV7TIFJ2X187","","null","<img src=""img/flower4.png"" style=""width:200px; border:14px solid green;"">","null","","","","","","","","",""
"","image-keyboard-response","312","192438","0.0-312.0","3PXX5PX6LYK8ZRI3OXY0YFX73JOBAR","A2UKIUS36QADNI","37SDSEDIN9ORHL92Y0GV7TIFJ2X187","","674.5","img/flower6.png","76","675.4000000357628","3","1","3","1","1,0.333,0.333,0.333,1,0.333,0.333,0.333,1","1,0.333,0.333,0.333,1,0.333,0.333,0.333,1","1",""
"","html-keyboard-response","313","192739","0.0-313.0","3PXX5PX6LYK8ZRI3OXY0YFX73JOBAR","A2UKIUS36QADNI","37SDSEDIN9ORHL92Y0GV7TIFJ2X187","","null","<img src=""img/flower6.png"" style=""width:200px; border:14px solid green;"">","null","","","","","","","","",""
"","image-keyboard-response","314","193400","0.0-314.0","3PXX5PX6LYK8ZRI3OXY0YFX73JOBAR","A2UKIUS36QADNI","37SDSEDIN9ORHL92Y0GV7TIFJ2X187","","660.3000000119209","img/flower4.png","75","661.3000000119209","2","1","2","1","1,0.333,0.333,0.333,1,0.333,0.333,0.333,1","1,0.333,0.333,0.333,1,0.333,0.333,0.333,1","1",""
"","html-keyboard-response","315","193701","0.0-315.0","3PXX5PX6LYK8ZRI3OXY0YFX73JOBAR","A2UKIUS36QADNI","37SDSEDIN9ORHL92Y0GV7TIFJ2X187","","null","<img src=""img/flower4.png"" style=""width:200px; border:14px solid green;"">","null","","","","","","","","",""
"","image-keyboard-response","316","194358","0.0-316.0","3PXX5PX6LYK8ZRI3OXY0YFX73JOBAR","A2UKIUS36QADNI","37SDSEDIN9ORHL92Y0GV7TIFJ2X187","","655.8999999761581","img/flower6.png","76","656.9000000357628","3","1","3","1","1,0.333,0.333,0.333,1,0.333,0.333,0.333,1","1,0.333,0.333,0.333,1,0.333,0.333,0.333,1","1",""
"","html-keyboard-response","317","194660","0.0-317.0","3PXX5PX6LYK8ZRI3OXY0YFX73JOBAR","A2UKIUS36QADNI","37SDSEDIN9ORHL92Y0GV7TIFJ2X187","","null","<img src=""img/flower6.png"" style=""width:200px; border:14px solid green;"">","null","","","","","","","","",""
"","image-keyboard-response","318","195297","0.0-318.0","3PXX5PX6LYK8ZRI3OXY0YFX73JOBAR","A2UKIUS36QADNI","37SDSEDIN9ORHL92Y0GV7TIFJ2X187","","635.5999999642372","img/flower1.png","74","637","1","1","1","1","1,0.333,0.333,0.333,1,0.333,0.333,0.333,1","1,0.333,0.333,0.333,1,0.333,0.333,0.333,1","1",""
"","html-keyboard-response","319","195600","0.0-319.0","3PXX5PX6LYK8ZRI3OXY0YFX73JOBAR","A2UKIUS36QADNI","37SDSEDIN9ORHL92Y0GV7TIFJ2X187","","null","<img src=""img/flower1.png"" style=""width:200px; border:14px solid green;"">","null","","","","","","","","",""
"","image-keyboard-response","320","196232","0.0-320.0","3PXX5PX6LYK8ZRI3OXY0YFX73JOBAR","A2UKIUS36QADNI","37SDSEDIN9ORHL92Y0GV7TIFJ2X187","","631.1999999880791","img/flower4.png","75","631.6999999880791","2","1","2","1","1,0.333,0.333,0.333,1,0.333,0.333,0.333,1","1,0.333,0.333,0.333,1,0.333,0.333,0.333,1","1",""
"","html-keyboard-response","321","196534","0.0-321.0","3PXX5PX6LYK8ZRI3OXY0YFX73JOBAR","A2UKIUS36QADNI","37SDSEDIN9ORHL92Y0GV7TIFJ2X187","","null","<img src=""img/flower4.png"" style=""width:200px; border:14px solid green;"">","null","","","","","","","","",""
"","image-keyboard-response","322","197127","0.0-322.0","3PXX5PX6LYK8ZRI3OXY0YFX73JOBAR","A2UKIUS36QADNI","37SDSEDIN9ORHL92Y0GV7TIFJ2X187","","591.6000000238419","img/flower1.png","74","592.8000000119209","1","1","1","1","1,0.333,0.333,0.333,1,0.333,0.333,0.333,1","1,0.333,0.333,0.333,1,0.333,0.333,0.333,1","1",""
"","html-keyboard-response","323","197429","0.0-323.0","3PXX5PX6LYK8ZRI3OXY0YFX73JOBAR","A2UKIUS36QADNI","37SDSEDIN9ORHL92Y0GV7TIFJ2X187","","null","<img src=""img/flower1.png"" style=""width:200px; border:14px solid green;"">","null","","","","","","","","",""
"","image-keyboard-response","324","198109","0.0-324.0","3PXX5PX6LYK8ZRI3OXY0YFX73JOBAR","A2UKIUS36QADNI","37SDSEDIN9ORHL92Y0GV7TIFJ2X187","","678.8999999761581","img/flower6.png","76","679.7000000476837","3","1","3","1","1,0.333,0.333,0.333,1,0.333,0.333,0.333,1","1,0.333,0.333,0.333,1,0.333,0.333,0.333,1","1",""
"","html-keyboard-response","325","198413","0.0-325.0","3PXX5PX6LYK8ZRI3OXY0YFX73JOBAR","A2UKIUS36QADNI","37SDSEDIN9ORHL92Y0GV7TIFJ2X187","","null","<img src=""img/flower6.png"" style=""width:200px; border:14px solid green;"">","null","","","","","","","","",""
"","image-keyboard-response","326","199082","0.0-326.0","3PXX5PX6LYK8ZRI3OXY0YFX73JOBAR","A2UKIUS36QADNI","37SDSEDIN9ORHL92Y0GV7TIFJ2X187","","668.7999999523163","img/flower6.png","76","669.8000000119209","3","1","3","1","1,0.333,0.333,0.333,1,0.333,0.333,0.333,1","1,0.333,0.333,0.333,1,0.333,0.333,0.333,1","1",""
"","html-keyboard-response","327","199384","0.0-327.0","3PXX5PX6LYK8ZRI3OXY0YFX73JOBAR","A2UKIUS36QADNI","37SDSEDIN9ORHL92Y0GV7TIFJ2X187","","null","<img src=""img/flower6.png"" style=""width:200px; border:14px solid green;"">","null","","","","","","","","",""
"","image-keyboard-response","328","199887","0.0-328.0","3PXX5PX6LYK8ZRI3OXY0YFX73JOBAR","A2UKIUS36QADNI","37SDSEDIN9ORHL92Y0GV7TIFJ2X187","","501.19999998807907","img/flower6.png","76","502.5999999642372","3","1","3","1","1,0.333,0.333,0.333,1,0.333,0.333,0.333,1","1,0.333,0.333,0.333,1,0.333,0.333,0.333,1","1",""
"","html-keyboard-response","329","200188","0.0-329.0","3PXX5PX6LYK8ZRI3OXY0YFX73JOBAR","A2UKIUS36QADNI","37SDSEDIN9ORHL92Y0GV7TIFJ2X187","","null","<img src=""img/flower6.png"" style=""width:200px; border:14px solid green;"">","null","","","","","","","","",""
"","image-keyboard-response","330","200772","0.0-330.0","3PXX5PX6LYK8ZRI3OXY0YFX73JOBAR","A2UKIUS36QADNI","37SDSEDIN9ORHL92Y0GV7TIFJ2X187","","582.4000000357628","img/flower1.png","74","583.2999999523163","1","1","1","1","1,0.333,0.333,0.333,1,0.333,0.333,0.333,1","1,0.333,0.333,0.333,1,0.333,0.333,0.333,1","1",""
"","html-keyboard-response","331","201073","0.0-331.0","3PXX5PX6LYK8ZRI3OXY0YFX73JOBAR","A2UKIUS36QADNI","37SDSEDIN9ORHL92Y0GV7TIFJ2X187","","null","<img src=""img/flower1.png"" style=""width:200px; border:14px solid green;"">","null","","","","","","","","",""
"","image-keyboard-response","332","201555","0.0-332.0","3PXX5PX6LYK8ZRI3OXY0YFX73JOBAR","A2UKIUS36QADNI","37SDSEDIN9ORHL92Y0GV7TIFJ2X187","","480","img/flower1.png","74","481.39999997615814","1","1","1","1","1,0.333,0.333,0.333,1,0.333,0.333,0.333,1","1,0.333,0.333,0.333,1,0.333,0.333,0.333,1","1",""
"","html-keyboard-response","333","201857","0.0-333.0","3PXX5PX6LYK8ZRI3OXY0YFX73JOBAR","A2UKIUS36QADNI","37SDSEDIN9ORHL92Y0GV7TIFJ2X187","","null","<img src=""img/flower1.png"" style=""width:200px; border:14px solid green;"">","null","","","","","","","","",""
"","image-keyboard-response","334","202522","0.0-334.0","3PXX5PX6LYK8ZRI3OXY0YFX73JOBAR","A2UKIUS36QADNI","37SDSEDIN9ORHL92Y0GV7TIFJ2X187","","663.6999999880791","img/flower1.png","74","664.9000000357628","1","1","1","1","1,0.333,0.333,0.333,1,0.333,0.333,0.333,1","1,0.333,0.333,0.333,1,0.333,0.333,0.333,1","1",""
"","html-keyboard-response","335","202823","0.0-335.0","3PXX5PX6LYK8ZRI3OXY0YFX73JOBAR","A2UKIUS36QADNI","37SDSEDIN9ORHL92Y0GV7TIFJ2X187","","null","<img src=""img/flower1.png"" style=""width:200px; border:14px solid green;"">","null","","","","","","","","",""
"","image-keyboard-response","336","203442","0.0-336.0","3PXX5PX6LYK8ZRI3OXY0YFX73JOBAR","A2UKIUS36QADNI","37SDSEDIN9ORHL92Y0GV7TIFJ2X187","","617","img/flower4.png","75","618.1999999880791","2","1","2","1","1,0.333,0.333,0.333,1,0.333,0.333,0.333,1","1,0.333,0.333,0.333,1,0.333,0.333,0.333,1","1",""
"","html-keyboard-response","337","203744","0.0-337.0","3PXX5PX6LYK8ZRI3OXY0YFX73JOBAR","A2UKIUS36QADNI","37SDSEDIN9ORHL92Y0GV7TIFJ2X187","","null","<img src=""img/flower4.png"" style=""width:200px; border:14px solid green;"">","null","","","","","","","","",""
"","image-keyboard-response","338","204412","0.0-338.0","3PXX5PX6LYK8ZRI3OXY0YFX73JOBAR","A2UKIUS36QADNI","37SDSEDIN9ORHL92Y0GV7TIFJ2X187","","666.6000000238419","img/flower6.png","76","667.6999999880791","3","1","3","1","1,0.333,0.333,0.333,1,0.333,0.333,0.333,1","1,0.333,0.333,0.333,1,0.333,0.333,0.333,1","1",""
"","html-keyboard-response","339","204728","0.0-339.0","3PXX5PX6LYK8ZRI3OXY0YFX73JOBAR","A2UKIUS36QADNI","37SDSEDIN9ORHL92Y0GV7TIFJ2X187","","null","<img src=""img/flower6.png"" style=""width:200px; border:14px solid green;"">","null","","","","","","","","",""
"","image-keyboard-response","340","205137","0.0-340.0","3PXX5PX6LYK8ZRI3OXY0YFX73JOBAR","A2UKIUS36QADNI","37SDSEDIN9ORHL92Y0GV7TIFJ2X187","","408.7999999523163","img/flower6.png","76","409.30000001192093","3","1","3","1","1,0.333,0.333,0.333,1,0.333,0.333,0.333,1","1,0.333,0.333,0.333,1,0.333,0.333,0.333,1","1",""
"","html-keyboard-response","341","205440","0.0-341.0","3PXX5PX6LYK8ZRI3OXY0YFX73JOBAR","A2UKIUS36QADNI","37SDSEDIN9ORHL92Y0GV7TIFJ2X187","","null","<img src=""img/flower6.png"" style=""width:200px; border:14px solid green;"">","null","","","","","","","","",""
"","image-keyboard-response","342","205995","0.0-342.0","3PXX5PX6LYK8ZRI3OXY0YFX73JOBAR","A2UKIUS36QADNI","37SDSEDIN9ORHL92Y0GV7TIFJ2X187","","554.3000000119209","img/flower1.png","74","555.5","1","1","1","1","1,0.333,0.333,0.333,1,0.333,0.333,0.333,1","1,0.333,0.333,0.333,1,0.333,0.333,0.333,1","1",""
"","html-keyboard-response","343","206298","0.0-343.0","3PXX5PX6LYK8ZRI3OXY0YFX73JOBAR","A2UKIUS36QADNI","37SDSEDIN9ORHL92Y0GV7TIFJ2X187","","null","<img src=""img/flower1.png"" style=""width:200px; border:14px solid green;"">","null","","","","","","","","",""
"","image-keyboard-response","344","206872","0.0-344.0","3PXX5PX6LYK8ZRI3OXY0YFX73JOBAR","A2UKIUS36QADNI","37SDSEDIN9ORHL92Y0GV7TIFJ2X187","","572.8000000119209","img/flower6.png","76","573.9000000357628","3","1","3","1","1,0.333,0.333,0.333,1,0.333,0.333,0.333,1","1,0.333,0.333,0.333,1,0.333,0.333,0.333,1","1",""
"","html-keyboard-response","345","207174","0.0-345.0","3PXX5PX6LYK8ZRI3OXY0YFX73JOBAR","A2UKIUS36QADNI","37SDSEDIN9ORHL92Y0GV7TIFJ2X187","","null","<img src=""img/flower6.png"" style=""width:200px; border:14px solid green;"">","null","","","","","","","","",""
"","image-keyboard-response","346","207713","0.0-346.0","3PXX5PX6LYK8ZRI3OXY0YFX73JOBAR","A2UKIUS36QADNI","37SDSEDIN9ORHL92Y0GV7TIFJ2X187","","538","img/flower6.png","76","539.1000000238419","3","1","3","1","1,0.333,0.333,0.333,1,0.333,0.333,0.333,1","1,0.333,0.333,0.333,1,0.333,0.333,0.333,1","1",""
"","html-keyboard-response","347","208016","0.0-347.0","3PXX5PX6LYK8ZRI3OXY0YFX73JOBAR","A2UKIUS36QADNI","37SDSEDIN9ORHL92Y0GV7TIFJ2X187","","null","<img src=""img/flower6.png"" style=""width:200px; border:14px solid green;"">","null","","","","","","","","",""
"","image-keyboard-response","348","208719","0.0-348.0","3PXX5PX6LYK8ZRI3OXY0YFX73JOBAR","A2UKIUS36QADNI","37SDSEDIN9ORHL92Y0GV7TIFJ2X187","","702","img/flower4.png","75","703.4000000357628","2","1","2","1","1,0.333,0.333,0.333,1,0.333,0.333,0.333,1","1,0.333,0.333,0.333,1,0.333,0.333,0.333,1","1",""
"","html-keyboard-response","349","209023","0.0-349.0","3PXX5PX6LYK8ZRI3OXY0YFX73JOBAR","A2UKIUS36QADNI","37SDSEDIN9ORHL92Y0GV7TIFJ2X187","","null","<img src=""img/flower4.png"" style=""width:200px; border:14px solid green;"">","null","","","","","","","","",""
"","image-keyboard-response","350","209638","0.0-350.0","3PXX5PX6LYK8ZRI3OXY0YFX73JOBAR","A2UKIUS36QADNI","37SDSEDIN9ORHL92Y0GV7TIFJ2X187","","613.2999999523163","img/flower6.png","76","614.8000000119209","3","1","3","1","1,0.333,0.333,0.333,1,0.333,0.333,0.333,1","1,0.333,0.333,0.333,1,0.333,0.333,0.333,1","1",""
"","html-keyboard-response","351","209940","0.0-351.0","3PXX5PX6LYK8ZRI3OXY0YFX73JOBAR","A2UKIUS36QADNI","37SDSEDIN9ORHL92Y0GV7TIFJ2X187","","null","<img src=""img/flower6.png"" style=""width:200px; border:14px solid green;"">","null","","","","","","","","",""
"","image-keyboard-response","352","210510","0.0-352.0","3PXX5PX6LYK8ZRI3OXY0YFX73JOBAR","A2UKIUS36QADNI","37SDSEDIN9ORHL92Y0GV7TIFJ2X187","","568.6000000238419","img/flower6.png","76","569.6000000238419","3","1","3","1","1,0.333,0.333,0.333,1,0.333,0.333,0.333,1","1,0.333,0.333,0.333,1,0.333,0.333,0.333,1","1",""
"","html-keyboard-response","353","210812","0.0-353.0","3PXX5PX6LYK8ZRI3OXY0YFX73JOBAR","A2UKIUS36QADNI","37SDSEDIN9ORHL92Y0GV7TIFJ2X187","","null","<img src=""img/flower6.png"" style=""width:200px; border:14px solid green;"">","null","","","","","","","","",""
"","image-keyboard-response","354","211413","0.0-354.0","3PXX5PX6LYK8ZRI3OXY0YFX73JOBAR","A2UKIUS36QADNI","37SDSEDIN9ORHL92Y0GV7TIFJ2X187","","599.1000000238419","img/flower4.png","75","600","2","1","2","1","1,0.333,0.333,0.333,1,0.333,0.333,0.333,1","1,0.333,0.333,0.333,1,0.333,0.333,0.333,1","1",""
"","html-keyboard-response","355","211715","0.0-355.0","3PXX5PX6LYK8ZRI3OXY0YFX73JOBAR","A2UKIUS36QADNI","37SDSEDIN9ORHL92Y0GV7TIFJ2X187","","null","<img src=""img/flower4.png"" style=""width:200px; border:14px solid green;"">","null","","","","","","","","",""
"","image-keyboard-response","356","212234","0.0-356.0","3PXX5PX6LYK8ZRI3OXY0YFX73JOBAR","A2UKIUS36QADNI","37SDSEDIN9ORHL92Y0GV7TIFJ2X187","","518.6999999880791","img/flower4.png","75","519.4000000357628","2","1","2","1","1,0.333,0.333,0.333,1,0.333,0.333,0.333,1","1,0.333,0.333,0.333,1,0.333,0.333,0.333,1","1",""
"","html-keyboard-response","357","212536","0.0-357.0","3PXX5PX6LYK8ZRI3OXY0YFX73JOBAR","A2UKIUS36QADNI","37SDSEDIN9ORHL92Y0GV7TIFJ2X187","","null","<img src=""img/flower4.png"" style=""width:200px; border:14px solid green;"">","null","","","","","","","","",""
"","image-keyboard-response","358","213041","0.0-358.0","3PXX5PX6LYK8ZRI3OXY0YFX73JOBAR","A2UKIUS36QADNI","37SDSEDIN9ORHL92Y0GV7TIFJ2X187","","504.19999998807907","img/flower4.png","75","505.0999999642372","2","1","2","1","1,0.333,0.333,0.333,1,0.333,0.333,0.333,1","1,0.333,0.333,0.333,1,0.333,0.333,0.333,1","1",""
"","html-keyboard-response","359","213342","0.0-359.0","3PXX5PX6LYK8ZRI3OXY0YFX73JOBAR","A2UKIUS36QADNI","37SDSEDIN9ORHL92Y0GV7TIFJ2X187","","null","<img src=""img/flower4.png"" style=""width:200px; border:14px solid green;"">","null","","","","","","","","",""
"","image-keyboard-response","360","214000","0.0-360.0","3PXX5PX6LYK8ZRI3OXY0YFX73JOBAR","A2UKIUS36QADNI","37SDSEDIN9ORHL92Y0GV7TIFJ2X187","","656.3999999761581","img/flower1.png","74","657.3999999761581","1","1","1","1","1,0.333,0.333,0.333,1,0.333,0.333,0.333,1","1,0.333,0.333,0.333,1,0.333,0.333,0.333,1","1",""
"","html-keyboard-response","361","214301","0.0-361.0","3PXX5PX6LYK8ZRI3OXY0YFX73JOBAR","A2UKIUS36QADNI","37SDSEDIN9ORHL92Y0GV7TIFJ2X187","","null","<img src=""img/flower1.png"" style=""width:200px; border:14px solid green;"">","null","","","","","","","","",""
"","html-keyboard-response","362","216600","0.0-362.0","3PXX5PX6LYK8ZRI3OXY0YFX73JOBAR","A2UKIUS36QADNI","37SDSEDIN9ORHL92Y0GV7TIFJ2X187","","","","","","","","","","","","",""
"","instructions","363","218551","0.0-363.0","3PXX5PX6LYK8ZRI3OXY0YFX73JOBAR","A2UKIUS36QADNI","37SDSEDIN9ORHL92Y0GV7TIFJ2X187","[{""page_index"":0,""viewing_time"":1950.300000011921}]","1950.3999999761581","","","","","","","","","","",""
