"rt","url","trial_type","trial_index","time_elapsed","internal_node_id","assignmentID","mturkID","hitID","success","view_history","stimulus","key_press","reactionTime","chosenAction","reward","responses"
"15140.59999999404","consent.html","external-html","0","15200","0.0-0.0","3ZWFC4W1UVTQBPG0VA6ICVD2E4ORFF","A2V6E7SGEU0EFD","3LN3BXKGC0HZB1VNEMH4SWP73O3GW1","","","","","","","",""
"","","fullscreen","1","17757","0.0-1.0","3ZWFC4W1UVTQBPG0VA6ICVD2E4ORFF","A2V6E7SGEU0EFD","3LN3BXKGC0HZB1VNEMH4SWP73O3GW1","true","","","","","","",""
"432126.799999997","","instructions","2","449885","0.0-2.0","3ZWFC4W1UVTQBPG0VA6ICVD2E4ORFF","A2V6E7SGEU0EFD","3LN3BXKGC0HZB1VNEMH4SWP73O3GW1","","[{""page_index"":0,""viewing_time"":248802.29999999702},{""page_index"":1,""viewing_time"":4647.80000000447},{""page_index"":2,""viewing_time"":81518.89999999851},{""page_index"":3,""viewing_time"":7562.39999999851},{""page_index"":4,""viewing_time"":38126.39999999851},{""page_index"":5,""viewing_time"":12704.60000000149},{""page_index"":6,""viewing_time"":38763.39999999851}]","","","","","",""
"17869.60000000149","","instructions","3","467755","0.0-3.0","3ZWFC4W1UVTQBPG0VA6ICVD2E4ORFF","A2V6E7SGEU0EFD","3LN3BXKGC0HZB1VNEMH4SWP73O3GW1","","[{""page_index"":0,""viewing_time"":17869.30000000447}]","","","","","",""
"2228.3000000044703","","image-keyboard-response","4","469986","0.0-4.0","3ZWFC4W1UVTQBPG0VA6ICVD2E4ORFF","A2V6E7SGEU0EFD","3LN3BXKGC0HZB1VNEMH4SWP73O3GW1","","","img/flower4.png","74","2229.60000000149","74","0",""
"null","","html-keyboard-response","5","470288","0.0-5.0","3ZWFC4W1UVTQBPG0VA6ICVD2E4ORFF","A2V6E7SGEU0EFD","3LN3BXKGC0HZB1VNEMH4SWP73O3GW1","","","<img src=""img/flower4.png"" style=""width:200px;border:14px solid red;"">","null","","","",""
"2463.7999999970198","","image-keyboard-response","6","472754","0.0-6.0","3ZWFC4W1UVTQBPG0VA6ICVD2E4ORFF","A2V6E7SGEU0EFD","3LN3BXKGC0HZB1VNEMH4SWP73O3GW1","","","img/flower5.png","75","2466","75","1",""
"null","","html-keyboard-response","7","473058","0.0-7.0","3ZWFC4W1UVTQBPG0VA6ICVD2E4ORFF","A2V6E7SGEU0EFD","3LN3BXKGC0HZB1VNEMH4SWP73O3GW1","","","<img src=""img/flower5.png"" style=""width:200px; border:14px solid green;"">","null","","","",""
"895.2999999970198","","image-keyboard-response","8","473955","0.0-8.0","3ZWFC4W1UVTQBPG0VA6ICVD2E4ORFF","A2V6E7SGEU0EFD","3LN3BXKGC0HZB1VNEMH4SWP73O3GW1","","","img/flower6.png","76","897.1000000014901","76","0",""
"null","","html-keyboard-response","9","474258","0.0-9.0","3ZWFC4W1UVTQBPG0VA6ICVD2E4ORFF","A2V6E7SGEU0EFD","3LN3BXKGC0HZB1VNEMH4SWP73O3GW1","","","<img src=""img/flower6.png"" style=""width:200px;border:14px solid red;"">","null","","","",""
"2297.60000000149","","image-keyboard-response","10","476557","0.0-10.0","3ZWFC4W1UVTQBPG0VA6ICVD2E4ORFF","A2V6E7SGEU0EFD","3LN3BXKGC0HZB1VNEMH4SWP73O3GW1","","","img/flower6.png","76","2299","76","0",""
"null","","html-keyboard-response","11","476859","0.0-11.0","3ZWFC4W1UVTQBPG0VA6ICVD2E4ORFF","A2V6E7SGEU0EFD","3LN3BXKGC0HZB1VNEMH4SWP73O3GW1","","","<img src=""img/flower6.png"" style=""width:200px;border:14px solid red;"">","null","","","",""
"497.20000000298023","","image-keyboard-response","12","477357","0.0-12.0","3ZWFC4W1UVTQBPG0VA6ICVD2E4ORFF","A2V6E7SGEU0EFD","3LN3BXKGC0HZB1VNEMH4SWP73O3GW1","","","img/flower6.png","75","498.19999999552965","75","0",""
"null","","html-keyboard-response","13","477659","0.0-13.0","3ZWFC4W1UVTQBPG0VA6ICVD2E4ORFF","A2V6E7SGEU0EFD","3LN3BXKGC0HZB1VNEMH4SWP73O3GW1","","","<img src=""img/flower6.png"" style=""width:200px;border:14px solid red;"">","null","","","",""
"200.89999999850988","","image-keyboard-response","14","477862","0.0-14.0","3ZWFC4W1UVTQBPG0VA6ICVD2E4ORFF","A2V6E7SGEU0EFD","3LN3BXKGC0HZB1VNEMH4SWP73O3GW1","","","img/flower4.png","74","202.29999999701977","74","1",""
"null","","html-keyboard-response","15","478163","0.0-15.0","3ZWFC4W1UVTQBPG0VA6ICVD2E4ORFF","A2V6E7SGEU0EFD","3LN3BXKGC0HZB1VNEMH4SWP73O3GW1","","","<img src=""img/flower4.png"" style=""width:200px; border:14px solid green;"">","null","","","",""
"1296","","image-keyboard-response","16","479460","0.0-16.0","3ZWFC4W1UVTQBPG0VA6ICVD2E4ORFF","A2V6E7SGEU0EFD","3LN3BXKGC0HZB1VNEMH4SWP73O3GW1","","","img/flower5.png","75","1296.8999999985099","75","1",""
"null","","html-keyboard-response","17","479763","0.0-17.0","3ZWFC4W1UVTQBPG0VA6ICVD2E4ORFF","A2V6E7SGEU0EFD","3LN3BXKGC0HZB1VNEMH4SWP73O3GW1","","","<img src=""img/flower5.png"" style=""width:200px; border:14px solid green;"">","null","","","",""
"426.59999999403954","","image-keyboard-response","18","480191","0.0-18.0","3ZWFC4W1UVTQBPG0VA6ICVD2E4ORFF","A2V6E7SGEU0EFD","3LN3BXKGC0HZB1VNEMH4SWP73O3GW1","","","img/flower5.png","76","428.1000000014901","76","0",""
"null","","html-keyboard-response","19","480493","0.0-19.0","3ZWFC4W1UVTQBPG0VA6ICVD2E4ORFF","A2V6E7SGEU0EFD","3LN3BXKGC0HZB1VNEMH4SWP73O3GW1","","","<img src=""img/flower5.png"" style=""width:200px;border:14px solid red;"">","null","","","",""
"864.1000000014901","","image-keyboard-response","20","481359","0.0-20.0","3ZWFC4W1UVTQBPG0VA6ICVD2E4ORFF","A2V6E7SGEU0EFD","3LN3BXKGC0HZB1VNEMH4SWP73O3GW1","","","img/flower4.png","76","865.6000000014901","76","0",""
"null","","html-keyboard-response","21","481661","0.0-21.0","3ZWFC4W1UVTQBPG0VA6ICVD2E4ORFF","A2V6E7SGEU0EFD","3LN3BXKGC0HZB1VNEMH4SWP73O3GW1","","","<img src=""img/flower4.png"" style=""width:200px;border:14px solid red;"">","null","","","",""
"829.8999999985099","","image-keyboard-response","22","482492","0.0-22.0","3ZWFC4W1UVTQBPG0VA6ICVD2E4ORFF","A2V6E7SGEU0EFD","3LN3BXKGC0HZB1VNEMH4SWP73O3GW1","","","img/flower6.png","76","830.5999999940395","76","1",""
"null","","html-keyboard-response","23","482793","0.0-23.0","3ZWFC4W1UVTQBPG0VA6ICVD2E4ORFF","A2V6E7SGEU0EFD","3LN3BXKGC0HZB1VNEMH4SWP73O3GW1","","","<img src=""img/flower6.png"" style=""width:200px; border:14px solid green;"">","null","","","",""
"1108.2999999970198","","image-keyboard-response","24","483902","0.0-24.0","3ZWFC4W1UVTQBPG0VA6ICVD2E4ORFF","A2V6E7SGEU0EFD","3LN3BXKGC0HZB1VNEMH4SWP73O3GW1","","","img/flower5.png","75","1109.1000000014901","75","1",""
"null","","html-keyboard-response","25","484204","0.0-25.0","3ZWFC4W1UVTQBPG0VA6ICVD2E4ORFF","A2V6E7SGEU0EFD","3LN3BXKGC0HZB1VNEMH4SWP73O3GW1","","","<img src=""img/flower5.png"" style=""width:200px; border:14px solid green;"">","null","","","",""
"641.8000000044703","","image-keyboard-response","26","484846","0.0-26.0","3ZWFC4W1UVTQBPG0VA6ICVD2E4ORFF","A2V6E7SGEU0EFD","3LN3BXKGC0HZB1VNEMH4SWP73O3GW1","","","img/flower5.png","75","642.6999999955297","75","1",""
"null","","html-keyboard-response","27","485148","0.0-27.0","3ZWFC4W1UVTQBPG0VA6ICVD2E4ORFF","A2V6E7SGEU0EFD","3LN3BXKGC0HZB1VNEMH4SWP73O3GW1","","","<img src=""img/flower5.png"" style=""width:200px; border:14px solid green;"">","null","","","",""
"706.2000000029802","","image-keyboard-response","28","485855","0.0-28.0","3ZWFC4W1UVTQBPG0VA6ICVD2E4ORFF","A2V6E7SGEU0EFD","3LN3BXKGC0HZB1VNEMH4SWP73O3GW1","","","img/flower4.png","74","706.8999999985099","74","0",""
"null","","html-keyboard-response","29","486158","0.0-29.0","3ZWFC4W1UVTQBPG0VA6ICVD2E4ORFF","A2V6E7SGEU0EFD","3LN3BXKGC0HZB1VNEMH4SWP73O3GW1","","","<img src=""img/flower4.png"" style=""width:200px;border:14px solid red;"">","null","","","",""
"765.6999999955297","","image-keyboard-response","30","486924","0.0-30.0","3ZWFC4W1UVTQBPG0VA6ICVD2E4ORFF","A2V6E7SGEU0EFD","3LN3BXKGC0HZB1VNEMH4SWP73O3GW1","","","img/flower5.png","75","766.5","75","1",""
"null","","html-keyboard-response","31","487226","0.0-31.0","3ZWFC4W1UVTQBPG0VA6ICVD2E4ORFF","A2V6E7SGEU0EFD","3LN3BXKGC0HZB1VNEMH4SWP73O3GW1","","","<img src=""img/flower5.png"" style=""width:200px; border:14px solid green;"">","null","","","",""
"618.7999999970198","","image-keyboard-response","32","487846","0.0-32.0","3ZWFC4W1UVTQBPG0VA6ICVD2E4ORFF","A2V6E7SGEU0EFD","3LN3BXKGC0HZB1VNEMH4SWP73O3GW1","","","img/flower5.png","75","619.7000000029802","75","1",""
"null","","html-keyboard-response","33","488148","0.0-33.0","3ZWFC4W1UVTQBPG0VA6ICVD2E4ORFF","A2V6E7SGEU0EFD","3LN3BXKGC0HZB1VNEMH4SWP73O3GW1","","","<img src=""img/flower5.png"" style=""width:200px; border:14px solid green;"">","null","","","",""
"1114","","image-keyboard-response","34","489264","0.0-34.0","3ZWFC4W1UVTQBPG0VA6ICVD2E4ORFF","A2V6E7SGEU0EFD","3LN3BXKGC0HZB1VNEMH4SWP73O3GW1","","","img/flower4.png","74","1115.3000000044703","74","1",""
"null","","html-keyboard-response","35","489565","0.0-35.0","3ZWFC4W1UVTQBPG0VA6ICVD2E4ORFF","A2V6E7SGEU0EFD","3LN3BXKGC0HZB1VNEMH4SWP73O3GW1","","","<img src=""img/flower4.png"" style=""width:200px; border:14px solid green;"">","null","","","",""
"723.2999999970198","","image-keyboard-response","36","490289","0.0-36.0","3ZWFC4W1UVTQBPG0VA6ICVD2E4ORFF","A2V6E7SGEU0EFD","3LN3BXKGC0HZB1VNEMH4SWP73O3GW1","","","img/flower6.png","76","724","76","1",""
"null","","html-keyboard-response","37","490590","0.0-37.0","3ZWFC4W1UVTQBPG0VA6ICVD2E4ORFF","A2V6E7SGEU0EFD","3LN3BXKGC0HZB1VNEMH4SWP73O3GW1","","","<img src=""img/flower6.png"" style=""width:200px; border:14px solid green;"">","null","","","",""
"617","","image-keyboard-response","38","491208","0.0-38.0","3ZWFC4W1UVTQBPG0VA6ICVD2E4ORFF","A2V6E7SGEU0EFD","3LN3BXKGC0HZB1VNEMH4SWP73O3GW1","","","img/flower6.png","76","617.8999999985099","76","1",""
"null","","html-keyboard-response","39","491510","0.0-39.0","3ZWFC4W1UVTQBPG0VA6ICVD2E4ORFF","A2V6E7SGEU0EFD","3LN3BXKGC0HZB1VNEMH4SWP73O3GW1","","","<img src=""img/flower6.png"" style=""width:200px; border:14px solid green;"">","null","","","",""
"486.29999999701977","","image-keyboard-response","40","491998","0.0-40.0","3ZWFC4W1UVTQBPG0VA6ICVD2E4ORFF","A2V6E7SGEU0EFD","3LN3BXKGC0HZB1VNEMH4SWP73O3GW1","","","img/flower6.png","76","487.5","76","1",""
"null","","html-keyboard-response","41","492299","0.0-41.0","3ZWFC4W1UVTQBPG0VA6ICVD2E4ORFF","A2V6E7SGEU0EFD","3LN3BXKGC0HZB1VNEMH4SWP73O3GW1","","","<img src=""img/flower6.png"" style=""width:200px; border:14px solid green;"">","null","","","",""
"1161","","image-keyboard-response","42","493461","0.0-42.0","3ZWFC4W1UVTQBPG0VA6ICVD2E4ORFF","A2V6E7SGEU0EFD","3LN3BXKGC0HZB1VNEMH4SWP73O3GW1","","","img/flower4.png","74","1161.8999999985099","74","1",""
"null","","html-keyboard-response","43","493763","0.0-43.0","3ZWFC4W1UVTQBPG0VA6ICVD2E4ORFF","A2V6E7SGEU0EFD","3LN3BXKGC0HZB1VNEMH4SWP73O3GW1","","","<img src=""img/flower4.png"" style=""width:200px; border:14px solid green;"">","null","","","",""
"362.20000000298023","","image-keyboard-response","44","494126","0.0-44.0","3ZWFC4W1UVTQBPG0VA6ICVD2E4ORFF","A2V6E7SGEU0EFD","3LN3BXKGC0HZB1VNEMH4SWP73O3GW1","","","img/flower4.png","74","363.1000000014901","74","1",""
"null","","html-keyboard-response","45","494428","0.0-45.0","3ZWFC4W1UVTQBPG0VA6ICVD2E4ORFF","A2V6E7SGEU0EFD","3LN3BXKGC0HZB1VNEMH4SWP73O3GW1","","","<img src=""img/flower4.png"" style=""width:200px; border:14px solid green;"">","null","","","",""
"588.1000000014901","","image-keyboard-response","46","495017","0.0-46.0","3ZWFC4W1UVTQBPG0VA6ICVD2E4ORFF","A2V6E7SGEU0EFD","3LN3BXKGC0HZB1VNEMH4SWP73O3GW1","","","img/flower5.png","75","588.8999999985099","75","1",""
"null","","html-keyboard-response","47","495319","0.0-47.0","3ZWFC4W1UVTQBPG0VA6ICVD2E4ORFF","A2V6E7SGEU0EFD","3LN3BXKGC0HZB1VNEMH4SWP73O3GW1","","","<img src=""img/flower5.png"" style=""width:200px; border:14px solid green;"">","null","","","",""
"715.1000000014901","","image-keyboard-response","48","496035","0.0-48.0","3ZWFC4W1UVTQBPG0VA6ICVD2E4ORFF","A2V6E7SGEU0EFD","3LN3BXKGC0HZB1VNEMH4SWP73O3GW1","","","img/flower4.png","74","715.8999999985099","74","1",""
"null","","html-keyboard-response","49","496337","0.0-49.0","3ZWFC4W1UVTQBPG0VA6ICVD2E4ORFF","A2V6E7SGEU0EFD","3LN3BXKGC0HZB1VNEMH4SWP73O3GW1","","","<img src=""img/flower4.png"" style=""width:200px; border:14px solid green;"">","null","","","",""
"500.69999999552965","","image-keyboard-response","50","496839","0.0-50.0","3ZWFC4W1UVTQBPG0VA6ICVD2E4ORFF","A2V6E7SGEU0EFD","3LN3BXKGC0HZB1VNEMH4SWP73O3GW1","","","img/flower5.png","75","501.3999999985099","75","1",""
"null","","html-keyboard-response","51","497140","0.0-51.0","3ZWFC4W1UVTQBPG0VA6ICVD2E4ORFF","A2V6E7SGEU0EFD","3LN3BXKGC0HZB1VNEMH4SWP73O3GW1","","","<img src=""img/flower5.png"" style=""width:200px; border:14px solid green;"">","null","","","",""
"593.5999999940395","","image-keyboard-response","52","497736","0.0-52.0","3ZWFC4W1UVTQBPG0VA6ICVD2E4ORFF","A2V6E7SGEU0EFD","3LN3BXKGC0HZB1VNEMH4SWP73O3GW1","","","img/flower5.png","75","595.2000000029802","75","1",""
"null","","html-keyboard-response","53","498037","0.0-53.0","3ZWFC4W1UVTQBPG0VA6ICVD2E4ORFF","A2V6E7SGEU0EFD","3LN3BXKGC0HZB1VNEMH4SWP73O3GW1","","","<img src=""img/flower5.png"" style=""width:200px; border:14px solid green;"">","null","","","",""
"593.6000000014901","","image-keyboard-response","54","498632","0.0-54.0","3ZWFC4W1UVTQBPG0VA6ICVD2E4ORFF","A2V6E7SGEU0EFD","3LN3BXKGC0HZB1VNEMH4SWP73O3GW1","","","img/flower6.png","76","594.6000000014901","76","1",""
"null","","html-keyboard-response","55","498933","0.0-55.0","3ZWFC4W1UVTQBPG0VA6ICVD2E4ORFF","A2V6E7SGEU0EFD","3LN3BXKGC0HZB1VNEMH4SWP73O3GW1","","","<img src=""img/flower6.png"" style=""width:200px; border:14px solid green;"">","null","","","",""
"411.79999999701977","","image-keyboard-response","56","499346","0.0-56.0","3ZWFC4W1UVTQBPG0VA6ICVD2E4ORFF","A2V6E7SGEU0EFD","3LN3BXKGC0HZB1VNEMH4SWP73O3GW1","","","img/flower6.png","76","412.6000000014901","76","1",""
"null","","html-keyboard-response","57","499647","0.0-57.0","3ZWFC4W1UVTQBPG0VA6ICVD2E4ORFF","A2V6E7SGEU0EFD","3LN3BXKGC0HZB1VNEMH4SWP73O3GW1","","","<img src=""img/flower6.png"" style=""width:200px; border:14px solid green;"">","null","","","",""
"709.8999999985099","","image-keyboard-response","58","500358","0.0-58.0","3ZWFC4W1UVTQBPG0VA6ICVD2E4ORFF","A2V6E7SGEU0EFD","3LN3BXKGC0HZB1VNEMH4SWP73O3GW1","","","img/flower4.png","74","710.6000000014901","74","0",""
"null","","html-keyboard-response","59","500674","0.0-59.0","3ZWFC4W1UVTQBPG0VA6ICVD2E4ORFF","A2V6E7SGEU0EFD","3LN3BXKGC0HZB1VNEMH4SWP73O3GW1","","","<img src=""img/flower4.png"" style=""width:200px;border:14px solid red;"">","null","","","",""
"568.5","","image-keyboard-response","60","501244","0.0-60.0","3ZWFC4W1UVTQBPG0VA6ICVD2E4ORFF","A2V6E7SGEU0EFD","3LN3BXKGC0HZB1VNEMH4SWP73O3GW1","","","img/flower4.png","74","569.3000000044703","74","1",""
"null","","html-keyboard-response","61","501546","0.0-61.0","3ZWFC4W1UVTQBPG0VA6ICVD2E4ORFF","A2V6E7SGEU0EFD","3LN3BXKGC0HZB1VNEMH4SWP73O3GW1","","","<img src=""img/flower4.png"" style=""width:200px; border:14px solid green;"">","null","","","",""
"730.2999999970198","","image-keyboard-response","62","502277","0.0-62.0","3ZWFC4W1UVTQBPG0VA6ICVD2E4ORFF","A2V6E7SGEU0EFD","3LN3BXKGC0HZB1VNEMH4SWP73O3GW1","","","img/flower6.png","76","731.1000000014901","76","1",""
"null","","html-keyboard-response","63","502580","0.0-63.0","3ZWFC4W1UVTQBPG0VA6ICVD2E4ORFF","A2V6E7SGEU0EFD","3LN3BXKGC0HZB1VNEMH4SWP73O3GW1","","","<img src=""img/flower6.png"" style=""width:200px; border:14px solid green;"">","null","","","",""
"9463.10000000149","","instructions","64","512044","0.0-64.0","3ZWFC4W1UVTQBPG0VA6ICVD2E4ORFF","A2V6E7SGEU0EFD","3LN3BXKGC0HZB1VNEMH4SWP73O3GW1","","[{""page_index"":0,""viewing_time"":3355.9000000059605},{""page_index"":1,""viewing_time"":6106.89999999851}]","","","","","",""
"2468.3000000044703","","image-keyboard-response","65","514513","0.0-65.0","3ZWFC4W1UVTQBPG0VA6ICVD2E4ORFF","A2V6E7SGEU0EFD","3LN3BXKGC0HZB1VNEMH4SWP73O3GW1","","","img/flower4.png","74","2469.2000000029802","74","1",""
"null","","html-keyboard-response","66","514815","0.0-66.0","3ZWFC4W1UVTQBPG0VA6ICVD2E4ORFF","A2V6E7SGEU0EFD","3LN3BXKGC0HZB1VNEMH4SWP73O3GW1","","","<img src=""img/flower4.png"" style=""width:200px; border:14px solid green;"">","null","","","",""
"1013.7999999970198","","image-keyboard-response","67","515830","0.0-67.0","3ZWFC4W1UVTQBPG0VA6ICVD2E4ORFF","A2V6E7SGEU0EFD","3LN3BXKGC0HZB1VNEMH4SWP73O3GW1","","","img/flower6.png","76","1014.5999999940395","76","0",""
"null","","html-keyboard-response","68","516132","0.0-68.0","3ZWFC4W1UVTQBPG0VA6ICVD2E4ORFF","A2V6E7SGEU0EFD","3LN3BXKGC0HZB1VNEMH4SWP73O3GW1","","","<img src=""img/flower6.png"" style=""width:200px;border:14px solid red;"">","null","","","",""
"2326.39999999851","","image-keyboard-response","69","518460","0.0-69.0","3ZWFC4W1UVTQBPG0VA6ICVD2E4ORFF","A2V6E7SGEU0EFD","3LN3BXKGC0HZB1VNEMH4SWP73O3GW1","","","img/flower5.png","75","2327.2000000029802","75","1",""
"null","","html-keyboard-response","70","518761","0.0-70.0","3ZWFC4W1UVTQBPG0VA6ICVD2E4ORFF","A2V6E7SGEU0EFD","3LN3BXKGC0HZB1VNEMH4SWP73O3GW1","","","<img src=""img/flower5.png"" style=""width:200px; border:14px solid green;"">","null","","","",""
"2011","","image-keyboard-response","71","520774","0.0-71.0","3ZWFC4W1UVTQBPG0VA6ICVD2E4ORFF","A2V6E7SGEU0EFD","3LN3BXKGC0HZB1VNEMH4SWP73O3GW1","","","img/flower6.png","74","2012.2999999970198","74","1",""
"null","","html-keyboard-response","72","521076","0.0-72.0","3ZWFC4W1UVTQBPG0VA6ICVD2E4ORFF","A2V6E7SGEU0EFD","3LN3BXKGC0HZB1VNEMH4SWP73O3GW1","","","<img src=""img/flower6.png"" style=""width:200px; border:14px solid green;"">","null","","","",""
"1726.7999999970198","","image-keyboard-response","73","522804","0.0-73.0","3ZWFC4W1UVTQBPG0VA6ICVD2E4ORFF","A2V6E7SGEU0EFD","3LN3BXKGC0HZB1VNEMH4SWP73O3GW1","","","img/flower4.png","75","1728.2000000029802","75","1",""
"null","","html-keyboard-response","74","523105","0.0-74.0","3ZWFC4W1UVTQBPG0VA6ICVD2E4ORFF","A2V6E7SGEU0EFD","3LN3BXKGC0HZB1VNEMH4SWP73O3GW1","","","<img src=""img/flower4.png"" style=""width:200px; border:14px solid green;"">","null","","","",""
"1204.7000000029802","","image-keyboard-response","75","524311","0.0-75.0","3ZWFC4W1UVTQBPG0VA6ICVD2E4ORFF","A2V6E7SGEU0EFD","3LN3BXKGC0HZB1VNEMH4SWP73O3GW1","","","img/flower6.png","74","1205.6000000014901","74","1",""
"null","","html-keyboard-response","76","524613","0.0-76.0","3ZWFC4W1UVTQBPG0VA6ICVD2E4ORFF","A2V6E7SGEU0EFD","3LN3BXKGC0HZB1VNEMH4SWP73O3GW1","","","<img src=""img/flower6.png"" style=""width:200px; border:14px solid green;"">","null","","","",""
"627.3999999985099","","image-keyboard-response","77","525241","0.0-77.0","3ZWFC4W1UVTQBPG0VA6ICVD2E4ORFF","A2V6E7SGEU0EFD","3LN3BXKGC0HZB1VNEMH4SWP73O3GW1","","","img/flower5.png","75","628.1000000014901","75","1",""
"null","","html-keyboard-response","78","525542","0.0-78.0","3ZWFC4W1UVTQBPG0VA6ICVD2E4ORFF","A2V6E7SGEU0EFD","3LN3BXKGC0HZB1VNEMH4SWP73O3GW1","","","<img src=""img/flower5.png"" style=""width:200px; border:14px solid green;"">","null","","","",""
"1703.6000000014901","","image-keyboard-response","79","527247","0.0-79.0","3ZWFC4W1UVTQBPG0VA6ICVD2E4ORFF","A2V6E7SGEU0EFD","3LN3BXKGC0HZB1VNEMH4SWP73O3GW1","","","img/flower4.png","75","1704.2999999970198","75","1",""
"null","","html-keyboard-response","80","527548","0.0-80.0","3ZWFC4W1UVTQBPG0VA6ICVD2E4ORFF","A2V6E7SGEU0EFD","3LN3BXKGC0HZB1VNEMH4SWP73O3GW1","","","<img src=""img/flower4.png"" style=""width:200px; border:14px solid green;"">","null","","","",""
"765.1000000014901","","image-keyboard-response","81","528315","0.0-81.0","3ZWFC4W1UVTQBPG0VA6ICVD2E4ORFF","A2V6E7SGEU0EFD","3LN3BXKGC0HZB1VNEMH4SWP73O3GW1","","","img/flower6.png","76","766.6000000014901","76","1",""
"null","","html-keyboard-response","82","528617","0.0-82.0","3ZWFC4W1UVTQBPG0VA6ICVD2E4ORFF","A2V6E7SGEU0EFD","3LN3BXKGC0HZB1VNEMH4SWP73O3GW1","","","<img src=""img/flower6.png"" style=""width:200px; border:14px solid green;"">","null","","","",""
"919.7000000029802","","image-keyboard-response","83","529538","0.0-83.0","3ZWFC4W1UVTQBPG0VA6ICVD2E4ORFF","A2V6E7SGEU0EFD","3LN3BXKGC0HZB1VNEMH4SWP73O3GW1","","","img/flower4.png","74","921.1000000014901","74","1",""
"null","","html-keyboard-response","84","529840","0.0-84.0","3ZWFC4W1UVTQBPG0VA6ICVD2E4ORFF","A2V6E7SGEU0EFD","3LN3BXKGC0HZB1VNEMH4SWP73O3GW1","","","<img src=""img/flower4.png"" style=""width:200px; border:14px solid green;"">","null","","","",""
"1901.5999999940395","","image-keyboard-response","85","531742","0.0-85.0","3ZWFC4W1UVTQBPG0VA6ICVD2E4ORFF","A2V6E7SGEU0EFD","3LN3BXKGC0HZB1VNEMH4SWP73O3GW1","","","img/flower5.png","76","1902.3999999985099","76","1",""
"null","","html-keyboard-response","86","532044","0.0-86.0","3ZWFC4W1UVTQBPG0VA6ICVD2E4ORFF","A2V6E7SGEU0EFD","3LN3BXKGC0HZB1VNEMH4SWP73O3GW1","","","<img src=""img/flower5.png"" style=""width:200px; border:14px solid green;"">","null","","","",""
"595.1000000014901","","image-keyboard-response","87","532640","0.0-87.0","3ZWFC4W1UVTQBPG0VA6ICVD2E4ORFF","A2V6E7SGEU0EFD","3LN3BXKGC0HZB1VNEMH4SWP73O3GW1","","","img/flower5.png","76","595.8999999985099","76","1",""
"null","","html-keyboard-response","88","532942","0.0-88.0","3ZWFC4W1UVTQBPG0VA6ICVD2E4ORFF","A2V6E7SGEU0EFD","3LN3BXKGC0HZB1VNEMH4SWP73O3GW1","","","<img src=""img/flower5.png"" style=""width:200px; border:14px solid green;"">","null","","","",""
"741.7000000029802","","image-keyboard-response","89","533685","0.0-89.0","3ZWFC4W1UVTQBPG0VA6ICVD2E4ORFF","A2V6E7SGEU0EFD","3LN3BXKGC0HZB1VNEMH4SWP73O3GW1","","","img/flower4.png","75","743.7000000029802","75","1",""
"null","","html-keyboard-response","90","533987","0.0-90.0","3ZWFC4W1UVTQBPG0VA6ICVD2E4ORFF","A2V6E7SGEU0EFD","3LN3BXKGC0HZB1VNEMH4SWP73O3GW1","","","<img src=""img/flower4.png"" style=""width:200px; border:14px solid green;"">","null","","","",""
"653.1000000014901","","image-keyboard-response","91","534642","0.0-91.0","3ZWFC4W1UVTQBPG0VA6ICVD2E4ORFF","A2V6E7SGEU0EFD","3LN3BXKGC0HZB1VNEMH4SWP73O3GW1","","","img/flower5.png","74","654","74","0",""
"null","","html-keyboard-response","92","534943","0.0-92.0","3ZWFC4W1UVTQBPG0VA6ICVD2E4ORFF","A2V6E7SGEU0EFD","3LN3BXKGC0HZB1VNEMH4SWP73O3GW1","","","<img src=""img/flower5.png"" style=""width:200px;border:14px solid red;"">","null","","","",""
"1173.1999999955297","","image-keyboard-response","93","536117","0.0-93.0","3ZWFC4W1UVTQBPG0VA6ICVD2E4ORFF","A2V6E7SGEU0EFD","3LN3BXKGC0HZB1VNEMH4SWP73O3GW1","","","img/flower5.png","75","1173.8999999985099","75","1",""
"null","","html-keyboard-response","94","536419","0.0-94.0","3ZWFC4W1UVTQBPG0VA6ICVD2E4ORFF","A2V6E7SGEU0EFD","3LN3BXKGC0HZB1VNEMH4SWP73O3GW1","","","<img src=""img/flower5.png"" style=""width:200px; border:14px solid green;"">","null","","","",""
"1572.1999999955297","","image-keyboard-response","95","537992","0.0-95.0","3ZWFC4W1UVTQBPG0VA6ICVD2E4ORFF","A2V6E7SGEU0EFD","3LN3BXKGC0HZB1VNEMH4SWP73O3GW1","","","img/flower6.png","74","1573.1000000014901","74","1",""
"null","","html-keyboard-response","96","538293","0.0-96.0","3ZWFC4W1UVTQBPG0VA6ICVD2E4ORFF","A2V6E7SGEU0EFD","3LN3BXKGC0HZB1VNEMH4SWP73O3GW1","","","<img src=""img/flower6.png"" style=""width:200px; border:14px solid green;"">","null","","","",""
"1115.8000000044703","","image-keyboard-response","97","539410","0.0-97.0","3ZWFC4W1UVTQBPG0VA6ICVD2E4ORFF","A2V6E7SGEU0EFD","3LN3BXKGC0HZB1VNEMH4SWP73O3GW1","","","img/flower5.png","75","1116.3999999985099","75","1",""
"null","","html-keyboard-response","98","539711","0.0-98.0","3ZWFC4W1UVTQBPG0VA6ICVD2E4ORFF","A2V6E7SGEU0EFD","3LN3BXKGC0HZB1VNEMH4SWP73O3GW1","","","<img src=""img/flower5.png"" style=""width:200px; border:14px solid green;"">","null","","","",""
"725.5","","image-keyboard-response","99","540437","0.0-99.0","3ZWFC4W1UVTQBPG0VA6ICVD2E4ORFF","A2V6E7SGEU0EFD","3LN3BXKGC0HZB1VNEMH4SWP73O3GW1","","","img/flower6.png","74","726.1999999955297","74","1",""
"null","","html-keyboard-response","100","540738","0.0-100.0","3ZWFC4W1UVTQBPG0VA6ICVD2E4ORFF","A2V6E7SGEU0EFD","3LN3BXKGC0HZB1VNEMH4SWP73O3GW1","","","<img src=""img/flower6.png"" style=""width:200px; border:14px solid green;"">","null","","","",""
"779.6000000014901","","image-keyboard-response","101","541519","0.0-101.0","3ZWFC4W1UVTQBPG0VA6ICVD2E4ORFF","A2V6E7SGEU0EFD","3LN3BXKGC0HZB1VNEMH4SWP73O3GW1","","","img/flower4.png","74","780.8999999985099","74","1",""
"null","","html-keyboard-response","102","541821","0.0-102.0","3ZWFC4W1UVTQBPG0VA6ICVD2E4ORFF","A2V6E7SGEU0EFD","3LN3BXKGC0HZB1VNEMH4SWP73O3GW1","","","<img src=""img/flower4.png"" style=""width:200px; border:14px solid green;"">","null","","","",""
"2329.10000000149","","image-keyboard-response","103","544151","0.0-103.0","3ZWFC4W1UVTQBPG0VA6ICVD2E4ORFF","A2V6E7SGEU0EFD","3LN3BXKGC0HZB1VNEMH4SWP73O3GW1","","","img/flower6.png","74","2330","74","1",""
"null","","html-keyboard-response","104","544452","0.0-104.0","3ZWFC4W1UVTQBPG0VA6ICVD2E4ORFF","A2V6E7SGEU0EFD","3LN3BXKGC0HZB1VNEMH4SWP73O3GW1","","","<img src=""img/flower6.png"" style=""width:200px; border:14px solid green;"">","null","","","",""
"955.8000000044703","","image-keyboard-response","105","545410","0.0-105.0","3ZWFC4W1UVTQBPG0VA6ICVD2E4ORFF","A2V6E7SGEU0EFD","3LN3BXKGC0HZB1VNEMH4SWP73O3GW1","","","img/flower5.png","76","957.1000000014901","76","1",""
"null","","html-keyboard-response","106","545712","0.0-106.0","3ZWFC4W1UVTQBPG0VA6ICVD2E4ORFF","A2V6E7SGEU0EFD","3LN3BXKGC0HZB1VNEMH4SWP73O3GW1","","","<img src=""img/flower5.png"" style=""width:200px; border:14px solid green;"">","null","","","",""
"567.6999999955297","","image-keyboard-response","107","546280","0.0-107.0","3ZWFC4W1UVTQBPG0VA6ICVD2E4ORFF","A2V6E7SGEU0EFD","3LN3BXKGC0HZB1VNEMH4SWP73O3GW1","","","img/flower6.png","74","568.3999999985099","74","0",""
"null","","html-keyboard-response","108","546581","0.0-108.0","3ZWFC4W1UVTQBPG0VA6ICVD2E4ORFF","A2V6E7SGEU0EFD","3LN3BXKGC0HZB1VNEMH4SWP73O3GW1","","","<img src=""img/flower6.png"" style=""width:200px;border:14px solid red;"">","null","","","",""
"1056.3000000044703","","image-keyboard-response","109","547638","0.0-109.0","3ZWFC4W1UVTQBPG0VA6ICVD2E4ORFF","A2V6E7SGEU0EFD","3LN3BXKGC0HZB1VNEMH4SWP73O3GW1","","","img/flower4.png","74","1056.8999999985099","74","0",""
"null","","html-keyboard-response","110","547940","0.0-110.0","3ZWFC4W1UVTQBPG0VA6ICVD2E4ORFF","A2V6E7SGEU0EFD","3LN3BXKGC0HZB1VNEMH4SWP73O3GW1","","","<img src=""img/flower4.png"" style=""width:200px;border:14px solid red;"">","null","","","",""
"1011.1999999955297","","image-keyboard-response","111","548953","0.0-111.0","3ZWFC4W1UVTQBPG0VA6ICVD2E4ORFF","A2V6E7SGEU0EFD","3LN3BXKGC0HZB1VNEMH4SWP73O3GW1","","","img/flower6.png","76","1012.3999999985099","76","1",""
"null","","html-keyboard-response","112","549255","0.0-112.0","3ZWFC4W1UVTQBPG0VA6ICVD2E4ORFF","A2V6E7SGEU0EFD","3LN3BXKGC0HZB1VNEMH4SWP73O3GW1","","","<img src=""img/flower6.png"" style=""width:200px; border:14px solid green;"">","null","","","",""
"1462.1000000014901","","image-keyboard-response","113","550719","0.0-113.0","3ZWFC4W1UVTQBPG0VA6ICVD2E4ORFF","A2V6E7SGEU0EFD","3LN3BXKGC0HZB1VNEMH4SWP73O3GW1","","","img/flower4.png","74","1463.2999999970198","74","1",""
"null","","html-keyboard-response","114","551021","0.0-114.0","3ZWFC4W1UVTQBPG0VA6ICVD2E4ORFF","A2V6E7SGEU0EFD","3LN3BXKGC0HZB1VNEMH4SWP73O3GW1","","","<img src=""img/flower4.png"" style=""width:200px; border:14px solid green;"">","null","","","",""
"766.5","","image-keyboard-response","115","551788","0.0-115.0","3ZWFC4W1UVTQBPG0VA6ICVD2E4ORFF","A2V6E7SGEU0EFD","3LN3BXKGC0HZB1VNEMH4SWP73O3GW1","","","img/flower5.png","75","767.3999999985099","75","1",""
"null","","html-keyboard-response","116","552090","0.0-116.0","3ZWFC4W1UVTQBPG0VA6ICVD2E4ORFF","A2V6E7SGEU0EFD","3LN3BXKGC0HZB1VNEMH4SWP73O3GW1","","","<img src=""img/flower5.png"" style=""width:200px; border:14px solid green;"">","null","","","",""
"578.6999999955297","","image-keyboard-response","117","552670","0.0-117.0","3ZWFC4W1UVTQBPG0VA6ICVD2E4ORFF","A2V6E7SGEU0EFD","3LN3BXKGC0HZB1VNEMH4SWP73O3GW1","","","img/flower5.png","75","580","75","1",""
"null","","html-keyboard-response","118","552972","0.0-118.0","3ZWFC4W1UVTQBPG0VA6ICVD2E4ORFF","A2V6E7SGEU0EFD","3LN3BXKGC0HZB1VNEMH4SWP73O3GW1","","","<img src=""img/flower5.png"" style=""width:200px; border:14px solid green;"">","null","","","",""
"1149.6999999955297","","image-keyboard-response","119","554124","0.0-119.0","3ZWFC4W1UVTQBPG0VA6ICVD2E4ORFF","A2V6E7SGEU0EFD","3LN3BXKGC0HZB1VNEMH4SWP73O3GW1","","","img/flower4.png","75","1151.1000000014901","75","0",""
"null","","html-keyboard-response","120","554425","0.0-120.0","3ZWFC4W1UVTQBPG0VA6ICVD2E4ORFF","A2V6E7SGEU0EFD","3LN3BXKGC0HZB1VNEMH4SWP73O3GW1","","","<img src=""img/flower4.png"" style=""width:200px;border:14px solid red;"">","null","","","",""
"942.1000000014901","","image-keyboard-response","121","555368","0.0-121.0","3ZWFC4W1UVTQBPG0VA6ICVD2E4ORFF","A2V6E7SGEU0EFD","3LN3BXKGC0HZB1VNEMH4SWP73O3GW1","","","img/flower6.png","76","942.6999999955297","76","1",""
"null","","html-keyboard-response","122","555670","0.0-122.0","3ZWFC4W1UVTQBPG0VA6ICVD2E4ORFF","A2V6E7SGEU0EFD","3LN3BXKGC0HZB1VNEMH4SWP73O3GW1","","","<img src=""img/flower6.png"" style=""width:200px; border:14px solid green;"">","null","","","",""
"1216.1999999955297","","image-keyboard-response","123","556887","0.0-123.0","3ZWFC4W1UVTQBPG0VA6ICVD2E4ORFF","A2V6E7SGEU0EFD","3LN3BXKGC0HZB1VNEMH4SWP73O3GW1","","","img/flower4.png","75","1216.7999999970198","75","1",""
"null","","html-keyboard-response","124","557189","0.0-124.0","3ZWFC4W1UVTQBPG0VA6ICVD2E4ORFF","A2V6E7SGEU0EFD","3LN3BXKGC0HZB1VNEMH4SWP73O3GW1","","","<img src=""img/flower4.png"" style=""width:200px; border:14px solid green;"">","null","","","",""
"35275.70000000298","","instructions","125","592465","0.0-125.0","3ZWFC4W1UVTQBPG0VA6ICVD2E4ORFF","A2V6E7SGEU0EFD","3LN3BXKGC0HZB1VNEMH4SWP73O3GW1","","[{""page_index"":0,""viewing_time"":35275.10000000149}]","","","","","",""
"1719.1000000014901","","image-keyboard-response","126","594185","0.0-126.0","3ZWFC4W1UVTQBPG0VA6ICVD2E4ORFF","A2V6E7SGEU0EFD","3LN3BXKGC0HZB1VNEMH4SWP73O3GW1","","","img/flower8.png","74","1720.1000000014901","74","1",""
"null","","html-keyboard-response","127","594487","0.0-127.0","3ZWFC4W1UVTQBPG0VA6ICVD2E4ORFF","A2V6E7SGEU0EFD","3LN3BXKGC0HZB1VNEMH4SWP73O3GW1","","","<img src=""img/flower8.png"" style=""width:200px; border:14px solid green;"">","null","","","",""
"545.8000000044703","","image-keyboard-response","128","595034","0.0-128.0","3ZWFC4W1UVTQBPG0VA6ICVD2E4ORFF","A2V6E7SGEU0EFD","3LN3BXKGC0HZB1VNEMH4SWP73O3GW1","","","img/flower8.png","74","546.6000000014901","74","0",""
"null","","html-keyboard-response","129","595336","0.0-129.0","3ZWFC4W1UVTQBPG0VA6ICVD2E4ORFF","A2V6E7SGEU0EFD","3LN3BXKGC0HZB1VNEMH4SWP73O3GW1","","","<img src=""img/flower8.png"" style=""width:200px;border:14px solid red;"">","null","","","",""
"584","","image-keyboard-response","130","595921","0.0-130.0","3ZWFC4W1UVTQBPG0VA6ICVD2E4ORFF","A2V6E7SGEU0EFD","3LN3BXKGC0HZB1VNEMH4SWP73O3GW1","","","img/flower8.png","74","584.8000000044703","74","0",""
"null","","html-keyboard-response","131","596222","0.0-131.0","3ZWFC4W1UVTQBPG0VA6ICVD2E4ORFF","A2V6E7SGEU0EFD","3LN3BXKGC0HZB1VNEMH4SWP73O3GW1","","","<img src=""img/flower8.png"" style=""width:200px;border:14px solid red;"">","null","","","",""
"850.2999999970198","","image-keyboard-response","132","597073","0.0-132.0","3ZWFC4W1UVTQBPG0VA6ICVD2E4ORFF","A2V6E7SGEU0EFD","3LN3BXKGC0HZB1VNEMH4SWP73O3GW1","","","img/flower9.png","75","851.1000000014901","75","0",""
"null","","html-keyboard-response","133","597375","0.0-133.0","3ZWFC4W1UVTQBPG0VA6ICVD2E4ORFF","A2V6E7SGEU0EFD","3LN3BXKGC0HZB1VNEMH4SWP73O3GW1","","","<img src=""img/flower9.png"" style=""width:200px;border:14px solid red;"">","null","","","",""
"560.1000000014901","","image-keyboard-response","134","597936","0.0-134.0","3ZWFC4W1UVTQBPG0VA6ICVD2E4ORFF","A2V6E7SGEU0EFD","3LN3BXKGC0HZB1VNEMH4SWP73O3GW1","","","img/flower9.png","76","561.3999999985099","76","0",""
"null","","html-keyboard-response","135","598238","0.0-135.0","3ZWFC4W1UVTQBPG0VA6ICVD2E4ORFF","A2V6E7SGEU0EFD","3LN3BXKGC0HZB1VNEMH4SWP73O3GW1","","","<img src=""img/flower9.png"" style=""width:200px;border:14px solid red;"">","null","","","",""
"488.3999999985099","","image-keyboard-response","136","598727","0.0-136.0","3ZWFC4W1UVTQBPG0VA6ICVD2E4ORFF","A2V6E7SGEU0EFD","3LN3BXKGC0HZB1VNEMH4SWP73O3GW1","","","img/flower9.png","74","489.29999999701977","74","1",""
"null","","html-keyboard-response","137","599030","0.0-137.0","3ZWFC4W1UVTQBPG0VA6ICVD2E4ORFF","A2V6E7SGEU0EFD","3LN3BXKGC0HZB1VNEMH4SWP73O3GW1","","","<img src=""img/flower9.png"" style=""width:200px; border:14px solid green;"">","null","","","",""
"1172","","image-keyboard-response","138","600203","0.0-138.0","3ZWFC4W1UVTQBPG0VA6ICVD2E4ORFF","A2V6E7SGEU0EFD","3LN3BXKGC0HZB1VNEMH4SWP73O3GW1","","","img/flower6.png","76","1172.8000000044703","76","1",""
"null","","html-keyboard-response","139","600504","0.0-139.0","3ZWFC4W1UVTQBPG0VA6ICVD2E4ORFF","A2V6E7SGEU0EFD","3LN3BXKGC0HZB1VNEMH4SWP73O3GW1","","","<img src=""img/flower6.png"" style=""width:200px; border:14px solid green;"">","null","","","",""
"1061.5","","image-keyboard-response","140","601566","0.0-140.0","3ZWFC4W1UVTQBPG0VA6ICVD2E4ORFF","A2V6E7SGEU0EFD","3LN3BXKGC0HZB1VNEMH4SWP73O3GW1","","","img/flower8.png","75","1062.3999999985099","75","1",""
"null","","html-keyboard-response","141","601869","0.0-141.0","3ZWFC4W1UVTQBPG0VA6ICVD2E4ORFF","A2V6E7SGEU0EFD","3LN3BXKGC0HZB1VNEMH4SWP73O3GW1","","","<img src=""img/flower8.png"" style=""width:200px; border:14px solid green;"">","null","","","",""
"477.6000000014901","","image-keyboard-response","142","602348","0.0-142.0","3ZWFC4W1UVTQBPG0VA6ICVD2E4ORFF","A2V6E7SGEU0EFD","3LN3BXKGC0HZB1VNEMH4SWP73O3GW1","","","img/flower8.png","75","479.1000000014901","75","1",""
"null","","html-keyboard-response","143","602651","0.0-143.0","3ZWFC4W1UVTQBPG0VA6ICVD2E4ORFF","A2V6E7SGEU0EFD","3LN3BXKGC0HZB1VNEMH4SWP73O3GW1","","","<img src=""img/flower8.png"" style=""width:200px; border:14px solid green;"">","null","","","",""
"1176.3000000044703","","image-keyboard-response","144","603828","0.0-144.0","3ZWFC4W1UVTQBPG0VA6ICVD2E4ORFF","A2V6E7SGEU0EFD","3LN3BXKGC0HZB1VNEMH4SWP73O3GW1","","","img/flower9.png","76","1177.5","76","0",""
"null","","html-keyboard-response","145","604129","0.0-145.0","3ZWFC4W1UVTQBPG0VA6ICVD2E4ORFF","A2V6E7SGEU0EFD","3LN3BXKGC0HZB1VNEMH4SWP73O3GW1","","","<img src=""img/flower9.png"" style=""width:200px;border:14px solid red;"">","null","","","",""
"1025.1000000014901","","image-keyboard-response","146","605155","0.0-146.0","3ZWFC4W1UVTQBPG0VA6ICVD2E4ORFF","A2V6E7SGEU0EFD","3LN3BXKGC0HZB1VNEMH4SWP73O3GW1","","","img/flower6.png","76","1025.7999999970198","76","1",""
"null","","html-keyboard-response","147","605457","0.0-147.0","3ZWFC4W1UVTQBPG0VA6ICVD2E4ORFF","A2V6E7SGEU0EFD","3LN3BXKGC0HZB1VNEMH4SWP73O3GW1","","","<img src=""img/flower6.png"" style=""width:200px; border:14px solid green;"">","null","","","",""
"381","","image-keyboard-response","148","605839","0.0-148.0","3ZWFC4W1UVTQBPG0VA6ICVD2E4ORFF","A2V6E7SGEU0EFD","3LN3BXKGC0HZB1VNEMH4SWP73O3GW1","","","img/flower6.png","76","381.80000000447035","76","1",""
"null","","html-keyboard-response","149","606141","0.0-149.0","3ZWFC4W1UVTQBPG0VA6ICVD2E4ORFF","A2V6E7SGEU0EFD","3LN3BXKGC0HZB1VNEMH4SWP73O3GW1","","","<img src=""img/flower6.png"" style=""width:200px; border:14px solid green;"">","null","","","",""
"1097.5","","image-keyboard-response","150","607240","0.0-150.0","3ZWFC4W1UVTQBPG0VA6ICVD2E4ORFF","A2V6E7SGEU0EFD","3LN3BXKGC0HZB1VNEMH4SWP73O3GW1","","","img/flower9.png","75","1098.6000000014901","75","0",""
"null","","html-keyboard-response","151","607542","0.0-151.0","3ZWFC4W1UVTQBPG0VA6ICVD2E4ORFF","A2V6E7SGEU0EFD","3LN3BXKGC0HZB1VNEMH4SWP73O3GW1","","","<img src=""img/flower9.png"" style=""width:200px;border:14px solid red;"">","null","","","",""
"1134.1000000014901","","image-keyboard-response","152","608677","0.0-152.0","3ZWFC4W1UVTQBPG0VA6ICVD2E4ORFF","A2V6E7SGEU0EFD","3LN3BXKGC0HZB1VNEMH4SWP73O3GW1","","","img/flower8.png","75","1134.9000000059605","75","1",""
"null","","html-keyboard-response","153","608978","0.0-153.0","3ZWFC4W1UVTQBPG0VA6ICVD2E4ORFF","A2V6E7SGEU0EFD","3LN3BXKGC0HZB1VNEMH4SWP73O3GW1","","","<img src=""img/flower8.png"" style=""width:200px; border:14px solid green;"">","null","","","",""
"356.5","","image-keyboard-response","154","609336","0.0-154.0","3ZWFC4W1UVTQBPG0VA6ICVD2E4ORFF","A2V6E7SGEU0EFD","3LN3BXKGC0HZB1VNEMH4SWP73O3GW1","","","img/flower8.png","75","357.69999999552965","75","1",""
"null","","html-keyboard-response","155","609639","0.0-155.0","3ZWFC4W1UVTQBPG0VA6ICVD2E4ORFF","A2V6E7SGEU0EFD","3LN3BXKGC0HZB1VNEMH4SWP73O3GW1","","","<img src=""img/flower8.png"" style=""width:200px; border:14px solid green;"">","null","","","",""
"831.3000000044703","","image-keyboard-response","156","610471","0.0-156.0","3ZWFC4W1UVTQBPG0VA6ICVD2E4ORFF","A2V6E7SGEU0EFD","3LN3BXKGC0HZB1VNEMH4SWP73O3GW1","","","img/flower6.png","76","832.0999999940395","76","1",""
"null","","html-keyboard-response","157","610773","0.0-157.0","3ZWFC4W1UVTQBPG0VA6ICVD2E4ORFF","A2V6E7SGEU0EFD","3LN3BXKGC0HZB1VNEMH4SWP73O3GW1","","","<img src=""img/flower6.png"" style=""width:200px; border:14px solid green;"">","null","","","",""
"620.5","","image-keyboard-response","158","611394","0.0-158.0","3ZWFC4W1UVTQBPG0VA6ICVD2E4ORFF","A2V6E7SGEU0EFD","3LN3BXKGC0HZB1VNEMH4SWP73O3GW1","","","img/flower8.png","75","621.0999999940395","75","0",""
"null","","html-keyboard-response","159","611696","0.0-159.0","3ZWFC4W1UVTQBPG0VA6ICVD2E4ORFF","A2V6E7SGEU0EFD","3LN3BXKGC0HZB1VNEMH4SWP73O3GW1","","","<img src=""img/flower8.png"" style=""width:200px;border:14px solid red;"">","null","","","",""
"509.3999999985099","","image-keyboard-response","160","612206","0.0-160.0","3ZWFC4W1UVTQBPG0VA6ICVD2E4ORFF","A2V6E7SGEU0EFD","3LN3BXKGC0HZB1VNEMH4SWP73O3GW1","","","img/flower8.png","75","510.1000000014901","75","1",""
"null","","html-keyboard-response","161","612515","0.0-161.0","3ZWFC4W1UVTQBPG0VA6ICVD2E4ORFF","A2V6E7SGEU0EFD","3LN3BXKGC0HZB1VNEMH4SWP73O3GW1","","","<img src=""img/flower8.png"" style=""width:200px; border:14px solid green;"">","null","","","",""
"781.3999999985099","","image-keyboard-response","162","613298","0.0-162.0","3ZWFC4W1UVTQBPG0VA6ICVD2E4ORFF","A2V6E7SGEU0EFD","3LN3BXKGC0HZB1VNEMH4SWP73O3GW1","","","img/flower8.png","75","782.3000000044703","75","1",""
"null","","html-keyboard-response","163","613599","0.0-163.0","3ZWFC4W1UVTQBPG0VA6ICVD2E4ORFF","A2V6E7SGEU0EFD","3LN3BXKGC0HZB1VNEMH4SWP73O3GW1","","","<img src=""img/flower8.png"" style=""width:200px; border:14px solid green;"">","null","","","",""
"868.6999999955297","","image-keyboard-response","164","614469","0.0-164.0","3ZWFC4W1UVTQBPG0VA6ICVD2E4ORFF","A2V6E7SGEU0EFD","3LN3BXKGC0HZB1VNEMH4SWP73O3GW1","","","img/flower9.png","74","869.3999999985099","74","1",""
"null","","html-keyboard-response","165","614771","0.0-165.0","3ZWFC4W1UVTQBPG0VA6ICVD2E4ORFF","A2V6E7SGEU0EFD","3LN3BXKGC0HZB1VNEMH4SWP73O3GW1","","","<img src=""img/flower9.png"" style=""width:200px; border:14px solid green;"">","null","","","",""
"379.6000000014901","","image-keyboard-response","166","615151","0.0-166.0","3ZWFC4W1UVTQBPG0VA6ICVD2E4ORFF","A2V6E7SGEU0EFD","3LN3BXKGC0HZB1VNEMH4SWP73O3GW1","","","img/flower9.png","74","380.5","74","1",""
"null","","html-keyboard-response","167","615453","0.0-167.0","3ZWFC4W1UVTQBPG0VA6ICVD2E4ORFF","A2V6E7SGEU0EFD","3LN3BXKGC0HZB1VNEMH4SWP73O3GW1","","","<img src=""img/flower9.png"" style=""width:200px; border:14px solid green;"">","null","","","",""
"816.5","","image-keyboard-response","168","616271","0.0-168.0","3ZWFC4W1UVTQBPG0VA6ICVD2E4ORFF","A2V6E7SGEU0EFD","3LN3BXKGC0HZB1VNEMH4SWP73O3GW1","","","img/flower6.png","76","817.5","76","1",""
"null","","html-keyboard-response","169","616573","0.0-169.0","3ZWFC4W1UVTQBPG0VA6ICVD2E4ORFF","A2V6E7SGEU0EFD","3LN3BXKGC0HZB1VNEMH4SWP73O3GW1","","","<img src=""img/flower6.png"" style=""width:200px; border:14px solid green;"">","null","","","",""
"928.5","","image-keyboard-response","170","617502","0.0-170.0","3ZWFC4W1UVTQBPG0VA6ICVD2E4ORFF","A2V6E7SGEU0EFD","3LN3BXKGC0HZB1VNEMH4SWP73O3GW1","","","img/flower9.png","74","929.3999999985099","74","0",""
"null","","html-keyboard-response","171","617803","0.0-171.0","3ZWFC4W1UVTQBPG0VA6ICVD2E4ORFF","A2V6E7SGEU0EFD","3LN3BXKGC0HZB1VNEMH4SWP73O3GW1","","","<img src=""img/flower9.png"" style=""width:200px;border:14px solid red;"">","null","","","",""
"673","","image-keyboard-response","172","618477","0.0-172.0","3ZWFC4W1UVTQBPG0VA6ICVD2E4ORFF","A2V6E7SGEU0EFD","3LN3BXKGC0HZB1VNEMH4SWP73O3GW1","","","img/flower6.png","76","673.7000000029802","76","1",""
"null","","html-keyboard-response","173","618779","0.0-173.0","3ZWFC4W1UVTQBPG0VA6ICVD2E4ORFF","A2V6E7SGEU0EFD","3LN3BXKGC0HZB1VNEMH4SWP73O3GW1","","","<img src=""img/flower6.png"" style=""width:200px; border:14px solid green;"">","null","","","",""
"520.2000000029802","","image-keyboard-response","174","619300","0.0-174.0","3ZWFC4W1UVTQBPG0VA6ICVD2E4ORFF","A2V6E7SGEU0EFD","3LN3BXKGC0HZB1VNEMH4SWP73O3GW1","","","img/flower8.png","75","521.5","75","1",""
"null","","html-keyboard-response","175","619603","0.0-175.0","3ZWFC4W1UVTQBPG0VA6ICVD2E4ORFF","A2V6E7SGEU0EFD","3LN3BXKGC0HZB1VNEMH4SWP73O3GW1","","","<img src=""img/flower8.png"" style=""width:200px; border:14px solid green;"">","null","","","",""
"387.40000000596046","","image-keyboard-response","176","619992","0.0-176.0","3ZWFC4W1UVTQBPG0VA6ICVD2E4ORFF","A2V6E7SGEU0EFD","3LN3BXKGC0HZB1VNEMH4SWP73O3GW1","","","img/flower8.png","75","388.69999999552965","75","1",""
"null","","html-keyboard-response","177","620293","0.0-177.0","3ZWFC4W1UVTQBPG0VA6ICVD2E4ORFF","A2V6E7SGEU0EFD","3LN3BXKGC0HZB1VNEMH4SWP73O3GW1","","","<img src=""img/flower8.png"" style=""width:200px; border:14px solid green;"">","null","","","",""
"601.6000000014901","","image-keyboard-response","178","620896","0.0-178.0","3ZWFC4W1UVTQBPG0VA6ICVD2E4ORFF","A2V6E7SGEU0EFD","3LN3BXKGC0HZB1VNEMH4SWP73O3GW1","","","img/flower6.png","76","602.1000000014901","76","1",""
"null","","html-keyboard-response","179","621198","0.0-179.0","3ZWFC4W1UVTQBPG0VA6ICVD2E4ORFF","A2V6E7SGEU0EFD","3LN3BXKGC0HZB1VNEMH4SWP73O3GW1","","","<img src=""img/flower6.png"" style=""width:200px; border:14px solid green;"">","null","","","",""
"313.6000000014901","","image-keyboard-response","180","621513","0.0-180.0","3ZWFC4W1UVTQBPG0VA6ICVD2E4ORFF","A2V6E7SGEU0EFD","3LN3BXKGC0HZB1VNEMH4SWP73O3GW1","","","img/flower6.png","76","314.5","76","1",""
"null","","html-keyboard-response","181","621815","0.0-181.0","3ZWFC4W1UVTQBPG0VA6ICVD2E4ORFF","A2V6E7SGEU0EFD","3LN3BXKGC0HZB1VNEMH4SWP73O3GW1","","","<img src=""img/flower6.png"" style=""width:200px; border:14px solid green;"">","null","","","",""
"290.20000000298023","","image-keyboard-response","182","622106","0.0-182.0","3ZWFC4W1UVTQBPG0VA6ICVD2E4ORFF","A2V6E7SGEU0EFD","3LN3BXKGC0HZB1VNEMH4SWP73O3GW1","","","img/flower6.png","76","291.1000000014901","76","1",""
"null","","html-keyboard-response","183","622408","0.0-183.0","3ZWFC4W1UVTQBPG0VA6ICVD2E4ORFF","A2V6E7SGEU0EFD","3LN3BXKGC0HZB1VNEMH4SWP73O3GW1","","","<img src=""img/flower6.png"" style=""width:200px; border:14px solid green;"">","null","","","",""
"613.1000000014901","","image-keyboard-response","184","623023","0.0-184.0","3ZWFC4W1UVTQBPG0VA6ICVD2E4ORFF","A2V6E7SGEU0EFD","3LN3BXKGC0HZB1VNEMH4SWP73O3GW1","","","img/flower8.png","75","614.6999999955297","75","1",""
"null","","html-keyboard-response","185","623325","0.0-185.0","3ZWFC4W1UVTQBPG0VA6ICVD2E4ORFF","A2V6E7SGEU0EFD","3LN3BXKGC0HZB1VNEMH4SWP73O3GW1","","","<img src=""img/flower8.png"" style=""width:200px; border:14px solid green;"">","null","","","",""
"618.9000000059605","","image-keyboard-response","186","623944","0.0-186.0","3ZWFC4W1UVTQBPG0VA6ICVD2E4ORFF","A2V6E7SGEU0EFD","3LN3BXKGC0HZB1VNEMH4SWP73O3GW1","","","img/flower9.png","74","619.6000000014901","74","1",""
"null","","html-keyboard-response","187","624245","0.0-187.0","3ZWFC4W1UVTQBPG0VA6ICVD2E4ORFF","A2V6E7SGEU0EFD","3LN3BXKGC0HZB1VNEMH4SWP73O3GW1","","","<img src=""img/flower9.png"" style=""width:200px; border:14px solid green;"">","null","","","",""
"725.7999999970198","","image-keyboard-response","188","624972","0.0-188.0","3ZWFC4W1UVTQBPG0VA6ICVD2E4ORFF","A2V6E7SGEU0EFD","3LN3BXKGC0HZB1VNEMH4SWP73O3GW1","","","img/flower6.png","76","726.6000000014901","76","1",""
"null","","html-keyboard-response","189","625273","0.0-189.0","3ZWFC4W1UVTQBPG0VA6ICVD2E4ORFF","A2V6E7SGEU0EFD","3LN3BXKGC0HZB1VNEMH4SWP73O3GW1","","","<img src=""img/flower6.png"" style=""width:200px; border:14px solid green;"">","null","","","",""
"1361.3000000044703","","image-keyboard-response","190","626636","0.0-190.0","3ZWFC4W1UVTQBPG0VA6ICVD2E4ORFF","A2V6E7SGEU0EFD","3LN3BXKGC0HZB1VNEMH4SWP73O3GW1","","","img/flower9.png","74","1362.6000000014901","74","1",""
"null","","html-keyboard-response","191","626938","0.0-191.0","3ZWFC4W1UVTQBPG0VA6ICVD2E4ORFF","A2V6E7SGEU0EFD","3LN3BXKGC0HZB1VNEMH4SWP73O3GW1","","","<img src=""img/flower9.png"" style=""width:200px; border:14px solid green;"">","null","","","",""
"544.6999999955297","","image-keyboard-response","192","627484","0.0-192.0","3ZWFC4W1UVTQBPG0VA6ICVD2E4ORFF","A2V6E7SGEU0EFD","3LN3BXKGC0HZB1VNEMH4SWP73O3GW1","","","img/flower8.png","75","545.5","75","1",""
"null","","html-keyboard-response","193","627785","0.0-193.0","3ZWFC4W1UVTQBPG0VA6ICVD2E4ORFF","A2V6E7SGEU0EFD","3LN3BXKGC0HZB1VNEMH4SWP73O3GW1","","","<img src=""img/flower8.png"" style=""width:200px; border:14px solid green;"">","null","","","",""
"672","","image-keyboard-response","194","628458","0.0-194.0","3ZWFC4W1UVTQBPG0VA6ICVD2E4ORFF","A2V6E7SGEU0EFD","3LN3BXKGC0HZB1VNEMH4SWP73O3GW1","","","img/flower9.png","74","672.6999999955297","74","1",""
"null","","html-keyboard-response","195","628760","0.0-195.0","3ZWFC4W1UVTQBPG0VA6ICVD2E4ORFF","A2V6E7SGEU0EFD","3LN3BXKGC0HZB1VNEMH4SWP73O3GW1","","","<img src=""img/flower9.png"" style=""width:200px; border:14px solid green;"">","null","","","",""
"618.1000000014901","","image-keyboard-response","196","629379","0.0-196.0","3ZWFC4W1UVTQBPG0VA6ICVD2E4ORFF","A2V6E7SGEU0EFD","3LN3BXKGC0HZB1VNEMH4SWP73O3GW1","","","img/flower6.png","76","618.8999999985099","76","1",""
"null","","html-keyboard-response","197","629681","0.0-197.0","3ZWFC4W1UVTQBPG0VA6ICVD2E4ORFF","A2V6E7SGEU0EFD","3LN3BXKGC0HZB1VNEMH4SWP73O3GW1","","","<img src=""img/flower6.png"" style=""width:200px; border:14px solid green;"">","null","","","",""
"1269.1000000014901","","image-keyboard-response","198","630952","0.0-198.0","3ZWFC4W1UVTQBPG0VA6ICVD2E4ORFF","A2V6E7SGEU0EFD","3LN3BXKGC0HZB1VNEMH4SWP73O3GW1","","","img/flower9.png","74","1270.5","74","0",""
"null","","html-keyboard-response","199","631253","0.0-199.0","3ZWFC4W1UVTQBPG0VA6ICVD2E4ORFF","A2V6E7SGEU0EFD","3LN3BXKGC0HZB1VNEMH4SWP73O3GW1","","","<img src=""img/flower9.png"" style=""width:200px;border:14px solid red;"">","null","","","",""
"1079.7999999970198","","image-keyboard-response","200","632334","0.0-200.0","3ZWFC4W1UVTQBPG0VA6ICVD2E4ORFF","A2V6E7SGEU0EFD","3LN3BXKGC0HZB1VNEMH4SWP73O3GW1","","","img/flower8.png","74","1080.8999999985099","74","1",""
"null","","html-keyboard-response","201","632636","0.0-201.0","3ZWFC4W1UVTQBPG0VA6ICVD2E4ORFF","A2V6E7SGEU0EFD","3LN3BXKGC0HZB1VNEMH4SWP73O3GW1","","","<img src=""img/flower8.png"" style=""width:200px; border:14px solid green;"">","null","","","",""
"613.1000000014901","","image-keyboard-response","202","633250","0.0-202.0","3ZWFC4W1UVTQBPG0VA6ICVD2E4ORFF","A2V6E7SGEU0EFD","3LN3BXKGC0HZB1VNEMH4SWP73O3GW1","","","img/flower9.png","75","614.3999999985099","75","0",""
"null","","html-keyboard-response","203","633554","0.0-203.0","3ZWFC4W1UVTQBPG0VA6ICVD2E4ORFF","A2V6E7SGEU0EFD","3LN3BXKGC0HZB1VNEMH4SWP73O3GW1","","","<img src=""img/flower9.png"" style=""width:200px;border:14px solid red;"">","null","","","",""
"548.7000000029802","","image-keyboard-response","204","634104","0.0-204.0","3ZWFC4W1UVTQBPG0VA6ICVD2E4ORFF","A2V6E7SGEU0EFD","3LN3BXKGC0HZB1VNEMH4SWP73O3GW1","","","img/flower9.png","74","549.6000000014901","74","1",""
"null","","html-keyboard-response","205","634405","0.0-205.0","3ZWFC4W1UVTQBPG0VA6ICVD2E4ORFF","A2V6E7SGEU0EFD","3LN3BXKGC0HZB1VNEMH4SWP73O3GW1","","","<img src=""img/flower9.png"" style=""width:200px; border:14px solid green;"">","null","","","",""
"340.6000000014901","","image-keyboard-response","206","634746","0.0-206.0","3ZWFC4W1UVTQBPG0VA6ICVD2E4ORFF","A2V6E7SGEU0EFD","3LN3BXKGC0HZB1VNEMH4SWP73O3GW1","","","img/flower9.png","74","341.40000000596046","74","1",""
"null","","html-keyboard-response","207","635048","0.0-207.0","3ZWFC4W1UVTQBPG0VA6ICVD2E4ORFF","A2V6E7SGEU0EFD","3LN3BXKGC0HZB1VNEMH4SWP73O3GW1","","","<img src=""img/flower9.png"" style=""width:200px; border:14px solid green;"">","null","","","",""
"293.70000000298023","","image-keyboard-response","208","635342","0.0-208.0","3ZWFC4W1UVTQBPG0VA6ICVD2E4ORFF","A2V6E7SGEU0EFD","3LN3BXKGC0HZB1VNEMH4SWP73O3GW1","","","img/flower9.png","74","294.3999999985099","74","0",""
"null","","html-keyboard-response","209","635644","0.0-209.0","3ZWFC4W1UVTQBPG0VA6ICVD2E4ORFF","A2V6E7SGEU0EFD","3LN3BXKGC0HZB1VNEMH4SWP73O3GW1","","","<img src=""img/flower9.png"" style=""width:200px;border:14px solid red;"">","null","","","",""
"559.8000000044703","","image-keyboard-response","210","636205","0.0-210.0","3ZWFC4W1UVTQBPG0VA6ICVD2E4ORFF","A2V6E7SGEU0EFD","3LN3BXKGC0HZB1VNEMH4SWP73O3GW1","","","img/flower6.png","76","560.7000000029802","76","0",""
"null","","html-keyboard-response","211","636507","0.0-211.0","3ZWFC4W1UVTQBPG0VA6ICVD2E4ORFF","A2V6E7SGEU0EFD","3LN3BXKGC0HZB1VNEMH4SWP73O3GW1","","","<img src=""img/flower6.png"" style=""width:200px;border:14px solid red;"">","null","","","",""
"881.3000000044703","","image-keyboard-response","212","637389","0.0-212.0","3ZWFC4W1UVTQBPG0VA6ICVD2E4ORFF","A2V6E7SGEU0EFD","3LN3BXKGC0HZB1VNEMH4SWP73O3GW1","","","img/flower6.png","75","882","75","1",""
"null","","html-keyboard-response","213","637691","0.0-213.0","3ZWFC4W1UVTQBPG0VA6ICVD2E4ORFF","A2V6E7SGEU0EFD","3LN3BXKGC0HZB1VNEMH4SWP73O3GW1","","","<img src=""img/flower6.png"" style=""width:200px; border:14px solid green;"">","null","","","",""
"571.2999999970198","","image-keyboard-response","214","638264","0.0-214.0","3ZWFC4W1UVTQBPG0VA6ICVD2E4ORFF","A2V6E7SGEU0EFD","3LN3BXKGC0HZB1VNEMH4SWP73O3GW1","","","img/flower6.png","75","572.1000000014901","75","1",""
"null","","html-keyboard-response","215","638566","0.0-215.0","3ZWFC4W1UVTQBPG0VA6ICVD2E4ORFF","A2V6E7SGEU0EFD","3LN3BXKGC0HZB1VNEMH4SWP73O3GW1","","","<img src=""img/flower6.png"" style=""width:200px; border:14px solid green;"">","null","","","",""
"1393.2000000029802","","image-keyboard-response","216","639961","0.0-216.0","3ZWFC4W1UVTQBPG0VA6ICVD2E4ORFF","A2V6E7SGEU0EFD","3LN3BXKGC0HZB1VNEMH4SWP73O3GW1","","","img/flower9.png","74","1394.6000000014901","74","1",""
"null","","html-keyboard-response","217","640263","0.0-217.0","3ZWFC4W1UVTQBPG0VA6ICVD2E4ORFF","A2V6E7SGEU0EFD","3LN3BXKGC0HZB1VNEMH4SWP73O3GW1","","","<img src=""img/flower9.png"" style=""width:200px; border:14px solid green;"">","null","","","",""
"686.3999999985099","","image-keyboard-response","218","640950","0.0-218.0","3ZWFC4W1UVTQBPG0VA6ICVD2E4ORFF","A2V6E7SGEU0EFD","3LN3BXKGC0HZB1VNEMH4SWP73O3GW1","","","img/flower8.png","75","687.0999999940395","75","1",""
"null","","html-keyboard-response","219","641252","0.0-219.0","3ZWFC4W1UVTQBPG0VA6ICVD2E4ORFF","A2V6E7SGEU0EFD","3LN3BXKGC0HZB1VNEMH4SWP73O3GW1","","","<img src=""img/flower8.png"" style=""width:200px; border:14px solid green;"">","null","","","",""
"659","","image-keyboard-response","220","641912","0.0-220.0","3ZWFC4W1UVTQBPG0VA6ICVD2E4ORFF","A2V6E7SGEU0EFD","3LN3BXKGC0HZB1VNEMH4SWP73O3GW1","","","img/flower9.png","74","659.8000000044703","74","1",""
"null","","html-keyboard-response","221","642213","0.0-221.0","3ZWFC4W1UVTQBPG0VA6ICVD2E4ORFF","A2V6E7SGEU0EFD","3LN3BXKGC0HZB1VNEMH4SWP73O3GW1","","","<img src=""img/flower9.png"" style=""width:200px; border:14px solid green;"">","null","","","",""
"439.20000000298023","","image-keyboard-response","222","642653","0.0-222.0","3ZWFC4W1UVTQBPG0VA6ICVD2E4ORFF","A2V6E7SGEU0EFD","3LN3BXKGC0HZB1VNEMH4SWP73O3GW1","","","img/flower6.png","75","440","75","0",""
"null","","html-keyboard-response","223","642955","0.0-223.0","3ZWFC4W1UVTQBPG0VA6ICVD2E4ORFF","A2V6E7SGEU0EFD","3LN3BXKGC0HZB1VNEMH4SWP73O3GW1","","","<img src=""img/flower6.png"" style=""width:200px;border:14px solid red;"">","null","","","",""
"1744.3999999985099","","image-keyboard-response","224","644700","0.0-224.0","3ZWFC4W1UVTQBPG0VA6ICVD2E4ORFF","A2V6E7SGEU0EFD","3LN3BXKGC0HZB1VNEMH4SWP73O3GW1","","","img/flower9.png","74","1745.1000000014901","74","0",""
"null","","html-keyboard-response","225","645001","0.0-225.0","3ZWFC4W1UVTQBPG0VA6ICVD2E4ORFF","A2V6E7SGEU0EFD","3LN3BXKGC0HZB1VNEMH4SWP73O3GW1","","","<img src=""img/flower9.png"" style=""width:200px;border:14px solid red;"">","null","","","",""
"723","","image-keyboard-response","226","645725","0.0-226.0","3ZWFC4W1UVTQBPG0VA6ICVD2E4ORFF","A2V6E7SGEU0EFD","3LN3BXKGC0HZB1VNEMH4SWP73O3GW1","","","img/flower8.png","75","723.8999999985099","75","0",""
"null","","html-keyboard-response","227","646028","0.0-227.0","3ZWFC4W1UVTQBPG0VA6ICVD2E4ORFF","A2V6E7SGEU0EFD","3LN3BXKGC0HZB1VNEMH4SWP73O3GW1","","","<img src=""img/flower8.png"" style=""width:200px;border:14px solid red;"">","null","","","",""
"622.2999999970198","","image-keyboard-response","228","646651","0.0-228.0","3ZWFC4W1UVTQBPG0VA6ICVD2E4ORFF","A2V6E7SGEU0EFD","3LN3BXKGC0HZB1VNEMH4SWP73O3GW1","","","img/flower8.png","76","623","76","0",""
"null","","html-keyboard-response","229","646953","0.0-229.0","3ZWFC4W1UVTQBPG0VA6ICVD2E4ORFF","A2V6E7SGEU0EFD","3LN3BXKGC0HZB1VNEMH4SWP73O3GW1","","","<img src=""img/flower8.png"" style=""width:200px;border:14px solid red;"">","null","","","",""
"402.20000000298023","","image-keyboard-response","230","647356","0.0-230.0","3ZWFC4W1UVTQBPG0VA6ICVD2E4ORFF","A2V6E7SGEU0EFD","3LN3BXKGC0HZB1VNEMH4SWP73O3GW1","","","img/flower8.png","74","403","74","0",""
"null","","html-keyboard-response","231","647657","0.0-231.0","3ZWFC4W1UVTQBPG0VA6ICVD2E4ORFF","A2V6E7SGEU0EFD","3LN3BXKGC0HZB1VNEMH4SWP73O3GW1","","","<img src=""img/flower8.png"" style=""width:200px;border:14px solid red;"">","null","","","",""
"1098.5","","image-keyboard-response","232","648757","0.0-232.0","3ZWFC4W1UVTQBPG0VA6ICVD2E4ORFF","A2V6E7SGEU0EFD","3LN3BXKGC0HZB1VNEMH4SWP73O3GW1","","","img/flower6.png","76","1099.3999999985099","76","1",""
"null","","html-keyboard-response","233","649059","0.0-233.0","3ZWFC4W1UVTQBPG0VA6ICVD2E4ORFF","A2V6E7SGEU0EFD","3LN3BXKGC0HZB1VNEMH4SWP73O3GW1","","","<img src=""img/flower6.png"" style=""width:200px; border:14px solid green;"">","null","","","",""
"2829","","image-keyboard-response","234","651889","0.0-234.0","3ZWFC4W1UVTQBPG0VA6ICVD2E4ORFF","A2V6E7SGEU0EFD","3LN3BXKGC0HZB1VNEMH4SWP73O3GW1","","","img/flower8.png","75","2830.2999999970198","75","0",""
"null","","html-keyboard-response","235","652190","0.0-235.0","3ZWFC4W1UVTQBPG0VA6ICVD2E4ORFF","A2V6E7SGEU0EFD","3LN3BXKGC0HZB1VNEMH4SWP73O3GW1","","","<img src=""img/flower8.png"" style=""width:200px;border:14px solid red;"">","null","","","",""
"589.6999999955297","","image-keyboard-response","236","652781","0.0-236.0","3ZWFC4W1UVTQBPG0VA6ICVD2E4ORFF","A2V6E7SGEU0EFD","3LN3BXKGC0HZB1VNEMH4SWP73O3GW1","","","img/flower8.png","74","590.6000000014901","74","0",""
"null","","html-keyboard-response","237","653083","0.0-237.0","3ZWFC4W1UVTQBPG0VA6ICVD2E4ORFF","A2V6E7SGEU0EFD","3LN3BXKGC0HZB1VNEMH4SWP73O3GW1","","","<img src=""img/flower8.png"" style=""width:200px;border:14px solid red;"">","null","","","",""
"943.9000000059605","","image-keyboard-response","238","654028","0.0-238.0","3ZWFC4W1UVTQBPG0VA6ICVD2E4ORFF","A2V6E7SGEU0EFD","3LN3BXKGC0HZB1VNEMH4SWP73O3GW1","","","img/flower9.png","74","944.6000000014901","74","1",""
"null","","html-keyboard-response","239","654330","0.0-239.0","3ZWFC4W1UVTQBPG0VA6ICVD2E4ORFF","A2V6E7SGEU0EFD","3LN3BXKGC0HZB1VNEMH4SWP73O3GW1","","","<img src=""img/flower9.png"" style=""width:200px; border:14px solid green;"">","null","","","",""
"567.5","","image-keyboard-response","240","654899","0.0-240.0","3ZWFC4W1UVTQBPG0VA6ICVD2E4ORFF","A2V6E7SGEU0EFD","3LN3BXKGC0HZB1VNEMH4SWP73O3GW1","","","img/flower6.png","76","568.5","76","1",""
"null","","html-keyboard-response","241","655200","0.0-241.0","3ZWFC4W1UVTQBPG0VA6ICVD2E4ORFF","A2V6E7SGEU0EFD","3LN3BXKGC0HZB1VNEMH4SWP73O3GW1","","","<img src=""img/flower6.png"" style=""width:200px; border:14px solid green;"">","null","","","",""
"368.19999999552965","","image-keyboard-response","242","655569","0.0-242.0","3ZWFC4W1UVTQBPG0VA6ICVD2E4ORFF","A2V6E7SGEU0EFD","3LN3BXKGC0HZB1VNEMH4SWP73O3GW1","","","img/flower6.png","76","369","76","1",""
"null","","html-keyboard-response","243","655870","0.0-243.0","3ZWFC4W1UVTQBPG0VA6ICVD2E4ORFF","A2V6E7SGEU0EFD","3LN3BXKGC0HZB1VNEMH4SWP73O3GW1","","","<img src=""img/flower6.png"" style=""width:200px; border:14px solid green;"">","null","","","",""
"1527.8999999985099","","image-keyboard-response","244","657399","0.0-244.0","3ZWFC4W1UVTQBPG0VA6ICVD2E4ORFF","A2V6E7SGEU0EFD","3LN3BXKGC0HZB1VNEMH4SWP73O3GW1","","","img/flower9.png","74","1528.6000000014901","74","0",""
"null","","html-keyboard-response","245","657701","0.0-245.0","3ZWFC4W1UVTQBPG0VA6ICVD2E4ORFF","A2V6E7SGEU0EFD","3LN3BXKGC0HZB1VNEMH4SWP73O3GW1","","","<img src=""img/flower9.png"" style=""width:200px;border:14px solid red;"">","null","","","",""
"816.8999999985099","","image-keyboard-response","246","658518","0.0-246.0","3ZWFC4W1UVTQBPG0VA6ICVD2E4ORFF","A2V6E7SGEU0EFD","3LN3BXKGC0HZB1VNEMH4SWP73O3GW1","","","img/flower8.png","75","817.5999999940395","75","1",""
"null","","html-keyboard-response","247","658819","0.0-247.0","3ZWFC4W1UVTQBPG0VA6ICVD2E4ORFF","A2V6E7SGEU0EFD","3LN3BXKGC0HZB1VNEMH4SWP73O3GW1","","","<img src=""img/flower8.png"" style=""width:200px; border:14px solid green;"">","null","","","",""
"768.1999999955297","","image-keyboard-response","248","659589","0.0-248.0","3ZWFC4W1UVTQBPG0VA6ICVD2E4ORFF","A2V6E7SGEU0EFD","3LN3BXKGC0HZB1VNEMH4SWP73O3GW1","","","img/flower9.png","75","768.8999999985099","75","0",""
"null","","html-keyboard-response","249","659891","0.0-249.0","3ZWFC4W1UVTQBPG0VA6ICVD2E4ORFF","A2V6E7SGEU0EFD","3LN3BXKGC0HZB1VNEMH4SWP73O3GW1","","","<img src=""img/flower9.png"" style=""width:200px;border:14px solid red;"">","null","","","",""
"393.79999999701977","","image-keyboard-response","250","660286","0.0-250.0","3ZWFC4W1UVTQBPG0VA6ICVD2E4ORFF","A2V6E7SGEU0EFD","3LN3BXKGC0HZB1VNEMH4SWP73O3GW1","","","img/flower9.png","74","394.6000000014901","74","0",""
"null","","html-keyboard-response","251","660587","0.0-251.0","3ZWFC4W1UVTQBPG0VA6ICVD2E4ORFF","A2V6E7SGEU0EFD","3LN3BXKGC0HZB1VNEMH4SWP73O3GW1","","","<img src=""img/flower9.png"" style=""width:200px;border:14px solid red;"">","null","","","",""
"716.8999999985099","","image-keyboard-response","252","661306","0.0-252.0","3ZWFC4W1UVTQBPG0VA6ICVD2E4ORFF","A2V6E7SGEU0EFD","3LN3BXKGC0HZB1VNEMH4SWP73O3GW1","","","img/flower9.png","75","718","75","0",""
"null","","html-keyboard-response","253","661607","0.0-253.0","3ZWFC4W1UVTQBPG0VA6ICVD2E4ORFF","A2V6E7SGEU0EFD","3LN3BXKGC0HZB1VNEMH4SWP73O3GW1","","","<img src=""img/flower9.png"" style=""width:200px;border:14px solid red;"">","null","","","",""
"567.9000000059605","","image-keyboard-response","254","662176","0.0-254.0","3ZWFC4W1UVTQBPG0VA6ICVD2E4ORFF","A2V6E7SGEU0EFD","3LN3BXKGC0HZB1VNEMH4SWP73O3GW1","","","img/flower6.png","76","568.7999999970198","76","1",""
"null","","html-keyboard-response","255","662478","0.0-255.0","3ZWFC4W1UVTQBPG0VA6ICVD2E4ORFF","A2V6E7SGEU0EFD","3LN3BXKGC0HZB1VNEMH4SWP73O3GW1","","","<img src=""img/flower6.png"" style=""width:200px; border:14px solid green;"">","null","","","",""
"2725","","image-keyboard-response","256","665204","0.0-256.0","3ZWFC4W1UVTQBPG0VA6ICVD2E4ORFF","A2V6E7SGEU0EFD","3LN3BXKGC0HZB1VNEMH4SWP73O3GW1","","","img/flower8.png","75","2726.5","75","1",""
"null","","html-keyboard-response","257","665507","0.0-257.0","3ZWFC4W1UVTQBPG0VA6ICVD2E4ORFF","A2V6E7SGEU0EFD","3LN3BXKGC0HZB1VNEMH4SWP73O3GW1","","","<img src=""img/flower8.png"" style=""width:200px; border:14px solid green;"">","null","","","",""
"698.8000000044703","","image-keyboard-response","258","666206","0.0-258.0","3ZWFC4W1UVTQBPG0VA6ICVD2E4ORFF","A2V6E7SGEU0EFD","3LN3BXKGC0HZB1VNEMH4SWP73O3GW1","","","img/flower9.png","74","699.5999999940395","74","1",""
"null","","html-keyboard-response","259","666508","0.0-259.0","3ZWFC4W1UVTQBPG0VA6ICVD2E4ORFF","A2V6E7SGEU0EFD","3LN3BXKGC0HZB1VNEMH4SWP73O3GW1","","","<img src=""img/flower9.png"" style=""width:200px; border:14px solid green;"">","null","","","",""
"661.3999999985099","","image-keyboard-response","260","667171","0.0-260.0","3ZWFC4W1UVTQBPG0VA6ICVD2E4ORFF","A2V6E7SGEU0EFD","3LN3BXKGC0HZB1VNEMH4SWP73O3GW1","","","img/flower6.png","76","662.1000000014901","76","1",""
"null","","html-keyboard-response","261","667472","0.0-261.0","3ZWFC4W1UVTQBPG0VA6ICVD2E4ORFF","A2V6E7SGEU0EFD","3LN3BXKGC0HZB1VNEMH4SWP73O3GW1","","","<img src=""img/flower6.png"" style=""width:200px; border:14px solid green;"">","null","","","",""
"1141.1999999955297","","image-keyboard-response","262","668614","0.0-262.0","3ZWFC4W1UVTQBPG0VA6ICVD2E4ORFF","A2V6E7SGEU0EFD","3LN3BXKGC0HZB1VNEMH4SWP73O3GW1","","","img/flower8.png","75","1142.1000000014901","75","1",""
"null","","html-keyboard-response","263","668925","0.0-263.0","3ZWFC4W1UVTQBPG0VA6ICVD2E4ORFF","A2V6E7SGEU0EFD","3LN3BXKGC0HZB1VNEMH4SWP73O3GW1","","","<img src=""img/flower8.png"" style=""width:200px; border:14px solid green;"">","null","","","",""
"609.7999999970198","","image-keyboard-response","264","669536","0.0-264.0","3ZWFC4W1UVTQBPG0VA6ICVD2E4ORFF","A2V6E7SGEU0EFD","3LN3BXKGC0HZB1VNEMH4SWP73O3GW1","","","img/flower6.png","76","610.6000000014901","76","1",""
"null","","html-keyboard-response","265","669837","0.0-265.0","3ZWFC4W1UVTQBPG0VA6ICVD2E4ORFF","A2V6E7SGEU0EFD","3LN3BXKGC0HZB1VNEMH4SWP73O3GW1","","","<img src=""img/flower6.png"" style=""width:200px; border:14px solid green;"">","null","","","",""
"495.70000000298023","","image-keyboard-response","266","670333","0.0-266.0","3ZWFC4W1UVTQBPG0VA6ICVD2E4ORFF","A2V6E7SGEU0EFD","3LN3BXKGC0HZB1VNEMH4SWP73O3GW1","","","img/flower8.png","75","496.5","75","1",""
"null","","html-keyboard-response","267","670636","0.0-267.0","3ZWFC4W1UVTQBPG0VA6ICVD2E4ORFF","A2V6E7SGEU0EFD","3LN3BXKGC0HZB1VNEMH4SWP73O3GW1","","","<img src=""img/flower8.png"" style=""width:200px; border:14px solid green;"">","null","","","",""
"574.7000000029802","","image-keyboard-response","268","671211","0.0-268.0","3ZWFC4W1UVTQBPG0VA6ICVD2E4ORFF","A2V6E7SGEU0EFD","3LN3BXKGC0HZB1VNEMH4SWP73O3GW1","","","img/flower6.png","76","575.5","76","1",""
"null","","html-keyboard-response","269","671513","0.0-269.0","3ZWFC4W1UVTQBPG0VA6ICVD2E4ORFF","A2V6E7SGEU0EFD","3LN3BXKGC0HZB1VNEMH4SWP73O3GW1","","","<img src=""img/flower6.png"" style=""width:200px; border:14px solid green;"">","null","","","",""
"566.5","","image-keyboard-response","270","672080","0.0-270.0","3ZWFC4W1UVTQBPG0VA6ICVD2E4ORFF","A2V6E7SGEU0EFD","3LN3BXKGC0HZB1VNEMH4SWP73O3GW1","","","img/flower9.png","74","567.2000000029802","74","1",""
"null","","html-keyboard-response","271","672382","0.0-271.0","3ZWFC4W1UVTQBPG0VA6ICVD2E4ORFF","A2V6E7SGEU0EFD","3LN3BXKGC0HZB1VNEMH4SWP73O3GW1","","","<img src=""img/flower9.png"" style=""width:200px; border:14px solid green;"">","null","","","",""
"689.5","","image-keyboard-response","272","673073","0.0-272.0","3ZWFC4W1UVTQBPG0VA6ICVD2E4ORFF","A2V6E7SGEU0EFD","3LN3BXKGC0HZB1VNEMH4SWP73O3GW1","","","img/flower6.png","76","690.7999999970198","76","1",""
"null","","html-keyboard-response","273","673375","0.0-273.0","3ZWFC4W1UVTQBPG0VA6ICVD2E4ORFF","A2V6E7SGEU0EFD","3LN3BXKGC0HZB1VNEMH4SWP73O3GW1","","","<img src=""img/flower6.png"" style=""width:200px; border:14px solid green;"">","null","","","",""
"364.30000000447035","","image-keyboard-response","274","673740","0.0-274.0","3ZWFC4W1UVTQBPG0VA6ICVD2E4ORFF","A2V6E7SGEU0EFD","3LN3BXKGC0HZB1VNEMH4SWP73O3GW1","","","img/flower6.png","76","365.5","76","1",""
"null","","html-keyboard-response","275","674043","0.0-275.0","3ZWFC4W1UVTQBPG0VA6ICVD2E4ORFF","A2V6E7SGEU0EFD","3LN3BXKGC0HZB1VNEMH4SWP73O3GW1","","","<img src=""img/flower6.png"" style=""width:200px; border:14px solid green;"">","null","","","",""
"311.1000000014901","","image-keyboard-response","276","674355","0.0-276.0","3ZWFC4W1UVTQBPG0VA6ICVD2E4ORFF","A2V6E7SGEU0EFD","3LN3BXKGC0HZB1VNEMH4SWP73O3GW1","","","img/flower6.png","76","311.70000000298023","76","1",""
"null","","html-keyboard-response","277","674656","0.0-277.0","3ZWFC4W1UVTQBPG0VA6ICVD2E4ORFF","A2V6E7SGEU0EFD","3LN3BXKGC0HZB1VNEMH4SWP73O3GW1","","","<img src=""img/flower6.png"" style=""width:200px; border:14px solid green;"">","null","","","",""
"623.5","","image-keyboard-response","278","675280","0.0-278.0","3ZWFC4W1UVTQBPG0VA6ICVD2E4ORFF","A2V6E7SGEU0EFD","3LN3BXKGC0HZB1VNEMH4SWP73O3GW1","","","img/flower8.png","75","624.2000000029802","75","1",""
"null","","html-keyboard-response","279","675582","0.0-279.0","3ZWFC4W1UVTQBPG0VA6ICVD2E4ORFF","A2V6E7SGEU0EFD","3LN3BXKGC0HZB1VNEMH4SWP73O3GW1","","","<img src=""img/flower8.png"" style=""width:200px; border:14px solid green;"">","null","","","",""
"689.1999999955297","","image-keyboard-response","280","676272","0.0-280.0","3ZWFC4W1UVTQBPG0VA6ICVD2E4ORFF","A2V6E7SGEU0EFD","3LN3BXKGC0HZB1VNEMH4SWP73O3GW1","","","img/flower6.png","76","690.1999999955297","76","1",""
"null","","html-keyboard-response","281","676574","0.0-281.0","3ZWFC4W1UVTQBPG0VA6ICVD2E4ORFF","A2V6E7SGEU0EFD","3LN3BXKGC0HZB1VNEMH4SWP73O3GW1","","","<img src=""img/flower6.png"" style=""width:200px; border:14px solid green;"">","null","","","",""
"509.29999999701977","","image-keyboard-response","282","677084","0.0-282.0","3ZWFC4W1UVTQBPG0VA6ICVD2E4ORFF","A2V6E7SGEU0EFD","3LN3BXKGC0HZB1VNEMH4SWP73O3GW1","","","img/flower8.png","75","510","75","0",""
"null","","html-keyboard-response","283","677386","0.0-283.0","3ZWFC4W1UVTQBPG0VA6ICVD2E4ORFF","A2V6E7SGEU0EFD","3LN3BXKGC0HZB1VNEMH4SWP73O3GW1","","","<img src=""img/flower8.png"" style=""width:200px;border:14px solid red;"">","null","","","",""
"1504.2999999970198","","image-keyboard-response","284","678892","0.0-284.0","3ZWFC4W1UVTQBPG0VA6ICVD2E4ORFF","A2V6E7SGEU0EFD","3LN3BXKGC0HZB1VNEMH4SWP73O3GW1","","","img/flower9.png","74","1505","74","1",""
"null","","html-keyboard-response","285","679194","0.0-285.0","3ZWFC4W1UVTQBPG0VA6ICVD2E4ORFF","A2V6E7SGEU0EFD","3LN3BXKGC0HZB1VNEMH4SWP73O3GW1","","","<img src=""img/flower9.png"" style=""width:200px; border:14px solid green;"">","null","","","",""
"310.80000000447035","","image-keyboard-response","286","679505","0.0-286.0","3ZWFC4W1UVTQBPG0VA6ICVD2E4ORFF","A2V6E7SGEU0EFD","3LN3BXKGC0HZB1VNEMH4SWP73O3GW1","","","img/flower9.png","74","311.79999999701977","74","1",""
"null","","html-keyboard-response","287","679806","0.0-287.0","3ZWFC4W1UVTQBPG0VA6ICVD2E4ORFF","A2V6E7SGEU0EFD","3LN3BXKGC0HZB1VNEMH4SWP73O3GW1","","","<img src=""img/flower9.png"" style=""width:200px; border:14px solid green;"">","null","","","",""
"1882.3999999985099","","image-keyboard-response","288","681690","0.0-288.0","3ZWFC4W1UVTQBPG0VA6ICVD2E4ORFF","A2V6E7SGEU0EFD","3LN3BXKGC0HZB1VNEMH4SWP73O3GW1","","","img/flower8.png","75","1883.2999999970198","75","1",""
"null","","html-keyboard-response","289","681991","0.0-289.0","3ZWFC4W1UVTQBPG0VA6ICVD2E4ORFF","A2V6E7SGEU0EFD","3LN3BXKGC0HZB1VNEMH4SWP73O3GW1","","","<img src=""img/flower8.png"" style=""width:200px; border:14px solid green;"">","null","","","",""
"613.5","","image-keyboard-response","290","682606","0.0-290.0","3ZWFC4W1UVTQBPG0VA6ICVD2E4ORFF","A2V6E7SGEU0EFD","3LN3BXKGC0HZB1VNEMH4SWP73O3GW1","","","img/flower6.png","76","614.5","76","1",""
"null","","html-keyboard-response","291","682908","0.0-291.0","3ZWFC4W1UVTQBPG0VA6ICVD2E4ORFF","A2V6E7SGEU0EFD","3LN3BXKGC0HZB1VNEMH4SWP73O3GW1","","","<img src=""img/flower6.png"" style=""width:200px; border:14px solid green;"">","null","","","",""
"550.5","","image-keyboard-response","292","683460","0.0-292.0","3ZWFC4W1UVTQBPG0VA6ICVD2E4ORFF","A2V6E7SGEU0EFD","3LN3BXKGC0HZB1VNEMH4SWP73O3GW1","","","img/flower9.png","74","551.6999999955297","74","1",""
"null","","html-keyboard-response","293","683761","0.0-293.0","3ZWFC4W1UVTQBPG0VA6ICVD2E4ORFF","A2V6E7SGEU0EFD","3LN3BXKGC0HZB1VNEMH4SWP73O3GW1","","","<img src=""img/flower9.png"" style=""width:200px; border:14px solid green;"">","null","","","",""
"1390.1000000014901","","image-keyboard-response","294","685152","0.0-294.0","3ZWFC4W1UVTQBPG0VA6ICVD2E4ORFF","A2V6E7SGEU0EFD","3LN3BXKGC0HZB1VNEMH4SWP73O3GW1","","","img/flower8.png","74","1391","74","1",""
"null","","html-keyboard-response","295","685454","0.0-295.0","3ZWFC4W1UVTQBPG0VA6ICVD2E4ORFF","A2V6E7SGEU0EFD","3LN3BXKGC0HZB1VNEMH4SWP73O3GW1","","","<img src=""img/flower8.png"" style=""width:200px; border:14px solid green;"">","null","","","",""
"562.8999999985099","","image-keyboard-response","296","686018","0.0-296.0","3ZWFC4W1UVTQBPG0VA6ICVD2E4ORFF","A2V6E7SGEU0EFD","3LN3BXKGC0HZB1VNEMH4SWP73O3GW1","","","img/flower6.png","76","563.6000000014901","76","1",""
"null","","html-keyboard-response","297","686319","0.0-297.0","3ZWFC4W1UVTQBPG0VA6ICVD2E4ORFF","A2V6E7SGEU0EFD","3LN3BXKGC0HZB1VNEMH4SWP73O3GW1","","","<img src=""img/flower6.png"" style=""width:200px; border:14px solid green;"">","null","","","",""
"639.2999999970198","","image-keyboard-response","298","686960","0.0-298.0","3ZWFC4W1UVTQBPG0VA6ICVD2E4ORFF","A2V6E7SGEU0EFD","3LN3BXKGC0HZB1VNEMH4SWP73O3GW1","","","img/flower9.png","75","640.1000000014901","75","0",""
"null","","html-keyboard-response","299","687262","0.0-299.0","3ZWFC4W1UVTQBPG0VA6ICVD2E4ORFF","A2V6E7SGEU0EFD","3LN3BXKGC0HZB1VNEMH4SWP73O3GW1","","","<img src=""img/flower9.png"" style=""width:200px;border:14px solid red;"">","null","","","",""
"1017","","image-keyboard-response","300","688280","0.0-300.0","3ZWFC4W1UVTQBPG0VA6ICVD2E4ORFF","A2V6E7SGEU0EFD","3LN3BXKGC0HZB1VNEMH4SWP73O3GW1","","","img/flower6.png","76","1018.1999999955297","76","1",""
"null","","html-keyboard-response","301","688582","0.0-301.0","3ZWFC4W1UVTQBPG0VA6ICVD2E4ORFF","A2V6E7SGEU0EFD","3LN3BXKGC0HZB1VNEMH4SWP73O3GW1","","","<img src=""img/flower6.png"" style=""width:200px; border:14px solid green;"">","null","","","",""
"358.69999999552965","","image-keyboard-response","302","688942","0.0-302.0","3ZWFC4W1UVTQBPG0VA6ICVD2E4ORFF","A2V6E7SGEU0EFD","3LN3BXKGC0HZB1VNEMH4SWP73O3GW1","","","img/flower6.png","76","359.40000000596046","76","1",""
"null","","html-keyboard-response","303","689243","0.0-303.0","3ZWFC4W1UVTQBPG0VA6ICVD2E4ORFF","A2V6E7SGEU0EFD","3LN3BXKGC0HZB1VNEMH4SWP73O3GW1","","","<img src=""img/flower6.png"" style=""width:200px; border:14px solid green;"">","null","","","",""
"1498.2999999970198","","image-keyboard-response","304","690743","0.0-304.0","3ZWFC4W1UVTQBPG0VA6ICVD2E4ORFF","A2V6E7SGEU0EFD","3LN3BXKGC0HZB1VNEMH4SWP73O3GW1","","","img/flower8.png","74","1499.8999999985099","74","0",""
"null","","html-keyboard-response","305","691045","0.0-305.0","3ZWFC4W1UVTQBPG0VA6ICVD2E4ORFF","A2V6E7SGEU0EFD","3LN3BXKGC0HZB1VNEMH4SWP73O3GW1","","","<img src=""img/flower8.png"" style=""width:200px;border:14px solid red;"">","null","","","",""
"","","html-keyboard-response","306","693955","0.0-306.0","3ZWFC4W1UVTQBPG0VA6ICVD2E4ORFF","A2V6E7SGEU0EFD","3LN3BXKGC0HZB1VNEMH4SWP73O3GW1","","","","","","","",""
"1405.1000000014901","","image-keyboard-response","307","695361","0.0-307.0","3ZWFC4W1UVTQBPG0VA6ICVD2E4ORFF","A2V6E7SGEU0EFD","3LN3BXKGC0HZB1VNEMH4SWP73O3GW1","","","img/flower2.png","74","1405.8999999985099","74","1",""
"null","","html-keyboard-response","308","695664","0.0-308.0","3ZWFC4W1UVTQBPG0VA6ICVD2E4ORFF","A2V6E7SGEU0EFD","3LN3BXKGC0HZB1VNEMH4SWP73O3GW1","","","<img src=""img/flower2.png"" style=""width:200px; border:14px solid green;"">","null","","","",""
"351.6000000014901","","image-keyboard-response","309","696016","0.0-309.0","3ZWFC4W1UVTQBPG0VA6ICVD2E4ORFF","A2V6E7SGEU0EFD","3LN3BXKGC0HZB1VNEMH4SWP73O3GW1","","","img/flower2.png","74","352.29999999701977","74","0",""
"null","","html-keyboard-response","310","696318","0.0-310.0","3ZWFC4W1UVTQBPG0VA6ICVD2E4ORFF","A2V6E7SGEU0EFD","3LN3BXKGC0HZB1VNEMH4SWP73O3GW1","","","<img src=""img/flower2.png"" style=""width:200px;border:14px solid red;"">","null","","","",""
"657.5","","image-keyboard-response","311","696977","0.0-311.0","3ZWFC4W1UVTQBPG0VA6ICVD2E4ORFF","A2V6E7SGEU0EFD","3LN3BXKGC0HZB1VNEMH4SWP73O3GW1","","","img/flower4.png","75","658.6999999955297","75","1",""
"null","","html-keyboard-response","312","697279","0.0-312.0","3ZWFC4W1UVTQBPG0VA6ICVD2E4ORFF","A2V6E7SGEU0EFD","3LN3BXKGC0HZB1VNEMH4SWP73O3GW1","","","<img src=""img/flower4.png"" style=""width:200px; border:14px solid green;"">","null","","","",""
"375.19999999552965","","image-keyboard-response","313","697656","0.0-313.0","3ZWFC4W1UVTQBPG0VA6ICVD2E4ORFF","A2V6E7SGEU0EFD","3LN3BXKGC0HZB1VNEMH4SWP73O3GW1","","","img/flower4.png","75","376.1000000014901","75","1",""
"null","","html-keyboard-response","314","697957","0.0-314.0","3ZWFC4W1UVTQBPG0VA6ICVD2E4ORFF","A2V6E7SGEU0EFD","3LN3BXKGC0HZB1VNEMH4SWP73O3GW1","","","<img src=""img/flower4.png"" style=""width:200px; border:14px solid green;"">","null","","","",""
"799.7999999970198","","image-keyboard-response","315","698758","0.0-315.0","3ZWFC4W1UVTQBPG0VA6ICVD2E4ORFF","A2V6E7SGEU0EFD","3LN3BXKGC0HZB1VNEMH4SWP73O3GW1","","","img/flower2.png","74","800.8999999985099","74","0",""
"null","","html-keyboard-response","316","699060","0.0-316.0","3ZWFC4W1UVTQBPG0VA6ICVD2E4ORFF","A2V6E7SGEU0EFD","3LN3BXKGC0HZB1VNEMH4SWP73O3GW1","","","<img src=""img/flower2.png"" style=""width:200px;border:14px solid red;"">","null","","","",""
"435.19999999552965","","image-keyboard-response","317","699497","0.0-317.0","3ZWFC4W1UVTQBPG0VA6ICVD2E4ORFF","A2V6E7SGEU0EFD","3LN3BXKGC0HZB1VNEMH4SWP73O3GW1","","","img/flower2.png","74","436.1000000014901","74","0",""
"null","","html-keyboard-response","318","699798","0.0-318.0","3ZWFC4W1UVTQBPG0VA6ICVD2E4ORFF","A2V6E7SGEU0EFD","3LN3BXKGC0HZB1VNEMH4SWP73O3GW1","","","<img src=""img/flower2.png"" style=""width:200px;border:14px solid red;"">","null","","","",""
"836.8999999985099","","image-keyboard-response","319","700635","0.0-319.0","3ZWFC4W1UVTQBPG0VA6ICVD2E4ORFF","A2V6E7SGEU0EFD","3LN3BXKGC0HZB1VNEMH4SWP73O3GW1","","","img/flower2.png","76","837.5999999940395","76","1",""
"null","","html-keyboard-response","320","700937","0.0-320.0","3ZWFC4W1UVTQBPG0VA6ICVD2E4ORFF","A2V6E7SGEU0EFD","3LN3BXKGC0HZB1VNEMH4SWP73O3GW1","","","<img src=""img/flower2.png"" style=""width:200px; border:14px solid green;"">","null","","","",""
"540.3999999985099","","image-keyboard-response","321","701478","0.0-321.0","3ZWFC4W1UVTQBPG0VA6ICVD2E4ORFF","A2V6E7SGEU0EFD","3LN3BXKGC0HZB1VNEMH4SWP73O3GW1","","","img/flower2.png","76","541.0999999940395","76","1",""
"null","","html-keyboard-response","322","701780","0.0-322.0","3ZWFC4W1UVTQBPG0VA6ICVD2E4ORFF","A2V6E7SGEU0EFD","3LN3BXKGC0HZB1VNEMH4SWP73O3GW1","","","<img src=""img/flower2.png"" style=""width:200px; border:14px solid green;"">","null","","","",""
"368.20000000298023","","image-keyboard-response","323","702149","0.0-323.0","3ZWFC4W1UVTQBPG0VA6ICVD2E4ORFF","A2V6E7SGEU0EFD","3LN3BXKGC0HZB1VNEMH4SWP73O3GW1","","","img/flower2.png","76","368.90000000596046","76","1",""
"null","","html-keyboard-response","324","702451","0.0-324.0","3ZWFC4W1UVTQBPG0VA6ICVD2E4ORFF","A2V6E7SGEU0EFD","3LN3BXKGC0HZB1VNEMH4SWP73O3GW1","","","<img src=""img/flower2.png"" style=""width:200px; border:14px solid green;"">","null","","","",""
"657.1000000014901","","image-keyboard-response","325","703109","0.0-325.0","3ZWFC4W1UVTQBPG0VA6ICVD2E4ORFF","A2V6E7SGEU0EFD","3LN3BXKGC0HZB1VNEMH4SWP73O3GW1","","","img/flower4.png","75","658.2000000029802","75","1",""
"null","","html-keyboard-response","326","703411","0.0-326.0","3ZWFC4W1UVTQBPG0VA6ICVD2E4ORFF","A2V6E7SGEU0EFD","3LN3BXKGC0HZB1VNEMH4SWP73O3GW1","","","<img src=""img/flower4.png"" style=""width:200px; border:14px solid green;"">","null","","","",""
"459.6000000014901","","image-keyboard-response","327","703872","0.0-327.0","3ZWFC4W1UVTQBPG0VA6ICVD2E4ORFF","A2V6E7SGEU0EFD","3LN3BXKGC0HZB1VNEMH4SWP73O3GW1","","","img/flower2.png","76","461","76","1",""
"null","","html-keyboard-response","328","704173","0.0-328.0","3ZWFC4W1UVTQBPG0VA6ICVD2E4ORFF","A2V6E7SGEU0EFD","3LN3BXKGC0HZB1VNEMH4SWP73O3GW1","","","<img src=""img/flower2.png"" style=""width:200px; border:14px solid green;"">","null","","","",""
"290.3999999985099","","image-keyboard-response","329","704465","0.0-329.0","3ZWFC4W1UVTQBPG0VA6ICVD2E4ORFF","A2V6E7SGEU0EFD","3LN3BXKGC0HZB1VNEMH4SWP73O3GW1","","","img/flower2.png","76","291.19999999552965","76","1",""
"null","","html-keyboard-response","330","704766","0.0-330.0","3ZWFC4W1UVTQBPG0VA6ICVD2E4ORFF","A2V6E7SGEU0EFD","3LN3BXKGC0HZB1VNEMH4SWP73O3GW1","","","<img src=""img/flower2.png"" style=""width:200px; border:14px solid green;"">","null","","","",""
"298.29999999701977","","image-keyboard-response","331","705066","0.0-331.0","3ZWFC4W1UVTQBPG0VA6ICVD2E4ORFF","A2V6E7SGEU0EFD","3LN3BXKGC0HZB1VNEMH4SWP73O3GW1","","","img/flower2.png","76","299.6000000014901","76","0",""
"null","","html-keyboard-response","332","705368","0.0-332.0","3ZWFC4W1UVTQBPG0VA6ICVD2E4ORFF","A2V6E7SGEU0EFD","3LN3BXKGC0HZB1VNEMH4SWP73O3GW1","","","<img src=""img/flower2.png"" style=""width:200px;border:14px solid red;"">","null","","","",""
"871.2999999970198","","image-keyboard-response","333","706240","0.0-333.0","3ZWFC4W1UVTQBPG0VA6ICVD2E4ORFF","A2V6E7SGEU0EFD","3LN3BXKGC0HZB1VNEMH4SWP73O3GW1","","","img/flower7.png","74","872.2999999970198","74","0",""
"null","","html-keyboard-response","334","706542","0.0-334.0","3ZWFC4W1UVTQBPG0VA6ICVD2E4ORFF","A2V6E7SGEU0EFD","3LN3BXKGC0HZB1VNEMH4SWP73O3GW1","","","<img src=""img/flower7.png"" style=""width:200px;border:14px solid red;"">","null","","","",""
"1038.2000000029802","","image-keyboard-response","335","707581","0.0-335.0","3ZWFC4W1UVTQBPG0VA6ICVD2E4ORFF","A2V6E7SGEU0EFD","3LN3BXKGC0HZB1VNEMH4SWP73O3GW1","","","img/flower4.png","75","1038.8999999985099","75","1",""
"null","","html-keyboard-response","336","707883","0.0-336.0","3ZWFC4W1UVTQBPG0VA6ICVD2E4ORFF","A2V6E7SGEU0EFD","3LN3BXKGC0HZB1VNEMH4SWP73O3GW1","","","<img src=""img/flower4.png"" style=""width:200px; border:14px solid green;"">","null","","","",""
"954.8000000044703","","image-keyboard-response","337","708838","0.0-337.0","3ZWFC4W1UVTQBPG0VA6ICVD2E4ORFF","A2V6E7SGEU0EFD","3LN3BXKGC0HZB1VNEMH4SWP73O3GW1","","","img/flower7.png","76","955.6000000014901","76","1",""
"null","","html-keyboard-response","338","709140","0.0-338.0","3ZWFC4W1UVTQBPG0VA6ICVD2E4ORFF","A2V6E7SGEU0EFD","3LN3BXKGC0HZB1VNEMH4SWP73O3GW1","","","<img src=""img/flower7.png"" style=""width:200px; border:14px solid green;"">","null","","","",""
"660.2999999970198","","image-keyboard-response","339","709802","0.0-339.0","3ZWFC4W1UVTQBPG0VA6ICVD2E4ORFF","A2V6E7SGEU0EFD","3LN3BXKGC0HZB1VNEMH4SWP73O3GW1","","","img/flower4.png","75","661.1000000014901","75","1",""
"null","","html-keyboard-response","340","710103","0.0-340.0","3ZWFC4W1UVTQBPG0VA6ICVD2E4ORFF","A2V6E7SGEU0EFD","3LN3BXKGC0HZB1VNEMH4SWP73O3GW1","","","<img src=""img/flower4.png"" style=""width:200px; border:14px solid green;"">","null","","","",""
"428.1000000014901","","image-keyboard-response","341","710532","0.0-341.0","3ZWFC4W1UVTQBPG0VA6ICVD2E4ORFF","A2V6E7SGEU0EFD","3LN3BXKGC0HZB1VNEMH4SWP73O3GW1","","","img/flower7.png","76","428.8999999985099","76","0",""
"null","","html-keyboard-response","342","710834","0.0-342.0","3ZWFC4W1UVTQBPG0VA6ICVD2E4ORFF","A2V6E7SGEU0EFD","3LN3BXKGC0HZB1VNEMH4SWP73O3GW1","","","<img src=""img/flower7.png"" style=""width:200px;border:14px solid red;"">","null","","","",""
"546.6999999955297","","image-keyboard-response","343","711382","0.0-343.0","3ZWFC4W1UVTQBPG0VA6ICVD2E4ORFF","A2V6E7SGEU0EFD","3LN3BXKGC0HZB1VNEMH4SWP73O3GW1","","","img/flower7.png","74","547.6000000014901","74","1",""
"null","","html-keyboard-response","344","711683","0.0-344.0","3ZWFC4W1UVTQBPG0VA6ICVD2E4ORFF","A2V6E7SGEU0EFD","3LN3BXKGC0HZB1VNEMH4SWP73O3GW1","","","<img src=""img/flower7.png"" style=""width:200px; border:14px solid green;"">","null","","","",""
"649.1999999955297","","image-keyboard-response","345","712333","0.0-345.0","3ZWFC4W1UVTQBPG0VA6ICVD2E4ORFF","A2V6E7SGEU0EFD","3LN3BXKGC0HZB1VNEMH4SWP73O3GW1","","","img/flower7.png","74","649.7999999970198","74","1",""
"null","","html-keyboard-response","346","712635","0.0-346.0","3ZWFC4W1UVTQBPG0VA6ICVD2E4ORFF","A2V6E7SGEU0EFD","3LN3BXKGC0HZB1VNEMH4SWP73O3GW1","","","<img src=""img/flower7.png"" style=""width:200px; border:14px solid green;"">","null","","","",""
"1246.3999999985099","","image-keyboard-response","347","713882","0.0-347.0","3ZWFC4W1UVTQBPG0VA6ICVD2E4ORFF","A2V6E7SGEU0EFD","3LN3BXKGC0HZB1VNEMH4SWP73O3GW1","","","img/flower2.png","76","1247.1999999955297","76","1",""
"null","","html-keyboard-response","348","714183","0.0-348.0","3ZWFC4W1UVTQBPG0VA6ICVD2E4ORFF","A2V6E7SGEU0EFD","3LN3BXKGC0HZB1VNEMH4SWP73O3GW1","","","<img src=""img/flower2.png"" style=""width:200px; border:14px solid green;"">","null","","","",""
"801.8999999985099","","image-keyboard-response","349","714985","0.0-349.0","3ZWFC4W1UVTQBPG0VA6ICVD2E4ORFF","A2V6E7SGEU0EFD","3LN3BXKGC0HZB1VNEMH4SWP73O3GW1","","","img/flower7.png","74","802.6000000014901","74","0",""
"null","","html-keyboard-response","350","715287","0.0-350.0","3ZWFC4W1UVTQBPG0VA6ICVD2E4ORFF","A2V6E7SGEU0EFD","3LN3BXKGC0HZB1VNEMH4SWP73O3GW1","","","<img src=""img/flower7.png"" style=""width:200px;border:14px solid red;"">","null","","","",""
"801.0999999940395","","image-keyboard-response","351","716089","0.0-351.0","3ZWFC4W1UVTQBPG0VA6ICVD2E4ORFF","A2V6E7SGEU0EFD","3LN3BXKGC0HZB1VNEMH4SWP73O3GW1","","","img/flower4.png","75","801.7999999970198","75","0",""
"null","","html-keyboard-response","352","716391","0.0-352.0","3ZWFC4W1UVTQBPG0VA6ICVD2E4ORFF","A2V6E7SGEU0EFD","3LN3BXKGC0HZB1VNEMH4SWP73O3GW1","","","<img src=""img/flower4.png"" style=""width:200px;border:14px solid red;"">","null","","","",""
"1244.2000000029802","","image-keyboard-response","353","717636","0.0-353.0","3ZWFC4W1UVTQBPG0VA6ICVD2E4ORFF","A2V6E7SGEU0EFD","3LN3BXKGC0HZB1VNEMH4SWP73O3GW1","","","img/flower7.png","76","1245","76","1",""
"null","","html-keyboard-response","354","717937","0.0-354.0","3ZWFC4W1UVTQBPG0VA6ICVD2E4ORFF","A2V6E7SGEU0EFD","3LN3BXKGC0HZB1VNEMH4SWP73O3GW1","","","<img src=""img/flower7.png"" style=""width:200px; border:14px solid green;"">","null","","","",""
"684.3999999985099","","image-keyboard-response","355","718623","0.0-355.0","3ZWFC4W1UVTQBPG0VA6ICVD2E4ORFF","A2V6E7SGEU0EFD","3LN3BXKGC0HZB1VNEMH4SWP73O3GW1","","","img/flower4.png","75","685.3999999985099","75","1",""
"null","","html-keyboard-response","356","718924","0.0-356.0","3ZWFC4W1UVTQBPG0VA6ICVD2E4ORFF","A2V6E7SGEU0EFD","3LN3BXKGC0HZB1VNEMH4SWP73O3GW1","","","<img src=""img/flower4.png"" style=""width:200px; border:14px solid green;"">","null","","","",""
"563.2000000029802","","image-keyboard-response","357","719489","0.0-357.0","3ZWFC4W1UVTQBPG0VA6ICVD2E4ORFF","A2V6E7SGEU0EFD","3LN3BXKGC0HZB1VNEMH4SWP73O3GW1","","","img/flower7.png","76","564.6000000014901","76","1",""
"null","","html-keyboard-response","358","719790","0.0-358.0","3ZWFC4W1UVTQBPG0VA6ICVD2E4ORFF","A2V6E7SGEU0EFD","3LN3BXKGC0HZB1VNEMH4SWP73O3GW1","","","<img src=""img/flower7.png"" style=""width:200px; border:14px solid green;"">","null","","","",""
"1274.2000000029802","","image-keyboard-response","359","721066","0.0-359.0","3ZWFC4W1UVTQBPG0VA6ICVD2E4ORFF","A2V6E7SGEU0EFD","3LN3BXKGC0HZB1VNEMH4SWP73O3GW1","","","img/flower2.png","74","1275.5","74","0",""
"null","","html-keyboard-response","360","721368","0.0-360.0","3ZWFC4W1UVTQBPG0VA6ICVD2E4ORFF","A2V6E7SGEU0EFD","3LN3BXKGC0HZB1VNEMH4SWP73O3GW1","","","<img src=""img/flower2.png"" style=""width:200px;border:14px solid red;"">","null","","","",""
"863","","image-keyboard-response","361","722232","0.0-361.0","3ZWFC4W1UVTQBPG0VA6ICVD2E4ORFF","A2V6E7SGEU0EFD","3LN3BXKGC0HZB1VNEMH4SWP73O3GW1","","","img/flower4.png","75","863.7999999970198","75","1",""
"null","","html-keyboard-response","362","722534","0.0-362.0","3ZWFC4W1UVTQBPG0VA6ICVD2E4ORFF","A2V6E7SGEU0EFD","3LN3BXKGC0HZB1VNEMH4SWP73O3GW1","","","<img src=""img/flower4.png"" style=""width:200px; border:14px solid green;"">","null","","","",""
"428.5","","image-keyboard-response","363","722964","0.0-363.0","3ZWFC4W1UVTQBPG0VA6ICVD2E4ORFF","A2V6E7SGEU0EFD","3LN3BXKGC0HZB1VNEMH4SWP73O3GW1","","","img/flower4.png","75","429.6000000014901","75","1",""
"null","","html-keyboard-response","364","723266","0.0-364.0","3ZWFC4W1UVTQBPG0VA6ICVD2E4ORFF","A2V6E7SGEU0EFD","3LN3BXKGC0HZB1VNEMH4SWP73O3GW1","","","<img src=""img/flower4.png"" style=""width:200px; border:14px solid green;"">","null","","","",""
"348.6000000014901","","image-keyboard-response","365","723616","0.0-365.0","3ZWFC4W1UVTQBPG0VA6ICVD2E4ORFF","A2V6E7SGEU0EFD","3LN3BXKGC0HZB1VNEMH4SWP73O3GW1","","","img/flower4.png","75","349.79999999701977","75","1",""
"null","","html-keyboard-response","366","723918","0.0-366.0","3ZWFC4W1UVTQBPG0VA6ICVD2E4ORFF","A2V6E7SGEU0EFD","3LN3BXKGC0HZB1VNEMH4SWP73O3GW1","","","<img src=""img/flower4.png"" style=""width:200px; border:14px solid green;"">","null","","","",""
"813.9000000059605","","image-keyboard-response","367","724733","0.0-367.0","3ZWFC4W1UVTQBPG0VA6ICVD2E4ORFF","A2V6E7SGEU0EFD","3LN3BXKGC0HZB1VNEMH4SWP73O3GW1","","","img/flower2.png","76","814.6999999955297","76","0",""
"null","","html-keyboard-response","368","725034","0.0-368.0","3ZWFC4W1UVTQBPG0VA6ICVD2E4ORFF","A2V6E7SGEU0EFD","3LN3BXKGC0HZB1VNEMH4SWP73O3GW1","","","<img src=""img/flower2.png"" style=""width:200px;border:14px solid red;"">","null","","","",""
"816.5","","image-keyboard-response","369","725852","0.0-369.0","3ZWFC4W1UVTQBPG0VA6ICVD2E4ORFF","A2V6E7SGEU0EFD","3LN3BXKGC0HZB1VNEMH4SWP73O3GW1","","","img/flower4.png","75","817.8000000044703","75","1",""
"null","","html-keyboard-response","370","726154","0.0-370.0","3ZWFC4W1UVTQBPG0VA6ICVD2E4ORFF","A2V6E7SGEU0EFD","3LN3BXKGC0HZB1VNEMH4SWP73O3GW1","","","<img src=""img/flower4.png"" style=""width:200px; border:14px solid green;"">","null","","","",""
"1220.6000000014901","","image-keyboard-response","371","727376","0.0-371.0","3ZWFC4W1UVTQBPG0VA6ICVD2E4ORFF","A2V6E7SGEU0EFD","3LN3BXKGC0HZB1VNEMH4SWP73O3GW1","","","img/flower2.png","74","1221.2999999970198","74","0",""
"null","","html-keyboard-response","372","727677","0.0-372.0","3ZWFC4W1UVTQBPG0VA6ICVD2E4ORFF","A2V6E7SGEU0EFD","3LN3BXKGC0HZB1VNEMH4SWP73O3GW1","","","<img src=""img/flower2.png"" style=""width:200px;border:14px solid red;"">","null","","","",""
"646.6999999955297","","image-keyboard-response","373","728325","0.0-373.0","3ZWFC4W1UVTQBPG0VA6ICVD2E4ORFF","A2V6E7SGEU0EFD","3LN3BXKGC0HZB1VNEMH4SWP73O3GW1","","","img/flower4.png","75","647.5","75","1",""
"null","","html-keyboard-response","374","728627","0.0-374.0","3ZWFC4W1UVTQBPG0VA6ICVD2E4ORFF","A2V6E7SGEU0EFD","3LN3BXKGC0HZB1VNEMH4SWP73O3GW1","","","<img src=""img/flower4.png"" style=""width:200px; border:14px solid green;"">","null","","","",""
"719","","image-keyboard-response","375","729347","0.0-375.0","3ZWFC4W1UVTQBPG0VA6ICVD2E4ORFF","A2V6E7SGEU0EFD","3LN3BXKGC0HZB1VNEMH4SWP73O3GW1","","","img/flower7.png","76","719.7000000029802","76","1",""
"null","","html-keyboard-response","376","729649","0.0-376.0","3ZWFC4W1UVTQBPG0VA6ICVD2E4ORFF","A2V6E7SGEU0EFD","3LN3BXKGC0HZB1VNEMH4SWP73O3GW1","","","<img src=""img/flower7.png"" style=""width:200px; border:14px solid green;"">","null","","","",""
"899.2000000029802","","image-keyboard-response","377","730549","0.0-377.0","3ZWFC4W1UVTQBPG0VA6ICVD2E4ORFF","A2V6E7SGEU0EFD","3LN3BXKGC0HZB1VNEMH4SWP73O3GW1","","","img/flower2.png","74","900.1000000014901","74","0",""
"null","","html-keyboard-response","378","730851","0.0-378.0","3ZWFC4W1UVTQBPG0VA6ICVD2E4ORFF","A2V6E7SGEU0EFD","3LN3BXKGC0HZB1VNEMH4SWP73O3GW1","","","<img src=""img/flower2.png"" style=""width:200px;border:14px solid red;"">","null","","","",""
"616.2000000029802","","image-keyboard-response","379","731469","0.0-379.0","3ZWFC4W1UVTQBPG0VA6ICVD2E4ORFF","A2V6E7SGEU0EFD","3LN3BXKGC0HZB1VNEMH4SWP73O3GW1","","","img/flower4.png","75","617.6000000014901","75","1",""
"null","","html-keyboard-response","380","731771","0.0-380.0","3ZWFC4W1UVTQBPG0VA6ICVD2E4ORFF","A2V6E7SGEU0EFD","3LN3BXKGC0HZB1VNEMH4SWP73O3GW1","","","<img src=""img/flower4.png"" style=""width:200px; border:14px solid green;"">","null","","","",""
"1652.0999999940395","","image-keyboard-response","381","733424","0.0-381.0","3ZWFC4W1UVTQBPG0VA6ICVD2E4ORFF","A2V6E7SGEU0EFD","3LN3BXKGC0HZB1VNEMH4SWP73O3GW1","","","img/flower7.png","76","1652.8000000044703","76","0",""
"null","","html-keyboard-response","382","733726","0.0-382.0","3ZWFC4W1UVTQBPG0VA6ICVD2E4ORFF","A2V6E7SGEU0EFD","3LN3BXKGC0HZB1VNEMH4SWP73O3GW1","","","<img src=""img/flower7.png"" style=""width:200px;border:14px solid red;"">","null","","","",""
"966.5","","image-keyboard-response","383","734693","0.0-383.0","3ZWFC4W1UVTQBPG0VA6ICVD2E4ORFF","A2V6E7SGEU0EFD","3LN3BXKGC0HZB1VNEMH4SWP73O3GW1","","","img/flower2.png","74","967.2000000029802","74","1",""
"null","","html-keyboard-response","384","734994","0.0-384.0","3ZWFC4W1UVTQBPG0VA6ICVD2E4ORFF","A2V6E7SGEU0EFD","3LN3BXKGC0HZB1VNEMH4SWP73O3GW1","","","<img src=""img/flower2.png"" style=""width:200px; border:14px solid green;"">","null","","","",""
"2069","","image-keyboard-response","385","737064","0.0-385.0","3ZWFC4W1UVTQBPG0VA6ICVD2E4ORFF","A2V6E7SGEU0EFD","3LN3BXKGC0HZB1VNEMH4SWP73O3GW1","","","img/flower4.png","75","2069.5999999940395","75","1",""
"null","","html-keyboard-response","386","737365","0.0-386.0","3ZWFC4W1UVTQBPG0VA6ICVD2E4ORFF","A2V6E7SGEU0EFD","3LN3BXKGC0HZB1VNEMH4SWP73O3GW1","","","<img src=""img/flower4.png"" style=""width:200px; border:14px solid green;"">","null","","","",""
"851.5","","image-keyboard-response","387","738218","0.0-387.0","3ZWFC4W1UVTQBPG0VA6ICVD2E4ORFF","A2V6E7SGEU0EFD","3LN3BXKGC0HZB1VNEMH4SWP73O3GW1","","","img/flower7.png","76","852.1999999955297","76","0",""
"null","","html-keyboard-response","388","738520","0.0-388.0","3ZWFC4W1UVTQBPG0VA6ICVD2E4ORFF","A2V6E7SGEU0EFD","3LN3BXKGC0HZB1VNEMH4SWP73O3GW1","","","<img src=""img/flower7.png"" style=""width:200px;border:14px solid red;"">","null","","","",""
"768.8999999985099","","image-keyboard-response","389","739289","0.0-389.0","3ZWFC4W1UVTQBPG0VA6ICVD2E4ORFF","A2V6E7SGEU0EFD","3LN3BXKGC0HZB1VNEMH4SWP73O3GW1","","","img/flower7.png","74","769.7000000029802","74","1",""
"null","","html-keyboard-response","390","739591","0.0-390.0","3ZWFC4W1UVTQBPG0VA6ICVD2E4ORFF","A2V6E7SGEU0EFD","3LN3BXKGC0HZB1VNEMH4SWP73O3GW1","","","<img src=""img/flower7.png"" style=""width:200px; border:14px solid green;"">","null","","","",""
"1046.5","","image-keyboard-response","391","740639","0.0-391.0","3ZWFC4W1UVTQBPG0VA6ICVD2E4ORFF","A2V6E7SGEU0EFD","3LN3BXKGC0HZB1VNEMH4SWP73O3GW1","","","img/flower4.png","75","1047.6000000014901","75","1",""
"null","","html-keyboard-response","392","740941","0.0-392.0","3ZWFC4W1UVTQBPG0VA6ICVD2E4ORFF","A2V6E7SGEU0EFD","3LN3BXKGC0HZB1VNEMH4SWP73O3GW1","","","<img src=""img/flower4.png"" style=""width:200px; border:14px solid green;"">","null","","","",""
"1154.8999999985099","","image-keyboard-response","393","742096","0.0-393.0","3ZWFC4W1UVTQBPG0VA6ICVD2E4ORFF","A2V6E7SGEU0EFD","3LN3BXKGC0HZB1VNEMH4SWP73O3GW1","","","img/flower2.png","74","1155.7000000029802","74","0",""
"null","","html-keyboard-response","394","742398","0.0-394.0","3ZWFC4W1UVTQBPG0VA6ICVD2E4ORFF","A2V6E7SGEU0EFD","3LN3BXKGC0HZB1VNEMH4SWP73O3GW1","","","<img src=""img/flower2.png"" style=""width:200px;border:14px solid red;"">","null","","","",""
"1005.1000000014901","","image-keyboard-response","395","743404","0.0-395.0","3ZWFC4W1UVTQBPG0VA6ICVD2E4ORFF","A2V6E7SGEU0EFD","3LN3BXKGC0HZB1VNEMH4SWP73O3GW1","","","img/flower7.png","76","1005.9000000059605","76","1",""
"null","","html-keyboard-response","396","743707","0.0-396.0","3ZWFC4W1UVTQBPG0VA6ICVD2E4ORFF","A2V6E7SGEU0EFD","3LN3BXKGC0HZB1VNEMH4SWP73O3GW1","","","<img src=""img/flower7.png"" style=""width:200px; border:14px solid green;"">","null","","","",""
"1395.2000000029802","","image-keyboard-response","397","745103","0.0-397.0","3ZWFC4W1UVTQBPG0VA6ICVD2E4ORFF","A2V6E7SGEU0EFD","3LN3BXKGC0HZB1VNEMH4SWP73O3GW1","","","img/flower4.png","75","1395.7999999970198","75","1",""
"null","","html-keyboard-response","398","745404","0.0-398.0","3ZWFC4W1UVTQBPG0VA6ICVD2E4ORFF","A2V6E7SGEU0EFD","3LN3BXKGC0HZB1VNEMH4SWP73O3GW1","","","<img src=""img/flower4.png"" style=""width:200px; border:14px solid green;"">","null","","","",""
"827.5","","image-keyboard-response","399","746232","0.0-399.0","3ZWFC4W1UVTQBPG0VA6ICVD2E4ORFF","A2V6E7SGEU0EFD","3LN3BXKGC0HZB1VNEMH4SWP73O3GW1","","","img/flower2.png","74","828.2999999970198","74","0",""
"null","","html-keyboard-response","400","746533","0.0-400.0","3ZWFC4W1UVTQBPG0VA6ICVD2E4ORFF","A2V6E7SGEU0EFD","3LN3BXKGC0HZB1VNEMH4SWP73O3GW1","","","<img src=""img/flower2.png"" style=""width:200px;border:14px solid red;"">","null","","","",""
"902.3999999985099","","image-keyboard-response","401","747436","0.0-401.0","3ZWFC4W1UVTQBPG0VA6ICVD2E4ORFF","A2V6E7SGEU0EFD","3LN3BXKGC0HZB1VNEMH4SWP73O3GW1","","","img/flower7.png","76","903.1000000014901","76","0",""
"null","","html-keyboard-response","402","747737","0.0-402.0","3ZWFC4W1UVTQBPG0VA6ICVD2E4ORFF","A2V6E7SGEU0EFD","3LN3BXKGC0HZB1VNEMH4SWP73O3GW1","","","<img src=""img/flower7.png"" style=""width:200px;border:14px solid red;"">","null","","","",""
"1511.5","","image-keyboard-response","403","749250","0.0-403.0","3ZWFC4W1UVTQBPG0VA6ICVD2E4ORFF","A2V6E7SGEU0EFD","3LN3BXKGC0HZB1VNEMH4SWP73O3GW1","","","img/flower4.png","76","1512.2999999970198","76","0",""
"null","","html-keyboard-response","404","749553","0.0-404.0","3ZWFC4W1UVTQBPG0VA6ICVD2E4ORFF","A2V6E7SGEU0EFD","3LN3BXKGC0HZB1VNEMH4SWP73O3GW1","","","<img src=""img/flower4.png"" style=""width:200px;border:14px solid red;"">","null","","","",""
"715.8000000044703","","image-keyboard-response","405","750269","0.0-405.0","3ZWFC4W1UVTQBPG0VA6ICVD2E4ORFF","A2V6E7SGEU0EFD","3LN3BXKGC0HZB1VNEMH4SWP73O3GW1","","","img/flower7.png","75","716.6000000014901","75","0",""
"null","","html-keyboard-response","406","750571","0.0-406.0","3ZWFC4W1UVTQBPG0VA6ICVD2E4ORFF","A2V6E7SGEU0EFD","3LN3BXKGC0HZB1VNEMH4SWP73O3GW1","","","<img src=""img/flower7.png"" style=""width:200px;border:14px solid red;"">","null","","","",""
"1213.3000000044703","","image-keyboard-response","407","751785","0.0-407.0","3ZWFC4W1UVTQBPG0VA6ICVD2E4ORFF","A2V6E7SGEU0EFD","3LN3BXKGC0HZB1VNEMH4SWP73O3GW1","","","img/flower4.png","75","1214.1000000014901","75","1",""
"null","","html-keyboard-response","408","752087","0.0-408.0","3ZWFC4W1UVTQBPG0VA6ICVD2E4ORFF","A2V6E7SGEU0EFD","3LN3BXKGC0HZB1VNEMH4SWP73O3GW1","","","<img src=""img/flower4.png"" style=""width:200px; border:14px solid green;"">","null","","","",""
"535.5","","image-keyboard-response","409","752623","0.0-409.0","3ZWFC4W1UVTQBPG0VA6ICVD2E4ORFF","A2V6E7SGEU0EFD","3LN3BXKGC0HZB1VNEMH4SWP73O3GW1","","","img/flower4.png","75","536.5","75","1",""
"null","","html-keyboard-response","410","752925","0.0-410.0","3ZWFC4W1UVTQBPG0VA6ICVD2E4ORFF","A2V6E7SGEU0EFD","3LN3BXKGC0HZB1VNEMH4SWP73O3GW1","","","<img src=""img/flower4.png"" style=""width:200px; border:14px solid green;"">","null","","","",""
"265.1000000014901","","image-keyboard-response","411","753191","0.0-411.0","3ZWFC4W1UVTQBPG0VA6ICVD2E4ORFF","A2V6E7SGEU0EFD","3LN3BXKGC0HZB1VNEMH4SWP73O3GW1","","","img/flower4.png","75","265.80000000447035","75","1",""
"null","","html-keyboard-response","412","753493","0.0-412.0","3ZWFC4W1UVTQBPG0VA6ICVD2E4ORFF","A2V6E7SGEU0EFD","3LN3BXKGC0HZB1VNEMH4SWP73O3GW1","","","<img src=""img/flower4.png"" style=""width:200px; border:14px solid green;"">","null","","","",""
"268.79999999701977","","image-keyboard-response","413","753763","0.0-413.0","3ZWFC4W1UVTQBPG0VA6ICVD2E4ORFF","A2V6E7SGEU0EFD","3LN3BXKGC0HZB1VNEMH4SWP73O3GW1","","","img/flower4.png","75","269.90000000596046","75","1",""
"null","","html-keyboard-response","414","754065","0.0-414.0","3ZWFC4W1UVTQBPG0VA6ICVD2E4ORFF","A2V6E7SGEU0EFD","3LN3BXKGC0HZB1VNEMH4SWP73O3GW1","","","<img src=""img/flower4.png"" style=""width:200px; border:14px solid green;"">","null","","","",""
"1316.8999999985099","","image-keyboard-response","415","755383","0.0-415.0","3ZWFC4W1UVTQBPG0VA6ICVD2E4ORFF","A2V6E7SGEU0EFD","3LN3BXKGC0HZB1VNEMH4SWP73O3GW1","","","img/flower2.png","74","1317.5","74","0",""
"null","","html-keyboard-response","416","755684","0.0-416.0","3ZWFC4W1UVTQBPG0VA6ICVD2E4ORFF","A2V6E7SGEU0EFD","3LN3BXKGC0HZB1VNEMH4SWP73O3GW1","","","<img src=""img/flower2.png"" style=""width:200px;border:14px solid red;"">","null","","","",""
"681.8000000044703","","image-keyboard-response","417","756367","0.0-417.0","3ZWFC4W1UVTQBPG0VA6ICVD2E4ORFF","A2V6E7SGEU0EFD","3LN3BXKGC0HZB1VNEMH4SWP73O3GW1","","","img/flower4.png","75","682.5","75","1",""
"null","","html-keyboard-response","418","756668","0.0-418.0","3ZWFC4W1UVTQBPG0VA6ICVD2E4ORFF","A2V6E7SGEU0EFD","3LN3BXKGC0HZB1VNEMH4SWP73O3GW1","","","<img src=""img/flower4.png"" style=""width:200px; border:14px solid green;"">","null","","","",""
"784.3999999985099","","image-keyboard-response","419","757453","0.0-419.0","3ZWFC4W1UVTQBPG0VA6ICVD2E4ORFF","A2V6E7SGEU0EFD","3LN3BXKGC0HZB1VNEMH4SWP73O3GW1","","","img/flower7.png","76","785.2000000029802","76","1",""
"null","","html-keyboard-response","420","757755","0.0-420.0","3ZWFC4W1UVTQBPG0VA6ICVD2E4ORFF","A2V6E7SGEU0EFD","3LN3BXKGC0HZB1VNEMH4SWP73O3GW1","","","<img src=""img/flower7.png"" style=""width:200px; border:14px solid green;"">","null","","","",""
"560.2000000029802","","image-keyboard-response","421","758317","0.0-421.0","3ZWFC4W1UVTQBPG0VA6ICVD2E4ORFF","A2V6E7SGEU0EFD","3LN3BXKGC0HZB1VNEMH4SWP73O3GW1","","","img/flower4.png","75","561.2999999970198","75","0",""
"null","","html-keyboard-response","422","758618","0.0-422.0","3ZWFC4W1UVTQBPG0VA6ICVD2E4ORFF","A2V6E7SGEU0EFD","3LN3BXKGC0HZB1VNEMH4SWP73O3GW1","","","<img src=""img/flower4.png"" style=""width:200px;border:14px solid red;"">","null","","","",""
"736.0999999940395","","image-keyboard-response","423","759356","0.0-423.0","3ZWFC4W1UVTQBPG0VA6ICVD2E4ORFF","A2V6E7SGEU0EFD","3LN3BXKGC0HZB1VNEMH4SWP73O3GW1","","","img/flower4.png","74","737.2999999970198","74","1",""
"null","","html-keyboard-response","424","759659","0.0-424.0","3ZWFC4W1UVTQBPG0VA6ICVD2E4ORFF","A2V6E7SGEU0EFD","3LN3BXKGC0HZB1VNEMH4SWP73O3GW1","","","<img src=""img/flower4.png"" style=""width:200px; border:14px solid green;"">","null","","","",""
"1225.5","","image-keyboard-response","425","760885","0.0-425.0","3ZWFC4W1UVTQBPG0VA6ICVD2E4ORFF","A2V6E7SGEU0EFD","3LN3BXKGC0HZB1VNEMH4SWP73O3GW1","","","img/flower2.png","74","1226.3999999985099","74","1",""
"null","","html-keyboard-response","426","761187","0.0-426.0","3ZWFC4W1UVTQBPG0VA6ICVD2E4ORFF","A2V6E7SGEU0EFD","3LN3BXKGC0HZB1VNEMH4SWP73O3GW1","","","<img src=""img/flower2.png"" style=""width:200px; border:14px solid green;"">","null","","","",""
"455.1000000014901","","image-keyboard-response","427","761644","0.0-427.0","3ZWFC4W1UVTQBPG0VA6ICVD2E4ORFF","A2V6E7SGEU0EFD","3LN3BXKGC0HZB1VNEMH4SWP73O3GW1","","","img/flower2.png","74","456.3999999985099","74","0",""
"null","","html-keyboard-response","428","761945","0.0-428.0","3ZWFC4W1UVTQBPG0VA6ICVD2E4ORFF","A2V6E7SGEU0EFD","3LN3BXKGC0HZB1VNEMH4SWP73O3GW1","","","<img src=""img/flower2.png"" style=""width:200px;border:14px solid red;"">","null","","","",""
