"success","trial_type","trial_index","time_elapsed","internal_node_id","assignmentID","mturkID","hitID","view_history","rt","stimulus","key_press","reactionTime","a","r","s","cond","reward_cond","reward_cond_actual","reward_matrix_idx","responses"
"true","fullscreen","0","6456","0.0-0.0","3WQQ9FUS6BGUG3PORZEM2ORCDW48B2","A2X9VV3B0FZKHY","30UZJB2POHY4464FN6NBJ2NLFWF354","","","","","","","","","","","","",""
"","instructions","1","41853","0.0-1.0","3WQQ9FUS6BGUG3PORZEM2ORCDW48B2","A2X9VV3B0FZKHY","30UZJB2POHY4464FN6NBJ2NLFWF354","[{""page_index"":0,""viewing_time"":4564.10000000149},{""page_index"":1,""viewing_time"":2551.5},{""page_index"":2,""viewing_time"":4472.39999999851},{""page_index"":3,""viewing_time"":3543.5},{""page_index"":4,""viewing_time"":6128.10000000149},{""page_index"":5,""viewing_time"":4816.19999999553},{""page_index"":6,""viewing_time"":2803.7000000029802},{""page_index"":7,""viewing_time"":6511.79999999702}]","35391.60000000149","","","","","","","","","","",""
"","image-keyboard-response","2","42699","0.0-2.0","3WQQ9FUS6BGUG3PORZEM2ORCDW48B2","A2X9VV3B0FZKHY","30UZJB2POHY4464FN6NBJ2NLFWF354","","844.8999999985099","img/flower4.png","74","846.7000000029802","1","0","3","2","1,0,0,1,1,0,1,0,1","0,0,1,1,0,1,0,1,1","2",""
"","html-keyboard-response","3","43004","0.0-3.0","3WQQ9FUS6BGUG3PORZEM2ORCDW48B2","A2X9VV3B0FZKHY","30UZJB2POHY4464FN6NBJ2NLFWF354","","null","<img src=""img/flower4.png"" style=""width:200px;border:14px solid red;"">","null","","","","","","","","",""
"","image-keyboard-response","4","44194","0.0-4.0","3WQQ9FUS6BGUG3PORZEM2ORCDW48B2","A2X9VV3B0FZKHY","30UZJB2POHY4464FN6NBJ2NLFWF354","","1187.1000000014901","img/flower1.png","74","1189.1000000014901","1","1","2","2","1,0,0,1,1,0,1,0,1","0,0,1,1,0,1,0,1,1","2",""
"","html-keyboard-response","5","44497","0.0-5.0","3WQQ9FUS6BGUG3PORZEM2ORCDW48B2","A2X9VV3B0FZKHY","30UZJB2POHY4464FN6NBJ2NLFWF354","","null","<img src=""img/flower1.png"" style=""width:200px; border:14px solid green;"">","null","","","","","","","","",""
"","image-keyboard-response","6","46500","0.0-6.0","3WQQ9FUS6BGUG3PORZEM2ORCDW48B2","A2X9VV3B0FZKHY","30UZJB2POHY4464FN6NBJ2NLFWF354","","","img/flower1.png","","2003.1000000014901","-1","0","2","2","1,0,0,1,1,0,1,0,1","0,0,1,1,0,1,0,1,1","2",""
"","html-keyboard-response","7","46803","0.0-7.0","3WQQ9FUS6BGUG3PORZEM2ORCDW48B2","A2X9VV3B0FZKHY","30UZJB2POHY4464FN6NBJ2NLFWF354","","null","<img src=""img/flower1.png"" style=""width:200px;border:14px solid red;"">","null","","","","","","","","",""
"","image-keyboard-response","8","48054","0.0-8.0","3WQQ9FUS6BGUG3PORZEM2ORCDW48B2","A2X9VV3B0FZKHY","30UZJB2POHY4464FN6NBJ2NLFWF354","","1249","img/flower4.png","75","1250.6000000014901","2","1","3","2","1,0,0,1,1,0,1,0,1","0,0,1,1,0,1,0,1,1","2",""
"","html-keyboard-response","9","48358","0.0-9.0","3WQQ9FUS6BGUG3PORZEM2ORCDW48B2","A2X9VV3B0FZKHY","30UZJB2POHY4464FN6NBJ2NLFWF354","","null","<img src=""img/flower4.png"" style=""width:200px; border:14px solid green;"">","null","","","","","","","","",""
"","image-keyboard-response","10","49165","0.0-10.0","3WQQ9FUS6BGUG3PORZEM2ORCDW48B2","A2X9VV3B0FZKHY","30UZJB2POHY4464FN6NBJ2NLFWF354","","805.2999999970198","img/flower4.png","75","807.1000000014901","2","1","3","2","1,0,0,1,1,0,1,0,1","0,0,1,1,0,1,0,1,1","2",""
"","html-keyboard-response","11","49468","0.0-11.0","3WQQ9FUS6BGUG3PORZEM2ORCDW48B2","A2X9VV3B0FZKHY","30UZJB2POHY4464FN6NBJ2NLFWF354","","null","<img src=""img/flower4.png"" style=""width:200px; border:14px solid green;"">","null","","","","","","","","",""
"","image-keyboard-response","12","50633","0.0-12.0","3WQQ9FUS6BGUG3PORZEM2ORCDW48B2","A2X9VV3B0FZKHY","30UZJB2POHY4464FN6NBJ2NLFWF354","","1163.7999999970198","img/flower1.png","76","1165.7999999970198","3","1","2","2","1,0,0,1,1,0,1,0,1","0,0,1,1,0,1,0,1,1","2",""
"","html-keyboard-response","13","50936","0.0-13.0","3WQQ9FUS6BGUG3PORZEM2ORCDW48B2","A2X9VV3B0FZKHY","30UZJB2POHY4464FN6NBJ2NLFWF354","","null","<img src=""img/flower1.png"" style=""width:200px; border:14px solid green;"">","null","","","","","","","","",""
"","image-keyboard-response","14","52171","0.0-14.0","3WQQ9FUS6BGUG3PORZEM2ORCDW48B2","A2X9VV3B0FZKHY","30UZJB2POHY4464FN6NBJ2NLFWF354","","1230.6999999955297","img/flower6.png","76","1233","3","1","1","2","1,0,0,1,1,0,1,0,1","0,0,1,1,0,1,0,1,1","2",""
"","html-keyboard-response","15","52474","0.0-15.0","3WQQ9FUS6BGUG3PORZEM2ORCDW48B2","A2X9VV3B0FZKHY","30UZJB2POHY4464FN6NBJ2NLFWF354","","null","<img src=""img/flower6.png"" style=""width:200px; border:14px solid green;"">","null","","","","","","","","",""
"","image-keyboard-response","16","53962","0.0-16.0","3WQQ9FUS6BGUG3PORZEM2ORCDW48B2","A2X9VV3B0FZKHY","30UZJB2POHY4464FN6NBJ2NLFWF354","","1486.2999999970198","img/flower1.png","74","1487.8999999985099","1","1","2","2","1,0,0,1,1,0,1,0,1","0,0,1,1,0,1,0,1,1","2",""
"","html-keyboard-response","17","54265","0.0-17.0","3WQQ9FUS6BGUG3PORZEM2ORCDW48B2","A2X9VV3B0FZKHY","30UZJB2POHY4464FN6NBJ2NLFWF354","","null","<img src=""img/flower1.png"" style=""width:200px; border:14px solid green;"">","null","","","","","","","","",""
"","image-keyboard-response","18","55174","0.0-18.0","3WQQ9FUS6BGUG3PORZEM2ORCDW48B2","A2X9VV3B0FZKHY","30UZJB2POHY4464FN6NBJ2NLFWF354","","906.3999999985099","img/flower4.png","75","908.1999999955297","2","1","3","2","1,0,0,1,1,0,1,0,1","0,0,1,1,0,1,0,1,1","2",""
"","html-keyboard-response","19","55477","0.0-19.0","3WQQ9FUS6BGUG3PORZEM2ORCDW48B2","A2X9VV3B0FZKHY","30UZJB2POHY4464FN6NBJ2NLFWF354","","null","<img src=""img/flower4.png"" style=""width:200px; border:14px solid green;"">","null","","","","","","","","",""
"","image-keyboard-response","20","56327","0.0-20.0","3WQQ9FUS6BGUG3PORZEM2ORCDW48B2","A2X9VV3B0FZKHY","30UZJB2POHY4464FN6NBJ2NLFWF354","","848.2000000029802","img/flower6.png","76","849.8999999985099","3","1","1","2","1,0,0,1,1,0,1,0,1","0,0,1,1,0,1,0,1,1","2",""
"","html-keyboard-response","21","56630","0.0-21.0","3WQQ9FUS6BGUG3PORZEM2ORCDW48B2","A2X9VV3B0FZKHY","30UZJB2POHY4464FN6NBJ2NLFWF354","","null","<img src=""img/flower6.png"" style=""width:200px; border:14px solid green;"">","null","","","","","","","","",""
"","image-keyboard-response","22","57498","0.0-22.0","3WQQ9FUS6BGUG3PORZEM2ORCDW48B2","A2X9VV3B0FZKHY","30UZJB2POHY4464FN6NBJ2NLFWF354","","867.1000000014901","img/flower6.png","76","868.3999999985099","3","1","1","2","1,0,0,1,1,0,1,0,1","0,0,1,1,0,1,0,1,1","2",""
"","html-keyboard-response","23","57801","0.0-23.0","3WQQ9FUS6BGUG3PORZEM2ORCDW48B2","A2X9VV3B0FZKHY","30UZJB2POHY4464FN6NBJ2NLFWF354","","null","<img src=""img/flower6.png"" style=""width:200px; border:14px solid green;"">","null","","","","","","","","",""
"","image-keyboard-response","24","59525","0.0-24.0","3WQQ9FUS6BGUG3PORZEM2ORCDW48B2","A2X9VV3B0FZKHY","30UZJB2POHY4464FN6NBJ2NLFWF354","","1722.2999999970198","img/flower1.png","75","1723.8999999985099","2","0","2","2","1,0,0,1,1,0,1,0,1","0,0,1,1,0,1,0,1,1","2",""
"","html-keyboard-response","25","59828","0.0-25.0","3WQQ9FUS6BGUG3PORZEM2ORCDW48B2","A2X9VV3B0FZKHY","30UZJB2POHY4464FN6NBJ2NLFWF354","","null","<img src=""img/flower1.png"" style=""width:200px;border:14px solid red;"">","null","","","","","","","","",""
"","image-keyboard-response","26","61044","0.0-26.0","3WQQ9FUS6BGUG3PORZEM2ORCDW48B2","A2X9VV3B0FZKHY","30UZJB2POHY4464FN6NBJ2NLFWF354","","1214.1000000014901","img/flower6.png","76","1215.8999999985099","3","1","1","2","1,0,0,1,1,0,1,0,1","0,0,1,1,0,1,0,1,1","2",""
"","html-keyboard-response","27","61347","0.0-27.0","3WQQ9FUS6BGUG3PORZEM2ORCDW48B2","A2X9VV3B0FZKHY","30UZJB2POHY4464FN6NBJ2NLFWF354","","null","<img src=""img/flower6.png"" style=""width:200px; border:14px solid green;"">","null","","","","","","","","",""
"","image-keyboard-response","28","62637","0.0-28.0","3WQQ9FUS6BGUG3PORZEM2ORCDW48B2","A2X9VV3B0FZKHY","30UZJB2POHY4464FN6NBJ2NLFWF354","","1288","img/flower4.png","74","1289.7000000029802","1","0","3","2","1,0,0,1,1,0,1,0,1","0,0,1,1,0,1,0,1,1","2",""
"","html-keyboard-response","29","62939","0.0-29.0","3WQQ9FUS6BGUG3PORZEM2ORCDW48B2","A2X9VV3B0FZKHY","30UZJB2POHY4464FN6NBJ2NLFWF354","","null","<img src=""img/flower4.png"" style=""width:200px;border:14px solid red;"">","null","","","","","","","","",""
"","image-keyboard-response","30","64736","0.0-30.0","3WQQ9FUS6BGUG3PORZEM2ORCDW48B2","A2X9VV3B0FZKHY","30UZJB2POHY4464FN6NBJ2NLFWF354","","1794.6999999955297","img/flower1.png","75","1796.3999999985099","2","0","2","2","1,0,0,1,1,0,1,0,1","0,0,1,1,0,1,0,1,1","2",""
"","html-keyboard-response","31","65038","0.0-31.0","3WQQ9FUS6BGUG3PORZEM2ORCDW48B2","A2X9VV3B0FZKHY","30UZJB2POHY4464FN6NBJ2NLFWF354","","null","<img src=""img/flower1.png"" style=""width:200px;border:14px solid red;"">","null","","","","","","","","",""
"","image-keyboard-response","32","67040","0.0-32.0","3WQQ9FUS6BGUG3PORZEM2ORCDW48B2","A2X9VV3B0FZKHY","30UZJB2POHY4464FN6NBJ2NLFWF354","","","img/flower1.png","","2001.6000000014901","-1","0","2","2","1,0,0,1,1,0,1,0,1","0,0,1,1,0,1,0,1,1","2",""
"","html-keyboard-response","33","67342","0.0-33.0","3WQQ9FUS6BGUG3PORZEM2ORCDW48B2","A2X9VV3B0FZKHY","30UZJB2POHY4464FN6NBJ2NLFWF354","","null","<img src=""img/flower1.png"" style=""width:200px;border:14px solid red;"">","null","","","","","","","","",""
"","image-keyboard-response","34","67586","0.0-34.0","3WQQ9FUS6BGUG3PORZEM2ORCDW48B2","A2X9VV3B0FZKHY","30UZJB2POHY4464FN6NBJ2NLFWF354","","241.89999999850988","img/flower4.png","76","243.70000000298023","3","1","3","2","1,0,0,1,1,0,1,0,1","0,0,1,1,0,1,0,1,1","2",""
"","html-keyboard-response","35","67890","0.0-35.0","3WQQ9FUS6BGUG3PORZEM2ORCDW48B2","A2X9VV3B0FZKHY","30UZJB2POHY4464FN6NBJ2NLFWF354","","null","<img src=""img/flower4.png"" style=""width:200px; border:14px solid green;"">","null","","","","","","","","",""
"","image-keyboard-response","36","69234","0.0-36.0","3WQQ9FUS6BGUG3PORZEM2ORCDW48B2","A2X9VV3B0FZKHY","30UZJB2POHY4464FN6NBJ2NLFWF354","","1341.7999999970198","img/flower4.png","74","1343.5","1","0","3","2","1,0,0,1,1,0,1,0,1","0,0,1,1,0,1,0,1,1","2",""
"","html-keyboard-response","37","69537","0.0-37.0","3WQQ9FUS6BGUG3PORZEM2ORCDW48B2","A2X9VV3B0FZKHY","30UZJB2POHY4464FN6NBJ2NLFWF354","","null","<img src=""img/flower4.png"" style=""width:200px;border:14px solid red;"">","null","","","","","","","","",""
"","image-keyboard-response","38","70524","0.0-38.0","3WQQ9FUS6BGUG3PORZEM2ORCDW48B2","A2X9VV3B0FZKHY","30UZJB2POHY4464FN6NBJ2NLFWF354","","983.8999999985099","img/flower1.png","74","985.6999999955297","1","1","2","2","1,0,0,1,1,0,1,0,1","0,0,1,1,0,1,0,1,1","2",""
"","html-keyboard-response","39","70826","0.0-39.0","3WQQ9FUS6BGUG3PORZEM2ORCDW48B2","A2X9VV3B0FZKHY","30UZJB2POHY4464FN6NBJ2NLFWF354","","null","<img src=""img/flower1.png"" style=""width:200px; border:14px solid green;"">","null","","","","","","","","",""
"","image-keyboard-response","40","72605","0.0-40.0","3WQQ9FUS6BGUG3PORZEM2ORCDW48B2","A2X9VV3B0FZKHY","30UZJB2POHY4464FN6NBJ2NLFWF354","","1776.2999999970198","img/flower1.png","75","1778","2","0","2","2","1,0,0,1,1,0,1,0,1","0,0,1,1,0,1,0,1,1","2",""
"","html-keyboard-response","41","72907","0.0-41.0","3WQQ9FUS6BGUG3PORZEM2ORCDW48B2","A2X9VV3B0FZKHY","30UZJB2POHY4464FN6NBJ2NLFWF354","","null","<img src=""img/flower1.png"" style=""width:200px;border:14px solid red;"">","null","","","","","","","","",""
"","image-keyboard-response","42","74397","0.0-42.0","3WQQ9FUS6BGUG3PORZEM2ORCDW48B2","A2X9VV3B0FZKHY","30UZJB2POHY4464FN6NBJ2NLFWF354","","1487.5999999940395","img/flower6.png","76","1489.3000000044703","3","1","1","2","1,0,0,1,1,0,1,0,1","0,0,1,1,0,1,0,1,1","2",""
"","html-keyboard-response","43","74699","0.0-43.0","3WQQ9FUS6BGUG3PORZEM2ORCDW48B2","A2X9VV3B0FZKHY","30UZJB2POHY4464FN6NBJ2NLFWF354","","null","<img src=""img/flower6.png"" style=""width:200px; border:14px solid green;"">","null","","","","","","","","",""
"","image-keyboard-response","44","76033","0.0-44.0","3WQQ9FUS6BGUG3PORZEM2ORCDW48B2","A2X9VV3B0FZKHY","30UZJB2POHY4464FN6NBJ2NLFWF354","","1332.1000000014901","img/flower1.png","74","1333.8999999985099","1","1","2","2","1,0,0,1,1,0,1,0,1","0,0,1,1,0,1,0,1,1","2",""
"","html-keyboard-response","45","76336","0.0-45.0","3WQQ9FUS6BGUG3PORZEM2ORCDW48B2","A2X9VV3B0FZKHY","30UZJB2POHY4464FN6NBJ2NLFWF354","","null","<img src=""img/flower1.png"" style=""width:200px; border:14px solid green;"">","null","","","","","","","","",""
"","image-keyboard-response","46","77427","0.0-46.0","3WQQ9FUS6BGUG3PORZEM2ORCDW48B2","A2X9VV3B0FZKHY","30UZJB2POHY4464FN6NBJ2NLFWF354","","1088","img/flower4.png","75","1090","2","1","3","2","1,0,0,1,1,0,1,0,1","0,0,1,1,0,1,0,1,1","2",""
"","html-keyboard-response","47","77729","0.0-47.0","3WQQ9FUS6BGUG3PORZEM2ORCDW48B2","A2X9VV3B0FZKHY","30UZJB2POHY4464FN6NBJ2NLFWF354","","null","<img src=""img/flower4.png"" style=""width:200px; border:14px solid green;"">","null","","","","","","","","",""
"","image-keyboard-response","48","78249","0.0-48.0","3WQQ9FUS6BGUG3PORZEM2ORCDW48B2","A2X9VV3B0FZKHY","30UZJB2POHY4464FN6NBJ2NLFWF354","","517.7000000029802","img/flower4.png","75","519.6000000014901","2","1","3","2","1,0,0,1,1,0,1,0,1","0,0,1,1,0,1,0,1,1","2",""
"","html-keyboard-response","49","78552","0.0-49.0","3WQQ9FUS6BGUG3PORZEM2ORCDW48B2","A2X9VV3B0FZKHY","30UZJB2POHY4464FN6NBJ2NLFWF354","","null","<img src=""img/flower4.png"" style=""width:200px; border:14px solid green;"">","null","","","","","","","","",""
"","image-keyboard-response","50","79795","0.0-50.0","3WQQ9FUS6BGUG3PORZEM2ORCDW48B2","A2X9VV3B0FZKHY","30UZJB2POHY4464FN6NBJ2NLFWF354","","1241","img/flower6.png","76","1242.8999999985099","3","1","1","2","1,0,0,1,1,0,1,0,1","0,0,1,1,0,1,0,1,1","2",""
"","html-keyboard-response","51","80098","0.0-51.0","3WQQ9FUS6BGUG3PORZEM2ORCDW48B2","A2X9VV3B0FZKHY","30UZJB2POHY4464FN6NBJ2NLFWF354","","null","<img src=""img/flower6.png"" style=""width:200px; border:14px solid green;"">","null","","","","","","","","",""
"","image-keyboard-response","52","81858","0.0-52.0","3WQQ9FUS6BGUG3PORZEM2ORCDW48B2","A2X9VV3B0FZKHY","30UZJB2POHY4464FN6NBJ2NLFWF354","","1757.6000000014901","img/flower4.png","74","1759.3000000044703","1","0","3","2","1,0,0,1,1,0,1,0,1","0,0,1,1,0,1,0,1,1","2",""
"","html-keyboard-response","53","82161","0.0-53.0","3WQQ9FUS6BGUG3PORZEM2ORCDW48B2","A2X9VV3B0FZKHY","30UZJB2POHY4464FN6NBJ2NLFWF354","","null","<img src=""img/flower4.png"" style=""width:200px;border:14px solid red;"">","null","","","","","","","","",""
"","image-keyboard-response","54","83050","0.0-54.0","3WQQ9FUS6BGUG3PORZEM2ORCDW48B2","A2X9VV3B0FZKHY","30UZJB2POHY4464FN6NBJ2NLFWF354","","886.7000000029802","img/flower6.png","76","888.6999999955297","3","1","1","2","1,0,0,1,1,0,1,0,1","0,0,1,1,0,1,0,1,1","2",""
"","html-keyboard-response","55","83353","0.0-55.0","3WQQ9FUS6BGUG3PORZEM2ORCDW48B2","A2X9VV3B0FZKHY","30UZJB2POHY4464FN6NBJ2NLFWF354","","null","<img src=""img/flower6.png"" style=""width:200px; border:14px solid green;"">","null","","","","","","","","",""
"","image-keyboard-response","56","84246","0.0-56.0","3WQQ9FUS6BGUG3PORZEM2ORCDW48B2","A2X9VV3B0FZKHY","30UZJB2POHY4464FN6NBJ2NLFWF354","","890.8000000044703","img/flower6.png","76","892.5","3","1","1","2","1,0,0,1,1,0,1,0,1","0,0,1,1,0,1,0,1,1","2",""
"","html-keyboard-response","57","84548","0.0-57.0","3WQQ9FUS6BGUG3PORZEM2ORCDW48B2","A2X9VV3B0FZKHY","30UZJB2POHY4464FN6NBJ2NLFWF354","","null","<img src=""img/flower6.png"" style=""width:200px; border:14px solid green;"">","null","","","","","","","","",""
"","image-keyboard-response","58","85734","0.0-58.0","3WQQ9FUS6BGUG3PORZEM2ORCDW48B2","A2X9VV3B0FZKHY","30UZJB2POHY4464FN6NBJ2NLFWF354","","1183","img/flower4.png","75","1184.6000000014901","2","1","3","2","1,0,0,1,1,0,1,0,1","0,0,1,1,0,1,0,1,1","2",""
"","html-keyboard-response","59","86037","0.0-59.0","3WQQ9FUS6BGUG3PORZEM2ORCDW48B2","A2X9VV3B0FZKHY","30UZJB2POHY4464FN6NBJ2NLFWF354","","null","<img src=""img/flower4.png"" style=""width:200px; border:14px solid green;"">","null","","","","","","","","",""
"","image-keyboard-response","60","86751","0.0-60.0","3WQQ9FUS6BGUG3PORZEM2ORCDW48B2","A2X9VV3B0FZKHY","30UZJB2POHY4464FN6NBJ2NLFWF354","","711.7999999970198","img/flower6.png","76","713.2999999970198","3","1","1","2","1,0,0,1,1,0,1,0,1","0,0,1,1,0,1,0,1,1","2",""
"","html-keyboard-response","61","87053","0.0-61.0","3WQQ9FUS6BGUG3PORZEM2ORCDW48B2","A2X9VV3B0FZKHY","30UZJB2POHY4464FN6NBJ2NLFWF354","","null","<img src=""img/flower6.png"" style=""width:200px; border:14px solid green;"">","null","","","","","","","","",""
"","image-keyboard-response","62","87813","0.0-62.0","3WQQ9FUS6BGUG3PORZEM2ORCDW48B2","A2X9VV3B0FZKHY","30UZJB2POHY4464FN6NBJ2NLFWF354","","758.0999999940395","img/flower4.png","76","759.3999999985099","3","1","3","2","1,0,0,1,1,0,1,0,1","0,0,1,1,0,1,0,1,1","2",""
"","html-keyboard-response","63","88115","0.0-63.0","3WQQ9FUS6BGUG3PORZEM2ORCDW48B2","A2X9VV3B0FZKHY","30UZJB2POHY4464FN6NBJ2NLFWF354","","null","<img src=""img/flower4.png"" style=""width:200px; border:14px solid green;"">","null","","","","","","","","",""
"","image-keyboard-response","64","89552","0.0-64.0","3WQQ9FUS6BGUG3PORZEM2ORCDW48B2","A2X9VV3B0FZKHY","30UZJB2POHY4464FN6NBJ2NLFWF354","","1434.1999999955297","img/flower1.png","74","1436","1","1","2","2","1,0,0,1,1,0,1,0,1","0,0,1,1,0,1,0,1,1","2",""
"","html-keyboard-response","65","89855","0.0-65.0","3WQQ9FUS6BGUG3PORZEM2ORCDW48B2","A2X9VV3B0FZKHY","30UZJB2POHY4464FN6NBJ2NLFWF354","","null","<img src=""img/flower1.png"" style=""width:200px; border:14px solid green;"">","null","","","","","","","","",""
"","image-keyboard-response","66","90597","0.0-66.0","3WQQ9FUS6BGUG3PORZEM2ORCDW48B2","A2X9VV3B0FZKHY","30UZJB2POHY4464FN6NBJ2NLFWF354","","740.3999999985099","img/flower6.png","76","742","3","1","1","2","1,0,0,1,1,0,1,0,1","0,0,1,1,0,1,0,1,1","2",""
"","html-keyboard-response","67","90900","0.0-67.0","3WQQ9FUS6BGUG3PORZEM2ORCDW48B2","A2X9VV3B0FZKHY","30UZJB2POHY4464FN6NBJ2NLFWF354","","null","<img src=""img/flower6.png"" style=""width:200px; border:14px solid green;"">","null","","","","","","","","",""
"","image-keyboard-response","68","91596","0.0-68.0","3WQQ9FUS6BGUG3PORZEM2ORCDW48B2","A2X9VV3B0FZKHY","30UZJB2POHY4464FN6NBJ2NLFWF354","","694","img/flower1.png","74","695.3000000044703","1","1","2","2","1,0,0,1,1,0,1,0,1","0,0,1,1,0,1,0,1,1","2",""
"","html-keyboard-response","69","91897","0.0-69.0","3WQQ9FUS6BGUG3PORZEM2ORCDW48B2","A2X9VV3B0FZKHY","30UZJB2POHY4464FN6NBJ2NLFWF354","","null","<img src=""img/flower1.png"" style=""width:200px; border:14px solid green;"">","null","","","","","","","","",""
"","image-keyboard-response","70","92419","0.0-70.0","3WQQ9FUS6BGUG3PORZEM2ORCDW48B2","A2X9VV3B0FZKHY","30UZJB2POHY4464FN6NBJ2NLFWF354","","519","img/flower1.png","74","521","1","1","2","2","1,0,0,1,1,0,1,0,1","0,0,1,1,0,1,0,1,1","2",""
"","html-keyboard-response","71","92723","0.0-71.0","3WQQ9FUS6BGUG3PORZEM2ORCDW48B2","A2X9VV3B0FZKHY","30UZJB2POHY4464FN6NBJ2NLFWF354","","null","<img src=""img/flower1.png"" style=""width:200px; border:14px solid green;"">","null","","","","","","","","",""
"","image-keyboard-response","72","93239","0.0-72.0","3WQQ9FUS6BGUG3PORZEM2ORCDW48B2","A2X9VV3B0FZKHY","30UZJB2POHY4464FN6NBJ2NLFWF354","","513.6999999955297","img/flower1.png","74","515.5","1","1","2","2","1,0,0,1,1,0,1,0,1","0,0,1,1,0,1,0,1,1","2",""
"","html-keyboard-response","73","93542","0.0-73.0","3WQQ9FUS6BGUG3PORZEM2ORCDW48B2","A2X9VV3B0FZKHY","30UZJB2POHY4464FN6NBJ2NLFWF354","","null","<img src=""img/flower1.png"" style=""width:200px; border:14px solid green;"">","null","","","","","","","","",""
"","image-keyboard-response","74","94135","0.0-74.0","3WQQ9FUS6BGUG3PORZEM2ORCDW48B2","A2X9VV3B0FZKHY","30UZJB2POHY4464FN6NBJ2NLFWF354","","590.7999999970198","img/flower1.png","74","592.3999999985099","1","1","2","2","1,0,0,1,1,0,1,0,1","0,0,1,1,0,1,0,1,1","2",""
"","html-keyboard-response","75","94438","0.0-75.0","3WQQ9FUS6BGUG3PORZEM2ORCDW48B2","A2X9VV3B0FZKHY","30UZJB2POHY4464FN6NBJ2NLFWF354","","null","<img src=""img/flower1.png"" style=""width:200px; border:14px solid green;"">","null","","","","","","","","",""
"","image-keyboard-response","76","94929","0.0-76.0","3WQQ9FUS6BGUG3PORZEM2ORCDW48B2","A2X9VV3B0FZKHY","30UZJB2POHY4464FN6NBJ2NLFWF354","","488.8999999985099","img/flower1.png","74","490.09999999403954","1","1","2","2","1,0,0,1,1,0,1,0,1","0,0,1,1,0,1,0,1,1","2",""
"","html-keyboard-response","77","95231","0.0-77.0","3WQQ9FUS6BGUG3PORZEM2ORCDW48B2","A2X9VV3B0FZKHY","30UZJB2POHY4464FN6NBJ2NLFWF354","","null","<img src=""img/flower1.png"" style=""width:200px; border:14px solid green;"">","null","","","","","","","","",""
"","image-keyboard-response","78","95931","0.0-78.0","3WQQ9FUS6BGUG3PORZEM2ORCDW48B2","A2X9VV3B0FZKHY","30UZJB2POHY4464FN6NBJ2NLFWF354","","699.2000000029802","img/flower6.png","76","700.3999999985099","3","1","1","2","1,0,0,1,1,0,1,0,1","0,0,1,1,0,1,0,1,1","2",""
"","html-keyboard-response","79","96244","0.0-79.0","3WQQ9FUS6BGUG3PORZEM2ORCDW48B2","A2X9VV3B0FZKHY","30UZJB2POHY4464FN6NBJ2NLFWF354","","null","<img src=""img/flower6.png"" style=""width:200px; border:14px solid green;"">","null","","","","","","","","",""
"","image-keyboard-response","80","97347","0.0-80.0","3WQQ9FUS6BGUG3PORZEM2ORCDW48B2","A2X9VV3B0FZKHY","30UZJB2POHY4464FN6NBJ2NLFWF354","","1101.3999999985099","img/flower1.png","74","1102.7000000029802","1","1","2","2","1,0,0,1,1,0,1,0,1","0,0,1,1,0,1,0,1,1","2",""
"","html-keyboard-response","81","97650","0.0-81.0","3WQQ9FUS6BGUG3PORZEM2ORCDW48B2","A2X9VV3B0FZKHY","30UZJB2POHY4464FN6NBJ2NLFWF354","","null","<img src=""img/flower1.png"" style=""width:200px; border:14px solid green;"">","null","","","","","","","","",""
"","image-keyboard-response","82","99162","0.0-82.0","3WQQ9FUS6BGUG3PORZEM2ORCDW48B2","A2X9VV3B0FZKHY","30UZJB2POHY4464FN6NBJ2NLFWF354","","1510.3999999985099","img/flower4.png","75","1511.6000000014901","2","1","3","2","1,0,0,1,1,0,1,0,1","0,0,1,1,0,1,0,1,1","2",""
"","html-keyboard-response","83","99463","0.0-83.0","3WQQ9FUS6BGUG3PORZEM2ORCDW48B2","A2X9VV3B0FZKHY","30UZJB2POHY4464FN6NBJ2NLFWF354","","null","<img src=""img/flower4.png"" style=""width:200px; border:14px solid green;"">","null","","","","","","","","",""
"","image-keyboard-response","84","100016","0.0-84.0","3WQQ9FUS6BGUG3PORZEM2ORCDW48B2","A2X9VV3B0FZKHY","30UZJB2POHY4464FN6NBJ2NLFWF354","","550.1000000014901","img/flower4.png","75","552.1000000014901","2","1","3","2","1,0,0,1,1,0,1,0,1","0,0,1,1,0,1,0,1,1","2",""
"","html-keyboard-response","85","100318","0.0-85.0","3WQQ9FUS6BGUG3PORZEM2ORCDW48B2","A2X9VV3B0FZKHY","30UZJB2POHY4464FN6NBJ2NLFWF354","","null","<img src=""img/flower4.png"" style=""width:200px; border:14px solid green;"">","null","","","","","","","","",""
"","image-keyboard-response","86","101555","0.0-86.0","3WQQ9FUS6BGUG3PORZEM2ORCDW48B2","A2X9VV3B0FZKHY","30UZJB2POHY4464FN6NBJ2NLFWF354","","1234.6000000014901","img/flower1.png","74","1236.5","1","1","2","2","1,0,0,1,1,0,1,0,1","0,0,1,1,0,1,0,1,1","2",""
"","html-keyboard-response","87","101857","0.0-87.0","3WQQ9FUS6BGUG3PORZEM2ORCDW48B2","A2X9VV3B0FZKHY","30UZJB2POHY4464FN6NBJ2NLFWF354","","null","<img src=""img/flower1.png"" style=""width:200px; border:14px solid green;"">","null","","","","","","","","",""
"","image-keyboard-response","88","103007","0.0-88.0","3WQQ9FUS6BGUG3PORZEM2ORCDW48B2","A2X9VV3B0FZKHY","30UZJB2POHY4464FN6NBJ2NLFWF354","","1147.1000000014901","img/flower4.png","75","1148.8999999985099","2","1","3","2","1,0,0,1,1,0,1,0,1","0,0,1,1,0,1,0,1,1","2",""
"","html-keyboard-response","89","103310","0.0-89.0","3WQQ9FUS6BGUG3PORZEM2ORCDW48B2","A2X9VV3B0FZKHY","30UZJB2POHY4464FN6NBJ2NLFWF354","","null","<img src=""img/flower4.png"" style=""width:200px; border:14px solid green;"">","null","","","","","","","","",""
"","image-keyboard-response","90","103716","0.0-90.0","3WQQ9FUS6BGUG3PORZEM2ORCDW48B2","A2X9VV3B0FZKHY","30UZJB2POHY4464FN6NBJ2NLFWF354","","403.59999999403954","img/flower4.png","75","405.30000000447035","2","1","3","2","1,0,0,1,1,0,1,0,1","0,0,1,1,0,1,0,1,1","2",""
"","html-keyboard-response","91","104019","0.0-91.0","3WQQ9FUS6BGUG3PORZEM2ORCDW48B2","A2X9VV3B0FZKHY","30UZJB2POHY4464FN6NBJ2NLFWF354","","null","<img src=""img/flower4.png"" style=""width:200px; border:14px solid green;"">","null","","","","","","","","",""
"","image-keyboard-response","92","104677","0.0-92.0","3WQQ9FUS6BGUG3PORZEM2ORCDW48B2","A2X9VV3B0FZKHY","30UZJB2POHY4464FN6NBJ2NLFWF354","","656.1999999955297","img/flower4.png","75","657.7999999970198","2","1","3","2","1,0,0,1,1,0,1,0,1","0,0,1,1,0,1,0,1,1","2",""
"","html-keyboard-response","93","104979","0.0-93.0","3WQQ9FUS6BGUG3PORZEM2ORCDW48B2","A2X9VV3B0FZKHY","30UZJB2POHY4464FN6NBJ2NLFWF354","","null","<img src=""img/flower4.png"" style=""width:200px; border:14px solid green;"">","null","","","","","","","","",""
"","image-keyboard-response","94","105823","0.0-94.0","3WQQ9FUS6BGUG3PORZEM2ORCDW48B2","A2X9VV3B0FZKHY","30UZJB2POHY4464FN6NBJ2NLFWF354","","841.3999999985099","img/flower6.png","76","842.8999999985099","3","1","1","2","1,0,0,1,1,0,1,0,1","0,0,1,1,0,1,0,1,1","2",""
"","html-keyboard-response","95","106124","0.0-95.0","3WQQ9FUS6BGUG3PORZEM2ORCDW48B2","A2X9VV3B0FZKHY","30UZJB2POHY4464FN6NBJ2NLFWF354","","null","<img src=""img/flower6.png"" style=""width:200px; border:14px solid green;"">","null","","","","","","","","",""
"","image-keyboard-response","96","108094","0.0-96.0","3WQQ9FUS6BGUG3PORZEM2ORCDW48B2","A2X9VV3B0FZKHY","30UZJB2POHY4464FN6NBJ2NLFWF354","","1967.2999999970198","img/flower4.png","74","1969.1000000014901","1","0","3","2","1,0,0,1,1,0,1,0,1","0,0,1,1,0,1,0,1,1","2",""
"","html-keyboard-response","97","108397","0.0-97.0","3WQQ9FUS6BGUG3PORZEM2ORCDW48B2","A2X9VV3B0FZKHY","30UZJB2POHY4464FN6NBJ2NLFWF354","","null","<img src=""img/flower4.png"" style=""width:200px;border:14px solid red;"">","null","","","","","","","","",""
"","image-keyboard-response","98","109611","0.0-98.0","3WQQ9FUS6BGUG3PORZEM2ORCDW48B2","A2X9VV3B0FZKHY","30UZJB2POHY4464FN6NBJ2NLFWF354","","1211.8999999985099","img/flower1.png","74","1213.1999999955297","1","1","2","2","1,0,0,1,1,0,1,0,1","0,0,1,1,0,1,0,1,1","2",""
"","html-keyboard-response","99","109914","0.0-99.0","3WQQ9FUS6BGUG3PORZEM2ORCDW48B2","A2X9VV3B0FZKHY","30UZJB2POHY4464FN6NBJ2NLFWF354","","null","<img src=""img/flower1.png"" style=""width:200px; border:14px solid green;"">","null","","","","","","","","",""
"","image-keyboard-response","100","111106","0.0-100.0","3WQQ9FUS6BGUG3PORZEM2ORCDW48B2","A2X9VV3B0FZKHY","30UZJB2POHY4464FN6NBJ2NLFWF354","","1189.8999999985099","img/flower4.png","75","1191.6999999955297","2","1","3","2","1,0,0,1,1,0,1,0,1","0,0,1,1,0,1,0,1,1","2",""
"","html-keyboard-response","101","111408","0.0-101.0","3WQQ9FUS6BGUG3PORZEM2ORCDW48B2","A2X9VV3B0FZKHY","30UZJB2POHY4464FN6NBJ2NLFWF354","","null","<img src=""img/flower4.png"" style=""width:200px; border:14px solid green;"">","null","","","","","","","","",""
"","image-keyboard-response","102","112201","0.0-102.0","3WQQ9FUS6BGUG3PORZEM2ORCDW48B2","A2X9VV3B0FZKHY","30UZJB2POHY4464FN6NBJ2NLFWF354","","790.6999999955297","img/flower6.png","76","792.3000000044703","3","1","1","2","1,0,0,1,1,0,1,0,1","0,0,1,1,0,1,0,1,1","2",""
"","html-keyboard-response","103","112504","0.0-103.0","3WQQ9FUS6BGUG3PORZEM2ORCDW48B2","A2X9VV3B0FZKHY","30UZJB2POHY4464FN6NBJ2NLFWF354","","null","<img src=""img/flower6.png"" style=""width:200px; border:14px solid green;"">","null","","","","","","","","",""
"","image-keyboard-response","104","113249","0.0-104.0","3WQQ9FUS6BGUG3PORZEM2ORCDW48B2","A2X9VV3B0FZKHY","30UZJB2POHY4464FN6NBJ2NLFWF354","","742.7000000029802","img/flower4.png","75","744.5","2","1","3","2","1,0,0,1,1,0,1,0,1","0,0,1,1,0,1,0,1,1","2",""
"","html-keyboard-response","105","113551","0.0-105.0","3WQQ9FUS6BGUG3PORZEM2ORCDW48B2","A2X9VV3B0FZKHY","30UZJB2POHY4464FN6NBJ2NLFWF354","","null","<img src=""img/flower4.png"" style=""width:200px; border:14px solid green;"">","null","","","","","","","","",""
"","image-keyboard-response","106","114010","0.0-106.0","3WQQ9FUS6BGUG3PORZEM2ORCDW48B2","A2X9VV3B0FZKHY","30UZJB2POHY4464FN6NBJ2NLFWF354","","457.1000000014901","img/flower4.png","75","458.80000000447035","2","1","3","2","1,0,0,1,1,0,1,0,1","0,0,1,1,0,1,0,1,1","2",""
"","html-keyboard-response","107","114313","0.0-107.0","3WQQ9FUS6BGUG3PORZEM2ORCDW48B2","A2X9VV3B0FZKHY","30UZJB2POHY4464FN6NBJ2NLFWF354","","null","<img src=""img/flower4.png"" style=""width:200px; border:14px solid green;"">","null","","","","","","","","",""
"","image-keyboard-response","108","114998","0.0-108.0","3WQQ9FUS6BGUG3PORZEM2ORCDW48B2","A2X9VV3B0FZKHY","30UZJB2POHY4464FN6NBJ2NLFWF354","","683.3999999985099","img/flower6.png","76","685","3","1","1","2","1,0,0,1,1,0,1,0,1","0,0,1,1,0,1,0,1,1","2",""
"","html-keyboard-response","109","115301","0.0-109.0","3WQQ9FUS6BGUG3PORZEM2ORCDW48B2","A2X9VV3B0FZKHY","30UZJB2POHY4464FN6NBJ2NLFWF354","","null","<img src=""img/flower6.png"" style=""width:200px; border:14px solid green;"">","null","","","","","","","","",""
"","image-keyboard-response","110","116715","0.0-110.0","3WQQ9FUS6BGUG3PORZEM2ORCDW48B2","A2X9VV3B0FZKHY","30UZJB2POHY4464FN6NBJ2NLFWF354","","1412.5","img/flower1.png","74","1414.3999999985099","1","1","2","2","1,0,0,1,1,0,1,0,1","0,0,1,1,0,1,0,1,1","2",""
"","html-keyboard-response","111","117019","0.0-111.0","3WQQ9FUS6BGUG3PORZEM2ORCDW48B2","A2X9VV3B0FZKHY","30UZJB2POHY4464FN6NBJ2NLFWF354","","null","<img src=""img/flower1.png"" style=""width:200px; border:14px solid green;"">","null","","","","","","","","",""
"","image-keyboard-response","112","118455","0.0-112.0","3WQQ9FUS6BGUG3PORZEM2ORCDW48B2","A2X9VV3B0FZKHY","30UZJB2POHY4464FN6NBJ2NLFWF354","","1434","img/flower4.png","75","1435.6000000014901","2","1","3","2","1,0,0,1,1,0,1,0,1","0,0,1,1,0,1,0,1,1","2",""
"","html-keyboard-response","113","118757","0.0-113.0","3WQQ9FUS6BGUG3PORZEM2ORCDW48B2","A2X9VV3B0FZKHY","30UZJB2POHY4464FN6NBJ2NLFWF354","","null","<img src=""img/flower4.png"" style=""width:200px; border:14px solid green;"">","null","","","","","","","","",""
"","image-keyboard-response","114","119930","0.0-114.0","3WQQ9FUS6BGUG3PORZEM2ORCDW48B2","A2X9VV3B0FZKHY","30UZJB2POHY4464FN6NBJ2NLFWF354","","1171.6000000014901","img/flower1.png","74","1173","1","1","2","2","1,0,0,1,1,0,1,0,1","0,0,1,1,0,1,0,1,1","2",""
"","html-keyboard-response","115","120233","0.0-115.0","3WQQ9FUS6BGUG3PORZEM2ORCDW48B2","A2X9VV3B0FZKHY","30UZJB2POHY4464FN6NBJ2NLFWF354","","null","<img src=""img/flower1.png"" style=""width:200px; border:14px solid green;"">","null","","","","","","","","",""
"","image-keyboard-response","116","121264","0.0-116.0","3WQQ9FUS6BGUG3PORZEM2ORCDW48B2","A2X9VV3B0FZKHY","30UZJB2POHY4464FN6NBJ2NLFWF354","","1029.1000000014901","img/flower4.png","75","1030.7999999970198","2","1","3","2","1,0,0,1,1,0,1,0,1","0,0,1,1,0,1,0,1,1","2",""
"","html-keyboard-response","117","121581","0.0-117.0","3WQQ9FUS6BGUG3PORZEM2ORCDW48B2","A2X9VV3B0FZKHY","30UZJB2POHY4464FN6NBJ2NLFWF354","","null","<img src=""img/flower4.png"" style=""width:200px; border:14px solid green;"">","null","","","","","","","","",""
"","image-keyboard-response","118","121989","0.0-118.0","3WQQ9FUS6BGUG3PORZEM2ORCDW48B2","A2X9VV3B0FZKHY","30UZJB2POHY4464FN6NBJ2NLFWF354","","405.6000000014901","img/flower4.png","75","407.5","2","1","3","2","1,0,0,1,1,0,1,0,1","0,0,1,1,0,1,0,1,1","2",""
"","html-keyboard-response","119","122292","0.0-119.0","3WQQ9FUS6BGUG3PORZEM2ORCDW48B2","A2X9VV3B0FZKHY","30UZJB2POHY4464FN6NBJ2NLFWF354","","null","<img src=""img/flower4.png"" style=""width:200px; border:14px solid green;"">","null","","","","","","","","",""
"","image-keyboard-response","120","122674","0.0-120.0","3WQQ9FUS6BGUG3PORZEM2ORCDW48B2","A2X9VV3B0FZKHY","30UZJB2POHY4464FN6NBJ2NLFWF354","","379.70000000298023","img/flower4.png","75","381.29999999701977","2","1","3","2","1,0,0,1,1,0,1,0,1","0,0,1,1,0,1,0,1,1","2",""
"","html-keyboard-response","121","122977","0.0-121.0","3WQQ9FUS6BGUG3PORZEM2ORCDW48B2","A2X9VV3B0FZKHY","30UZJB2POHY4464FN6NBJ2NLFWF354","","null","<img src=""img/flower4.png"" style=""width:200px; border:14px solid green;"">","null","","","","","","","","",""
"","image-keyboard-response","122","123619","0.0-122.0","3WQQ9FUS6BGUG3PORZEM2ORCDW48B2","A2X9VV3B0FZKHY","30UZJB2POHY4464FN6NBJ2NLFWF354","","639.7999999970198","img/flower6.png","76","641.5","3","1","1","2","1,0,0,1,1,0,1,0,1","0,0,1,1,0,1,0,1,1","2",""
"","html-keyboard-response","123","123921","0.0-123.0","3WQQ9FUS6BGUG3PORZEM2ORCDW48B2","A2X9VV3B0FZKHY","30UZJB2POHY4464FN6NBJ2NLFWF354","","null","<img src=""img/flower6.png"" style=""width:200px; border:14px solid green;"">","null","","","","","","","","",""
"","image-keyboard-response","124","125072","0.0-124.0","3WQQ9FUS6BGUG3PORZEM2ORCDW48B2","A2X9VV3B0FZKHY","30UZJB2POHY4464FN6NBJ2NLFWF354","","1149","img/flower1.png","74","1150.3999999985099","1","1","2","2","1,0,0,1,1,0,1,0,1","0,0,1,1,0,1,0,1,1","2",""
"","html-keyboard-response","125","125374","0.0-125.0","3WQQ9FUS6BGUG3PORZEM2ORCDW48B2","A2X9VV3B0FZKHY","30UZJB2POHY4464FN6NBJ2NLFWF354","","null","<img src=""img/flower1.png"" style=""width:200px; border:14px solid green;"">","null","","","","","","","","",""
"","image-keyboard-response","126","125808","0.0-126.0","3WQQ9FUS6BGUG3PORZEM2ORCDW48B2","A2X9VV3B0FZKHY","30UZJB2POHY4464FN6NBJ2NLFWF354","","432.30000000447035","img/flower1.png","74","433.8999999985099","1","1","2","2","1,0,0,1,1,0,1,0,1","0,0,1,1,0,1,0,1,1","2",""
"","html-keyboard-response","127","126110","0.0-127.0","3WQQ9FUS6BGUG3PORZEM2ORCDW48B2","A2X9VV3B0FZKHY","30UZJB2POHY4464FN6NBJ2NLFWF354","","null","<img src=""img/flower1.png"" style=""width:200px; border:14px solid green;"">","null","","","","","","","","",""
"","image-keyboard-response","128","126733","0.0-128.0","3WQQ9FUS6BGUG3PORZEM2ORCDW48B2","A2X9VV3B0FZKHY","30UZJB2POHY4464FN6NBJ2NLFWF354","","620.6000000014901","img/flower6.png","76","622.3999999985099","3","1","1","2","1,0,0,1,1,0,1,0,1","0,0,1,1,0,1,0,1,1","2",""
"","html-keyboard-response","129","127035","0.0-129.0","3WQQ9FUS6BGUG3PORZEM2ORCDW48B2","A2X9VV3B0FZKHY","30UZJB2POHY4464FN6NBJ2NLFWF354","","null","<img src=""img/flower6.png"" style=""width:200px; border:14px solid green;"">","null","","","","","","","","",""
"","image-keyboard-response","130","127843","0.0-130.0","3WQQ9FUS6BGUG3PORZEM2ORCDW48B2","A2X9VV3B0FZKHY","30UZJB2POHY4464FN6NBJ2NLFWF354","","805.2999999970198","img/flower1.png","74","807.0999999940395","1","1","2","2","1,0,0,1,1,0,1,0,1","0,0,1,1,0,1,0,1,1","2",""
"","html-keyboard-response","131","128147","0.0-131.0","3WQQ9FUS6BGUG3PORZEM2ORCDW48B2","A2X9VV3B0FZKHY","30UZJB2POHY4464FN6NBJ2NLFWF354","","null","<img src=""img/flower1.png"" style=""width:200px; border:14px solid green;"">","null","","","","","","","","",""
"","image-keyboard-response","132","129076","0.0-132.0","3WQQ9FUS6BGUG3PORZEM2ORCDW48B2","A2X9VV3B0FZKHY","30UZJB2POHY4464FN6NBJ2NLFWF354","","926.6000000014901","img/flower6.png","76","928.6000000014901","3","1","1","2","1,0,0,1,1,0,1,0,1","0,0,1,1,0,1,0,1,1","2",""
"","html-keyboard-response","133","129378","0.0-133.0","3WQQ9FUS6BGUG3PORZEM2ORCDW48B2","A2X9VV3B0FZKHY","30UZJB2POHY4464FN6NBJ2NLFWF354","","null","<img src=""img/flower6.png"" style=""width:200px; border:14px solid green;"">","null","","","","","","","","",""
"","image-keyboard-response","134","129979","0.0-134.0","3WQQ9FUS6BGUG3PORZEM2ORCDW48B2","A2X9VV3B0FZKHY","30UZJB2POHY4464FN6NBJ2NLFWF354","","597.1000000014901","img/flower6.png","76","598.8000000044703","3","1","1","2","1,0,0,1,1,0,1,0,1","0,0,1,1,0,1,0,1,1","2",""
"","html-keyboard-response","135","130282","0.0-135.0","3WQQ9FUS6BGUG3PORZEM2ORCDW48B2","A2X9VV3B0FZKHY","30UZJB2POHY4464FN6NBJ2NLFWF354","","null","<img src=""img/flower6.png"" style=""width:200px; border:14px solid green;"">","null","","","","","","","","",""
"","image-keyboard-response","136","130773","0.0-136.0","3WQQ9FUS6BGUG3PORZEM2ORCDW48B2","A2X9VV3B0FZKHY","30UZJB2POHY4464FN6NBJ2NLFWF354","","488.1000000014901","img/flower6.png","76","489.8999999985099","3","1","1","2","1,0,0,1,1,0,1,0,1","0,0,1,1,0,1,0,1,1","2",""
"","html-keyboard-response","137","131075","0.0-137.0","3WQQ9FUS6BGUG3PORZEM2ORCDW48B2","A2X9VV3B0FZKHY","30UZJB2POHY4464FN6NBJ2NLFWF354","","null","<img src=""img/flower6.png"" style=""width:200px; border:14px solid green;"">","null","","","","","","","","",""
"","image-keyboard-response","138","131819","0.0-138.0","3WQQ9FUS6BGUG3PORZEM2ORCDW48B2","A2X9VV3B0FZKHY","30UZJB2POHY4464FN6NBJ2NLFWF354","","741.8999999985099","img/flower1.png","74","743.6999999955297","1","1","2","2","1,0,0,1,1,0,1,0,1","0,0,1,1,0,1,0,1,1","2",""
"","html-keyboard-response","139","132122","0.0-139.0","3WQQ9FUS6BGUG3PORZEM2ORCDW48B2","A2X9VV3B0FZKHY","30UZJB2POHY4464FN6NBJ2NLFWF354","","null","<img src=""img/flower1.png"" style=""width:200px; border:14px solid green;"">","null","","","","","","","","",""
"","image-keyboard-response","140","132582","0.0-140.0","3WQQ9FUS6BGUG3PORZEM2ORCDW48B2","A2X9VV3B0FZKHY","30UZJB2POHY4464FN6NBJ2NLFWF354","","457.70000000298023","img/flower1.png","74","459.3999999985099","1","1","2","2","1,0,0,1,1,0,1,0,1","0,0,1,1,0,1,0,1,1","2",""
"","html-keyboard-response","141","132885","0.0-141.0","3WQQ9FUS6BGUG3PORZEM2ORCDW48B2","A2X9VV3B0FZKHY","30UZJB2POHY4464FN6NBJ2NLFWF354","","null","<img src=""img/flower1.png"" style=""width:200px; border:14px solid green;"">","null","","","","","","","","",""
"","image-keyboard-response","142","133695","0.0-142.0","3WQQ9FUS6BGUG3PORZEM2ORCDW48B2","A2X9VV3B0FZKHY","30UZJB2POHY4464FN6NBJ2NLFWF354","","807.7000000029802","img/flower6.png","76","809.5","3","1","1","2","1,0,0,1,1,0,1,0,1","0,0,1,1,0,1,0,1,1","2",""
"","html-keyboard-response","143","133997","0.0-143.0","3WQQ9FUS6BGUG3PORZEM2ORCDW48B2","A2X9VV3B0FZKHY","30UZJB2POHY4464FN6NBJ2NLFWF354","","null","<img src=""img/flower6.png"" style=""width:200px; border:14px solid green;"">","null","","","","","","","","",""
"","image-keyboard-response","144","134720","0.0-144.0","3WQQ9FUS6BGUG3PORZEM2ORCDW48B2","A2X9VV3B0FZKHY","30UZJB2POHY4464FN6NBJ2NLFWF354","","720.7000000029802","img/flower1.png","76","722.1999999955297","3","1","2","2","1,0,0,1,1,0,1,0,1","0,0,1,1,0,1,0,1,1","2",""
"","html-keyboard-response","145","135023","0.0-145.0","3WQQ9FUS6BGUG3PORZEM2ORCDW48B2","A2X9VV3B0FZKHY","30UZJB2POHY4464FN6NBJ2NLFWF354","","null","<img src=""img/flower1.png"" style=""width:200px; border:14px solid green;"">","null","","","","","","","","",""
"","image-keyboard-response","146","136223","0.0-146.0","3WQQ9FUS6BGUG3PORZEM2ORCDW48B2","A2X9VV3B0FZKHY","30UZJB2POHY4464FN6NBJ2NLFWF354","","1198.5","img/flower6.png","76","1200.0999999940395","3","1","1","2","1,0,0,1,1,0,1,0,1","0,0,1,1,0,1,0,1,1","2",""
"","html-keyboard-response","147","136526","0.0-147.0","3WQQ9FUS6BGUG3PORZEM2ORCDW48B2","A2X9VV3B0FZKHY","30UZJB2POHY4464FN6NBJ2NLFWF354","","null","<img src=""img/flower6.png"" style=""width:200px; border:14px solid green;"">","null","","","","","","","","",""
"","image-keyboard-response","148","137378","0.0-148.0","3WQQ9FUS6BGUG3PORZEM2ORCDW48B2","A2X9VV3B0FZKHY","30UZJB2POHY4464FN6NBJ2NLFWF354","","849.5999999940395","img/flower1.png","74","851.3000000044703","1","1","2","2","1,0,0,1,1,0,1,0,1","0,0,1,1,0,1,0,1,1","2",""
"","html-keyboard-response","149","137680","0.0-149.0","3WQQ9FUS6BGUG3PORZEM2ORCDW48B2","A2X9VV3B0FZKHY","30UZJB2POHY4464FN6NBJ2NLFWF354","","null","<img src=""img/flower1.png"" style=""width:200px; border:14px solid green;"">","null","","","","","","","","",""
"","image-keyboard-response","150","138798","0.0-150.0","3WQQ9FUS6BGUG3PORZEM2ORCDW48B2","A2X9VV3B0FZKHY","30UZJB2POHY4464FN6NBJ2NLFWF354","","1116.6999999955297","img/flower4.png","75","1118.3000000044703","2","1","3","2","1,0,0,1,1,0,1,0,1","0,0,1,1,0,1,0,1,1","2",""
"","html-keyboard-response","151","139102","0.0-151.0","3WQQ9FUS6BGUG3PORZEM2ORCDW48B2","A2X9VV3B0FZKHY","30UZJB2POHY4464FN6NBJ2NLFWF354","","null","<img src=""img/flower4.png"" style=""width:200px; border:14px solid green;"">","null","","","","","","","","",""
"","image-keyboard-response","152","140203","0.0-152.0","3WQQ9FUS6BGUG3PORZEM2ORCDW48B2","A2X9VV3B0FZKHY","30UZJB2POHY4464FN6NBJ2NLFWF354","","1098.6000000014901","img/flower1.png","74","1100.3999999985099","1","1","2","2","1,0,0,1,1,0,1,0,1","0,0,1,1,0,1,0,1,1","2",""
"","html-keyboard-response","153","140505","0.0-153.0","3WQQ9FUS6BGUG3PORZEM2ORCDW48B2","A2X9VV3B0FZKHY","30UZJB2POHY4464FN6NBJ2NLFWF354","","null","<img src=""img/flower1.png"" style=""width:200px; border:14px solid green;"">","null","","","","","","","","",""
"","image-keyboard-response","154","141565","0.0-154.0","3WQQ9FUS6BGUG3PORZEM2ORCDW48B2","A2X9VV3B0FZKHY","30UZJB2POHY4464FN6NBJ2NLFWF354","","1057","img/flower4.png","75","1058.6999999955297","2","1","3","2","1,0,0,1,1,0,1,0,1","0,0,1,1,0,1,0,1,1","2",""
"","html-keyboard-response","155","141867","0.0-155.0","3WQQ9FUS6BGUG3PORZEM2ORCDW48B2","A2X9VV3B0FZKHY","30UZJB2POHY4464FN6NBJ2NLFWF354","","null","<img src=""img/flower4.png"" style=""width:200px; border:14px solid green;"">","null","","","","","","","","",""
"","image-keyboard-response","156","142636","0.0-156.0","3WQQ9FUS6BGUG3PORZEM2ORCDW48B2","A2X9VV3B0FZKHY","30UZJB2POHY4464FN6NBJ2NLFWF354","","767.1999999955297","img/flower6.png","76","768.9000000059605","3","1","1","2","1,0,0,1,1,0,1,0,1","0,0,1,1,0,1,0,1,1","2",""
"","html-keyboard-response","157","142938","0.0-157.0","3WQQ9FUS6BGUG3PORZEM2ORCDW48B2","A2X9VV3B0FZKHY","30UZJB2POHY4464FN6NBJ2NLFWF354","","null","<img src=""img/flower6.png"" style=""width:200px; border:14px solid green;"">","null","","","","","","","","",""
"","image-keyboard-response","158","143452","0.0-158.0","3WQQ9FUS6BGUG3PORZEM2ORCDW48B2","A2X9VV3B0FZKHY","30UZJB2POHY4464FN6NBJ2NLFWF354","","511.79999999701977","img/flower6.png","76","513.5","3","1","1","2","1,0,0,1,1,0,1,0,1","0,0,1,1,0,1,0,1,1","2",""
"","html-keyboard-response","159","143754","0.0-159.0","3WQQ9FUS6BGUG3PORZEM2ORCDW48B2","A2X9VV3B0FZKHY","30UZJB2POHY4464FN6NBJ2NLFWF354","","null","<img src=""img/flower6.png"" style=""width:200px; border:14px solid green;"">","null","","","","","","","","",""
"","image-keyboard-response","160","144723","0.0-160.0","3WQQ9FUS6BGUG3PORZEM2ORCDW48B2","A2X9VV3B0FZKHY","30UZJB2POHY4464FN6NBJ2NLFWF354","","966.3000000044703","img/flower4.png","75","968.1999999955297","2","1","3","2","1,0,0,1,1,0,1,0,1","0,0,1,1,0,1,0,1,1","2",""
"","html-keyboard-response","161","145027","0.0-161.0","3WQQ9FUS6BGUG3PORZEM2ORCDW48B2","A2X9VV3B0FZKHY","30UZJB2POHY4464FN6NBJ2NLFWF354","","null","<img src=""img/flower4.png"" style=""width:200px; border:14px solid green;"">","null","","","","","","","","",""
"","image-keyboard-response","162","145991","0.0-162.0","3WQQ9FUS6BGUG3PORZEM2ORCDW48B2","A2X9VV3B0FZKHY","30UZJB2POHY4464FN6NBJ2NLFWF354","","961.7999999970198","img/flower6.png","76","963.5","3","1","1","2","1,0,0,1,1,0,1,0,1","0,0,1,1,0,1,0,1,1","2",""
"","html-keyboard-response","163","146293","0.0-163.0","3WQQ9FUS6BGUG3PORZEM2ORCDW48B2","A2X9VV3B0FZKHY","30UZJB2POHY4464FN6NBJ2NLFWF354","","null","<img src=""img/flower6.png"" style=""width:200px; border:14px solid green;"">","null","","","","","","","","",""
"","image-keyboard-response","164","146825","0.0-164.0","3WQQ9FUS6BGUG3PORZEM2ORCDW48B2","A2X9VV3B0FZKHY","30UZJB2POHY4464FN6NBJ2NLFWF354","","530","img/flower6.png","76","531.3000000044703","3","1","1","2","1,0,0,1,1,0,1,0,1","0,0,1,1,0,1,0,1,1","2",""
"","html-keyboard-response","165","147127","0.0-165.0","3WQQ9FUS6BGUG3PORZEM2ORCDW48B2","A2X9VV3B0FZKHY","30UZJB2POHY4464FN6NBJ2NLFWF354","","null","<img src=""img/flower6.png"" style=""width:200px; border:14px solid green;"">","null","","","","","","","","",""
"","image-keyboard-response","166","147849","0.0-166.0","3WQQ9FUS6BGUG3PORZEM2ORCDW48B2","A2X9VV3B0FZKHY","30UZJB2POHY4464FN6NBJ2NLFWF354","","720.1999999955297","img/flower4.png","75","721.8000000044703","2","1","3","2","1,0,0,1,1,0,1,0,1","0,0,1,1,0,1,0,1,1","2",""
"","html-keyboard-response","167","148152","0.0-167.0","3WQQ9FUS6BGUG3PORZEM2ORCDW48B2","A2X9VV3B0FZKHY","30UZJB2POHY4464FN6NBJ2NLFWF354","","null","<img src=""img/flower4.png"" style=""width:200px; border:14px solid green;"">","null","","","","","","","","",""
"","image-keyboard-response","168","148982","0.0-168.0","3WQQ9FUS6BGUG3PORZEM2ORCDW48B2","A2X9VV3B0FZKHY","30UZJB2POHY4464FN6NBJ2NLFWF354","","828.2999999970198","img/flower6.png","76","829.9000000059605","3","1","1","2","1,0,0,1,1,0,1,0,1","0,0,1,1,0,1,0,1,1","2",""
"","html-keyboard-response","169","149285","0.0-169.0","3WQQ9FUS6BGUG3PORZEM2ORCDW48B2","A2X9VV3B0FZKHY","30UZJB2POHY4464FN6NBJ2NLFWF354","","null","<img src=""img/flower6.png"" style=""width:200px; border:14px solid green;"">","null","","","","","","","","",""
"","image-keyboard-response","170","150038","0.0-170.0","3WQQ9FUS6BGUG3PORZEM2ORCDW48B2","A2X9VV3B0FZKHY","30UZJB2POHY4464FN6NBJ2NLFWF354","","750.7000000029802","img/flower4.png","75","752.3999999985099","2","1","3","2","1,0,0,1,1,0,1,0,1","0,0,1,1,0,1,0,1,1","2",""
"","html-keyboard-response","171","150340","0.0-171.0","3WQQ9FUS6BGUG3PORZEM2ORCDW48B2","A2X9VV3B0FZKHY","30UZJB2POHY4464FN6NBJ2NLFWF354","","null","<img src=""img/flower4.png"" style=""width:200px; border:14px solid green;"">","null","","","","","","","","",""
"","image-keyboard-response","172","151055","0.0-172.0","3WQQ9FUS6BGUG3PORZEM2ORCDW48B2","A2X9VV3B0FZKHY","30UZJB2POHY4464FN6NBJ2NLFWF354","","712.3999999985099","img/flower6.png","76","714","3","1","1","2","1,0,0,1,1,0,1,0,1","0,0,1,1,0,1,0,1,1","2",""
"","html-keyboard-response","173","151358","0.0-173.0","3WQQ9FUS6BGUG3PORZEM2ORCDW48B2","A2X9VV3B0FZKHY","30UZJB2POHY4464FN6NBJ2NLFWF354","","null","<img src=""img/flower6.png"" style=""width:200px; border:14px solid green;"">","null","","","","","","","","",""
"","image-keyboard-response","174","152625","0.0-174.0","3WQQ9FUS6BGUG3PORZEM2ORCDW48B2","A2X9VV3B0FZKHY","30UZJB2POHY4464FN6NBJ2NLFWF354","","1265.6999999955297","img/flower1.png","74","1267.3000000044703","1","1","2","2","1,0,0,1,1,0,1,0,1","0,0,1,1,0,1,0,1,1","2",""
"","html-keyboard-response","175","152929","0.0-175.0","3WQQ9FUS6BGUG3PORZEM2ORCDW48B2","A2X9VV3B0FZKHY","30UZJB2POHY4464FN6NBJ2NLFWF354","","null","<img src=""img/flower1.png"" style=""width:200px; border:14px solid green;"">","null","","","","","","","","",""
"","image-keyboard-response","176","153773","0.0-176.0","3WQQ9FUS6BGUG3PORZEM2ORCDW48B2","A2X9VV3B0FZKHY","30UZJB2POHY4464FN6NBJ2NLFWF354","","842","img/flower6.png","76","843.8000000044703","3","1","1","2","1,0,0,1,1,0,1,0,1","0,0,1,1,0,1,0,1,1","2",""
"","html-keyboard-response","177","154075","0.0-177.0","3WQQ9FUS6BGUG3PORZEM2ORCDW48B2","A2X9VV3B0FZKHY","30UZJB2POHY4464FN6NBJ2NLFWF354","","null","<img src=""img/flower6.png"" style=""width:200px; border:14px solid green;"">","null","","","","","","","","",""
"","image-keyboard-response","178","154670","0.0-178.0","3WQQ9FUS6BGUG3PORZEM2ORCDW48B2","A2X9VV3B0FZKHY","30UZJB2POHY4464FN6NBJ2NLFWF354","","591.8000000044703","img/flower6.png","76","593.7999999970198","3","1","1","2","1,0,0,1,1,0,1,0,1","0,0,1,1,0,1,0,1,1","2",""
"","html-keyboard-response","179","154972","0.0-179.0","3WQQ9FUS6BGUG3PORZEM2ORCDW48B2","A2X9VV3B0FZKHY","30UZJB2POHY4464FN6NBJ2NLFWF354","","null","<img src=""img/flower6.png"" style=""width:200px; border:14px solid green;"">","null","","","","","","","","",""
"","image-keyboard-response","180","155479","0.0-180.0","3WQQ9FUS6BGUG3PORZEM2ORCDW48B2","A2X9VV3B0FZKHY","30UZJB2POHY4464FN6NBJ2NLFWF354","","504.40000000596046","img/flower6.png","76","506","3","1","1","2","1,0,0,1,1,0,1,0,1","0,0,1,1,0,1,0,1,1","2",""
"","html-keyboard-response","181","155782","0.0-181.0","3WQQ9FUS6BGUG3PORZEM2ORCDW48B2","A2X9VV3B0FZKHY","30UZJB2POHY4464FN6NBJ2NLFWF354","","null","<img src=""img/flower6.png"" style=""width:200px; border:14px solid green;"">","null","","","","","","","","",""
"","image-keyboard-response","182","156726","0.0-182.0","3WQQ9FUS6BGUG3PORZEM2ORCDW48B2","A2X9VV3B0FZKHY","30UZJB2POHY4464FN6NBJ2NLFWF354","","941.3999999985099","img/flower2.png","74","943","1","1","1","1","1,0.333,0.333,0.333,1,0.333,0.333,0.333,1","1,0.333,0.333,0.333,1,0.333,0.333,0.333,1","1",""
"","html-keyboard-response","183","157029","0.0-183.0","3WQQ9FUS6BGUG3PORZEM2ORCDW48B2","A2X9VV3B0FZKHY","30UZJB2POHY4464FN6NBJ2NLFWF354","","null","<img src=""img/flower2.png"" style=""width:200px; border:14px solid green;"">","null","","","","","","","","",""
"","image-keyboard-response","184","157639","0.0-184.0","3WQQ9FUS6BGUG3PORZEM2ORCDW48B2","A2X9VV3B0FZKHY","30UZJB2POHY4464FN6NBJ2NLFWF354","","608.5999999940395","img/flower2.png","74","610.3999999985099","1","1","1","1","1,0.333,0.333,0.333,1,0.333,0.333,0.333,1","1,0.333,0.333,0.333,1,0.333,0.333,0.333,1","1",""
"","html-keyboard-response","185","157942","0.0-185.0","3WQQ9FUS6BGUG3PORZEM2ORCDW48B2","A2X9VV3B0FZKHY","30UZJB2POHY4464FN6NBJ2NLFWF354","","null","<img src=""img/flower2.png"" style=""width:200px; border:14px solid green;"">","null","","","","","","","","",""
"","image-keyboard-response","186","158468","0.0-186.0","3WQQ9FUS6BGUG3PORZEM2ORCDW48B2","A2X9VV3B0FZKHY","30UZJB2POHY4464FN6NBJ2NLFWF354","","523.3999999985099","img/flower2.png","74","525.2000000029802","1","1","1","1","1,0.333,0.333,0.333,1,0.333,0.333,0.333,1","1,0.333,0.333,0.333,1,0.333,0.333,0.333,1","1",""
"","html-keyboard-response","187","158770","0.0-187.0","3WQQ9FUS6BGUG3PORZEM2ORCDW48B2","A2X9VV3B0FZKHY","30UZJB2POHY4464FN6NBJ2NLFWF354","","null","<img src=""img/flower2.png"" style=""width:200px; border:14px solid green;"">","null","","","","","","","","",""
"","image-keyboard-response","188","159299","0.0-188.0","3WQQ9FUS6BGUG3PORZEM2ORCDW48B2","A2X9VV3B0FZKHY","30UZJB2POHY4464FN6NBJ2NLFWF354","","526.7000000029802","img/flower2.png","74","528.5","1","1","1","1","1,0.333,0.333,0.333,1,0.333,0.333,0.333,1","1,0.333,0.333,0.333,1,0.333,0.333,0.333,1","1",""
"","html-keyboard-response","189","159602","0.0-189.0","3WQQ9FUS6BGUG3PORZEM2ORCDW48B2","A2X9VV3B0FZKHY","30UZJB2POHY4464FN6NBJ2NLFWF354","","null","<img src=""img/flower2.png"" style=""width:200px; border:14px solid green;"">","null","","","","","","","","",""
"","image-keyboard-response","190","161587","0.0-190.0","3WQQ9FUS6BGUG3PORZEM2ORCDW48B2","A2X9VV3B0FZKHY","30UZJB2POHY4464FN6NBJ2NLFWF354","","1982.7000000029802","img/flower3.png","74","1984.3999999985099","1","0","3","1","1,0.333,0.333,0.333,1,0.333,0.333,0.333,1","1,0.333,0.333,0.333,1,0.333,0.333,0.333,1","1",""
"","html-keyboard-response","191","161889","0.0-191.0","3WQQ9FUS6BGUG3PORZEM2ORCDW48B2","A2X9VV3B0FZKHY","30UZJB2POHY4464FN6NBJ2NLFWF354","","null","<img src=""img/flower3.png"" style=""width:200px;border:14px solid red;"">","null","","","","","","","","",""
"","image-keyboard-response","192","163541","0.0-192.0","3WQQ9FUS6BGUG3PORZEM2ORCDW48B2","A2X9VV3B0FZKHY","30UZJB2POHY4464FN6NBJ2NLFWF354","","1649.5","img/flower5.png","75","1651.3999999985099","2","1","2","1","1,0.333,0.333,0.333,1,0.333,0.333,0.333,1","1,0.333,0.333,0.333,1,0.333,0.333,0.333,1","1",""
"","html-keyboard-response","193","163844","0.0-193.0","3WQQ9FUS6BGUG3PORZEM2ORCDW48B2","A2X9VV3B0FZKHY","30UZJB2POHY4464FN6NBJ2NLFWF354","","null","<img src=""img/flower5.png"" style=""width:200px; border:14px solid green;"">","null","","","","","","","","",""
"","image-keyboard-response","194","164233","0.0-194.0","3WQQ9FUS6BGUG3PORZEM2ORCDW48B2","A2X9VV3B0FZKHY","30UZJB2POHY4464FN6NBJ2NLFWF354","","387.19999999552965","img/flower5.png","75","388.80000000447035","2","1","2","1","1,0.333,0.333,0.333,1,0.333,0.333,0.333,1","1,0.333,0.333,0.333,1,0.333,0.333,0.333,1","1",""
"","html-keyboard-response","195","164537","0.0-195.0","3WQQ9FUS6BGUG3PORZEM2ORCDW48B2","A2X9VV3B0FZKHY","30UZJB2POHY4464FN6NBJ2NLFWF354","","null","<img src=""img/flower5.png"" style=""width:200px; border:14px solid green;"">","null","","","","","","","","",""
"","image-keyboard-response","196","165963","0.0-196.0","3WQQ9FUS6BGUG3PORZEM2ORCDW48B2","A2X9VV3B0FZKHY","30UZJB2POHY4464FN6NBJ2NLFWF354","","1424.2999999970198","img/flower2.png","74","1426","1","1","1","1","1,0.333,0.333,0.333,1,0.333,0.333,0.333,1","1,0.333,0.333,0.333,1,0.333,0.333,0.333,1","1",""
"","html-keyboard-response","197","166265","0.0-197.0","3WQQ9FUS6BGUG3PORZEM2ORCDW48B2","A2X9VV3B0FZKHY","30UZJB2POHY4464FN6NBJ2NLFWF354","","null","<img src=""img/flower2.png"" style=""width:200px; border:14px solid green;"">","null","","","","","","","","",""
"","image-keyboard-response","198","166567","0.0-198.0","3WQQ9FUS6BGUG3PORZEM2ORCDW48B2","A2X9VV3B0FZKHY","30UZJB2POHY4464FN6NBJ2NLFWF354","","299.79999999701977","img/flower2.png","74","301","1","1","1","1","1,0.333,0.333,0.333,1,0.333,0.333,0.333,1","1,0.333,0.333,0.333,1,0.333,0.333,0.333,1","1",""
"","html-keyboard-response","199","166869","0.0-199.0","3WQQ9FUS6BGUG3PORZEM2ORCDW48B2","A2X9VV3B0FZKHY","30UZJB2POHY4464FN6NBJ2NLFWF354","","null","<img src=""img/flower2.png"" style=""width:200px; border:14px solid green;"">","null","","","","","","","","",""
"","image-keyboard-response","200","168264","0.0-200.0","3WQQ9FUS6BGUG3PORZEM2ORCDW48B2","A2X9VV3B0FZKHY","30UZJB2POHY4464FN6NBJ2NLFWF354","","1393","img/flower3.png","75","1394.1000000014901","2","0","3","1","1,0.333,0.333,0.333,1,0.333,0.333,0.333,1","1,0.333,0.333,0.333,1,0.333,0.333,0.333,1","1",""
"","html-keyboard-response","201","168567","0.0-201.0","3WQQ9FUS6BGUG3PORZEM2ORCDW48B2","A2X9VV3B0FZKHY","30UZJB2POHY4464FN6NBJ2NLFWF354","","null","<img src=""img/flower3.png"" style=""width:200px;border:14px solid red;"">","null","","","","","","","","",""
"","image-keyboard-response","202","169847","0.0-202.0","3WQQ9FUS6BGUG3PORZEM2ORCDW48B2","A2X9VV3B0FZKHY","30UZJB2POHY4464FN6NBJ2NLFWF354","","1278.5","img/flower2.png","74","1279.8999999985099","1","1","1","1","1,0.333,0.333,0.333,1,0.333,0.333,0.333,1","1,0.333,0.333,0.333,1,0.333,0.333,0.333,1","1",""
"","html-keyboard-response","203","170150","0.0-203.0","3WQQ9FUS6BGUG3PORZEM2ORCDW48B2","A2X9VV3B0FZKHY","30UZJB2POHY4464FN6NBJ2NLFWF354","","null","<img src=""img/flower2.png"" style=""width:200px; border:14px solid green;"">","null","","","","","","","","",""
"","image-keyboard-response","204","170600","0.0-204.0","3WQQ9FUS6BGUG3PORZEM2ORCDW48B2","A2X9VV3B0FZKHY","30UZJB2POHY4464FN6NBJ2NLFWF354","","447.8999999985099","img/flower2.png","74","450.09999999403954","1","1","1","1","1,0.333,0.333,0.333,1,0.333,0.333,0.333,1","1,0.333,0.333,0.333,1,0.333,0.333,0.333,1","1",""
"","html-keyboard-response","205","170904","0.0-205.0","3WQQ9FUS6BGUG3PORZEM2ORCDW48B2","A2X9VV3B0FZKHY","30UZJB2POHY4464FN6NBJ2NLFWF354","","null","<img src=""img/flower2.png"" style=""width:200px; border:14px solid green;"">","null","","","","","","","","",""
"","image-keyboard-response","206","172395","0.0-206.0","3WQQ9FUS6BGUG3PORZEM2ORCDW48B2","A2X9VV3B0FZKHY","30UZJB2POHY4464FN6NBJ2NLFWF354","","1489","img/flower5.png","75","1490.6000000014901","2","1","2","1","1,0.333,0.333,0.333,1,0.333,0.333,0.333,1","1,0.333,0.333,0.333,1,0.333,0.333,0.333,1","1",""
"","html-keyboard-response","207","172698","0.0-207.0","3WQQ9FUS6BGUG3PORZEM2ORCDW48B2","A2X9VV3B0FZKHY","30UZJB2POHY4464FN6NBJ2NLFWF354","","null","<img src=""img/flower5.png"" style=""width:200px; border:14px solid green;"">","null","","","","","","","","",""
"","image-keyboard-response","208","173308","0.0-208.0","3WQQ9FUS6BGUG3PORZEM2ORCDW48B2","A2X9VV3B0FZKHY","30UZJB2POHY4464FN6NBJ2NLFWF354","","608.6000000014901","img/flower2.png","76","610.5","3","1","1","1","1,0.333,0.333,0.333,1,0.333,0.333,0.333,1","1,0.333,0.333,0.333,1,0.333,0.333,0.333,1","1",""
"","html-keyboard-response","209","173611","0.0-209.0","3WQQ9FUS6BGUG3PORZEM2ORCDW48B2","A2X9VV3B0FZKHY","30UZJB2POHY4464FN6NBJ2NLFWF354","","null","<img src=""img/flower2.png"" style=""width:200px; border:14px solid green;"">","null","","","","","","","","",""
"","image-keyboard-response","210","174996","0.0-210.0","3WQQ9FUS6BGUG3PORZEM2ORCDW48B2","A2X9VV3B0FZKHY","30UZJB2POHY4464FN6NBJ2NLFWF354","","1383.2999999970198","img/flower3.png","74","1385.3000000044703","1","1","3","1","1,0.333,0.333,0.333,1,0.333,0.333,0.333,1","1,0.333,0.333,0.333,1,0.333,0.333,0.333,1","1",""
"","html-keyboard-response","211","175300","0.0-211.0","3WQQ9FUS6BGUG3PORZEM2ORCDW48B2","A2X9VV3B0FZKHY","30UZJB2POHY4464FN6NBJ2NLFWF354","","null","<img src=""img/flower3.png"" style=""width:200px; border:14px solid green;"">","null","","","","","","","","",""
"","image-keyboard-response","212","176477","0.0-212.0","3WQQ9FUS6BGUG3PORZEM2ORCDW48B2","A2X9VV3B0FZKHY","30UZJB2POHY4464FN6NBJ2NLFWF354","","1175.4000000059605","img/flower5.png","75","1176.7000000029802","2","1","2","1","1,0.333,0.333,0.333,1,0.333,0.333,0.333,1","1,0.333,0.333,0.333,1,0.333,0.333,0.333,1","1",""
"","html-keyboard-response","213","176779","0.0-213.0","3WQQ9FUS6BGUG3PORZEM2ORCDW48B2","A2X9VV3B0FZKHY","30UZJB2POHY4464FN6NBJ2NLFWF354","","null","<img src=""img/flower5.png"" style=""width:200px; border:14px solid green;"">","null","","","","","","","","",""
"","image-keyboard-response","214","178022","0.0-214.0","3WQQ9FUS6BGUG3PORZEM2ORCDW48B2","A2X9VV3B0FZKHY","30UZJB2POHY4464FN6NBJ2NLFWF354","","1241.1999999955297","img/flower2.png","74","1242.9000000059605","1","1","1","1","1,0.333,0.333,0.333,1,0.333,0.333,0.333,1","1,0.333,0.333,0.333,1,0.333,0.333,0.333,1","1",""
"","html-keyboard-response","215","178325","0.0-215.0","3WQQ9FUS6BGUG3PORZEM2ORCDW48B2","A2X9VV3B0FZKHY","30UZJB2POHY4464FN6NBJ2NLFWF354","","null","<img src=""img/flower2.png"" style=""width:200px; border:14px solid green;"">","null","","","","","","","","",""
"","image-keyboard-response","216","179589","0.0-216.0","3WQQ9FUS6BGUG3PORZEM2ORCDW48B2","A2X9VV3B0FZKHY","30UZJB2POHY4464FN6NBJ2NLFWF354","","1262.3999999985099","img/flower5.png","75","1264.1000000014901","2","1","2","1","1,0.333,0.333,0.333,1,0.333,0.333,0.333,1","1,0.333,0.333,0.333,1,0.333,0.333,0.333,1","1",""
"","html-keyboard-response","217","179891","0.0-217.0","3WQQ9FUS6BGUG3PORZEM2ORCDW48B2","A2X9VV3B0FZKHY","30UZJB2POHY4464FN6NBJ2NLFWF354","","null","<img src=""img/flower5.png"" style=""width:200px; border:14px solid green;"">","null","","","","","","","","",""
"","image-keyboard-response","218","180343","0.0-218.0","3WQQ9FUS6BGUG3PORZEM2ORCDW48B2","A2X9VV3B0FZKHY","30UZJB2POHY4464FN6NBJ2NLFWF354","","449.6000000014901","img/flower5.png","75","450.8999999985099","2","1","2","1","1,0.333,0.333,0.333,1,0.333,0.333,0.333,1","1,0.333,0.333,0.333,1,0.333,0.333,0.333,1","1",""
"","html-keyboard-response","219","180645","0.0-219.0","3WQQ9FUS6BGUG3PORZEM2ORCDW48B2","A2X9VV3B0FZKHY","30UZJB2POHY4464FN6NBJ2NLFWF354","","null","<img src=""img/flower5.png"" style=""width:200px; border:14px solid green;"">","null","","","","","","","","",""
"","image-keyboard-response","220","181071","0.0-220.0","3WQQ9FUS6BGUG3PORZEM2ORCDW48B2","A2X9VV3B0FZKHY","30UZJB2POHY4464FN6NBJ2NLFWF354","","423.19999999552965","img/flower5.png","75","425","2","1","2","1","1,0.333,0.333,0.333,1,0.333,0.333,0.333,1","1,0.333,0.333,0.333,1,0.333,0.333,0.333,1","1",""
"","html-keyboard-response","221","181374","0.0-221.0","3WQQ9FUS6BGUG3PORZEM2ORCDW48B2","A2X9VV3B0FZKHY","30UZJB2POHY4464FN6NBJ2NLFWF354","","null","<img src=""img/flower5.png"" style=""width:200px; border:14px solid green;"">","null","","","","","","","","",""
"","image-keyboard-response","222","182634","0.0-222.0","3WQQ9FUS6BGUG3PORZEM2ORCDW48B2","A2X9VV3B0FZKHY","30UZJB2POHY4464FN6NBJ2NLFWF354","","1257","img/flower2.png","74","1258.8999999985099","1","1","1","1","1,0.333,0.333,0.333,1,0.333,0.333,0.333,1","1,0.333,0.333,0.333,1,0.333,0.333,0.333,1","1",""
"","html-keyboard-response","223","182937","0.0-223.0","3WQQ9FUS6BGUG3PORZEM2ORCDW48B2","A2X9VV3B0FZKHY","30UZJB2POHY4464FN6NBJ2NLFWF354","","null","<img src=""img/flower2.png"" style=""width:200px; border:14px solid green;"">","null","","","","","","","","",""
"","image-keyboard-response","224","183760","0.0-224.0","3WQQ9FUS6BGUG3PORZEM2ORCDW48B2","A2X9VV3B0FZKHY","30UZJB2POHY4464FN6NBJ2NLFWF354","","821.2999999970198","img/flower3.png","76","823","3","1","3","1","1,0.333,0.333,0.333,1,0.333,0.333,0.333,1","1,0.333,0.333,0.333,1,0.333,0.333,0.333,1","1",""
"","html-keyboard-response","225","184063","0.0-225.0","3WQQ9FUS6BGUG3PORZEM2ORCDW48B2","A2X9VV3B0FZKHY","30UZJB2POHY4464FN6NBJ2NLFWF354","","null","<img src=""img/flower3.png"" style=""width:200px; border:14px solid green;"">","null","","","","","","","","",""
"","image-keyboard-response","226","185999","0.0-226.0","3WQQ9FUS6BGUG3PORZEM2ORCDW48B2","A2X9VV3B0FZKHY","30UZJB2POHY4464FN6NBJ2NLFWF354","","1934.2999999970198","img/flower5.png","75","1936","2","1","2","1","1,0.333,0.333,0.333,1,0.333,0.333,0.333,1","1,0.333,0.333,0.333,1,0.333,0.333,0.333,1","1",""
"","html-keyboard-response","227","186302","0.0-227.0","3WQQ9FUS6BGUG3PORZEM2ORCDW48B2","A2X9VV3B0FZKHY","30UZJB2POHY4464FN6NBJ2NLFWF354","","null","<img src=""img/flower5.png"" style=""width:200px; border:14px solid green;"">","null","","","","","","","","",""
"","image-keyboard-response","228","187724","0.0-228.0","3WQQ9FUS6BGUG3PORZEM2ORCDW48B2","A2X9VV3B0FZKHY","30UZJB2POHY4464FN6NBJ2NLFWF354","","1419.3999999985099","img/flower3.png","74","1421.1999999955297","1","0","3","1","1,0.333,0.333,0.333,1,0.333,0.333,0.333,1","1,0.333,0.333,0.333,1,0.333,0.333,0.333,1","1",""
"","html-keyboard-response","229","188027","0.0-229.0","3WQQ9FUS6BGUG3PORZEM2ORCDW48B2","A2X9VV3B0FZKHY","30UZJB2POHY4464FN6NBJ2NLFWF354","","null","<img src=""img/flower3.png"" style=""width:200px;border:14px solid red;"">","null","","","","","","","","",""
"","image-keyboard-response","230","188877","0.0-230.0","3WQQ9FUS6BGUG3PORZEM2ORCDW48B2","A2X9VV3B0FZKHY","30UZJB2POHY4464FN6NBJ2NLFWF354","","848.1999999955297","img/flower5.png","76","849.8999999985099","3","1","2","1","1,0.333,0.333,0.333,1,0.333,0.333,0.333,1","1,0.333,0.333,0.333,1,0.333,0.333,0.333,1","1",""
"","html-keyboard-response","231","189180","0.0-231.0","3WQQ9FUS6BGUG3PORZEM2ORCDW48B2","A2X9VV3B0FZKHY","30UZJB2POHY4464FN6NBJ2NLFWF354","","null","<img src=""img/flower5.png"" style=""width:200px; border:14px solid green;"">","null","","","","","","","","",""
"","image-keyboard-response","232","189997","0.0-232.0","3WQQ9FUS6BGUG3PORZEM2ORCDW48B2","A2X9VV3B0FZKHY","30UZJB2POHY4464FN6NBJ2NLFWF354","","815.3999999985099","img/flower3.png","75","817.3000000044703","2","0","3","1","1,0.333,0.333,0.333,1,0.333,0.333,0.333,1","1,0.333,0.333,0.333,1,0.333,0.333,0.333,1","1",""
"","html-keyboard-response","233","190300","0.0-233.0","3WQQ9FUS6BGUG3PORZEM2ORCDW48B2","A2X9VV3B0FZKHY","30UZJB2POHY4464FN6NBJ2NLFWF354","","null","<img src=""img/flower3.png"" style=""width:200px;border:14px solid red;"">","null","","","","","","","","",""
"","image-keyboard-response","234","190778","0.0-234.0","3WQQ9FUS6BGUG3PORZEM2ORCDW48B2","A2X9VV3B0FZKHY","30UZJB2POHY4464FN6NBJ2NLFWF354","","476.5","img/flower3.png","75","478.30000000447035","2","0","3","1","1,0.333,0.333,0.333,1,0.333,0.333,0.333,1","1,0.333,0.333,0.333,1,0.333,0.333,0.333,1","1",""
"","html-keyboard-response","235","191081","0.0-235.0","3WQQ9FUS6BGUG3PORZEM2ORCDW48B2","A2X9VV3B0FZKHY","30UZJB2POHY4464FN6NBJ2NLFWF354","","null","<img src=""img/flower3.png"" style=""width:200px;border:14px solid red;"">","null","","","","","","","","",""
"","image-keyboard-response","236","191815","0.0-236.0","3WQQ9FUS6BGUG3PORZEM2ORCDW48B2","A2X9VV3B0FZKHY","30UZJB2POHY4464FN6NBJ2NLFWF354","","731.6999999955297","img/flower3.png","76","733.0999999940395","3","1","3","1","1,0.333,0.333,0.333,1,0.333,0.333,0.333,1","1,0.333,0.333,0.333,1,0.333,0.333,0.333,1","1",""
"","html-keyboard-response","237","192117","0.0-237.0","3WQQ9FUS6BGUG3PORZEM2ORCDW48B2","A2X9VV3B0FZKHY","30UZJB2POHY4464FN6NBJ2NLFWF354","","null","<img src=""img/flower3.png"" style=""width:200px; border:14px solid green;"">","null","","","","","","","","",""
"","image-keyboard-response","238","193179","0.0-238.0","3WQQ9FUS6BGUG3PORZEM2ORCDW48B2","A2X9VV3B0FZKHY","30UZJB2POHY4464FN6NBJ2NLFWF354","","1059.2999999970198","img/flower5.png","76","1060.8999999985099","3","1","2","1","1,0.333,0.333,0.333,1,0.333,0.333,0.333,1","1,0.333,0.333,0.333,1,0.333,0.333,0.333,1","1",""
"","html-keyboard-response","239","193482","0.0-239.0","3WQQ9FUS6BGUG3PORZEM2ORCDW48B2","A2X9VV3B0FZKHY","30UZJB2POHY4464FN6NBJ2NLFWF354","","null","<img src=""img/flower5.png"" style=""width:200px; border:14px solid green;"">","null","","","","","","","","",""
"","image-keyboard-response","240","193937","0.0-240.0","3WQQ9FUS6BGUG3PORZEM2ORCDW48B2","A2X9VV3B0FZKHY","30UZJB2POHY4464FN6NBJ2NLFWF354","","452.8999999985099","img/flower5.png","76","454.40000000596046","3","1","2","1","1,0.333,0.333,0.333,1,0.333,0.333,0.333,1","1,0.333,0.333,0.333,1,0.333,0.333,0.333,1","1",""
"","html-keyboard-response","241","194240","0.0-241.0","3WQQ9FUS6BGUG3PORZEM2ORCDW48B2","A2X9VV3B0FZKHY","30UZJB2POHY4464FN6NBJ2NLFWF354","","null","<img src=""img/flower5.png"" style=""width:200px; border:14px solid green;"">","null","","","","","","","","",""
"","image-keyboard-response","242","194593","0.0-242.0","3WQQ9FUS6BGUG3PORZEM2ORCDW48B2","A2X9VV3B0FZKHY","30UZJB2POHY4464FN6NBJ2NLFWF354","","350.5","img/flower5.png","76","352","3","0","2","1","1,0.333,0.333,0.333,1,0.333,0.333,0.333,1","1,0.333,0.333,0.333,1,0.333,0.333,0.333,1","1",""
"","html-keyboard-response","243","194895","0.0-243.0","3WQQ9FUS6BGUG3PORZEM2ORCDW48B2","A2X9VV3B0FZKHY","30UZJB2POHY4464FN6NBJ2NLFWF354","","null","<img src=""img/flower5.png"" style=""width:200px;border:14px solid red;"">","null","","","","","","","","",""
"","image-keyboard-response","244","196200","0.0-244.0","3WQQ9FUS6BGUG3PORZEM2ORCDW48B2","A2X9VV3B0FZKHY","30UZJB2POHY4464FN6NBJ2NLFWF354","","1303","img/flower2.png","74","1304.5999999940395","1","1","1","1","1,0.333,0.333,0.333,1,0.333,0.333,0.333,1","1,0.333,0.333,0.333,1,0.333,0.333,0.333,1","1",""
"","html-keyboard-response","245","196503","0.0-245.0","3WQQ9FUS6BGUG3PORZEM2ORCDW48B2","A2X9VV3B0FZKHY","30UZJB2POHY4464FN6NBJ2NLFWF354","","null","<img src=""img/flower2.png"" style=""width:200px; border:14px solid green;"">","null","","","","","","","","",""
"","image-keyboard-response","246","196855","0.0-246.0","3WQQ9FUS6BGUG3PORZEM2ORCDW48B2","A2X9VV3B0FZKHY","30UZJB2POHY4464FN6NBJ2NLFWF354","","349.40000000596046","img/flower2.png","74","351.1000000014901","1","1","1","1","1,0.333,0.333,0.333,1,0.333,0.333,0.333,1","1,0.333,0.333,0.333,1,0.333,0.333,0.333,1","1",""
"","html-keyboard-response","247","197158","0.0-247.0","3WQQ9FUS6BGUG3PORZEM2ORCDW48B2","A2X9VV3B0FZKHY","30UZJB2POHY4464FN6NBJ2NLFWF354","","null","<img src=""img/flower2.png"" style=""width:200px; border:14px solid green;"">","null","","","","","","","","",""
"","image-keyboard-response","248","198613","0.0-248.0","3WQQ9FUS6BGUG3PORZEM2ORCDW48B2","A2X9VV3B0FZKHY","30UZJB2POHY4464FN6NBJ2NLFWF354","","1453.5","img/flower3.png","75","1455.2000000029802","2","0","3","1","1,0.333,0.333,0.333,1,0.333,0.333,0.333,1","1,0.333,0.333,0.333,1,0.333,0.333,0.333,1","1",""
"","html-keyboard-response","249","198916","0.0-249.0","3WQQ9FUS6BGUG3PORZEM2ORCDW48B2","A2X9VV3B0FZKHY","30UZJB2POHY4464FN6NBJ2NLFWF354","","null","<img src=""img/flower3.png"" style=""width:200px;border:14px solid red;"">","null","","","","","","","","",""
"","image-keyboard-response","250","199325","0.0-250.0","3WQQ9FUS6BGUG3PORZEM2ORCDW48B2","A2X9VV3B0FZKHY","30UZJB2POHY4464FN6NBJ2NLFWF354","","407.1000000014901","img/flower5.png","75","408.5","2","1","2","1","1,0.333,0.333,0.333,1,0.333,0.333,0.333,1","1,0.333,0.333,0.333,1,0.333,0.333,0.333,1","1",""
"","html-keyboard-response","251","199627","0.0-251.0","3WQQ9FUS6BGUG3PORZEM2ORCDW48B2","A2X9VV3B0FZKHY","30UZJB2POHY4464FN6NBJ2NLFWF354","","null","<img src=""img/flower5.png"" style=""width:200px; border:14px solid green;"">","null","","","","","","","","",""
"","image-keyboard-response","252","201379","0.0-252.0","3WQQ9FUS6BGUG3PORZEM2ORCDW48B2","A2X9VV3B0FZKHY","30UZJB2POHY4464FN6NBJ2NLFWF354","","1749.2999999970198","img/flower2.png","76","1751.2000000029802","3","0","1","1","1,0.333,0.333,0.333,1,0.333,0.333,0.333,1","1,0.333,0.333,0.333,1,0.333,0.333,0.333,1","1",""
"","html-keyboard-response","253","201682","0.0-253.0","3WQQ9FUS6BGUG3PORZEM2ORCDW48B2","A2X9VV3B0FZKHY","30UZJB2POHY4464FN6NBJ2NLFWF354","","null","<img src=""img/flower2.png"" style=""width:200px;border:14px solid red;"">","null","","","","","","","","",""
"","image-keyboard-response","254","202243","0.0-254.0","3WQQ9FUS6BGUG3PORZEM2ORCDW48B2","A2X9VV3B0FZKHY","30UZJB2POHY4464FN6NBJ2NLFWF354","","558.1000000014901","img/flower2.png","74","559.5","1","1","1","1","1,0.333,0.333,0.333,1,0.333,0.333,0.333,1","1,0.333,0.333,0.333,1,0.333,0.333,0.333,1","1",""
"","html-keyboard-response","255","202544","0.0-255.0","3WQQ9FUS6BGUG3PORZEM2ORCDW48B2","A2X9VV3B0FZKHY","30UZJB2POHY4464FN6NBJ2NLFWF354","","null","<img src=""img/flower2.png"" style=""width:200px; border:14px solid green;"">","null","","","","","","","","",""
"","image-keyboard-response","256","203256","0.0-256.0","3WQQ9FUS6BGUG3PORZEM2ORCDW48B2","A2X9VV3B0FZKHY","30UZJB2POHY4464FN6NBJ2NLFWF354","","709.5","img/flower3.png","76","711.2000000029802","3","1","3","1","1,0.333,0.333,0.333,1,0.333,0.333,0.333,1","1,0.333,0.333,0.333,1,0.333,0.333,0.333,1","1",""
"","html-keyboard-response","257","203559","0.0-257.0","3WQQ9FUS6BGUG3PORZEM2ORCDW48B2","A2X9VV3B0FZKHY","30UZJB2POHY4464FN6NBJ2NLFWF354","","null","<img src=""img/flower3.png"" style=""width:200px; border:14px solid green;"">","null","","","","","","","","",""
"","image-keyboard-response","258","204181","0.0-258.0","3WQQ9FUS6BGUG3PORZEM2ORCDW48B2","A2X9VV3B0FZKHY","30UZJB2POHY4464FN6NBJ2NLFWF354","","620.2000000029802","img/flower3.png","76","621.6000000014901","3","1","3","1","1,0.333,0.333,0.333,1,0.333,0.333,0.333,1","1,0.333,0.333,0.333,1,0.333,0.333,0.333,1","1",""
"","html-keyboard-response","259","204485","0.0-259.0","3WQQ9FUS6BGUG3PORZEM2ORCDW48B2","A2X9VV3B0FZKHY","30UZJB2POHY4464FN6NBJ2NLFWF354","","null","<img src=""img/flower3.png"" style=""width:200px; border:14px solid green;"">","null","","","","","","","","",""
"","image-keyboard-response","260","204948","0.0-260.0","3WQQ9FUS6BGUG3PORZEM2ORCDW48B2","A2X9VV3B0FZKHY","30UZJB2POHY4464FN6NBJ2NLFWF354","","461","img/flower3.png","76","462.90000000596046","3","1","3","1","1,0.333,0.333,0.333,1,0.333,0.333,0.333,1","1,0.333,0.333,0.333,1,0.333,0.333,0.333,1","1",""
"","html-keyboard-response","261","205251","0.0-261.0","3WQQ9FUS6BGUG3PORZEM2ORCDW48B2","A2X9VV3B0FZKHY","30UZJB2POHY4464FN6NBJ2NLFWF354","","null","<img src=""img/flower3.png"" style=""width:200px; border:14px solid green;"">","null","","","","","","","","",""
"","image-keyboard-response","262","206453","0.0-262.0","3WQQ9FUS6BGUG3PORZEM2ORCDW48B2","A2X9VV3B0FZKHY","30UZJB2POHY4464FN6NBJ2NLFWF354","","1200.1999999955297","img/flower5.png","76","1201.8999999985099","3","0","2","1","1,0.333,0.333,0.333,1,0.333,0.333,0.333,1","1,0.333,0.333,0.333,1,0.333,0.333,0.333,1","1",""
"","html-keyboard-response","263","206756","0.0-263.0","3WQQ9FUS6BGUG3PORZEM2ORCDW48B2","A2X9VV3B0FZKHY","30UZJB2POHY4464FN6NBJ2NLFWF354","","null","<img src=""img/flower5.png"" style=""width:200px;border:14px solid red;"">","null","","","","","","","","",""
"","image-keyboard-response","264","207203","0.0-264.0","3WQQ9FUS6BGUG3PORZEM2ORCDW48B2","A2X9VV3B0FZKHY","30UZJB2POHY4464FN6NBJ2NLFWF354","","445.40000000596046","img/flower2.png","76","446.70000000298023","3","0","1","1","1,0.333,0.333,0.333,1,0.333,0.333,0.333,1","1,0.333,0.333,0.333,1,0.333,0.333,0.333,1","1",""
"","html-keyboard-response","265","207506","0.0-265.0","3WQQ9FUS6BGUG3PORZEM2ORCDW48B2","A2X9VV3B0FZKHY","30UZJB2POHY4464FN6NBJ2NLFWF354","","null","<img src=""img/flower2.png"" style=""width:200px;border:14px solid red;"">","null","","","","","","","","",""
"","image-keyboard-response","266","208752","0.0-266.0","3WQQ9FUS6BGUG3PORZEM2ORCDW48B2","A2X9VV3B0FZKHY","30UZJB2POHY4464FN6NBJ2NLFWF354","","1244.2999999970198","img/flower3.png","74","1245.6999999955297","1","0","3","1","1,0.333,0.333,0.333,1,0.333,0.333,0.333,1","1,0.333,0.333,0.333,1,0.333,0.333,0.333,1","1",""
"","html-keyboard-response","267","209054","0.0-267.0","3WQQ9FUS6BGUG3PORZEM2ORCDW48B2","A2X9VV3B0FZKHY","30UZJB2POHY4464FN6NBJ2NLFWF354","","null","<img src=""img/flower3.png"" style=""width:200px;border:14px solid red;"">","null","","","","","","","","",""
"","image-keyboard-response","268","209471","0.0-268.0","3WQQ9FUS6BGUG3PORZEM2ORCDW48B2","A2X9VV3B0FZKHY","30UZJB2POHY4464FN6NBJ2NLFWF354","","414.30000000447035","img/flower3.png","74","416","1","0","3","1","1,0.333,0.333,0.333,1,0.333,0.333,0.333,1","1,0.333,0.333,0.333,1,0.333,0.333,0.333,1","1",""
"","html-keyboard-response","269","209773","0.0-269.0","3WQQ9FUS6BGUG3PORZEM2ORCDW48B2","A2X9VV3B0FZKHY","30UZJB2POHY4464FN6NBJ2NLFWF354","","null","<img src=""img/flower3.png"" style=""width:200px;border:14px solid red;"">","null","","","","","","","","",""
"","image-keyboard-response","270","210358","0.0-270.0","3WQQ9FUS6BGUG3PORZEM2ORCDW48B2","A2X9VV3B0FZKHY","30UZJB2POHY4464FN6NBJ2NLFWF354","","582.7999999970198","img/flower5.png","75","584.5","2","1","2","1","1,0.333,0.333,0.333,1,0.333,0.333,0.333,1","1,0.333,0.333,0.333,1,0.333,0.333,0.333,1","1",""
"","html-keyboard-response","271","210661","0.0-271.0","3WQQ9FUS6BGUG3PORZEM2ORCDW48B2","A2X9VV3B0FZKHY","30UZJB2POHY4464FN6NBJ2NLFWF354","","null","<img src=""img/flower5.png"" style=""width:200px; border:14px solid green;"">","null","","","","","","","","",""
"","image-keyboard-response","272","211456","0.0-272.0","3WQQ9FUS6BGUG3PORZEM2ORCDW48B2","A2X9VV3B0FZKHY","30UZJB2POHY4464FN6NBJ2NLFWF354","","792.2999999970198","img/flower3.png","75","793.7999999970198","2","0","3","1","1,0.333,0.333,0.333,1,0.333,0.333,0.333,1","1,0.333,0.333,0.333,1,0.333,0.333,0.333,1","1",""
"","html-keyboard-response","273","211758","0.0-273.0","3WQQ9FUS6BGUG3PORZEM2ORCDW48B2","A2X9VV3B0FZKHY","30UZJB2POHY4464FN6NBJ2NLFWF354","","null","<img src=""img/flower3.png"" style=""width:200px;border:14px solid red;"">","null","","","","","","","","",""
"","image-keyboard-response","274","212781","0.0-274.0","3WQQ9FUS6BGUG3PORZEM2ORCDW48B2","A2X9VV3B0FZKHY","30UZJB2POHY4464FN6NBJ2NLFWF354","","1021.1000000014901","img/flower3.png","74","1022.6000000014901","1","1","3","1","1,0.333,0.333,0.333,1,0.333,0.333,0.333,1","1,0.333,0.333,0.333,1,0.333,0.333,0.333,1","1",""
"","html-keyboard-response","275","213083","0.0-275.0","3WQQ9FUS6BGUG3PORZEM2ORCDW48B2","A2X9VV3B0FZKHY","30UZJB2POHY4464FN6NBJ2NLFWF354","","null","<img src=""img/flower3.png"" style=""width:200px; border:14px solid green;"">","null","","","","","","","","",""
"","image-keyboard-response","276","213817","0.0-276.0","3WQQ9FUS6BGUG3PORZEM2ORCDW48B2","A2X9VV3B0FZKHY","30UZJB2POHY4464FN6NBJ2NLFWF354","","731","img/flower5.png","76","732.6999999955297","3","1","2","1","1,0.333,0.333,0.333,1,0.333,0.333,0.333,1","1,0.333,0.333,0.333,1,0.333,0.333,0.333,1","1",""
"","html-keyboard-response","277","214119","0.0-277.0","3WQQ9FUS6BGUG3PORZEM2ORCDW48B2","A2X9VV3B0FZKHY","30UZJB2POHY4464FN6NBJ2NLFWF354","","null","<img src=""img/flower5.png"" style=""width:200px; border:14px solid green;"">","null","","","","","","","","",""
"","image-keyboard-response","278","215110","0.0-278.0","3WQQ9FUS6BGUG3PORZEM2ORCDW48B2","A2X9VV3B0FZKHY","30UZJB2POHY4464FN6NBJ2NLFWF354","","988","img/flower2.png","74","990","1","1","1","1","1,0.333,0.333,0.333,1,0.333,0.333,0.333,1","1,0.333,0.333,0.333,1,0.333,0.333,0.333,1","1",""
"","html-keyboard-response","279","215413","0.0-279.0","3WQQ9FUS6BGUG3PORZEM2ORCDW48B2","A2X9VV3B0FZKHY","30UZJB2POHY4464FN6NBJ2NLFWF354","","null","<img src=""img/flower2.png"" style=""width:200px; border:14px solid green;"">","null","","","","","","","","",""
"","image-keyboard-response","280","216558","0.0-280.0","3WQQ9FUS6BGUG3PORZEM2ORCDW48B2","A2X9VV3B0FZKHY","30UZJB2POHY4464FN6NBJ2NLFWF354","","1143.5999999940395","img/flower5.png","76","1147.0999999940395","3","0","2","1","1,0.333,0.333,0.333,1,0.333,0.333,0.333,1","1,0.333,0.333,0.333,1,0.333,0.333,0.333,1","1",""
"","html-keyboard-response","281","216863","0.0-281.0","3WQQ9FUS6BGUG3PORZEM2ORCDW48B2","A2X9VV3B0FZKHY","30UZJB2POHY4464FN6NBJ2NLFWF354","","null","<img src=""img/flower5.png"" style=""width:200px;border:14px solid red;"">","null","","","","","","","","",""
"","image-keyboard-response","282","217942","0.0-282.0","3WQQ9FUS6BGUG3PORZEM2ORCDW48B2","A2X9VV3B0FZKHY","30UZJB2POHY4464FN6NBJ2NLFWF354","","1076.8999999985099","img/flower3.png","74","1078.6000000014901","1","0","3","1","1,0.333,0.333,0.333,1,0.333,0.333,0.333,1","1,0.333,0.333,0.333,1,0.333,0.333,0.333,1","1",""
"","html-keyboard-response","283","218244","0.0-283.0","3WQQ9FUS6BGUG3PORZEM2ORCDW48B2","A2X9VV3B0FZKHY","30UZJB2POHY4464FN6NBJ2NLFWF354","","null","<img src=""img/flower3.png"" style=""width:200px;border:14px solid red;"">","null","","","","","","","","",""
"","image-keyboard-response","284","218928","0.0-284.0","3WQQ9FUS6BGUG3PORZEM2ORCDW48B2","A2X9VV3B0FZKHY","30UZJB2POHY4464FN6NBJ2NLFWF354","","681.5999999940395","img/flower2.png","76","683.3999999985099","3","0","1","1","1,0.333,0.333,0.333,1,0.333,0.333,0.333,1","1,0.333,0.333,0.333,1,0.333,0.333,0.333,1","1",""
"","html-keyboard-response","285","219231","0.0-285.0","3WQQ9FUS6BGUG3PORZEM2ORCDW48B2","A2X9VV3B0FZKHY","30UZJB2POHY4464FN6NBJ2NLFWF354","","null","<img src=""img/flower2.png"" style=""width:200px;border:14px solid red;"">","null","","","","","","","","",""
"","image-keyboard-response","286","220301","0.0-286.0","3WQQ9FUS6BGUG3PORZEM2ORCDW48B2","A2X9VV3B0FZKHY","30UZJB2POHY4464FN6NBJ2NLFWF354","","1067.7999999970198","img/flower5.png","76","1069.1999999955297","3","0","2","1","1,0.333,0.333,0.333,1,0.333,0.333,0.333,1","1,0.333,0.333,0.333,1,0.333,0.333,0.333,1","1",""
"","html-keyboard-response","287","220602","0.0-287.0","3WQQ9FUS6BGUG3PORZEM2ORCDW48B2","A2X9VV3B0FZKHY","30UZJB2POHY4464FN6NBJ2NLFWF354","","null","<img src=""img/flower5.png"" style=""width:200px;border:14px solid red;"">","null","","","","","","","","",""
"","image-keyboard-response","288","221851","0.0-288.0","3WQQ9FUS6BGUG3PORZEM2ORCDW48B2","A2X9VV3B0FZKHY","30UZJB2POHY4464FN6NBJ2NLFWF354","","1246.1999999955297","img/flower3.png","75","1248.3000000044703","2","1","3","1","1,0.333,0.333,0.333,1,0.333,0.333,0.333,1","1,0.333,0.333,0.333,1,0.333,0.333,0.333,1","1",""
"","html-keyboard-response","289","222167","0.0-289.0","3WQQ9FUS6BGUG3PORZEM2ORCDW48B2","A2X9VV3B0FZKHY","30UZJB2POHY4464FN6NBJ2NLFWF354","","null","<img src=""img/flower3.png"" style=""width:200px; border:14px solid green;"">","null","","","","","","","","",""
"","image-keyboard-response","290","223005","0.0-290.0","3WQQ9FUS6BGUG3PORZEM2ORCDW48B2","A2X9VV3B0FZKHY","30UZJB2POHY4464FN6NBJ2NLFWF354","","835.7000000029802","img/flower5.png","76","837.5","3","0","2","1","1,0.333,0.333,0.333,1,0.333,0.333,0.333,1","1,0.333,0.333,0.333,1,0.333,0.333,0.333,1","1",""
"","html-keyboard-response","291","223307","0.0-291.0","3WQQ9FUS6BGUG3PORZEM2ORCDW48B2","A2X9VV3B0FZKHY","30UZJB2POHY4464FN6NBJ2NLFWF354","","null","<img src=""img/flower5.png"" style=""width:200px;border:14px solid red;"">","null","","","","","","","","",""
"","image-keyboard-response","292","224526","0.0-292.0","3WQQ9FUS6BGUG3PORZEM2ORCDW48B2","A2X9VV3B0FZKHY","30UZJB2POHY4464FN6NBJ2NLFWF354","","1216.7000000029802","img/flower2.png","74","1218.5","1","1","1","1","1,0.333,0.333,0.333,1,0.333,0.333,0.333,1","1,0.333,0.333,0.333,1,0.333,0.333,0.333,1","1",""
"","html-keyboard-response","293","224829","0.0-293.0","3WQQ9FUS6BGUG3PORZEM2ORCDW48B2","A2X9VV3B0FZKHY","30UZJB2POHY4464FN6NBJ2NLFWF354","","null","<img src=""img/flower2.png"" style=""width:200px; border:14px solid green;"">","null","","","","","","","","",""
"","image-keyboard-response","294","225256","0.0-294.0","3WQQ9FUS6BGUG3PORZEM2ORCDW48B2","A2X9VV3B0FZKHY","30UZJB2POHY4464FN6NBJ2NLFWF354","","424.1000000014901","img/flower2.png","74","425.79999999701977","1","1","1","1","1,0.333,0.333,0.333,1,0.333,0.333,0.333,1","1,0.333,0.333,0.333,1,0.333,0.333,0.333,1","1",""
"","html-keyboard-response","295","225557","0.0-295.0","3WQQ9FUS6BGUG3PORZEM2ORCDW48B2","A2X9VV3B0FZKHY","30UZJB2POHY4464FN6NBJ2NLFWF354","","null","<img src=""img/flower2.png"" style=""width:200px; border:14px solid green;"">","null","","","","","","","","",""
"","image-keyboard-response","296","226015","0.0-296.0","3WQQ9FUS6BGUG3PORZEM2ORCDW48B2","A2X9VV3B0FZKHY","30UZJB2POHY4464FN6NBJ2NLFWF354","","455.80000000447035","img/flower2.png","74","457.29999999701977","1","1","1","1","1,0.333,0.333,0.333,1,0.333,0.333,0.333,1","1,0.333,0.333,0.333,1,0.333,0.333,0.333,1","1",""
"","html-keyboard-response","297","226318","0.0-297.0","3WQQ9FUS6BGUG3PORZEM2ORCDW48B2","A2X9VV3B0FZKHY","30UZJB2POHY4464FN6NBJ2NLFWF354","","null","<img src=""img/flower2.png"" style=""width:200px; border:14px solid green;"">","null","","","","","","","","",""
"","image-keyboard-response","298","227238","0.0-298.0","3WQQ9FUS6BGUG3PORZEM2ORCDW48B2","A2X9VV3B0FZKHY","30UZJB2POHY4464FN6NBJ2NLFWF354","","918.2999999970198","img/flower5.png","76","919.8999999985099","3","0","2","1","1,0.333,0.333,0.333,1,0.333,0.333,0.333,1","1,0.333,0.333,0.333,1,0.333,0.333,0.333,1","1",""
"","html-keyboard-response","299","227541","0.0-299.0","3WQQ9FUS6BGUG3PORZEM2ORCDW48B2","A2X9VV3B0FZKHY","30UZJB2POHY4464FN6NBJ2NLFWF354","","null","<img src=""img/flower5.png"" style=""width:200px;border:14px solid red;"">","null","","","","","","","","",""
"","image-keyboard-response","300","228009","0.0-300.0","3WQQ9FUS6BGUG3PORZEM2ORCDW48B2","A2X9VV3B0FZKHY","30UZJB2POHY4464FN6NBJ2NLFWF354","","465.1000000014901","img/flower5.png","76","467.6000000014901","3","0","2","1","1,0.333,0.333,0.333,1,0.333,0.333,0.333,1","1,0.333,0.333,0.333,1,0.333,0.333,0.333,1","1",""
"","html-keyboard-response","301","228312","0.0-301.0","3WQQ9FUS6BGUG3PORZEM2ORCDW48B2","A2X9VV3B0FZKHY","30UZJB2POHY4464FN6NBJ2NLFWF354","","null","<img src=""img/flower5.png"" style=""width:200px;border:14px solid red;"">","null","","","","","","","","",""
"","image-keyboard-response","302","228787","0.0-302.0","3WQQ9FUS6BGUG3PORZEM2ORCDW48B2","A2X9VV3B0FZKHY","30UZJB2POHY4464FN6NBJ2NLFWF354","","472.30000000447035","img/flower5.png","76","474.1000000014901","3","1","2","1","1,0.333,0.333,0.333,1,0.333,0.333,0.333,1","1,0.333,0.333,0.333,1,0.333,0.333,0.333,1","1",""
"","html-keyboard-response","303","229090","0.0-303.0","3WQQ9FUS6BGUG3PORZEM2ORCDW48B2","A2X9VV3B0FZKHY","30UZJB2POHY4464FN6NBJ2NLFWF354","","null","<img src=""img/flower5.png"" style=""width:200px; border:14px solid green;"">","null","","","","","","","","",""
"","image-keyboard-response","304","230194","0.0-304.0","3WQQ9FUS6BGUG3PORZEM2ORCDW48B2","A2X9VV3B0FZKHY","30UZJB2POHY4464FN6NBJ2NLFWF354","","1102.7999999970198","img/flower2.png","74","1104.5","1","1","1","1","1,0.333,0.333,0.333,1,0.333,0.333,0.333,1","1,0.333,0.333,0.333,1,0.333,0.333,0.333,1","1",""
"","html-keyboard-response","305","230497","0.0-305.0","3WQQ9FUS6BGUG3PORZEM2ORCDW48B2","A2X9VV3B0FZKHY","30UZJB2POHY4464FN6NBJ2NLFWF354","","null","<img src=""img/flower2.png"" style=""width:200px; border:14px solid green;"">","null","","","","","","","","",""
"","image-keyboard-response","306","231461","0.0-306.0","3WQQ9FUS6BGUG3PORZEM2ORCDW48B2","A2X9VV3B0FZKHY","30UZJB2POHY4464FN6NBJ2NLFWF354","","962.8000000044703","img/flower5.png","76","964.3000000044703","3","1","2","1","1,0.333,0.333,0.333,1,0.333,0.333,0.333,1","1,0.333,0.333,0.333,1,0.333,0.333,0.333,1","1",""
"","html-keyboard-response","307","231763","0.0-307.0","3WQQ9FUS6BGUG3PORZEM2ORCDW48B2","A2X9VV3B0FZKHY","30UZJB2POHY4464FN6NBJ2NLFWF354","","null","<img src=""img/flower5.png"" style=""width:200px; border:14px solid green;"">","null","","","","","","","","",""
"","image-keyboard-response","308","232809","0.0-308.0","3WQQ9FUS6BGUG3PORZEM2ORCDW48B2","A2X9VV3B0FZKHY","30UZJB2POHY4464FN6NBJ2NLFWF354","","1045.7000000029802","img/flower2.png","74","1047.1000000014901","1","1","1","1","1,0.333,0.333,0.333,1,0.333,0.333,0.333,1","1,0.333,0.333,0.333,1,0.333,0.333,0.333,1","1",""
"","html-keyboard-response","309","233112","0.0-309.0","3WQQ9FUS6BGUG3PORZEM2ORCDW48B2","A2X9VV3B0FZKHY","30UZJB2POHY4464FN6NBJ2NLFWF354","","null","<img src=""img/flower2.png"" style=""width:200px; border:14px solid green;"">","null","","","","","","","","",""
"","image-keyboard-response","310","233572","0.0-310.0","3WQQ9FUS6BGUG3PORZEM2ORCDW48B2","A2X9VV3B0FZKHY","30UZJB2POHY4464FN6NBJ2NLFWF354","","457.79999999701977","img/flower2.png","74","459.3999999985099","1","1","1","1","1,0.333,0.333,0.333,1,0.333,0.333,0.333,1","1,0.333,0.333,0.333,1,0.333,0.333,0.333,1","1",""
"","html-keyboard-response","311","233875","0.0-311.0","3WQQ9FUS6BGUG3PORZEM2ORCDW48B2","A2X9VV3B0FZKHY","30UZJB2POHY4464FN6NBJ2NLFWF354","","null","<img src=""img/flower2.png"" style=""width:200px; border:14px solid green;"">","null","","","","","","","","",""
"","image-keyboard-response","312","234263","0.0-312.0","3WQQ9FUS6BGUG3PORZEM2ORCDW48B2","A2X9VV3B0FZKHY","30UZJB2POHY4464FN6NBJ2NLFWF354","","386.5","img/flower2.png","74","388.1000000014901","1","1","1","1","1,0.333,0.333,0.333,1,0.333,0.333,0.333,1","1,0.333,0.333,0.333,1,0.333,0.333,0.333,1","1",""
"","html-keyboard-response","313","234566","0.0-313.0","3WQQ9FUS6BGUG3PORZEM2ORCDW48B2","A2X9VV3B0FZKHY","30UZJB2POHY4464FN6NBJ2NLFWF354","","null","<img src=""img/flower2.png"" style=""width:200px; border:14px solid green;"">","null","","","","","","","","",""
"","image-keyboard-response","314","235816","0.0-314.0","3WQQ9FUS6BGUG3PORZEM2ORCDW48B2","A2X9VV3B0FZKHY","30UZJB2POHY4464FN6NBJ2NLFWF354","","1247.9000000059605","img/flower3.png","75","1249.1000000014901","2","0","3","1","1,0.333,0.333,0.333,1,0.333,0.333,0.333,1","1,0.333,0.333,0.333,1,0.333,0.333,0.333,1","1",""
"","html-keyboard-response","315","236118","0.0-315.0","3WQQ9FUS6BGUG3PORZEM2ORCDW48B2","A2X9VV3B0FZKHY","30UZJB2POHY4464FN6NBJ2NLFWF354","","null","<img src=""img/flower3.png"" style=""width:200px;border:14px solid red;"">","null","","","","","","","","",""
"","image-keyboard-response","316","236493","0.0-316.0","3WQQ9FUS6BGUG3PORZEM2ORCDW48B2","A2X9VV3B0FZKHY","30UZJB2POHY4464FN6NBJ2NLFWF354","","373","img/flower5.png","75","374.5","2","1","2","1","1,0.333,0.333,0.333,1,0.333,0.333,0.333,1","1,0.333,0.333,0.333,1,0.333,0.333,0.333,1","1",""
"","html-keyboard-response","317","236796","0.0-317.0","3WQQ9FUS6BGUG3PORZEM2ORCDW48B2","A2X9VV3B0FZKHY","30UZJB2POHY4464FN6NBJ2NLFWF354","","null","<img src=""img/flower5.png"" style=""width:200px; border:14px solid green;"">","null","","","","","","","","",""
"","image-keyboard-response","318","237011","0.0-318.0","3WQQ9FUS6BGUG3PORZEM2ORCDW48B2","A2X9VV3B0FZKHY","30UZJB2POHY4464FN6NBJ2NLFWF354","","213","img/flower2.png","76","214.69999999552965","3","0","1","1","1,0.333,0.333,0.333,1,0.333,0.333,0.333,1","1,0.333,0.333,0.333,1,0.333,0.333,0.333,1","1",""
"","html-keyboard-response","319","237320","0.0-319.0","3WQQ9FUS6BGUG3PORZEM2ORCDW48B2","A2X9VV3B0FZKHY","30UZJB2POHY4464FN6NBJ2NLFWF354","","null","<img src=""img/flower2.png"" style=""width:200px;border:14px solid red;"">","null","","","","","","","","",""
"","image-keyboard-response","320","237841","0.0-320.0","3WQQ9FUS6BGUG3PORZEM2ORCDW48B2","A2X9VV3B0FZKHY","30UZJB2POHY4464FN6NBJ2NLFWF354","","518.6000000014901","img/flower2.png","74","520.5","1","1","1","1","1,0.333,0.333,0.333,1,0.333,0.333,0.333,1","1,0.333,0.333,0.333,1,0.333,0.333,0.333,1","1",""
"","html-keyboard-response","321","238144","0.0-321.0","3WQQ9FUS6BGUG3PORZEM2ORCDW48B2","A2X9VV3B0FZKHY","30UZJB2POHY4464FN6NBJ2NLFWF354","","null","<img src=""img/flower2.png"" style=""width:200px; border:14px solid green;"">","null","","","","","","","","",""
"","image-keyboard-response","322","240147","0.0-322.0","3WQQ9FUS6BGUG3PORZEM2ORCDW48B2","A2X9VV3B0FZKHY","30UZJB2POHY4464FN6NBJ2NLFWF354","","","img/flower3.png","","2002.7999999970198","-1","0","3","1","1,0.333,0.333,0.333,1,0.333,0.333,0.333,1","1,0.333,0.333,0.333,1,0.333,0.333,0.333,1","1",""
"","html-keyboard-response","323","240450","0.0-323.0","3WQQ9FUS6BGUG3PORZEM2ORCDW48B2","A2X9VV3B0FZKHY","30UZJB2POHY4464FN6NBJ2NLFWF354","","null","<img src=""img/flower3.png"" style=""width:200px;border:14px solid red;"">","null","","","","","","","","",""
"","image-keyboard-response","324","241507","0.0-324.0","3WQQ9FUS6BGUG3PORZEM2ORCDW48B2","A2X9VV3B0FZKHY","30UZJB2POHY4464FN6NBJ2NLFWF354","","1055.2999999970198","img/flower2.png","74","1056.7000000029802","1","1","1","1","1,0.333,0.333,0.333,1,0.333,0.333,0.333,1","1,0.333,0.333,0.333,1,0.333,0.333,0.333,1","1",""
"","html-keyboard-response","325","241809","0.0-325.0","3WQQ9FUS6BGUG3PORZEM2ORCDW48B2","A2X9VV3B0FZKHY","30UZJB2POHY4464FN6NBJ2NLFWF354","","null","<img src=""img/flower2.png"" style=""width:200px; border:14px solid green;"">","null","","","","","","","","",""
"","image-keyboard-response","326","242682","0.0-326.0","3WQQ9FUS6BGUG3PORZEM2ORCDW48B2","A2X9VV3B0FZKHY","30UZJB2POHY4464FN6NBJ2NLFWF354","","871.2999999970198","img/flower3.png","74","873","1","0","3","1","1,0.333,0.333,0.333,1,0.333,0.333,0.333,1","1,0.333,0.333,0.333,1,0.333,0.333,0.333,1","1",""
"","html-keyboard-response","327","242984","0.0-327.0","3WQQ9FUS6BGUG3PORZEM2ORCDW48B2","A2X9VV3B0FZKHY","30UZJB2POHY4464FN6NBJ2NLFWF354","","null","<img src=""img/flower3.png"" style=""width:200px;border:14px solid red;"">","null","","","","","","","","",""
"","image-keyboard-response","328","243577","0.0-328.0","3WQQ9FUS6BGUG3PORZEM2ORCDW48B2","A2X9VV3B0FZKHY","30UZJB2POHY4464FN6NBJ2NLFWF354","","590.2999999970198","img/flower3.png","75","592","2","0","3","1","1,0.333,0.333,0.333,1,0.333,0.333,0.333,1","1,0.333,0.333,0.333,1,0.333,0.333,0.333,1","1",""
"","html-keyboard-response","329","243880","0.0-329.0","3WQQ9FUS6BGUG3PORZEM2ORCDW48B2","A2X9VV3B0FZKHY","30UZJB2POHY4464FN6NBJ2NLFWF354","","null","<img src=""img/flower3.png"" style=""width:200px;border:14px solid red;"">","null","","","","","","","","",""
"","image-keyboard-response","330","244562","0.0-330.0","3WQQ9FUS6BGUG3PORZEM2ORCDW48B2","A2X9VV3B0FZKHY","30UZJB2POHY4464FN6NBJ2NLFWF354","","680.3999999985099","img/flower5.png","76","682.1999999955297","3","0","2","1","1,0.333,0.333,0.333,1,0.333,0.333,0.333,1","1,0.333,0.333,0.333,1,0.333,0.333,0.333,1","1",""
"","html-keyboard-response","331","244866","0.0-331.0","3WQQ9FUS6BGUG3PORZEM2ORCDW48B2","A2X9VV3B0FZKHY","30UZJB2POHY4464FN6NBJ2NLFWF354","","null","<img src=""img/flower5.png"" style=""width:200px;border:14px solid red;"">","null","","","","","","","","",""
"","image-keyboard-response","332","245424","0.0-332.0","3WQQ9FUS6BGUG3PORZEM2ORCDW48B2","A2X9VV3B0FZKHY","30UZJB2POHY4464FN6NBJ2NLFWF354","","555.7999999970198","img/flower5.png","76","557.6000000014901","3","0","2","1","1,0.333,0.333,0.333,1,0.333,0.333,0.333,1","1,0.333,0.333,0.333,1,0.333,0.333,0.333,1","1",""
"","html-keyboard-response","333","245726","0.0-333.0","3WQQ9FUS6BGUG3PORZEM2ORCDW48B2","A2X9VV3B0FZKHY","30UZJB2POHY4464FN6NBJ2NLFWF354","","null","<img src=""img/flower5.png"" style=""width:200px;border:14px solid red;"">","null","","","","","","","","",""
"","image-keyboard-response","334","246203","0.0-334.0","3WQQ9FUS6BGUG3PORZEM2ORCDW48B2","A2X9VV3B0FZKHY","30UZJB2POHY4464FN6NBJ2NLFWF354","","474.3999999985099","img/flower5.png","76","476.19999999552965","3","0","2","1","1,0.333,0.333,0.333,1,0.333,0.333,0.333,1","1,0.333,0.333,0.333,1,0.333,0.333,0.333,1","1",""
"","html-keyboard-response","335","246506","0.0-335.0","3WQQ9FUS6BGUG3PORZEM2ORCDW48B2","A2X9VV3B0FZKHY","30UZJB2POHY4464FN6NBJ2NLFWF354","","null","<img src=""img/flower5.png"" style=""width:200px;border:14px solid red;"">","null","","","","","","","","",""
"","image-keyboard-response","336","247425","0.0-336.0","3WQQ9FUS6BGUG3PORZEM2ORCDW48B2","A2X9VV3B0FZKHY","30UZJB2POHY4464FN6NBJ2NLFWF354","","918.2000000029802","img/flower3.png","75","919.5","2","1","3","1","1,0.333,0.333,0.333,1,0.333,0.333,0.333,1","1,0.333,0.333,0.333,1,0.333,0.333,0.333,1","1",""
"","html-keyboard-response","337","247728","0.0-337.0","3WQQ9FUS6BGUG3PORZEM2ORCDW48B2","A2X9VV3B0FZKHY","30UZJB2POHY4464FN6NBJ2NLFWF354","","null","<img src=""img/flower3.png"" style=""width:200px; border:14px solid green;"">","null","","","","","","","","",""
"","image-keyboard-response","338","248116","0.0-338.0","3WQQ9FUS6BGUG3PORZEM2ORCDW48B2","A2X9VV3B0FZKHY","30UZJB2POHY4464FN6NBJ2NLFWF354","","386.29999999701977","img/flower3.png","75","387.70000000298023","2","0","3","1","1,0.333,0.333,0.333,1,0.333,0.333,0.333,1","1,0.333,0.333,0.333,1,0.333,0.333,0.333,1","1",""
"","html-keyboard-response","339","248419","0.0-339.0","3WQQ9FUS6BGUG3PORZEM2ORCDW48B2","A2X9VV3B0FZKHY","30UZJB2POHY4464FN6NBJ2NLFWF354","","null","<img src=""img/flower3.png"" style=""width:200px;border:14px solid red;"">","null","","","","","","","","",""
"","image-keyboard-response","340","249283","0.0-340.0","3WQQ9FUS6BGUG3PORZEM2ORCDW48B2","A2X9VV3B0FZKHY","30UZJB2POHY4464FN6NBJ2NLFWF354","","862.3000000044703","img/flower5.png","76","864.1000000014901","3","1","2","1","1,0.333,0.333,0.333,1,0.333,0.333,0.333,1","1,0.333,0.333,0.333,1,0.333,0.333,0.333,1","1",""
"","html-keyboard-response","341","249587","0.0-341.0","3WQQ9FUS6BGUG3PORZEM2ORCDW48B2","A2X9VV3B0FZKHY","30UZJB2POHY4464FN6NBJ2NLFWF354","","null","<img src=""img/flower5.png"" style=""width:200px; border:14px solid green;"">","null","","","","","","","","",""
"","image-keyboard-response","342","249913","0.0-342.0","3WQQ9FUS6BGUG3PORZEM2ORCDW48B2","A2X9VV3B0FZKHY","30UZJB2POHY4464FN6NBJ2NLFWF354","","324.5","img/flower3.png","76","326.1000000014901","3","1","3","1","1,0.333,0.333,0.333,1,0.333,0.333,0.333,1","1,0.333,0.333,0.333,1,0.333,0.333,0.333,1","1",""
"","html-keyboard-response","343","250217","0.0-343.0","3WQQ9FUS6BGUG3PORZEM2ORCDW48B2","A2X9VV3B0FZKHY","30UZJB2POHY4464FN6NBJ2NLFWF354","","null","<img src=""img/flower3.png"" style=""width:200px; border:14px solid green;"">","null","","","","","","","","",""
"","image-keyboard-response","344","251465","0.0-344.0","3WQQ9FUS6BGUG3PORZEM2ORCDW48B2","A2X9VV3B0FZKHY","30UZJB2POHY4464FN6NBJ2NLFWF354","","1245.6999999955297","img/flower5.png","76","1247.2999999970198","3","0","2","1","1,0.333,0.333,0.333,1,0.333,0.333,0.333,1","1,0.333,0.333,0.333,1,0.333,0.333,0.333,1","1",""
"","html-keyboard-response","345","251767","0.0-345.0","3WQQ9FUS6BGUG3PORZEM2ORCDW48B2","A2X9VV3B0FZKHY","30UZJB2POHY4464FN6NBJ2NLFWF354","","null","<img src=""img/flower5.png"" style=""width:200px;border:14px solid red;"">","null","","","","","","","","",""
"","image-keyboard-response","346","252949","0.0-346.0","3WQQ9FUS6BGUG3PORZEM2ORCDW48B2","A2X9VV3B0FZKHY","30UZJB2POHY4464FN6NBJ2NLFWF354","","1180.2000000029802","img/flower2.png","74","1182.1000000014901","1","1","1","1","1,0.333,0.333,0.333,1,0.333,0.333,0.333,1","1,0.333,0.333,0.333,1,0.333,0.333,0.333,1","1",""
"","html-keyboard-response","347","253264","0.0-347.0","3WQQ9FUS6BGUG3PORZEM2ORCDW48B2","A2X9VV3B0FZKHY","30UZJB2POHY4464FN6NBJ2NLFWF354","","null","<img src=""img/flower2.png"" style=""width:200px; border:14px solid green;"">","null","","","","","","","","",""
"","image-keyboard-response","348","253662","0.0-348.0","3WQQ9FUS6BGUG3PORZEM2ORCDW48B2","A2X9VV3B0FZKHY","30UZJB2POHY4464FN6NBJ2NLFWF354","","396.1000000014901","img/flower2.png","74","398","1","1","1","1","1,0.333,0.333,0.333,1,0.333,0.333,0.333,1","1,0.333,0.333,0.333,1,0.333,0.333,0.333,1","1",""
"","html-keyboard-response","349","253964","0.0-349.0","3WQQ9FUS6BGUG3PORZEM2ORCDW48B2","A2X9VV3B0FZKHY","30UZJB2POHY4464FN6NBJ2NLFWF354","","null","<img src=""img/flower2.png"" style=""width:200px; border:14px solid green;"">","null","","","","","","","","",""
"","image-keyboard-response","350","255332","0.0-350.0","3WQQ9FUS6BGUG3PORZEM2ORCDW48B2","A2X9VV3B0FZKHY","30UZJB2POHY4464FN6NBJ2NLFWF354","","1365","img/flower3.png","75","1366.8000000044703","2","0","3","1","1,0.333,0.333,0.333,1,0.333,0.333,0.333,1","1,0.333,0.333,0.333,1,0.333,0.333,0.333,1","1",""
"","html-keyboard-response","351","255634","0.0-351.0","3WQQ9FUS6BGUG3PORZEM2ORCDW48B2","A2X9VV3B0FZKHY","30UZJB2POHY4464FN6NBJ2NLFWF354","","null","<img src=""img/flower3.png"" style=""width:200px;border:14px solid red;"">","null","","","","","","","","",""
"","image-keyboard-response","352","256010","0.0-352.0","3WQQ9FUS6BGUG3PORZEM2ORCDW48B2","A2X9VV3B0FZKHY","30UZJB2POHY4464FN6NBJ2NLFWF354","","373.79999999701977","img/flower3.png","75","375.3999999985099","2","1","3","1","1,0.333,0.333,0.333,1,0.333,0.333,0.333,1","1,0.333,0.333,0.333,1,0.333,0.333,0.333,1","1",""
"","html-keyboard-response","353","256313","0.0-353.0","3WQQ9FUS6BGUG3PORZEM2ORCDW48B2","A2X9VV3B0FZKHY","30UZJB2POHY4464FN6NBJ2NLFWF354","","null","<img src=""img/flower3.png"" style=""width:200px; border:14px solid green;"">","null","","","","","","","","",""
"","image-keyboard-response","354","256899","0.0-354.0","3WQQ9FUS6BGUG3PORZEM2ORCDW48B2","A2X9VV3B0FZKHY","30UZJB2POHY4464FN6NBJ2NLFWF354","","583.6999999955297","img/flower3.png","75","585.4000000059605","2","1","3","1","1,0.333,0.333,0.333,1,0.333,0.333,0.333,1","1,0.333,0.333,0.333,1,0.333,0.333,0.333,1","1",""
"","html-keyboard-response","355","257202","0.0-355.0","3WQQ9FUS6BGUG3PORZEM2ORCDW48B2","A2X9VV3B0FZKHY","30UZJB2POHY4464FN6NBJ2NLFWF354","","null","<img src=""img/flower3.png"" style=""width:200px; border:14px solid green;"">","null","","","","","","","","",""
"","image-keyboard-response","356","257677","0.0-356.0","3WQQ9FUS6BGUG3PORZEM2ORCDW48B2","A2X9VV3B0FZKHY","30UZJB2POHY4464FN6NBJ2NLFWF354","","473.19999999552965","img/flower3.png","75","474.70000000298023","2","1","3","1","1,0.333,0.333,0.333,1,0.333,0.333,0.333,1","1,0.333,0.333,0.333,1,0.333,0.333,0.333,1","1",""
"","html-keyboard-response","357","257979","0.0-357.0","3WQQ9FUS6BGUG3PORZEM2ORCDW48B2","A2X9VV3B0FZKHY","30UZJB2POHY4464FN6NBJ2NLFWF354","","null","<img src=""img/flower3.png"" style=""width:200px; border:14px solid green;"">","null","","","","","","","","",""
"","image-keyboard-response","358","258759","0.0-358.0","3WQQ9FUS6BGUG3PORZEM2ORCDW48B2","A2X9VV3B0FZKHY","30UZJB2POHY4464FN6NBJ2NLFWF354","","777.1000000014901","img/flower5.png","76","779","3","0","2","1","1,0.333,0.333,0.333,1,0.333,0.333,0.333,1","1,0.333,0.333,0.333,1,0.333,0.333,0.333,1","1",""
"","html-keyboard-response","359","259062","0.0-359.0","3WQQ9FUS6BGUG3PORZEM2ORCDW48B2","A2X9VV3B0FZKHY","30UZJB2POHY4464FN6NBJ2NLFWF354","","null","<img src=""img/flower5.png"" style=""width:200px;border:14px solid red;"">","null","","","","","","","","",""
"","image-keyboard-response","360","260347","0.0-360.0","3WQQ9FUS6BGUG3PORZEM2ORCDW48B2","A2X9VV3B0FZKHY","30UZJB2POHY4464FN6NBJ2NLFWF354","","1282.7000000029802","img/flower3.png","74","1284.3999999985099","1","0","3","1","1,0.333,0.333,0.333,1,0.333,0.333,0.333,1","1,0.333,0.333,0.333,1,0.333,0.333,0.333,1","1",""
"","html-keyboard-response","361","260651","0.0-361.0","3WQQ9FUS6BGUG3PORZEM2ORCDW48B2","A2X9VV3B0FZKHY","30UZJB2POHY4464FN6NBJ2NLFWF354","","null","<img src=""img/flower3.png"" style=""width:200px;border:14px solid red;"">","null","","","","","","","","",""
"","html-keyboard-response","362","264360","0.0-362.0","3WQQ9FUS6BGUG3PORZEM2ORCDW48B2","A2X9VV3B0FZKHY","30UZJB2POHY4464FN6NBJ2NLFWF354","","","","","","","","","","","","",""
"","instructions","363","266672","0.0-363.0","3WQQ9FUS6BGUG3PORZEM2ORCDW48B2","A2X9VV3B0FZKHY","30UZJB2POHY4464FN6NBJ2NLFWF354","[{""page_index"":0,""viewing_time"":2311.0999999940395}]","2311.5","","","","","","","","","","",""
