"rt","url","trial_type","trial_index","time_elapsed","internal_node_id","assignmentID","mturkID","hitID","success","view_history","stimulus","key_press","reactionTime","a","r","s","reward_cond","responses"
"17002","consent.html","external-html","0","17179","0.0-0.0","352YTHGROWZ3OF58FOY57NE5271H48","A2Y7L7R5UTQ5R2","3FW4EL5A3LANKRP91N782LFHPY722Q","","","","","","","","","",""
"","","fullscreen","1","23776","0.0-1.0","352YTHGROWZ3OF58FOY57NE5271H48","A2Y7L7R5UTQ5R2","3FW4EL5A3LANKRP91N782LFHPY722Q","true","","","","","","","","",""
"428233","","instructions","2","452013","0.0-2.0","352YTHGROWZ3OF58FOY57NE5271H48","A2Y7L7R5UTQ5R2","3FW4EL5A3LANKRP91N782LFHPY722Q","","[{""page_index"":0,""viewing_time"":312705},{""page_index"":1,""viewing_time"":17359},{""page_index"":2,""viewing_time"":19396},{""page_index"":3,""viewing_time"":21381},{""page_index"":4,""viewing_time"":17897},{""page_index"":5,""viewing_time"":30293},{""page_index"":6,""viewing_time"":9201}]","","","","","","","",""
"26864","","instructions","3","478880","0.0-3.0","352YTHGROWZ3OF58FOY57NE5271H48","A2Y7L7R5UTQ5R2","3FW4EL5A3LANKRP91N782LFHPY722Q","","[{""page_index"":0,""viewing_time"":26860}]","","","","","","","",""
"3452","","image-keyboard-response","4","482336","0.0-4.0","352YTHGROWZ3OF58FOY57NE5271H48","A2Y7L7R5UTQ5R2","3FW4EL5A3LANKRP91N782LFHPY722Q","","","img/flower5.png","74","3455","1","0","2","",""
"null","","html-keyboard-response","5","482650","0.0-5.0","352YTHGROWZ3OF58FOY57NE5271H48","A2Y7L7R5UTQ5R2","3FW4EL5A3LANKRP91N782LFHPY722Q","","","<img src=""img/flower5.png"" style=""width:200px;border:14px solid red;"">","null","","","","","",""
"1963","","image-keyboard-response","6","484617","0.0-6.0","352YTHGROWZ3OF58FOY57NE5271H48","A2Y7L7R5UTQ5R2","3FW4EL5A3LANKRP91N782LFHPY722Q","","","img/flower6.png","76","1966","3","1","3","",""
"null","","html-keyboard-response","7","484930","0.0-7.0","352YTHGROWZ3OF58FOY57NE5271H48","A2Y7L7R5UTQ5R2","3FW4EL5A3LANKRP91N782LFHPY722Q","","","<img src=""img/flower6.png"" style=""width:200px; border:14px solid green;"">","null","","","","","",""
"2197","","image-keyboard-response","8","487135","0.0-8.0","352YTHGROWZ3OF58FOY57NE5271H48","A2Y7L7R5UTQ5R2","3FW4EL5A3LANKRP91N782LFHPY722Q","","","img/flower4.png","74","2205","1","1","1","",""
"null","","html-keyboard-response","9","487441","0.0-9.0","352YTHGROWZ3OF58FOY57NE5271H48","A2Y7L7R5UTQ5R2","3FW4EL5A3LANKRP91N782LFHPY722Q","","","<img src=""img/flower4.png"" style=""width:200px; border:14px solid green;"">","null","","","","","",""
"1811","","image-keyboard-response","10","489261","0.0-10.0","352YTHGROWZ3OF58FOY57NE5271H48","A2Y7L7R5UTQ5R2","3FW4EL5A3LANKRP91N782LFHPY722Q","","","img/flower4.png","74","1820","1","1","1","",""
"null","","html-keyboard-response","11","489573","0.0-11.0","352YTHGROWZ3OF58FOY57NE5271H48","A2Y7L7R5UTQ5R2","3FW4EL5A3LANKRP91N782LFHPY722Q","","","<img src=""img/flower4.png"" style=""width:200px; border:14px solid green;"">","null","","","","","",""
"1384","","image-keyboard-response","12","490967","0.0-12.0","352YTHGROWZ3OF58FOY57NE5271H48","A2Y7L7R5UTQ5R2","3FW4EL5A3LANKRP91N782LFHPY722Q","","","img/flower6.png","76","1394","3","1","3","",""
"null","","html-keyboard-response","13","491276","0.0-13.0","352YTHGROWZ3OF58FOY57NE5271H48","A2Y7L7R5UTQ5R2","3FW4EL5A3LANKRP91N782LFHPY722Q","","","<img src=""img/flower6.png"" style=""width:200px; border:14px solid green;"">","null","","","","","",""
"884","","image-keyboard-response","14","492165","0.0-14.0","352YTHGROWZ3OF58FOY57NE5271H48","A2Y7L7R5UTQ5R2","3FW4EL5A3LANKRP91N782LFHPY722Q","","","img/flower5.png","75","889","2","1","2","",""
"null","","html-keyboard-response","15","492478","0.0-15.0","352YTHGROWZ3OF58FOY57NE5271H48","A2Y7L7R5UTQ5R2","3FW4EL5A3LANKRP91N782LFHPY722Q","","","<img src=""img/flower5.png"" style=""width:200px; border:14px solid green;"">","null","","","","","",""
"1946","","image-keyboard-response","16","494452","0.0-16.0","352YTHGROWZ3OF58FOY57NE5271H48","A2Y7L7R5UTQ5R2","3FW4EL5A3LANKRP91N782LFHPY722Q","","","img/flower5.png","75","1958","2","1","2","",""
"null","","html-keyboard-response","17","494759","0.0-17.0","352YTHGROWZ3OF58FOY57NE5271H48","A2Y7L7R5UTQ5R2","3FW4EL5A3LANKRP91N782LFHPY722Q","","","<img src=""img/flower5.png"" style=""width:200px; border:14px solid green;"">","null","","","","","",""
"1241","","image-keyboard-response","18","496001","0.0-18.0","352YTHGROWZ3OF58FOY57NE5271H48","A2Y7L7R5UTQ5R2","3FW4EL5A3LANKRP91N782LFHPY722Q","","","img/flower4.png","74","1242","1","1","1","",""
"null","","html-keyboard-response","19","496305","0.0-19.0","352YTHGROWZ3OF58FOY57NE5271H48","A2Y7L7R5UTQ5R2","3FW4EL5A3LANKRP91N782LFHPY722Q","","","<img src=""img/flower4.png"" style=""width:200px; border:14px solid green;"">","null","","","","","",""
"1791","","image-keyboard-response","20","498108","0.0-20.0","352YTHGROWZ3OF58FOY57NE5271H48","A2Y7L7R5UTQ5R2","3FW4EL5A3LANKRP91N782LFHPY722Q","","","img/flower6.png","76","1803","3","0","3","",""
"null","","html-keyboard-response","21","498414","0.0-21.0","352YTHGROWZ3OF58FOY57NE5271H48","A2Y7L7R5UTQ5R2","3FW4EL5A3LANKRP91N782LFHPY722Q","","","<img src=""img/flower6.png"" style=""width:200px;border:14px solid red;"">","null","","","","","",""
"4184","","image-keyboard-response","22","502600","0.0-22.0","352YTHGROWZ3OF58FOY57NE5271H48","A2Y7L7R5UTQ5R2","3FW4EL5A3LANKRP91N782LFHPY722Q","","","img/flower4.png","74","4186","1","1","1","",""
"null","","html-keyboard-response","23","502910","0.0-23.0","352YTHGROWZ3OF58FOY57NE5271H48","A2Y7L7R5UTQ5R2","3FW4EL5A3LANKRP91N782LFHPY722Q","","","<img src=""img/flower4.png"" style=""width:200px; border:14px solid green;"">","null","","","","","",""
"1868","","image-keyboard-response","24","504791","0.0-24.0","352YTHGROWZ3OF58FOY57NE5271H48","A2Y7L7R5UTQ5R2","3FW4EL5A3LANKRP91N782LFHPY722Q","","","img/flower5.png","75","1881","2","1","2","",""
"null","","html-keyboard-response","25","505099","0.0-25.0","352YTHGROWZ3OF58FOY57NE5271H48","A2Y7L7R5UTQ5R2","3FW4EL5A3LANKRP91N782LFHPY722Q","","","<img src=""img/flower5.png"" style=""width:200px; border:14px solid green;"">","null","","","","","",""
"1713","","image-keyboard-response","26","506825","0.0-26.0","352YTHGROWZ3OF58FOY57NE5271H48","A2Y7L7R5UTQ5R2","3FW4EL5A3LANKRP91N782LFHPY722Q","","","img/flower4.png","74","1725","1","1","1","",""
"null","","html-keyboard-response","27","507130","0.0-27.0","352YTHGROWZ3OF58FOY57NE5271H48","A2Y7L7R5UTQ5R2","3FW4EL5A3LANKRP91N782LFHPY722Q","","","<img src=""img/flower4.png"" style=""width:200px; border:14px solid green;"">","null","","","","","",""
"7176","","image-keyboard-response","28","514309","0.0-28.0","352YTHGROWZ3OF58FOY57NE5271H48","A2Y7L7R5UTQ5R2","3FW4EL5A3LANKRP91N782LFHPY722Q","","","img/flower5.png","75","7178","2","1","2","",""
"null","","html-keyboard-response","29","514622","0.0-29.0","352YTHGROWZ3OF58FOY57NE5271H48","A2Y7L7R5UTQ5R2","3FW4EL5A3LANKRP91N782LFHPY722Q","","","<img src=""img/flower5.png"" style=""width:200px; border:14px solid green;"">","null","","","","","",""
"1501","","image-keyboard-response","30","516129","0.0-30.0","352YTHGROWZ3OF58FOY57NE5271H48","A2Y7L7R5UTQ5R2","3FW4EL5A3LANKRP91N782LFHPY722Q","","","img/flower6.png","76","1507","3","1","3","",""
"null","","html-keyboard-response","31","516432","0.0-31.0","352YTHGROWZ3OF58FOY57NE5271H48","A2Y7L7R5UTQ5R2","3FW4EL5A3LANKRP91N782LFHPY722Q","","","<img src=""img/flower6.png"" style=""width:200px; border:14px solid green;"">","null","","","","","",""
"3916","","image-keyboard-response","32","520360","0.0-32.0","352YTHGROWZ3OF58FOY57NE5271H48","A2Y7L7R5UTQ5R2","3FW4EL5A3LANKRP91N782LFHPY722Q","","","img/flower5.png","75","3928","2","1","2","",""
"null","","html-keyboard-response","33","520665","0.0-33.0","352YTHGROWZ3OF58FOY57NE5271H48","A2Y7L7R5UTQ5R2","3FW4EL5A3LANKRP91N782LFHPY722Q","","","<img src=""img/flower5.png"" style=""width:200px; border:14px solid green;"">","null","","","","","",""
"1520","","image-keyboard-response","34","522196","0.0-34.0","352YTHGROWZ3OF58FOY57NE5271H48","A2Y7L7R5UTQ5R2","3FW4EL5A3LANKRP91N782LFHPY722Q","","","img/flower4.png","74","1531","1","1","1","",""
"null","","html-keyboard-response","35","522508","0.0-35.0","352YTHGROWZ3OF58FOY57NE5271H48","A2Y7L7R5UTQ5R2","3FW4EL5A3LANKRP91N782LFHPY722Q","","","<img src=""img/flower4.png"" style=""width:200px; border:14px solid green;"">","null","","","","","",""
"1153","","image-keyboard-response","36","523673","0.0-36.0","352YTHGROWZ3OF58FOY57NE5271H48","A2Y7L7R5UTQ5R2","3FW4EL5A3LANKRP91N782LFHPY722Q","","","img/flower6.png","76","1165","3","1","3","",""
"null","","html-keyboard-response","37","523978","0.0-37.0","352YTHGROWZ3OF58FOY57NE5271H48","A2Y7L7R5UTQ5R2","3FW4EL5A3LANKRP91N782LFHPY722Q","","","<img src=""img/flower6.png"" style=""width:200px; border:14px solid green;"">","null","","","","","",""
"2065","","image-keyboard-response","38","526043","0.0-38.0","352YTHGROWZ3OF58FOY57NE5271H48","A2Y7L7R5UTQ5R2","3FW4EL5A3LANKRP91N782LFHPY722Q","","","img/flower4.png","75","2066","2","0","1","",""
"null","","html-keyboard-response","39","526358","0.0-39.0","352YTHGROWZ3OF58FOY57NE5271H48","A2Y7L7R5UTQ5R2","3FW4EL5A3LANKRP91N782LFHPY722Q","","","<img src=""img/flower4.png"" style=""width:200px;border:14px solid red;"">","null","","","","","",""
"942","","image-keyboard-response","40","527316","0.0-40.0","352YTHGROWZ3OF58FOY57NE5271H48","A2Y7L7R5UTQ5R2","3FW4EL5A3LANKRP91N782LFHPY722Q","","","img/flower6.png","76","958","3","1","3","",""
"null","","html-keyboard-response","41","527619","0.0-41.0","352YTHGROWZ3OF58FOY57NE5271H48","A2Y7L7R5UTQ5R2","3FW4EL5A3LANKRP91N782LFHPY722Q","","","<img src=""img/flower6.png"" style=""width:200px; border:14px solid green;"">","null","","","","","",""
"1191","","image-keyboard-response","42","528820","0.0-42.0","352YTHGROWZ3OF58FOY57NE5271H48","A2Y7L7R5UTQ5R2","3FW4EL5A3LANKRP91N782LFHPY722Q","","","img/flower4.png","75","1201","2","0","1","",""
"null","","html-keyboard-response","43","529130","0.0-43.0","352YTHGROWZ3OF58FOY57NE5271H48","A2Y7L7R5UTQ5R2","3FW4EL5A3LANKRP91N782LFHPY722Q","","","<img src=""img/flower4.png"" style=""width:200px;border:14px solid red;"">","null","","","","","",""
"1131","","image-keyboard-response","44","530267","0.0-44.0","352YTHGROWZ3OF58FOY57NE5271H48","A2Y7L7R5UTQ5R2","3FW4EL5A3LANKRP91N782LFHPY722Q","","","img/flower6.png","76","1137","3","1","3","",""
"null","","html-keyboard-response","45","530580","0.0-45.0","352YTHGROWZ3OF58FOY57NE5271H48","A2Y7L7R5UTQ5R2","3FW4EL5A3LANKRP91N782LFHPY722Q","","","<img src=""img/flower6.png"" style=""width:200px; border:14px solid green;"">","null","","","","","",""
"948","","image-keyboard-response","46","531539","0.0-46.0","352YTHGROWZ3OF58FOY57NE5271H48","A2Y7L7R5UTQ5R2","3FW4EL5A3LANKRP91N782LFHPY722Q","","","img/flower6.png","76","959","3","1","3","",""
"null","","html-keyboard-response","47","531854","0.0-47.0","352YTHGROWZ3OF58FOY57NE5271H48","A2Y7L7R5UTQ5R2","3FW4EL5A3LANKRP91N782LFHPY722Q","","","<img src=""img/flower6.png"" style=""width:200px; border:14px solid green;"">","null","","","","","",""
"4448","","image-keyboard-response","48","536306","0.0-48.0","352YTHGROWZ3OF58FOY57NE5271H48","A2Y7L7R5UTQ5R2","3FW4EL5A3LANKRP91N782LFHPY722Q","","","img/flower6.png","76","4452","3","1","3","",""
"null","","html-keyboard-response","49","536621","0.0-49.0","352YTHGROWZ3OF58FOY57NE5271H48","A2Y7L7R5UTQ5R2","3FW4EL5A3LANKRP91N782LFHPY722Q","","","<img src=""img/flower6.png"" style=""width:200px; border:14px solid green;"">","null","","","","","",""
"1142","","image-keyboard-response","50","537777","0.0-50.0","352YTHGROWZ3OF58FOY57NE5271H48","A2Y7L7R5UTQ5R2","3FW4EL5A3LANKRP91N782LFHPY722Q","","","img/flower6.png","76","1156","3","1","3","",""
"null","","html-keyboard-response","51","538089","0.0-51.0","352YTHGROWZ3OF58FOY57NE5271H48","A2Y7L7R5UTQ5R2","3FW4EL5A3LANKRP91N782LFHPY722Q","","","<img src=""img/flower6.png"" style=""width:200px; border:14px solid green;"">","null","","","","","",""
"3072","","image-keyboard-response","52","541174","0.0-52.0","352YTHGROWZ3OF58FOY57NE5271H48","A2Y7L7R5UTQ5R2","3FW4EL5A3LANKRP91N782LFHPY722Q","","","img/flower5.png","75","3085","2","1","2","",""
"null","","html-keyboard-response","53","541480","0.0-53.0","352YTHGROWZ3OF58FOY57NE5271H48","A2Y7L7R5UTQ5R2","3FW4EL5A3LANKRP91N782LFHPY722Q","","","<img src=""img/flower5.png"" style=""width:200px; border:14px solid green;"">","null","","","","","",""
"1321","","image-keyboard-response","54","542812","0.0-54.0","352YTHGROWZ3OF58FOY57NE5271H48","A2Y7L7R5UTQ5R2","3FW4EL5A3LANKRP91N782LFHPY722Q","","","img/flower4.png","74","1332","1","1","1","",""
"null","","html-keyboard-response","55","543116","0.0-55.0","352YTHGROWZ3OF58FOY57NE5271H48","A2Y7L7R5UTQ5R2","3FW4EL5A3LANKRP91N782LFHPY722Q","","","<img src=""img/flower4.png"" style=""width:200px; border:14px solid green;"">","null","","","","","",""
"1191","","image-keyboard-response","56","544308","0.0-56.0","352YTHGROWZ3OF58FOY57NE5271H48","A2Y7L7R5UTQ5R2","3FW4EL5A3LANKRP91N782LFHPY722Q","","","img/flower5.png","75","1192","2","1","2","",""
"null","","html-keyboard-response","57","544614","0.0-57.0","352YTHGROWZ3OF58FOY57NE5271H48","A2Y7L7R5UTQ5R2","3FW4EL5A3LANKRP91N782LFHPY722Q","","","<img src=""img/flower5.png"" style=""width:200px; border:14px solid green;"">","null","","","","","",""
"2000","","image-keyboard-response","58","546627","0.0-58.0","352YTHGROWZ3OF58FOY57NE5271H48","A2Y7L7R5UTQ5R2","3FW4EL5A3LANKRP91N782LFHPY722Q","","","img/flower5.png","74","2004","1","0","2","",""
"null","","html-keyboard-response","59","546942","0.0-59.0","352YTHGROWZ3OF58FOY57NE5271H48","A2Y7L7R5UTQ5R2","3FW4EL5A3LANKRP91N782LFHPY722Q","","","<img src=""img/flower5.png"" style=""width:200px;border:14px solid red;"">","null","","","","","",""
"1564","","image-keyboard-response","60","548520","0.0-60.0","352YTHGROWZ3OF58FOY57NE5271H48","A2Y7L7R5UTQ5R2","3FW4EL5A3LANKRP91N782LFHPY722Q","","","img/flower5.png","75","1578","2","1","2","",""
"null","","html-keyboard-response","61","548826","0.0-61.0","352YTHGROWZ3OF58FOY57NE5271H48","A2Y7L7R5UTQ5R2","3FW4EL5A3LANKRP91N782LFHPY722Q","","","<img src=""img/flower5.png"" style=""width:200px; border:14px solid green;"">","null","","","","","",""
"1553","","image-keyboard-response","62","550381","0.0-62.0","352YTHGROWZ3OF58FOY57NE5271H48","A2Y7L7R5UTQ5R2","3FW4EL5A3LANKRP91N782LFHPY722Q","","","img/flower4.png","74","1555","1","1","1","",""
"null","","html-keyboard-response","63","550683","0.0-63.0","352YTHGROWZ3OF58FOY57NE5271H48","A2Y7L7R5UTQ5R2","3FW4EL5A3LANKRP91N782LFHPY722Q","","","<img src=""img/flower4.png"" style=""width:200px; border:14px solid green;"">","null","","","","","",""
"37378","","instructions","64","588060","0.0-64.0","352YTHGROWZ3OF58FOY57NE5271H48","A2Y7L7R5UTQ5R2","3FW4EL5A3LANKRP91N782LFHPY722Q","","[{""page_index"":0,""viewing_time"":9225},{""page_index"":1,""viewing_time"":28152}]","","","","","","","",""
"3351","","image-keyboard-response","65","591413","0.0-65.0","352YTHGROWZ3OF58FOY57NE5271H48","A2Y7L7R5UTQ5R2","3FW4EL5A3LANKRP91N782LFHPY722Q","","","img/flower5.png","75","3353","2","1","2","",""
"null","","html-keyboard-response","66","591722","0.0-66.0","352YTHGROWZ3OF58FOY57NE5271H48","A2Y7L7R5UTQ5R2","3FW4EL5A3LANKRP91N782LFHPY722Q","","","<img src=""img/flower5.png"" style=""width:200px; border:14px solid green;"">","null","","","","","",""
"2360","","image-keyboard-response","67","594087","0.0-67.0","352YTHGROWZ3OF58FOY57NE5271H48","A2Y7L7R5UTQ5R2","3FW4EL5A3LANKRP91N782LFHPY722Q","","","img/flower6.png","76","2365","3","1","3","",""
"null","","html-keyboard-response","68","594403","0.0-68.0","352YTHGROWZ3OF58FOY57NE5271H48","A2Y7L7R5UTQ5R2","3FW4EL5A3LANKRP91N782LFHPY722Q","","","<img src=""img/flower6.png"" style=""width:200px; border:14px solid green;"">","null","","","","","",""
"3084","","image-keyboard-response","69","597503","0.0-69.0","352YTHGROWZ3OF58FOY57NE5271H48","A2Y7L7R5UTQ5R2","3FW4EL5A3LANKRP91N782LFHPY722Q","","","img/flower5.png","75","3100","2","1","2","",""
"null","","html-keyboard-response","70","597807","0.0-70.0","352YTHGROWZ3OF58FOY57NE5271H48","A2Y7L7R5UTQ5R2","3FW4EL5A3LANKRP91N782LFHPY722Q","","","<img src=""img/flower5.png"" style=""width:200px; border:14px solid green;"">","null","","","","","",""
"1166","","image-keyboard-response","71","598983","0.0-71.0","352YTHGROWZ3OF58FOY57NE5271H48","A2Y7L7R5UTQ5R2","3FW4EL5A3LANKRP91N782LFHPY722Q","","","img/flower5.png","75","1176","2","0","2","",""
"null","","html-keyboard-response","72","599294","0.0-72.0","352YTHGROWZ3OF58FOY57NE5271H48","A2Y7L7R5UTQ5R2","3FW4EL5A3LANKRP91N782LFHPY722Q","","","<img src=""img/flower5.png"" style=""width:200px;border:14px solid red;"">","null","","","","","",""
"3757","","image-keyboard-response","73","603060","0.0-73.0","352YTHGROWZ3OF58FOY57NE5271H48","A2Y7L7R5UTQ5R2","3FW4EL5A3LANKRP91N782LFHPY722Q","","","img/flower4.png","74","3766","1","1","1","",""
"null","","html-keyboard-response","74","603365","0.0-74.0","352YTHGROWZ3OF58FOY57NE5271H48","A2Y7L7R5UTQ5R2","3FW4EL5A3LANKRP91N782LFHPY722Q","","","<img src=""img/flower4.png"" style=""width:200px; border:14px solid green;"">","null","","","","","",""
"1733","","image-keyboard-response","75","605105","0.0-75.0","352YTHGROWZ3OF58FOY57NE5271H48","A2Y7L7R5UTQ5R2","3FW4EL5A3LANKRP91N782LFHPY722Q","","","img/flower6.png","76","1740","3","1","3","",""
"null","","html-keyboard-response","76","605415","0.0-76.0","352YTHGROWZ3OF58FOY57NE5271H48","A2Y7L7R5UTQ5R2","3FW4EL5A3LANKRP91N782LFHPY722Q","","","<img src=""img/flower6.png"" style=""width:200px; border:14px solid green;"">","null","","","","","",""
"1949","","image-keyboard-response","77","607370","0.0-77.0","352YTHGROWZ3OF58FOY57NE5271H48","A2Y7L7R5UTQ5R2","3FW4EL5A3LANKRP91N782LFHPY722Q","","","img/flower5.png","75","1955","2","1","2","",""
"null","","html-keyboard-response","78","607682","0.0-78.0","352YTHGROWZ3OF58FOY57NE5271H48","A2Y7L7R5UTQ5R2","3FW4EL5A3LANKRP91N782LFHPY722Q","","","<img src=""img/flower5.png"" style=""width:200px; border:14px solid green;"">","null","","","","","",""
"1227","","image-keyboard-response","79","608918","0.0-79.0","352YTHGROWZ3OF58FOY57NE5271H48","A2Y7L7R5UTQ5R2","3FW4EL5A3LANKRP91N782LFHPY722Q","","","img/flower6.png","76","1236","3","1","3","",""
"null","","html-keyboard-response","80","609226","0.0-80.0","352YTHGROWZ3OF58FOY57NE5271H48","A2Y7L7R5UTQ5R2","3FW4EL5A3LANKRP91N782LFHPY722Q","","","<img src=""img/flower6.png"" style=""width:200px; border:14px solid green;"">","null","","","","","",""
"1434","","image-keyboard-response","81","610672","0.0-81.0","352YTHGROWZ3OF58FOY57NE5271H48","A2Y7L7R5UTQ5R2","3FW4EL5A3LANKRP91N782LFHPY722Q","","","img/flower6.png","76","1446","3","1","3","",""
"null","","html-keyboard-response","82","610979","0.0-82.0","352YTHGROWZ3OF58FOY57NE5271H48","A2Y7L7R5UTQ5R2","3FW4EL5A3LANKRP91N782LFHPY722Q","","","<img src=""img/flower6.png"" style=""width:200px; border:14px solid green;"">","null","","","","","",""
"1212","","image-keyboard-response","83","612205","0.0-83.0","352YTHGROWZ3OF58FOY57NE5271H48","A2Y7L7R5UTQ5R2","3FW4EL5A3LANKRP91N782LFHPY722Q","","","img/flower5.png","75","1226","2","0","2","",""
"null","","html-keyboard-response","84","612507","0.0-84.0","352YTHGROWZ3OF58FOY57NE5271H48","A2Y7L7R5UTQ5R2","3FW4EL5A3LANKRP91N782LFHPY722Q","","","<img src=""img/flower5.png"" style=""width:200px;border:14px solid red;"">","null","","","","","",""
"4920","","image-keyboard-response","85","617434","0.0-85.0","352YTHGROWZ3OF58FOY57NE5271H48","A2Y7L7R5UTQ5R2","3FW4EL5A3LANKRP91N782LFHPY722Q","","","img/flower4.png","74","4927","1","1","1","",""
"null","","html-keyboard-response","86","617740","0.0-86.0","352YTHGROWZ3OF58FOY57NE5271H48","A2Y7L7R5UTQ5R2","3FW4EL5A3LANKRP91N782LFHPY722Q","","","<img src=""img/flower4.png"" style=""width:200px; border:14px solid green;"">","null","","","","","",""
"6215","","image-keyboard-response","87","623958","0.0-87.0","352YTHGROWZ3OF58FOY57NE5271H48","A2Y7L7R5UTQ5R2","3FW4EL5A3LANKRP91N782LFHPY722Q","","","img/flower5.png","76","6218","3","1","2","",""
"null","","html-keyboard-response","88","624274","0.0-88.0","352YTHGROWZ3OF58FOY57NE5271H48","A2Y7L7R5UTQ5R2","3FW4EL5A3LANKRP91N782LFHPY722Q","","","<img src=""img/flower5.png"" style=""width:200px; border:14px solid green;"">","null","","","","","",""
"4527","","image-keyboard-response","89","628813","0.0-89.0","352YTHGROWZ3OF58FOY57NE5271H48","A2Y7L7R5UTQ5R2","3FW4EL5A3LANKRP91N782LFHPY722Q","","","img/flower4.png","75","4539","2","1","1","",""
"null","","html-keyboard-response","90","629120","0.0-90.0","352YTHGROWZ3OF58FOY57NE5271H48","A2Y7L7R5UTQ5R2","3FW4EL5A3LANKRP91N782LFHPY722Q","","","<img src=""img/flower4.png"" style=""width:200px; border:14px solid green;"">","null","","","","","",""
"1643","","image-keyboard-response","91","630764","0.0-91.0","352YTHGROWZ3OF58FOY57NE5271H48","A2Y7L7R5UTQ5R2","3FW4EL5A3LANKRP91N782LFHPY722Q","","","img/flower4.png","74","1644","1","1","1","",""
"null","","html-keyboard-response","92","631065","0.0-92.0","352YTHGROWZ3OF58FOY57NE5271H48","A2Y7L7R5UTQ5R2","3FW4EL5A3LANKRP91N782LFHPY722Q","","","<img src=""img/flower4.png"" style=""width:200px; border:14px solid green;"">","null","","","","","",""
"1718","","image-keyboard-response","93","632793","0.0-93.0","352YTHGROWZ3OF58FOY57NE5271H48","A2Y7L7R5UTQ5R2","3FW4EL5A3LANKRP91N782LFHPY722Q","","","img/flower4.png","74","1728","1","1","1","",""
"null","","html-keyboard-response","94","633103","0.0-94.0","352YTHGROWZ3OF58FOY57NE5271H48","A2Y7L7R5UTQ5R2","3FW4EL5A3LANKRP91N782LFHPY722Q","","","<img src=""img/flower4.png"" style=""width:200px; border:14px solid green;"">","null","","","","","",""
"1127","","image-keyboard-response","95","634234","0.0-95.0","352YTHGROWZ3OF58FOY57NE5271H48","A2Y7L7R5UTQ5R2","3FW4EL5A3LANKRP91N782LFHPY722Q","","","img/flower6.png","76","1131","3","1","3","",""
"null","","html-keyboard-response","96","634550","0.0-96.0","352YTHGROWZ3OF58FOY57NE5271H48","A2Y7L7R5UTQ5R2","3FW4EL5A3LANKRP91N782LFHPY722Q","","","<img src=""img/flower6.png"" style=""width:200px; border:14px solid green;"">","null","","","","","",""
"1087","","image-keyboard-response","97","635651","0.0-97.0","352YTHGROWZ3OF58FOY57NE5271H48","A2Y7L7R5UTQ5R2","3FW4EL5A3LANKRP91N782LFHPY722Q","","","img/flower6.png","76","1101","3","0","3","",""
"null","","html-keyboard-response","98","635955","0.0-98.0","352YTHGROWZ3OF58FOY57NE5271H48","A2Y7L7R5UTQ5R2","3FW4EL5A3LANKRP91N782LFHPY722Q","","","<img src=""img/flower6.png"" style=""width:200px;border:14px solid red;"">","null","","","","","",""
"5893","","image-keyboard-response","99","641853","0.0-99.0","352YTHGROWZ3OF58FOY57NE5271H48","A2Y7L7R5UTQ5R2","3FW4EL5A3LANKRP91N782LFHPY722Q","","","img/flower5.png","75","5898","2","1","2","",""
"null","","html-keyboard-response","100","642168","0.0-100.0","352YTHGROWZ3OF58FOY57NE5271H48","A2Y7L7R5UTQ5R2","3FW4EL5A3LANKRP91N782LFHPY722Q","","","<img src=""img/flower5.png"" style=""width:200px; border:14px solid green;"">","null","","","","","",""
"1273","","image-keyboard-response","101","643457","0.0-101.0","352YTHGROWZ3OF58FOY57NE5271H48","A2Y7L7R5UTQ5R2","3FW4EL5A3LANKRP91N782LFHPY722Q","","","img/flower5.png","74","1289","1","0","2","",""
"null","","html-keyboard-response","102","643761","0.0-102.0","352YTHGROWZ3OF58FOY57NE5271H48","A2Y7L7R5UTQ5R2","3FW4EL5A3LANKRP91N782LFHPY722Q","","","<img src=""img/flower5.png"" style=""width:200px;border:14px solid red;"">","null","","","","","",""
"1148","","image-keyboard-response","103","644921","0.0-103.0","352YTHGROWZ3OF58FOY57NE5271H48","A2Y7L7R5UTQ5R2","3FW4EL5A3LANKRP91N782LFHPY722Q","","","img/flower6.png","76","1160","3","1","3","",""
"null","","html-keyboard-response","104","645227","0.0-104.0","352YTHGROWZ3OF58FOY57NE5271H48","A2Y7L7R5UTQ5R2","3FW4EL5A3LANKRP91N782LFHPY722Q","","","<img src=""img/flower6.png"" style=""width:200px; border:14px solid green;"">","null","","","","","",""
"1683","","image-keyboard-response","105","646912","0.0-105.0","352YTHGROWZ3OF58FOY57NE5271H48","A2Y7L7R5UTQ5R2","3FW4EL5A3LANKRP91N782LFHPY722Q","","","img/flower4.png","74","1684","1","1","1","",""
"null","","html-keyboard-response","106","647215","0.0-106.0","352YTHGROWZ3OF58FOY57NE5271H48","A2Y7L7R5UTQ5R2","3FW4EL5A3LANKRP91N782LFHPY722Q","","","<img src=""img/flower4.png"" style=""width:200px; border:14px solid green;"">","null","","","","","",""
"1813","","image-keyboard-response","107","649038","0.0-107.0","352YTHGROWZ3OF58FOY57NE5271H48","A2Y7L7R5UTQ5R2","3FW4EL5A3LANKRP91N782LFHPY722Q","","","img/flower4.png","75","1823","2","0","1","",""
"null","","html-keyboard-response","108","649348","0.0-108.0","352YTHGROWZ3OF58FOY57NE5271H48","A2Y7L7R5UTQ5R2","3FW4EL5A3LANKRP91N782LFHPY722Q","","","<img src=""img/flower4.png"" style=""width:200px;border:14px solid red;"">","null","","","","","",""
"2335","","image-keyboard-response","109","651688","0.0-109.0","352YTHGROWZ3OF58FOY57NE5271H48","A2Y7L7R5UTQ5R2","3FW4EL5A3LANKRP91N782LFHPY722Q","","","img/flower4.png","74","2340","1","1","1","",""
"null","","html-keyboard-response","110","651989","0.0-110.0","352YTHGROWZ3OF58FOY57NE5271H48","A2Y7L7R5UTQ5R2","3FW4EL5A3LANKRP91N782LFHPY722Q","","","<img src=""img/flower4.png"" style=""width:200px; border:14px solid green;"">","null","","","","","",""
"2038","","image-keyboard-response","111","654040","0.0-111.0","352YTHGROWZ3OF58FOY57NE5271H48","A2Y7L7R5UTQ5R2","3FW4EL5A3LANKRP91N782LFHPY722Q","","","img/flower4.png","74","2051","1","1","1","",""
"null","","html-keyboard-response","112","654347","0.0-112.0","352YTHGROWZ3OF58FOY57NE5271H48","A2Y7L7R5UTQ5R2","3FW4EL5A3LANKRP91N782LFHPY722Q","","","<img src=""img/flower4.png"" style=""width:200px; border:14px solid green;"">","null","","","","","",""
"1173","","image-keyboard-response","113","655523","0.0-113.0","352YTHGROWZ3OF58FOY57NE5271H48","A2Y7L7R5UTQ5R2","3FW4EL5A3LANKRP91N782LFHPY722Q","","","img/flower6.png","76","1176","3","1","3","",""
"null","","html-keyboard-response","114","655825","0.0-114.0","352YTHGROWZ3OF58FOY57NE5271H48","A2Y7L7R5UTQ5R2","3FW4EL5A3LANKRP91N782LFHPY722Q","","","<img src=""img/flower6.png"" style=""width:200px; border:14px solid green;"">","null","","","","","",""
"904","","image-keyboard-response","115","656735","0.0-115.0","352YTHGROWZ3OF58FOY57NE5271H48","A2Y7L7R5UTQ5R2","3FW4EL5A3LANKRP91N782LFHPY722Q","","","img/flower6.png","76","910","3","0","3","",""
"null","","html-keyboard-response","116","657042","0.0-116.0","352YTHGROWZ3OF58FOY57NE5271H48","A2Y7L7R5UTQ5R2","3FW4EL5A3LANKRP91N782LFHPY722Q","","","<img src=""img/flower6.png"" style=""width:200px;border:14px solid red;"">","null","","","","","",""
"1978","","image-keyboard-response","117","659033","0.0-117.0","352YTHGROWZ3OF58FOY57NE5271H48","A2Y7L7R5UTQ5R2","3FW4EL5A3LANKRP91N782LFHPY722Q","","","img/flower6.png","74","1991","1","1","3","",""
"null","","html-keyboard-response","118","659349","0.0-118.0","352YTHGROWZ3OF58FOY57NE5271H48","A2Y7L7R5UTQ5R2","3FW4EL5A3LANKRP91N782LFHPY722Q","","","<img src=""img/flower6.png"" style=""width:200px; border:14px solid green;"">","null","","","","","",""
"1495","","image-keyboard-response","119","660855","0.0-119.0","352YTHGROWZ3OF58FOY57NE5271H48","A2Y7L7R5UTQ5R2","3FW4EL5A3LANKRP91N782LFHPY722Q","","","img/flower4.png","74","1506","1","0","1","",""
"null","","html-keyboard-response","120","661164","0.0-120.0","352YTHGROWZ3OF58FOY57NE5271H48","A2Y7L7R5UTQ5R2","3FW4EL5A3LANKRP91N782LFHPY722Q","","","<img src=""img/flower4.png"" style=""width:200px;border:14px solid red;"">","null","","","","","",""
"1180","","image-keyboard-response","121","662357","0.0-121.0","352YTHGROWZ3OF58FOY57NE5271H48","A2Y7L7R5UTQ5R2","3FW4EL5A3LANKRP91N782LFHPY722Q","","","img/flower5.png","75","1194","2","1","2","",""
"null","","html-keyboard-response","122","662666","0.0-122.0","352YTHGROWZ3OF58FOY57NE5271H48","A2Y7L7R5UTQ5R2","3FW4EL5A3LANKRP91N782LFHPY722Q","","","<img src=""img/flower5.png"" style=""width:200px; border:14px solid green;"">","null","","","","","",""
"989","","image-keyboard-response","123","663670","0.0-123.0","352YTHGROWZ3OF58FOY57NE5271H48","A2Y7L7R5UTQ5R2","3FW4EL5A3LANKRP91N782LFHPY722Q","","","img/flower5.png","76","1004","3","0","2","",""
"null","","html-keyboard-response","124","663988","0.0-124.0","352YTHGROWZ3OF58FOY57NE5271H48","A2Y7L7R5UTQ5R2","3FW4EL5A3LANKRP91N782LFHPY722Q","","","<img src=""img/flower5.png"" style=""width:200px;border:14px solid red;"">","null","","","","","",""
"4641","","instructions","125","668630","0.0-125.0","352YTHGROWZ3OF58FOY57NE5271H48","A2Y7L7R5UTQ5R2","3FW4EL5A3LANKRP91N782LFHPY722Q","","[{""page_index"":0,""viewing_time"":4639}]","","","","","","","",""
"2783","","image-keyboard-response","126","671414","0.0-126.0","352YTHGROWZ3OF58FOY57NE5271H48","A2Y7L7R5UTQ5R2","3FW4EL5A3LANKRP91N782LFHPY722Q","","","img/flower3.png","74","2784","1","1","3","0.8,0.8,0.2,0.2,0.8,0.8,0.8,0.2,0.8",""
"null","","html-keyboard-response","127","671729","0.0-127.0","352YTHGROWZ3OF58FOY57NE5271H48","A2Y7L7R5UTQ5R2","3FW4EL5A3LANKRP91N782LFHPY722Q","","","<img src=""img/flower3.png"" style=""width:200px; border:14px solid green;"">","null","","","","","",""
"893","","image-keyboard-response","128","672628","0.0-128.0","352YTHGROWZ3OF58FOY57NE5271H48","A2Y7L7R5UTQ5R2","3FW4EL5A3LANKRP91N782LFHPY722Q","","","img/flower5.png","75","899","2","0","1","0.8,0.8,0.2,0.2,0.8,0.8,0.8,0.2,0.8",""
"null","","html-keyboard-response","129","672936","0.0-129.0","352YTHGROWZ3OF58FOY57NE5271H48","A2Y7L7R5UTQ5R2","3FW4EL5A3LANKRP91N782LFHPY722Q","","","<img src=""img/flower5.png"" style=""width:200px;border:14px solid red;"">","null","","","","","",""
"868","","image-keyboard-response","130","673818","0.0-130.0","352YTHGROWZ3OF58FOY57NE5271H48","A2Y7L7R5UTQ5R2","3FW4EL5A3LANKRP91N782LFHPY722Q","","","img/flower3.png","74","882","1","0","3","0.8,0.8,0.2,0.2,0.8,0.8,0.8,0.2,0.8",""
"null","","html-keyboard-response","131","674129","0.0-131.0","352YTHGROWZ3OF58FOY57NE5271H48","A2Y7L7R5UTQ5R2","3FW4EL5A3LANKRP91N782LFHPY722Q","","","<img src=""img/flower3.png"" style=""width:200px;border:14px solid red;"">","null","","","","","",""
"838","","image-keyboard-response","132","674969","0.0-132.0","352YTHGROWZ3OF58FOY57NE5271H48","A2Y7L7R5UTQ5R2","3FW4EL5A3LANKRP91N782LFHPY722Q","","","img/flower3.png","76","840","3","1","3","0.8,0.8,0.2,0.2,0.8,0.8,0.8,0.2,0.8",""
"null","","html-keyboard-response","133","675275","0.0-133.0","352YTHGROWZ3OF58FOY57NE5271H48","A2Y7L7R5UTQ5R2","3FW4EL5A3LANKRP91N782LFHPY722Q","","","<img src=""img/flower3.png"" style=""width:200px; border:14px solid green;"">","null","","","","","",""
"870","","image-keyboard-response","134","676154","0.0-134.0","352YTHGROWZ3OF58FOY57NE5271H48","A2Y7L7R5UTQ5R2","3FW4EL5A3LANKRP91N782LFHPY722Q","","","img/flower3.png","75","879","2","0","3","0.8,0.8,0.2,0.2,0.8,0.8,0.8,0.2,0.8",""
"null","","html-keyboard-response","135","676463","0.0-135.0","352YTHGROWZ3OF58FOY57NE5271H48","A2Y7L7R5UTQ5R2","3FW4EL5A3LANKRP91N782LFHPY722Q","","","<img src=""img/flower3.png"" style=""width:200px;border:14px solid red;"">","null","","","","","",""
"695","","image-keyboard-response","136","677159","0.0-136.0","352YTHGROWZ3OF58FOY57NE5271H48","A2Y7L7R5UTQ5R2","3FW4EL5A3LANKRP91N782LFHPY722Q","","","img/flower3.png","74","696","1","1","3","0.8,0.8,0.2,0.2,0.8,0.8,0.8,0.2,0.8",""
"null","","html-keyboard-response","137","677475","0.0-137.0","352YTHGROWZ3OF58FOY57NE5271H48","A2Y7L7R5UTQ5R2","3FW4EL5A3LANKRP91N782LFHPY722Q","","","<img src=""img/flower3.png"" style=""width:200px; border:14px solid green;"">","null","","","","","",""
"789","","image-keyboard-response","138","678276","0.0-138.0","352YTHGROWZ3OF58FOY57NE5271H48","A2Y7L7R5UTQ5R2","3FW4EL5A3LANKRP91N782LFHPY722Q","","","img/flower3.png","75","801","2","0","3","0.8,0.8,0.2,0.2,0.8,0.8,0.8,0.2,0.8",""
"null","","html-keyboard-response","139","678583","0.0-139.0","352YTHGROWZ3OF58FOY57NE5271H48","A2Y7L7R5UTQ5R2","3FW4EL5A3LANKRP91N782LFHPY722Q","","","<img src=""img/flower3.png"" style=""width:200px;border:14px solid red;"">","null","","","","","",""
"692","","image-keyboard-response","140","679276","0.0-140.0","352YTHGROWZ3OF58FOY57NE5271H48","A2Y7L7R5UTQ5R2","3FW4EL5A3LANKRP91N782LFHPY722Q","","","img/flower2.png","76","693","3","1","2","0.8,0.8,0.2,0.2,0.8,0.8,0.8,0.2,0.8",""
"null","","html-keyboard-response","141","679589","0.0-141.0","352YTHGROWZ3OF58FOY57NE5271H48","A2Y7L7R5UTQ5R2","3FW4EL5A3LANKRP91N782LFHPY722Q","","","<img src=""img/flower2.png"" style=""width:200px; border:14px solid green;"">","null","","","","","",""
"845","","image-keyboard-response","142","680438","0.0-142.0","352YTHGROWZ3OF58FOY57NE5271H48","A2Y7L7R5UTQ5R2","3FW4EL5A3LANKRP91N782LFHPY722Q","","","img/flower2.png","75","849","2","1","2","0.8,0.8,0.2,0.2,0.8,0.8,0.8,0.2,0.8",""
"null","","html-keyboard-response","143","680753","0.0-143.0","352YTHGROWZ3OF58FOY57NE5271H48","A2Y7L7R5UTQ5R2","3FW4EL5A3LANKRP91N782LFHPY722Q","","","<img src=""img/flower2.png"" style=""width:200px; border:14px solid green;"">","null","","","","","",""
"1179","","image-keyboard-response","144","681944","0.0-144.0","352YTHGROWZ3OF58FOY57NE5271H48","A2Y7L7R5UTQ5R2","3FW4EL5A3LANKRP91N782LFHPY722Q","","","img/flower2.png","76","1191","3","0","2","0.8,0.8,0.2,0.2,0.8,0.8,0.8,0.2,0.8",""
"null","","html-keyboard-response","145","682255","0.0-145.0","352YTHGROWZ3OF58FOY57NE5271H48","A2Y7L7R5UTQ5R2","3FW4EL5A3LANKRP91N782LFHPY722Q","","","<img src=""img/flower2.png"" style=""width:200px;border:14px solid red;"">","null","","","","","",""
"665","","image-keyboard-response","146","682924","0.0-146.0","352YTHGROWZ3OF58FOY57NE5271H48","A2Y7L7R5UTQ5R2","3FW4EL5A3LANKRP91N782LFHPY722Q","","","img/flower2.png","74","669","1","1","2","0.8,0.8,0.2,0.2,0.8,0.8,0.8,0.2,0.8",""
"null","","html-keyboard-response","147","683239","0.0-147.0","352YTHGROWZ3OF58FOY57NE5271H48","A2Y7L7R5UTQ5R2","3FW4EL5A3LANKRP91N782LFHPY722Q","","","<img src=""img/flower2.png"" style=""width:200px; border:14px solid green;"">","null","","","","","",""
"616","","image-keyboard-response","148","683869","0.0-148.0","352YTHGROWZ3OF58FOY57NE5271H48","A2Y7L7R5UTQ5R2","3FW4EL5A3LANKRP91N782LFHPY722Q","","","img/flower3.png","75","630","2","0","3","0.8,0.8,0.2,0.2,0.8,0.8,0.8,0.2,0.8",""
"null","","html-keyboard-response","149","684182","0.0-149.0","352YTHGROWZ3OF58FOY57NE5271H48","A2Y7L7R5UTQ5R2","3FW4EL5A3LANKRP91N782LFHPY722Q","","","<img src=""img/flower3.png"" style=""width:200px;border:14px solid red;"">","null","","","","","",""
"681","","image-keyboard-response","150","684871","0.0-150.0","352YTHGROWZ3OF58FOY57NE5271H48","A2Y7L7R5UTQ5R2","3FW4EL5A3LANKRP91N782LFHPY722Q","","","img/flower3.png","76","689","3","0","3","0.8,0.8,0.2,0.2,0.8,0.8,0.8,0.2,0.8",""
"null","","html-keyboard-response","151","685184","0.0-151.0","352YTHGROWZ3OF58FOY57NE5271H48","A2Y7L7R5UTQ5R2","3FW4EL5A3LANKRP91N782LFHPY722Q","","","<img src=""img/flower3.png"" style=""width:200px;border:14px solid red;"">","null","","","","","",""
"593","","image-keyboard-response","152","685792","0.0-152.0","352YTHGROWZ3OF58FOY57NE5271H48","A2Y7L7R5UTQ5R2","3FW4EL5A3LANKRP91N782LFHPY722Q","","","img/flower2.png","74","608","1","0","2","0.8,0.8,0.2,0.2,0.8,0.8,0.8,0.2,0.8",""
"null","","html-keyboard-response","153","686104","0.0-153.0","352YTHGROWZ3OF58FOY57NE5271H48","A2Y7L7R5UTQ5R2","3FW4EL5A3LANKRP91N782LFHPY722Q","","","<img src=""img/flower2.png"" style=""width:200px;border:14px solid red;"">","null","","","","","",""
"643","","image-keyboard-response","154","686763","0.0-154.0","352YTHGROWZ3OF58FOY57NE5271H48","A2Y7L7R5UTQ5R2","3FW4EL5A3LANKRP91N782LFHPY722Q","","","img/flower5.png","75","659","2","1","1","0.8,0.8,0.2,0.2,0.8,0.8,0.8,0.2,0.8",""
"null","","html-keyboard-response","155","687072","0.0-155.0","352YTHGROWZ3OF58FOY57NE5271H48","A2Y7L7R5UTQ5R2","3FW4EL5A3LANKRP91N782LFHPY722Q","","","<img src=""img/flower5.png"" style=""width:200px; border:14px solid green;"">","null","","","","","",""
"603","","image-keyboard-response","156","687687","0.0-156.0","352YTHGROWZ3OF58FOY57NE5271H48","A2Y7L7R5UTQ5R2","3FW4EL5A3LANKRP91N782LFHPY722Q","","","img/flower5.png","76","615","3","0","1","0.8,0.8,0.2,0.2,0.8,0.8,0.8,0.2,0.8",""
"null","","html-keyboard-response","157","687990","0.0-157.0","352YTHGROWZ3OF58FOY57NE5271H48","A2Y7L7R5UTQ5R2","3FW4EL5A3LANKRP91N782LFHPY722Q","","","<img src=""img/flower5.png"" style=""width:200px;border:14px solid red;"">","null","","","","","",""
"583","","image-keyboard-response","158","688586","0.0-158.0","352YTHGROWZ3OF58FOY57NE5271H48","A2Y7L7R5UTQ5R2","3FW4EL5A3LANKRP91N782LFHPY722Q","","","img/flower5.png","74","596","1","1","1","0.8,0.8,0.2,0.2,0.8,0.8,0.8,0.2,0.8",""
"null","","html-keyboard-response","159","688900","0.0-159.0","352YTHGROWZ3OF58FOY57NE5271H48","A2Y7L7R5UTQ5R2","3FW4EL5A3LANKRP91N782LFHPY722Q","","","<img src=""img/flower5.png"" style=""width:200px; border:14px solid green;"">","null","","","","","",""
"596","","image-keyboard-response","160","689507","0.0-160.0","352YTHGROWZ3OF58FOY57NE5271H48","A2Y7L7R5UTQ5R2","3FW4EL5A3LANKRP91N782LFHPY722Q","","","img/flower5.png","75","607","2","1","1","0.8,0.8,0.2,0.2,0.8,0.8,0.8,0.2,0.8",""
"null","","html-keyboard-response","161","689823","0.0-161.0","352YTHGROWZ3OF58FOY57NE5271H48","A2Y7L7R5UTQ5R2","3FW4EL5A3LANKRP91N782LFHPY722Q","","","<img src=""img/flower5.png"" style=""width:200px; border:14px solid green;"">","null","","","","","",""
"328","","image-keyboard-response","162","690158","0.0-162.0","352YTHGROWZ3OF58FOY57NE5271H48","A2Y7L7R5UTQ5R2","3FW4EL5A3LANKRP91N782LFHPY722Q","","","img/flower5.png","76","335","3","0","1","0.8,0.8,0.2,0.2,0.8,0.8,0.8,0.2,0.8",""
"null","","html-keyboard-response","163","690463","0.0-163.0","352YTHGROWZ3OF58FOY57NE5271H48","A2Y7L7R5UTQ5R2","3FW4EL5A3LANKRP91N782LFHPY722Q","","","<img src=""img/flower5.png"" style=""width:200px;border:14px solid red;"">","null","","","","","",""
"447","","image-keyboard-response","164","690914","0.0-164.0","352YTHGROWZ3OF58FOY57NE5271H48","A2Y7L7R5UTQ5R2","3FW4EL5A3LANKRP91N782LFHPY722Q","","","img/flower2.png","74","451","1","0","2","0.8,0.8,0.2,0.2,0.8,0.8,0.8,0.2,0.8",""
"null","","html-keyboard-response","165","691228","0.0-165.0","352YTHGROWZ3OF58FOY57NE5271H48","A2Y7L7R5UTQ5R2","3FW4EL5A3LANKRP91N782LFHPY722Q","","","<img src=""img/flower2.png"" style=""width:200px;border:14px solid red;"">","null","","","","","",""
"369","","image-keyboard-response","166","691602","0.0-166.0","352YTHGROWZ3OF58FOY57NE5271H48","A2Y7L7R5UTQ5R2","3FW4EL5A3LANKRP91N782LFHPY722Q","","","img/flower2.png","75","374","2","1","2","0.8,0.8,0.2,0.2,0.8,0.8,0.8,0.2,0.8",""
"null","","html-keyboard-response","167","691909","0.0-167.0","352YTHGROWZ3OF58FOY57NE5271H48","A2Y7L7R5UTQ5R2","3FW4EL5A3LANKRP91N782LFHPY722Q","","","<img src=""img/flower2.png"" style=""width:200px; border:14px solid green;"">","null","","","","","",""
"346","","image-keyboard-response","168","692261","0.0-168.0","352YTHGROWZ3OF58FOY57NE5271H48","A2Y7L7R5UTQ5R2","3FW4EL5A3LANKRP91N782LFHPY722Q","","","img/flower2.png","76","352","3","0","2","0.8,0.8,0.2,0.2,0.8,0.8,0.8,0.2,0.8",""
"null","","html-keyboard-response","169","692574","0.0-169.0","352YTHGROWZ3OF58FOY57NE5271H48","A2Y7L7R5UTQ5R2","3FW4EL5A3LANKRP91N782LFHPY722Q","","","<img src=""img/flower2.png"" style=""width:200px;border:14px solid red;"">","null","","","","","",""
"564","","image-keyboard-response","170","693146","0.0-170.0","352YTHGROWZ3OF58FOY57NE5271H48","A2Y7L7R5UTQ5R2","3FW4EL5A3LANKRP91N782LFHPY722Q","","","img/flower5.png","75","572","2","1","1","0.8,0.8,0.2,0.2,0.8,0.8,0.8,0.2,0.8",""
"null","","html-keyboard-response","171","693450","0.0-171.0","352YTHGROWZ3OF58FOY57NE5271H48","A2Y7L7R5UTQ5R2","3FW4EL5A3LANKRP91N782LFHPY722Q","","","<img src=""img/flower5.png"" style=""width:200px; border:14px solid green;"">","null","","","","","",""
"312","","image-keyboard-response","172","693772","0.0-172.0","352YTHGROWZ3OF58FOY57NE5271H48","A2Y7L7R5UTQ5R2","3FW4EL5A3LANKRP91N782LFHPY722Q","","","img/flower3.png","74","322","1","1","3","0.8,0.8,0.2,0.2,0.8,0.8,0.8,0.2,0.8",""
"null","","html-keyboard-response","173","694110","0.0-173.0","352YTHGROWZ3OF58FOY57NE5271H48","A2Y7L7R5UTQ5R2","3FW4EL5A3LANKRP91N782LFHPY722Q","","","<img src=""img/flower3.png"" style=""width:200px; border:14px solid green;"">","null","","","","","",""
"335","","image-keyboard-response","174","694447","0.0-174.0","352YTHGROWZ3OF58FOY57NE5271H48","A2Y7L7R5UTQ5R2","3FW4EL5A3LANKRP91N782LFHPY722Q","","","img/flower5.png","75","337","2","1","1","0.8,0.8,0.2,0.2,0.8,0.8,0.8,0.2,0.8",""
"null","","html-keyboard-response","175","694759","0.0-175.0","352YTHGROWZ3OF58FOY57NE5271H48","A2Y7L7R5UTQ5R2","3FW4EL5A3LANKRP91N782LFHPY722Q","","","<img src=""img/flower5.png"" style=""width:200px; border:14px solid green;"">","null","","","","","",""
"954","","image-keyboard-response","176","695730","0.0-176.0","352YTHGROWZ3OF58FOY57NE5271H48","A2Y7L7R5UTQ5R2","3FW4EL5A3LANKRP91N782LFHPY722Q","","","img/flower3.png","75","971","2","0","3","0.8,0.8,0.2,0.2,0.8,0.8,0.8,0.2,0.8",""
"null","","html-keyboard-response","177","696035","0.0-177.0","352YTHGROWZ3OF58FOY57NE5271H48","A2Y7L7R5UTQ5R2","3FW4EL5A3LANKRP91N782LFHPY722Q","","","<img src=""img/flower3.png"" style=""width:200px;border:14px solid red;"">","null","","","","","",""
"407","","image-keyboard-response","178","696442","0.0-178.0","352YTHGROWZ3OF58FOY57NE5271H48","A2Y7L7R5UTQ5R2","3FW4EL5A3LANKRP91N782LFHPY722Q","","","img/flower3.png","74","407","1","1","3","0.8,0.8,0.2,0.2,0.8,0.8,0.8,0.2,0.8",""
"null","","html-keyboard-response","179","696758","0.0-179.0","352YTHGROWZ3OF58FOY57NE5271H48","A2Y7L7R5UTQ5R2","3FW4EL5A3LANKRP91N782LFHPY722Q","","","<img src=""img/flower3.png"" style=""width:200px; border:14px solid green;"">","null","","","","","",""
"281","","image-keyboard-response","180","697055","0.0-180.0","352YTHGROWZ3OF58FOY57NE5271H48","A2Y7L7R5UTQ5R2","3FW4EL5A3LANKRP91N782LFHPY722Q","","","img/flower5.png","75","297","2","1","1","0.8,0.8,0.2,0.2,0.8,0.8,0.8,0.2,0.8",""
"null","","html-keyboard-response","181","697364","0.0-181.0","352YTHGROWZ3OF58FOY57NE5271H48","A2Y7L7R5UTQ5R2","3FW4EL5A3LANKRP91N782LFHPY722Q","","","<img src=""img/flower5.png"" style=""width:200px; border:14px solid green;"">","null","","","","","",""
"378","","image-keyboard-response","182","697749","0.0-182.0","352YTHGROWZ3OF58FOY57NE5271H48","A2Y7L7R5UTQ5R2","3FW4EL5A3LANKRP91N782LFHPY722Q","","","img/flower2.png","76","385","3","1","2","0.8,0.8,0.2,0.2,0.8,0.8,0.8,0.2,0.8",""
"null","","html-keyboard-response","183","698057","0.0-183.0","352YTHGROWZ3OF58FOY57NE5271H48","A2Y7L7R5UTQ5R2","3FW4EL5A3LANKRP91N782LFHPY722Q","","","<img src=""img/flower2.png"" style=""width:200px; border:14px solid green;"">","null","","","","","",""
"422","","image-keyboard-response","184","698488","0.0-184.0","352YTHGROWZ3OF58FOY57NE5271H48","A2Y7L7R5UTQ5R2","3FW4EL5A3LANKRP91N782LFHPY722Q","","","img/flower2.png","75","431","2","1","2","0.8,0.8,0.2,0.2,0.8,0.8,0.8,0.2,0.8",""
"null","","html-keyboard-response","185","698800","0.0-185.0","352YTHGROWZ3OF58FOY57NE5271H48","A2Y7L7R5UTQ5R2","3FW4EL5A3LANKRP91N782LFHPY722Q","","","<img src=""img/flower2.png"" style=""width:200px; border:14px solid green;"">","null","","","","","",""
"270","","image-keyboard-response","186","699073","0.0-186.0","352YTHGROWZ3OF58FOY57NE5271H48","A2Y7L7R5UTQ5R2","3FW4EL5A3LANKRP91N782LFHPY722Q","","","img/flower3.png","74","273","1","1","3","0.8,0.8,0.2,0.2,0.8,0.8,0.8,0.2,0.8",""
"null","","html-keyboard-response","187","699386","0.0-187.0","352YTHGROWZ3OF58FOY57NE5271H48","A2Y7L7R5UTQ5R2","3FW4EL5A3LANKRP91N782LFHPY722Q","","","<img src=""img/flower3.png"" style=""width:200px; border:14px solid green;"">","null","","","","","",""
"368","","image-keyboard-response","188","699755","0.0-188.0","352YTHGROWZ3OF58FOY57NE5271H48","A2Y7L7R5UTQ5R2","3FW4EL5A3LANKRP91N782LFHPY722Q","","","img/flower5.png","75","369","2","1","1","0.8,0.8,0.2,0.2,0.8,0.8,0.8,0.2,0.8",""
"null","","html-keyboard-response","189","700067","0.0-189.0","352YTHGROWZ3OF58FOY57NE5271H48","A2Y7L7R5UTQ5R2","3FW4EL5A3LANKRP91N782LFHPY722Q","","","<img src=""img/flower5.png"" style=""width:200px; border:14px solid green;"">","null","","","","","",""
"331","","image-keyboard-response","190","700407","0.0-190.0","352YTHGROWZ3OF58FOY57NE5271H48","A2Y7L7R5UTQ5R2","3FW4EL5A3LANKRP91N782LFHPY722Q","","","img/flower3.png","76","340","3","1","3","0.8,0.8,0.2,0.2,0.8,0.8,0.8,0.2,0.8",""
"null","","html-keyboard-response","191","700713","0.0-191.0","352YTHGROWZ3OF58FOY57NE5271H48","A2Y7L7R5UTQ5R2","3FW4EL5A3LANKRP91N782LFHPY722Q","","","<img src=""img/flower3.png"" style=""width:200px; border:14px solid green;"">","null","","","","","",""
"353","","image-keyboard-response","192","701070","0.0-192.0","352YTHGROWZ3OF58FOY57NE5271H48","A2Y7L7R5UTQ5R2","3FW4EL5A3LANKRP91N782LFHPY722Q","","","img/flower3.png","75","357","2","0","3","0.8,0.8,0.2,0.2,0.8,0.8,0.8,0.2,0.8",""
"null","","html-keyboard-response","193","701383","0.0-193.0","352YTHGROWZ3OF58FOY57NE5271H48","A2Y7L7R5UTQ5R2","3FW4EL5A3LANKRP91N782LFHPY722Q","","","<img src=""img/flower3.png"" style=""width:200px;border:14px solid red;"">","null","","","","","",""
"267","","image-keyboard-response","194","701658","0.0-194.0","352YTHGROWZ3OF58FOY57NE5271H48","A2Y7L7R5UTQ5R2","3FW4EL5A3LANKRP91N782LFHPY722Q","","","img/flower5.png","74","275","1","1","1","0.8,0.8,0.2,0.2,0.8,0.8,0.8,0.2,0.8",""
"null","","html-keyboard-response","195","701972","0.0-195.0","352YTHGROWZ3OF58FOY57NE5271H48","A2Y7L7R5UTQ5R2","3FW4EL5A3LANKRP91N782LFHPY722Q","","","<img src=""img/flower5.png"" style=""width:200px; border:14px solid green;"">","null","","","","","",""
"493","","image-keyboard-response","196","702467","0.0-196.0","352YTHGROWZ3OF58FOY57NE5271H48","A2Y7L7R5UTQ5R2","3FW4EL5A3LANKRP91N782LFHPY722Q","","","img/flower5.png","74","495","1","0","1","0.8,0.8,0.2,0.2,0.8,0.8,0.8,0.2,0.8",""
"null","","html-keyboard-response","197","702778","0.0-197.0","352YTHGROWZ3OF58FOY57NE5271H48","A2Y7L7R5UTQ5R2","3FW4EL5A3LANKRP91N782LFHPY722Q","","","<img src=""img/flower5.png"" style=""width:200px;border:14px solid red;"">","null","","","","","",""
"481","","image-keyboard-response","198","703259","0.0-198.0","352YTHGROWZ3OF58FOY57NE5271H48","A2Y7L7R5UTQ5R2","3FW4EL5A3LANKRP91N782LFHPY722Q","","","img/flower3.png","75","481","2","0","3","0.8,0.8,0.2,0.2,0.8,0.8,0.8,0.2,0.8",""
"null","","html-keyboard-response","199","703571","0.0-199.0","352YTHGROWZ3OF58FOY57NE5271H48","A2Y7L7R5UTQ5R2","3FW4EL5A3LANKRP91N782LFHPY722Q","","","<img src=""img/flower3.png"" style=""width:200px;border:14px solid red;"">","null","","","","","",""
"345","","image-keyboard-response","200","703931","0.0-200.0","352YTHGROWZ3OF58FOY57NE5271H48","A2Y7L7R5UTQ5R2","3FW4EL5A3LANKRP91N782LFHPY722Q","","","img/flower5.png","75","360","2","1","1","0.8,0.8,0.2,0.2,0.8,0.8,0.8,0.2,0.8",""
"null","","html-keyboard-response","201","704237","0.0-201.0","352YTHGROWZ3OF58FOY57NE5271H48","A2Y7L7R5UTQ5R2","3FW4EL5A3LANKRP91N782LFHPY722Q","","","<img src=""img/flower5.png"" style=""width:200px; border:14px solid green;"">","null","","","","","",""
"383","","image-keyboard-response","202","704624","0.0-202.0","352YTHGROWZ3OF58FOY57NE5271H48","A2Y7L7R5UTQ5R2","3FW4EL5A3LANKRP91N782LFHPY722Q","","","img/flower2.png","76","387","3","1","2","0.8,0.8,0.2,0.2,0.8,0.8,0.8,0.2,0.8",""
"null","","html-keyboard-response","203","704940","0.0-203.0","352YTHGROWZ3OF58FOY57NE5271H48","A2Y7L7R5UTQ5R2","3FW4EL5A3LANKRP91N782LFHPY722Q","","","<img src=""img/flower2.png"" style=""width:200px; border:14px solid green;"">","null","","","","","",""
"412","","image-keyboard-response","204","705355","0.0-204.0","352YTHGROWZ3OF58FOY57NE5271H48","A2Y7L7R5UTQ5R2","3FW4EL5A3LANKRP91N782LFHPY722Q","","","img/flower5.png","76","415","3","1","1","0.8,0.8,0.2,0.2,0.8,0.8,0.8,0.2,0.8",""
"null","","html-keyboard-response","205","705670","0.0-205.0","352YTHGROWZ3OF58FOY57NE5271H48","A2Y7L7R5UTQ5R2","3FW4EL5A3LANKRP91N782LFHPY722Q","","","<img src=""img/flower5.png"" style=""width:200px; border:14px solid green;"">","null","","","","","",""
"428","","image-keyboard-response","206","706104","0.0-206.0","352YTHGROWZ3OF58FOY57NE5271H48","A2Y7L7R5UTQ5R2","3FW4EL5A3LANKRP91N782LFHPY722Q","","","img/flower2.png","76","434","3","1","2","0.8,0.8,0.2,0.2,0.8,0.8,0.8,0.2,0.8",""
"null","","html-keyboard-response","207","706409","0.0-207.0","352YTHGROWZ3OF58FOY57NE5271H48","A2Y7L7R5UTQ5R2","3FW4EL5A3LANKRP91N782LFHPY722Q","","","<img src=""img/flower2.png"" style=""width:200px; border:14px solid green;"">","null","","","","","",""
"425","","image-keyboard-response","208","706848","0.0-208.0","352YTHGROWZ3OF58FOY57NE5271H48","A2Y7L7R5UTQ5R2","3FW4EL5A3LANKRP91N782LFHPY722Q","","","img/flower5.png","75","439","2","1","1","0.8,0.8,0.2,0.2,0.8,0.8,0.8,0.2,0.8",""
"null","","html-keyboard-response","209","707150","0.0-209.0","352YTHGROWZ3OF58FOY57NE5271H48","A2Y7L7R5UTQ5R2","3FW4EL5A3LANKRP91N782LFHPY722Q","","","<img src=""img/flower5.png"" style=""width:200px; border:14px solid green;"">","null","","","","","",""
"573","","image-keyboard-response","210","707726","0.0-210.0","352YTHGROWZ3OF58FOY57NE5271H48","A2Y7L7R5UTQ5R2","3FW4EL5A3LANKRP91N782LFHPY722Q","","","img/flower3.png","75","576","2","0","3","0.8,0.8,0.2,0.2,0.8,0.8,0.8,0.2,0.8",""
"null","","html-keyboard-response","211","708041","0.0-211.0","352YTHGROWZ3OF58FOY57NE5271H48","A2Y7L7R5UTQ5R2","3FW4EL5A3LANKRP91N782LFHPY722Q","","","<img src=""img/flower3.png"" style=""width:200px;border:14px solid red;"">","null","","","","","",""
"579","","image-keyboard-response","212","708622","0.0-212.0","352YTHGROWZ3OF58FOY57NE5271H48","A2Y7L7R5UTQ5R2","3FW4EL5A3LANKRP91N782LFHPY722Q","","","img/flower3.png","74","581","1","1","3","0.8,0.8,0.2,0.2,0.8,0.8,0.8,0.2,0.8",""
"null","","html-keyboard-response","213","708934","0.0-213.0","352YTHGROWZ3OF58FOY57NE5271H48","A2Y7L7R5UTQ5R2","3FW4EL5A3LANKRP91N782LFHPY722Q","","","<img src=""img/flower3.png"" style=""width:200px; border:14px solid green;"">","null","","","","","",""
"584","","image-keyboard-response","214","709529","0.0-214.0","352YTHGROWZ3OF58FOY57NE5271H48","A2Y7L7R5UTQ5R2","3FW4EL5A3LANKRP91N782LFHPY722Q","","","img/flower2.png","74","595","1","0","2","0.8,0.8,0.2,0.2,0.8,0.8,0.8,0.2,0.8",""
"null","","html-keyboard-response","215","709836","0.0-215.0","352YTHGROWZ3OF58FOY57NE5271H48","A2Y7L7R5UTQ5R2","3FW4EL5A3LANKRP91N782LFHPY722Q","","","<img src=""img/flower2.png"" style=""width:200px;border:14px solid red;"">","null","","","","","",""
"519","","image-keyboard-response","216","710369","0.0-216.0","352YTHGROWZ3OF58FOY57NE5271H48","A2Y7L7R5UTQ5R2","3FW4EL5A3LANKRP91N782LFHPY722Q","","","img/flower2.png","74","533","1","0","2","0.8,0.8,0.2,0.2,0.8,0.8,0.8,0.2,0.8",""
"null","","html-keyboard-response","217","710674","0.0-217.0","352YTHGROWZ3OF58FOY57NE5271H48","A2Y7L7R5UTQ5R2","3FW4EL5A3LANKRP91N782LFHPY722Q","","","<img src=""img/flower2.png"" style=""width:200px;border:14px solid red;"">","null","","","","","",""
"364","","image-keyboard-response","218","711053","0.0-218.0","352YTHGROWZ3OF58FOY57NE5271H48","A2Y7L7R5UTQ5R2","3FW4EL5A3LANKRP91N782LFHPY722Q","","","img/flower5.png","75","379","2","0","1","0.8,0.8,0.2,0.2,0.8,0.8,0.8,0.2,0.8",""
"null","","html-keyboard-response","219","711368","0.0-219.0","352YTHGROWZ3OF58FOY57NE5271H48","A2Y7L7R5UTQ5R2","3FW4EL5A3LANKRP91N782LFHPY722Q","","","<img src=""img/flower5.png"" style=""width:200px;border:14px solid red;"">","null","","","","","",""
"549","","image-keyboard-response","220","711932","0.0-220.0","352YTHGROWZ3OF58FOY57NE5271H48","A2Y7L7R5UTQ5R2","3FW4EL5A3LANKRP91N782LFHPY722Q","","","img/flower5.png","75","564","2","1","1","0.8,0.8,0.2,0.2,0.8,0.8,0.8,0.2,0.8",""
"null","","html-keyboard-response","221","712252","0.0-221.0","352YTHGROWZ3OF58FOY57NE5271H48","A2Y7L7R5UTQ5R2","3FW4EL5A3LANKRP91N782LFHPY722Q","","","<img src=""img/flower5.png"" style=""width:200px; border:14px solid green;"">","null","","","","","",""
"1124","","image-keyboard-response","222","713392","0.0-222.0","352YTHGROWZ3OF58FOY57NE5271H48","A2Y7L7R5UTQ5R2","3FW4EL5A3LANKRP91N782LFHPY722Q","","","img/flower2.png","75","1140","2","1","2","0.8,0.8,0.2,0.2,0.8,0.8,0.8,0.2,0.8",""
"null","","html-keyboard-response","223","713697","0.0-223.0","352YTHGROWZ3OF58FOY57NE5271H48","A2Y7L7R5UTQ5R2","3FW4EL5A3LANKRP91N782LFHPY722Q","","","<img src=""img/flower2.png"" style=""width:200px; border:14px solid green;"">","null","","","","","",""
"751","","image-keyboard-response","224","714464","0.0-224.0","352YTHGROWZ3OF58FOY57NE5271H48","A2Y7L7R5UTQ5R2","3FW4EL5A3LANKRP91N782LFHPY722Q","","","img/flower5.png","76","766","3","0","1","0.8,0.8,0.2,0.2,0.8,0.8,0.8,0.2,0.8",""
"null","","html-keyboard-response","225","714775","0.0-225.0","352YTHGROWZ3OF58FOY57NE5271H48","A2Y7L7R5UTQ5R2","3FW4EL5A3LANKRP91N782LFHPY722Q","","","<img src=""img/flower5.png"" style=""width:200px;border:14px solid red;"">","null","","","","","",""
"597","","image-keyboard-response","226","715381","0.0-226.0","352YTHGROWZ3OF58FOY57NE5271H48","A2Y7L7R5UTQ5R2","3FW4EL5A3LANKRP91N782LFHPY722Q","","","img/flower3.png","76","606","3","0","3","0.8,0.8,0.2,0.2,0.8,0.8,0.8,0.2,0.8",""
"null","","html-keyboard-response","227","715698","0.0-227.0","352YTHGROWZ3OF58FOY57NE5271H48","A2Y7L7R5UTQ5R2","3FW4EL5A3LANKRP91N782LFHPY722Q","","","<img src=""img/flower3.png"" style=""width:200px;border:14px solid red;"">","null","","","","","",""
"565","","image-keyboard-response","228","716273","0.0-228.0","352YTHGROWZ3OF58FOY57NE5271H48","A2Y7L7R5UTQ5R2","3FW4EL5A3LANKRP91N782LFHPY722Q","","","img/flower2.png","75","575","2","1","2","0.8,0.8,0.2,0.2,0.8,0.8,0.8,0.2,0.8",""
"null","","html-keyboard-response","229","716583","0.0-229.0","352YTHGROWZ3OF58FOY57NE5271H48","A2Y7L7R5UTQ5R2","3FW4EL5A3LANKRP91N782LFHPY722Q","","","<img src=""img/flower2.png"" style=""width:200px; border:14px solid green;"">","null","","","","","",""
"520","","image-keyboard-response","230","717112","0.0-230.0","352YTHGROWZ3OF58FOY57NE5271H48","A2Y7L7R5UTQ5R2","3FW4EL5A3LANKRP91N782LFHPY722Q","","","img/flower5.png","74","529","1","1","1","0.8,0.8,0.2,0.2,0.8,0.8,0.8,0.2,0.8",""
"null","","html-keyboard-response","231","717423","0.0-231.0","352YTHGROWZ3OF58FOY57NE5271H48","A2Y7L7R5UTQ5R2","3FW4EL5A3LANKRP91N782LFHPY722Q","","","<img src=""img/flower5.png"" style=""width:200px; border:14px solid green;"">","null","","","","","",""
"398","","image-keyboard-response","232","717824","0.0-232.0","352YTHGROWZ3OF58FOY57NE5271H48","A2Y7L7R5UTQ5R2","3FW4EL5A3LANKRP91N782LFHPY722Q","","","img/flower3.png","74","401","1","0","3","0.8,0.8,0.2,0.2,0.8,0.8,0.8,0.2,0.8",""
"null","","html-keyboard-response","233","718126","0.0-233.0","352YTHGROWZ3OF58FOY57NE5271H48","A2Y7L7R5UTQ5R2","3FW4EL5A3LANKRP91N782LFHPY722Q","","","<img src=""img/flower3.png"" style=""width:200px;border:14px solid red;"">","null","","","","","",""
"396","","image-keyboard-response","234","718532","0.0-234.0","352YTHGROWZ3OF58FOY57NE5271H48","A2Y7L7R5UTQ5R2","3FW4EL5A3LANKRP91N782LFHPY722Q","","","img/flower5.png","74","405","1","1","1","0.8,0.8,0.2,0.2,0.8,0.8,0.8,0.2,0.8",""
"null","","html-keyboard-response","235","718846","0.0-235.0","352YTHGROWZ3OF58FOY57NE5271H48","A2Y7L7R5UTQ5R2","3FW4EL5A3LANKRP91N782LFHPY722Q","","","<img src=""img/flower5.png"" style=""width:200px; border:14px solid green;"">","null","","","","","",""
"209","","image-keyboard-response","236","719064","0.0-236.0","352YTHGROWZ3OF58FOY57NE5271H48","A2Y7L7R5UTQ5R2","3FW4EL5A3LANKRP91N782LFHPY722Q","","","img/flower3.png","74","218","1","1","3","0.8,0.8,0.2,0.2,0.8,0.8,0.8,0.2,0.8",""
"null","","html-keyboard-response","237","719373","0.0-237.0","352YTHGROWZ3OF58FOY57NE5271H48","A2Y7L7R5UTQ5R2","3FW4EL5A3LANKRP91N782LFHPY722Q","","","<img src=""img/flower3.png"" style=""width:200px; border:14px solid green;"">","null","","","","","",""
"412","","image-keyboard-response","238","719791","0.0-238.0","352YTHGROWZ3OF58FOY57NE5271H48","A2Y7L7R5UTQ5R2","3FW4EL5A3LANKRP91N782LFHPY722Q","","","img/flower3.png","75","417","2","0","3","0.8,0.8,0.2,0.2,0.8,0.8,0.8,0.2,0.8",""
"null","","html-keyboard-response","239","720098","0.0-239.0","352YTHGROWZ3OF58FOY57NE5271H48","A2Y7L7R5UTQ5R2","3FW4EL5A3LANKRP91N782LFHPY722Q","","","<img src=""img/flower3.png"" style=""width:200px;border:14px solid red;"">","null","","","","","",""
"587","","image-keyboard-response","240","720691","0.0-240.0","352YTHGROWZ3OF58FOY57NE5271H48","A2Y7L7R5UTQ5R2","3FW4EL5A3LANKRP91N782LFHPY722Q","","","img/flower5.png","76","593","3","0","1","0.8,0.8,0.2,0.2,0.8,0.8,0.8,0.2,0.8",""
"null","","html-keyboard-response","241","720991","0.0-241.0","352YTHGROWZ3OF58FOY57NE5271H48","A2Y7L7R5UTQ5R2","3FW4EL5A3LANKRP91N782LFHPY722Q","","","<img src=""img/flower5.png"" style=""width:200px;border:14px solid red;"">","null","","","","","",""
"645","","image-keyboard-response","242","721645","0.0-242.0","352YTHGROWZ3OF58FOY57NE5271H48","A2Y7L7R5UTQ5R2","3FW4EL5A3LANKRP91N782LFHPY722Q","","","img/flower5.png","75","655","2","1","1","0.8,0.8,0.2,0.2,0.8,0.8,0.8,0.2,0.8",""
"null","","html-keyboard-response","243","721957","0.0-243.0","352YTHGROWZ3OF58FOY57NE5271H48","A2Y7L7R5UTQ5R2","3FW4EL5A3LANKRP91N782LFHPY722Q","","","<img src=""img/flower5.png"" style=""width:200px; border:14px solid green;"">","null","","","","","",""
"616","","image-keyboard-response","244","722581","0.0-244.0","352YTHGROWZ3OF58FOY57NE5271H48","A2Y7L7R5UTQ5R2","3FW4EL5A3LANKRP91N782LFHPY722Q","","","img/flower5.png","75","625","2","1","1","0.8,0.8,0.2,0.2,0.8,0.8,0.8,0.2,0.8",""
"null","","html-keyboard-response","245","722886","0.0-245.0","352YTHGROWZ3OF58FOY57NE5271H48","A2Y7L7R5UTQ5R2","3FW4EL5A3LANKRP91N782LFHPY722Q","","","<img src=""img/flower5.png"" style=""width:200px; border:14px solid green;"">","null","","","","","",""
"610","","image-keyboard-response","246","723507","0.0-246.0","352YTHGROWZ3OF58FOY57NE5271H48","A2Y7L7R5UTQ5R2","3FW4EL5A3LANKRP91N782LFHPY722Q","","","img/flower5.png","74","621","1","0","1","0.8,0.8,0.2,0.2,0.8,0.8,0.8,0.2,0.8",""
"null","","html-keyboard-response","247","723816","0.0-247.0","352YTHGROWZ3OF58FOY57NE5271H48","A2Y7L7R5UTQ5R2","3FW4EL5A3LANKRP91N782LFHPY722Q","","","<img src=""img/flower5.png"" style=""width:200px;border:14px solid red;"">","null","","","","","",""
"2454","","image-keyboard-response","248","726273","0.0-248.0","352YTHGROWZ3OF58FOY57NE5271H48","A2Y7L7R5UTQ5R2","3FW4EL5A3LANKRP91N782LFHPY722Q","","","img/flower3.png","74","2456","1","1","3","0.8,0.8,0.2,0.2,0.8,0.8,0.8,0.2,0.8",""
"null","","html-keyboard-response","249","726589","0.0-249.0","352YTHGROWZ3OF58FOY57NE5271H48","A2Y7L7R5UTQ5R2","3FW4EL5A3LANKRP91N782LFHPY722Q","","","<img src=""img/flower3.png"" style=""width:200px; border:14px solid green;"">","null","","","","","",""
"1075","","image-keyboard-response","250","727679","0.0-250.0","352YTHGROWZ3OF58FOY57NE5271H48","A2Y7L7R5UTQ5R2","3FW4EL5A3LANKRP91N782LFHPY722Q","","","img/flower3.png","74","1090","1","1","3","0.8,0.8,0.2,0.2,0.8,0.8,0.8,0.2,0.8",""
"null","","html-keyboard-response","251","727994","0.0-251.0","352YTHGROWZ3OF58FOY57NE5271H48","A2Y7L7R5UTQ5R2","3FW4EL5A3LANKRP91N782LFHPY722Q","","","<img src=""img/flower3.png"" style=""width:200px; border:14px solid green;"">","null","","","","","",""
"546","","image-keyboard-response","252","728556","0.0-252.0","352YTHGROWZ3OF58FOY57NE5271H48","A2Y7L7R5UTQ5R2","3FW4EL5A3LANKRP91N782LFHPY722Q","","","img/flower2.png","74","563","1","0","2","0.8,0.8,0.2,0.2,0.8,0.8,0.8,0.2,0.8",""
"null","","html-keyboard-response","253","728868","0.0-253.0","352YTHGROWZ3OF58FOY57NE5271H48","A2Y7L7R5UTQ5R2","3FW4EL5A3LANKRP91N782LFHPY722Q","","","<img src=""img/flower2.png"" style=""width:200px;border:14px solid red;"">","null","","","","","",""
"1715","","image-keyboard-response","254","730587","0.0-254.0","352YTHGROWZ3OF58FOY57NE5271H48","A2Y7L7R5UTQ5R2","3FW4EL5A3LANKRP91N782LFHPY722Q","","","img/flower2.png","74","1719","1","0","2","0.8,0.8,0.2,0.2,0.8,0.8,0.8,0.2,0.8",""
"null","","html-keyboard-response","255","730901","0.0-255.0","352YTHGROWZ3OF58FOY57NE5271H48","A2Y7L7R5UTQ5R2","3FW4EL5A3LANKRP91N782LFHPY722Q","","","<img src=""img/flower2.png"" style=""width:200px;border:14px solid red;"">","null","","","","","",""
"3276","","image-keyboard-response","256","734187","0.0-256.0","352YTHGROWZ3OF58FOY57NE5271H48","A2Y7L7R5UTQ5R2","3FW4EL5A3LANKRP91N782LFHPY722Q","","","img/flower3.png","74","3286","1","1","3","0.8,0.8,0.2,0.2,0.8,0.8,0.8,0.2,0.8",""
"null","","html-keyboard-response","257","734494","0.0-257.0","352YTHGROWZ3OF58FOY57NE5271H48","A2Y7L7R5UTQ5R2","3FW4EL5A3LANKRP91N782LFHPY722Q","","","<img src=""img/flower3.png"" style=""width:200px; border:14px solid green;"">","null","","","","","",""
"2853","","image-keyboard-response","258","737358","0.0-258.0","352YTHGROWZ3OF58FOY57NE5271H48","A2Y7L7R5UTQ5R2","3FW4EL5A3LANKRP91N782LFHPY722Q","","","img/flower5.png","74","2865","1","1","1","0.8,0.8,0.2,0.2,0.8,0.8,0.8,0.2,0.8",""
"null","","html-keyboard-response","259","737665","0.0-259.0","352YTHGROWZ3OF58FOY57NE5271H48","A2Y7L7R5UTQ5R2","3FW4EL5A3LANKRP91N782LFHPY722Q","","","<img src=""img/flower5.png"" style=""width:200px; border:14px solid green;"">","null","","","","","",""
"2685","","image-keyboard-response","260","740358","0.0-260.0","352YTHGROWZ3OF58FOY57NE5271H48","A2Y7L7R5UTQ5R2","3FW4EL5A3LANKRP91N782LFHPY722Q","","","img/flower2.png","74","2693","1","0","2","0.8,0.8,0.2,0.2,0.8,0.8,0.8,0.2,0.8",""
"null","","html-keyboard-response","261","740666","0.0-261.0","352YTHGROWZ3OF58FOY57NE5271H48","A2Y7L7R5UTQ5R2","3FW4EL5A3LANKRP91N782LFHPY722Q","","","<img src=""img/flower2.png"" style=""width:200px;border:14px solid red;"">","null","","","","","",""
"1258","","image-keyboard-response","262","741929","0.0-262.0","352YTHGROWZ3OF58FOY57NE5271H48","A2Y7L7R5UTQ5R2","3FW4EL5A3LANKRP91N782LFHPY722Q","","","img/flower2.png","76","1263","3","1","2","0.8,0.8,0.2,0.2,0.8,0.8,0.8,0.2,0.8",""
"null","","html-keyboard-response","263","742244","0.0-263.0","352YTHGROWZ3OF58FOY57NE5271H48","A2Y7L7R5UTQ5R2","3FW4EL5A3LANKRP91N782LFHPY722Q","","","<img src=""img/flower2.png"" style=""width:200px; border:14px solid green;"">","null","","","","","",""
"3307","","image-keyboard-response","264","745563","0.0-264.0","352YTHGROWZ3OF58FOY57NE5271H48","A2Y7L7R5UTQ5R2","3FW4EL5A3LANKRP91N782LFHPY722Q","","","img/flower5.png","74","3319","1","1","1","0.8,0.8,0.2,0.2,0.8,0.8,0.8,0.2,0.8",""
"null","","html-keyboard-response","265","745869","0.0-265.0","352YTHGROWZ3OF58FOY57NE5271H48","A2Y7L7R5UTQ5R2","3FW4EL5A3LANKRP91N782LFHPY722Q","","","<img src=""img/flower5.png"" style=""width:200px; border:14px solid green;"">","null","","","","","",""
"941","","image-keyboard-response","266","746816","0.0-266.0","352YTHGROWZ3OF58FOY57NE5271H48","A2Y7L7R5UTQ5R2","3FW4EL5A3LANKRP91N782LFHPY722Q","","","img/flower2.png","74","947","1","0","2","0.8,0.8,0.2,0.2,0.8,0.8,0.8,0.2,0.8",""
"null","","html-keyboard-response","267","747120","0.0-267.0","352YTHGROWZ3OF58FOY57NE5271H48","A2Y7L7R5UTQ5R2","3FW4EL5A3LANKRP91N782LFHPY722Q","","","<img src=""img/flower2.png"" style=""width:200px;border:14px solid red;"">","null","","","","","",""
"1758","","image-keyboard-response","268","748881","0.0-268.0","352YTHGROWZ3OF58FOY57NE5271H48","A2Y7L7R5UTQ5R2","3FW4EL5A3LANKRP91N782LFHPY722Q","","","img/flower3.png","74","1761","1","1","3","0.8,0.8,0.2,0.2,0.8,0.8,0.8,0.2,0.8",""
"null","","html-keyboard-response","269","749183","0.0-269.0","352YTHGROWZ3OF58FOY57NE5271H48","A2Y7L7R5UTQ5R2","3FW4EL5A3LANKRP91N782LFHPY722Q","","","<img src=""img/flower3.png"" style=""width:200px; border:14px solid green;"">","null","","","","","",""
"520","","image-keyboard-response","270","749717","0.0-270.0","352YTHGROWZ3OF58FOY57NE5271H48","A2Y7L7R5UTQ5R2","3FW4EL5A3LANKRP91N782LFHPY722Q","","","img/flower5.png","76","534","3","0","1","0.8,0.8,0.2,0.2,0.8,0.8,0.8,0.2,0.8",""
"null","","html-keyboard-response","271","750021","0.0-271.0","352YTHGROWZ3OF58FOY57NE5271H48","A2Y7L7R5UTQ5R2","3FW4EL5A3LANKRP91N782LFHPY722Q","","","<img src=""img/flower5.png"" style=""width:200px;border:14px solid red;"">","null","","","","","",""
"553","","image-keyboard-response","272","750586","0.0-272.0","352YTHGROWZ3OF58FOY57NE5271H48","A2Y7L7R5UTQ5R2","3FW4EL5A3LANKRP91N782LFHPY722Q","","","img/flower5.png","75","565","2","1","1","0.8,0.8,0.2,0.2,0.8,0.8,0.8,0.2,0.8",""
"null","","html-keyboard-response","273","750894","0.0-273.0","352YTHGROWZ3OF58FOY57NE5271H48","A2Y7L7R5UTQ5R2","3FW4EL5A3LANKRP91N782LFHPY722Q","","","<img src=""img/flower5.png"" style=""width:200px; border:14px solid green;"">","null","","","","","",""
"1108","","image-keyboard-response","274","752013","0.0-274.0","352YTHGROWZ3OF58FOY57NE5271H48","A2Y7L7R5UTQ5R2","3FW4EL5A3LANKRP91N782LFHPY722Q","","","img/flower2.png","74","1118","1","0","2","0.8,0.8,0.2,0.2,0.8,0.8,0.8,0.2,0.8",""
"null","","html-keyboard-response","275","752326","0.0-275.0","352YTHGROWZ3OF58FOY57NE5271H48","A2Y7L7R5UTQ5R2","3FW4EL5A3LANKRP91N782LFHPY722Q","","","<img src=""img/flower2.png"" style=""width:200px;border:14px solid red;"">","null","","","","","",""
"387","","image-keyboard-response","276","752718","0.0-276.0","352YTHGROWZ3OF58FOY57NE5271H48","A2Y7L7R5UTQ5R2","3FW4EL5A3LANKRP91N782LFHPY722Q","","","img/flower2.png","75","392","2","1","2","0.8,0.8,0.2,0.2,0.8,0.8,0.8,0.2,0.8",""
"null","","html-keyboard-response","277","753032","0.0-277.0","352YTHGROWZ3OF58FOY57NE5271H48","A2Y7L7R5UTQ5R2","3FW4EL5A3LANKRP91N782LFHPY722Q","","","<img src=""img/flower2.png"" style=""width:200px; border:14px solid green;"">","null","","","","","",""
"322","","image-keyboard-response","278","753364","0.0-278.0","352YTHGROWZ3OF58FOY57NE5271H48","A2Y7L7R5UTQ5R2","3FW4EL5A3LANKRP91N782LFHPY722Q","","","img/flower2.png","75","333","2","1","2","0.8,0.8,0.2,0.2,0.8,0.8,0.8,0.2,0.8",""
"null","","html-keyboard-response","279","753682","0.0-279.0","352YTHGROWZ3OF58FOY57NE5271H48","A2Y7L7R5UTQ5R2","3FW4EL5A3LANKRP91N782LFHPY722Q","","","<img src=""img/flower2.png"" style=""width:200px; border:14px solid green;"">","null","","","","","",""
"3072","","image-keyboard-response","280","756765","0.0-280.0","352YTHGROWZ3OF58FOY57NE5271H48","A2Y7L7R5UTQ5R2","3FW4EL5A3LANKRP91N782LFHPY722Q","","","img/flower2.png","74","3083","1","0","2","0.8,0.8,0.2,0.2,0.8,0.8,0.8,0.2,0.8",""
"null","","html-keyboard-response","281","757065","0.0-281.0","352YTHGROWZ3OF58FOY57NE5271H48","A2Y7L7R5UTQ5R2","3FW4EL5A3LANKRP91N782LFHPY722Q","","","<img src=""img/flower2.png"" style=""width:200px;border:14px solid red;"">","null","","","","","",""
"453","","image-keyboard-response","282","757523","0.0-282.0","352YTHGROWZ3OF58FOY57NE5271H48","A2Y7L7R5UTQ5R2","3FW4EL5A3LANKRP91N782LFHPY722Q","","","img/flower2.png","76","459","3","0","2","0.8,0.8,0.2,0.2,0.8,0.8,0.8,0.2,0.8",""
"null","","html-keyboard-response","283","757840","0.0-283.0","352YTHGROWZ3OF58FOY57NE5271H48","A2Y7L7R5UTQ5R2","3FW4EL5A3LANKRP91N782LFHPY722Q","","","<img src=""img/flower2.png"" style=""width:200px;border:14px solid red;"">","null","","","","","",""
"704","","image-keyboard-response","284","758549","0.0-284.0","352YTHGROWZ3OF58FOY57NE5271H48","A2Y7L7R5UTQ5R2","3FW4EL5A3LANKRP91N782LFHPY722Q","","","img/flower3.png","75","709","2","0","3","0.8,0.8,0.2,0.2,0.8,0.8,0.8,0.2,0.8",""
"null","","html-keyboard-response","285","758867","0.0-285.0","352YTHGROWZ3OF58FOY57NE5271H48","A2Y7L7R5UTQ5R2","3FW4EL5A3LANKRP91N782LFHPY722Q","","","<img src=""img/flower3.png"" style=""width:200px;border:14px solid red;"">","null","","","","","",""
"175","","image-keyboard-response","286","759056","0.0-286.0","352YTHGROWZ3OF58FOY57NE5271H48","A2Y7L7R5UTQ5R2","3FW4EL5A3LANKRP91N782LFHPY722Q","","","img/flower3.png","74","189","1","1","3","0.8,0.8,0.2,0.2,0.8,0.8,0.8,0.2,0.8",""
"null","","html-keyboard-response","287","759368","0.0-287.0","352YTHGROWZ3OF58FOY57NE5271H48","A2Y7L7R5UTQ5R2","3FW4EL5A3LANKRP91N782LFHPY722Q","","","<img src=""img/flower3.png"" style=""width:200px; border:14px solid green;"">","null","","","","","",""
"134","","image-keyboard-response","288","759506","0.0-288.0","352YTHGROWZ3OF58FOY57NE5271H48","A2Y7L7R5UTQ5R2","3FW4EL5A3LANKRP91N782LFHPY722Q","","","img/flower3.png","74","137","1","1","3","0.8,0.8,0.2,0.2,0.8,0.8,0.8,0.2,0.8",""
"null","","html-keyboard-response","289","759808","0.0-289.0","352YTHGROWZ3OF58FOY57NE5271H48","A2Y7L7R5UTQ5R2","3FW4EL5A3LANKRP91N782LFHPY722Q","","","<img src=""img/flower3.png"" style=""width:200px; border:14px solid green;"">","null","","","","","",""
"323","","image-keyboard-response","290","760138","0.0-290.0","352YTHGROWZ3OF58FOY57NE5271H48","A2Y7L7R5UTQ5R2","3FW4EL5A3LANKRP91N782LFHPY722Q","","","img/flower5.png","74","331","1","0","1","0.8,0.8,0.2,0.2,0.8,0.8,0.8,0.2,0.8",""
"null","","html-keyboard-response","291","760447","0.0-291.0","352YTHGROWZ3OF58FOY57NE5271H48","A2Y7L7R5UTQ5R2","3FW4EL5A3LANKRP91N782LFHPY722Q","","","<img src=""img/flower5.png"" style=""width:200px;border:14px solid red;"">","null","","","","","",""
"68","","image-keyboard-response","292","760515","0.0-292.0","352YTHGROWZ3OF58FOY57NE5271H48","A2Y7L7R5UTQ5R2","3FW4EL5A3LANKRP91N782LFHPY722Q","","","img/flower2.png","74","68","1","0","2","0.8,0.8,0.2,0.2,0.8,0.8,0.8,0.2,0.8",""
"null","","html-keyboard-response","293","760822","0.0-293.0","352YTHGROWZ3OF58FOY57NE5271H48","A2Y7L7R5UTQ5R2","3FW4EL5A3LANKRP91N782LFHPY722Q","","","<img src=""img/flower2.png"" style=""width:200px;border:14px solid red;"">","null","","","","","",""
"197","","image-keyboard-response","294","761024","0.0-294.0","352YTHGROWZ3OF58FOY57NE5271H48","A2Y7L7R5UTQ5R2","3FW4EL5A3LANKRP91N782LFHPY722Q","","","img/flower5.png","75","202","2","1","1","0.8,0.8,0.2,0.2,0.8,0.8,0.8,0.2,0.8",""
"null","","html-keyboard-response","295","761338","0.0-295.0","352YTHGROWZ3OF58FOY57NE5271H48","A2Y7L7R5UTQ5R2","3FW4EL5A3LANKRP91N782LFHPY722Q","","","<img src=""img/flower5.png"" style=""width:200px; border:14px solid green;"">","null","","","","","",""
"167","","image-keyboard-response","296","761518","0.0-296.0","352YTHGROWZ3OF58FOY57NE5271H48","A2Y7L7R5UTQ5R2","3FW4EL5A3LANKRP91N782LFHPY722Q","","","img/flower3.png","74","179","1","1","3","0.8,0.8,0.2,0.2,0.8,0.8,0.8,0.2,0.8",""
"null","","html-keyboard-response","297","761822","0.0-297.0","352YTHGROWZ3OF58FOY57NE5271H48","A2Y7L7R5UTQ5R2","3FW4EL5A3LANKRP91N782LFHPY722Q","","","<img src=""img/flower3.png"" style=""width:200px; border:14px solid green;"">","null","","","","","",""
"63","","image-keyboard-response","298","761886","0.0-298.0","352YTHGROWZ3OF58FOY57NE5271H48","A2Y7L7R5UTQ5R2","3FW4EL5A3LANKRP91N782LFHPY722Q","","","img/flower2.png","74","64","1","0","2","0.8,0.8,0.2,0.2,0.8,0.8,0.8,0.2,0.8",""
"null","","html-keyboard-response","299","762188","0.0-299.0","352YTHGROWZ3OF58FOY57NE5271H48","A2Y7L7R5UTQ5R2","3FW4EL5A3LANKRP91N782LFHPY722Q","","","<img src=""img/flower2.png"" style=""width:200px;border:14px solid red;"">","null","","","","","",""
"393","","image-keyboard-response","300","762593","0.0-300.0","352YTHGROWZ3OF58FOY57NE5271H48","A2Y7L7R5UTQ5R2","3FW4EL5A3LANKRP91N782LFHPY722Q","","","img/flower3.png","74","404","1","0","3","0.8,0.8,0.2,0.2,0.8,0.8,0.8,0.2,0.8",""
"null","","html-keyboard-response","301","762901","0.0-301.0","352YTHGROWZ3OF58FOY57NE5271H48","A2Y7L7R5UTQ5R2","3FW4EL5A3LANKRP91N782LFHPY722Q","","","<img src=""img/flower3.png"" style=""width:200px;border:14px solid red;"">","null","","","","","",""
"133","","image-keyboard-response","302","763043","0.0-302.0","352YTHGROWZ3OF58FOY57NE5271H48","A2Y7L7R5UTQ5R2","3FW4EL5A3LANKRP91N782LFHPY722Q","","","img/flower2.png","76","142","3","1","2","0.8,0.8,0.2,0.2,0.8,0.8,0.8,0.2,0.8",""
"null","","html-keyboard-response","303","763348","0.0-303.0","352YTHGROWZ3OF58FOY57NE5271H48","A2Y7L7R5UTQ5R2","3FW4EL5A3LANKRP91N782LFHPY722Q","","","<img src=""img/flower2.png"" style=""width:200px; border:14px solid green;"">","null","","","","","",""
"176","","image-keyboard-response","304","763534","0.0-304.0","352YTHGROWZ3OF58FOY57NE5271H48","A2Y7L7R5UTQ5R2","3FW4EL5A3LANKRP91N782LFHPY722Q","","","img/flower2.png","76","187","3","1","2","0.8,0.8,0.2,0.2,0.8,0.8,0.8,0.2,0.8",""
"null","","html-keyboard-response","305","763844","0.0-305.0","352YTHGROWZ3OF58FOY57NE5271H48","A2Y7L7R5UTQ5R2","3FW4EL5A3LANKRP91N782LFHPY722Q","","","<img src=""img/flower2.png"" style=""width:200px; border:14px solid green;"">","null","","","","","",""
"","","html-keyboard-response","306","769129","0.0-306.0","352YTHGROWZ3OF58FOY57NE5271H48","A2Y7L7R5UTQ5R2","3FW4EL5A3LANKRP91N782LFHPY722Q","","","","","","","","","",""
"1961","","image-keyboard-response","307","771091","0.0-307.0","352YTHGROWZ3OF58FOY57NE5271H48","A2Y7L7R5UTQ5R2","3FW4EL5A3LANKRP91N782LFHPY722Q","","","img/flower8.png","74","1962","1","0","2","0.6,0.6,0,0,0.6,0.6,0.6,0,0.6",""
"null","","html-keyboard-response","308","771400","0.0-308.0","352YTHGROWZ3OF58FOY57NE5271H48","A2Y7L7R5UTQ5R2","3FW4EL5A3LANKRP91N782LFHPY722Q","","","<img src=""img/flower8.png"" style=""width:200px;border:14px solid red;"">","null","","","","","",""
"414","","image-keyboard-response","309","771818","0.0-309.0","352YTHGROWZ3OF58FOY57NE5271H48","A2Y7L7R5UTQ5R2","3FW4EL5A3LANKRP91N782LFHPY722Q","","","img/flower9.png","74","417","1","1","1","0.6,0.6,0,0,0.6,0.6,0.6,0,0.6",""
"null","","html-keyboard-response","310","772131","0.0-310.0","352YTHGROWZ3OF58FOY57NE5271H48","A2Y7L7R5UTQ5R2","3FW4EL5A3LANKRP91N782LFHPY722Q","","","<img src=""img/flower9.png"" style=""width:200px; border:14px solid green;"">","null","","","","","",""
"341","","image-keyboard-response","311","772486","0.0-311.0","352YTHGROWZ3OF58FOY57NE5271H48","A2Y7L7R5UTQ5R2","3FW4EL5A3LANKRP91N782LFHPY722Q","","","img/flower8.png","76","355","3","1","2","0.6,0.6,0,0,0.6,0.6,0.6,0,0.6",""
"null","","html-keyboard-response","312","772792","0.0-312.0","352YTHGROWZ3OF58FOY57NE5271H48","A2Y7L7R5UTQ5R2","3FW4EL5A3LANKRP91N782LFHPY722Q","","","<img src=""img/flower8.png"" style=""width:200px; border:14px solid green;"">","null","","","","","",""
"242","","image-keyboard-response","313","773042","0.0-313.0","352YTHGROWZ3OF58FOY57NE5271H48","A2Y7L7R5UTQ5R2","3FW4EL5A3LANKRP91N782LFHPY722Q","","","img/flower9.png","75","250","2","1","1","0.6,0.6,0,0,0.6,0.6,0.6,0,0.6",""
"null","","html-keyboard-response","314","773348","0.0-314.0","352YTHGROWZ3OF58FOY57NE5271H48","A2Y7L7R5UTQ5R2","3FW4EL5A3LANKRP91N782LFHPY722Q","","","<img src=""img/flower9.png"" style=""width:200px; border:14px solid green;"">","null","","","","","",""
"122","","image-keyboard-response","315","773488","0.0-315.0","352YTHGROWZ3OF58FOY57NE5271H48","A2Y7L7R5UTQ5R2","3FW4EL5A3LANKRP91N782LFHPY722Q","","","img/flower8.png","75","136","2","1","2","0.6,0.6,0,0,0.6,0.6,0.6,0,0.6",""
"null","","html-keyboard-response","316","773795","0.0-316.0","352YTHGROWZ3OF58FOY57NE5271H48","A2Y7L7R5UTQ5R2","3FW4EL5A3LANKRP91N782LFHPY722Q","","","<img src=""img/flower8.png"" style=""width:200px; border:14px solid green;"">","null","","","","","",""
"146","","image-keyboard-response","317","773953","0.0-317.0","352YTHGROWZ3OF58FOY57NE5271H48","A2Y7L7R5UTQ5R2","3FW4EL5A3LANKRP91N782LFHPY722Q","","","img/flower9.png","74","158","1","1","1","0.6,0.6,0,0,0.6,0.6,0.6,0,0.6",""
"null","","html-keyboard-response","318","774259","0.0-318.0","352YTHGROWZ3OF58FOY57NE5271H48","A2Y7L7R5UTQ5R2","3FW4EL5A3LANKRP91N782LFHPY722Q","","","<img src=""img/flower9.png"" style=""width:200px; border:14px solid green;"">","null","","","","","",""
"478","","image-keyboard-response","319","774743","0.0-319.0","352YTHGROWZ3OF58FOY57NE5271H48","A2Y7L7R5UTQ5R2","3FW4EL5A3LANKRP91N782LFHPY722Q","","","img/flower9.png","74","484","1","0","1","0.6,0.6,0,0,0.6,0.6,0.6,0,0.6",""
"null","","html-keyboard-response","320","775043","0.0-320.0","352YTHGROWZ3OF58FOY57NE5271H48","A2Y7L7R5UTQ5R2","3FW4EL5A3LANKRP91N782LFHPY722Q","","","<img src=""img/flower9.png"" style=""width:200px;border:14px solid red;"">","null","","","","","",""
"584","","image-keyboard-response","321","775632","0.0-321.0","352YTHGROWZ3OF58FOY57NE5271H48","A2Y7L7R5UTQ5R2","3FW4EL5A3LANKRP91N782LFHPY722Q","","","img/flower8.png","75","589","2","0","2","0.6,0.6,0,0,0.6,0.6,0.6,0,0.6",""
"null","","html-keyboard-response","322","775959","0.0-322.0","352YTHGROWZ3OF58FOY57NE5271H48","A2Y7L7R5UTQ5R2","3FW4EL5A3LANKRP91N782LFHPY722Q","","","<img src=""img/flower8.png"" style=""width:200px;border:14px solid red;"">","null","","","","","",""
"313","","image-keyboard-response","323","776274","0.0-323.0","352YTHGROWZ3OF58FOY57NE5271H48","A2Y7L7R5UTQ5R2","3FW4EL5A3LANKRP91N782LFHPY722Q","","","img/flower1.png","75","315","2","0","3","0.6,0.6,0,0,0.6,0.6,0.6,0,0.6",""
"null","","html-keyboard-response","324","776587","0.0-324.0","352YTHGROWZ3OF58FOY57NE5271H48","A2Y7L7R5UTQ5R2","3FW4EL5A3LANKRP91N782LFHPY722Q","","","<img src=""img/flower1.png"" style=""width:200px;border:14px solid red;"">","null","","","","","",""
"152","","image-keyboard-response","325","776751","0.0-325.0","352YTHGROWZ3OF58FOY57NE5271H48","A2Y7L7R5UTQ5R2","3FW4EL5A3LANKRP91N782LFHPY722Q","","","img/flower1.png","76","164","3","0","3","0.6,0.6,0,0,0.6,0.6,0.6,0,0.6",""
"null","","html-keyboard-response","326","777056","0.0-326.0","352YTHGROWZ3OF58FOY57NE5271H48","A2Y7L7R5UTQ5R2","3FW4EL5A3LANKRP91N782LFHPY722Q","","","<img src=""img/flower1.png"" style=""width:200px;border:14px solid red;"">","null","","","","","",""
"238","","image-keyboard-response","327","777308","0.0-327.0","352YTHGROWZ3OF58FOY57NE5271H48","A2Y7L7R5UTQ5R2","3FW4EL5A3LANKRP91N782LFHPY722Q","","","img/flower1.png","75","252","2","0","3","0.6,0.6,0,0,0.6,0.6,0.6,0,0.6",""
"null","","html-keyboard-response","328","777618","0.0-328.0","352YTHGROWZ3OF58FOY57NE5271H48","A2Y7L7R5UTQ5R2","3FW4EL5A3LANKRP91N782LFHPY722Q","","","<img src=""img/flower1.png"" style=""width:200px;border:14px solid red;"">","null","","","","","",""
"137","","image-keyboard-response","329","777767","0.0-329.0","352YTHGROWZ3OF58FOY57NE5271H48","A2Y7L7R5UTQ5R2","3FW4EL5A3LANKRP91N782LFHPY722Q","","","img/flower1.png","74","149","1","1","3","0.6,0.6,0,0,0.6,0.6,0.6,0,0.6",""
"null","","html-keyboard-response","330","778074","0.0-330.0","352YTHGROWZ3OF58FOY57NE5271H48","A2Y7L7R5UTQ5R2","3FW4EL5A3LANKRP91N782LFHPY722Q","","","<img src=""img/flower1.png"" style=""width:200px; border:14px solid green;"">","null","","","","","",""
"118","","image-keyboard-response","331","778193","0.0-331.0","352YTHGROWZ3OF58FOY57NE5271H48","A2Y7L7R5UTQ5R2","3FW4EL5A3LANKRP91N782LFHPY722Q","","","img/flower9.png","74","119","1","0","1","0.6,0.6,0,0,0.6,0.6,0.6,0,0.6",""
"null","","html-keyboard-response","332","778535","0.0-332.0","352YTHGROWZ3OF58FOY57NE5271H48","A2Y7L7R5UTQ5R2","3FW4EL5A3LANKRP91N782LFHPY722Q","","","<img src=""img/flower9.png"" style=""width:200px;border:14px solid red;"">","null","","","","","",""
"130","","image-keyboard-response","333","778670","0.0-333.0","352YTHGROWZ3OF58FOY57NE5271H48","A2Y7L7R5UTQ5R2","3FW4EL5A3LANKRP91N782LFHPY722Q","","","img/flower9.png","74","134","1","1","1","0.6,0.6,0,0,0.6,0.6,0.6,0,0.6",""
"null","","html-keyboard-response","334","778972","0.0-334.0","352YTHGROWZ3OF58FOY57NE5271H48","A2Y7L7R5UTQ5R2","3FW4EL5A3LANKRP91N782LFHPY722Q","","","<img src=""img/flower9.png"" style=""width:200px; border:14px solid green;"">","null","","","","","",""
"285","","image-keyboard-response","335","779264","0.0-335.0","352YTHGROWZ3OF58FOY57NE5271H48","A2Y7L7R5UTQ5R2","3FW4EL5A3LANKRP91N782LFHPY722Q","","","img/flower9.png","74","292","1","1","1","0.6,0.6,0,0,0.6,0.6,0.6,0,0.6",""
"null","","html-keyboard-response","336","779571","0.0-336.0","352YTHGROWZ3OF58FOY57NE5271H48","A2Y7L7R5UTQ5R2","3FW4EL5A3LANKRP91N782LFHPY722Q","","","<img src=""img/flower9.png"" style=""width:200px; border:14px solid green;"">","null","","","","","",""
"181","","image-keyboard-response","337","779756","0.0-337.0","352YTHGROWZ3OF58FOY57NE5271H48","A2Y7L7R5UTQ5R2","3FW4EL5A3LANKRP91N782LFHPY722Q","","","img/flower8.png","75","184","2","0","2","0.6,0.6,0,0,0.6,0.6,0.6,0,0.6",""
"null","","html-keyboard-response","338","780074","0.0-338.0","352YTHGROWZ3OF58FOY57NE5271H48","A2Y7L7R5UTQ5R2","3FW4EL5A3LANKRP91N782LFHPY722Q","","","<img src=""img/flower8.png"" style=""width:200px;border:14px solid red;"">","null","","","","","",""
"116","","image-keyboard-response","339","780204","0.0-339.0","352YTHGROWZ3OF58FOY57NE5271H48","A2Y7L7R5UTQ5R2","3FW4EL5A3LANKRP91N782LFHPY722Q","","","img/flower8.png","75","129","2","1","2","0.6,0.6,0,0,0.6,0.6,0.6,0,0.6",""
"null","","html-keyboard-response","340","780508","0.0-340.0","352YTHGROWZ3OF58FOY57NE5271H48","A2Y7L7R5UTQ5R2","3FW4EL5A3LANKRP91N782LFHPY722Q","","","<img src=""img/flower8.png"" style=""width:200px; border:14px solid green;"">","null","","","","","",""
"167","","image-keyboard-response","341","780676","0.0-341.0","352YTHGROWZ3OF58FOY57NE5271H48","A2Y7L7R5UTQ5R2","3FW4EL5A3LANKRP91N782LFHPY722Q","","","img/flower8.png","76","168","3","1","2","0.6,0.6,0,0,0.6,0.6,0.6,0,0.6",""
"null","","html-keyboard-response","342","780990","0.0-342.0","352YTHGROWZ3OF58FOY57NE5271H48","A2Y7L7R5UTQ5R2","3FW4EL5A3LANKRP91N782LFHPY722Q","","","<img src=""img/flower8.png"" style=""width:200px; border:14px solid green;"">","null","","","","","",""
"76","","image-keyboard-response","343","781068","0.0-343.0","352YTHGROWZ3OF58FOY57NE5271H48","A2Y7L7R5UTQ5R2","3FW4EL5A3LANKRP91N782LFHPY722Q","","","img/flower9.png","75","78","2","0","1","0.6,0.6,0,0,0.6,0.6,0.6,0,0.6",""
"null","","html-keyboard-response","344","781384","0.0-344.0","352YTHGROWZ3OF58FOY57NE5271H48","A2Y7L7R5UTQ5R2","3FW4EL5A3LANKRP91N782LFHPY722Q","","","<img src=""img/flower9.png"" style=""width:200px;border:14px solid red;"">","null","","","","","",""
"13","","image-keyboard-response","345","781397","0.0-345.0","352YTHGROWZ3OF58FOY57NE5271H48","A2Y7L7R5UTQ5R2","3FW4EL5A3LANKRP91N782LFHPY722Q","","","img/flower8.png","75","13","2","1","2","0.6,0.6,0,0,0.6,0.6,0.6,0,0.6",""
"null","","html-keyboard-response","346","781711","0.0-346.0","352YTHGROWZ3OF58FOY57NE5271H48","A2Y7L7R5UTQ5R2","3FW4EL5A3LANKRP91N782LFHPY722Q","","","<img src=""img/flower8.png"" style=""width:200px; border:14px solid green;"">","null","","","","","",""
"170","","image-keyboard-response","347","781893","0.0-347.0","352YTHGROWZ3OF58FOY57NE5271H48","A2Y7L7R5UTQ5R2","3FW4EL5A3LANKRP91N782LFHPY722Q","","","img/flower9.png","74","182","1","0","1","0.6,0.6,0,0,0.6,0.6,0.6,0,0.6",""
"null","","html-keyboard-response","348","782201","0.0-348.0","352YTHGROWZ3OF58FOY57NE5271H48","A2Y7L7R5UTQ5R2","3FW4EL5A3LANKRP91N782LFHPY722Q","","","<img src=""img/flower9.png"" style=""width:200px;border:14px solid red;"">","null","","","","","",""
"370","","image-keyboard-response","349","782586","0.0-349.0","352YTHGROWZ3OF58FOY57NE5271H48","A2Y7L7R5UTQ5R2","3FW4EL5A3LANKRP91N782LFHPY722Q","","","img/flower1.png","75","385","2","0","3","0.6,0.6,0,0,0.6,0.6,0.6,0,0.6",""
"null","","html-keyboard-response","350","782902","0.0-350.0","352YTHGROWZ3OF58FOY57NE5271H48","A2Y7L7R5UTQ5R2","3FW4EL5A3LANKRP91N782LFHPY722Q","","","<img src=""img/flower1.png"" style=""width:200px;border:14px solid red;"">","null","","","","","",""
"206","","image-keyboard-response","351","783110","0.0-351.0","352YTHGROWZ3OF58FOY57NE5271H48","A2Y7L7R5UTQ5R2","3FW4EL5A3LANKRP91N782LFHPY722Q","","","img/flower8.png","75","208","2","0","2","0.6,0.6,0,0,0.6,0.6,0.6,0,0.6",""
"null","","html-keyboard-response","352","783426","0.0-352.0","352YTHGROWZ3OF58FOY57NE5271H48","A2Y7L7R5UTQ5R2","3FW4EL5A3LANKRP91N782LFHPY722Q","","","<img src=""img/flower8.png"" style=""width:200px;border:14px solid red;"">","null","","","","","",""
"156","","image-keyboard-response","353","783590","0.0-353.0","352YTHGROWZ3OF58FOY57NE5271H48","A2Y7L7R5UTQ5R2","3FW4EL5A3LANKRP91N782LFHPY722Q","","","img/flower1.png","76","164","3","1","3","0.6,0.6,0,0,0.6,0.6,0.6,0,0.6",""
"null","","html-keyboard-response","354","783900","0.0-354.0","352YTHGROWZ3OF58FOY57NE5271H48","A2Y7L7R5UTQ5R2","3FW4EL5A3LANKRP91N782LFHPY722Q","","","<img src=""img/flower1.png"" style=""width:200px; border:14px solid green;"">","null","","","","","",""
"167","","image-keyboard-response","355","784083","0.0-355.0","352YTHGROWZ3OF58FOY57NE5271H48","A2Y7L7R5UTQ5R2","3FW4EL5A3LANKRP91N782LFHPY722Q","","","img/flower8.png","75","183","2","0","2","0.6,0.6,0,0,0.6,0.6,0.6,0,0.6",""
"null","","html-keyboard-response","356","784395","0.0-356.0","352YTHGROWZ3OF58FOY57NE5271H48","A2Y7L7R5UTQ5R2","3FW4EL5A3LANKRP91N782LFHPY722Q","","","<img src=""img/flower8.png"" style=""width:200px;border:14px solid red;"">","null","","","","","",""
"94","","image-keyboard-response","357","784498","0.0-357.0","352YTHGROWZ3OF58FOY57NE5271H48","A2Y7L7R5UTQ5R2","3FW4EL5A3LANKRP91N782LFHPY722Q","","","img/flower1.png","74","103","1","0","3","0.6,0.6,0,0,0.6,0.6,0.6,0,0.6",""
"null","","html-keyboard-response","358","784805","0.0-358.0","352YTHGROWZ3OF58FOY57NE5271H48","A2Y7L7R5UTQ5R2","3FW4EL5A3LANKRP91N782LFHPY722Q","","","<img src=""img/flower1.png"" style=""width:200px;border:14px solid red;"">","null","","","","","",""
"254","","image-keyboard-response","359","785062","0.0-359.0","352YTHGROWZ3OF58FOY57NE5271H48","A2Y7L7R5UTQ5R2","3FW4EL5A3LANKRP91N782LFHPY722Q","","","img/flower9.png","74","257","1","1","1","0.6,0.6,0,0,0.6,0.6,0.6,0,0.6",""
"null","","html-keyboard-response","360","785364","0.0-360.0","352YTHGROWZ3OF58FOY57NE5271H48","A2Y7L7R5UTQ5R2","3FW4EL5A3LANKRP91N782LFHPY722Q","","","<img src=""img/flower9.png"" style=""width:200px; border:14px solid green;"">","null","","","","","",""
"64","","image-keyboard-response","361","785430","0.0-361.0","352YTHGROWZ3OF58FOY57NE5271H48","A2Y7L7R5UTQ5R2","3FW4EL5A3LANKRP91N782LFHPY722Q","","","img/flower8.png","75","66","2","0","2","0.6,0.6,0,0,0.6,0.6,0.6,0,0.6",""
"null","","html-keyboard-response","362","785742","0.0-362.0","352YTHGROWZ3OF58FOY57NE5271H48","A2Y7L7R5UTQ5R2","3FW4EL5A3LANKRP91N782LFHPY722Q","","","<img src=""img/flower8.png"" style=""width:200px;border:14px solid red;"">","null","","","","","",""
"335","","image-keyboard-response","363","786080","0.0-363.0","352YTHGROWZ3OF58FOY57NE5271H48","A2Y7L7R5UTQ5R2","3FW4EL5A3LANKRP91N782LFHPY722Q","","","img/flower1.png","76","338","3","0","3","0.6,0.6,0,0,0.6,0.6,0.6,0,0.6",""
"null","","html-keyboard-response","364","786384","0.0-364.0","352YTHGROWZ3OF58FOY57NE5271H48","A2Y7L7R5UTQ5R2","3FW4EL5A3LANKRP91N782LFHPY722Q","","","<img src=""img/flower1.png"" style=""width:200px;border:14px solid red;"">","null","","","","","",""
"276","","image-keyboard-response","365","786662","0.0-365.0","352YTHGROWZ3OF58FOY57NE5271H48","A2Y7L7R5UTQ5R2","3FW4EL5A3LANKRP91N782LFHPY722Q","","","img/flower1.png","75","278","2","0","3","0.6,0.6,0,0,0.6,0.6,0.6,0,0.6",""
"null","","html-keyboard-response","366","786982","0.0-366.0","352YTHGROWZ3OF58FOY57NE5271H48","A2Y7L7R5UTQ5R2","3FW4EL5A3LANKRP91N782LFHPY722Q","","","<img src=""img/flower1.png"" style=""width:200px;border:14px solid red;"">","null","","","","","",""
"132","","image-keyboard-response","367","787117","0.0-367.0","352YTHGROWZ3OF58FOY57NE5271H48","A2Y7L7R5UTQ5R2","3FW4EL5A3LANKRP91N782LFHPY722Q","","","img/flower9.png","74","135","1","1","1","0.6,0.6,0,0,0.6,0.6,0.6,0,0.6",""
"null","","html-keyboard-response","368","787431","0.0-368.0","352YTHGROWZ3OF58FOY57NE5271H48","A2Y7L7R5UTQ5R2","3FW4EL5A3LANKRP91N782LFHPY722Q","","","<img src=""img/flower9.png"" style=""width:200px; border:14px solid green;"">","null","","","","","",""
"356","","image-keyboard-response","369","787802","0.0-369.0","352YTHGROWZ3OF58FOY57NE5271H48","A2Y7L7R5UTQ5R2","3FW4EL5A3LANKRP91N782LFHPY722Q","","","img/flower8.png","74","371","1","0","2","0.6,0.6,0,0,0.6,0.6,0.6,0,0.6",""
"null","","html-keyboard-response","370","788106","0.0-370.0","352YTHGROWZ3OF58FOY57NE5271H48","A2Y7L7R5UTQ5R2","3FW4EL5A3LANKRP91N782LFHPY722Q","","","<img src=""img/flower8.png"" style=""width:200px;border:14px solid red;"">","null","","","","","",""
"303","","image-keyboard-response","371","788420","0.0-371.0","352YTHGROWZ3OF58FOY57NE5271H48","A2Y7L7R5UTQ5R2","3FW4EL5A3LANKRP91N782LFHPY722Q","","","img/flower9.png","74","314","1","1","1","0.6,0.6,0,0,0.6,0.6,0.6,0,0.6",""
"null","","html-keyboard-response","372","788730","0.0-372.0","352YTHGROWZ3OF58FOY57NE5271H48","A2Y7L7R5UTQ5R2","3FW4EL5A3LANKRP91N782LFHPY722Q","","","<img src=""img/flower9.png"" style=""width:200px; border:14px solid green;"">","null","","","","","",""
"211","","image-keyboard-response","373","788951","0.0-373.0","352YTHGROWZ3OF58FOY57NE5271H48","A2Y7L7R5UTQ5R2","3FW4EL5A3LANKRP91N782LFHPY722Q","","","img/flower1.png","75","221","2","0","3","0.6,0.6,0,0,0.6,0.6,0.6,0,0.6",""
"null","","html-keyboard-response","374","789254","0.0-374.0","352YTHGROWZ3OF58FOY57NE5271H48","A2Y7L7R5UTQ5R2","3FW4EL5A3LANKRP91N782LFHPY722Q","","","<img src=""img/flower1.png"" style=""width:200px;border:14px solid red;"">","null","","","","","",""
"250","","image-keyboard-response","375","789520","0.0-375.0","352YTHGROWZ3OF58FOY57NE5271H48","A2Y7L7R5UTQ5R2","3FW4EL5A3LANKRP91N782LFHPY722Q","","","img/flower8.png","76","267","3","1","2","0.6,0.6,0,0,0.6,0.6,0.6,0,0.6",""
"null","","html-keyboard-response","376","789836","0.0-376.0","352YTHGROWZ3OF58FOY57NE5271H48","A2Y7L7R5UTQ5R2","3FW4EL5A3LANKRP91N782LFHPY722Q","","","<img src=""img/flower8.png"" style=""width:200px; border:14px solid green;"">","null","","","","","",""
"296","","image-keyboard-response","377","790139","0.0-377.0","352YTHGROWZ3OF58FOY57NE5271H48","A2Y7L7R5UTQ5R2","3FW4EL5A3LANKRP91N782LFHPY722Q","","","img/flower1.png","75","303","2","0","3","0.6,0.6,0,0,0.6,0.6,0.6,0,0.6",""
"null","","html-keyboard-response","378","790454","0.0-378.0","352YTHGROWZ3OF58FOY57NE5271H48","A2Y7L7R5UTQ5R2","3FW4EL5A3LANKRP91N782LFHPY722Q","","","<img src=""img/flower1.png"" style=""width:200px;border:14px solid red;"">","null","","","","","",""
"112","","image-keyboard-response","379","790569","0.0-379.0","352YTHGROWZ3OF58FOY57NE5271H48","A2Y7L7R5UTQ5R2","3FW4EL5A3LANKRP91N782LFHPY722Q","","","img/flower8.png","74","115","1","0","2","0.6,0.6,0,0,0.6,0.6,0.6,0,0.6",""
"null","","html-keyboard-response","380","790883","0.0-380.0","352YTHGROWZ3OF58FOY57NE5271H48","A2Y7L7R5UTQ5R2","3FW4EL5A3LANKRP91N782LFHPY722Q","","","<img src=""img/flower8.png"" style=""width:200px;border:14px solid red;"">","null","","","","","",""
"214","","image-keyboard-response","381","791098","0.0-381.0","352YTHGROWZ3OF58FOY57NE5271H48","A2Y7L7R5UTQ5R2","3FW4EL5A3LANKRP91N782LFHPY722Q","","","img/flower8.png","74","215","1","0","2","0.6,0.6,0,0,0.6,0.6,0.6,0,0.6",""
"null","","html-keyboard-response","382","791401","0.0-382.0","352YTHGROWZ3OF58FOY57NE5271H48","A2Y7L7R5UTQ5R2","3FW4EL5A3LANKRP91N782LFHPY722Q","","","<img src=""img/flower8.png"" style=""width:200px;border:14px solid red;"">","null","","","","","",""
"190","","image-keyboard-response","383","791595","0.0-383.0","352YTHGROWZ3OF58FOY57NE5271H48","A2Y7L7R5UTQ5R2","3FW4EL5A3LANKRP91N782LFHPY722Q","","","img/flower8.png","75","194","2","1","2","0.6,0.6,0,0,0.6,0.6,0.6,0,0.6",""
"null","","html-keyboard-response","384","791900","0.0-384.0","352YTHGROWZ3OF58FOY57NE5271H48","A2Y7L7R5UTQ5R2","3FW4EL5A3LANKRP91N782LFHPY722Q","","","<img src=""img/flower8.png"" style=""width:200px; border:14px solid green;"">","null","","","","","",""
"264","","image-keyboard-response","385","792171","0.0-385.0","352YTHGROWZ3OF58FOY57NE5271H48","A2Y7L7R5UTQ5R2","3FW4EL5A3LANKRP91N782LFHPY722Q","","","img/flower8.png","76","271","3","1","2","0.6,0.6,0,0,0.6,0.6,0.6,0,0.6",""
"null","","html-keyboard-response","386","792483","0.0-386.0","352YTHGROWZ3OF58FOY57NE5271H48","A2Y7L7R5UTQ5R2","3FW4EL5A3LANKRP91N782LFHPY722Q","","","<img src=""img/flower8.png"" style=""width:200px; border:14px solid green;"">","null","","","","","",""
"179","","image-keyboard-response","387","792663","0.0-387.0","352YTHGROWZ3OF58FOY57NE5271H48","A2Y7L7R5UTQ5R2","3FW4EL5A3LANKRP91N782LFHPY722Q","","","img/flower1.png","75","180","2","0","3","0.6,0.6,0,0,0.6,0.6,0.6,0,0.6",""
"null","","html-keyboard-response","388","792977","0.0-388.0","352YTHGROWZ3OF58FOY57NE5271H48","A2Y7L7R5UTQ5R2","3FW4EL5A3LANKRP91N782LFHPY722Q","","","<img src=""img/flower1.png"" style=""width:200px;border:14px solid red;"">","null","","","","","",""
"624","","image-keyboard-response","389","793614","0.0-389.0","352YTHGROWZ3OF58FOY57NE5271H48","A2Y7L7R5UTQ5R2","3FW4EL5A3LANKRP91N782LFHPY722Q","","","img/flower1.png","75","637","2","0","3","0.6,0.6,0,0,0.6,0.6,0.6,0,0.6",""
"null","","html-keyboard-response","390","793920","0.0-390.0","352YTHGROWZ3OF58FOY57NE5271H48","A2Y7L7R5UTQ5R2","3FW4EL5A3LANKRP91N782LFHPY722Q","","","<img src=""img/flower1.png"" style=""width:200px;border:14px solid red;"">","null","","","","","",""
"147","","image-keyboard-response","391","794081","0.0-391.0","352YTHGROWZ3OF58FOY57NE5271H48","A2Y7L7R5UTQ5R2","3FW4EL5A3LANKRP91N782LFHPY722Q","","","img/flower1.png","75","161","2","0","3","0.6,0.6,0,0,0.6,0.6,0.6,0,0.6",""
"null","","html-keyboard-response","392","794386","0.0-392.0","352YTHGROWZ3OF58FOY57NE5271H48","A2Y7L7R5UTQ5R2","3FW4EL5A3LANKRP91N782LFHPY722Q","","","<img src=""img/flower1.png"" style=""width:200px;border:14px solid red;"">","null","","","","","",""
"1445","","image-keyboard-response","393","795841","0.0-393.0","352YTHGROWZ3OF58FOY57NE5271H48","A2Y7L7R5UTQ5R2","3FW4EL5A3LANKRP91N782LFHPY722Q","","","img/flower8.png","75","1455","2","1","2","0.6,0.6,0,0,0.6,0.6,0.6,0,0.6",""
"null","","html-keyboard-response","394","796147","0.0-394.0","352YTHGROWZ3OF58FOY57NE5271H48","A2Y7L7R5UTQ5R2","3FW4EL5A3LANKRP91N782LFHPY722Q","","","<img src=""img/flower8.png"" style=""width:200px; border:14px solid green;"">","null","","","","","",""
"230","","image-keyboard-response","395","796386","0.0-395.0","352YTHGROWZ3OF58FOY57NE5271H48","A2Y7L7R5UTQ5R2","3FW4EL5A3LANKRP91N782LFHPY722Q","","","img/flower1.png","76","239","3","1","3","0.6,0.6,0,0,0.6,0.6,0.6,0,0.6",""
"null","","html-keyboard-response","396","796696","0.0-396.0","352YTHGROWZ3OF58FOY57NE5271H48","A2Y7L7R5UTQ5R2","3FW4EL5A3LANKRP91N782LFHPY722Q","","","<img src=""img/flower1.png"" style=""width:200px; border:14px solid green;"">","null","","","","","",""
"274","","image-keyboard-response","397","796972","0.0-397.0","352YTHGROWZ3OF58FOY57NE5271H48","A2Y7L7R5UTQ5R2","3FW4EL5A3LANKRP91N782LFHPY722Q","","","img/flower9.png","75","275","2","0","1","0.6,0.6,0,0,0.6,0.6,0.6,0,0.6",""
"null","","html-keyboard-response","398","797274","0.0-398.0","352YTHGROWZ3OF58FOY57NE5271H48","A2Y7L7R5UTQ5R2","3FW4EL5A3LANKRP91N782LFHPY722Q","","","<img src=""img/flower9.png"" style=""width:200px;border:14px solid red;"">","null","","","","","",""
"270","","image-keyboard-response","399","797553","0.0-399.0","352YTHGROWZ3OF58FOY57NE5271H48","A2Y7L7R5UTQ5R2","3FW4EL5A3LANKRP91N782LFHPY722Q","","","img/flower8.png","76","279","3","1","2","0.6,0.6,0,0,0.6,0.6,0.6,0,0.6",""
"null","","html-keyboard-response","400","797864","0.0-400.0","352YTHGROWZ3OF58FOY57NE5271H48","A2Y7L7R5UTQ5R2","3FW4EL5A3LANKRP91N782LFHPY722Q","","","<img src=""img/flower8.png"" style=""width:200px; border:14px solid green;"">","null","","","","","",""
"238","","image-keyboard-response","401","798114","0.0-401.0","352YTHGROWZ3OF58FOY57NE5271H48","A2Y7L7R5UTQ5R2","3FW4EL5A3LANKRP91N782LFHPY722Q","","","img/flower1.png","75","250","2","0","3","0.6,0.6,0,0,0.6,0.6,0.6,0,0.6",""
"null","","html-keyboard-response","402","798429","0.0-402.0","352YTHGROWZ3OF58FOY57NE5271H48","A2Y7L7R5UTQ5R2","3FW4EL5A3LANKRP91N782LFHPY722Q","","","<img src=""img/flower1.png"" style=""width:200px;border:14px solid red;"">","null","","","","","",""
"888","","image-keyboard-response","403","799328","0.0-403.0","352YTHGROWZ3OF58FOY57NE5271H48","A2Y7L7R5UTQ5R2","3FW4EL5A3LANKRP91N782LFHPY722Q","","","img/flower8.png","74","899","1","0","2","0.6,0.6,0,0,0.6,0.6,0.6,0,0.6",""
"null","","html-keyboard-response","404","799634","0.0-404.0","352YTHGROWZ3OF58FOY57NE5271H48","A2Y7L7R5UTQ5R2","3FW4EL5A3LANKRP91N782LFHPY722Q","","","<img src=""img/flower8.png"" style=""width:200px;border:14px solid red;"">","null","","","","","",""
"62","","image-keyboard-response","405","799696","0.0-405.0","352YTHGROWZ3OF58FOY57NE5271H48","A2Y7L7R5UTQ5R2","3FW4EL5A3LANKRP91N782LFHPY722Q","","","img/flower9.png","74","62","1","1","1","0.6,0.6,0,0,0.6,0.6,0.6,0,0.6",""
"null","","html-keyboard-response","406","800052","0.0-406.0","352YTHGROWZ3OF58FOY57NE5271H48","A2Y7L7R5UTQ5R2","3FW4EL5A3LANKRP91N782LFHPY722Q","","","<img src=""img/flower9.png"" style=""width:200px; border:14px solid green;"">","null","","","","","",""
"129","","image-keyboard-response","407","800189","0.0-407.0","352YTHGROWZ3OF58FOY57NE5271H48","A2Y7L7R5UTQ5R2","3FW4EL5A3LANKRP91N782LFHPY722Q","","","img/flower9.png","75","136","2","1","1","0.6,0.6,0,0,0.6,0.6,0.6,0,0.6",""
"null","","html-keyboard-response","408","800506","0.0-408.0","352YTHGROWZ3OF58FOY57NE5271H48","A2Y7L7R5UTQ5R2","3FW4EL5A3LANKRP91N782LFHPY722Q","","","<img src=""img/flower9.png"" style=""width:200px; border:14px solid green;"">","null","","","","","",""
"307","","image-keyboard-response","409","800823","0.0-409.0","352YTHGROWZ3OF58FOY57NE5271H48","A2Y7L7R5UTQ5R2","3FW4EL5A3LANKRP91N782LFHPY722Q","","","img/flower8.png","76","311","3","0","2","0.6,0.6,0,0,0.6,0.6,0.6,0,0.6",""
"null","","html-keyboard-response","410","801135","0.0-410.0","352YTHGROWZ3OF58FOY57NE5271H48","A2Y7L7R5UTQ5R2","3FW4EL5A3LANKRP91N782LFHPY722Q","","","<img src=""img/flower8.png"" style=""width:200px;border:14px solid red;"">","null","","","","","",""
"183","","image-keyboard-response","411","801326","0.0-411.0","352YTHGROWZ3OF58FOY57NE5271H48","A2Y7L7R5UTQ5R2","3FW4EL5A3LANKRP91N782LFHPY722Q","","","img/flower1.png","76","191","3","1","3","0.6,0.6,0,0,0.6,0.6,0.6,0,0.6",""
"null","","html-keyboard-response","412","801638","0.0-412.0","352YTHGROWZ3OF58FOY57NE5271H48","A2Y7L7R5UTQ5R2","3FW4EL5A3LANKRP91N782LFHPY722Q","","","<img src=""img/flower1.png"" style=""width:200px; border:14px solid green;"">","null","","","","","",""
"222","","image-keyboard-response","413","801866","0.0-413.0","352YTHGROWZ3OF58FOY57NE5271H48","A2Y7L7R5UTQ5R2","3FW4EL5A3LANKRP91N782LFHPY722Q","","","img/flower1.png","75","228","2","0","3","0.6,0.6,0,0,0.6,0.6,0.6,0,0.6",""
"null","","html-keyboard-response","414","802184","0.0-414.0","352YTHGROWZ3OF58FOY57NE5271H48","A2Y7L7R5UTQ5R2","3FW4EL5A3LANKRP91N782LFHPY722Q","","","<img src=""img/flower1.png"" style=""width:200px;border:14px solid red;"">","null","","","","","",""
"104","","image-keyboard-response","415","802289","0.0-415.0","352YTHGROWZ3OF58FOY57NE5271H48","A2Y7L7R5UTQ5R2","3FW4EL5A3LANKRP91N782LFHPY722Q","","","img/flower1.png","75","106","2","0","3","0.6,0.6,0,0,0.6,0.6,0.6,0,0.6",""
"null","","html-keyboard-response","416","802597","0.0-416.0","352YTHGROWZ3OF58FOY57NE5271H48","A2Y7L7R5UTQ5R2","3FW4EL5A3LANKRP91N782LFHPY722Q","","","<img src=""img/flower1.png"" style=""width:200px;border:14px solid red;"">","null","","","","","",""
"158","","image-keyboard-response","417","802767","0.0-417.0","352YTHGROWZ3OF58FOY57NE5271H48","A2Y7L7R5UTQ5R2","3FW4EL5A3LANKRP91N782LFHPY722Q","","","img/flower9.png","74","170","1","0","1","0.6,0.6,0,0,0.6,0.6,0.6,0,0.6",""
"null","","html-keyboard-response","418","803072","0.0-418.0","352YTHGROWZ3OF58FOY57NE5271H48","A2Y7L7R5UTQ5R2","3FW4EL5A3LANKRP91N782LFHPY722Q","","","<img src=""img/flower9.png"" style=""width:200px;border:14px solid red;"">","null","","","","","",""
