"success","trial_type","trial_index","time_elapsed","internal_node_id","assignmentID","mturkID","hitID","view_history","rt","stimulus","key_press","reactionTime","a","r","s","cond","reward_cond","reward_cond_actual","reward_matrix_idx","responses"
"true","fullscreen","0","2184","0.0-0.0","37FMASSAYDDN59110LQDFDLQGMCIBB","A2YC6PEMIRSOAA","3UDTAB6HH6LRO17U79I9TKUGYFV09C","","","","","","","","","","","","",""
"","instructions","1","10846","0.0-1.0","37FMASSAYDDN59110LQDFDLQGMCIBB","A2YC6PEMIRSOAA","3UDTAB6HH6LRO17U79I9TKUGYFV09C","[{""page_index"":0,""viewing_time"":877.3999999985099},{""page_index"":1,""viewing_time"":530.3000000044703},{""page_index"":2,""viewing_time"":705},{""page_index"":3,""viewing_time"":1128},{""page_index"":4,""viewing_time"":1246.8999999985099},{""page_index"":5,""viewing_time"":1215.1000000014901},{""page_index"":6,""viewing_time"":990.7999999970198},{""page_index"":7,""viewing_time"":1967.1000000014901}]","8660.89999999851","","","","","","","","","","",""
"","image-keyboard-response","2","12163","0.0-2.0","37FMASSAYDDN59110LQDFDLQGMCIBB","A2YC6PEMIRSOAA","3UDTAB6HH6LRO17U79I9TKUGYFV09C","","1315.1999999955297","img/flower4.png","75","1316.8000000044703","2","0","1","1","1,0.333,0.333,0.333,1,0.333,0.333,0.333,1","1,0.333,0.333,0.333,1,0.333,0.333,0.333,1","1",""
"","html-keyboard-response","3","12471","0.0-3.0","37FMASSAYDDN59110LQDFDLQGMCIBB","A2YC6PEMIRSOAA","3UDTAB6HH6LRO17U79I9TKUGYFV09C","","null","<img src=""img/flower4.png"" style=""width:200px;border:14px solid red;"">","null","","","","","","","","",""
"","image-keyboard-response","4","12757","0.0-4.0","37FMASSAYDDN59110LQDFDLQGMCIBB","A2YC6PEMIRSOAA","3UDTAB6HH6LRO17U79I9TKUGYFV09C","","284.5","img/flower4.png","76","285.3999999985099","3","0","1","1","1,0.333,0.333,0.333,1,0.333,0.333,0.333,1","1,0.333,0.333,0.333,1,0.333,0.333,0.333,1","1",""
"","html-keyboard-response","5","13073","0.0-5.0","37FMASSAYDDN59110LQDFDLQGMCIBB","A2YC6PEMIRSOAA","3UDTAB6HH6LRO17U79I9TKUGYFV09C","","null","<img src=""img/flower4.png"" style=""width:200px;border:14px solid red;"">","null","","","","","","","","",""
"","image-keyboard-response","6","13335","0.0-6.0","37FMASSAYDDN59110LQDFDLQGMCIBB","A2YC6PEMIRSOAA","3UDTAB6HH6LRO17U79I9TKUGYFV09C","","261.70000000298023","img/flower4.png","74","262.3999999985099","1","1","1","1","1,0.333,0.333,0.333,1,0.333,0.333,0.333,1","1,0.333,0.333,0.333,1,0.333,0.333,0.333,1","1",""
"","html-keyboard-response","7","13647","0.0-7.0","37FMASSAYDDN59110LQDFDLQGMCIBB","A2YC6PEMIRSOAA","3UDTAB6HH6LRO17U79I9TKUGYFV09C","","null","<img src=""img/flower4.png"" style=""width:200px; border:14px solid green;"">","null","","","","","","","","",""
"","image-keyboard-response","8","14431","0.0-8.0","37FMASSAYDDN59110LQDFDLQGMCIBB","A2YC6PEMIRSOAA","3UDTAB6HH6LRO17U79I9TKUGYFV09C","","783.3000000044703","img/flower1.png","74","784","1","0","2","1","1,0.333,0.333,0.333,1,0.333,0.333,0.333,1","1,0.333,0.333,0.333,1,0.333,0.333,0.333,1","1",""
"","html-keyboard-response","9","14735","0.0-9.0","37FMASSAYDDN59110LQDFDLQGMCIBB","A2YC6PEMIRSOAA","3UDTAB6HH6LRO17U79I9TKUGYFV09C","","null","<img src=""img/flower1.png"" style=""width:200px;border:14px solid red;"">","null","","","","","","","","",""
"","image-keyboard-response","10","15040","0.0-10.0","37FMASSAYDDN59110LQDFDLQGMCIBB","A2YC6PEMIRSOAA","3UDTAB6HH6LRO17U79I9TKUGYFV09C","","304.5","img/flower5.png","75","305.30000000447035","2","1","3","1","1,0.333,0.333,0.333,1,0.333,0.333,0.333,1","1,0.333,0.333,0.333,1,0.333,0.333,0.333,1","1",""
"","html-keyboard-response","11","15354","0.0-11.0","37FMASSAYDDN59110LQDFDLQGMCIBB","A2YC6PEMIRSOAA","3UDTAB6HH6LRO17U79I9TKUGYFV09C","","null","<img src=""img/flower5.png"" style=""width:200px; border:14px solid green;"">","null","","","","","","","","",""
"","image-keyboard-response","12","16056","0.0-12.0","37FMASSAYDDN59110LQDFDLQGMCIBB","A2YC6PEMIRSOAA","3UDTAB6HH6LRO17U79I9TKUGYFV09C","","700.8999999985099","img/flower1.png","74","701.6000000014901","1","0","2","1","1,0.333,0.333,0.333,1,0.333,0.333,0.333,1","1,0.333,0.333,0.333,1,0.333,0.333,0.333,1","1",""
"","html-keyboard-response","13","16366","0.0-13.0","37FMASSAYDDN59110LQDFDLQGMCIBB","A2YC6PEMIRSOAA","3UDTAB6HH6LRO17U79I9TKUGYFV09C","","null","<img src=""img/flower1.png"" style=""width:200px;border:14px solid red;"">","null","","","","","","","","",""
"","image-keyboard-response","14","16587","0.0-14.0","37FMASSAYDDN59110LQDFDLQGMCIBB","A2YC6PEMIRSOAA","3UDTAB6HH6LRO17U79I9TKUGYFV09C","","219.69999999552965","img/flower1.png","75","220.40000000596046","2","1","2","1","1,0.333,0.333,0.333,1,0.333,0.333,0.333,1","1,0.333,0.333,0.333,1,0.333,0.333,0.333,1","1",""
"","html-keyboard-response","15","16895","0.0-15.0","37FMASSAYDDN59110LQDFDLQGMCIBB","A2YC6PEMIRSOAA","3UDTAB6HH6LRO17U79I9TKUGYFV09C","","null","<img src=""img/flower1.png"" style=""width:200px; border:14px solid green;"">","null","","","","","","","","",""
"","image-keyboard-response","16","17187","0.0-16.0","37FMASSAYDDN59110LQDFDLQGMCIBB","A2YC6PEMIRSOAA","3UDTAB6HH6LRO17U79I9TKUGYFV09C","","291.29999999701977","img/flower1.png","75","291.80000000447035","2","1","2","1","1,0.333,0.333,0.333,1,0.333,0.333,0.333,1","1,0.333,0.333,0.333,1,0.333,0.333,0.333,1","1",""
"","html-keyboard-response","17","17502","0.0-17.0","37FMASSAYDDN59110LQDFDLQGMCIBB","A2YC6PEMIRSOAA","3UDTAB6HH6LRO17U79I9TKUGYFV09C","","null","<img src=""img/flower1.png"" style=""width:200px; border:14px solid green;"">","null","","","","","","","","",""
"","image-keyboard-response","18","17923","0.0-18.0","37FMASSAYDDN59110LQDFDLQGMCIBB","A2YC6PEMIRSOAA","3UDTAB6HH6LRO17U79I9TKUGYFV09C","","421.1000000014901","img/flower4.png","75","421.69999999552965","2","1","1","1","1,0.333,0.333,0.333,1,0.333,0.333,0.333,1","1,0.333,0.333,0.333,1,0.333,0.333,0.333,1","1",""
"","html-keyboard-response","19","18232","0.0-19.0","37FMASSAYDDN59110LQDFDLQGMCIBB","A2YC6PEMIRSOAA","3UDTAB6HH6LRO17U79I9TKUGYFV09C","","null","<img src=""img/flower4.png"" style=""width:200px; border:14px solid green;"">","null","","","","","","","","",""
"","image-keyboard-response","20","18694","0.0-20.0","37FMASSAYDDN59110LQDFDLQGMCIBB","A2YC6PEMIRSOAA","3UDTAB6HH6LRO17U79I9TKUGYFV09C","","461.5","img/flower5.png","75","462.09999999403954","2","0","3","1","1,0.333,0.333,0.333,1,0.333,0.333,0.333,1","1,0.333,0.333,0.333,1,0.333,0.333,0.333,1","1",""
"","html-keyboard-response","21","19005","0.0-21.0","37FMASSAYDDN59110LQDFDLQGMCIBB","A2YC6PEMIRSOAA","3UDTAB6HH6LRO17U79I9TKUGYFV09C","","null","<img src=""img/flower5.png"" style=""width:200px;border:14px solid red;"">","null","","","","","","","","",""
"","image-keyboard-response","22","19532","0.0-22.0","37FMASSAYDDN59110LQDFDLQGMCIBB","A2YC6PEMIRSOAA","3UDTAB6HH6LRO17U79I9TKUGYFV09C","","525.7999999970198","img/flower5.png","76","526.4000000059605","3","1","3","1","1,0.333,0.333,0.333,1,0.333,0.333,0.333,1","1,0.333,0.333,0.333,1,0.333,0.333,0.333,1","1",""
"","html-keyboard-response","23","19843","0.0-23.0","37FMASSAYDDN59110LQDFDLQGMCIBB","A2YC6PEMIRSOAA","3UDTAB6HH6LRO17U79I9TKUGYFV09C","","null","<img src=""img/flower5.png"" style=""width:200px; border:14px solid green;"">","null","","","","","","","","",""
"","image-keyboard-response","24","20149","0.0-24.0","37FMASSAYDDN59110LQDFDLQGMCIBB","A2YC6PEMIRSOAA","3UDTAB6HH6LRO17U79I9TKUGYFV09C","","305","img/flower1.png","76","305.59999999403954","3","0","2","1","1,0.333,0.333,0.333,1,0.333,0.333,0.333,1","1,0.333,0.333,0.333,1,0.333,0.333,0.333,1","1",""
"","html-keyboard-response","25","20462","0.0-25.0","37FMASSAYDDN59110LQDFDLQGMCIBB","A2YC6PEMIRSOAA","3UDTAB6HH6LRO17U79I9TKUGYFV09C","","null","<img src=""img/flower1.png"" style=""width:200px;border:14px solid red;"">","null","","","","","","","","",""
"","image-keyboard-response","26","20841","0.0-26.0","37FMASSAYDDN59110LQDFDLQGMCIBB","A2YC6PEMIRSOAA","3UDTAB6HH6LRO17U79I9TKUGYFV09C","","379","img/flower4.png","75","379.69999999552965","2","0","1","1","1,0.333,0.333,0.333,1,0.333,0.333,0.333,1","1,0.333,0.333,0.333,1,0.333,0.333,0.333,1","1",""
"","html-keyboard-response","27","21145","0.0-27.0","37FMASSAYDDN59110LQDFDLQGMCIBB","A2YC6PEMIRSOAA","3UDTAB6HH6LRO17U79I9TKUGYFV09C","","null","<img src=""img/flower4.png"" style=""width:200px;border:14px solid red;"">","null","","","","","","","","",""
"","image-keyboard-response","28","21685","0.0-28.0","37FMASSAYDDN59110LQDFDLQGMCIBB","A2YC6PEMIRSOAA","3UDTAB6HH6LRO17U79I9TKUGYFV09C","","538.8999999985099","img/flower5.png","74","539.3999999985099","1","0","3","1","1,0.333,0.333,0.333,1,0.333,0.333,0.333,1","1,0.333,0.333,0.333,1,0.333,0.333,0.333,1","1",""
"","html-keyboard-response","29","21999","0.0-29.0","37FMASSAYDDN59110LQDFDLQGMCIBB","A2YC6PEMIRSOAA","3UDTAB6HH6LRO17U79I9TKUGYFV09C","","null","<img src=""img/flower5.png"" style=""width:200px;border:14px solid red;"">","null","","","","","","","","",""
"","image-keyboard-response","30","22354","0.0-30.0","37FMASSAYDDN59110LQDFDLQGMCIBB","A2YC6PEMIRSOAA","3UDTAB6HH6LRO17U79I9TKUGYFV09C","","354","img/flower1.png","76","354.6000000014901","3","0","2","1","1,0.333,0.333,0.333,1,0.333,0.333,0.333,1","1,0.333,0.333,0.333,1,0.333,0.333,0.333,1","1",""
"","html-keyboard-response","31","22669","0.0-31.0","37FMASSAYDDN59110LQDFDLQGMCIBB","A2YC6PEMIRSOAA","3UDTAB6HH6LRO17U79I9TKUGYFV09C","","null","<img src=""img/flower1.png"" style=""width:200px;border:14px solid red;"">","null","","","","","","","","",""
"","image-keyboard-response","32","22896","0.0-32.0","37FMASSAYDDN59110LQDFDLQGMCIBB","A2YC6PEMIRSOAA","3UDTAB6HH6LRO17U79I9TKUGYFV09C","","226.20000000298023","img/flower5.png","75","226.70000000298023","2","1","3","1","1,0.333,0.333,0.333,1,0.333,0.333,0.333,1","1,0.333,0.333,0.333,1,0.333,0.333,0.333,1","1",""
"","html-keyboard-response","33","23204","0.0-33.0","37FMASSAYDDN59110LQDFDLQGMCIBB","A2YC6PEMIRSOAA","3UDTAB6HH6LRO17U79I9TKUGYFV09C","","null","<img src=""img/flower5.png"" style=""width:200px; border:14px solid green;"">","null","","","","","","","","",""
"","image-keyboard-response","34","23443","0.0-34.0","37FMASSAYDDN59110LQDFDLQGMCIBB","A2YC6PEMIRSOAA","3UDTAB6HH6LRO17U79I9TKUGYFV09C","","238.70000000298023","img/flower4.png","75","239.29999999701977","2","1","1","1","1,0.333,0.333,0.333,1,0.333,0.333,0.333,1","1,0.333,0.333,0.333,1,0.333,0.333,0.333,1","1",""
"","html-keyboard-response","35","23746","0.0-35.0","37FMASSAYDDN59110LQDFDLQGMCIBB","A2YC6PEMIRSOAA","3UDTAB6HH6LRO17U79I9TKUGYFV09C","","null","<img src=""img/flower4.png"" style=""width:200px; border:14px solid green;"">","null","","","","","","","","",""
"","image-keyboard-response","36","24017","0.0-36.0","37FMASSAYDDN59110LQDFDLQGMCIBB","A2YC6PEMIRSOAA","3UDTAB6HH6LRO17U79I9TKUGYFV09C","","270","img/flower5.png","75","270.6000000014901","2","0","3","1","1,0.333,0.333,0.333,1,0.333,0.333,0.333,1","1,0.333,0.333,0.333,1,0.333,0.333,0.333,1","1",""
"","html-keyboard-response","37","24332","0.0-37.0","37FMASSAYDDN59110LQDFDLQGMCIBB","A2YC6PEMIRSOAA","3UDTAB6HH6LRO17U79I9TKUGYFV09C","","null","<img src=""img/flower5.png"" style=""width:200px;border:14px solid red;"">","null","","","","","","","","",""
"","image-keyboard-response","38","24680","0.0-38.0","37FMASSAYDDN59110LQDFDLQGMCIBB","A2YC6PEMIRSOAA","3UDTAB6HH6LRO17U79I9TKUGYFV09C","","346.6000000014901","img/flower4.png","76","347.30000000447035","3","0","1","1","1,0.333,0.333,0.333,1,0.333,0.333,0.333,1","1,0.333,0.333,0.333,1,0.333,0.333,0.333,1","1",""
"","html-keyboard-response","39","24983","0.0-39.0","37FMASSAYDDN59110LQDFDLQGMCIBB","A2YC6PEMIRSOAA","3UDTAB6HH6LRO17U79I9TKUGYFV09C","","null","<img src=""img/flower4.png"" style=""width:200px;border:14px solid red;"">","null","","","","","","","","",""
"","image-keyboard-response","40","25285","0.0-40.0","37FMASSAYDDN59110LQDFDLQGMCIBB","A2YC6PEMIRSOAA","3UDTAB6HH6LRO17U79I9TKUGYFV09C","","301.6000000014901","img/flower4.png","75","302.30000000447035","2","0","1","1","1,0.333,0.333,0.333,1,0.333,0.333,0.333,1","1,0.333,0.333,0.333,1,0.333,0.333,0.333,1","1",""
"","html-keyboard-response","41","25587","0.0-41.0","37FMASSAYDDN59110LQDFDLQGMCIBB","A2YC6PEMIRSOAA","3UDTAB6HH6LRO17U79I9TKUGYFV09C","","null","<img src=""img/flower4.png"" style=""width:200px;border:14px solid red;"">","null","","","","","","","","",""
"","image-keyboard-response","42","26186","0.0-42.0","37FMASSAYDDN59110LQDFDLQGMCIBB","A2YC6PEMIRSOAA","3UDTAB6HH6LRO17U79I9TKUGYFV09C","","599.2000000029802","img/flower1.png","74","599.7999999970198","1","1","2","1","1,0.333,0.333,0.333,1,0.333,0.333,0.333,1","1,0.333,0.333,0.333,1,0.333,0.333,0.333,1","1",""
"","html-keyboard-response","43","26491","0.0-43.0","37FMASSAYDDN59110LQDFDLQGMCIBB","A2YC6PEMIRSOAA","3UDTAB6HH6LRO17U79I9TKUGYFV09C","","null","<img src=""img/flower1.png"" style=""width:200px; border:14px solid green;"">","null","","","","","","","","",""
"","image-keyboard-response","44","26759","0.0-44.0","37FMASSAYDDN59110LQDFDLQGMCIBB","A2YC6PEMIRSOAA","3UDTAB6HH6LRO17U79I9TKUGYFV09C","","267.1000000014901","img/flower5.png","74","267.69999999552965","1","0","3","1","1,0.333,0.333,0.333,1,0.333,0.333,0.333,1","1,0.333,0.333,0.333,1,0.333,0.333,0.333,1","1",""
"","html-keyboard-response","45","27063","0.0-45.0","37FMASSAYDDN59110LQDFDLQGMCIBB","A2YC6PEMIRSOAA","3UDTAB6HH6LRO17U79I9TKUGYFV09C","","null","<img src=""img/flower5.png"" style=""width:200px;border:14px solid red;"">","null","","","","","","","","",""
"","image-keyboard-response","46","27264","0.0-46.0","37FMASSAYDDN59110LQDFDLQGMCIBB","A2YC6PEMIRSOAA","3UDTAB6HH6LRO17U79I9TKUGYFV09C","","200","img/flower5.png","75","200.5","2","1","3","1","1,0.333,0.333,0.333,1,0.333,0.333,0.333,1","1,0.333,0.333,0.333,1,0.333,0.333,0.333,1","1",""
"","html-keyboard-response","47","27576","0.0-47.0","37FMASSAYDDN59110LQDFDLQGMCIBB","A2YC6PEMIRSOAA","3UDTAB6HH6LRO17U79I9TKUGYFV09C","","null","<img src=""img/flower5.png"" style=""width:200px; border:14px solid green;"">","null","","","","","","","","",""
"","image-keyboard-response","48","27749","0.0-48.0","37FMASSAYDDN59110LQDFDLQGMCIBB","A2YC6PEMIRSOAA","3UDTAB6HH6LRO17U79I9TKUGYFV09C","","172.29999999701977","img/flower1.png","75","172.90000000596046","2","1","2","1","1,0.333,0.333,0.333,1,0.333,0.333,0.333,1","1,0.333,0.333,0.333,1,0.333,0.333,0.333,1","1",""
"","html-keyboard-response","49","28056","0.0-49.0","37FMASSAYDDN59110LQDFDLQGMCIBB","A2YC6PEMIRSOAA","3UDTAB6HH6LRO17U79I9TKUGYFV09C","","null","<img src=""img/flower1.png"" style=""width:200px; border:14px solid green;"">","null","","","","","","","","",""
"","image-keyboard-response","50","28229","0.0-50.0","37FMASSAYDDN59110LQDFDLQGMCIBB","A2YC6PEMIRSOAA","3UDTAB6HH6LRO17U79I9TKUGYFV09C","","172.39999999850988","img/flower1.png","75","173.10000000149012","2","1","2","1","1,0.333,0.333,0.333,1,0.333,0.333,0.333,1","1,0.333,0.333,0.333,1,0.333,0.333,0.333,1","1",""
"","html-keyboard-response","51","28536","0.0-51.0","37FMASSAYDDN59110LQDFDLQGMCIBB","A2YC6PEMIRSOAA","3UDTAB6HH6LRO17U79I9TKUGYFV09C","","null","<img src=""img/flower1.png"" style=""width:200px; border:14px solid green;"">","null","","","","","","","","",""
"","image-keyboard-response","52","28767","0.0-52.0","37FMASSAYDDN59110LQDFDLQGMCIBB","A2YC6PEMIRSOAA","3UDTAB6HH6LRO17U79I9TKUGYFV09C","","229.59999999403954","img/flower4.png","75","230.20000000298023","2","0","1","1","1,0.333,0.333,0.333,1,0.333,0.333,0.333,1","1,0.333,0.333,0.333,1,0.333,0.333,0.333,1","1",""
"","html-keyboard-response","53","29081","0.0-53.0","37FMASSAYDDN59110LQDFDLQGMCIBB","A2YC6PEMIRSOAA","3UDTAB6HH6LRO17U79I9TKUGYFV09C","","null","<img src=""img/flower4.png"" style=""width:200px;border:14px solid red;"">","null","","","","","","","","",""
"","image-keyboard-response","54","29497","0.0-54.0","37FMASSAYDDN59110LQDFDLQGMCIBB","A2YC6PEMIRSOAA","3UDTAB6HH6LRO17U79I9TKUGYFV09C","","415","img/flower4.png","76","415.70000000298023","3","0","1","1","1,0.333,0.333,0.333,1,0.333,0.333,0.333,1","1,0.333,0.333,0.333,1,0.333,0.333,0.333,1","1",""
"","html-keyboard-response","55","29798","0.0-55.0","37FMASSAYDDN59110LQDFDLQGMCIBB","A2YC6PEMIRSOAA","3UDTAB6HH6LRO17U79I9TKUGYFV09C","","null","<img src=""img/flower4.png"" style=""width:200px;border:14px solid red;"">","null","","","","","","","","",""
"","image-keyboard-response","56","30397","0.0-56.0","37FMASSAYDDN59110LQDFDLQGMCIBB","A2YC6PEMIRSOAA","3UDTAB6HH6LRO17U79I9TKUGYFV09C","","599.0999999940395","img/flower5.png","74","599.6999999955297","1","0","3","1","1,0.333,0.333,0.333,1,0.333,0.333,0.333,1","1,0.333,0.333,0.333,1,0.333,0.333,0.333,1","1",""
"","html-keyboard-response","57","30699","0.0-57.0","37FMASSAYDDN59110LQDFDLQGMCIBB","A2YC6PEMIRSOAA","3UDTAB6HH6LRO17U79I9TKUGYFV09C","","null","<img src=""img/flower5.png"" style=""width:200px;border:14px solid red;"">","null","","","","","","","","",""
"","image-keyboard-response","58","31112","0.0-58.0","37FMASSAYDDN59110LQDFDLQGMCIBB","A2YC6PEMIRSOAA","3UDTAB6HH6LRO17U79I9TKUGYFV09C","","413","img/flower5.png","75","413.5","2","1","3","1","1,0.333,0.333,0.333,1,0.333,0.333,0.333,1","1,0.333,0.333,0.333,1,0.333,0.333,0.333,1","1",""
"","html-keyboard-response","59","31413","0.0-59.0","37FMASSAYDDN59110LQDFDLQGMCIBB","A2YC6PEMIRSOAA","3UDTAB6HH6LRO17U79I9TKUGYFV09C","","null","<img src=""img/flower5.png"" style=""width:200px; border:14px solid green;"">","null","","","","","","","","",""
"","image-keyboard-response","60","31704","0.0-60.0","37FMASSAYDDN59110LQDFDLQGMCIBB","A2YC6PEMIRSOAA","3UDTAB6HH6LRO17U79I9TKUGYFV09C","","289.79999999701977","img/flower1.png","75","290.3999999985099","2","1","2","1","1,0.333,0.333,0.333,1,0.333,0.333,0.333,1","1,0.333,0.333,0.333,1,0.333,0.333,0.333,1","1",""
"","html-keyboard-response","61","32005","0.0-61.0","37FMASSAYDDN59110LQDFDLQGMCIBB","A2YC6PEMIRSOAA","3UDTAB6HH6LRO17U79I9TKUGYFV09C","","null","<img src=""img/flower1.png"" style=""width:200px; border:14px solid green;"">","null","","","","","","","","",""
"","image-keyboard-response","62","32311","0.0-62.0","37FMASSAYDDN59110LQDFDLQGMCIBB","A2YC6PEMIRSOAA","3UDTAB6HH6LRO17U79I9TKUGYFV09C","","305.30000000447035","img/flower4.png","75","306","2","0","1","1","1,0.333,0.333,0.333,1,0.333,0.333,0.333,1","1,0.333,0.333,0.333,1,0.333,0.333,0.333,1","1",""
"","html-keyboard-response","63","32613","0.0-63.0","37FMASSAYDDN59110LQDFDLQGMCIBB","A2YC6PEMIRSOAA","3UDTAB6HH6LRO17U79I9TKUGYFV09C","","null","<img src=""img/flower4.png"" style=""width:200px;border:14px solid red;"">","null","","","","","","","","",""
"","image-keyboard-response","64","32999","0.0-64.0","37FMASSAYDDN59110LQDFDLQGMCIBB","A2YC6PEMIRSOAA","3UDTAB6HH6LRO17U79I9TKUGYFV09C","","385.8999999985099","img/flower4.png","76","386.5","3","1","1","1","1,0.333,0.333,0.333,1,0.333,0.333,0.333,1","1,0.333,0.333,0.333,1,0.333,0.333,0.333,1","1",""
"","html-keyboard-response","65","33301","0.0-65.0","37FMASSAYDDN59110LQDFDLQGMCIBB","A2YC6PEMIRSOAA","3UDTAB6HH6LRO17U79I9TKUGYFV09C","","null","<img src=""img/flower4.png"" style=""width:200px; border:14px solid green;"">","null","","","","","","","","",""
"","image-keyboard-response","66","33614","0.0-66.0","37FMASSAYDDN59110LQDFDLQGMCIBB","A2YC6PEMIRSOAA","3UDTAB6HH6LRO17U79I9TKUGYFV09C","","312.79999999701977","img/flower4.png","76","313.3999999985099","3","1","1","1","1,0.333,0.333,0.333,1,0.333,0.333,0.333,1","1,0.333,0.333,0.333,1,0.333,0.333,0.333,1","1",""
"","html-keyboard-response","67","33917","0.0-67.0","37FMASSAYDDN59110LQDFDLQGMCIBB","A2YC6PEMIRSOAA","3UDTAB6HH6LRO17U79I9TKUGYFV09C","","null","<img src=""img/flower4.png"" style=""width:200px; border:14px solid green;"">","null","","","","","","","","",""
"","image-keyboard-response","68","34575","0.0-68.0","37FMASSAYDDN59110LQDFDLQGMCIBB","A2YC6PEMIRSOAA","3UDTAB6HH6LRO17U79I9TKUGYFV09C","","657.6000000014901","img/flower1.png","75","658.1000000014901","2","1","2","1","1,0.333,0.333,0.333,1,0.333,0.333,0.333,1","1,0.333,0.333,0.333,1,0.333,0.333,0.333,1","1",""
"","html-keyboard-response","69","34890","0.0-69.0","37FMASSAYDDN59110LQDFDLQGMCIBB","A2YC6PEMIRSOAA","3UDTAB6HH6LRO17U79I9TKUGYFV09C","","null","<img src=""img/flower1.png"" style=""width:200px; border:14px solid green;"">","null","","","","","","","","",""
"","image-keyboard-response","70","35131","0.0-70.0","37FMASSAYDDN59110LQDFDLQGMCIBB","A2YC6PEMIRSOAA","3UDTAB6HH6LRO17U79I9TKUGYFV09C","","240.39999999850988","img/flower1.png","75","241","2","1","2","1","1,0.333,0.333,0.333,1,0.333,0.333,0.333,1","1,0.333,0.333,0.333,1,0.333,0.333,0.333,1","1",""
"","html-keyboard-response","71","35433","0.0-71.0","37FMASSAYDDN59110LQDFDLQGMCIBB","A2YC6PEMIRSOAA","3UDTAB6HH6LRO17U79I9TKUGYFV09C","","null","<img src=""img/flower1.png"" style=""width:200px; border:14px solid green;"">","null","","","","","","","","",""
"","image-keyboard-response","72","35555","0.0-72.0","37FMASSAYDDN59110LQDFDLQGMCIBB","A2YC6PEMIRSOAA","3UDTAB6HH6LRO17U79I9TKUGYFV09C","","121.10000000149012","img/flower5.png","75","121.69999999552965","2","0","3","1","1,0.333,0.333,0.333,1,0.333,0.333,0.333,1","1,0.333,0.333,0.333,1,0.333,0.333,0.333,1","1",""
"","html-keyboard-response","73","35857","0.0-73.0","37FMASSAYDDN59110LQDFDLQGMCIBB","A2YC6PEMIRSOAA","3UDTAB6HH6LRO17U79I9TKUGYFV09C","","null","<img src=""img/flower5.png"" style=""width:200px;border:14px solid red;"">","null","","","","","","","","",""
"","image-keyboard-response","74","36231","0.0-74.0","37FMASSAYDDN59110LQDFDLQGMCIBB","A2YC6PEMIRSOAA","3UDTAB6HH6LRO17U79I9TKUGYFV09C","","373.5","img/flower1.png","76","374.1000000014901","3","1","2","1","1,0.333,0.333,0.333,1,0.333,0.333,0.333,1","1,0.333,0.333,0.333,1,0.333,0.333,0.333,1","1",""
"","html-keyboard-response","75","36533","0.0-75.0","37FMASSAYDDN59110LQDFDLQGMCIBB","A2YC6PEMIRSOAA","3UDTAB6HH6LRO17U79I9TKUGYFV09C","","null","<img src=""img/flower1.png"" style=""width:200px; border:14px solid green;"">","null","","","","","","","","",""
"","image-keyboard-response","76","37124","0.0-76.0","37FMASSAYDDN59110LQDFDLQGMCIBB","A2YC6PEMIRSOAA","3UDTAB6HH6LRO17U79I9TKUGYFV09C","","590.1000000014901","img/flower1.png","76","590.8999999985099","3","1","2","1","1,0.333,0.333,0.333,1,0.333,0.333,0.333,1","1,0.333,0.333,0.333,1,0.333,0.333,0.333,1","1",""
"","html-keyboard-response","77","37425","0.0-77.0","37FMASSAYDDN59110LQDFDLQGMCIBB","A2YC6PEMIRSOAA","3UDTAB6HH6LRO17U79I9TKUGYFV09C","","null","<img src=""img/flower1.png"" style=""width:200px; border:14px solid green;"">","null","","","","","","","","",""
"","image-keyboard-response","78","37910","0.0-78.0","37FMASSAYDDN59110LQDFDLQGMCIBB","A2YC6PEMIRSOAA","3UDTAB6HH6LRO17U79I9TKUGYFV09C","","484","img/flower4.png","75","484.6000000014901","2","0","1","1","1,0.333,0.333,0.333,1,0.333,0.333,0.333,1","1,0.333,0.333,0.333,1,0.333,0.333,0.333,1","1",""
"","html-keyboard-response","79","38211","0.0-79.0","37FMASSAYDDN59110LQDFDLQGMCIBB","A2YC6PEMIRSOAA","3UDTAB6HH6LRO17U79I9TKUGYFV09C","","null","<img src=""img/flower4.png"" style=""width:200px;border:14px solid red;"">","null","","","","","","","","",""
"","image-keyboard-response","80","38891","0.0-80.0","37FMASSAYDDN59110LQDFDLQGMCIBB","A2YC6PEMIRSOAA","3UDTAB6HH6LRO17U79I9TKUGYFV09C","","679.5","img/flower5.png","74","680","1","0","3","1","1,0.333,0.333,0.333,1,0.333,0.333,0.333,1","1,0.333,0.333,0.333,1,0.333,0.333,0.333,1","1",""
"","html-keyboard-response","81","39193","0.0-81.0","37FMASSAYDDN59110LQDFDLQGMCIBB","A2YC6PEMIRSOAA","3UDTAB6HH6LRO17U79I9TKUGYFV09C","","null","<img src=""img/flower5.png"" style=""width:200px;border:14px solid red;"">","null","","","","","","","","",""
"","image-keyboard-response","82","39475","0.0-82.0","37FMASSAYDDN59110LQDFDLQGMCIBB","A2YC6PEMIRSOAA","3UDTAB6HH6LRO17U79I9TKUGYFV09C","","281.80000000447035","img/flower5.png","76","282.19999999552965","3","1","3","1","1,0.333,0.333,0.333,1,0.333,0.333,0.333,1","1,0.333,0.333,0.333,1,0.333,0.333,0.333,1","1",""
"","html-keyboard-response","83","39777","0.0-83.0","37FMASSAYDDN59110LQDFDLQGMCIBB","A2YC6PEMIRSOAA","3UDTAB6HH6LRO17U79I9TKUGYFV09C","","null","<img src=""img/flower5.png"" style=""width:200px; border:14px solid green;"">","null","","","","","","","","",""
"","image-keyboard-response","84","40133","0.0-84.0","37FMASSAYDDN59110LQDFDLQGMCIBB","A2YC6PEMIRSOAA","3UDTAB6HH6LRO17U79I9TKUGYFV09C","","354.8999999985099","img/flower4.png","76","355.5","3","0","1","1","1,0.333,0.333,0.333,1,0.333,0.333,0.333,1","1,0.333,0.333,0.333,1,0.333,0.333,0.333,1","1",""
"","html-keyboard-response","85","40435","0.0-85.0","37FMASSAYDDN59110LQDFDLQGMCIBB","A2YC6PEMIRSOAA","3UDTAB6HH6LRO17U79I9TKUGYFV09C","","null","<img src=""img/flower4.png"" style=""width:200px;border:14px solid red;"">","null","","","","","","","","",""
"","image-keyboard-response","86","40689","0.0-86.0","37FMASSAYDDN59110LQDFDLQGMCIBB","A2YC6PEMIRSOAA","3UDTAB6HH6LRO17U79I9TKUGYFV09C","","253.89999999850988","img/flower1.png","75","254.5","2","1","2","1","1,0.333,0.333,0.333,1,0.333,0.333,0.333,1","1,0.333,0.333,0.333,1,0.333,0.333,0.333,1","1",""
"","html-keyboard-response","87","40991","0.0-87.0","37FMASSAYDDN59110LQDFDLQGMCIBB","A2YC6PEMIRSOAA","3UDTAB6HH6LRO17U79I9TKUGYFV09C","","null","<img src=""img/flower1.png"" style=""width:200px; border:14px solid green;"">","null","","","","","","","","",""
"","image-keyboard-response","88","41196","0.0-88.0","37FMASSAYDDN59110LQDFDLQGMCIBB","A2YC6PEMIRSOAA","3UDTAB6HH6LRO17U79I9TKUGYFV09C","","204.29999999701977","img/flower4.png","75","205","2","1","1","1","1,0.333,0.333,0.333,1,0.333,0.333,0.333,1","1,0.333,0.333,0.333,1,0.333,0.333,0.333,1","1",""
"","html-keyboard-response","89","41497","0.0-89.0","37FMASSAYDDN59110LQDFDLQGMCIBB","A2YC6PEMIRSOAA","3UDTAB6HH6LRO17U79I9TKUGYFV09C","","null","<img src=""img/flower4.png"" style=""width:200px; border:14px solid green;"">","null","","","","","","","","",""
"","image-keyboard-response","90","41720","0.0-90.0","37FMASSAYDDN59110LQDFDLQGMCIBB","A2YC6PEMIRSOAA","3UDTAB6HH6LRO17U79I9TKUGYFV09C","","222.80000000447035","img/flower5.png","75","223.29999999701977","2","0","3","1","1,0.333,0.333,0.333,1,0.333,0.333,0.333,1","1,0.333,0.333,0.333,1,0.333,0.333,0.333,1","1",""
"","html-keyboard-response","91","42036","0.0-91.0","37FMASSAYDDN59110LQDFDLQGMCIBB","A2YC6PEMIRSOAA","3UDTAB6HH6LRO17U79I9TKUGYFV09C","","null","<img src=""img/flower5.png"" style=""width:200px;border:14px solid red;"">","null","","","","","","","","",""
"","image-keyboard-response","92","42617","0.0-92.0","37FMASSAYDDN59110LQDFDLQGMCIBB","A2YC6PEMIRSOAA","3UDTAB6HH6LRO17U79I9TKUGYFV09C","","579.8000000044703","img/flower1.png","76","580.6000000014901","3","0","2","1","1,0.333,0.333,0.333,1,0.333,0.333,0.333,1","1,0.333,0.333,0.333,1,0.333,0.333,0.333,1","1",""
"","html-keyboard-response","93","42918","0.0-93.0","37FMASSAYDDN59110LQDFDLQGMCIBB","A2YC6PEMIRSOAA","3UDTAB6HH6LRO17U79I9TKUGYFV09C","","null","<img src=""img/flower1.png"" style=""width:200px;border:14px solid red;"">","null","","","","","","","","",""
"","image-keyboard-response","94","43394","0.0-94.0","37FMASSAYDDN59110LQDFDLQGMCIBB","A2YC6PEMIRSOAA","3UDTAB6HH6LRO17U79I9TKUGYFV09C","","475.6000000014901","img/flower5.png","75","476.19999999552965","2","1","3","1","1,0.333,0.333,0.333,1,0.333,0.333,0.333,1","1,0.333,0.333,0.333,1,0.333,0.333,0.333,1","1",""
"","html-keyboard-response","95","43695","0.0-95.0","37FMASSAYDDN59110LQDFDLQGMCIBB","A2YC6PEMIRSOAA","3UDTAB6HH6LRO17U79I9TKUGYFV09C","","null","<img src=""img/flower5.png"" style=""width:200px; border:14px solid green;"">","null","","","","","","","","",""
"","image-keyboard-response","96","43977","0.0-96.0","37FMASSAYDDN59110LQDFDLQGMCIBB","A2YC6PEMIRSOAA","3UDTAB6HH6LRO17U79I9TKUGYFV09C","","280.70000000298023","img/flower4.png","75","281.29999999701977","2","0","1","1","1,0.333,0.333,0.333,1,0.333,0.333,0.333,1","1,0.333,0.333,0.333,1,0.333,0.333,0.333,1","1",""
"","html-keyboard-response","97","44278","0.0-97.0","37FMASSAYDDN59110LQDFDLQGMCIBB","A2YC6PEMIRSOAA","3UDTAB6HH6LRO17U79I9TKUGYFV09C","","null","<img src=""img/flower4.png"" style=""width:200px;border:14px solid red;"">","null","","","","","","","","",""
"","image-keyboard-response","98","44494","0.0-98.0","37FMASSAYDDN59110LQDFDLQGMCIBB","A2YC6PEMIRSOAA","3UDTAB6HH6LRO17U79I9TKUGYFV09C","","214.60000000149012","img/flower4.png","76","215.19999999552965","3","1","1","1","1,0.333,0.333,0.333,1,0.333,0.333,0.333,1","1,0.333,0.333,0.333,1,0.333,0.333,0.333,1","1",""
"","html-keyboard-response","99","44795","0.0-99.0","37FMASSAYDDN59110LQDFDLQGMCIBB","A2YC6PEMIRSOAA","3UDTAB6HH6LRO17U79I9TKUGYFV09C","","null","<img src=""img/flower4.png"" style=""width:200px; border:14px solid green;"">","null","","","","","","","","",""
"","image-keyboard-response","100","45029","0.0-100.0","37FMASSAYDDN59110LQDFDLQGMCIBB","A2YC6PEMIRSOAA","3UDTAB6HH6LRO17U79I9TKUGYFV09C","","233","img/flower1.png","76","233.60000000149012","3","0","2","1","1,0.333,0.333,0.333,1,0.333,0.333,0.333,1","1,0.333,0.333,0.333,1,0.333,0.333,0.333,1","1",""
"","html-keyboard-response","101","45331","0.0-101.0","37FMASSAYDDN59110LQDFDLQGMCIBB","A2YC6PEMIRSOAA","3UDTAB6HH6LRO17U79I9TKUGYFV09C","","null","<img src=""img/flower1.png"" style=""width:200px;border:14px solid red;"">","null","","","","","","","","",""
"","image-keyboard-response","102","46145","0.0-102.0","37FMASSAYDDN59110LQDFDLQGMCIBB","A2YC6PEMIRSOAA","3UDTAB6HH6LRO17U79I9TKUGYFV09C","","813.2999999970198","img/flower5.png","74","813.8999999985099","1","0","3","1","1,0.333,0.333,0.333,1,0.333,0.333,0.333,1","1,0.333,0.333,0.333,1,0.333,0.333,0.333,1","1",""
"","html-keyboard-response","103","46447","0.0-103.0","37FMASSAYDDN59110LQDFDLQGMCIBB","A2YC6PEMIRSOAA","3UDTAB6HH6LRO17U79I9TKUGYFV09C","","null","<img src=""img/flower5.png"" style=""width:200px;border:14px solid red;"">","null","","","","","","","","",""
"","image-keyboard-response","104","46687","0.0-104.0","37FMASSAYDDN59110LQDFDLQGMCIBB","A2YC6PEMIRSOAA","3UDTAB6HH6LRO17U79I9TKUGYFV09C","","238.80000000447035","img/flower5.png","75","239.39999999850988","2","0","3","1","1,0.333,0.333,0.333,1,0.333,0.333,0.333,1","1,0.333,0.333,0.333,1,0.333,0.333,0.333,1","1",""
"","html-keyboard-response","105","46988","0.0-105.0","37FMASSAYDDN59110LQDFDLQGMCIBB","A2YC6PEMIRSOAA","3UDTAB6HH6LRO17U79I9TKUGYFV09C","","null","<img src=""img/flower5.png"" style=""width:200px;border:14px solid red;"">","null","","","","","","","","",""
"","image-keyboard-response","106","47151","0.0-106.0","37FMASSAYDDN59110LQDFDLQGMCIBB","A2YC6PEMIRSOAA","3UDTAB6HH6LRO17U79I9TKUGYFV09C","","162.60000000149012","img/flower5.png","76","163.19999999552965","3","1","3","1","1,0.333,0.333,0.333,1,0.333,0.333,0.333,1","1,0.333,0.333,0.333,1,0.333,0.333,0.333,1","1",""
"","html-keyboard-response","107","47453","0.0-107.0","37FMASSAYDDN59110LQDFDLQGMCIBB","A2YC6PEMIRSOAA","3UDTAB6HH6LRO17U79I9TKUGYFV09C","","null","<img src=""img/flower5.png"" style=""width:200px; border:14px solid green;"">","null","","","","","","","","",""
"","image-keyboard-response","108","47775","0.0-108.0","37FMASSAYDDN59110LQDFDLQGMCIBB","A2YC6PEMIRSOAA","3UDTAB6HH6LRO17U79I9TKUGYFV09C","","322.1000000014901","img/flower1.png","76","322.8999999985099","3","0","2","1","1,0.333,0.333,0.333,1,0.333,0.333,0.333,1","1,0.333,0.333,0.333,1,0.333,0.333,0.333,1","1",""
"","html-keyboard-response","109","48078","0.0-109.0","37FMASSAYDDN59110LQDFDLQGMCIBB","A2YC6PEMIRSOAA","3UDTAB6HH6LRO17U79I9TKUGYFV09C","","null","<img src=""img/flower1.png"" style=""width:200px;border:14px solid red;"">","null","","","","","","","","",""
"","image-keyboard-response","110","48522","0.0-110.0","37FMASSAYDDN59110LQDFDLQGMCIBB","A2YC6PEMIRSOAA","3UDTAB6HH6LRO17U79I9TKUGYFV09C","","444.1000000014901","img/flower5.png","75","444.6000000014901","2","1","3","1","1,0.333,0.333,0.333,1,0.333,0.333,0.333,1","1,0.333,0.333,0.333,1,0.333,0.333,0.333,1","1",""
"","html-keyboard-response","111","48824","0.0-111.0","37FMASSAYDDN59110LQDFDLQGMCIBB","A2YC6PEMIRSOAA","3UDTAB6HH6LRO17U79I9TKUGYFV09C","","null","<img src=""img/flower5.png"" style=""width:200px; border:14px solid green;"">","null","","","","","","","","",""
"","image-keyboard-response","112","49096","0.0-112.0","37FMASSAYDDN59110LQDFDLQGMCIBB","A2YC6PEMIRSOAA","3UDTAB6HH6LRO17U79I9TKUGYFV09C","","271.80000000447035","img/flower1.png","75","272.3999999985099","2","1","2","1","1,0.333,0.333,0.333,1,0.333,0.333,0.333,1","1,0.333,0.333,0.333,1,0.333,0.333,0.333,1","1",""
"","html-keyboard-response","113","49398","0.0-113.0","37FMASSAYDDN59110LQDFDLQGMCIBB","A2YC6PEMIRSOAA","3UDTAB6HH6LRO17U79I9TKUGYFV09C","","null","<img src=""img/flower1.png"" style=""width:200px; border:14px solid green;"">","null","","","","","","","","",""
"","image-keyboard-response","114","49592","0.0-114.0","37FMASSAYDDN59110LQDFDLQGMCIBB","A2YC6PEMIRSOAA","3UDTAB6HH6LRO17U79I9TKUGYFV09C","","193.20000000298023","img/flower5.png","75","193.70000000298023","2","0","3","1","1,0.333,0.333,0.333,1,0.333,0.333,0.333,1","1,0.333,0.333,0.333,1,0.333,0.333,0.333,1","1",""
"","html-keyboard-response","115","49904","0.0-115.0","37FMASSAYDDN59110LQDFDLQGMCIBB","A2YC6PEMIRSOAA","3UDTAB6HH6LRO17U79I9TKUGYFV09C","","null","<img src=""img/flower5.png"" style=""width:200px;border:14px solid red;"">","null","","","","","","","","",""
"","image-keyboard-response","116","50193","0.0-116.0","37FMASSAYDDN59110LQDFDLQGMCIBB","A2YC6PEMIRSOAA","3UDTAB6HH6LRO17U79I9TKUGYFV09C","","288","img/flower4.png","76","288.70000000298023","3","1","1","1","1,0.333,0.333,0.333,1,0.333,0.333,0.333,1","1,0.333,0.333,0.333,1,0.333,0.333,0.333,1","1",""
"","html-keyboard-response","117","50494","0.0-117.0","37FMASSAYDDN59110LQDFDLQGMCIBB","A2YC6PEMIRSOAA","3UDTAB6HH6LRO17U79I9TKUGYFV09C","","null","<img src=""img/flower4.png"" style=""width:200px; border:14px solid green;"">","null","","","","","","","","",""
"","image-keyboard-response","118","50726","0.0-118.0","37FMASSAYDDN59110LQDFDLQGMCIBB","A2YC6PEMIRSOAA","3UDTAB6HH6LRO17U79I9TKUGYFV09C","","231.19999999552965","img/flower1.png","76","231.89999999850988","3","1","2","1","1,0.333,0.333,0.333,1,0.333,0.333,0.333,1","1,0.333,0.333,0.333,1,0.333,0.333,0.333,1","1",""
"","html-keyboard-response","119","51028","0.0-119.0","37FMASSAYDDN59110LQDFDLQGMCIBB","A2YC6PEMIRSOAA","3UDTAB6HH6LRO17U79I9TKUGYFV09C","","null","<img src=""img/flower1.png"" style=""width:200px; border:14px solid green;"">","null","","","","","","","","",""
"","image-keyboard-response","120","51183","0.0-120.0","37FMASSAYDDN59110LQDFDLQGMCIBB","A2YC6PEMIRSOAA","3UDTAB6HH6LRO17U79I9TKUGYFV09C","","153.70000000298023","img/flower4.png","76","154.19999999552965","3","0","1","1","1,0.333,0.333,0.333,1,0.333,0.333,0.333,1","1,0.333,0.333,0.333,1,0.333,0.333,0.333,1","1",""
"","html-keyboard-response","121","51483","0.0-121.0","37FMASSAYDDN59110LQDFDLQGMCIBB","A2YC6PEMIRSOAA","3UDTAB6HH6LRO17U79I9TKUGYFV09C","","null","<img src=""img/flower4.png"" style=""width:200px;border:14px solid red;"">","null","","","","","","","","",""
"","image-keyboard-response","122","51882","0.0-122.0","37FMASSAYDDN59110LQDFDLQGMCIBB","A2YC6PEMIRSOAA","3UDTAB6HH6LRO17U79I9TKUGYFV09C","","398.29999999701977","img/flower4.png","75","398.8999999985099","2","0","1","1","1,0.333,0.333,0.333,1,0.333,0.333,0.333,1","1,0.333,0.333,0.333,1,0.333,0.333,0.333,1","1",""
"","html-keyboard-response","123","52183","0.0-123.0","37FMASSAYDDN59110LQDFDLQGMCIBB","A2YC6PEMIRSOAA","3UDTAB6HH6LRO17U79I9TKUGYFV09C","","null","<img src=""img/flower4.png"" style=""width:200px;border:14px solid red;"">","null","","","","","","","","",""
"","image-keyboard-response","124","52552","0.0-124.0","37FMASSAYDDN59110LQDFDLQGMCIBB","A2YC6PEMIRSOAA","3UDTAB6HH6LRO17U79I9TKUGYFV09C","","367.5","img/flower4.png","74","368","1","1","1","1","1,0.333,0.333,0.333,1,0.333,0.333,0.333,1","1,0.333,0.333,0.333,1,0.333,0.333,0.333,1","1",""
"","html-keyboard-response","125","52853","0.0-125.0","37FMASSAYDDN59110LQDFDLQGMCIBB","A2YC6PEMIRSOAA","3UDTAB6HH6LRO17U79I9TKUGYFV09C","","null","<img src=""img/flower4.png"" style=""width:200px; border:14px solid green;"">","null","","","","","","","","",""
"","image-keyboard-response","126","53217","0.0-126.0","37FMASSAYDDN59110LQDFDLQGMCIBB","A2YC6PEMIRSOAA","3UDTAB6HH6LRO17U79I9TKUGYFV09C","","363.6000000014901","img/flower4.png","74","364.1000000014901","1","1","1","1","1,0.333,0.333,0.333,1,0.333,0.333,0.333,1","1,0.333,0.333,0.333,1,0.333,0.333,0.333,1","1",""
"","html-keyboard-response","127","53518","0.0-127.0","37FMASSAYDDN59110LQDFDLQGMCIBB","A2YC6PEMIRSOAA","3UDTAB6HH6LRO17U79I9TKUGYFV09C","","null","<img src=""img/flower4.png"" style=""width:200px; border:14px solid green;"">","null","","","","","","","","",""
"","image-keyboard-response","128","54064","0.0-128.0","37FMASSAYDDN59110LQDFDLQGMCIBB","A2YC6PEMIRSOAA","3UDTAB6HH6LRO17U79I9TKUGYFV09C","","545.2999999970198","img/flower5.png","74","546","1","0","3","1","1,0.333,0.333,0.333,1,0.333,0.333,0.333,1","1,0.333,0.333,0.333,1,0.333,0.333,0.333,1","1",""
"","html-keyboard-response","129","54365","0.0-129.0","37FMASSAYDDN59110LQDFDLQGMCIBB","A2YC6PEMIRSOAA","3UDTAB6HH6LRO17U79I9TKUGYFV09C","","null","<img src=""img/flower5.png"" style=""width:200px;border:14px solid red;"">","null","","","","","","","","",""
"","image-keyboard-response","130","54662","0.0-130.0","37FMASSAYDDN59110LQDFDLQGMCIBB","A2YC6PEMIRSOAA","3UDTAB6HH6LRO17U79I9TKUGYFV09C","","296.1000000014901","img/flower1.png","76","296.79999999701977","3","0","2","1","1,0.333,0.333,0.333,1,0.333,0.333,0.333,1","1,0.333,0.333,0.333,1,0.333,0.333,0.333,1","1",""
"","html-keyboard-response","131","54963","0.0-131.0","37FMASSAYDDN59110LQDFDLQGMCIBB","A2YC6PEMIRSOAA","3UDTAB6HH6LRO17U79I9TKUGYFV09C","","null","<img src=""img/flower1.png"" style=""width:200px;border:14px solid red;"">","null","","","","","","","","",""
"","image-keyboard-response","132","55148","0.0-132.0","37FMASSAYDDN59110LQDFDLQGMCIBB","A2YC6PEMIRSOAA","3UDTAB6HH6LRO17U79I9TKUGYFV09C","","184","img/flower1.png","75","184.69999999552965","2","1","2","1","1,0.333,0.333,0.333,1,0.333,0.333,0.333,1","1,0.333,0.333,0.333,1,0.333,0.333,0.333,1","1",""
"","html-keyboard-response","133","55449","0.0-133.0","37FMASSAYDDN59110LQDFDLQGMCIBB","A2YC6PEMIRSOAA","3UDTAB6HH6LRO17U79I9TKUGYFV09C","","null","<img src=""img/flower1.png"" style=""width:200px; border:14px solid green;"">","null","","","","","","","","",""
"","image-keyboard-response","134","55741","0.0-134.0","37FMASSAYDDN59110LQDFDLQGMCIBB","A2YC6PEMIRSOAA","3UDTAB6HH6LRO17U79I9TKUGYFV09C","","291.6000000014901","img/flower1.png","75","292.29999999701977","2","1","2","1","1,0.333,0.333,0.333,1,0.333,0.333,0.333,1","1,0.333,0.333,0.333,1,0.333,0.333,0.333,1","1",""
"","html-keyboard-response","135","56043","0.0-135.0","37FMASSAYDDN59110LQDFDLQGMCIBB","A2YC6PEMIRSOAA","3UDTAB6HH6LRO17U79I9TKUGYFV09C","","null","<img src=""img/flower1.png"" style=""width:200px; border:14px solid green;"">","null","","","","","","","","",""
"","image-keyboard-response","136","56323","0.0-136.0","37FMASSAYDDN59110LQDFDLQGMCIBB","A2YC6PEMIRSOAA","3UDTAB6HH6LRO17U79I9TKUGYFV09C","","279.5","img/flower4.png","75","280.1000000014901","2","1","1","1","1,0.333,0.333,0.333,1,0.333,0.333,0.333,1","1,0.333,0.333,0.333,1,0.333,0.333,0.333,1","1",""
"","html-keyboard-response","137","56623","0.0-137.0","37FMASSAYDDN59110LQDFDLQGMCIBB","A2YC6PEMIRSOAA","3UDTAB6HH6LRO17U79I9TKUGYFV09C","","null","<img src=""img/flower4.png"" style=""width:200px; border:14px solid green;"">","null","","","","","","","","",""
"","image-keyboard-response","138","56939","0.0-138.0","37FMASSAYDDN59110LQDFDLQGMCIBB","A2YC6PEMIRSOAA","3UDTAB6HH6LRO17U79I9TKUGYFV09C","","315.30000000447035","img/flower5.png","75","315.79999999701977","2","0","3","1","1,0.333,0.333,0.333,1,0.333,0.333,0.333,1","1,0.333,0.333,0.333,1,0.333,0.333,0.333,1","1",""
"","html-keyboard-response","139","57240","0.0-139.0","37FMASSAYDDN59110LQDFDLQGMCIBB","A2YC6PEMIRSOAA","3UDTAB6HH6LRO17U79I9TKUGYFV09C","","null","<img src=""img/flower5.png"" style=""width:200px;border:14px solid red;"">","null","","","","","","","","",""
"","image-keyboard-response","140","57525","0.0-140.0","37FMASSAYDDN59110LQDFDLQGMCIBB","A2YC6PEMIRSOAA","3UDTAB6HH6LRO17U79I9TKUGYFV09C","","284","img/flower4.png","76","284.6000000014901","3","0","1","1","1,0.333,0.333,0.333,1,0.333,0.333,0.333,1","1,0.333,0.333,0.333,1,0.333,0.333,0.333,1","1",""
"","html-keyboard-response","141","57827","0.0-141.0","37FMASSAYDDN59110LQDFDLQGMCIBB","A2YC6PEMIRSOAA","3UDTAB6HH6LRO17U79I9TKUGYFV09C","","null","<img src=""img/flower4.png"" style=""width:200px;border:14px solid red;"">","null","","","","","","","","",""
"","image-keyboard-response","142","58214","0.0-142.0","37FMASSAYDDN59110LQDFDLQGMCIBB","A2YC6PEMIRSOAA","3UDTAB6HH6LRO17U79I9TKUGYFV09C","","385.6000000014901","img/flower5.png","74","386.1000000014901","1","0","3","1","1,0.333,0.333,0.333,1,0.333,0.333,0.333,1","1,0.333,0.333,0.333,1,0.333,0.333,0.333,1","1",""
"","html-keyboard-response","143","58515","0.0-143.0","37FMASSAYDDN59110LQDFDLQGMCIBB","A2YC6PEMIRSOAA","3UDTAB6HH6LRO17U79I9TKUGYFV09C","","null","<img src=""img/flower5.png"" style=""width:200px;border:14px solid red;"">","null","","","","","","","","",""
"","image-keyboard-response","144","59067","0.0-144.0","37FMASSAYDDN59110LQDFDLQGMCIBB","A2YC6PEMIRSOAA","3UDTAB6HH6LRO17U79I9TKUGYFV09C","","552.3999999985099","img/flower5.png","75","552.8999999985099","2","1","3","1","1,0.333,0.333,0.333,1,0.333,0.333,0.333,1","1,0.333,0.333,0.333,1,0.333,0.333,0.333,1","1",""
"","html-keyboard-response","145","59368","0.0-145.0","37FMASSAYDDN59110LQDFDLQGMCIBB","A2YC6PEMIRSOAA","3UDTAB6HH6LRO17U79I9TKUGYFV09C","","null","<img src=""img/flower5.png"" style=""width:200px; border:14px solid green;"">","null","","","","","","","","",""
"","image-keyboard-response","146","59657","0.0-146.0","37FMASSAYDDN59110LQDFDLQGMCIBB","A2YC6PEMIRSOAA","3UDTAB6HH6LRO17U79I9TKUGYFV09C","","287.8999999985099","img/flower4.png","75","288.59999999403954","2","0","1","1","1,0.333,0.333,0.333,1,0.333,0.333,0.333,1","1,0.333,0.333,0.333,1,0.333,0.333,0.333,1","1",""
"","html-keyboard-response","147","59958","0.0-147.0","37FMASSAYDDN59110LQDFDLQGMCIBB","A2YC6PEMIRSOAA","3UDTAB6HH6LRO17U79I9TKUGYFV09C","","null","<img src=""img/flower4.png"" style=""width:200px;border:14px solid red;"">","null","","","","","","","","",""
"","image-keyboard-response","148","60331","0.0-148.0","37FMASSAYDDN59110LQDFDLQGMCIBB","A2YC6PEMIRSOAA","3UDTAB6HH6LRO17U79I9TKUGYFV09C","","371.3999999985099","img/flower4.png","76","372","3","1","1","1","1,0.333,0.333,0.333,1,0.333,0.333,0.333,1","1,0.333,0.333,0.333,1,0.333,0.333,0.333,1","1",""
"","html-keyboard-response","149","60644","0.0-149.0","37FMASSAYDDN59110LQDFDLQGMCIBB","A2YC6PEMIRSOAA","3UDTAB6HH6LRO17U79I9TKUGYFV09C","","null","<img src=""img/flower4.png"" style=""width:200px; border:14px solid green;"">","null","","","","","","","","",""
"","image-keyboard-response","150","60981","0.0-150.0","37FMASSAYDDN59110LQDFDLQGMCIBB","A2YC6PEMIRSOAA","3UDTAB6HH6LRO17U79I9TKUGYFV09C","","336.29999999701977","img/flower1.png","76","336.79999999701977","3","0","2","1","1,0.333,0.333,0.333,1,0.333,0.333,0.333,1","1,0.333,0.333,0.333,1,0.333,0.333,0.333,1","1",""
"","html-keyboard-response","151","61282","0.0-151.0","37FMASSAYDDN59110LQDFDLQGMCIBB","A2YC6PEMIRSOAA","3UDTAB6HH6LRO17U79I9TKUGYFV09C","","null","<img src=""img/flower1.png"" style=""width:200px;border:14px solid red;"">","null","","","","","","","","",""
"","image-keyboard-response","152","61575","0.0-152.0","37FMASSAYDDN59110LQDFDLQGMCIBB","A2YC6PEMIRSOAA","3UDTAB6HH6LRO17U79I9TKUGYFV09C","","291.79999999701977","img/flower1.png","75","292.5","2","1","2","1","1,0.333,0.333,0.333,1,0.333,0.333,0.333,1","1,0.333,0.333,0.333,1,0.333,0.333,0.333,1","1",""
"","html-keyboard-response","153","61877","0.0-153.0","37FMASSAYDDN59110LQDFDLQGMCIBB","A2YC6PEMIRSOAA","3UDTAB6HH6LRO17U79I9TKUGYFV09C","","null","<img src=""img/flower1.png"" style=""width:200px; border:14px solid green;"">","null","","","","","","","","",""
"","image-keyboard-response","154","62176","0.0-154.0","37FMASSAYDDN59110LQDFDLQGMCIBB","A2YC6PEMIRSOAA","3UDTAB6HH6LRO17U79I9TKUGYFV09C","","297.6000000014901","img/flower5.png","75","298.19999999552965","2","0","3","1","1,0.333,0.333,0.333,1,0.333,0.333,0.333,1","1,0.333,0.333,0.333,1,0.333,0.333,0.333,1","1",""
"","html-keyboard-response","155","62477","0.0-155.0","37FMASSAYDDN59110LQDFDLQGMCIBB","A2YC6PEMIRSOAA","3UDTAB6HH6LRO17U79I9TKUGYFV09C","","null","<img src=""img/flower5.png"" style=""width:200px;border:14px solid red;"">","null","","","","","","","","",""
"","image-keyboard-response","156","62962","0.0-156.0","37FMASSAYDDN59110LQDFDLQGMCIBB","A2YC6PEMIRSOAA","3UDTAB6HH6LRO17U79I9TKUGYFV09C","","484.30000000447035","img/flower1.png","74","484.8999999985099","1","0","2","1","1,0.333,0.333,0.333,1,0.333,0.333,0.333,1","1,0.333,0.333,0.333,1,0.333,0.333,0.333,1","1",""
"","html-keyboard-response","157","63273","0.0-157.0","37FMASSAYDDN59110LQDFDLQGMCIBB","A2YC6PEMIRSOAA","3UDTAB6HH6LRO17U79I9TKUGYFV09C","","null","<img src=""img/flower1.png"" style=""width:200px;border:14px solid red;"">","null","","","","","","","","",""
"","image-keyboard-response","158","63500","0.0-158.0","37FMASSAYDDN59110LQDFDLQGMCIBB","A2YC6PEMIRSOAA","3UDTAB6HH6LRO17U79I9TKUGYFV09C","","226.39999999850988","img/flower5.png","76","226.89999999850988","3","1","3","1","1,0.333,0.333,0.333,1,0.333,0.333,0.333,1","1,0.333,0.333,0.333,1,0.333,0.333,0.333,1","1",""
"","html-keyboard-response","159","63802","0.0-159.0","37FMASSAYDDN59110LQDFDLQGMCIBB","A2YC6PEMIRSOAA","3UDTAB6HH6LRO17U79I9TKUGYFV09C","","null","<img src=""img/flower5.png"" style=""width:200px; border:14px solid green;"">","null","","","","","","","","",""
"","image-keyboard-response","160","64120","0.0-160.0","37FMASSAYDDN59110LQDFDLQGMCIBB","A2YC6PEMIRSOAA","3UDTAB6HH6LRO17U79I9TKUGYFV09C","","316.79999999701977","img/flower5.png","76","317.29999999701977","3","1","3","1","1,0.333,0.333,0.333,1,0.333,0.333,0.333,1","1,0.333,0.333,0.333,1,0.333,0.333,0.333,1","1",""
"","html-keyboard-response","161","64422","0.0-161.0","37FMASSAYDDN59110LQDFDLQGMCIBB","A2YC6PEMIRSOAA","3UDTAB6HH6LRO17U79I9TKUGYFV09C","","null","<img src=""img/flower5.png"" style=""width:200px; border:14px solid green;"">","null","","","","","","","","",""
"","image-keyboard-response","162","65197","0.0-162.0","37FMASSAYDDN59110LQDFDLQGMCIBB","A2YC6PEMIRSOAA","3UDTAB6HH6LRO17U79I9TKUGYFV09C","","774.7999999970198","img/flower4.png","75","775.1999999955297","2","1","1","1","1,0.333,0.333,0.333,1,0.333,0.333,0.333,1","1,0.333,0.333,0.333,1,0.333,0.333,0.333,1","1",""
"","html-keyboard-response","163","65507","0.0-163.0","37FMASSAYDDN59110LQDFDLQGMCIBB","A2YC6PEMIRSOAA","3UDTAB6HH6LRO17U79I9TKUGYFV09C","","null","<img src=""img/flower4.png"" style=""width:200px; border:14px solid green;"">","null","","","","","","","","",""
"","image-keyboard-response","164","66004","0.0-164.0","37FMASSAYDDN59110LQDFDLQGMCIBB","A2YC6PEMIRSOAA","3UDTAB6HH6LRO17U79I9TKUGYFV09C","","496.1000000014901","img/flower4.png","75","496.79999999701977","2","0","1","1","1,0.333,0.333,0.333,1,0.333,0.333,0.333,1","1,0.333,0.333,0.333,1,0.333,0.333,0.333,1","1",""
"","html-keyboard-response","165","66306","0.0-165.0","37FMASSAYDDN59110LQDFDLQGMCIBB","A2YC6PEMIRSOAA","3UDTAB6HH6LRO17U79I9TKUGYFV09C","","null","<img src=""img/flower4.png"" style=""width:200px;border:14px solid red;"">","null","","","","","","","","",""
"","image-keyboard-response","166","66787","0.0-166.0","37FMASSAYDDN59110LQDFDLQGMCIBB","A2YC6PEMIRSOAA","3UDTAB6HH6LRO17U79I9TKUGYFV09C","","480.30000000447035","img/flower5.png","76","481","3","1","3","1","1,0.333,0.333,0.333,1,0.333,0.333,0.333,1","1,0.333,0.333,0.333,1,0.333,0.333,0.333,1","1",""
"","html-keyboard-response","167","67089","0.0-167.0","37FMASSAYDDN59110LQDFDLQGMCIBB","A2YC6PEMIRSOAA","3UDTAB6HH6LRO17U79I9TKUGYFV09C","","null","<img src=""img/flower5.png"" style=""width:200px; border:14px solid green;"">","null","","","","","","","","",""
"","image-keyboard-response","168","67841","0.0-168.0","37FMASSAYDDN59110LQDFDLQGMCIBB","A2YC6PEMIRSOAA","3UDTAB6HH6LRO17U79I9TKUGYFV09C","","751.3999999985099","img/flower1.png","75","751.8999999985099","2","1","2","1","1,0.333,0.333,0.333,1,0.333,0.333,0.333,1","1,0.333,0.333,0.333,1,0.333,0.333,0.333,1","1",""
"","html-keyboard-response","169","68142","0.0-169.0","37FMASSAYDDN59110LQDFDLQGMCIBB","A2YC6PEMIRSOAA","3UDTAB6HH6LRO17U79I9TKUGYFV09C","","null","<img src=""img/flower1.png"" style=""width:200px; border:14px solid green;"">","null","","","","","","","","",""
"","image-keyboard-response","170","68445","0.0-170.0","37FMASSAYDDN59110LQDFDLQGMCIBB","A2YC6PEMIRSOAA","3UDTAB6HH6LRO17U79I9TKUGYFV09C","","302.20000000298023","img/flower4.png","75","302.8999999985099","2","0","1","1","1,0.333,0.333,0.333,1,0.333,0.333,0.333,1","1,0.333,0.333,0.333,1,0.333,0.333,0.333,1","1",""
"","html-keyboard-response","171","68746","0.0-171.0","37FMASSAYDDN59110LQDFDLQGMCIBB","A2YC6PEMIRSOAA","3UDTAB6HH6LRO17U79I9TKUGYFV09C","","null","<img src=""img/flower4.png"" style=""width:200px;border:14px solid red;"">","null","","","","","","","","",""
"","image-keyboard-response","172","69055","0.0-172.0","37FMASSAYDDN59110LQDFDLQGMCIBB","A2YC6PEMIRSOAA","3UDTAB6HH6LRO17U79I9TKUGYFV09C","","308.3999999985099","img/flower5.png","76","309.1000000014901","3","1","3","1","1,0.333,0.333,0.333,1,0.333,0.333,0.333,1","1,0.333,0.333,0.333,1,0.333,0.333,0.333,1","1",""
"","html-keyboard-response","173","69357","0.0-173.0","37FMASSAYDDN59110LQDFDLQGMCIBB","A2YC6PEMIRSOAA","3UDTAB6HH6LRO17U79I9TKUGYFV09C","","null","<img src=""img/flower5.png"" style=""width:200px; border:14px solid green;"">","null","","","","","","","","",""
"","image-keyboard-response","174","69741","0.0-174.0","37FMASSAYDDN59110LQDFDLQGMCIBB","A2YC6PEMIRSOAA","3UDTAB6HH6LRO17U79I9TKUGYFV09C","","382.69999999552965","img/flower1.png","76","383.40000000596046","3","1","2","1","1,0.333,0.333,0.333,1,0.333,0.333,0.333,1","1,0.333,0.333,0.333,1,0.333,0.333,0.333,1","1",""
"","html-keyboard-response","175","70042","0.0-175.0","37FMASSAYDDN59110LQDFDLQGMCIBB","A2YC6PEMIRSOAA","3UDTAB6HH6LRO17U79I9TKUGYFV09C","","null","<img src=""img/flower1.png"" style=""width:200px; border:14px solid green;"">","null","","","","","","","","",""
"","image-keyboard-response","176","70321","0.0-176.0","37FMASSAYDDN59110LQDFDLQGMCIBB","A2YC6PEMIRSOAA","3UDTAB6HH6LRO17U79I9TKUGYFV09C","","278.30000000447035","img/flower1.png","76","278.8999999985099","3","0","2","1","1,0.333,0.333,0.333,1,0.333,0.333,0.333,1","1,0.333,0.333,0.333,1,0.333,0.333,0.333,1","1",""
"","html-keyboard-response","177","70636","0.0-177.0","37FMASSAYDDN59110LQDFDLQGMCIBB","A2YC6PEMIRSOAA","3UDTAB6HH6LRO17U79I9TKUGYFV09C","","null","<img src=""img/flower1.png"" style=""width:200px;border:14px solid red;"">","null","","","","","","","","",""
"","image-keyboard-response","178","70947","0.0-178.0","37FMASSAYDDN59110LQDFDLQGMCIBB","A2YC6PEMIRSOAA","3UDTAB6HH6LRO17U79I9TKUGYFV09C","","310.30000000447035","img/flower5.png","74","311","1","0","3","1","1,0.333,0.333,0.333,1,0.333,0.333,0.333,1","1,0.333,0.333,0.333,1,0.333,0.333,0.333,1","1",""
"","html-keyboard-response","179","71248","0.0-179.0","37FMASSAYDDN59110LQDFDLQGMCIBB","A2YC6PEMIRSOAA","3UDTAB6HH6LRO17U79I9TKUGYFV09C","","null","<img src=""img/flower5.png"" style=""width:200px;border:14px solid red;"">","null","","","","","","","","",""
"","image-keyboard-response","180","71691","0.0-180.0","37FMASSAYDDN59110LQDFDLQGMCIBB","A2YC6PEMIRSOAA","3UDTAB6HH6LRO17U79I9TKUGYFV09C","","442.69999999552965","img/flower1.png","75","443.30000000447035","2","1","2","1","1,0.333,0.333,0.333,1,0.333,0.333,0.333,1","1,0.333,0.333,0.333,1,0.333,0.333,0.333,1","1",""
"","html-keyboard-response","181","71993","0.0-181.0","37FMASSAYDDN59110LQDFDLQGMCIBB","A2YC6PEMIRSOAA","3UDTAB6HH6LRO17U79I9TKUGYFV09C","","null","<img src=""img/flower1.png"" style=""width:200px; border:14px solid green;"">","null","","","","","","","","",""
"","html-keyboard-response","182","74726","0.0-182.0","37FMASSAYDDN59110LQDFDLQGMCIBB","A2YC6PEMIRSOAA","3UDTAB6HH6LRO17U79I9TKUGYFV09C","","","","","","","","","","","","",""
"","image-keyboard-response","183","75941","0.0-183.0","37FMASSAYDDN59110LQDFDLQGMCIBB","A2YC6PEMIRSOAA","3UDTAB6HH6LRO17U79I9TKUGYFV09C","","1214.1000000014901","img/flower2.png","75","1214.8999999985099","2","0","1","2","1,0,0,1,1,0,1,0,1","0,0,1,1,0,1,0,1,1","2",""
"","html-keyboard-response","184","76257","0.0-184.0","37FMASSAYDDN59110LQDFDLQGMCIBB","A2YC6PEMIRSOAA","3UDTAB6HH6LRO17U79I9TKUGYFV09C","","null","<img src=""img/flower2.png"" style=""width:200px;border:14px solid red;"">","null","","","","","","","","",""
"","image-keyboard-response","185","76499","0.0-185.0","37FMASSAYDDN59110LQDFDLQGMCIBB","A2YC6PEMIRSOAA","3UDTAB6HH6LRO17U79I9TKUGYFV09C","","241.59999999403954","img/flower2.png","76","242.30000000447035","3","1","1","2","1,0,0,1,1,0,1,0,1","0,0,1,1,0,1,0,1,1","2",""
"","html-keyboard-response","186","76800","0.0-186.0","37FMASSAYDDN59110LQDFDLQGMCIBB","A2YC6PEMIRSOAA","3UDTAB6HH6LRO17U79I9TKUGYFV09C","","null","<img src=""img/flower2.png"" style=""width:200px; border:14px solid green;"">","null","","","","","","","","",""
"","image-keyboard-response","187","77057","0.0-187.0","37FMASSAYDDN59110LQDFDLQGMCIBB","A2YC6PEMIRSOAA","3UDTAB6HH6LRO17U79I9TKUGYFV09C","","256.69999999552965","img/flower3.png","76","257.40000000596046","3","1","2","2","1,0,0,1,1,0,1,0,1","0,0,1,1,0,1,0,1,1","2",""
"","html-keyboard-response","188","77359","0.0-188.0","37FMASSAYDDN59110LQDFDLQGMCIBB","A2YC6PEMIRSOAA","3UDTAB6HH6LRO17U79I9TKUGYFV09C","","null","<img src=""img/flower3.png"" style=""width:200px; border:14px solid green;"">","null","","","","","","","","",""
"","image-keyboard-response","189","77820","0.0-189.0","37FMASSAYDDN59110LQDFDLQGMCIBB","A2YC6PEMIRSOAA","3UDTAB6HH6LRO17U79I9TKUGYFV09C","","459.70000000298023","img/flower3.png","76","460.20000000298023","3","1","2","2","1,0,0,1,1,0,1,0,1","0,0,1,1,0,1,0,1,1","2",""
"","html-keyboard-response","190","78121","0.0-190.0","37FMASSAYDDN59110LQDFDLQGMCIBB","A2YC6PEMIRSOAA","3UDTAB6HH6LRO17U79I9TKUGYFV09C","","null","<img src=""img/flower3.png"" style=""width:200px; border:14px solid green;"">","null","","","","","","","","",""
"","image-keyboard-response","191","78788","0.0-191.0","37FMASSAYDDN59110LQDFDLQGMCIBB","A2YC6PEMIRSOAA","3UDTAB6HH6LRO17U79I9TKUGYFV09C","","666.3000000044703","img/flower2.png","74","666.8999999985099","1","0","1","2","1,0,0,1,1,0,1,0,1","0,0,1,1,0,1,0,1,1","2",""
"","html-keyboard-response","192","79090","0.0-192.0","37FMASSAYDDN59110LQDFDLQGMCIBB","A2YC6PEMIRSOAA","3UDTAB6HH6LRO17U79I9TKUGYFV09C","","null","<img src=""img/flower2.png"" style=""width:200px;border:14px solid red;"">","null","","","","","","","","",""
"","image-keyboard-response","193","79788","0.0-193.0","37FMASSAYDDN59110LQDFDLQGMCIBB","A2YC6PEMIRSOAA","3UDTAB6HH6LRO17U79I9TKUGYFV09C","","697.1999999955297","img/flower6.png","75","697.7000000029802","2","1","3","2","1,0,0,1,1,0,1,0,1","0,0,1,1,0,1,0,1,1","2",""
"","html-keyboard-response","194","80089","0.0-194.0","37FMASSAYDDN59110LQDFDLQGMCIBB","A2YC6PEMIRSOAA","3UDTAB6HH6LRO17U79I9TKUGYFV09C","","null","<img src=""img/flower6.png"" style=""width:200px; border:14px solid green;"">","null","","","","","","","","",""
"","image-keyboard-response","195","80377","0.0-195.0","37FMASSAYDDN59110LQDFDLQGMCIBB","A2YC6PEMIRSOAA","3UDTAB6HH6LRO17U79I9TKUGYFV09C","","286.5","img/flower3.png","75","287.09999999403954","2","0","2","2","1,0,0,1,1,0,1,0,1","0,0,1,1,0,1,0,1,1","2",""
"","html-keyboard-response","196","80679","0.0-196.0","37FMASSAYDDN59110LQDFDLQGMCIBB","A2YC6PEMIRSOAA","3UDTAB6HH6LRO17U79I9TKUGYFV09C","","null","<img src=""img/flower3.png"" style=""width:200px;border:14px solid red;"">","null","","","","","","","","",""
"","image-keyboard-response","197","81061","0.0-197.0","37FMASSAYDDN59110LQDFDLQGMCIBB","A2YC6PEMIRSOAA","3UDTAB6HH6LRO17U79I9TKUGYFV09C","","381.20000000298023","img/flower3.png","76","381.8999999985099","3","1","2","2","1,0,0,1,1,0,1,0,1","0,0,1,1,0,1,0,1,1","2",""
"","html-keyboard-response","198","81362","0.0-198.0","37FMASSAYDDN59110LQDFDLQGMCIBB","A2YC6PEMIRSOAA","3UDTAB6HH6LRO17U79I9TKUGYFV09C","","null","<img src=""img/flower3.png"" style=""width:200px; border:14px solid green;"">","null","","","","","","","","",""
"","image-keyboard-response","199","82035","0.0-199.0","37FMASSAYDDN59110LQDFDLQGMCIBB","A2YC6PEMIRSOAA","3UDTAB6HH6LRO17U79I9TKUGYFV09C","","672.5","img/flower6.png","75","673.1000000014901","2","1","3","2","1,0,0,1,1,0,1,0,1","0,0,1,1,0,1,0,1,1","2",""
"","html-keyboard-response","200","82337","0.0-200.0","37FMASSAYDDN59110LQDFDLQGMCIBB","A2YC6PEMIRSOAA","3UDTAB6HH6LRO17U79I9TKUGYFV09C","","null","<img src=""img/flower6.png"" style=""width:200px; border:14px solid green;"">","null","","","","","","","","",""
"","image-keyboard-response","201","82777","0.0-201.0","37FMASSAYDDN59110LQDFDLQGMCIBB","A2YC6PEMIRSOAA","3UDTAB6HH6LRO17U79I9TKUGYFV09C","","439.80000000447035","img/flower3.png","76","440.5","3","1","2","2","1,0,0,1,1,0,1,0,1","0,0,1,1,0,1,0,1,1","2",""
"","html-keyboard-response","202","83078","0.0-202.0","37FMASSAYDDN59110LQDFDLQGMCIBB","A2YC6PEMIRSOAA","3UDTAB6HH6LRO17U79I9TKUGYFV09C","","null","<img src=""img/flower3.png"" style=""width:200px; border:14px solid green;"">","null","","","","","","","","",""
"","image-keyboard-response","203","83689","0.0-203.0","37FMASSAYDDN59110LQDFDLQGMCIBB","A2YC6PEMIRSOAA","3UDTAB6HH6LRO17U79I9TKUGYFV09C","","610.2000000029802","img/flower3.png","76","610.7999999970198","3","1","2","2","1,0,0,1,1,0,1,0,1","0,0,1,1,0,1,0,1,1","2",""
"","html-keyboard-response","204","83990","0.0-204.0","37FMASSAYDDN59110LQDFDLQGMCIBB","A2YC6PEMIRSOAA","3UDTAB6HH6LRO17U79I9TKUGYFV09C","","null","<img src=""img/flower3.png"" style=""width:200px; border:14px solid green;"">","null","","","","","","","","",""
"","image-keyboard-response","205","84639","0.0-205.0","37FMASSAYDDN59110LQDFDLQGMCIBB","A2YC6PEMIRSOAA","3UDTAB6HH6LRO17U79I9TKUGYFV09C","","647.7999999970198","img/flower6.png","75","648.4000000059605","2","1","3","2","1,0,0,1,1,0,1,0,1","0,0,1,1,0,1,0,1,1","2",""
"","html-keyboard-response","206","84940","0.0-206.0","37FMASSAYDDN59110LQDFDLQGMCIBB","A2YC6PEMIRSOAA","3UDTAB6HH6LRO17U79I9TKUGYFV09C","","null","<img src=""img/flower6.png"" style=""width:200px; border:14px solid green;"">","null","","","","","","","","",""
"","image-keyboard-response","207","85840","0.0-207.0","37FMASSAYDDN59110LQDFDLQGMCIBB","A2YC6PEMIRSOAA","3UDTAB6HH6LRO17U79I9TKUGYFV09C","","898.8999999985099","img/flower2.png","74","899.5","1","0","1","2","1,0,0,1,1,0,1,0,1","0,0,1,1,0,1,0,1,1","2",""
"","html-keyboard-response","208","86142","0.0-208.0","37FMASSAYDDN59110LQDFDLQGMCIBB","A2YC6PEMIRSOAA","3UDTAB6HH6LRO17U79I9TKUGYFV09C","","null","<img src=""img/flower2.png"" style=""width:200px;border:14px solid red;"">","null","","","","","","","","",""
"","image-keyboard-response","209","86438","0.0-209.0","37FMASSAYDDN59110LQDFDLQGMCIBB","A2YC6PEMIRSOAA","3UDTAB6HH6LRO17U79I9TKUGYFV09C","","295.20000000298023","img/flower2.png","76","295.69999999552965","3","1","1","2","1,0,0,1,1,0,1,0,1","0,0,1,1,0,1,0,1,1","2",""
"","html-keyboard-response","210","86740","0.0-210.0","37FMASSAYDDN59110LQDFDLQGMCIBB","A2YC6PEMIRSOAA","3UDTAB6HH6LRO17U79I9TKUGYFV09C","","null","<img src=""img/flower2.png"" style=""width:200px; border:14px solid green;"">","null","","","","","","","","",""
"","image-keyboard-response","211","87413","0.0-211.0","37FMASSAYDDN59110LQDFDLQGMCIBB","A2YC6PEMIRSOAA","3UDTAB6HH6LRO17U79I9TKUGYFV09C","","672","img/flower6.png","75","672.5999999940395","2","1","3","2","1,0,0,1,1,0,1,0,1","0,0,1,1,0,1,0,1,1","2",""
"","html-keyboard-response","212","87715","0.0-212.0","37FMASSAYDDN59110LQDFDLQGMCIBB","A2YC6PEMIRSOAA","3UDTAB6HH6LRO17U79I9TKUGYFV09C","","null","<img src=""img/flower6.png"" style=""width:200px; border:14px solid green;"">","null","","","","","","","","",""
"","image-keyboard-response","213","88879","0.0-213.0","37FMASSAYDDN59110LQDFDLQGMCIBB","A2YC6PEMIRSOAA","3UDTAB6HH6LRO17U79I9TKUGYFV09C","","1163.2999999970198","img/flower3.png","76","1164","3","1","2","2","1,0,0,1,1,0,1,0,1","0,0,1,1,0,1,0,1,1","2",""
"","html-keyboard-response","214","89180","0.0-214.0","37FMASSAYDDN59110LQDFDLQGMCIBB","A2YC6PEMIRSOAA","3UDTAB6HH6LRO17U79I9TKUGYFV09C","","null","<img src=""img/flower3.png"" style=""width:200px; border:14px solid green;"">","null","","","","","","","","",""
"","image-keyboard-response","215","89634","0.0-215.0","37FMASSAYDDN59110LQDFDLQGMCIBB","A2YC6PEMIRSOAA","3UDTAB6HH6LRO17U79I9TKUGYFV09C","","452.70000000298023","img/flower2.png","76","453.29999999701977","3","1","1","2","1,0,0,1,1,0,1,0,1","0,0,1,1,0,1,0,1,1","2",""
"","html-keyboard-response","216","89935","0.0-216.0","37FMASSAYDDN59110LQDFDLQGMCIBB","A2YC6PEMIRSOAA","3UDTAB6HH6LRO17U79I9TKUGYFV09C","","null","<img src=""img/flower2.png"" style=""width:200px; border:14px solid green;"">","null","","","","","","","","",""
"","image-keyboard-response","217","90277","0.0-217.0","37FMASSAYDDN59110LQDFDLQGMCIBB","A2YC6PEMIRSOAA","3UDTAB6HH6LRO17U79I9TKUGYFV09C","","340.8999999985099","img/flower2.png","76","341.40000000596046","3","1","1","2","1,0,0,1,1,0,1,0,1","0,0,1,1,0,1,0,1,1","2",""
"","html-keyboard-response","218","90578","0.0-218.0","37FMASSAYDDN59110LQDFDLQGMCIBB","A2YC6PEMIRSOAA","3UDTAB6HH6LRO17U79I9TKUGYFV09C","","null","<img src=""img/flower2.png"" style=""width:200px; border:14px solid green;"">","null","","","","","","","","",""
"","image-keyboard-response","219","91094","0.0-219.0","37FMASSAYDDN59110LQDFDLQGMCIBB","A2YC6PEMIRSOAA","3UDTAB6HH6LRO17U79I9TKUGYFV09C","","514.6000000014901","img/flower3.png","75","515.3000000044703","2","0","2","2","1,0,0,1,1,0,1,0,1","0,0,1,1,0,1,0,1,1","2",""
"","html-keyboard-response","220","91395","0.0-220.0","37FMASSAYDDN59110LQDFDLQGMCIBB","A2YC6PEMIRSOAA","3UDTAB6HH6LRO17U79I9TKUGYFV09C","","null","<img src=""img/flower3.png"" style=""width:200px;border:14px solid red;"">","null","","","","","","","","",""
"","image-keyboard-response","221","92200","0.0-221.0","37FMASSAYDDN59110LQDFDLQGMCIBB","A2YC6PEMIRSOAA","3UDTAB6HH6LRO17U79I9TKUGYFV09C","","804.1000000014901","img/flower6.png","75","804.7999999970198","2","1","3","2","1,0,0,1,1,0,1,0,1","0,0,1,1,0,1,0,1,1","2",""
"","html-keyboard-response","222","92501","0.0-222.0","37FMASSAYDDN59110LQDFDLQGMCIBB","A2YC6PEMIRSOAA","3UDTAB6HH6LRO17U79I9TKUGYFV09C","","null","<img src=""img/flower6.png"" style=""width:200px; border:14px solid green;"">","null","","","","","","","","",""
"","image-keyboard-response","223","93022","0.0-223.0","37FMASSAYDDN59110LQDFDLQGMCIBB","A2YC6PEMIRSOAA","3UDTAB6HH6LRO17U79I9TKUGYFV09C","","519.8999999985099","img/flower2.png","76","520.5999999940395","3","1","1","2","1,0,0,1,1,0,1,0,1","0,0,1,1,0,1,0,1,1","2",""
"","html-keyboard-response","224","93324","0.0-224.0","37FMASSAYDDN59110LQDFDLQGMCIBB","A2YC6PEMIRSOAA","3UDTAB6HH6LRO17U79I9TKUGYFV09C","","null","<img src=""img/flower2.png"" style=""width:200px; border:14px solid green;"">","null","","","","","","","","",""
"","image-keyboard-response","225","93721","0.0-225.0","37FMASSAYDDN59110LQDFDLQGMCIBB","A2YC6PEMIRSOAA","3UDTAB6HH6LRO17U79I9TKUGYFV09C","","397","img/flower2.png","76","397.70000000298023","3","1","1","2","1,0,0,1,1,0,1,0,1","0,0,1,1,0,1,0,1,1","2",""
"","html-keyboard-response","226","94023","0.0-226.0","37FMASSAYDDN59110LQDFDLQGMCIBB","A2YC6PEMIRSOAA","3UDTAB6HH6LRO17U79I9TKUGYFV09C","","null","<img src=""img/flower2.png"" style=""width:200px; border:14px solid green;"">","null","","","","","","","","",""
"","image-keyboard-response","227","94568","0.0-227.0","37FMASSAYDDN59110LQDFDLQGMCIBB","A2YC6PEMIRSOAA","3UDTAB6HH6LRO17U79I9TKUGYFV09C","","544.8000000044703","img/flower6.png","75","545.5","2","1","3","2","1,0,0,1,1,0,1,0,1","0,0,1,1,0,1,0,1,1","2",""
"","html-keyboard-response","228","94869","0.0-228.0","37FMASSAYDDN59110LQDFDLQGMCIBB","A2YC6PEMIRSOAA","3UDTAB6HH6LRO17U79I9TKUGYFV09C","","null","<img src=""img/flower6.png"" style=""width:200px; border:14px solid green;"">","null","","","","","","","","",""
"","image-keyboard-response","229","95631","0.0-229.0","37FMASSAYDDN59110LQDFDLQGMCIBB","A2YC6PEMIRSOAA","3UDTAB6HH6LRO17U79I9TKUGYFV09C","","761.1000000014901","img/flower3.png","76","761.7000000029802","3","1","2","2","1,0,0,1,1,0,1,0,1","0,0,1,1,0,1,0,1,1","2",""
"","html-keyboard-response","230","95932","0.0-230.0","37FMASSAYDDN59110LQDFDLQGMCIBB","A2YC6PEMIRSOAA","3UDTAB6HH6LRO17U79I9TKUGYFV09C","","null","<img src=""img/flower3.png"" style=""width:200px; border:14px solid green;"">","null","","","","","","","","",""
"","image-keyboard-response","231","96259","0.0-231.0","37FMASSAYDDN59110LQDFDLQGMCIBB","A2YC6PEMIRSOAA","3UDTAB6HH6LRO17U79I9TKUGYFV09C","","326.1000000014901","img/flower3.png","76","326.69999999552965","3","1","2","2","1,0,0,1,1,0,1,0,1","0,0,1,1,0,1,0,1,1","2",""
"","html-keyboard-response","232","96561","0.0-232.0","37FMASSAYDDN59110LQDFDLQGMCIBB","A2YC6PEMIRSOAA","3UDTAB6HH6LRO17U79I9TKUGYFV09C","","null","<img src=""img/flower3.png"" style=""width:200px; border:14px solid green;"">","null","","","","","","","","",""
"","image-keyboard-response","233","96952","0.0-233.0","37FMASSAYDDN59110LQDFDLQGMCIBB","A2YC6PEMIRSOAA","3UDTAB6HH6LRO17U79I9TKUGYFV09C","","390.59999999403954","img/flower3.png","76","391.30000000447035","3","1","2","2","1,0,0,1,1,0,1,0,1","0,0,1,1,0,1,0,1,1","2",""
"","html-keyboard-response","234","97254","0.0-234.0","37FMASSAYDDN59110LQDFDLQGMCIBB","A2YC6PEMIRSOAA","3UDTAB6HH6LRO17U79I9TKUGYFV09C","","null","<img src=""img/flower3.png"" style=""width:200px; border:14px solid green;"">","null","","","","","","","","",""
"","image-keyboard-response","235","97578","0.0-235.0","37FMASSAYDDN59110LQDFDLQGMCIBB","A2YC6PEMIRSOAA","3UDTAB6HH6LRO17U79I9TKUGYFV09C","","323.8999999985099","img/flower3.png","76","324.5","3","1","2","2","1,0,0,1,1,0,1,0,1","0,0,1,1,0,1,0,1,1","2",""
"","html-keyboard-response","236","97880","0.0-236.0","37FMASSAYDDN59110LQDFDLQGMCIBB","A2YC6PEMIRSOAA","3UDTAB6HH6LRO17U79I9TKUGYFV09C","","null","<img src=""img/flower3.png"" style=""width:200px; border:14px solid green;"">","null","","","","","","","","",""
"","image-keyboard-response","237","98223","0.0-237.0","37FMASSAYDDN59110LQDFDLQGMCIBB","A2YC6PEMIRSOAA","3UDTAB6HH6LRO17U79I9TKUGYFV09C","","342.80000000447035","img/flower3.png","76","343.5","3","1","2","2","1,0,0,1,1,0,1,0,1","0,0,1,1,0,1,0,1,1","2",""
"","html-keyboard-response","238","98524","0.0-238.0","37FMASSAYDDN59110LQDFDLQGMCIBB","A2YC6PEMIRSOAA","3UDTAB6HH6LRO17U79I9TKUGYFV09C","","null","<img src=""img/flower3.png"" style=""width:200px; border:14px solid green;"">","null","","","","","","","","",""
"","image-keyboard-response","239","99036","0.0-239.0","37FMASSAYDDN59110LQDFDLQGMCIBB","A2YC6PEMIRSOAA","3UDTAB6HH6LRO17U79I9TKUGYFV09C","","511","img/flower2.png","75","511.5","2","0","1","2","1,0,0,1,1,0,1,0,1","0,0,1,1,0,1,0,1,1","2",""
"","html-keyboard-response","240","99338","0.0-240.0","37FMASSAYDDN59110LQDFDLQGMCIBB","A2YC6PEMIRSOAA","3UDTAB6HH6LRO17U79I9TKUGYFV09C","","null","<img src=""img/flower2.png"" style=""width:200px;border:14px solid red;"">","null","","","","","","","","",""
"","image-keyboard-response","241","99536","0.0-241.0","37FMASSAYDDN59110LQDFDLQGMCIBB","A2YC6PEMIRSOAA","3UDTAB6HH6LRO17U79I9TKUGYFV09C","","197.80000000447035","img/flower6.png","76","198.5","3","1","3","2","1,0,0,1,1,0,1,0,1","0,0,1,1,0,1,0,1,1","2",""
"","html-keyboard-response","242","99837","0.0-242.0","37FMASSAYDDN59110LQDFDLQGMCIBB","A2YC6PEMIRSOAA","3UDTAB6HH6LRO17U79I9TKUGYFV09C","","null","<img src=""img/flower6.png"" style=""width:200px; border:14px solid green;"">","null","","","","","","","","",""
"","image-keyboard-response","243","100568","0.0-243.0","37FMASSAYDDN59110LQDFDLQGMCIBB","A2YC6PEMIRSOAA","3UDTAB6HH6LRO17U79I9TKUGYFV09C","","730","img/flower6.png","75","730.6000000014901","2","1","3","2","1,0,0,1,1,0,1,0,1","0,0,1,1,0,1,0,1,1","2",""
"","html-keyboard-response","244","100869","0.0-244.0","37FMASSAYDDN59110LQDFDLQGMCIBB","A2YC6PEMIRSOAA","3UDTAB6HH6LRO17U79I9TKUGYFV09C","","null","<img src=""img/flower6.png"" style=""width:200px; border:14px solid green;"">","null","","","","","","","","",""
"","image-keyboard-response","245","101581","0.0-245.0","37FMASSAYDDN59110LQDFDLQGMCIBB","A2YC6PEMIRSOAA","3UDTAB6HH6LRO17U79I9TKUGYFV09C","","710.5","img/flower6.png","75","711.1000000014901","2","1","3","2","1,0,0,1,1,0,1,0,1","0,0,1,1,0,1,0,1,1","2",""
"","html-keyboard-response","246","101883","0.0-246.0","37FMASSAYDDN59110LQDFDLQGMCIBB","A2YC6PEMIRSOAA","3UDTAB6HH6LRO17U79I9TKUGYFV09C","","null","<img src=""img/flower6.png"" style=""width:200px; border:14px solid green;"">","null","","","","","","","","",""
"","image-keyboard-response","247","102359","0.0-247.0","37FMASSAYDDN59110LQDFDLQGMCIBB","A2YC6PEMIRSOAA","3UDTAB6HH6LRO17U79I9TKUGYFV09C","","474.8999999985099","img/flower2.png","76","475.5","3","1","1","2","1,0,0,1,1,0,1,0,1","0,0,1,1,0,1,0,1,1","2",""
"","html-keyboard-response","248","102660","0.0-248.0","37FMASSAYDDN59110LQDFDLQGMCIBB","A2YC6PEMIRSOAA","3UDTAB6HH6LRO17U79I9TKUGYFV09C","","null","<img src=""img/flower2.png"" style=""width:200px; border:14px solid green;"">","null","","","","","","","","",""
"","image-keyboard-response","249","102963","0.0-249.0","37FMASSAYDDN59110LQDFDLQGMCIBB","A2YC6PEMIRSOAA","3UDTAB6HH6LRO17U79I9TKUGYFV09C","","302.6000000014901","img/flower2.png","76","303.29999999701977","3","1","1","2","1,0,0,1,1,0,1,0,1","0,0,1,1,0,1,0,1,1","2",""
"","html-keyboard-response","250","103264","0.0-250.0","37FMASSAYDDN59110LQDFDLQGMCIBB","A2YC6PEMIRSOAA","3UDTAB6HH6LRO17U79I9TKUGYFV09C","","null","<img src=""img/flower2.png"" style=""width:200px; border:14px solid green;"">","null","","","","","","","","",""
"","image-keyboard-response","251","103589","0.0-251.0","37FMASSAYDDN59110LQDFDLQGMCIBB","A2YC6PEMIRSOAA","3UDTAB6HH6LRO17U79I9TKUGYFV09C","","323.79999999701977","img/flower2.png","76","324.6000000014901","3","1","1","2","1,0,0,1,1,0,1,0,1","0,0,1,1,0,1,0,1,1","2",""
"","html-keyboard-response","252","103890","0.0-252.0","37FMASSAYDDN59110LQDFDLQGMCIBB","A2YC6PEMIRSOAA","3UDTAB6HH6LRO17U79I9TKUGYFV09C","","null","<img src=""img/flower2.png"" style=""width:200px; border:14px solid green;"">","null","","","","","","","","",""
"","image-keyboard-response","253","104234","0.0-253.0","37FMASSAYDDN59110LQDFDLQGMCIBB","A2YC6PEMIRSOAA","3UDTAB6HH6LRO17U79I9TKUGYFV09C","","342.90000000596046","img/flower2.png","76","343.6000000014901","3","1","1","2","1,0,0,1,1,0,1,0,1","0,0,1,1,0,1,0,1,1","2",""
"","html-keyboard-response","254","104536","0.0-254.0","37FMASSAYDDN59110LQDFDLQGMCIBB","A2YC6PEMIRSOAA","3UDTAB6HH6LRO17U79I9TKUGYFV09C","","null","<img src=""img/flower2.png"" style=""width:200px; border:14px solid green;"">","null","","","","","","","","",""
"","image-keyboard-response","255","104865","0.0-255.0","37FMASSAYDDN59110LQDFDLQGMCIBB","A2YC6PEMIRSOAA","3UDTAB6HH6LRO17U79I9TKUGYFV09C","","327.6000000014901","img/flower2.png","76","328.29999999701977","3","1","1","2","1,0,0,1,1,0,1,0,1","0,0,1,1,0,1,0,1,1","2",""
"","html-keyboard-response","256","105167","0.0-256.0","37FMASSAYDDN59110LQDFDLQGMCIBB","A2YC6PEMIRSOAA","3UDTAB6HH6LRO17U79I9TKUGYFV09C","","null","<img src=""img/flower2.png"" style=""width:200px; border:14px solid green;"">","null","","","","","","","","",""
"","image-keyboard-response","257","105466","0.0-257.0","37FMASSAYDDN59110LQDFDLQGMCIBB","A2YC6PEMIRSOAA","3UDTAB6HH6LRO17U79I9TKUGYFV09C","","297.8999999985099","img/flower2.png","76","298.6000000014901","3","1","1","2","1,0,0,1,1,0,1,0,1","0,0,1,1,0,1,0,1,1","2",""
"","html-keyboard-response","258","105767","0.0-258.0","37FMASSAYDDN59110LQDFDLQGMCIBB","A2YC6PEMIRSOAA","3UDTAB6HH6LRO17U79I9TKUGYFV09C","","null","<img src=""img/flower2.png"" style=""width:200px; border:14px solid green;"">","null","","","","","","","","",""
"","image-keyboard-response","259","106066","0.0-259.0","37FMASSAYDDN59110LQDFDLQGMCIBB","A2YC6PEMIRSOAA","3UDTAB6HH6LRO17U79I9TKUGYFV09C","","297.6000000014901","img/flower2.png","76","298.19999999552965","3","1","1","2","1,0,0,1,1,0,1,0,1","0,0,1,1,0,1,0,1,1","2",""
"","html-keyboard-response","260","106367","0.0-260.0","37FMASSAYDDN59110LQDFDLQGMCIBB","A2YC6PEMIRSOAA","3UDTAB6HH6LRO17U79I9TKUGYFV09C","","null","<img src=""img/flower2.png"" style=""width:200px; border:14px solid green;"">","null","","","","","","","","",""
"","image-keyboard-response","261","106512","0.0-261.0","37FMASSAYDDN59110LQDFDLQGMCIBB","A2YC6PEMIRSOAA","3UDTAB6HH6LRO17U79I9TKUGYFV09C","","143.69999999552965","img/flower6.png","76","144.39999999850988","3","1","3","2","1,0,0,1,1,0,1,0,1","0,0,1,1,0,1,0,1,1","2",""
"","html-keyboard-response","262","106814","0.0-262.0","37FMASSAYDDN59110LQDFDLQGMCIBB","A2YC6PEMIRSOAA","3UDTAB6HH6LRO17U79I9TKUGYFV09C","","null","<img src=""img/flower6.png"" style=""width:200px; border:14px solid green;"">","null","","","","","","","","",""
"","image-keyboard-response","263","108069","0.0-263.0","37FMASSAYDDN59110LQDFDLQGMCIBB","A2YC6PEMIRSOAA","3UDTAB6HH6LRO17U79I9TKUGYFV09C","","1254.3999999985099","img/flower2.png","76","1255.1000000014901","3","1","1","2","1,0,0,1,1,0,1,0,1","0,0,1,1,0,1,0,1,1","2",""
"","html-keyboard-response","264","108370","0.0-264.0","37FMASSAYDDN59110LQDFDLQGMCIBB","A2YC6PEMIRSOAA","3UDTAB6HH6LRO17U79I9TKUGYFV09C","","null","<img src=""img/flower2.png"" style=""width:200px; border:14px solid green;"">","null","","","","","","","","",""
"","image-keyboard-response","265","108666","0.0-265.0","37FMASSAYDDN59110LQDFDLQGMCIBB","A2YC6PEMIRSOAA","3UDTAB6HH6LRO17U79I9TKUGYFV09C","","295","img/flower3.png","76","295.6000000014901","3","1","2","2","1,0,0,1,1,0,1,0,1","0,0,1,1,0,1,0,1,1","2",""
"","html-keyboard-response","266","108967","0.0-266.0","37FMASSAYDDN59110LQDFDLQGMCIBB","A2YC6PEMIRSOAA","3UDTAB6HH6LRO17U79I9TKUGYFV09C","","null","<img src=""img/flower3.png"" style=""width:200px; border:14px solid green;"">","null","","","","","","","","",""
"","image-keyboard-response","267","109240","0.0-267.0","37FMASSAYDDN59110LQDFDLQGMCIBB","A2YC6PEMIRSOAA","3UDTAB6HH6LRO17U79I9TKUGYFV09C","","271.5","img/flower3.png","76","272.19999999552965","3","1","2","2","1,0,0,1,1,0,1,0,1","0,0,1,1,0,1,0,1,1","2",""
"","html-keyboard-response","268","109542","0.0-268.0","37FMASSAYDDN59110LQDFDLQGMCIBB","A2YC6PEMIRSOAA","3UDTAB6HH6LRO17U79I9TKUGYFV09C","","null","<img src=""img/flower3.png"" style=""width:200px; border:14px solid green;"">","null","","","","","","","","",""
"","image-keyboard-response","269","110050","0.0-269.0","37FMASSAYDDN59110LQDFDLQGMCIBB","A2YC6PEMIRSOAA","3UDTAB6HH6LRO17U79I9TKUGYFV09C","","507.29999999701977","img/flower6.png","75","507.8999999985099","2","1","3","2","1,0,0,1,1,0,1,0,1","0,0,1,1,0,1,0,1,1","2",""
"","html-keyboard-response","270","110352","0.0-270.0","37FMASSAYDDN59110LQDFDLQGMCIBB","A2YC6PEMIRSOAA","3UDTAB6HH6LRO17U79I9TKUGYFV09C","","null","<img src=""img/flower6.png"" style=""width:200px; border:14px solid green;"">","null","","","","","","","","",""
"","image-keyboard-response","271","110745","0.0-271.0","37FMASSAYDDN59110LQDFDLQGMCIBB","A2YC6PEMIRSOAA","3UDTAB6HH6LRO17U79I9TKUGYFV09C","","392","img/flower6.png","75","392.69999999552965","2","1","3","2","1,0,0,1,1,0,1,0,1","0,0,1,1,0,1,0,1,1","2",""
"","html-keyboard-response","272","111046","0.0-272.0","37FMASSAYDDN59110LQDFDLQGMCIBB","A2YC6PEMIRSOAA","3UDTAB6HH6LRO17U79I9TKUGYFV09C","","null","<img src=""img/flower6.png"" style=""width:200px; border:14px solid green;"">","null","","","","","","","","",""
"","image-keyboard-response","273","111287","0.0-273.0","37FMASSAYDDN59110LQDFDLQGMCIBB","A2YC6PEMIRSOAA","3UDTAB6HH6LRO17U79I9TKUGYFV09C","","240.80000000447035","img/flower6.png","75","241.5","2","1","3","2","1,0,0,1,1,0,1,0,1","0,0,1,1,0,1,0,1,1","2",""
"","html-keyboard-response","274","111588","0.0-274.0","37FMASSAYDDN59110LQDFDLQGMCIBB","A2YC6PEMIRSOAA","3UDTAB6HH6LRO17U79I9TKUGYFV09C","","null","<img src=""img/flower6.png"" style=""width:200px; border:14px solid green;"">","null","","","","","","","","",""
"","image-keyboard-response","275","112142","0.0-275.0","37FMASSAYDDN59110LQDFDLQGMCIBB","A2YC6PEMIRSOAA","3UDTAB6HH6LRO17U79I9TKUGYFV09C","","553","img/flower3.png","76","553.7000000029802","3","1","2","2","1,0,0,1,1,0,1,0,1","0,0,1,1,0,1,0,1,1","2",""
"","html-keyboard-response","276","112450","0.0-276.0","37FMASSAYDDN59110LQDFDLQGMCIBB","A2YC6PEMIRSOAA","3UDTAB6HH6LRO17U79I9TKUGYFV09C","","null","<img src=""img/flower3.png"" style=""width:200px; border:14px solid green;"">","null","","","","","","","","",""
"","image-keyboard-response","277","112687","0.0-277.0","37FMASSAYDDN59110LQDFDLQGMCIBB","A2YC6PEMIRSOAA","3UDTAB6HH6LRO17U79I9TKUGYFV09C","","237.10000000149012","img/flower3.png","76","237.70000000298023","3","1","2","2","1,0,0,1,1,0,1,0,1","0,0,1,1,0,1,0,1,1","2",""
"","html-keyboard-response","278","112988","0.0-278.0","37FMASSAYDDN59110LQDFDLQGMCIBB","A2YC6PEMIRSOAA","3UDTAB6HH6LRO17U79I9TKUGYFV09C","","null","<img src=""img/flower3.png"" style=""width:200px; border:14px solid green;"">","null","","","","","","","","",""
"","image-keyboard-response","279","113258","0.0-279.0","37FMASSAYDDN59110LQDFDLQGMCIBB","A2YC6PEMIRSOAA","3UDTAB6HH6LRO17U79I9TKUGYFV09C","","269","img/flower6.png","76","269.69999999552965","3","1","3","2","1,0,0,1,1,0,1,0,1","0,0,1,1,0,1,0,1,1","2",""
"","html-keyboard-response","280","113560","0.0-280.0","37FMASSAYDDN59110LQDFDLQGMCIBB","A2YC6PEMIRSOAA","3UDTAB6HH6LRO17U79I9TKUGYFV09C","","null","<img src=""img/flower6.png"" style=""width:200px; border:14px solid green;"">","null","","","","","","","","",""
"","image-keyboard-response","281","113756","0.0-281.0","37FMASSAYDDN59110LQDFDLQGMCIBB","A2YC6PEMIRSOAA","3UDTAB6HH6LRO17U79I9TKUGYFV09C","","195.70000000298023","img/flower2.png","76","196.5","3","1","1","2","1,0,0,1,1,0,1,0,1","0,0,1,1,0,1,0,1,1","2",""
"","html-keyboard-response","282","114058","0.0-282.0","37FMASSAYDDN59110LQDFDLQGMCIBB","A2YC6PEMIRSOAA","3UDTAB6HH6LRO17U79I9TKUGYFV09C","","null","<img src=""img/flower2.png"" style=""width:200px; border:14px solid green;"">","null","","","","","","","","",""
"","image-keyboard-response","283","114213","0.0-283.0","37FMASSAYDDN59110LQDFDLQGMCIBB","A2YC6PEMIRSOAA","3UDTAB6HH6LRO17U79I9TKUGYFV09C","","154.5","img/flower6.png","76","155","3","1","3","2","1,0,0,1,1,0,1,0,1","0,0,1,1,0,1,0,1,1","2",""
"","html-keyboard-response","284","114515","0.0-284.0","37FMASSAYDDN59110LQDFDLQGMCIBB","A2YC6PEMIRSOAA","3UDTAB6HH6LRO17U79I9TKUGYFV09C","","null","<img src=""img/flower6.png"" style=""width:200px; border:14px solid green;"">","null","","","","","","","","",""
"","image-keyboard-response","285","114730","0.0-285.0","37FMASSAYDDN59110LQDFDLQGMCIBB","A2YC6PEMIRSOAA","3UDTAB6HH6LRO17U79I9TKUGYFV09C","","214.5","img/flower2.png","76","215.10000000149012","3","1","1","2","1,0,0,1,1,0,1,0,1","0,0,1,1,0,1,0,1,1","2",""
"","html-keyboard-response","286","115032","0.0-286.0","37FMASSAYDDN59110LQDFDLQGMCIBB","A2YC6PEMIRSOAA","3UDTAB6HH6LRO17U79I9TKUGYFV09C","","null","<img src=""img/flower2.png"" style=""width:200px; border:14px solid green;"">","null","","","","","","","","",""
"","image-keyboard-response","287","115183","0.0-287.0","37FMASSAYDDN59110LQDFDLQGMCIBB","A2YC6PEMIRSOAA","3UDTAB6HH6LRO17U79I9TKUGYFV09C","","150.39999999850988","img/flower6.png","76","151.10000000149012","3","1","3","2","1,0,0,1,1,0,1,0,1","0,0,1,1,0,1,0,1,1","2",""
"","html-keyboard-response","288","115485","0.0-288.0","37FMASSAYDDN59110LQDFDLQGMCIBB","A2YC6PEMIRSOAA","3UDTAB6HH6LRO17U79I9TKUGYFV09C","","null","<img src=""img/flower6.png"" style=""width:200px; border:14px solid green;"">","null","","","","","","","","",""
"","image-keyboard-response","289","115690","0.0-289.0","37FMASSAYDDN59110LQDFDLQGMCIBB","A2YC6PEMIRSOAA","3UDTAB6HH6LRO17U79I9TKUGYFV09C","","205.19999999552965","img/flower3.png","76","205.80000000447035","3","1","2","2","1,0,0,1,1,0,1,0,1","0,0,1,1,0,1,0,1,1","2",""
"","html-keyboard-response","290","115992","0.0-290.0","37FMASSAYDDN59110LQDFDLQGMCIBB","A2YC6PEMIRSOAA","3UDTAB6HH6LRO17U79I9TKUGYFV09C","","null","<img src=""img/flower3.png"" style=""width:200px; border:14px solid green;"">","null","","","","","","","","",""
"","image-keyboard-response","291","116217","0.0-291.0","37FMASSAYDDN59110LQDFDLQGMCIBB","A2YC6PEMIRSOAA","3UDTAB6HH6LRO17U79I9TKUGYFV09C","","223.79999999701977","img/flower2.png","76","224.5","3","1","1","2","1,0,0,1,1,0,1,0,1","0,0,1,1,0,1,0,1,1","2",""
"","html-keyboard-response","292","116517","0.0-292.0","37FMASSAYDDN59110LQDFDLQGMCIBB","A2YC6PEMIRSOAA","3UDTAB6HH6LRO17U79I9TKUGYFV09C","","null","<img src=""img/flower2.png"" style=""width:200px; border:14px solid green;"">","null","","","","","","","","",""
"","image-keyboard-response","293","116723","0.0-293.0","37FMASSAYDDN59110LQDFDLQGMCIBB","A2YC6PEMIRSOAA","3UDTAB6HH6LRO17U79I9TKUGYFV09C","","204.39999999850988","img/flower2.png","76","205","3","1","1","2","1,0,0,1,1,0,1,0,1","0,0,1,1,0,1,0,1,1","2",""
"","html-keyboard-response","294","117024","0.0-294.0","37FMASSAYDDN59110LQDFDLQGMCIBB","A2YC6PEMIRSOAA","3UDTAB6HH6LRO17U79I9TKUGYFV09C","","null","<img src=""img/flower2.png"" style=""width:200px; border:14px solid green;"">","null","","","","","","","","",""
"","image-keyboard-response","295","117216","0.0-295.0","37FMASSAYDDN59110LQDFDLQGMCIBB","A2YC6PEMIRSOAA","3UDTAB6HH6LRO17U79I9TKUGYFV09C","","191.5","img/flower3.png","76","192.09999999403954","3","1","2","2","1,0,0,1,1,0,1,0,1","0,0,1,1,0,1,0,1,1","2",""
"","html-keyboard-response","296","117518","0.0-296.0","37FMASSAYDDN59110LQDFDLQGMCIBB","A2YC6PEMIRSOAA","3UDTAB6HH6LRO17U79I9TKUGYFV09C","","null","<img src=""img/flower3.png"" style=""width:200px; border:14px solid green;"">","null","","","","","","","","",""
"","image-keyboard-response","297","117739","0.0-297.0","37FMASSAYDDN59110LQDFDLQGMCIBB","A2YC6PEMIRSOAA","3UDTAB6HH6LRO17U79I9TKUGYFV09C","","221","img/flower3.png","76","221.60000000149012","3","1","2","2","1,0,0,1,1,0,1,0,1","0,0,1,1,0,1,0,1,1","2",""
"","html-keyboard-response","298","118040","0.0-298.0","37FMASSAYDDN59110LQDFDLQGMCIBB","A2YC6PEMIRSOAA","3UDTAB6HH6LRO17U79I9TKUGYFV09C","","null","<img src=""img/flower3.png"" style=""width:200px; border:14px solid green;"">","null","","","","","","","","",""
"","image-keyboard-response","299","118259","0.0-299.0","37FMASSAYDDN59110LQDFDLQGMCIBB","A2YC6PEMIRSOAA","3UDTAB6HH6LRO17U79I9TKUGYFV09C","","217.69999999552965","img/flower3.png","76","218.40000000596046","3","1","2","2","1,0,0,1,1,0,1,0,1","0,0,1,1,0,1,0,1,1","2",""
"","html-keyboard-response","300","118560","0.0-300.0","37FMASSAYDDN59110LQDFDLQGMCIBB","A2YC6PEMIRSOAA","3UDTAB6HH6LRO17U79I9TKUGYFV09C","","null","<img src=""img/flower3.png"" style=""width:200px; border:14px solid green;"">","null","","","","","","","","",""
"","image-keyboard-response","301","118781","0.0-301.0","37FMASSAYDDN59110LQDFDLQGMCIBB","A2YC6PEMIRSOAA","3UDTAB6HH6LRO17U79I9TKUGYFV09C","","220.39999999850988","img/flower6.png","76","221","3","1","3","2","1,0,0,1,1,0,1,0,1","0,0,1,1,0,1,0,1,1","2",""
"","html-keyboard-response","302","119083","0.0-302.0","37FMASSAYDDN59110LQDFDLQGMCIBB","A2YC6PEMIRSOAA","3UDTAB6HH6LRO17U79I9TKUGYFV09C","","null","<img src=""img/flower6.png"" style=""width:200px; border:14px solid green;"">","null","","","","","","","","",""
"","image-keyboard-response","303","119391","0.0-303.0","37FMASSAYDDN59110LQDFDLQGMCIBB","A2YC6PEMIRSOAA","3UDTAB6HH6LRO17U79I9TKUGYFV09C","","307.09999999403954","img/flower3.png","76","307.70000000298023","3","1","2","2","1,0,0,1,1,0,1,0,1","0,0,1,1,0,1,0,1,1","2",""
"","html-keyboard-response","304","119693","0.0-304.0","37FMASSAYDDN59110LQDFDLQGMCIBB","A2YC6PEMIRSOAA","3UDTAB6HH6LRO17U79I9TKUGYFV09C","","null","<img src=""img/flower3.png"" style=""width:200px; border:14px solid green;"">","null","","","","","","","","",""
"","image-keyboard-response","305","120527","0.0-305.0","37FMASSAYDDN59110LQDFDLQGMCIBB","A2YC6PEMIRSOAA","3UDTAB6HH6LRO17U79I9TKUGYFV09C","","833.1000000014901","img/flower6.png","75","833.8999999985099","2","1","3","2","1,0,0,1,1,0,1,0,1","0,0,1,1,0,1,0,1,1","2",""
"","html-keyboard-response","306","120828","0.0-306.0","37FMASSAYDDN59110LQDFDLQGMCIBB","A2YC6PEMIRSOAA","3UDTAB6HH6LRO17U79I9TKUGYFV09C","","null","<img src=""img/flower6.png"" style=""width:200px; border:14px solid green;"">","null","","","","","","","","",""
"","image-keyboard-response","307","121337","0.0-307.0","37FMASSAYDDN59110LQDFDLQGMCIBB","A2YC6PEMIRSOAA","3UDTAB6HH6LRO17U79I9TKUGYFV09C","","507.79999999701977","img/flower3.png","75","508.3999999985099","2","0","2","2","1,0,0,1,1,0,1,0,1","0,0,1,1,0,1,0,1,1","2",""
"","html-keyboard-response","308","121638","0.0-308.0","37FMASSAYDDN59110LQDFDLQGMCIBB","A2YC6PEMIRSOAA","3UDTAB6HH6LRO17U79I9TKUGYFV09C","","null","<img src=""img/flower3.png"" style=""width:200px;border:14px solid red;"">","null","","","","","","","","",""
"","image-keyboard-response","309","121935","0.0-309.0","37FMASSAYDDN59110LQDFDLQGMCIBB","A2YC6PEMIRSOAA","3UDTAB6HH6LRO17U79I9TKUGYFV09C","","296.1000000014901","img/flower6.png","76","296.8999999985099","3","1","3","2","1,0,0,1,1,0,1,0,1","0,0,1,1,0,1,0,1,1","2",""
"","html-keyboard-response","310","122237","0.0-310.0","37FMASSAYDDN59110LQDFDLQGMCIBB","A2YC6PEMIRSOAA","3UDTAB6HH6LRO17U79I9TKUGYFV09C","","null","<img src=""img/flower6.png"" style=""width:200px; border:14px solid green;"">","null","","","","","","","","",""
"","image-keyboard-response","311","122382","0.0-311.0","37FMASSAYDDN59110LQDFDLQGMCIBB","A2YC6PEMIRSOAA","3UDTAB6HH6LRO17U79I9TKUGYFV09C","","144.20000000298023","img/flower2.png","76","144.79999999701977","3","1","1","2","1,0,0,1,1,0,1,0,1","0,0,1,1,0,1,0,1,1","2",""
"","html-keyboard-response","312","122683","0.0-312.0","37FMASSAYDDN59110LQDFDLQGMCIBB","A2YC6PEMIRSOAA","3UDTAB6HH6LRO17U79I9TKUGYFV09C","","null","<img src=""img/flower2.png"" style=""width:200px; border:14px solid green;"">","null","","","","","","","","",""
"","image-keyboard-response","313","123030","0.0-313.0","37FMASSAYDDN59110LQDFDLQGMCIBB","A2YC6PEMIRSOAA","3UDTAB6HH6LRO17U79I9TKUGYFV09C","","346.29999999701977","img/flower3.png","76","347","3","1","2","2","1,0,0,1,1,0,1,0,1","0,0,1,1,0,1,0,1,1","2",""
"","html-keyboard-response","314","123331","0.0-314.0","37FMASSAYDDN59110LQDFDLQGMCIBB","A2YC6PEMIRSOAA","3UDTAB6HH6LRO17U79I9TKUGYFV09C","","null","<img src=""img/flower3.png"" style=""width:200px; border:14px solid green;"">","null","","","","","","","","",""
"","image-keyboard-response","315","124003","0.0-315.0","37FMASSAYDDN59110LQDFDLQGMCIBB","A2YC6PEMIRSOAA","3UDTAB6HH6LRO17U79I9TKUGYFV09C","","671.5","img/flower6.png","76","672.3999999985099","3","1","3","2","1,0,0,1,1,0,1,0,1","0,0,1,1,0,1,0,1,1","2",""
"","html-keyboard-response","316","124304","0.0-316.0","37FMASSAYDDN59110LQDFDLQGMCIBB","A2YC6PEMIRSOAA","3UDTAB6HH6LRO17U79I9TKUGYFV09C","","null","<img src=""img/flower6.png"" style=""width:200px; border:14px solid green;"">","null","","","","","","","","",""
"","image-keyboard-response","317","124560","0.0-317.0","37FMASSAYDDN59110LQDFDLQGMCIBB","A2YC6PEMIRSOAA","3UDTAB6HH6LRO17U79I9TKUGYFV09C","","254.89999999850988","img/flower6.png","76","255.60000000149012","3","1","3","2","1,0,0,1,1,0,1,0,1","0,0,1,1,0,1,0,1,1","2",""
"","html-keyboard-response","318","124861","0.0-318.0","37FMASSAYDDN59110LQDFDLQGMCIBB","A2YC6PEMIRSOAA","3UDTAB6HH6LRO17U79I9TKUGYFV09C","","null","<img src=""img/flower6.png"" style=""width:200px; border:14px solid green;"">","null","","","","","","","","",""
"","image-keyboard-response","319","125363","0.0-319.0","37FMASSAYDDN59110LQDFDLQGMCIBB","A2YC6PEMIRSOAA","3UDTAB6HH6LRO17U79I9TKUGYFV09C","","501.5","img/flower2.png","76","502.09999999403954","3","1","1","2","1,0,0,1,1,0,1,0,1","0,0,1,1,0,1,0,1,1","2",""
"","html-keyboard-response","320","125664","0.0-320.0","37FMASSAYDDN59110LQDFDLQGMCIBB","A2YC6PEMIRSOAA","3UDTAB6HH6LRO17U79I9TKUGYFV09C","","null","<img src=""img/flower2.png"" style=""width:200px; border:14px solid green;"">","null","","","","","","","","",""
"","image-keyboard-response","321","125994","0.0-321.0","37FMASSAYDDN59110LQDFDLQGMCIBB","A2YC6PEMIRSOAA","3UDTAB6HH6LRO17U79I9TKUGYFV09C","","328.8999999985099","img/flower3.png","76","329.5","3","1","2","2","1,0,0,1,1,0,1,0,1","0,0,1,1,0,1,0,1,1","2",""
"","html-keyboard-response","322","126295","0.0-322.0","37FMASSAYDDN59110LQDFDLQGMCIBB","A2YC6PEMIRSOAA","3UDTAB6HH6LRO17U79I9TKUGYFV09C","","null","<img src=""img/flower3.png"" style=""width:200px; border:14px solid green;"">","null","","","","","","","","",""
"","image-keyboard-response","323","126729","0.0-323.0","37FMASSAYDDN59110LQDFDLQGMCIBB","A2YC6PEMIRSOAA","3UDTAB6HH6LRO17U79I9TKUGYFV09C","","433.20000000298023","img/flower2.png","76","433.70000000298023","3","1","1","2","1,0,0,1,1,0,1,0,1","0,0,1,1,0,1,0,1,1","2",""
"","html-keyboard-response","324","127031","0.0-324.0","37FMASSAYDDN59110LQDFDLQGMCIBB","A2YC6PEMIRSOAA","3UDTAB6HH6LRO17U79I9TKUGYFV09C","","null","<img src=""img/flower2.png"" style=""width:200px; border:14px solid green;"">","null","","","","","","","","",""
"","image-keyboard-response","325","127672","0.0-325.0","37FMASSAYDDN59110LQDFDLQGMCIBB","A2YC6PEMIRSOAA","3UDTAB6HH6LRO17U79I9TKUGYFV09C","","640.2999999970198","img/flower6.png","75","640.8000000044703","2","1","3","2","1,0,0,1,1,0,1,0,1","0,0,1,1,0,1,0,1,1","2",""
"","html-keyboard-response","326","127973","0.0-326.0","37FMASSAYDDN59110LQDFDLQGMCIBB","A2YC6PEMIRSOAA","3UDTAB6HH6LRO17U79I9TKUGYFV09C","","null","<img src=""img/flower6.png"" style=""width:200px; border:14px solid green;"">","null","","","","","","","","",""
"","image-keyboard-response","327","128297","0.0-327.0","37FMASSAYDDN59110LQDFDLQGMCIBB","A2YC6PEMIRSOAA","3UDTAB6HH6LRO17U79I9TKUGYFV09C","","323.19999999552965","img/flower6.png","75","323.70000000298023","2","1","3","2","1,0,0,1,1,0,1,0,1","0,0,1,1,0,1,0,1,1","2",""
"","html-keyboard-response","328","128598","0.0-328.0","37FMASSAYDDN59110LQDFDLQGMCIBB","A2YC6PEMIRSOAA","3UDTAB6HH6LRO17U79I9TKUGYFV09C","","null","<img src=""img/flower6.png"" style=""width:200px; border:14px solid green;"">","null","","","","","","","","",""
"","image-keyboard-response","329","129220","0.0-329.0","37FMASSAYDDN59110LQDFDLQGMCIBB","A2YC6PEMIRSOAA","3UDTAB6HH6LRO17U79I9TKUGYFV09C","","621","img/flower3.png","76","621.7000000029802","3","1","2","2","1,0,0,1,1,0,1,0,1","0,0,1,1,0,1,0,1,1","2",""
"","html-keyboard-response","330","129521","0.0-330.0","37FMASSAYDDN59110LQDFDLQGMCIBB","A2YC6PEMIRSOAA","3UDTAB6HH6LRO17U79I9TKUGYFV09C","","null","<img src=""img/flower3.png"" style=""width:200px; border:14px solid green;"">","null","","","","","","","","",""
"","image-keyboard-response","331","129696","0.0-331.0","37FMASSAYDDN59110LQDFDLQGMCIBB","A2YC6PEMIRSOAA","3UDTAB6HH6LRO17U79I9TKUGYFV09C","","173.70000000298023","img/flower2.png","76","174.29999999701977","3","1","1","2","1,0,0,1,1,0,1,0,1","0,0,1,1,0,1,0,1,1","2",""
"","html-keyboard-response","332","129998","0.0-332.0","37FMASSAYDDN59110LQDFDLQGMCIBB","A2YC6PEMIRSOAA","3UDTAB6HH6LRO17U79I9TKUGYFV09C","","null","<img src=""img/flower2.png"" style=""width:200px; border:14px solid green;"">","null","","","","","","","","",""
"","image-keyboard-response","333","130556","0.0-333.0","37FMASSAYDDN59110LQDFDLQGMCIBB","A2YC6PEMIRSOAA","3UDTAB6HH6LRO17U79I9TKUGYFV09C","","557.3000000044703","img/flower6.png","76","558.5","3","1","3","2","1,0,0,1,1,0,1,0,1","0,0,1,1,0,1,0,1,1","2",""
"","html-keyboard-response","334","130857","0.0-334.0","37FMASSAYDDN59110LQDFDLQGMCIBB","A2YC6PEMIRSOAA","3UDTAB6HH6LRO17U79I9TKUGYFV09C","","null","<img src=""img/flower6.png"" style=""width:200px; border:14px solid green;"">","null","","","","","","","","",""
"","image-keyboard-response","335","131650","0.0-335.0","37FMASSAYDDN59110LQDFDLQGMCIBB","A2YC6PEMIRSOAA","3UDTAB6HH6LRO17U79I9TKUGYFV09C","","791.8000000044703","img/flower3.png","75","792.2999999970198","2","0","2","2","1,0,0,1,1,0,1,0,1","0,0,1,1,0,1,0,1,1","2",""
"","html-keyboard-response","336","131951","0.0-336.0","37FMASSAYDDN59110LQDFDLQGMCIBB","A2YC6PEMIRSOAA","3UDTAB6HH6LRO17U79I9TKUGYFV09C","","null","<img src=""img/flower3.png"" style=""width:200px;border:14px solid red;"">","null","","","","","","","","",""
"","image-keyboard-response","337","132378","0.0-337.0","37FMASSAYDDN59110LQDFDLQGMCIBB","A2YC6PEMIRSOAA","3UDTAB6HH6LRO17U79I9TKUGYFV09C","","425.79999999701977","img/flower6.png","76","426.40000000596046","3","1","3","2","1,0,0,1,1,0,1,0,1","0,0,1,1,0,1,0,1,1","2",""
"","html-keyboard-response","338","132679","0.0-338.0","37FMASSAYDDN59110LQDFDLQGMCIBB","A2YC6PEMIRSOAA","3UDTAB6HH6LRO17U79I9TKUGYFV09C","","null","<img src=""img/flower6.png"" style=""width:200px; border:14px solid green;"">","null","","","","","","","","",""
"","image-keyboard-response","339","132874","0.0-339.0","37FMASSAYDDN59110LQDFDLQGMCIBB","A2YC6PEMIRSOAA","3UDTAB6HH6LRO17U79I9TKUGYFV09C","","193.60000000149012","img/flower3.png","76","194.10000000149012","3","1","2","2","1,0,0,1,1,0,1,0,1","0,0,1,1,0,1,0,1,1","2",""
"","html-keyboard-response","340","133175","0.0-340.0","37FMASSAYDDN59110LQDFDLQGMCIBB","A2YC6PEMIRSOAA","3UDTAB6HH6LRO17U79I9TKUGYFV09C","","null","<img src=""img/flower3.png"" style=""width:200px; border:14px solid green;"">","null","","","","","","","","",""
"","image-keyboard-response","341","133998","0.0-341.0","37FMASSAYDDN59110LQDFDLQGMCIBB","A2YC6PEMIRSOAA","3UDTAB6HH6LRO17U79I9TKUGYFV09C","","823","img/flower6.png","76","823.8999999985099","3","1","3","2","1,0,0,1,1,0,1,0,1","0,0,1,1,0,1,0,1,1","2",""
"","html-keyboard-response","342","134300","0.0-342.0","37FMASSAYDDN59110LQDFDLQGMCIBB","A2YC6PEMIRSOAA","3UDTAB6HH6LRO17U79I9TKUGYFV09C","","null","<img src=""img/flower6.png"" style=""width:200px; border:14px solid green;"">","null","","","","","","","","",""
"","image-keyboard-response","343","134473","0.0-343.0","37FMASSAYDDN59110LQDFDLQGMCIBB","A2YC6PEMIRSOAA","3UDTAB6HH6LRO17U79I9TKUGYFV09C","","172","img/flower2.png","76","172.70000000298023","3","1","1","2","1,0,0,1,1,0,1,0,1","0,0,1,1,0,1,0,1,1","2",""
"","html-keyboard-response","344","134775","0.0-344.0","37FMASSAYDDN59110LQDFDLQGMCIBB","A2YC6PEMIRSOAA","3UDTAB6HH6LRO17U79I9TKUGYFV09C","","null","<img src=""img/flower2.png"" style=""width:200px; border:14px solid green;"">","null","","","","","","","","",""
"","image-keyboard-response","345","135223","0.0-345.0","37FMASSAYDDN59110LQDFDLQGMCIBB","A2YC6PEMIRSOAA","3UDTAB6HH6LRO17U79I9TKUGYFV09C","","448","img/flower3.png","76","448.69999999552965","3","1","2","2","1,0,0,1,1,0,1,0,1","0,0,1,1,0,1,0,1,1","2",""
"","html-keyboard-response","346","135525","0.0-346.0","37FMASSAYDDN59110LQDFDLQGMCIBB","A2YC6PEMIRSOAA","3UDTAB6HH6LRO17U79I9TKUGYFV09C","","null","<img src=""img/flower3.png"" style=""width:200px; border:14px solid green;"">","null","","","","","","","","",""
"","image-keyboard-response","347","136007","0.0-347.0","37FMASSAYDDN59110LQDFDLQGMCIBB","A2YC6PEMIRSOAA","3UDTAB6HH6LRO17U79I9TKUGYFV09C","","481.80000000447035","img/flower2.png","76","482.3999999985099","3","1","1","2","1,0,0,1,1,0,1,0,1","0,0,1,1,0,1,0,1,1","2",""
"","html-keyboard-response","348","136309","0.0-348.0","37FMASSAYDDN59110LQDFDLQGMCIBB","A2YC6PEMIRSOAA","3UDTAB6HH6LRO17U79I9TKUGYFV09C","","null","<img src=""img/flower2.png"" style=""width:200px; border:14px solid green;"">","null","","","","","","","","",""
"","image-keyboard-response","349","137033","0.0-349.0","37FMASSAYDDN59110LQDFDLQGMCIBB","A2YC6PEMIRSOAA","3UDTAB6HH6LRO17U79I9TKUGYFV09C","","723.3999999985099","img/flower6.png","76","724","3","1","3","2","1,0,0,1,1,0,1,0,1","0,0,1,1,0,1,0,1,1","2",""
"","html-keyboard-response","350","137335","0.0-350.0","37FMASSAYDDN59110LQDFDLQGMCIBB","A2YC6PEMIRSOAA","3UDTAB6HH6LRO17U79I9TKUGYFV09C","","null","<img src=""img/flower6.png"" style=""width:200px; border:14px solid green;"">","null","","","","","","","","",""
"","image-keyboard-response","351","137616","0.0-351.0","37FMASSAYDDN59110LQDFDLQGMCIBB","A2YC6PEMIRSOAA","3UDTAB6HH6LRO17U79I9TKUGYFV09C","","280.5","img/flower6.png","76","281.20000000298023","3","1","3","2","1,0,0,1,1,0,1,0,1","0,0,1,1,0,1,0,1,1","2",""
"","html-keyboard-response","352","137917","0.0-352.0","37FMASSAYDDN59110LQDFDLQGMCIBB","A2YC6PEMIRSOAA","3UDTAB6HH6LRO17U79I9TKUGYFV09C","","null","<img src=""img/flower6.png"" style=""width:200px; border:14px solid green;"">","null","","","","","","","","",""
"","image-keyboard-response","353","138357","0.0-353.0","37FMASSAYDDN59110LQDFDLQGMCIBB","A2YC6PEMIRSOAA","3UDTAB6HH6LRO17U79I9TKUGYFV09C","","438.6000000014901","img/flower2.png","76","439.3999999985099","3","1","1","2","1,0,0,1,1,0,1,0,1","0,0,1,1,0,1,0,1,1","2",""
"","html-keyboard-response","354","138658","0.0-354.0","37FMASSAYDDN59110LQDFDLQGMCIBB","A2YC6PEMIRSOAA","3UDTAB6HH6LRO17U79I9TKUGYFV09C","","null","<img src=""img/flower2.png"" style=""width:200px; border:14px solid green;"">","null","","","","","","","","",""
"","image-keyboard-response","355","139114","0.0-355.0","37FMASSAYDDN59110LQDFDLQGMCIBB","A2YC6PEMIRSOAA","3UDTAB6HH6LRO17U79I9TKUGYFV09C","","455.40000000596046","img/flower6.png","76","456.1000000014901","3","1","3","2","1,0,0,1,1,0,1,0,1","0,0,1,1,0,1,0,1,1","2",""
"","html-keyboard-response","356","139416","0.0-356.0","37FMASSAYDDN59110LQDFDLQGMCIBB","A2YC6PEMIRSOAA","3UDTAB6HH6LRO17U79I9TKUGYFV09C","","null","<img src=""img/flower6.png"" style=""width:200px; border:14px solid green;"">","null","","","","","","","","",""
"","image-keyboard-response","357","139697","0.0-357.0","37FMASSAYDDN59110LQDFDLQGMCIBB","A2YC6PEMIRSOAA","3UDTAB6HH6LRO17U79I9TKUGYFV09C","","280.40000000596046","img/flower2.png","76","281","3","1","1","2","1,0,0,1,1,0,1,0,1","0,0,1,1,0,1,0,1,1","2",""
"","html-keyboard-response","358","139998","0.0-358.0","37FMASSAYDDN59110LQDFDLQGMCIBB","A2YC6PEMIRSOAA","3UDTAB6HH6LRO17U79I9TKUGYFV09C","","null","<img src=""img/flower2.png"" style=""width:200px; border:14px solid green;"">","null","","","","","","","","",""
"","image-keyboard-response","359","140168","0.0-359.0","37FMASSAYDDN59110LQDFDLQGMCIBB","A2YC6PEMIRSOAA","3UDTAB6HH6LRO17U79I9TKUGYFV09C","","168.70000000298023","img/flower3.png","76","169.5","3","1","2","2","1,0,0,1,1,0,1,0,1","0,0,1,1,0,1,0,1,1","2",""
"","html-keyboard-response","360","140470","0.0-360.0","37FMASSAYDDN59110LQDFDLQGMCIBB","A2YC6PEMIRSOAA","3UDTAB6HH6LRO17U79I9TKUGYFV09C","","null","<img src=""img/flower3.png"" style=""width:200px; border:14px solid green;"">","null","","","","","","","","",""
"","image-keyboard-response","361","140705","0.0-361.0","37FMASSAYDDN59110LQDFDLQGMCIBB","A2YC6PEMIRSOAA","3UDTAB6HH6LRO17U79I9TKUGYFV09C","","234.09999999403954","img/flower6.png","76","234.80000000447035","3","1","3","2","1,0,0,1,1,0,1,0,1","0,0,1,1,0,1,0,1,1","2",""
"","html-keyboard-response","362","141006","0.0-362.0","37FMASSAYDDN59110LQDFDLQGMCIBB","A2YC6PEMIRSOAA","3UDTAB6HH6LRO17U79I9TKUGYFV09C","","null","<img src=""img/flower6.png"" style=""width:200px; border:14px solid green;"">","null","","","","","","","","",""
"","instructions","363","142779","0.0-363.0","37FMASSAYDDN59110LQDFDLQGMCIBB","A2YC6PEMIRSOAA","3UDTAB6HH6LRO17U79I9TKUGYFV09C","[{""page_index"":0,""viewing_time"":1772.1999999955297}]","1772.3999999985099","","","","","","","","","","",""
"","survey-text","364","145701","0.0-364.0","37FMASSAYDDN59110LQDFDLQGMCIBB","A2YC6PEMIRSOAA","3UDTAB6HH6LRO17U79I9TKUGYFV09C","","2918.10000000149","","","","","","","","","","","{""Q0"":""A2YC6PEMIRSOAA""}"
