"success","trial_type","trial_index","time_elapsed","internal_node_id","assignmentID","mturkID","hitID","view_history","rt","stimulus","key_press","reactionTime","a","r","s","cond","reward_cond","reward_cond_actual","reward_matrix_idx","responses"
"true","fullscreen","0","6094","0.0-0.0","3DHE4R9OCXXFL5VAR4XZT856781G2J","A2YCMO8KFFQAJ9","3MXX6RQ9EVRTFC527Z18RDK8KW6P4R","","","","","","","","","","","","",""
"","instructions","1","51779","0.0-1.0","3DHE4R9OCXXFL5VAR4XZT856781G2J","A2YCMO8KFFQAJ9","3MXX6RQ9EVRTFC527Z18RDK8KW6P4R","[{""page_index"":0,""viewing_time"":5239.9000000059605},{""page_index"":1,""viewing_time"":4121.799999982119},{""page_index"":2,""viewing_time"":1492.5999999940395},{""page_index"":3,""viewing_time"":9706.5},{""page_index"":4,""viewing_time"":3923.2000000178814},{""page_index"":5,""viewing_time"":3548.7999999821186},{""page_index"":6,""viewing_time"":10160.700000017881},{""page_index"":7,""viewing_time"":7488}]","45682","","","","","","","","","","",""
"","image-keyboard-response","2","52918","0.0-2.0","3DHE4R9OCXXFL5VAR4XZT856781G2J","A2YCMO8KFFQAJ9","3MXX6RQ9EVRTFC527Z18RDK8KW6P4R","","1137.3999999761581","img/flower6.png","75","1139.4000000059605","2","0","1","1","1,0.333,0.333,0.333,1,0.333,0.333,0.333,1","1,0.333,0.333,0.333,1,0.333,0.333,0.333,1","1",""
"","html-keyboard-response","3","53222","0.0-3.0","3DHE4R9OCXXFL5VAR4XZT856781G2J","A2YCMO8KFFQAJ9","3MXX6RQ9EVRTFC527Z18RDK8KW6P4R","","null","<img src=""img/flower6.png"" style=""width:200px;border:14px solid red;"">","null","","","","","","","","",""
"","image-keyboard-response","4","53782","0.0-4.0","3DHE4R9OCXXFL5VAR4XZT856781G2J","A2YCMO8KFFQAJ9","3MXX6RQ9EVRTFC527Z18RDK8KW6P4R","","557.5999999940395","img/flower4.png","76","559.1999999880791","3","1","2","1","1,0.333,0.333,0.333,1,0.333,0.333,0.333,1","1,0.333,0.333,0.333,1,0.333,0.333,0.333,1","1",""
"","html-keyboard-response","5","54086","0.0-5.0","3DHE4R9OCXXFL5VAR4XZT856781G2J","A2YCMO8KFFQAJ9","3MXX6RQ9EVRTFC527Z18RDK8KW6P4R","","null","<img src=""img/flower4.png"" style=""width:200px; border:14px solid green;"">","null","","","","","","","","",""
"","image-keyboard-response","6","54348","0.0-6.0","3DHE4R9OCXXFL5VAR4XZT856781G2J","A2YCMO8KFFQAJ9","3MXX6RQ9EVRTFC527Z18RDK8KW6P4R","","260","img/flower1.png","76","261.40000000596046","3","1","3","1","1,0.333,0.333,0.333,1,0.333,0.333,0.333,1","1,0.333,0.333,0.333,1,0.333,0.333,0.333,1","1",""
"","html-keyboard-response","7","54654","0.0-7.0","3DHE4R9OCXXFL5VAR4XZT856781G2J","A2YCMO8KFFQAJ9","3MXX6RQ9EVRTFC527Z18RDK8KW6P4R","","null","<img src=""img/flower1.png"" style=""width:200px; border:14px solid green;"">","null","","","","","","","","",""
"","image-keyboard-response","8","55007","0.0-8.0","3DHE4R9OCXXFL5VAR4XZT856781G2J","A2YCMO8KFFQAJ9","3MXX6RQ9EVRTFC527Z18RDK8KW6P4R","","351.5","img/flower1.png","76","352.90000000596046","3","1","3","1","1,0.333,0.333,0.333,1,0.333,0.333,0.333,1","1,0.333,0.333,0.333,1,0.333,0.333,0.333,1","1",""
"","html-keyboard-response","9","55310","0.0-9.0","3DHE4R9OCXXFL5VAR4XZT856781G2J","A2YCMO8KFFQAJ9","3MXX6RQ9EVRTFC527Z18RDK8KW6P4R","","null","<img src=""img/flower1.png"" style=""width:200px; border:14px solid green;"">","null","","","","","","","","",""
"","image-keyboard-response","10","55468","0.0-10.0","3DHE4R9OCXXFL5VAR4XZT856781G2J","A2YCMO8KFFQAJ9","3MXX6RQ9EVRTFC527Z18RDK8KW6P4R","","156.89999997615814","img/flower6.png","76","158.39999997615814","3","0","1","1","1,0.333,0.333,0.333,1,0.333,0.333,0.333,1","1,0.333,0.333,0.333,1,0.333,0.333,0.333,1","1",""
"","html-keyboard-response","11","55774","0.0-11.0","3DHE4R9OCXXFL5VAR4XZT856781G2J","A2YCMO8KFFQAJ9","3MXX6RQ9EVRTFC527Z18RDK8KW6P4R","","null","<img src=""img/flower6.png"" style=""width:200px;border:14px solid red;"">","null","","","","","","","","",""
"","image-keyboard-response","12","56264","0.0-12.0","3DHE4R9OCXXFL5VAR4XZT856781G2J","A2YCMO8KFFQAJ9","3MXX6RQ9EVRTFC527Z18RDK8KW6P4R","","487.80000001192093","img/flower6.png","75","489.10000002384186","2","1","1","1","1,0.333,0.333,0.333,1,0.333,0.333,0.333,1","1,0.333,0.333,0.333,1,0.333,0.333,0.333,1","1",""
"","html-keyboard-response","13","56566","0.0-13.0","3DHE4R9OCXXFL5VAR4XZT856781G2J","A2YCMO8KFFQAJ9","3MXX6RQ9EVRTFC527Z18RDK8KW6P4R","","null","<img src=""img/flower6.png"" style=""width:200px; border:14px solid green;"">","null","","","","","","","","",""
"","image-keyboard-response","14","56693","0.0-14.0","3DHE4R9OCXXFL5VAR4XZT856781G2J","A2YCMO8KFFQAJ9","3MXX6RQ9EVRTFC527Z18RDK8KW6P4R","","125.80000001192093","img/flower4.png","75","127.2000000178814","2","1","2","1","1,0.333,0.333,0.333,1,0.333,0.333,0.333,1","1,0.333,0.333,0.333,1,0.333,0.333,0.333,1","1",""
"","html-keyboard-response","15","56998","0.0-15.0","3DHE4R9OCXXFL5VAR4XZT856781G2J","A2YCMO8KFFQAJ9","3MXX6RQ9EVRTFC527Z18RDK8KW6P4R","","null","<img src=""img/flower4.png"" style=""width:200px; border:14px solid green;"">","null","","","","","","","","",""
"","image-keyboard-response","16","57123","0.0-16.0","3DHE4R9OCXXFL5VAR4XZT856781G2J","A2YCMO8KFFQAJ9","3MXX6RQ9EVRTFC527Z18RDK8KW6P4R","","123.90000000596046","img/flower4.png","75","125.19999998807907","2","1","2","1","1,0.333,0.333,0.333,1,0.333,0.333,0.333,1","1,0.333,0.333,0.333,1,0.333,0.333,0.333,1","1",""
"","html-keyboard-response","17","57430","0.0-17.0","3DHE4R9OCXXFL5VAR4XZT856781G2J","A2YCMO8KFFQAJ9","3MXX6RQ9EVRTFC527Z18RDK8KW6P4R","","null","<img src=""img/flower4.png"" style=""width:200px; border:14px solid green;"">","null","","","","","","","","",""
"","image-keyboard-response","18","57489","0.0-18.0","3DHE4R9OCXXFL5VAR4XZT856781G2J","A2YCMO8KFFQAJ9","3MXX6RQ9EVRTFC527Z18RDK8KW6P4R","","57.10000002384186","img/flower4.png","75","58.5","2","1","2","1","1,0.333,0.333,0.333,1,0.333,0.333,0.333,1","1,0.333,0.333,0.333,1,0.333,0.333,0.333,1","1",""
"","html-keyboard-response","19","57798","0.0-19.0","3DHE4R9OCXXFL5VAR4XZT856781G2J","A2YCMO8KFFQAJ9","3MXX6RQ9EVRTFC527Z18RDK8KW6P4R","","null","<img src=""img/flower4.png"" style=""width:200px; border:14px solid green;"">","null","","","","","","","","",""
"","image-keyboard-response","20","57833","0.0-20.0","3DHE4R9OCXXFL5VAR4XZT856781G2J","A2YCMO8KFFQAJ9","3MXX6RQ9EVRTFC527Z18RDK8KW6P4R","","34.10000002384186","img/flower4.png","75","35.099999994039536","2","1","2","1","1,0.333,0.333,0.333,1,0.333,0.333,0.333,1","1,0.333,0.333,0.333,1,0.333,0.333,0.333,1","1",""
"","html-keyboard-response","21","58142","0.0-21.0","3DHE4R9OCXXFL5VAR4XZT856781G2J","A2YCMO8KFFQAJ9","3MXX6RQ9EVRTFC527Z18RDK8KW6P4R","","null","<img src=""img/flower4.png"" style=""width:200px; border:14px solid green;"">","null","","","","","","","","",""
"","image-keyboard-response","22","58708","0.0-22.0","3DHE4R9OCXXFL5VAR4XZT856781G2J","A2YCMO8KFFQAJ9","3MXX6RQ9EVRTFC527Z18RDK8KW6P4R","","564.8999999761581","img/flower1.png","75","566.2999999821186","2","0","3","1","1,0.333,0.333,0.333,1,0.333,0.333,0.333,1","1,0.333,0.333,0.333,1,0.333,0.333,0.333,1","1",""
"","html-keyboard-response","23","59014","0.0-23.0","3DHE4R9OCXXFL5VAR4XZT856781G2J","A2YCMO8KFFQAJ9","3MXX6RQ9EVRTFC527Z18RDK8KW6P4R","","null","<img src=""img/flower1.png"" style=""width:200px;border:14px solid red;"">","null","","","","","","","","",""
"","image-keyboard-response","24","59618","0.0-24.0","3DHE4R9OCXXFL5VAR4XZT856781G2J","A2YCMO8KFFQAJ9","3MXX6RQ9EVRTFC527Z18RDK8KW6P4R","","603","img/flower1.png","76","604.2999999821186","3","1","3","1","1,0.333,0.333,0.333,1,0.333,0.333,0.333,1","1,0.333,0.333,0.333,1,0.333,0.333,0.333,1","1",""
"","html-keyboard-response","25","59926","0.0-25.0","3DHE4R9OCXXFL5VAR4XZT856781G2J","A2YCMO8KFFQAJ9","3MXX6RQ9EVRTFC527Z18RDK8KW6P4R","","null","<img src=""img/flower1.png"" style=""width:200px; border:14px solid green;"">","null","","","","","","","","",""
"","image-keyboard-response","26","60073","0.0-26.0","3DHE4R9OCXXFL5VAR4XZT856781G2J","A2YCMO8KFFQAJ9","3MXX6RQ9EVRTFC527Z18RDK8KW6P4R","","145.59999999403954","img/flower4.png","76","147","3","0","2","1","1,0.333,0.333,0.333,1,0.333,0.333,0.333,1","1,0.333,0.333,0.333,1,0.333,0.333,0.333,1","1",""
"","html-keyboard-response","27","60382","0.0-27.0","3DHE4R9OCXXFL5VAR4XZT856781G2J","A2YCMO8KFFQAJ9","3MXX6RQ9EVRTFC527Z18RDK8KW6P4R","","null","<img src=""img/flower4.png"" style=""width:200px;border:14px solid red;"">","null","","","","","","","","",""
"","image-keyboard-response","28","60807","0.0-28.0","3DHE4R9OCXXFL5VAR4XZT856781G2J","A2YCMO8KFFQAJ9","3MXX6RQ9EVRTFC527Z18RDK8KW6P4R","","423.90000000596046","img/flower4.png","75","425","2","1","2","1","1,0.333,0.333,0.333,1,0.333,0.333,0.333,1","1,0.333,0.333,0.333,1,0.333,0.333,0.333,1","1",""
"","html-keyboard-response","29","61110","0.0-29.0","3DHE4R9OCXXFL5VAR4XZT856781G2J","A2YCMO8KFFQAJ9","3MXX6RQ9EVRTFC527Z18RDK8KW6P4R","","null","<img src=""img/flower4.png"" style=""width:200px; border:14px solid green;"">","null","","","","","","","","",""
"","image-keyboard-response","30","61185","0.0-30.0","3DHE4R9OCXXFL5VAR4XZT856781G2J","A2YCMO8KFFQAJ9","3MXX6RQ9EVRTFC527Z18RDK8KW6P4R","","73.30000001192093","img/flower4.png","75","74.7000000178814","2","1","2","1","1,0.333,0.333,0.333,1,0.333,0.333,0.333,1","1,0.333,0.333,0.333,1,0.333,0.333,0.333,1","1",""
"","html-keyboard-response","31","61494","0.0-31.0","3DHE4R9OCXXFL5VAR4XZT856781G2J","A2YCMO8KFFQAJ9","3MXX6RQ9EVRTFC527Z18RDK8KW6P4R","","null","<img src=""img/flower4.png"" style=""width:200px; border:14px solid green;"">","null","","","","","","","","",""
"","image-keyboard-response","32","61579","0.0-32.0","3DHE4R9OCXXFL5VAR4XZT856781G2J","A2YCMO8KFFQAJ9","3MXX6RQ9EVRTFC527Z18RDK8KW6P4R","","84.09999999403954","img/flower6.png","75","85.39999997615814","2","0","1","1","1,0.333,0.333,0.333,1,0.333,0.333,0.333,1","1,0.333,0.333,0.333,1,0.333,0.333,0.333,1","1",""
"","html-keyboard-response","33","61886","0.0-33.0","3DHE4R9OCXXFL5VAR4XZT856781G2J","A2YCMO8KFFQAJ9","3MXX6RQ9EVRTFC527Z18RDK8KW6P4R","","null","<img src=""img/flower6.png"" style=""width:200px;border:14px solid red;"">","null","","","","","","","","",""
"","image-keyboard-response","34","62326","0.0-34.0","3DHE4R9OCXXFL5VAR4XZT856781G2J","A2YCMO8KFFQAJ9","3MXX6RQ9EVRTFC527Z18RDK8KW6P4R","","438.59999999403954","img/flower6.png","74","439.80000001192093","1","1","1","1","1,0.333,0.333,0.333,1,0.333,0.333,0.333,1","1,0.333,0.333,0.333,1,0.333,0.333,0.333,1","1",""
"","html-keyboard-response","35","62630","0.0-35.0","3DHE4R9OCXXFL5VAR4XZT856781G2J","A2YCMO8KFFQAJ9","3MXX6RQ9EVRTFC527Z18RDK8KW6P4R","","null","<img src=""img/flower6.png"" style=""width:200px; border:14px solid green;"">","null","","","","","","","","",""
"","image-keyboard-response","36","62634","0.0-36.0","3DHE4R9OCXXFL5VAR4XZT856781G2J","A2YCMO8KFFQAJ9","3MXX6RQ9EVRTFC527Z18RDK8KW6P4R","","3.0999999940395355","img/flower4.png","74","4.199999988079071","1","1","2","1","1,0.333,0.333,0.333,1,0.333,0.333,0.333,1","1,0.333,0.333,0.333,1,0.333,0.333,0.333,1","1",""
"","html-keyboard-response","37","62942","0.0-37.0","3DHE4R9OCXXFL5VAR4XZT856781G2J","A2YCMO8KFFQAJ9","3MXX6RQ9EVRTFC527Z18RDK8KW6P4R","","null","<img src=""img/flower4.png"" style=""width:200px; border:14px solid green;"">","null","","","","","","","","",""
"","image-keyboard-response","38","63565","0.0-38.0","3DHE4R9OCXXFL5VAR4XZT856781G2J","A2YCMO8KFFQAJ9","3MXX6RQ9EVRTFC527Z18RDK8KW6P4R","","621.3999999761581","img/flower6.png","74","622.5999999940395","1","1","1","1","1,0.333,0.333,0.333,1,0.333,0.333,0.333,1","1,0.333,0.333,0.333,1,0.333,0.333,0.333,1","1",""
"","html-keyboard-response","39","63870","0.0-39.0","3DHE4R9OCXXFL5VAR4XZT856781G2J","A2YCMO8KFFQAJ9","3MXX6RQ9EVRTFC527Z18RDK8KW6P4R","","null","<img src=""img/flower6.png"" style=""width:200px; border:14px solid green;"">","null","","","","","","","","",""
"","image-keyboard-response","40","64020","0.0-40.0","3DHE4R9OCXXFL5VAR4XZT856781G2J","A2YCMO8KFFQAJ9","3MXX6RQ9EVRTFC527Z18RDK8KW6P4R","","148.89999997615814","img/flower1.png","74","150.2999999821186","1","1","3","1","1,0.333,0.333,0.333,1,0.333,0.333,0.333,1","1,0.333,0.333,0.333,1,0.333,0.333,0.333,1","1",""
"","html-keyboard-response","41","64326","0.0-41.0","3DHE4R9OCXXFL5VAR4XZT856781G2J","A2YCMO8KFFQAJ9","3MXX6RQ9EVRTFC527Z18RDK8KW6P4R","","null","<img src=""img/flower1.png"" style=""width:200px; border:14px solid green;"">","null","","","","","","","","",""
"","image-keyboard-response","42","64564","0.0-42.0","3DHE4R9OCXXFL5VAR4XZT856781G2J","A2YCMO8KFFQAJ9","3MXX6RQ9EVRTFC527Z18RDK8KW6P4R","","236.5","img/flower1.png","74","237.69999998807907","1","0","3","1","1,0.333,0.333,0.333,1,0.333,0.333,0.333,1","1,0.333,0.333,0.333,1,0.333,0.333,0.333,1","1",""
"","html-keyboard-response","43","64870","0.0-43.0","3DHE4R9OCXXFL5VAR4XZT856781G2J","A2YCMO8KFFQAJ9","3MXX6RQ9EVRTFC527Z18RDK8KW6P4R","","null","<img src=""img/flower1.png"" style=""width:200px;border:14px solid red;"">","null","","","","","","","","",""
"","image-keyboard-response","44","64909","0.0-44.0","3DHE4R9OCXXFL5VAR4XZT856781G2J","A2YCMO8KFFQAJ9","3MXX6RQ9EVRTFC527Z18RDK8KW6P4R","","37.79999998211861","img/flower4.png","74","39.19999998807907","1","0","2","1","1,0.333,0.333,0.333,1,0.333,0.333,0.333,1","1,0.333,0.333,0.333,1,0.333,0.333,0.333,1","1",""
"","html-keyboard-response","45","65214","0.0-45.0","3DHE4R9OCXXFL5VAR4XZT856781G2J","A2YCMO8KFFQAJ9","3MXX6RQ9EVRTFC527Z18RDK8KW6P4R","","null","<img src=""img/flower4.png"" style=""width:200px;border:14px solid red;"">","null","","","","","","","","",""
"","image-keyboard-response","46","65378","0.0-46.0","3DHE4R9OCXXFL5VAR4XZT856781G2J","A2YCMO8KFFQAJ9","3MXX6RQ9EVRTFC527Z18RDK8KW6P4R","","162.10000002384186","img/flower6.png","75","163.59999999403954","2","1","1","1","1,0.333,0.333,0.333,1,0.333,0.333,0.333,1","1,0.333,0.333,0.333,1,0.333,0.333,0.333,1","1",""
"","html-keyboard-response","47","65686","0.0-47.0","3DHE4R9OCXXFL5VAR4XZT856781G2J","A2YCMO8KFFQAJ9","3MXX6RQ9EVRTFC527Z18RDK8KW6P4R","","null","<img src=""img/flower6.png"" style=""width:200px; border:14px solid green;"">","null","","","","","","","","",""
"","image-keyboard-response","48","65855","0.0-48.0","3DHE4R9OCXXFL5VAR4XZT856781G2J","A2YCMO8KFFQAJ9","3MXX6RQ9EVRTFC527Z18RDK8KW6P4R","","167.69999998807907","img/flower4.png","75","169","2","1","2","1","1,0.333,0.333,0.333,1,0.333,0.333,0.333,1","1,0.333,0.333,0.333,1,0.333,0.333,0.333,1","1",""
"","html-keyboard-response","49","66158","0.0-49.0","3DHE4R9OCXXFL5VAR4XZT856781G2J","A2YCMO8KFFQAJ9","3MXX6RQ9EVRTFC527Z18RDK8KW6P4R","","null","<img src=""img/flower4.png"" style=""width:200px; border:14px solid green;"">","null","","","","","","","","",""
"","image-keyboard-response","50","66384","0.0-50.0","3DHE4R9OCXXFL5VAR4XZT856781G2J","A2YCMO8KFFQAJ9","3MXX6RQ9EVRTFC527Z18RDK8KW6P4R","","224.5","img/flower1.png","75","225.80000001192093","2","0","3","1","1,0.333,0.333,0.333,1,0.333,0.333,0.333,1","1,0.333,0.333,0.333,1,0.333,0.333,0.333,1","1",""
"","html-keyboard-response","51","66686","0.0-51.0","3DHE4R9OCXXFL5VAR4XZT856781G2J","A2YCMO8KFFQAJ9","3MXX6RQ9EVRTFC527Z18RDK8KW6P4R","","null","<img src=""img/flower1.png"" style=""width:200px;border:14px solid red;"">","null","","","","","","","","",""
"","image-keyboard-response","52","67112","0.0-52.0","3DHE4R9OCXXFL5VAR4XZT856781G2J","A2YCMO8KFFQAJ9","3MXX6RQ9EVRTFC527Z18RDK8KW6P4R","","424.2000000178814","img/flower1.png","76","425.60000002384186","3","1","3","1","1,0.333,0.333,0.333,1,0.333,0.333,0.333,1","1,0.333,0.333,0.333,1,0.333,0.333,0.333,1","1",""
"","html-keyboard-response","53","67414","0.0-53.0","3DHE4R9OCXXFL5VAR4XZT856781G2J","A2YCMO8KFFQAJ9","3MXX6RQ9EVRTFC527Z18RDK8KW6P4R","","null","<img src=""img/flower1.png"" style=""width:200px; border:14px solid green;"">","null","","","","","","","","",""
"","image-keyboard-response","54","67871","0.0-54.0","3DHE4R9OCXXFL5VAR4XZT856781G2J","A2YCMO8KFFQAJ9","3MXX6RQ9EVRTFC527Z18RDK8KW6P4R","","455.7999999821186","img/flower6.png","76","457.2999999821186","3","1","1","1","1,0.333,0.333,0.333,1,0.333,0.333,0.333,1","1,0.333,0.333,0.333,1,0.333,0.333,0.333,1","1",""
"","html-keyboard-response","55","68174","0.0-55.0","3DHE4R9OCXXFL5VAR4XZT856781G2J","A2YCMO8KFFQAJ9","3MXX6RQ9EVRTFC527Z18RDK8KW6P4R","","null","<img src=""img/flower6.png"" style=""width:200px; border:14px solid green;"">","null","","","","","","","","",""
"","image-keyboard-response","56","68281","0.0-56.0","3DHE4R9OCXXFL5VAR4XZT856781G2J","A2YCMO8KFFQAJ9","3MXX6RQ9EVRTFC527Z18RDK8KW6P4R","","106","img/flower4.png","76","107.2000000178814","3","1","2","1","1,0.333,0.333,0.333,1,0.333,0.333,0.333,1","1,0.333,0.333,0.333,1,0.333,0.333,0.333,1","1",""
"","html-keyboard-response","57","68590","0.0-57.0","3DHE4R9OCXXFL5VAR4XZT856781G2J","A2YCMO8KFFQAJ9","3MXX6RQ9EVRTFC527Z18RDK8KW6P4R","","null","<img src=""img/flower4.png"" style=""width:200px; border:14px solid green;"">","null","","","","","","","","",""
"","image-keyboard-response","58","68676","0.0-58.0","3DHE4R9OCXXFL5VAR4XZT856781G2J","A2YCMO8KFFQAJ9","3MXX6RQ9EVRTFC527Z18RDK8KW6P4R","","85.09999999403954","img/flower1.png","76","86.30000001192093","3","1","3","1","1,0.333,0.333,0.333,1,0.333,0.333,0.333,1","1,0.333,0.333,0.333,1,0.333,0.333,0.333,1","1",""
"","html-keyboard-response","59","68982","0.0-59.0","3DHE4R9OCXXFL5VAR4XZT856781G2J","A2YCMO8KFFQAJ9","3MXX6RQ9EVRTFC527Z18RDK8KW6P4R","","null","<img src=""img/flower1.png"" style=""width:200px; border:14px solid green;"">","null","","","","","","","","",""
"","image-keyboard-response","60","69150","0.0-60.0","3DHE4R9OCXXFL5VAR4XZT856781G2J","A2YCMO8KFFQAJ9","3MXX6RQ9EVRTFC527Z18RDK8KW6P4R","","166.7000000178814","img/flower4.png","76","167.90000000596046","3","0","2","1","1,0.333,0.333,0.333,1,0.333,0.333,0.333,1","1,0.333,0.333,0.333,1,0.333,0.333,0.333,1","1",""
"","html-keyboard-response","61","69454","0.0-61.0","3DHE4R9OCXXFL5VAR4XZT856781G2J","A2YCMO8KFFQAJ9","3MXX6RQ9EVRTFC527Z18RDK8KW6P4R","","null","<img src=""img/flower4.png"" style=""width:200px;border:14px solid red;"">","null","","","","","","","","",""
"","image-keyboard-response","62","70004","0.0-62.0","3DHE4R9OCXXFL5VAR4XZT856781G2J","A2YCMO8KFFQAJ9","3MXX6RQ9EVRTFC527Z18RDK8KW6P4R","","549.1000000238419","img/flower4.png","76","550.2999999821186","3","0","2","1","1,0.333,0.333,0.333,1,0.333,0.333,0.333,1","1,0.333,0.333,0.333,1,0.333,0.333,0.333,1","1",""
"","html-keyboard-response","63","70310","0.0-63.0","3DHE4R9OCXXFL5VAR4XZT856781G2J","A2YCMO8KFFQAJ9","3MXX6RQ9EVRTFC527Z18RDK8KW6P4R","","null","<img src=""img/flower4.png"" style=""width:200px;border:14px solid red;"">","null","","","","","","","","",""
"","image-keyboard-response","64","70585","0.0-64.0","3DHE4R9OCXXFL5VAR4XZT856781G2J","A2YCMO8KFFQAJ9","3MXX6RQ9EVRTFC527Z18RDK8KW6P4R","","273.7999999821186","img/flower1.png","75","275.19999998807907","2","0","3","1","1,0.333,0.333,0.333,1,0.333,0.333,0.333,1","1,0.333,0.333,0.333,1,0.333,0.333,0.333,1","1",""
"","html-keyboard-response","65","70894","0.0-65.0","3DHE4R9OCXXFL5VAR4XZT856781G2J","A2YCMO8KFFQAJ9","3MXX6RQ9EVRTFC527Z18RDK8KW6P4R","","null","<img src=""img/flower1.png"" style=""width:200px;border:14px solid red;"">","null","","","","","","","","",""
"","image-keyboard-response","66","71416","0.0-66.0","3DHE4R9OCXXFL5VAR4XZT856781G2J","A2YCMO8KFFQAJ9","3MXX6RQ9EVRTFC527Z18RDK8KW6P4R","","520.7000000178814","img/flower1.png","74","521.6999999880791","1","0","3","1","1,0.333,0.333,0.333,1,0.333,0.333,0.333,1","1,0.333,0.333,0.333,1,0.333,0.333,0.333,1","1",""
"","html-keyboard-response","67","71718","0.0-67.0","3DHE4R9OCXXFL5VAR4XZT856781G2J","A2YCMO8KFFQAJ9","3MXX6RQ9EVRTFC527Z18RDK8KW6P4R","","null","<img src=""img/flower1.png"" style=""width:200px;border:14px solid red;"">","null","","","","","","","","",""
"","image-keyboard-response","68","72034","0.0-68.0","3DHE4R9OCXXFL5VAR4XZT856781G2J","A2YCMO8KFFQAJ9","3MXX6RQ9EVRTFC527Z18RDK8KW6P4R","","314.90000000596046","img/flower6.png","76","316.09999999403954","3","0","1","1","1,0.333,0.333,0.333,1,0.333,0.333,0.333,1","1,0.333,0.333,0.333,1,0.333,0.333,0.333,1","1",""
"","html-keyboard-response","69","72342","0.0-69.0","3DHE4R9OCXXFL5VAR4XZT856781G2J","A2YCMO8KFFQAJ9","3MXX6RQ9EVRTFC527Z18RDK8KW6P4R","","null","<img src=""img/flower6.png"" style=""width:200px;border:14px solid red;"">","null","","","","","","","","",""
"","image-keyboard-response","70","73376","0.0-70.0","3DHE4R9OCXXFL5VAR4XZT856781G2J","A2YCMO8KFFQAJ9","3MXX6RQ9EVRTFC527Z18RDK8KW6P4R","","1033.2000000178814","img/flower4.png","75","1034.3999999761581","2","1","2","1","1,0.333,0.333,0.333,1,0.333,0.333,0.333,1","1,0.333,0.333,0.333,1,0.333,0.333,0.333,1","1",""
"","html-keyboard-response","71","73686","0.0-71.0","3DHE4R9OCXXFL5VAR4XZT856781G2J","A2YCMO8KFFQAJ9","3MXX6RQ9EVRTFC527Z18RDK8KW6P4R","","null","<img src=""img/flower4.png"" style=""width:200px; border:14px solid green;"">","null","","","","","","","","",""
"","image-keyboard-response","72","74002","0.0-72.0","3DHE4R9OCXXFL5VAR4XZT856781G2J","A2YCMO8KFFQAJ9","3MXX6RQ9EVRTFC527Z18RDK8KW6P4R","","314.7000000178814","img/flower6.png","75","315.89999997615814","2","0","1","1","1,0.333,0.333,0.333,1,0.333,0.333,0.333,1","1,0.333,0.333,0.333,1,0.333,0.333,0.333,1","1",""
"","html-keyboard-response","73","74310","0.0-73.0","3DHE4R9OCXXFL5VAR4XZT856781G2J","A2YCMO8KFFQAJ9","3MXX6RQ9EVRTFC527Z18RDK8KW6P4R","","null","<img src=""img/flower6.png"" style=""width:200px;border:14px solid red;"">","null","","","","","","","","",""
"","image-keyboard-response","74","74776","0.0-74.0","3DHE4R9OCXXFL5VAR4XZT856781G2J","A2YCMO8KFFQAJ9","3MXX6RQ9EVRTFC527Z18RDK8KW6P4R","","464.2999999821186","img/flower4.png","74","465.5","1","0","2","1","1,0.333,0.333,0.333,1,0.333,0.333,0.333,1","1,0.333,0.333,0.333,1,0.333,0.333,0.333,1","1",""
"","html-keyboard-response","75","75078","0.0-75.0","3DHE4R9OCXXFL5VAR4XZT856781G2J","A2YCMO8KFFQAJ9","3MXX6RQ9EVRTFC527Z18RDK8KW6P4R","","null","<img src=""img/flower4.png"" style=""width:200px;border:14px solid red;"">","null","","","","","","","","",""
"","image-keyboard-response","76","75131","0.0-76.0","3DHE4R9OCXXFL5VAR4XZT856781G2J","A2YCMO8KFFQAJ9","3MXX6RQ9EVRTFC527Z18RDK8KW6P4R","","51.900000005960464","img/flower1.png","74","53.099999994039536","1","0","3","1","1,0.333,0.333,0.333,1,0.333,0.333,0.333,1","1,0.333,0.333,0.333,1,0.333,0.333,0.333,1","1",""
"","html-keyboard-response","77","75438","0.0-77.0","3DHE4R9OCXXFL5VAR4XZT856781G2J","A2YCMO8KFFQAJ9","3MXX6RQ9EVRTFC527Z18RDK8KW6P4R","","null","<img src=""img/flower1.png"" style=""width:200px;border:14px solid red;"">","null","","","","","","","","",""
"","image-keyboard-response","78","75988","0.0-78.0","3DHE4R9OCXXFL5VAR4XZT856781G2J","A2YCMO8KFFQAJ9","3MXX6RQ9EVRTFC527Z18RDK8KW6P4R","","548.5","img/flower1.png","75","549.8999999761581","2","1","3","1","1,0.333,0.333,0.333,1,0.333,0.333,0.333,1","1,0.333,0.333,0.333,1,0.333,0.333,0.333,1","1",""
"","html-keyboard-response","79","76294","0.0-79.0","3DHE4R9OCXXFL5VAR4XZT856781G2J","A2YCMO8KFFQAJ9","3MXX6RQ9EVRTFC527Z18RDK8KW6P4R","","null","<img src=""img/flower1.png"" style=""width:200px; border:14px solid green;"">","null","","","","","","","","",""
"","image-keyboard-response","80","76990","0.0-80.0","3DHE4R9OCXXFL5VAR4XZT856781G2J","A2YCMO8KFFQAJ9","3MXX6RQ9EVRTFC527Z18RDK8KW6P4R","","695.2999999821186","img/flower6.png","75","696.0999999940395","2","1","1","1","1,0.333,0.333,0.333,1,0.333,0.333,0.333,1","1,0.333,0.333,0.333,1,0.333,0.333,0.333,1","1",""
"","html-keyboard-response","81","77294","0.0-81.0","3DHE4R9OCXXFL5VAR4XZT856781G2J","A2YCMO8KFFQAJ9","3MXX6RQ9EVRTFC527Z18RDK8KW6P4R","","null","<img src=""img/flower6.png"" style=""width:200px; border:14px solid green;"">","null","","","","","","","","",""
"","image-keyboard-response","82","77470","0.0-82.0","3DHE4R9OCXXFL5VAR4XZT856781G2J","A2YCMO8KFFQAJ9","3MXX6RQ9EVRTFC527Z18RDK8KW6P4R","","175.19999998807907","img/flower6.png","75","176.09999999403954","2","0","1","1","1,0.333,0.333,0.333,1,0.333,0.333,0.333,1","1,0.333,0.333,0.333,1,0.333,0.333,0.333,1","1",""
"","html-keyboard-response","83","77774","0.0-83.0","3DHE4R9OCXXFL5VAR4XZT856781G2J","A2YCMO8KFFQAJ9","3MXX6RQ9EVRTFC527Z18RDK8KW6P4R","","null","<img src=""img/flower6.png"" style=""width:200px;border:14px solid red;"">","null","","","","","","","","",""
"","image-keyboard-response","84","78209","0.0-84.0","3DHE4R9OCXXFL5VAR4XZT856781G2J","A2YCMO8KFFQAJ9","3MXX6RQ9EVRTFC527Z18RDK8KW6P4R","","433.09999999403954","img/flower6.png","76","434.60000002384186","3","1","1","1","1,0.333,0.333,0.333,1,0.333,0.333,0.333,1","1,0.333,0.333,0.333,1,0.333,0.333,0.333,1","1",""
"","html-keyboard-response","85","78518","0.0-85.0","3DHE4R9OCXXFL5VAR4XZT856781G2J","A2YCMO8KFFQAJ9","3MXX6RQ9EVRTFC527Z18RDK8KW6P4R","","null","<img src=""img/flower6.png"" style=""width:200px; border:14px solid green;"">","null","","","","","","","","",""
"","image-keyboard-response","86","79031","0.0-86.0","3DHE4R9OCXXFL5VAR4XZT856781G2J","A2YCMO8KFFQAJ9","3MXX6RQ9EVRTFC527Z18RDK8KW6P4R","","511.69999998807907","img/flower6.png","76","512.8000000119209","3","0","1","1","1,0.333,0.333,0.333,1,0.333,0.333,0.333,1","1,0.333,0.333,0.333,1,0.333,0.333,0.333,1","1",""
"","html-keyboard-response","87","79334","0.0-87.0","3DHE4R9OCXXFL5VAR4XZT856781G2J","A2YCMO8KFFQAJ9","3MXX6RQ9EVRTFC527Z18RDK8KW6P4R","","null","<img src=""img/flower6.png"" style=""width:200px;border:14px solid red;"">","null","","","","","","","","",""
"","image-keyboard-response","88","79987","0.0-88.0","3DHE4R9OCXXFL5VAR4XZT856781G2J","A2YCMO8KFFQAJ9","3MXX6RQ9EVRTFC527Z18RDK8KW6P4R","","650.9000000059605","img/flower4.png","76","652.2000000178814","3","1","2","1","1,0.333,0.333,0.333,1,0.333,0.333,0.333,1","1,0.333,0.333,0.333,1,0.333,0.333,0.333,1","1",""
"","html-keyboard-response","89","80294","0.0-89.0","3DHE4R9OCXXFL5VAR4XZT856781G2J","A2YCMO8KFFQAJ9","3MXX6RQ9EVRTFC527Z18RDK8KW6P4R","","null","<img src=""img/flower4.png"" style=""width:200px; border:14px solid green;"">","null","","","","","","","","",""
"","image-keyboard-response","90","80388","0.0-90.0","3DHE4R9OCXXFL5VAR4XZT856781G2J","A2YCMO8KFFQAJ9","3MXX6RQ9EVRTFC527Z18RDK8KW6P4R","","92.80000001192093","img/flower1.png","76","93.90000000596046","3","1","3","1","1,0.333,0.333,0.333,1,0.333,0.333,0.333,1","1,0.333,0.333,0.333,1,0.333,0.333,0.333,1","1",""
"","html-keyboard-response","91","80694","0.0-91.0","3DHE4R9OCXXFL5VAR4XZT856781G2J","A2YCMO8KFFQAJ9","3MXX6RQ9EVRTFC527Z18RDK8KW6P4R","","null","<img src=""img/flower1.png"" style=""width:200px; border:14px solid green;"">","null","","","","","","","","",""
"","image-keyboard-response","92","81146","0.0-92.0","3DHE4R9OCXXFL5VAR4XZT856781G2J","A2YCMO8KFFQAJ9","3MXX6RQ9EVRTFC527Z18RDK8KW6P4R","","450.19999998807907","img/flower4.png","76","451.40000000596046","3","0","2","1","1,0.333,0.333,0.333,1,0.333,0.333,0.333,1","1,0.333,0.333,0.333,1,0.333,0.333,0.333,1","1",""
"","html-keyboard-response","93","81454","0.0-93.0","3DHE4R9OCXXFL5VAR4XZT856781G2J","A2YCMO8KFFQAJ9","3MXX6RQ9EVRTFC527Z18RDK8KW6P4R","","null","<img src=""img/flower4.png"" style=""width:200px;border:14px solid red;"">","null","","","","","","","","",""
"","image-keyboard-response","94","82329","0.0-94.0","3DHE4R9OCXXFL5VAR4XZT856781G2J","A2YCMO8KFFQAJ9","3MXX6RQ9EVRTFC527Z18RDK8KW6P4R","","873.2999999821186","img/flower6.png","76","874.5999999940395","3","0","1","1","1,0.333,0.333,0.333,1,0.333,0.333,0.333,1","1,0.333,0.333,0.333,1,0.333,0.333,0.333,1","1",""
"","html-keyboard-response","95","82638","0.0-95.0","3DHE4R9OCXXFL5VAR4XZT856781G2J","A2YCMO8KFFQAJ9","3MXX6RQ9EVRTFC527Z18RDK8KW6P4R","","null","<img src=""img/flower6.png"" style=""width:200px;border:14px solid red;"">","null","","","","","","","","",""
"","image-keyboard-response","96","83631","0.0-96.0","3DHE4R9OCXXFL5VAR4XZT856781G2J","A2YCMO8KFFQAJ9","3MXX6RQ9EVRTFC527Z18RDK8KW6P4R","","991.6000000238419","img/flower6.png","75","993.1000000238419","2","0","1","1","1,0.333,0.333,0.333,1,0.333,0.333,0.333,1","1,0.333,0.333,0.333,1,0.333,0.333,0.333,1","1",""
"","html-keyboard-response","97","83934","0.0-97.0","3DHE4R9OCXXFL5VAR4XZT856781G2J","A2YCMO8KFFQAJ9","3MXX6RQ9EVRTFC527Z18RDK8KW6P4R","","null","<img src=""img/flower6.png"" style=""width:200px;border:14px solid red;"">","null","","","","","","","","",""
"","image-keyboard-response","98","84127","0.0-98.0","3DHE4R9OCXXFL5VAR4XZT856781G2J","A2YCMO8KFFQAJ9","3MXX6RQ9EVRTFC527Z18RDK8KW6P4R","","191.60000002384186","img/flower1.png","76","192.90000000596046","3","1","3","1","1,0.333,0.333,0.333,1,0.333,0.333,0.333,1","1,0.333,0.333,0.333,1,0.333,0.333,0.333,1","1",""
"","html-keyboard-response","99","84430","0.0-99.0","3DHE4R9OCXXFL5VAR4XZT856781G2J","A2YCMO8KFFQAJ9","3MXX6RQ9EVRTFC527Z18RDK8KW6P4R","","null","<img src=""img/flower1.png"" style=""width:200px; border:14px solid green;"">","null","","","","","","","","",""
"","image-keyboard-response","100","84725","0.0-100.0","3DHE4R9OCXXFL5VAR4XZT856781G2J","A2YCMO8KFFQAJ9","3MXX6RQ9EVRTFC527Z18RDK8KW6P4R","","293.5","img/flower6.png","76","294.69999998807907","3","0","1","1","1,0.333,0.333,0.333,1,0.333,0.333,0.333,1","1,0.333,0.333,0.333,1,0.333,0.333,0.333,1","1",""
"","html-keyboard-response","101","85030","0.0-101.0","3DHE4R9OCXXFL5VAR4XZT856781G2J","A2YCMO8KFFQAJ9","3MXX6RQ9EVRTFC527Z18RDK8KW6P4R","","null","<img src=""img/flower6.png"" style=""width:200px;border:14px solid red;"">","null","","","","","","","","",""
"","image-keyboard-response","102","85056","0.0-102.0","3DHE4R9OCXXFL5VAR4XZT856781G2J","A2YCMO8KFFQAJ9","3MXX6RQ9EVRTFC527Z18RDK8KW6P4R","","25.30000001192093","img/flower1.png","76","26.399999976158142","3","1","3","1","1,0.333,0.333,0.333,1,0.333,0.333,0.333,1","1,0.333,0.333,0.333,1,0.333,0.333,0.333,1","1",""
"","html-keyboard-response","103","85366","0.0-103.0","3DHE4R9OCXXFL5VAR4XZT856781G2J","A2YCMO8KFFQAJ9","3MXX6RQ9EVRTFC527Z18RDK8KW6P4R","","null","<img src=""img/flower1.png"" style=""width:200px; border:14px solid green;"">","null","","","","","","","","",""
"","image-keyboard-response","104","85420","0.0-104.0","3DHE4R9OCXXFL5VAR4XZT856781G2J","A2YCMO8KFFQAJ9","3MXX6RQ9EVRTFC527Z18RDK8KW6P4R","","52.30000001192093","img/flower1.png","76","53.599999994039536","3","1","3","1","1,0.333,0.333,0.333,1,0.333,0.333,0.333,1","1,0.333,0.333,0.333,1,0.333,0.333,0.333,1","1",""
"","html-keyboard-response","105","85726","0.0-105.0","3DHE4R9OCXXFL5VAR4XZT856781G2J","A2YCMO8KFFQAJ9","3MXX6RQ9EVRTFC527Z18RDK8KW6P4R","","null","<img src=""img/flower1.png"" style=""width:200px; border:14px solid green;"">","null","","","","","","","","",""
"","image-keyboard-response","106","85807","0.0-106.0","3DHE4R9OCXXFL5VAR4XZT856781G2J","A2YCMO8KFFQAJ9","3MXX6RQ9EVRTFC527Z18RDK8KW6P4R","","79.80000001192093","img/flower6.png","76","81.10000002384186","3","0","1","1","1,0.333,0.333,0.333,1,0.333,0.333,0.333,1","1,0.333,0.333,0.333,1,0.333,0.333,0.333,1","1",""
"","html-keyboard-response","107","86110","0.0-107.0","3DHE4R9OCXXFL5VAR4XZT856781G2J","A2YCMO8KFFQAJ9","3MXX6RQ9EVRTFC527Z18RDK8KW6P4R","","null","<img src=""img/flower6.png"" style=""width:200px;border:14px solid red;"">","null","","","","","","","","",""
"","image-keyboard-response","108","86474","0.0-108.0","3DHE4R9OCXXFL5VAR4XZT856781G2J","A2YCMO8KFFQAJ9","3MXX6RQ9EVRTFC527Z18RDK8KW6P4R","","362.09999999403954","img/flower1.png","76","363.30000001192093","3","1","3","1","1,0.333,0.333,0.333,1,0.333,0.333,0.333,1","1,0.333,0.333,0.333,1,0.333,0.333,0.333,1","1",""
"","html-keyboard-response","109","86782","0.0-109.0","3DHE4R9OCXXFL5VAR4XZT856781G2J","A2YCMO8KFFQAJ9","3MXX6RQ9EVRTFC527Z18RDK8KW6P4R","","null","<img src=""img/flower1.png"" style=""width:200px; border:14px solid green;"">","null","","","","","","","","",""
"","image-keyboard-response","110","87447","0.0-110.0","3DHE4R9OCXXFL5VAR4XZT856781G2J","A2YCMO8KFFQAJ9","3MXX6RQ9EVRTFC527Z18RDK8KW6P4R","","663.4000000059605","img/flower6.png","76","664.7000000178814","3","1","1","1","1,0.333,0.333,0.333,1,0.333,0.333,0.333,1","1,0.333,0.333,0.333,1,0.333,0.333,0.333,1","1",""
"","html-keyboard-response","111","87750","0.0-111.0","3DHE4R9OCXXFL5VAR4XZT856781G2J","A2YCMO8KFFQAJ9","3MXX6RQ9EVRTFC527Z18RDK8KW6P4R","","null","<img src=""img/flower6.png"" style=""width:200px; border:14px solid green;"">","null","","","","","","","","",""
"","image-keyboard-response","112","87873","0.0-112.0","3DHE4R9OCXXFL5VAR4XZT856781G2J","A2YCMO8KFFQAJ9","3MXX6RQ9EVRTFC527Z18RDK8KW6P4R","","121.80000001192093","img/flower4.png","76","123.09999999403954","3","1","2","1","1,0.333,0.333,0.333,1,0.333,0.333,0.333,1","1,0.333,0.333,0.333,1,0.333,0.333,0.333,1","1",""
"","html-keyboard-response","113","88182","0.0-113.0","3DHE4R9OCXXFL5VAR4XZT856781G2J","A2YCMO8KFFQAJ9","3MXX6RQ9EVRTFC527Z18RDK8KW6P4R","","null","<img src=""img/flower4.png"" style=""width:200px; border:14px solid green;"">","null","","","","","","","","",""
"","image-keyboard-response","114","88565","0.0-114.0","3DHE4R9OCXXFL5VAR4XZT856781G2J","A2YCMO8KFFQAJ9","3MXX6RQ9EVRTFC527Z18RDK8KW6P4R","","381.90000000596046","img/flower1.png","76","383.2999999821186","3","1","3","1","1,0.333,0.333,0.333,1,0.333,0.333,0.333,1","1,0.333,0.333,0.333,1,0.333,0.333,0.333,1","1",""
"","html-keyboard-response","115","88870","0.0-115.0","3DHE4R9OCXXFL5VAR4XZT856781G2J","A2YCMO8KFFQAJ9","3MXX6RQ9EVRTFC527Z18RDK8KW6P4R","","null","<img src=""img/flower1.png"" style=""width:200px; border:14px solid green;"">","null","","","","","","","","",""
"","image-keyboard-response","116","88955","0.0-116.0","3DHE4R9OCXXFL5VAR4XZT856781G2J","A2YCMO8KFFQAJ9","3MXX6RQ9EVRTFC527Z18RDK8KW6P4R","","83.59999999403954","img/flower4.png","76","84.69999998807907","3","0","2","1","1,0.333,0.333,0.333,1,0.333,0.333,0.333,1","1,0.333,0.333,0.333,1,0.333,0.333,0.333,1","1",""
"","html-keyboard-response","117","89262","0.0-117.0","3DHE4R9OCXXFL5VAR4XZT856781G2J","A2YCMO8KFFQAJ9","3MXX6RQ9EVRTFC527Z18RDK8KW6P4R","","null","<img src=""img/flower4.png"" style=""width:200px;border:14px solid red;"">","null","","","","","","","","",""
"","image-keyboard-response","118","89746","0.0-118.0","3DHE4R9OCXXFL5VAR4XZT856781G2J","A2YCMO8KFFQAJ9","3MXX6RQ9EVRTFC527Z18RDK8KW6P4R","","482.2999999821186","img/flower4.png","76","483.69999998807907","3","1","2","1","1,0.333,0.333,0.333,1,0.333,0.333,0.333,1","1,0.333,0.333,0.333,1,0.333,0.333,0.333,1","1",""
"","html-keyboard-response","119","90051","0.0-119.0","3DHE4R9OCXXFL5VAR4XZT856781G2J","A2YCMO8KFFQAJ9","3MXX6RQ9EVRTFC527Z18RDK8KW6P4R","","null","<img src=""img/flower4.png"" style=""width:200px; border:14px solid green;"">","null","","","","","","","","",""
"","image-keyboard-response","120","90407","0.0-120.0","3DHE4R9OCXXFL5VAR4XZT856781G2J","A2YCMO8KFFQAJ9","3MXX6RQ9EVRTFC527Z18RDK8KW6P4R","","354.40000000596046","img/flower4.png","76","355.5","3","0","2","1","1,0.333,0.333,0.333,1,0.333,0.333,0.333,1","1,0.333,0.333,0.333,1,0.333,0.333,0.333,1","1",""
"","html-keyboard-response","121","90710","0.0-121.0","3DHE4R9OCXXFL5VAR4XZT856781G2J","A2YCMO8KFFQAJ9","3MXX6RQ9EVRTFC527Z18RDK8KW6P4R","","null","<img src=""img/flower4.png"" style=""width:200px;border:14px solid red;"">","null","","","","","","","","",""
"","image-keyboard-response","122","90967","0.0-122.0","3DHE4R9OCXXFL5VAR4XZT856781G2J","A2YCMO8KFFQAJ9","3MXX6RQ9EVRTFC527Z18RDK8KW6P4R","","256.09999999403954","img/flower4.png","76","257.40000000596046","3","0","2","1","1,0.333,0.333,0.333,1,0.333,0.333,0.333,1","1,0.333,0.333,0.333,1,0.333,0.333,0.333,1","1",""
"","html-keyboard-response","123","91270","0.0-123.0","3DHE4R9OCXXFL5VAR4XZT856781G2J","A2YCMO8KFFQAJ9","3MXX6RQ9EVRTFC527Z18RDK8KW6P4R","","null","<img src=""img/flower4.png"" style=""width:200px;border:14px solid red;"">","null","","","","","","","","",""
"","image-keyboard-response","124","92174","0.0-124.0","3DHE4R9OCXXFL5VAR4XZT856781G2J","A2YCMO8KFFQAJ9","3MXX6RQ9EVRTFC527Z18RDK8KW6P4R","","902.5999999940395","img/flower6.png","75","903.9000000059605","2","0","1","1","1,0.333,0.333,0.333,1,0.333,0.333,0.333,1","1,0.333,0.333,0.333,1,0.333,0.333,0.333,1","1",""
"","html-keyboard-response","125","92478","0.0-125.0","3DHE4R9OCXXFL5VAR4XZT856781G2J","A2YCMO8KFFQAJ9","3MXX6RQ9EVRTFC527Z18RDK8KW6P4R","","null","<img src=""img/flower6.png"" style=""width:200px;border:14px solid red;"">","null","","","","","","","","",""
"","image-keyboard-response","126","92664","0.0-126.0","3DHE4R9OCXXFL5VAR4XZT856781G2J","A2YCMO8KFFQAJ9","3MXX6RQ9EVRTFC527Z18RDK8KW6P4R","","184.80000001192093","img/flower6.png","74","186","1","1","1","1","1,0.333,0.333,0.333,1,0.333,0.333,0.333,1","1,0.333,0.333,0.333,1,0.333,0.333,0.333,1","1",""
"","html-keyboard-response","127","92974","0.0-127.0","3DHE4R9OCXXFL5VAR4XZT856781G2J","A2YCMO8KFFQAJ9","3MXX6RQ9EVRTFC527Z18RDK8KW6P4R","","null","<img src=""img/flower6.png"" style=""width:200px; border:14px solid green;"">","null","","","","","","","","",""
"","image-keyboard-response","128","93566","0.0-128.0","3DHE4R9OCXXFL5VAR4XZT856781G2J","A2YCMO8KFFQAJ9","3MXX6RQ9EVRTFC527Z18RDK8KW6P4R","","590.6999999880791","img/flower6.png","74","591.9000000059605","1","1","1","1","1,0.333,0.333,0.333,1,0.333,0.333,0.333,1","1,0.333,0.333,0.333,1,0.333,0.333,0.333,1","1",""
"","html-keyboard-response","129","93870","0.0-129.0","3DHE4R9OCXXFL5VAR4XZT856781G2J","A2YCMO8KFFQAJ9","3MXX6RQ9EVRTFC527Z18RDK8KW6P4R","","null","<img src=""img/flower6.png"" style=""width:200px; border:14px solid green;"">","null","","","","","","","","",""
"","image-keyboard-response","130","94271","0.0-130.0","3DHE4R9OCXXFL5VAR4XZT856781G2J","A2YCMO8KFFQAJ9","3MXX6RQ9EVRTFC527Z18RDK8KW6P4R","","399.80000001192093","img/flower1.png","74","401","1","0","3","1","1,0.333,0.333,0.333,1,0.333,0.333,0.333,1","1,0.333,0.333,0.333,1,0.333,0.333,0.333,1","1",""
"","html-keyboard-response","131","94574","0.0-131.0","3DHE4R9OCXXFL5VAR4XZT856781G2J","A2YCMO8KFFQAJ9","3MXX6RQ9EVRTFC527Z18RDK8KW6P4R","","null","<img src=""img/flower1.png"" style=""width:200px;border:14px solid red;"">","null","","","","","","","","",""
"","image-keyboard-response","132","95324","0.0-132.0","3DHE4R9OCXXFL5VAR4XZT856781G2J","A2YCMO8KFFQAJ9","3MXX6RQ9EVRTFC527Z18RDK8KW6P4R","","748.5999999940395","img/flower4.png","75","749.8000000119209","2","1","2","1","1,0.333,0.333,0.333,1,0.333,0.333,0.333,1","1,0.333,0.333,0.333,1,0.333,0.333,0.333,1","1",""
"","html-keyboard-response","133","95630","0.0-133.0","3DHE4R9OCXXFL5VAR4XZT856781G2J","A2YCMO8KFFQAJ9","3MXX6RQ9EVRTFC527Z18RDK8KW6P4R","","null","<img src=""img/flower4.png"" style=""width:200px; border:14px solid green;"">","null","","","","","","","","",""
"","image-keyboard-response","134","95928","0.0-134.0","3DHE4R9OCXXFL5VAR4XZT856781G2J","A2YCMO8KFFQAJ9","3MXX6RQ9EVRTFC527Z18RDK8KW6P4R","","296.40000000596046","img/flower4.png","75","297.7000000178814","2","1","2","1","1,0.333,0.333,0.333,1,0.333,0.333,0.333,1","1,0.333,0.333,0.333,1,0.333,0.333,0.333,1","1",""
"","html-keyboard-response","135","96230","0.0-135.0","3DHE4R9OCXXFL5VAR4XZT856781G2J","A2YCMO8KFFQAJ9","3MXX6RQ9EVRTFC527Z18RDK8KW6P4R","","null","<img src=""img/flower4.png"" style=""width:200px; border:14px solid green;"">","null","","","","","","","","",""
"","image-keyboard-response","136","96490","0.0-136.0","3DHE4R9OCXXFL5VAR4XZT856781G2J","A2YCMO8KFFQAJ9","3MXX6RQ9EVRTFC527Z18RDK8KW6P4R","","258.7999999821186","img/flower1.png","75","260.09999999403954","2","0","3","1","1,0.333,0.333,0.333,1,0.333,0.333,0.333,1","1,0.333,0.333,0.333,1,0.333,0.333,0.333,1","1",""
"","html-keyboard-response","137","96798","0.0-137.0","3DHE4R9OCXXFL5VAR4XZT856781G2J","A2YCMO8KFFQAJ9","3MXX6RQ9EVRTFC527Z18RDK8KW6P4R","","null","<img src=""img/flower1.png"" style=""width:200px;border:14px solid red;"">","null","","","","","","","","",""
"","image-keyboard-response","138","97302","0.0-138.0","3DHE4R9OCXXFL5VAR4XZT856781G2J","A2YCMO8KFFQAJ9","3MXX6RQ9EVRTFC527Z18RDK8KW6P4R","","502.5","img/flower6.png","75","503.7000000178814","2","0","1","1","1,0.333,0.333,0.333,1,0.333,0.333,0.333,1","1,0.333,0.333,0.333,1,0.333,0.333,0.333,1","1",""
"","html-keyboard-response","139","97606","0.0-139.0","3DHE4R9OCXXFL5VAR4XZT856781G2J","A2YCMO8KFFQAJ9","3MXX6RQ9EVRTFC527Z18RDK8KW6P4R","","null","<img src=""img/flower6.png"" style=""width:200px;border:14px solid red;"">","null","","","","","","","","",""
"","image-keyboard-response","140","97820","0.0-140.0","3DHE4R9OCXXFL5VAR4XZT856781G2J","A2YCMO8KFFQAJ9","3MXX6RQ9EVRTFC527Z18RDK8KW6P4R","","212.59999999403954","img/flower4.png","76","213.89999997615814","3","0","2","1","1,0.333,0.333,0.333,1,0.333,0.333,0.333,1","1,0.333,0.333,0.333,1,0.333,0.333,0.333,1","1",""
"","html-keyboard-response","141","98126","0.0-141.0","3DHE4R9OCXXFL5VAR4XZT856781G2J","A2YCMO8KFFQAJ9","3MXX6RQ9EVRTFC527Z18RDK8KW6P4R","","null","<img src=""img/flower4.png"" style=""width:200px;border:14px solid red;"">","null","","","","","","","","",""
"","image-keyboard-response","142","98483","0.0-142.0","3DHE4R9OCXXFL5VAR4XZT856781G2J","A2YCMO8KFFQAJ9","3MXX6RQ9EVRTFC527Z18RDK8KW6P4R","","355.69999998807907","img/flower6.png","76","356.80000001192093","3","0","1","1","1,0.333,0.333,0.333,1,0.333,0.333,0.333,1","1,0.333,0.333,0.333,1,0.333,0.333,0.333,1","1",""
"","html-keyboard-response","143","98790","0.0-143.0","3DHE4R9OCXXFL5VAR4XZT856781G2J","A2YCMO8KFFQAJ9","3MXX6RQ9EVRTFC527Z18RDK8KW6P4R","","null","<img src=""img/flower6.png"" style=""width:200px;border:14px solid red;"">","null","","","","","","","","",""
"","image-keyboard-response","144","98962","0.0-144.0","3DHE4R9OCXXFL5VAR4XZT856781G2J","A2YCMO8KFFQAJ9","3MXX6RQ9EVRTFC527Z18RDK8KW6P4R","","170.80000001192093","img/flower6.png","75","172.09999999403954","2","0","1","1","1,0.333,0.333,0.333,1,0.333,0.333,0.333,1","1,0.333,0.333,0.333,1,0.333,0.333,0.333,1","1",""
"","html-keyboard-response","145","99270","0.0-145.0","3DHE4R9OCXXFL5VAR4XZT856781G2J","A2YCMO8KFFQAJ9","3MXX6RQ9EVRTFC527Z18RDK8KW6P4R","","null","<img src=""img/flower6.png"" style=""width:200px;border:14px solid red;"">","null","","","","","","","","",""
"","image-keyboard-response","146","99782","0.0-146.0","3DHE4R9OCXXFL5VAR4XZT856781G2J","A2YCMO8KFFQAJ9","3MXX6RQ9EVRTFC527Z18RDK8KW6P4R","","511.10000002384186","img/flower4.png","74","512.5","1","0","2","1","1,0.333,0.333,0.333,1,0.333,0.333,0.333,1","1,0.333,0.333,0.333,1,0.333,0.333,0.333,1","1",""
"","html-keyboard-response","147","100086","0.0-147.0","3DHE4R9OCXXFL5VAR4XZT856781G2J","A2YCMO8KFFQAJ9","3MXX6RQ9EVRTFC527Z18RDK8KW6P4R","","null","<img src=""img/flower4.png"" style=""width:200px;border:14px solid red;"">","null","","","","","","","","",""
"","image-keyboard-response","148","100526","0.0-148.0","3DHE4R9OCXXFL5VAR4XZT856781G2J","A2YCMO8KFFQAJ9","3MXX6RQ9EVRTFC527Z18RDK8KW6P4R","","438.7000000178814","img/flower1.png","75","439.89999997615814","2","1","3","1","1,0.333,0.333,0.333,1,0.333,0.333,0.333,1","1,0.333,0.333,0.333,1,0.333,0.333,0.333,1","1",""
"","html-keyboard-response","149","100830","0.0-149.0","3DHE4R9OCXXFL5VAR4XZT856781G2J","A2YCMO8KFFQAJ9","3MXX6RQ9EVRTFC527Z18RDK8KW6P4R","","null","<img src=""img/flower1.png"" style=""width:200px; border:14px solid green;"">","null","","","","","","","","",""
"","image-keyboard-response","150","101016","0.0-150.0","3DHE4R9OCXXFL5VAR4XZT856781G2J","A2YCMO8KFFQAJ9","3MXX6RQ9EVRTFC527Z18RDK8KW6P4R","","184.69999998807907","img/flower4.png","75","185.90000000596046","2","1","2","1","1,0.333,0.333,0.333,1,0.333,0.333,0.333,1","1,0.333,0.333,0.333,1,0.333,0.333,0.333,1","1",""
"","html-keyboard-response","151","101326","0.0-151.0","3DHE4R9OCXXFL5VAR4XZT856781G2J","A2YCMO8KFFQAJ9","3MXX6RQ9EVRTFC527Z18RDK8KW6P4R","","null","<img src=""img/flower4.png"" style=""width:200px; border:14px solid green;"">","null","","","","","","","","",""
"","image-keyboard-response","152","101601","0.0-152.0","3DHE4R9OCXXFL5VAR4XZT856781G2J","A2YCMO8KFFQAJ9","3MXX6RQ9EVRTFC527Z18RDK8KW6P4R","","273.7000000178814","img/flower1.png","75","274.90000000596046","2","1","3","1","1,0.333,0.333,0.333,1,0.333,0.333,0.333,1","1,0.333,0.333,0.333,1,0.333,0.333,0.333,1","1",""
"","html-keyboard-response","153","101910","0.0-153.0","3DHE4R9OCXXFL5VAR4XZT856781G2J","A2YCMO8KFFQAJ9","3MXX6RQ9EVRTFC527Z18RDK8KW6P4R","","null","<img src=""img/flower1.png"" style=""width:200px; border:14px solid green;"">","null","","","","","","","","",""
"","image-keyboard-response","154","102253","0.0-154.0","3DHE4R9OCXXFL5VAR4XZT856781G2J","A2YCMO8KFFQAJ9","3MXX6RQ9EVRTFC527Z18RDK8KW6P4R","","341.5","img/flower4.png","75","342.7000000178814","2","1","2","1","1,0.333,0.333,0.333,1,0.333,0.333,0.333,1","1,0.333,0.333,0.333,1,0.333,0.333,0.333,1","1",""
"","html-keyboard-response","155","102558","0.0-155.0","3DHE4R9OCXXFL5VAR4XZT856781G2J","A2YCMO8KFFQAJ9","3MXX6RQ9EVRTFC527Z18RDK8KW6P4R","","null","<img src=""img/flower4.png"" style=""width:200px; border:14px solid green;"">","null","","","","","","","","",""
"","image-keyboard-response","156","102609","0.0-156.0","3DHE4R9OCXXFL5VAR4XZT856781G2J","A2YCMO8KFFQAJ9","3MXX6RQ9EVRTFC527Z18RDK8KW6P4R","","50.400000005960464","img/flower6.png","75","51.5","2","1","1","1","1,0.333,0.333,0.333,1,0.333,0.333,0.333,1","1,0.333,0.333,0.333,1,0.333,0.333,0.333,1","1",""
"","html-keyboard-response","157","102912","0.0-157.0","3DHE4R9OCXXFL5VAR4XZT856781G2J","A2YCMO8KFFQAJ9","3MXX6RQ9EVRTFC527Z18RDK8KW6P4R","","null","<img src=""img/flower6.png"" style=""width:200px; border:14px solid green;"">","null","","","","","","","","",""
"","image-keyboard-response","158","103040","0.0-158.0","3DHE4R9OCXXFL5VAR4XZT856781G2J","A2YCMO8KFFQAJ9","3MXX6RQ9EVRTFC527Z18RDK8KW6P4R","","126.69999998807907","img/flower1.png","75","127.80000001192093","2","1","3","1","1,0.333,0.333,0.333,1,0.333,0.333,0.333,1","1,0.333,0.333,0.333,1,0.333,0.333,0.333,1","1",""
"","html-keyboard-response","159","103342","0.0-159.0","3DHE4R9OCXXFL5VAR4XZT856781G2J","A2YCMO8KFFQAJ9","3MXX6RQ9EVRTFC527Z18RDK8KW6P4R","","null","<img src=""img/flower1.png"" style=""width:200px; border:14px solid green;"">","null","","","","","","","","",""
"","image-keyboard-response","160","103657","0.0-160.0","3DHE4R9OCXXFL5VAR4XZT856781G2J","A2YCMO8KFFQAJ9","3MXX6RQ9EVRTFC527Z18RDK8KW6P4R","","314.09999999403954","img/flower1.png","75","315.2000000178814","2","0","3","1","1,0.333,0.333,0.333,1,0.333,0.333,0.333,1","1,0.333,0.333,0.333,1,0.333,0.333,0.333,1","1",""
"","html-keyboard-response","161","103966","0.0-161.0","3DHE4R9OCXXFL5VAR4XZT856781G2J","A2YCMO8KFFQAJ9","3MXX6RQ9EVRTFC527Z18RDK8KW6P4R","","null","<img src=""img/flower1.png"" style=""width:200px;border:14px solid red;"">","null","","","","","","","","",""
"","image-keyboard-response","162","104415","0.0-162.0","3DHE4R9OCXXFL5VAR4XZT856781G2J","A2YCMO8KFFQAJ9","3MXX6RQ9EVRTFC527Z18RDK8KW6P4R","","447.2000000178814","img/flower4.png","76","448.5","3","1","2","1","1,0.333,0.333,0.333,1,0.333,0.333,0.333,1","1,0.333,0.333,0.333,1,0.333,0.333,0.333,1","1",""
"","html-keyboard-response","163","104718","0.0-163.0","3DHE4R9OCXXFL5VAR4XZT856781G2J","A2YCMO8KFFQAJ9","3MXX6RQ9EVRTFC527Z18RDK8KW6P4R","","null","<img src=""img/flower4.png"" style=""width:200px; border:14px solid green;"">","null","","","","","","","","",""
"","image-keyboard-response","164","104762","0.0-164.0","3DHE4R9OCXXFL5VAR4XZT856781G2J","A2YCMO8KFFQAJ9","3MXX6RQ9EVRTFC527Z18RDK8KW6P4R","","42.80000001192093","img/flower1.png","76","44.19999998807907","3","1","3","1","1,0.333,0.333,0.333,1,0.333,0.333,0.333,1","1,0.333,0.333,0.333,1,0.333,0.333,0.333,1","1",""
"","html-keyboard-response","165","105070","0.0-165.0","3DHE4R9OCXXFL5VAR4XZT856781G2J","A2YCMO8KFFQAJ9","3MXX6RQ9EVRTFC527Z18RDK8KW6P4R","","null","<img src=""img/flower1.png"" style=""width:200px; border:14px solid green;"">","null","","","","","","","","",""
"","image-keyboard-response","166","105298","0.0-166.0","3DHE4R9OCXXFL5VAR4XZT856781G2J","A2YCMO8KFFQAJ9","3MXX6RQ9EVRTFC527Z18RDK8KW6P4R","","227.2000000178814","img/flower1.png","76","228.40000000596046","3","1","3","1","1,0.333,0.333,0.333,1,0.333,0.333,0.333,1","1,0.333,0.333,0.333,1,0.333,0.333,0.333,1","1",""
"","html-keyboard-response","167","105606","0.0-167.0","3DHE4R9OCXXFL5VAR4XZT856781G2J","A2YCMO8KFFQAJ9","3MXX6RQ9EVRTFC527Z18RDK8KW6P4R","","null","<img src=""img/flower1.png"" style=""width:200px; border:14px solid green;"">","null","","","","","","","","",""
"","image-keyboard-response","168","105641","0.0-168.0","3DHE4R9OCXXFL5VAR4XZT856781G2J","A2YCMO8KFFQAJ9","3MXX6RQ9EVRTFC527Z18RDK8KW6P4R","","33.89999997615814","img/flower6.png","76","35.19999998807907","3","1","1","1","1,0.333,0.333,0.333,1,0.333,0.333,0.333,1","1,0.333,0.333,0.333,1,0.333,0.333,0.333,1","1",""
"","html-keyboard-response","169","105950","0.0-169.0","3DHE4R9OCXXFL5VAR4XZT856781G2J","A2YCMO8KFFQAJ9","3MXX6RQ9EVRTFC527Z18RDK8KW6P4R","","null","<img src=""img/flower6.png"" style=""width:200px; border:14px solid green;"">","null","","","","","","","","",""
"","image-keyboard-response","170","105999","0.0-170.0","3DHE4R9OCXXFL5VAR4XZT856781G2J","A2YCMO8KFFQAJ9","3MXX6RQ9EVRTFC527Z18RDK8KW6P4R","","47.5","img/flower6.png","76","48.89999997615814","3","0","1","1","1,0.333,0.333,0.333,1,0.333,0.333,0.333,1","1,0.333,0.333,0.333,1,0.333,0.333,0.333,1","1",""
"","html-keyboard-response","171","106301","0.0-171.0","3DHE4R9OCXXFL5VAR4XZT856781G2J","A2YCMO8KFFQAJ9","3MXX6RQ9EVRTFC527Z18RDK8KW6P4R","","null","<img src=""img/flower6.png"" style=""width:200px;border:14px solid red;"">","null","","","","","","","","",""
"","image-keyboard-response","172","107174","0.0-172.0","3DHE4R9OCXXFL5VAR4XZT856781G2J","A2YCMO8KFFQAJ9","3MXX6RQ9EVRTFC527Z18RDK8KW6P4R","","871.7000000178814","img/flower6.png","76","873.2000000178814","3","0","1","1","1,0.333,0.333,0.333,1,0.333,0.333,0.333,1","1,0.333,0.333,0.333,1,0.333,0.333,0.333,1","1",""
"","html-keyboard-response","173","107478","0.0-173.0","3DHE4R9OCXXFL5VAR4XZT856781G2J","A2YCMO8KFFQAJ9","3MXX6RQ9EVRTFC527Z18RDK8KW6P4R","","null","<img src=""img/flower6.png"" style=""width:200px;border:14px solid red;"">","null","","","","","","","","",""
"","image-keyboard-response","174","107752","0.0-174.0","3DHE4R9OCXXFL5VAR4XZT856781G2J","A2YCMO8KFFQAJ9","3MXX6RQ9EVRTFC527Z18RDK8KW6P4R","","273","img/flower1.png","75","274.09999999403954","2","1","3","1","1,0.333,0.333,0.333,1,0.333,0.333,0.333,1","1,0.333,0.333,0.333,1,0.333,0.333,0.333,1","1",""
"","html-keyboard-response","175","108054","0.0-175.0","3DHE4R9OCXXFL5VAR4XZT856781G2J","A2YCMO8KFFQAJ9","3MXX6RQ9EVRTFC527Z18RDK8KW6P4R","","null","<img src=""img/flower1.png"" style=""width:200px; border:14px solid green;"">","null","","","","","","","","",""
"","image-keyboard-response","176","108730","0.0-176.0","3DHE4R9OCXXFL5VAR4XZT856781G2J","A2YCMO8KFFQAJ9","3MXX6RQ9EVRTFC527Z18RDK8KW6P4R","","674.5999999940395","img/flower1.png","75","676","2","0","3","1","1,0.333,0.333,0.333,1,0.333,0.333,0.333,1","1,0.333,0.333,0.333,1,0.333,0.333,0.333,1","1",""
"","html-keyboard-response","177","109038","0.0-177.0","3DHE4R9OCXXFL5VAR4XZT856781G2J","A2YCMO8KFFQAJ9","3MXX6RQ9EVRTFC527Z18RDK8KW6P4R","","null","<img src=""img/flower1.png"" style=""width:200px;border:14px solid red;"">","null","","","","","","","","",""
"","image-keyboard-response","178","109522","0.0-178.0","3DHE4R9OCXXFL5VAR4XZT856781G2J","A2YCMO8KFFQAJ9","3MXX6RQ9EVRTFC527Z18RDK8KW6P4R","","482.40000000596046","img/flower6.png","74","483.59999999403954","1","1","1","1","1,0.333,0.333,0.333,1,0.333,0.333,0.333,1","1,0.333,0.333,0.333,1,0.333,0.333,0.333,1","1",""
"","html-keyboard-response","179","109830","0.0-179.0","3DHE4R9OCXXFL5VAR4XZT856781G2J","A2YCMO8KFFQAJ9","3MXX6RQ9EVRTFC527Z18RDK8KW6P4R","","null","<img src=""img/flower6.png"" style=""width:200px; border:14px solid green;"">","null","","","","","","","","",""
"","image-keyboard-response","180","109973","0.0-180.0","3DHE4R9OCXXFL5VAR4XZT856781G2J","A2YCMO8KFFQAJ9","3MXX6RQ9EVRTFC527Z18RDK8KW6P4R","","141.89999997615814","img/flower1.png","74","143.19999998807907","1","0","3","1","1,0.333,0.333,0.333,1,0.333,0.333,0.333,1","1,0.333,0.333,0.333,1,0.333,0.333,0.333,1","1",""
"","html-keyboard-response","181","110278","0.0-181.0","3DHE4R9OCXXFL5VAR4XZT856781G2J","A2YCMO8KFFQAJ9","3MXX6RQ9EVRTFC527Z18RDK8KW6P4R","","null","<img src=""img/flower1.png"" style=""width:200px;border:14px solid red;"">","null","","","","","","","","",""
"","html-keyboard-response","182","128186","0.0-182.0","3DHE4R9OCXXFL5VAR4XZT856781G2J","A2YCMO8KFFQAJ9","3MXX6RQ9EVRTFC527Z18RDK8KW6P4R","","","","","","","","","","","","",""
"","image-keyboard-response","183","130190","0.0-183.0","3DHE4R9OCXXFL5VAR4XZT856781G2J","A2YCMO8KFFQAJ9","3MXX6RQ9EVRTFC527Z18RDK8KW6P4R","","","img/flower2.png","","2004","-1","0","1","2","1,0,0,1,1,0,1,0,1","0,1,0,0,1,1,1,1,0","3",""
"","html-keyboard-response","184","130494","0.0-184.0","3DHE4R9OCXXFL5VAR4XZT856781G2J","A2YCMO8KFFQAJ9","3MXX6RQ9EVRTFC527Z18RDK8KW6P4R","","null","<img src=""img/flower2.png"" style=""width:200px;border:14px solid red;"">","null","","","","","","","","",""
"","image-keyboard-response","185","131027","0.0-185.0","3DHE4R9OCXXFL5VAR4XZT856781G2J","A2YCMO8KFFQAJ9","3MXX6RQ9EVRTFC527Z18RDK8KW6P4R","","531.0999999940395","img/flower2.png","75","532.6999999880791","2","1","1","2","1,0,0,1,1,0,1,0,1","0,1,0,0,1,1,1,1,0","3",""
"","html-keyboard-response","186","131334","0.0-186.0","3DHE4R9OCXXFL5VAR4XZT856781G2J","A2YCMO8KFFQAJ9","3MXX6RQ9EVRTFC527Z18RDK8KW6P4R","","null","<img src=""img/flower2.png"" style=""width:200px; border:14px solid green;"">","null","","","","","","","","",""
"","image-keyboard-response","187","131789","0.0-187.0","3DHE4R9OCXXFL5VAR4XZT856781G2J","A2YCMO8KFFQAJ9","3MXX6RQ9EVRTFC527Z18RDK8KW6P4R","","452.89999997615814","img/flower5.png","75","454.5","2","1","2","2","1,0,0,1,1,0,1,0,1","0,1,0,0,1,1,1,1,0","3",""
"","html-keyboard-response","188","132094","0.0-188.0","3DHE4R9OCXXFL5VAR4XZT856781G2J","A2YCMO8KFFQAJ9","3MXX6RQ9EVRTFC527Z18RDK8KW6P4R","","null","<img src=""img/flower5.png"" style=""width:200px; border:14px solid green;"">","null","","","","","","","","",""
"","image-keyboard-response","189","132567","0.0-189.0","3DHE4R9OCXXFL5VAR4XZT856781G2J","A2YCMO8KFFQAJ9","3MXX6RQ9EVRTFC527Z18RDK8KW6P4R","","471.2000000178814","img/flower3.png","75","472.5","2","1","3","2","1,0,0,1,1,0,1,0,1","0,1,0,0,1,1,1,1,0","3",""
"","html-keyboard-response","190","132870","0.0-190.0","3DHE4R9OCXXFL5VAR4XZT856781G2J","A2YCMO8KFFQAJ9","3MXX6RQ9EVRTFC527Z18RDK8KW6P4R","","null","<img src=""img/flower3.png"" style=""width:200px; border:14px solid green;"">","null","","","","","","","","",""
"","image-keyboard-response","191","133230","0.0-191.0","3DHE4R9OCXXFL5VAR4XZT856781G2J","A2YCMO8KFFQAJ9","3MXX6RQ9EVRTFC527Z18RDK8KW6P4R","","358.40000000596046","img/flower5.png","75","359.7000000178814","2","1","2","2","1,0,0,1,1,0,1,0,1","0,1,0,0,1,1,1,1,0","3",""
"","html-keyboard-response","192","133534","0.0-192.0","3DHE4R9OCXXFL5VAR4XZT856781G2J","A2YCMO8KFFQAJ9","3MXX6RQ9EVRTFC527Z18RDK8KW6P4R","","null","<img src=""img/flower5.png"" style=""width:200px; border:14px solid green;"">","null","","","","","","","","",""
"","image-keyboard-response","193","134067","0.0-193.0","3DHE4R9OCXXFL5VAR4XZT856781G2J","A2YCMO8KFFQAJ9","3MXX6RQ9EVRTFC527Z18RDK8KW6P4R","","531.3000000119209","img/flower2.png","75","532.6000000238419","2","1","1","2","1,0,0,1,1,0,1,0,1","0,1,0,0,1,1,1,1,0","3",""
"","html-keyboard-response","194","134374","0.0-194.0","3DHE4R9OCXXFL5VAR4XZT856781G2J","A2YCMO8KFFQAJ9","3MXX6RQ9EVRTFC527Z18RDK8KW6P4R","","null","<img src=""img/flower2.png"" style=""width:200px; border:14px solid green;"">","null","","","","","","","","",""
"","image-keyboard-response","195","134649","0.0-195.0","3DHE4R9OCXXFL5VAR4XZT856781G2J","A2YCMO8KFFQAJ9","3MXX6RQ9EVRTFC527Z18RDK8KW6P4R","","273.59999999403954","img/flower2.png","75","274.69999998807907","2","1","1","2","1,0,0,1,1,0,1,0,1","0,1,0,0,1,1,1,1,0","3",""
"","html-keyboard-response","196","134958","0.0-196.0","3DHE4R9OCXXFL5VAR4XZT856781G2J","A2YCMO8KFFQAJ9","3MXX6RQ9EVRTFC527Z18RDK8KW6P4R","","null","<img src=""img/flower2.png"" style=""width:200px; border:14px solid green;"">","null","","","","","","","","",""
"","image-keyboard-response","197","134980","0.0-197.0","3DHE4R9OCXXFL5VAR4XZT856781G2J","A2YCMO8KFFQAJ9","3MXX6RQ9EVRTFC527Z18RDK8KW6P4R","","20.399999976158142","img/flower5.png","75","21.799999982118607","2","1","2","2","1,0,0,1,1,0,1,0,1","0,1,0,0,1,1,1,1,0","3",""
"","html-keyboard-response","198","135286","0.0-198.0","3DHE4R9OCXXFL5VAR4XZT856781G2J","A2YCMO8KFFQAJ9","3MXX6RQ9EVRTFC527Z18RDK8KW6P4R","","null","<img src=""img/flower5.png"" style=""width:200px; border:14px solid green;"">","null","","","","","","","","",""
"","image-keyboard-response","199","135558","0.0-199.0","3DHE4R9OCXXFL5VAR4XZT856781G2J","A2YCMO8KFFQAJ9","3MXX6RQ9EVRTFC527Z18RDK8KW6P4R","","271.10000002384186","img/flower5.png","75","272.40000000596046","2","1","2","2","1,0,0,1,1,0,1,0,1","0,1,0,0,1,1,1,1,0","3",""
"","html-keyboard-response","200","135862","0.0-200.0","3DHE4R9OCXXFL5VAR4XZT856781G2J","A2YCMO8KFFQAJ9","3MXX6RQ9EVRTFC527Z18RDK8KW6P4R","","null","<img src=""img/flower5.png"" style=""width:200px; border:14px solid green;"">","null","","","","","","","","",""
"","image-keyboard-response","201","136093","0.0-201.0","3DHE4R9OCXXFL5VAR4XZT856781G2J","A2YCMO8KFFQAJ9","3MXX6RQ9EVRTFC527Z18RDK8KW6P4R","","230.09999999403954","img/flower5.png","75","231","2","1","2","2","1,0,0,1,1,0,1,0,1","0,1,0,0,1,1,1,1,0","3",""
"","html-keyboard-response","202","136398","0.0-202.0","3DHE4R9OCXXFL5VAR4XZT856781G2J","A2YCMO8KFFQAJ9","3MXX6RQ9EVRTFC527Z18RDK8KW6P4R","","null","<img src=""img/flower5.png"" style=""width:200px; border:14px solid green;"">","null","","","","","","","","",""
"","image-keyboard-response","203","136521","0.0-203.0","3DHE4R9OCXXFL5VAR4XZT856781G2J","A2YCMO8KFFQAJ9","3MXX6RQ9EVRTFC527Z18RDK8KW6P4R","","121.40000000596046","img/flower3.png","75","122.69999998807907","2","1","3","2","1,0,0,1,1,0,1,0,1","0,1,0,0,1,1,1,1,0","3",""
"","html-keyboard-response","204","136830","0.0-204.0","3DHE4R9OCXXFL5VAR4XZT856781G2J","A2YCMO8KFFQAJ9","3MXX6RQ9EVRTFC527Z18RDK8KW6P4R","","null","<img src=""img/flower3.png"" style=""width:200px; border:14px solid green;"">","null","","","","","","","","",""
"","image-keyboard-response","205","136911","0.0-205.0","3DHE4R9OCXXFL5VAR4XZT856781G2J","A2YCMO8KFFQAJ9","3MXX6RQ9EVRTFC527Z18RDK8KW6P4R","","79.80000001192093","img/flower2.png","75","81.09999999403954","2","1","1","2","1,0,0,1,1,0,1,0,1","0,1,0,0,1,1,1,1,0","3",""
"","html-keyboard-response","206","137214","0.0-206.0","3DHE4R9OCXXFL5VAR4XZT856781G2J","A2YCMO8KFFQAJ9","3MXX6RQ9EVRTFC527Z18RDK8KW6P4R","","null","<img src=""img/flower2.png"" style=""width:200px; border:14px solid green;"">","null","","","","","","","","",""
"","image-keyboard-response","207","137802","0.0-207.0","3DHE4R9OCXXFL5VAR4XZT856781G2J","A2YCMO8KFFQAJ9","3MXX6RQ9EVRTFC527Z18RDK8KW6P4R","","587.1999999880791","img/flower5.png","75","588.4000000059605","2","1","2","2","1,0,0,1,1,0,1,0,1","0,1,0,0,1,1,1,1,0","3",""
"","html-keyboard-response","208","138110","0.0-208.0","3DHE4R9OCXXFL5VAR4XZT856781G2J","A2YCMO8KFFQAJ9","3MXX6RQ9EVRTFC527Z18RDK8KW6P4R","","null","<img src=""img/flower5.png"" style=""width:200px; border:14px solid green;"">","null","","","","","","","","",""
"","image-keyboard-response","209","138190","0.0-209.0","3DHE4R9OCXXFL5VAR4XZT856781G2J","A2YCMO8KFFQAJ9","3MXX6RQ9EVRTFC527Z18RDK8KW6P4R","","78.7000000178814","img/flower3.png","75","80","2","1","3","2","1,0,0,1,1,0,1,0,1","0,1,0,0,1,1,1,1,0","3",""
"","html-keyboard-response","210","138494","0.0-210.0","3DHE4R9OCXXFL5VAR4XZT856781G2J","A2YCMO8KFFQAJ9","3MXX6RQ9EVRTFC527Z18RDK8KW6P4R","","null","<img src=""img/flower3.png"" style=""width:200px; border:14px solid green;"">","null","","","","","","","","",""
"","image-keyboard-response","211","138645","0.0-211.0","3DHE4R9OCXXFL5VAR4XZT856781G2J","A2YCMO8KFFQAJ9","3MXX6RQ9EVRTFC527Z18RDK8KW6P4R","","149.69999998807907","img/flower3.png","75","150.90000000596046","2","1","3","2","1,0,0,1,1,0,1,0,1","0,1,0,0,1,1,1,1,0","3",""
"","html-keyboard-response","212","138950","0.0-212.0","3DHE4R9OCXXFL5VAR4XZT856781G2J","A2YCMO8KFFQAJ9","3MXX6RQ9EVRTFC527Z18RDK8KW6P4R","","null","<img src=""img/flower3.png"" style=""width:200px; border:14px solid green;"">","null","","","","","","","","",""
"","image-keyboard-response","213","139591","0.0-213.0","3DHE4R9OCXXFL5VAR4XZT856781G2J","A2YCMO8KFFQAJ9","3MXX6RQ9EVRTFC527Z18RDK8KW6P4R","","639.7000000178814","img/flower5.png","75","641","2","1","2","2","1,0,0,1,1,0,1,0,1","0,1,0,0,1,1,1,1,0","3",""
"","html-keyboard-response","214","139894","0.0-214.0","3DHE4R9OCXXFL5VAR4XZT856781G2J","A2YCMO8KFFQAJ9","3MXX6RQ9EVRTFC527Z18RDK8KW6P4R","","null","<img src=""img/flower5.png"" style=""width:200px; border:14px solid green;"">","null","","","","","","","","",""
"","image-keyboard-response","215","140100","0.0-215.0","3DHE4R9OCXXFL5VAR4XZT856781G2J","A2YCMO8KFFQAJ9","3MXX6RQ9EVRTFC527Z18RDK8KW6P4R","","205","img/flower5.png","75","206.10000002384186","2","1","2","2","1,0,0,1,1,0,1,0,1","0,1,0,0,1,1,1,1,0","3",""
"","html-keyboard-response","216","140406","0.0-216.0","3DHE4R9OCXXFL5VAR4XZT856781G2J","A2YCMO8KFFQAJ9","3MXX6RQ9EVRTFC527Z18RDK8KW6P4R","","null","<img src=""img/flower5.png"" style=""width:200px; border:14px solid green;"">","null","","","","","","","","",""
"","image-keyboard-response","217","140564","0.0-217.0","3DHE4R9OCXXFL5VAR4XZT856781G2J","A2YCMO8KFFQAJ9","3MXX6RQ9EVRTFC527Z18RDK8KW6P4R","","156.5","img/flower3.png","75","157.80000001192093","2","1","3","2","1,0,0,1,1,0,1,0,1","0,1,0,0,1,1,1,1,0","3",""
"","html-keyboard-response","218","140870","0.0-218.0","3DHE4R9OCXXFL5VAR4XZT856781G2J","A2YCMO8KFFQAJ9","3MXX6RQ9EVRTFC527Z18RDK8KW6P4R","","null","<img src=""img/flower3.png"" style=""width:200px; border:14px solid green;"">","null","","","","","","","","",""
"","image-keyboard-response","219","140919","0.0-219.0","3DHE4R9OCXXFL5VAR4XZT856781G2J","A2YCMO8KFFQAJ9","3MXX6RQ9EVRTFC527Z18RDK8KW6P4R","","47.69999998807907","img/flower2.png","75","48.900000005960464","2","1","1","2","1,0,0,1,1,0,1,0,1","0,1,0,0,1,1,1,1,0","3",""
"","html-keyboard-response","220","141222","0.0-220.0","3DHE4R9OCXXFL5VAR4XZT856781G2J","A2YCMO8KFFQAJ9","3MXX6RQ9EVRTFC527Z18RDK8KW6P4R","","null","<img src=""img/flower2.png"" style=""width:200px; border:14px solid green;"">","null","","","","","","","","",""
"","image-keyboard-response","221","141279","0.0-221.0","3DHE4R9OCXXFL5VAR4XZT856781G2J","A2YCMO8KFFQAJ9","3MXX6RQ9EVRTFC527Z18RDK8KW6P4R","","55.80000001192093","img/flower3.png","75","57.099999994039536","2","1","3","2","1,0,0,1,1,0,1,0,1","0,1,0,0,1,1,1,1,0","3",""
"","html-keyboard-response","222","141582","0.0-222.0","3DHE4R9OCXXFL5VAR4XZT856781G2J","A2YCMO8KFFQAJ9","3MXX6RQ9EVRTFC527Z18RDK8KW6P4R","","null","<img src=""img/flower3.png"" style=""width:200px; border:14px solid green;"">","null","","","","","","","","",""
"","image-keyboard-response","223","142010","0.0-223.0","3DHE4R9OCXXFL5VAR4XZT856781G2J","A2YCMO8KFFQAJ9","3MXX6RQ9EVRTFC527Z18RDK8KW6P4R","","426.7999999821186","img/flower5.png","75","427.90000000596046","2","1","2","2","1,0,0,1,1,0,1,0,1","0,1,0,0,1,1,1,1,0","3",""
"","html-keyboard-response","224","142318","0.0-224.0","3DHE4R9OCXXFL5VAR4XZT856781G2J","A2YCMO8KFFQAJ9","3MXX6RQ9EVRTFC527Z18RDK8KW6P4R","","null","<img src=""img/flower5.png"" style=""width:200px; border:14px solid green;"">","null","","","","","","","","",""
"","image-keyboard-response","225","142470","0.0-225.0","3DHE4R9OCXXFL5VAR4XZT856781G2J","A2YCMO8KFFQAJ9","3MXX6RQ9EVRTFC527Z18RDK8KW6P4R","","151.10000002384186","img/flower5.png","75","152.5","2","1","2","2","1,0,0,1,1,0,1,0,1","0,1,0,0,1,1,1,1,0","3",""
"","html-keyboard-response","226","142774","0.0-226.0","3DHE4R9OCXXFL5VAR4XZT856781G2J","A2YCMO8KFFQAJ9","3MXX6RQ9EVRTFC527Z18RDK8KW6P4R","","null","<img src=""img/flower5.png"" style=""width:200px; border:14px solid green;"">","null","","","","","","","","",""
"","image-keyboard-response","227","142917","0.0-227.0","3DHE4R9OCXXFL5VAR4XZT856781G2J","A2YCMO8KFFQAJ9","3MXX6RQ9EVRTFC527Z18RDK8KW6P4R","","141.90000000596046","img/flower2.png","75","143.10000002384186","2","1","1","2","1,0,0,1,1,0,1,0,1","0,1,0,0,1,1,1,1,0","3",""
"","html-keyboard-response","228","143222","0.0-228.0","3DHE4R9OCXXFL5VAR4XZT856781G2J","A2YCMO8KFFQAJ9","3MXX6RQ9EVRTFC527Z18RDK8KW6P4R","","null","<img src=""img/flower2.png"" style=""width:200px; border:14px solid green;"">","null","","","","","","","","",""
"","image-keyboard-response","229","143580","0.0-229.0","3DHE4R9OCXXFL5VAR4XZT856781G2J","A2YCMO8KFFQAJ9","3MXX6RQ9EVRTFC527Z18RDK8KW6P4R","","356.7000000178814","img/flower3.png","75","357.89999997615814","2","1","3","2","1,0,0,1,1,0,1,0,1","0,1,0,0,1,1,1,1,0","3",""
"","html-keyboard-response","230","143886","0.0-230.0","3DHE4R9OCXXFL5VAR4XZT856781G2J","A2YCMO8KFFQAJ9","3MXX6RQ9EVRTFC527Z18RDK8KW6P4R","","null","<img src=""img/flower3.png"" style=""width:200px; border:14px solid green;"">","null","","","","","","","","",""
"","image-keyboard-response","231","144081","0.0-231.0","3DHE4R9OCXXFL5VAR4XZT856781G2J","A2YCMO8KFFQAJ9","3MXX6RQ9EVRTFC527Z18RDK8KW6P4R","","193.5","img/flower2.png","75","194.69999998807907","2","1","1","2","1,0,0,1,1,0,1,0,1","0,1,0,0,1,1,1,1,0","3",""
"","html-keyboard-response","232","144390","0.0-232.0","3DHE4R9OCXXFL5VAR4XZT856781G2J","A2YCMO8KFFQAJ9","3MXX6RQ9EVRTFC527Z18RDK8KW6P4R","","null","<img src=""img/flower2.png"" style=""width:200px; border:14px solid green;"">","null","","","","","","","","",""
"","image-keyboard-response","233","144435","0.0-233.0","3DHE4R9OCXXFL5VAR4XZT856781G2J","A2YCMO8KFFQAJ9","3MXX6RQ9EVRTFC527Z18RDK8KW6P4R","","43.19999998807907","img/flower5.png","75","44.400000005960464","2","1","2","2","1,0,0,1,1,0,1,0,1","0,1,0,0,1,1,1,1,0","3",""
"","html-keyboard-response","234","144742","0.0-234.0","3DHE4R9OCXXFL5VAR4XZT856781G2J","A2YCMO8KFFQAJ9","3MXX6RQ9EVRTFC527Z18RDK8KW6P4R","","null","<img src=""img/flower5.png"" style=""width:200px; border:14px solid green;"">","null","","","","","","","","",""
"","image-keyboard-response","235","144873","0.0-235.0","3DHE4R9OCXXFL5VAR4XZT856781G2J","A2YCMO8KFFQAJ9","3MXX6RQ9EVRTFC527Z18RDK8KW6P4R","","129.40000000596046","img/flower3.png","75","130.69999998807907","2","1","3","2","1,0,0,1,1,0,1,0,1","0,1,0,0,1,1,1,1,0","3",""
"","html-keyboard-response","236","145182","0.0-236.0","3DHE4R9OCXXFL5VAR4XZT856781G2J","A2YCMO8KFFQAJ9","3MXX6RQ9EVRTFC527Z18RDK8KW6P4R","","null","<img src=""img/flower3.png"" style=""width:200px; border:14px solid green;"">","null","","","","","","","","",""
"","image-keyboard-response","237","145302","0.0-237.0","3DHE4R9OCXXFL5VAR4XZT856781G2J","A2YCMO8KFFQAJ9","3MXX6RQ9EVRTFC527Z18RDK8KW6P4R","","118.90000000596046","img/flower3.png","75","120.10000002384186","2","1","3","2","1,0,0,1,1,0,1,0,1","0,1,0,0,1,1,1,1,0","3",""
"","html-keyboard-response","238","145606","0.0-238.0","3DHE4R9OCXXFL5VAR4XZT856781G2J","A2YCMO8KFFQAJ9","3MXX6RQ9EVRTFC527Z18RDK8KW6P4R","","null","<img src=""img/flower3.png"" style=""width:200px; border:14px solid green;"">","null","","","","","","","","",""
"","image-keyboard-response","239","145931","0.0-239.0","3DHE4R9OCXXFL5VAR4XZT856781G2J","A2YCMO8KFFQAJ9","3MXX6RQ9EVRTFC527Z18RDK8KW6P4R","","323.30000001192093","img/flower5.png","75","324.59999999403954","2","1","2","2","1,0,0,1,1,0,1,0,1","0,1,0,0,1,1,1,1,0","3",""
"","html-keyboard-response","240","146238","0.0-240.0","3DHE4R9OCXXFL5VAR4XZT856781G2J","A2YCMO8KFFQAJ9","3MXX6RQ9EVRTFC527Z18RDK8KW6P4R","","null","<img src=""img/flower5.png"" style=""width:200px; border:14px solid green;"">","null","","","","","","","","",""
"","image-keyboard-response","241","146436","0.0-241.0","3DHE4R9OCXXFL5VAR4XZT856781G2J","A2YCMO8KFFQAJ9","3MXX6RQ9EVRTFC527Z18RDK8KW6P4R","","196.90000000596046","img/flower2.png","75","198.09999999403954","2","1","1","2","1,0,0,1,1,0,1,0,1","0,1,0,0,1,1,1,1,0","3",""
"","html-keyboard-response","242","146742","0.0-242.0","3DHE4R9OCXXFL5VAR4XZT856781G2J","A2YCMO8KFFQAJ9","3MXX6RQ9EVRTFC527Z18RDK8KW6P4R","","null","<img src=""img/flower2.png"" style=""width:200px; border:14px solid green;"">","null","","","","","","","","",""
"","image-keyboard-response","243","146854","0.0-243.0","3DHE4R9OCXXFL5VAR4XZT856781G2J","A2YCMO8KFFQAJ9","3MXX6RQ9EVRTFC527Z18RDK8KW6P4R","","110.5","img/flower2.png","75","111.69999998807907","2","1","1","2","1,0,0,1,1,0,1,0,1","0,1,0,0,1,1,1,1,0","3",""
"","html-keyboard-response","244","147158","0.0-244.0","3DHE4R9OCXXFL5VAR4XZT856781G2J","A2YCMO8KFFQAJ9","3MXX6RQ9EVRTFC527Z18RDK8KW6P4R","","null","<img src=""img/flower2.png"" style=""width:200px; border:14px solid green;"">","null","","","","","","","","",""
"","image-keyboard-response","245","147225","0.0-245.0","3DHE4R9OCXXFL5VAR4XZT856781G2J","A2YCMO8KFFQAJ9","3MXX6RQ9EVRTFC527Z18RDK8KW6P4R","","66.30000001192093","img/flower2.png","75","67.39999997615814","2","1","1","2","1,0,0,1,1,0,1,0,1","0,1,0,0,1,1,1,1,0","3",""
"","html-keyboard-response","246","147534","0.0-246.0","3DHE4R9OCXXFL5VAR4XZT856781G2J","A2YCMO8KFFQAJ9","3MXX6RQ9EVRTFC527Z18RDK8KW6P4R","","null","<img src=""img/flower2.png"" style=""width:200px; border:14px solid green;"">","null","","","","","","","","",""
"","image-keyboard-response","247","147764","0.0-247.0","3DHE4R9OCXXFL5VAR4XZT856781G2J","A2YCMO8KFFQAJ9","3MXX6RQ9EVRTFC527Z18RDK8KW6P4R","","229.2000000178814","img/flower3.png","75","231.2999999821186","2","1","3","2","1,0,0,1,1,0,1,0,1","0,1,0,0,1,1,1,1,0","3",""
"","html-keyboard-response","248","148070","0.0-248.0","3DHE4R9OCXXFL5VAR4XZT856781G2J","A2YCMO8KFFQAJ9","3MXX6RQ9EVRTFC527Z18RDK8KW6P4R","","null","<img src=""img/flower3.png"" style=""width:200px; border:14px solid green;"">","null","","","","","","","","",""
"","image-keyboard-response","249","148151","0.0-249.0","3DHE4R9OCXXFL5VAR4XZT856781G2J","A2YCMO8KFFQAJ9","3MXX6RQ9EVRTFC527Z18RDK8KW6P4R","","79.30000001192093","img/flower3.png","75","80.80000001192093","2","1","3","2","1,0,0,1,1,0,1,0,1","0,1,0,0,1,1,1,1,0","3",""
"","html-keyboard-response","250","148454","0.0-250.0","3DHE4R9OCXXFL5VAR4XZT856781G2J","A2YCMO8KFFQAJ9","3MXX6RQ9EVRTFC527Z18RDK8KW6P4R","","null","<img src=""img/flower3.png"" style=""width:200px; border:14px solid green;"">","null","","","","","","","","",""
"","image-keyboard-response","251","148674","0.0-251.0","3DHE4R9OCXXFL5VAR4XZT856781G2J","A2YCMO8KFFQAJ9","3MXX6RQ9EVRTFC527Z18RDK8KW6P4R","","218.69999998807907","img/flower3.png","75","220","2","1","3","2","1,0,0,1,1,0,1,0,1","0,1,0,0,1,1,1,1,0","3",""
"","html-keyboard-response","252","148982","0.0-252.0","3DHE4R9OCXXFL5VAR4XZT856781G2J","A2YCMO8KFFQAJ9","3MXX6RQ9EVRTFC527Z18RDK8KW6P4R","","null","<img src=""img/flower3.png"" style=""width:200px; border:14px solid green;"">","null","","","","","","","","",""
"","image-keyboard-response","253","149162","0.0-253.0","3DHE4R9OCXXFL5VAR4XZT856781G2J","A2YCMO8KFFQAJ9","3MXX6RQ9EVRTFC527Z18RDK8KW6P4R","","178.30000001192093","img/flower5.png","75","179.59999999403954","2","1","2","2","1,0,0,1,1,0,1,0,1","0,1,0,0,1,1,1,1,0","3",""
"","html-keyboard-response","254","149470","0.0-254.0","3DHE4R9OCXXFL5VAR4XZT856781G2J","A2YCMO8KFFQAJ9","3MXX6RQ9EVRTFC527Z18RDK8KW6P4R","","null","<img src=""img/flower5.png"" style=""width:200px; border:14px solid green;"">","null","","","","","","","","",""
"","image-keyboard-response","255","149519","0.0-255.0","3DHE4R9OCXXFL5VAR4XZT856781G2J","A2YCMO8KFFQAJ9","3MXX6RQ9EVRTFC527Z18RDK8KW6P4R","","46.70000001788139","img/flower3.png","75","48.30000001192093","2","1","3","2","1,0,0,1,1,0,1,0,1","0,1,0,0,1,1,1,1,0","3",""
"","html-keyboard-response","256","149822","0.0-256.0","3DHE4R9OCXXFL5VAR4XZT856781G2J","A2YCMO8KFFQAJ9","3MXX6RQ9EVRTFC527Z18RDK8KW6P4R","","null","<img src=""img/flower3.png"" style=""width:200px; border:14px solid green;"">","null","","","","","","","","",""
"","image-keyboard-response","257","149985","0.0-257.0","3DHE4R9OCXXFL5VAR4XZT856781G2J","A2YCMO8KFFQAJ9","3MXX6RQ9EVRTFC527Z18RDK8KW6P4R","","162.19999998807907","img/flower3.png","75","163.40000000596046","2","1","3","2","1,0,0,1,1,0,1,0,1","0,1,0,0,1,1,1,1,0","3",""
"","html-keyboard-response","258","150294","0.0-258.0","3DHE4R9OCXXFL5VAR4XZT856781G2J","A2YCMO8KFFQAJ9","3MXX6RQ9EVRTFC527Z18RDK8KW6P4R","","null","<img src=""img/flower3.png"" style=""width:200px; border:14px solid green;"">","null","","","","","","","","",""
"","image-keyboard-response","259","150411","0.0-259.0","3DHE4R9OCXXFL5VAR4XZT856781G2J","A2YCMO8KFFQAJ9","3MXX6RQ9EVRTFC527Z18RDK8KW6P4R","","115.2999999821186","img/flower3.png","75","116.69999998807907","2","1","3","2","1,0,0,1,1,0,1,0,1","0,1,0,0,1,1,1,1,0","3",""
"","html-keyboard-response","260","150718","0.0-260.0","3DHE4R9OCXXFL5VAR4XZT856781G2J","A2YCMO8KFFQAJ9","3MXX6RQ9EVRTFC527Z18RDK8KW6P4R","","null","<img src=""img/flower3.png"" style=""width:200px; border:14px solid green;"">","null","","","","","","","","",""
"","image-keyboard-response","261","150876","0.0-261.0","3DHE4R9OCXXFL5VAR4XZT856781G2J","A2YCMO8KFFQAJ9","3MXX6RQ9EVRTFC527Z18RDK8KW6P4R","","156.09999999403954","img/flower3.png","75","157.5","2","1","3","2","1,0,0,1,1,0,1,0,1","0,1,0,0,1,1,1,1,0","3",""
"","html-keyboard-response","262","151182","0.0-262.0","3DHE4R9OCXXFL5VAR4XZT856781G2J","A2YCMO8KFFQAJ9","3MXX6RQ9EVRTFC527Z18RDK8KW6P4R","","null","<img src=""img/flower3.png"" style=""width:200px; border:14px solid green;"">","null","","","","","","","","",""
"","image-keyboard-response","263","151363","0.0-263.0","3DHE4R9OCXXFL5VAR4XZT856781G2J","A2YCMO8KFFQAJ9","3MXX6RQ9EVRTFC527Z18RDK8KW6P4R","","179.59999999403954","img/flower3.png","75","180.80000001192093","2","1","3","2","1,0,0,1,1,0,1,0,1","0,1,0,0,1,1,1,1,0","3",""
"","html-keyboard-response","264","151670","0.0-264.0","3DHE4R9OCXXFL5VAR4XZT856781G2J","A2YCMO8KFFQAJ9","3MXX6RQ9EVRTFC527Z18RDK8KW6P4R","","null","<img src=""img/flower3.png"" style=""width:200px; border:14px solid green;"">","null","","","","","","","","",""
"","image-keyboard-response","265","151831","0.0-265.0","3DHE4R9OCXXFL5VAR4XZT856781G2J","A2YCMO8KFFQAJ9","3MXX6RQ9EVRTFC527Z18RDK8KW6P4R","","159.89999997615814","img/flower3.png","75","161.2999999821186","2","1","3","2","1,0,0,1,1,0,1,0,1","0,1,0,0,1,1,1,1,0","3",""
"","html-keyboard-response","266","152134","0.0-266.0","3DHE4R9OCXXFL5VAR4XZT856781G2J","A2YCMO8KFFQAJ9","3MXX6RQ9EVRTFC527Z18RDK8KW6P4R","","null","<img src=""img/flower3.png"" style=""width:200px; border:14px solid green;"">","null","","","","","","","","",""
"","image-keyboard-response","267","152164","0.0-267.0","3DHE4R9OCXXFL5VAR4XZT856781G2J","A2YCMO8KFFQAJ9","3MXX6RQ9EVRTFC527Z18RDK8KW6P4R","","29","img/flower5.png","75","30.19999998807907","2","1","2","2","1,0,0,1,1,0,1,0,1","0,1,0,0,1,1,1,1,0","3",""
"","html-keyboard-response","268","152470","0.0-268.0","3DHE4R9OCXXFL5VAR4XZT856781G2J","A2YCMO8KFFQAJ9","3MXX6RQ9EVRTFC527Z18RDK8KW6P4R","","null","<img src=""img/flower5.png"" style=""width:200px; border:14px solid green;"">","null","","","","","","","","",""
"","image-keyboard-response","269","152653","0.0-269.0","3DHE4R9OCXXFL5VAR4XZT856781G2J","A2YCMO8KFFQAJ9","3MXX6RQ9EVRTFC527Z18RDK8KW6P4R","","182","img/flower2.png","75","183.2000000178814","2","1","1","2","1,0,0,1,1,0,1,0,1","0,1,0,0,1,1,1,1,0","3",""
"","html-keyboard-response","270","152958","0.0-270.0","3DHE4R9OCXXFL5VAR4XZT856781G2J","A2YCMO8KFFQAJ9","3MXX6RQ9EVRTFC527Z18RDK8KW6P4R","","null","<img src=""img/flower2.png"" style=""width:200px; border:14px solid green;"">","null","","","","","","","","",""
"","image-keyboard-response","271","153054","0.0-271.0","3DHE4R9OCXXFL5VAR4XZT856781G2J","A2YCMO8KFFQAJ9","3MXX6RQ9EVRTFC527Z18RDK8KW6P4R","","94.7000000178814","img/flower2.png","75","96.09999999403954","2","1","1","2","1,0,0,1,1,0,1,0,1","0,1,0,0,1,1,1,1,0","3",""
"","html-keyboard-response","272","153358","0.0-272.0","3DHE4R9OCXXFL5VAR4XZT856781G2J","A2YCMO8KFFQAJ9","3MXX6RQ9EVRTFC527Z18RDK8KW6P4R","","null","<img src=""img/flower2.png"" style=""width:200px; border:14px solid green;"">","null","","","","","","","","",""
"","image-keyboard-response","273","153544","0.0-273.0","3DHE4R9OCXXFL5VAR4XZT856781G2J","A2YCMO8KFFQAJ9","3MXX6RQ9EVRTFC527Z18RDK8KW6P4R","","185","img/flower3.png","75","186.30000001192093","2","1","3","2","1,0,0,1,1,0,1,0,1","0,1,0,0,1,1,1,1,0","3",""
"","html-keyboard-response","274","153846","0.0-274.0","3DHE4R9OCXXFL5VAR4XZT856781G2J","A2YCMO8KFFQAJ9","3MXX6RQ9EVRTFC527Z18RDK8KW6P4R","","null","<img src=""img/flower3.png"" style=""width:200px; border:14px solid green;"">","null","","","","","","","","",""
"","image-keyboard-response","275","153890","0.0-275.0","3DHE4R9OCXXFL5VAR4XZT856781G2J","A2YCMO8KFFQAJ9","3MXX6RQ9EVRTFC527Z18RDK8KW6P4R","","43.10000002384186","img/flower5.png","75","44.39999997615814","2","1","2","2","1,0,0,1,1,0,1,0,1","0,1,0,0,1,1,1,1,0","3",""
"","html-keyboard-response","276","154198","0.0-276.0","3DHE4R9OCXXFL5VAR4XZT856781G2J","A2YCMO8KFFQAJ9","3MXX6RQ9EVRTFC527Z18RDK8KW6P4R","","null","<img src=""img/flower5.png"" style=""width:200px; border:14px solid green;"">","null","","","","","","","","",""
"","image-keyboard-response","277","154564","0.0-277.0","3DHE4R9OCXXFL5VAR4XZT856781G2J","A2YCMO8KFFQAJ9","3MXX6RQ9EVRTFC527Z18RDK8KW6P4R","","365.09999999403954","img/flower3.png","75","366.19999998807907","2","1","3","2","1,0,0,1,1,0,1,0,1","0,1,0,0,1,1,1,1,0","3",""
"","html-keyboard-response","278","154870","0.0-278.0","3DHE4R9OCXXFL5VAR4XZT856781G2J","A2YCMO8KFFQAJ9","3MXX6RQ9EVRTFC527Z18RDK8KW6P4R","","null","<img src=""img/flower3.png"" style=""width:200px; border:14px solid green;"">","null","","","","","","","","",""
"","image-keyboard-response","279","155002","0.0-279.0","3DHE4R9OCXXFL5VAR4XZT856781G2J","A2YCMO8KFFQAJ9","3MXX6RQ9EVRTFC527Z18RDK8KW6P4R","","130.59999999403954","img/flower3.png","75","131.80000001192093","2","1","3","2","1,0,0,1,1,0,1,0,1","0,1,0,0,1,1,1,1,0","3",""
"","html-keyboard-response","280","155310","0.0-280.0","3DHE4R9OCXXFL5VAR4XZT856781G2J","A2YCMO8KFFQAJ9","3MXX6RQ9EVRTFC527Z18RDK8KW6P4R","","null","<img src=""img/flower3.png"" style=""width:200px; border:14px solid green;"">","null","","","","","","","","",""
"","image-keyboard-response","281","155404","0.0-281.0","3DHE4R9OCXXFL5VAR4XZT856781G2J","A2YCMO8KFFQAJ9","3MXX6RQ9EVRTFC527Z18RDK8KW6P4R","","92.59999999403954","img/flower2.png","75","93.80000001192093","2","1","1","2","1,0,0,1,1,0,1,0,1","0,1,0,0,1,1,1,1,0","3",""
"","html-keyboard-response","282","155710","0.0-282.0","3DHE4R9OCXXFL5VAR4XZT856781G2J","A2YCMO8KFFQAJ9","3MXX6RQ9EVRTFC527Z18RDK8KW6P4R","","null","<img src=""img/flower2.png"" style=""width:200px; border:14px solid green;"">","null","","","","","","","","",""
"","image-keyboard-response","283","156025","0.0-283.0","3DHE4R9OCXXFL5VAR4XZT856781G2J","A2YCMO8KFFQAJ9","3MXX6RQ9EVRTFC527Z18RDK8KW6P4R","","314.09999999403954","img/flower5.png","75","315.5","2","1","2","2","1,0,0,1,1,0,1,0,1","0,1,0,0,1,1,1,1,0","3",""
"","html-keyboard-response","284","156334","0.0-284.0","3DHE4R9OCXXFL5VAR4XZT856781G2J","A2YCMO8KFFQAJ9","3MXX6RQ9EVRTFC527Z18RDK8KW6P4R","","null","<img src=""img/flower5.png"" style=""width:200px; border:14px solid green;"">","null","","","","","","","","",""
"","image-keyboard-response","285","156447","0.0-285.0","3DHE4R9OCXXFL5VAR4XZT856781G2J","A2YCMO8KFFQAJ9","3MXX6RQ9EVRTFC527Z18RDK8KW6P4R","","111.89999997615814","img/flower3.png","75","113.19999998807907","2","1","3","2","1,0,0,1,1,0,1,0,1","0,1,0,0,1,1,1,1,0","3",""
"","html-keyboard-response","286","156750","0.0-286.0","3DHE4R9OCXXFL5VAR4XZT856781G2J","A2YCMO8KFFQAJ9","3MXX6RQ9EVRTFC527Z18RDK8KW6P4R","","null","<img src=""img/flower3.png"" style=""width:200px; border:14px solid green;"">","null","","","","","","","","",""
"","image-keyboard-response","287","156935","0.0-287.0","3DHE4R9OCXXFL5VAR4XZT856781G2J","A2YCMO8KFFQAJ9","3MXX6RQ9EVRTFC527Z18RDK8KW6P4R","","183.30000001192093","img/flower3.png","75","184.5","2","1","3","2","1,0,0,1,1,0,1,0,1","0,1,0,0,1,1,1,1,0","3",""
"","html-keyboard-response","288","157238","0.0-288.0","3DHE4R9OCXXFL5VAR4XZT856781G2J","A2YCMO8KFFQAJ9","3MXX6RQ9EVRTFC527Z18RDK8KW6P4R","","null","<img src=""img/flower3.png"" style=""width:200px; border:14px solid green;"">","null","","","","","","","","",""
"","image-keyboard-response","289","157310","0.0-289.0","3DHE4R9OCXXFL5VAR4XZT856781G2J","A2YCMO8KFFQAJ9","3MXX6RQ9EVRTFC527Z18RDK8KW6P4R","","70.7000000178814","img/flower3.png","75","72.30000001192093","2","1","3","2","1,0,0,1,1,0,1,0,1","0,1,0,0,1,1,1,1,0","3",""
"","html-keyboard-response","290","157614","0.0-290.0","3DHE4R9OCXXFL5VAR4XZT856781G2J","A2YCMO8KFFQAJ9","3MXX6RQ9EVRTFC527Z18RDK8KW6P4R","","null","<img src=""img/flower3.png"" style=""width:200px; border:14px solid green;"">","null","","","","","","","","",""
"","image-keyboard-response","291","157803","0.0-291.0","3DHE4R9OCXXFL5VAR4XZT856781G2J","A2YCMO8KFFQAJ9","3MXX6RQ9EVRTFC527Z18RDK8KW6P4R","","187.59999999403954","img/flower3.png","75","189","2","1","3","2","1,0,0,1,1,0,1,0,1","0,1,0,0,1,1,1,1,0","3",""
"","html-keyboard-response","292","158110","0.0-292.0","3DHE4R9OCXXFL5VAR4XZT856781G2J","A2YCMO8KFFQAJ9","3MXX6RQ9EVRTFC527Z18RDK8KW6P4R","","null","<img src=""img/flower3.png"" style=""width:200px; border:14px solid green;"">","null","","","","","","","","",""
"","image-keyboard-response","293","158185","0.0-293.0","3DHE4R9OCXXFL5VAR4XZT856781G2J","A2YCMO8KFFQAJ9","3MXX6RQ9EVRTFC527Z18RDK8KW6P4R","","73.09999999403954","img/flower5.png","75","74.30000001192093","2","1","2","2","1,0,0,1,1,0,1,0,1","0,1,0,0,1,1,1,1,0","3",""
"","html-keyboard-response","294","158494","0.0-294.0","3DHE4R9OCXXFL5VAR4XZT856781G2J","A2YCMO8KFFQAJ9","3MXX6RQ9EVRTFC527Z18RDK8KW6P4R","","null","<img src=""img/flower5.png"" style=""width:200px; border:14px solid green;"">","null","","","","","","","","",""
"","image-keyboard-response","295","158546","0.0-295.0","3DHE4R9OCXXFL5VAR4XZT856781G2J","A2YCMO8KFFQAJ9","3MXX6RQ9EVRTFC527Z18RDK8KW6P4R","","50.29999998211861","img/flower2.png","75","51.599999994039536","2","1","1","2","1,0,0,1,1,0,1,0,1","0,1,0,0,1,1,1,1,0","3",""
"","html-keyboard-response","296","158854","0.0-296.0","3DHE4R9OCXXFL5VAR4XZT856781G2J","A2YCMO8KFFQAJ9","3MXX6RQ9EVRTFC527Z18RDK8KW6P4R","","null","<img src=""img/flower2.png"" style=""width:200px; border:14px solid green;"">","null","","","","","","","","",""
"","image-keyboard-response","297","158871","0.0-297.0","3DHE4R9OCXXFL5VAR4XZT856781G2J","A2YCMO8KFFQAJ9","3MXX6RQ9EVRTFC527Z18RDK8KW6P4R","","15.400000005960464","img/flower3.png","75","16.900000005960464","2","1","3","2","1,0,0,1,1,0,1,0,1","0,1,0,0,1,1,1,1,0","3",""
"","html-keyboard-response","298","159174","0.0-298.0","3DHE4R9OCXXFL5VAR4XZT856781G2J","A2YCMO8KFFQAJ9","3MXX6RQ9EVRTFC527Z18RDK8KW6P4R","","null","<img src=""img/flower3.png"" style=""width:200px; border:14px solid green;"">","null","","","","","","","","",""
"","image-keyboard-response","299","159272","0.0-299.0","3DHE4R9OCXXFL5VAR4XZT856781G2J","A2YCMO8KFFQAJ9","3MXX6RQ9EVRTFC527Z18RDK8KW6P4R","","96.5","img/flower2.png","75","97.80000001192093","2","1","1","2","1,0,0,1,1,0,1,0,1","0,1,0,0,1,1,1,1,0","3",""
"","html-keyboard-response","300","159574","0.0-300.0","3DHE4R9OCXXFL5VAR4XZT856781G2J","A2YCMO8KFFQAJ9","3MXX6RQ9EVRTFC527Z18RDK8KW6P4R","","null","<img src=""img/flower2.png"" style=""width:200px; border:14px solid green;"">","null","","","","","","","","",""
"","image-keyboard-response","301","159648","0.0-301.0","3DHE4R9OCXXFL5VAR4XZT856781G2J","A2YCMO8KFFQAJ9","3MXX6RQ9EVRTFC527Z18RDK8KW6P4R","","72.59999999403954","img/flower3.png","75","73.7999999821186","2","1","3","2","1,0,0,1,1,0,1,0,1","0,1,0,0,1,1,1,1,0","3",""
"","html-keyboard-response","302","159950","0.0-302.0","3DHE4R9OCXXFL5VAR4XZT856781G2J","A2YCMO8KFFQAJ9","3MXX6RQ9EVRTFC527Z18RDK8KW6P4R","","null","<img src=""img/flower3.png"" style=""width:200px; border:14px solid green;"">","null","","","","","","","","",""
"","image-keyboard-response","303","160001","0.0-303.0","3DHE4R9OCXXFL5VAR4XZT856781G2J","A2YCMO8KFFQAJ9","3MXX6RQ9EVRTFC527Z18RDK8KW6P4R","","49.400000005960464","img/flower5.png","75","50.69999998807907","2","1","2","2","1,0,0,1,1,0,1,0,1","0,1,0,0,1,1,1,1,0","3",""
"","html-keyboard-response","304","160310","0.0-304.0","3DHE4R9OCXXFL5VAR4XZT856781G2J","A2YCMO8KFFQAJ9","3MXX6RQ9EVRTFC527Z18RDK8KW6P4R","","null","<img src=""img/flower5.png"" style=""width:200px; border:14px solid green;"">","null","","","","","","","","",""
"","image-keyboard-response","305","160360","0.0-305.0","3DHE4R9OCXXFL5VAR4XZT856781G2J","A2YCMO8KFFQAJ9","3MXX6RQ9EVRTFC527Z18RDK8KW6P4R","","48.70000001788139","img/flower2.png","75","49.79999998211861","2","1","1","2","1,0,0,1,1,0,1,0,1","0,1,0,0,1,1,1,1,0","3",""
"","html-keyboard-response","306","160662","0.0-306.0","3DHE4R9OCXXFL5VAR4XZT856781G2J","A2YCMO8KFFQAJ9","3MXX6RQ9EVRTFC527Z18RDK8KW6P4R","","null","<img src=""img/flower2.png"" style=""width:200px; border:14px solid green;"">","null","","","","","","","","",""
"","image-keyboard-response","307","160754","0.0-307.0","3DHE4R9OCXXFL5VAR4XZT856781G2J","A2YCMO8KFFQAJ9","3MXX6RQ9EVRTFC527Z18RDK8KW6P4R","","90.59999999403954","img/flower2.png","75","91.7000000178814","2","1","1","2","1,0,0,1,1,0,1,0,1","0,1,0,0,1,1,1,1,0","3",""
"","html-keyboard-response","308","161062","0.0-308.0","3DHE4R9OCXXFL5VAR4XZT856781G2J","A2YCMO8KFFQAJ9","3MXX6RQ9EVRTFC527Z18RDK8KW6P4R","","null","<img src=""img/flower2.png"" style=""width:200px; border:14px solid green;"">","null","","","","","","","","",""
"","image-keyboard-response","309","161139","0.0-309.0","3DHE4R9OCXXFL5VAR4XZT856781G2J","A2YCMO8KFFQAJ9","3MXX6RQ9EVRTFC527Z18RDK8KW6P4R","","75.59999999403954","img/flower2.png","75","76.90000000596046","2","1","1","2","1,0,0,1,1,0,1,0,1","0,1,0,0,1,1,1,1,0","3",""
"","html-keyboard-response","310","161446","0.0-310.0","3DHE4R9OCXXFL5VAR4XZT856781G2J","A2YCMO8KFFQAJ9","3MXX6RQ9EVRTFC527Z18RDK8KW6P4R","","null","<img src=""img/flower2.png"" style=""width:200px; border:14px solid green;"">","null","","","","","","","","",""
"","image-keyboard-response","311","161490","0.0-311.0","3DHE4R9OCXXFL5VAR4XZT856781G2J","A2YCMO8KFFQAJ9","3MXX6RQ9EVRTFC527Z18RDK8KW6P4R","","42.19999998807907","img/flower2.png","75","43.599999994039536","2","1","1","2","1,0,0,1,1,0,1,0,1","0,1,0,0,1,1,1,1,0","3",""
"","html-keyboard-response","312","161798","0.0-312.0","3DHE4R9OCXXFL5VAR4XZT856781G2J","A2YCMO8KFFQAJ9","3MXX6RQ9EVRTFC527Z18RDK8KW6P4R","","null","<img src=""img/flower2.png"" style=""width:200px; border:14px solid green;"">","null","","","","","","","","",""
"","image-keyboard-response","313","161819","0.0-313.0","3DHE4R9OCXXFL5VAR4XZT856781G2J","A2YCMO8KFFQAJ9","3MXX6RQ9EVRTFC527Z18RDK8KW6P4R","","19.599999994039536","img/flower3.png","75","21","2","1","3","2","1,0,0,1,1,0,1,0,1","0,1,0,0,1,1,1,1,0","3",""
"","html-keyboard-response","314","162126","0.0-314.0","3DHE4R9OCXXFL5VAR4XZT856781G2J","A2YCMO8KFFQAJ9","3MXX6RQ9EVRTFC527Z18RDK8KW6P4R","","null","<img src=""img/flower3.png"" style=""width:200px; border:14px solid green;"">","null","","","","","","","","",""
"","image-keyboard-response","315","162154","0.0-315.0","3DHE4R9OCXXFL5VAR4XZT856781G2J","A2YCMO8KFFQAJ9","3MXX6RQ9EVRTFC527Z18RDK8KW6P4R","","27.100000023841858","img/flower2.png","75","28.5","2","1","1","2","1,0,0,1,1,0,1,0,1","0,1,0,0,1,1,1,1,0","3",""
"","html-keyboard-response","316","162462","0.0-316.0","3DHE4R9OCXXFL5VAR4XZT856781G2J","A2YCMO8KFFQAJ9","3MXX6RQ9EVRTFC527Z18RDK8KW6P4R","","null","<img src=""img/flower2.png"" style=""width:200px; border:14px solid green;"">","null","","","","","","","","",""
"","image-keyboard-response","317","162497","0.0-317.0","3DHE4R9OCXXFL5VAR4XZT856781G2J","A2YCMO8KFFQAJ9","3MXX6RQ9EVRTFC527Z18RDK8KW6P4R","","33.599999994039536","img/flower2.png","75","34.900000005960464","2","1","1","2","1,0,0,1,1,0,1,0,1","0,1,0,0,1,1,1,1,0","3",""
"","html-keyboard-response","318","162806","0.0-318.0","3DHE4R9OCXXFL5VAR4XZT856781G2J","A2YCMO8KFFQAJ9","3MXX6RQ9EVRTFC527Z18RDK8KW6P4R","","null","<img src=""img/flower2.png"" style=""width:200px; border:14px solid green;"">","null","","","","","","","","",""
"","image-keyboard-response","319","163177","0.0-319.0","3DHE4R9OCXXFL5VAR4XZT856781G2J","A2YCMO8KFFQAJ9","3MXX6RQ9EVRTFC527Z18RDK8KW6P4R","","370","img/flower5.png","75","370.90000000596046","2","1","2","2","1,0,0,1,1,0,1,0,1","0,1,0,0,1,1,1,1,0","3",""
"","html-keyboard-response","320","163486","0.0-320.0","3DHE4R9OCXXFL5VAR4XZT856781G2J","A2YCMO8KFFQAJ9","3MXX6RQ9EVRTFC527Z18RDK8KW6P4R","","null","<img src=""img/flower5.png"" style=""width:200px; border:14px solid green;"">","null","","","","","","","","",""
"","image-keyboard-response","321","163489","0.0-321.0","3DHE4R9OCXXFL5VAR4XZT856781G2J","A2YCMO8KFFQAJ9","3MXX6RQ9EVRTFC527Z18RDK8KW6P4R","","1.699999988079071","img/flower3.png","75","2.800000011920929","2","1","3","2","1,0,0,1,1,0,1,0,1","0,1,0,0,1,1,1,1,0","3",""
"","html-keyboard-response","322","163798","0.0-322.0","3DHE4R9OCXXFL5VAR4XZT856781G2J","A2YCMO8KFFQAJ9","3MXX6RQ9EVRTFC527Z18RDK8KW6P4R","","null","<img src=""img/flower3.png"" style=""width:200px; border:14px solid green;"">","null","","","","","","","","",""
"","image-keyboard-response","323","163970","0.0-323.0","3DHE4R9OCXXFL5VAR4XZT856781G2J","A2YCMO8KFFQAJ9","3MXX6RQ9EVRTFC527Z18RDK8KW6P4R","","170.39999997615814","img/flower5.png","75","171.7999999821186","2","1","2","2","1,0,0,1,1,0,1,0,1","0,1,0,0,1,1,1,1,0","3",""
"","html-keyboard-response","324","164278","0.0-324.0","3DHE4R9OCXXFL5VAR4XZT856781G2J","A2YCMO8KFFQAJ9","3MXX6RQ9EVRTFC527Z18RDK8KW6P4R","","null","<img src=""img/flower5.png"" style=""width:200px; border:14px solid green;"">","null","","","","","","","","",""
"","image-keyboard-response","325","164475","0.0-325.0","3DHE4R9OCXXFL5VAR4XZT856781G2J","A2YCMO8KFFQAJ9","3MXX6RQ9EVRTFC527Z18RDK8KW6P4R","","196.2999999821186","img/flower5.png","75","196.90000000596046","2","1","2","2","1,0,0,1,1,0,1,0,1","0,1,0,0,1,1,1,1,0","3",""
"","html-keyboard-response","326","164782","0.0-326.0","3DHE4R9OCXXFL5VAR4XZT856781G2J","A2YCMO8KFFQAJ9","3MXX6RQ9EVRTFC527Z18RDK8KW6P4R","","null","<img src=""img/flower5.png"" style=""width:200px; border:14px solid green;"">","null","","","","","","","","",""
"","image-keyboard-response","327","164952","0.0-327.0","3DHE4R9OCXXFL5VAR4XZT856781G2J","A2YCMO8KFFQAJ9","3MXX6RQ9EVRTFC527Z18RDK8KW6P4R","","168.5","img/flower2.png","75","169.90000000596046","2","1","1","2","1,0,0,1,1,0,1,0,1","0,1,0,0,1,1,1,1,0","3",""
"","html-keyboard-response","328","165254","0.0-328.0","3DHE4R9OCXXFL5VAR4XZT856781G2J","A2YCMO8KFFQAJ9","3MXX6RQ9EVRTFC527Z18RDK8KW6P4R","","null","<img src=""img/flower2.png"" style=""width:200px; border:14px solid green;"">","null","","","","","","","","",""
"","image-keyboard-response","329","165685","0.0-329.0","3DHE4R9OCXXFL5VAR4XZT856781G2J","A2YCMO8KFFQAJ9","3MXX6RQ9EVRTFC527Z18RDK8KW6P4R","","429.40000000596046","img/flower2.png","75","430.7000000178814","2","1","1","2","1,0,0,1,1,0,1,0,1","0,1,0,0,1,1,1,1,0","3",""
"","html-keyboard-response","330","165990","0.0-330.0","3DHE4R9OCXXFL5VAR4XZT856781G2J","A2YCMO8KFFQAJ9","3MXX6RQ9EVRTFC527Z18RDK8KW6P4R","","null","<img src=""img/flower2.png"" style=""width:200px; border:14px solid green;"">","null","","","","","","","","",""
"","image-keyboard-response","331","166127","0.0-331.0","3DHE4R9OCXXFL5VAR4XZT856781G2J","A2YCMO8KFFQAJ9","3MXX6RQ9EVRTFC527Z18RDK8KW6P4R","","136","img/flower2.png","75","137.30000001192093","2","1","1","2","1,0,0,1,1,0,1,0,1","0,1,0,0,1,1,1,1,0","3",""
"","html-keyboard-response","332","166430","0.0-332.0","3DHE4R9OCXXFL5VAR4XZT856781G2J","A2YCMO8KFFQAJ9","3MXX6RQ9EVRTFC527Z18RDK8KW6P4R","","null","<img src=""img/flower2.png"" style=""width:200px; border:14px solid green;"">","null","","","","","","","","",""
"","image-keyboard-response","333","166633","0.0-333.0","3DHE4R9OCXXFL5VAR4XZT856781G2J","A2YCMO8KFFQAJ9","3MXX6RQ9EVRTFC527Z18RDK8KW6P4R","","201.59999999403954","img/flower2.png","75","203","2","1","1","2","1,0,0,1,1,0,1,0,1","0,1,0,0,1,1,1,1,0","3",""
"","html-keyboard-response","334","166942","0.0-334.0","3DHE4R9OCXXFL5VAR4XZT856781G2J","A2YCMO8KFFQAJ9","3MXX6RQ9EVRTFC527Z18RDK8KW6P4R","","null","<img src=""img/flower2.png"" style=""width:200px; border:14px solid green;"">","null","","","","","","","","",""
"","image-keyboard-response","335","167352","0.0-335.0","3DHE4R9OCXXFL5VAR4XZT856781G2J","A2YCMO8KFFQAJ9","3MXX6RQ9EVRTFC527Z18RDK8KW6P4R","","408.7999999821186","img/flower2.png","75","410.09999999403954","2","1","1","2","1,0,0,1,1,0,1,0,1","0,1,0,0,1,1,1,1,0","3",""
"","html-keyboard-response","336","167662","0.0-336.0","3DHE4R9OCXXFL5VAR4XZT856781G2J","A2YCMO8KFFQAJ9","3MXX6RQ9EVRTFC527Z18RDK8KW6P4R","","null","<img src=""img/flower2.png"" style=""width:200px; border:14px solid green;"">","null","","","","","","","","",""
"","image-keyboard-response","337","167901","0.0-337.0","3DHE4R9OCXXFL5VAR4XZT856781G2J","A2YCMO8KFFQAJ9","3MXX6RQ9EVRTFC527Z18RDK8KW6P4R","","237.40000000596046","img/flower5.png","75","238.69999998807907","2","1","2","2","1,0,0,1,1,0,1,0,1","0,1,0,0,1,1,1,1,0","3",""
"","html-keyboard-response","338","168206","0.0-338.0","3DHE4R9OCXXFL5VAR4XZT856781G2J","A2YCMO8KFFQAJ9","3MXX6RQ9EVRTFC527Z18RDK8KW6P4R","","null","<img src=""img/flower5.png"" style=""width:200px; border:14px solid green;"">","null","","","","","","","","",""
"","image-keyboard-response","339","168662","0.0-339.0","3DHE4R9OCXXFL5VAR4XZT856781G2J","A2YCMO8KFFQAJ9","3MXX6RQ9EVRTFC527Z18RDK8KW6P4R","","454.80000001192093","img/flower3.png","75","456","2","1","3","2","1,0,0,1,1,0,1,0,1","0,1,0,0,1,1,1,1,0","3",""
"","html-keyboard-response","340","168966","0.0-340.0","3DHE4R9OCXXFL5VAR4XZT856781G2J","A2YCMO8KFFQAJ9","3MXX6RQ9EVRTFC527Z18RDK8KW6P4R","","null","<img src=""img/flower3.png"" style=""width:200px; border:14px solid green;"">","null","","","","","","","","",""
"","image-keyboard-response","341","169072","0.0-341.0","3DHE4R9OCXXFL5VAR4XZT856781G2J","A2YCMO8KFFQAJ9","3MXX6RQ9EVRTFC527Z18RDK8KW6P4R","","104.89999997615814","img/flower5.png","75","106.2999999821186","2","1","2","2","1,0,0,1,1,0,1,0,1","0,1,0,0,1,1,1,1,0","3",""
"","html-keyboard-response","342","169374","0.0-342.0","3DHE4R9OCXXFL5VAR4XZT856781G2J","A2YCMO8KFFQAJ9","3MXX6RQ9EVRTFC527Z18RDK8KW6P4R","","null","<img src=""img/flower5.png"" style=""width:200px; border:14px solid green;"">","null","","","","","","","","",""
"","image-keyboard-response","343","169534","0.0-343.0","3DHE4R9OCXXFL5VAR4XZT856781G2J","A2YCMO8KFFQAJ9","3MXX6RQ9EVRTFC527Z18RDK8KW6P4R","","158.7999999821186","img/flower2.png","75","160.09999999403954","2","1","1","2","1,0,0,1,1,0,1,0,1","0,1,0,0,1,1,1,1,0","3",""
"","html-keyboard-response","344","169838","0.0-344.0","3DHE4R9OCXXFL5VAR4XZT856781G2J","A2YCMO8KFFQAJ9","3MXX6RQ9EVRTFC527Z18RDK8KW6P4R","","null","<img src=""img/flower2.png"" style=""width:200px; border:14px solid green;"">","null","","","","","","","","",""
"","image-keyboard-response","345","169860","0.0-345.0","3DHE4R9OCXXFL5VAR4XZT856781G2J","A2YCMO8KFFQAJ9","3MXX6RQ9EVRTFC527Z18RDK8KW6P4R","","20.5","img/flower5.png","75","21.599999994039536","2","1","2","2","1,0,0,1,1,0,1,0,1","0,1,0,0,1,1,1,1,0","3",""
"","html-keyboard-response","346","170166","0.0-346.0","3DHE4R9OCXXFL5VAR4XZT856781G2J","A2YCMO8KFFQAJ9","3MXX6RQ9EVRTFC527Z18RDK8KW6P4R","","null","<img src=""img/flower5.png"" style=""width:200px; border:14px solid green;"">","null","","","","","","","","",""
"","image-keyboard-response","347","170169","0.0-347.0","3DHE4R9OCXXFL5VAR4XZT856781G2J","A2YCMO8KFFQAJ9","3MXX6RQ9EVRTFC527Z18RDK8KW6P4R","","1.399999976158142","img/flower2.png","75","2.699999988079071","2","1","1","2","1,0,0,1,1,0,1,0,1","0,1,0,0,1,1,1,1,0","3",""
"","html-keyboard-response","348","170478","0.0-348.0","3DHE4R9OCXXFL5VAR4XZT856781G2J","A2YCMO8KFFQAJ9","3MXX6RQ9EVRTFC527Z18RDK8KW6P4R","","null","<img src=""img/flower2.png"" style=""width:200px; border:14px solid green;"">","null","","","","","","","","",""
"","image-keyboard-response","349","170528","0.0-349.0","3DHE4R9OCXXFL5VAR4XZT856781G2J","A2YCMO8KFFQAJ9","3MXX6RQ9EVRTFC527Z18RDK8KW6P4R","","48.70000001788139","img/flower5.png","75","49.900000005960464","2","1","2","2","1,0,0,1,1,0,1,0,1","0,1,0,0,1,1,1,1,0","3",""
"","html-keyboard-response","350","170830","0.0-350.0","3DHE4R9OCXXFL5VAR4XZT856781G2J","A2YCMO8KFFQAJ9","3MXX6RQ9EVRTFC527Z18RDK8KW6P4R","","null","<img src=""img/flower5.png"" style=""width:200px; border:14px solid green;"">","null","","","","","","","","",""
"","image-keyboard-response","351","171002","0.0-351.0","3DHE4R9OCXXFL5VAR4XZT856781G2J","A2YCMO8KFFQAJ9","3MXX6RQ9EVRTFC527Z18RDK8KW6P4R","","170.39999997615814","img/flower5.png","75","171.69999998807907","2","1","2","2","1,0,0,1,1,0,1,0,1","0,1,0,0,1,1,1,1,0","3",""
"","html-keyboard-response","352","171310","0.0-352.0","3DHE4R9OCXXFL5VAR4XZT856781G2J","A2YCMO8KFFQAJ9","3MXX6RQ9EVRTFC527Z18RDK8KW6P4R","","null","<img src=""img/flower5.png"" style=""width:200px; border:14px solid green;"">","null","","","","","","","","",""
"","image-keyboard-response","353","171417","0.0-353.0","3DHE4R9OCXXFL5VAR4XZT856781G2J","A2YCMO8KFFQAJ9","3MXX6RQ9EVRTFC527Z18RDK8KW6P4R","","105.2000000178814","img/flower5.png","75","106.7000000178814","2","1","2","2","1,0,0,1,1,0,1,0,1","0,1,0,0,1,1,1,1,0","3",""
"","html-keyboard-response","354","171726","0.0-354.0","3DHE4R9OCXXFL5VAR4XZT856781G2J","A2YCMO8KFFQAJ9","3MXX6RQ9EVRTFC527Z18RDK8KW6P4R","","null","<img src=""img/flower5.png"" style=""width:200px; border:14px solid green;"">","null","","","","","","","","",""
"","image-keyboard-response","355","171763","0.0-355.0","3DHE4R9OCXXFL5VAR4XZT856781G2J","A2YCMO8KFFQAJ9","3MXX6RQ9EVRTFC527Z18RDK8KW6P4R","","35.400000005960464","img/flower5.png","75","36.79999998211861","2","1","2","2","1,0,0,1,1,0,1,0,1","0,1,0,0,1,1,1,1,0","3",""
"","html-keyboard-response","356","172070","0.0-356.0","3DHE4R9OCXXFL5VAR4XZT856781G2J","A2YCMO8KFFQAJ9","3MXX6RQ9EVRTFC527Z18RDK8KW6P4R","","null","<img src=""img/flower5.png"" style=""width:200px; border:14px solid green;"">","null","","","","","","","","",""
"","image-keyboard-response","357","172137","0.0-357.0","3DHE4R9OCXXFL5VAR4XZT856781G2J","A2YCMO8KFFQAJ9","3MXX6RQ9EVRTFC527Z18RDK8KW6P4R","","65.5","img/flower5.png","75","66.7999999821186","2","1","2","2","1,0,0,1,1,0,1,0,1","0,1,0,0,1,1,1,1,0","3",""
"","html-keyboard-response","358","172446","0.0-358.0","3DHE4R9OCXXFL5VAR4XZT856781G2J","A2YCMO8KFFQAJ9","3MXX6RQ9EVRTFC527Z18RDK8KW6P4R","","null","<img src=""img/flower5.png"" style=""width:200px; border:14px solid green;"">","null","","","","","","","","",""
"","image-keyboard-response","359","172592","0.0-359.0","3DHE4R9OCXXFL5VAR4XZT856781G2J","A2YCMO8KFFQAJ9","3MXX6RQ9EVRTFC527Z18RDK8KW6P4R","","144.5","img/flower2.png","75","145.90000000596046","2","1","1","2","1,0,0,1,1,0,1,0,1","0,1,0,0,1,1,1,1,0","3",""
"","html-keyboard-response","360","172894","0.0-360.0","3DHE4R9OCXXFL5VAR4XZT856781G2J","A2YCMO8KFFQAJ9","3MXX6RQ9EVRTFC527Z18RDK8KW6P4R","","null","<img src=""img/flower2.png"" style=""width:200px; border:14px solid green;"">","null","","","","","","","","",""
"","image-keyboard-response","361","173042","0.0-361.0","3DHE4R9OCXXFL5VAR4XZT856781G2J","A2YCMO8KFFQAJ9","3MXX6RQ9EVRTFC527Z18RDK8KW6P4R","","146","img/flower5.png","75","147.30000001192093","2","1","2","2","1,0,0,1,1,0,1,0,1","0,1,0,0,1,1,1,1,0","3",""
"","html-keyboard-response","362","173350","0.0-362.0","3DHE4R9OCXXFL5VAR4XZT856781G2J","A2YCMO8KFFQAJ9","3MXX6RQ9EVRTFC527Z18RDK8KW6P4R","","null","<img src=""img/flower5.png"" style=""width:200px; border:14px solid green;"">","null","","","","","","","","",""
