"rt","url","trial_type","trial_index","time_elapsed","internal_node_id","assignmentID","mturkID","hitID","success","view_history","stimulus","key_press","reactionTime","a","r","s","reward_cond","responses"
"117553.79999995232","consent.html","external-html","0","117616","0.0-0.0","3PJ71Z61R5OTHAQ6UURBW89E8QP19S","A2ZDEERVRN5AMC","3UAU495MIIEABANG75FBFHDC9WUUOI","","","","","","","","","",""
"","","fullscreen","1","120103","0.0-1.0","3PJ71Z61R5OTHAQ6UURBW89E8QP19S","A2ZDEERVRN5AMC","3UAU495MIIEABANG75FBFHDC9WUUOI","true","","","","","","","","",""
"92251.40000009537","","instructions","2","212367","0.0-2.0","3PJ71Z61R5OTHAQ6UURBW89E8QP19S","A2ZDEERVRN5AMC","3UAU495MIIEABANG75FBFHDC9WUUOI","","[{""page_index"":0,""viewing_time"":28363.700000047684},{""page_index"":1,""viewing_time"":11319.299999952316},{""page_index"":2,""viewing_time"":14583.900000095367},{""page_index"":3,""viewing_time"":11511.599999904633},{""page_index"":4,""viewing_time"":4679.799999952316},{""page_index"":5,""viewing_time"":18688.10000014305},{""page_index"":6,""viewing_time"":3103.7999999523163}]","","","","","","","",""
"11789.5","","instructions","3","224157","0.0-3.0","3PJ71Z61R5OTHAQ6UURBW89E8QP19S","A2ZDEERVRN5AMC","3UAU495MIIEABANG75FBFHDC9WUUOI","","[{""page_index"":0,""viewing_time"":11789.099999904633}]","","","","","","","",""
"913","","image-keyboard-response","4","225072","0.0-4.0","3PJ71Z61R5OTHAQ6UURBW89E8QP19S","A2ZDEERVRN5AMC","3UAU495MIIEABANG75FBFHDC9WUUOI","","","img/flower6.png","76","914.5999999046326","3","1","3","",""
"null","","html-keyboard-response","5","225389","0.0-5.0","3PJ71Z61R5OTHAQ6UURBW89E8QP19S","A2ZDEERVRN5AMC","3UAU495MIIEABANG75FBFHDC9WUUOI","","","<img src=""img/flower6.png"" style=""width:200px; border:14px solid green;"">","null","","","","","",""
"904.0999999046326","","image-keyboard-response","6","226295","0.0-6.0","3PJ71Z61R5OTHAQ6UURBW89E8QP19S","A2ZDEERVRN5AMC","3UAU495MIIEABANG75FBFHDC9WUUOI","","","img/flower5.png","75","905.2999999523163","2","0","2","",""
"null","","html-keyboard-response","7","226611","0.0-7.0","3PJ71Z61R5OTHAQ6UURBW89E8QP19S","A2ZDEERVRN5AMC","3UAU495MIIEABANG75FBFHDC9WUUOI","","","<img src=""img/flower5.png"" style=""width:200px;border:14px solid red;"">","null","","","","","",""
"1162","","image-keyboard-response","8","227775","0.0-8.0","3PJ71Z61R5OTHAQ6UURBW89E8QP19S","A2ZDEERVRN5AMC","3UAU495MIIEABANG75FBFHDC9WUUOI","","","img/flower6.png","76","1163.3999998569489","3","1","3","",""
"null","","html-keyboard-response","9","228090","0.0-9.0","3PJ71Z61R5OTHAQ6UURBW89E8QP19S","A2ZDEERVRN5AMC","3UAU495MIIEABANG75FBFHDC9WUUOI","","","<img src=""img/flower6.png"" style=""width:200px; border:14px solid green;"">","null","","","","","",""
"587.4000000953674","","image-keyboard-response","10","228679","0.0-10.0","3PJ71Z61R5OTHAQ6UURBW89E8QP19S","A2ZDEERVRN5AMC","3UAU495MIIEABANG75FBFHDC9WUUOI","","","img/flower5.png","75","588.7000000476837","2","1","2","",""
"null","","html-keyboard-response","11","229004","0.0-11.0","3PJ71Z61R5OTHAQ6UURBW89E8QP19S","A2ZDEERVRN5AMC","3UAU495MIIEABANG75FBFHDC9WUUOI","","","<img src=""img/flower5.png"" style=""width:200px; border:14px solid green;"">","null","","","","","",""
"561.9000000953674","","image-keyboard-response","12","229567","0.0-12.0","3PJ71Z61R5OTHAQ6UURBW89E8QP19S","A2ZDEERVRN5AMC","3UAU495MIIEABANG75FBFHDC9WUUOI","","","img/flower4.png","74","563","1","1","1","",""
"null","","html-keyboard-response","13","229873","0.0-13.0","3PJ71Z61R5OTHAQ6UURBW89E8QP19S","A2ZDEERVRN5AMC","3UAU495MIIEABANG75FBFHDC9WUUOI","","","<img src=""img/flower4.png"" style=""width:200px; border:14px solid green;"">","null","","","","","",""
"684.2000000476837","","image-keyboard-response","14","230559","0.0-14.0","3PJ71Z61R5OTHAQ6UURBW89E8QP19S","A2ZDEERVRN5AMC","3UAU495MIIEABANG75FBFHDC9WUUOI","","","img/flower6.png","76","685.7000000476837","3","1","3","",""
"null","","html-keyboard-response","15","230860","0.0-15.0","3PJ71Z61R5OTHAQ6UURBW89E8QP19S","A2ZDEERVRN5AMC","3UAU495MIIEABANG75FBFHDC9WUUOI","","","<img src=""img/flower6.png"" style=""width:200px; border:14px solid green;"">","null","","","","","",""
"1112.8999998569489","","image-keyboard-response","16","231975","0.0-16.0","3PJ71Z61R5OTHAQ6UURBW89E8QP19S","A2ZDEERVRN5AMC","3UAU495MIIEABANG75FBFHDC9WUUOI","","","img/flower6.png","76","1114","3","0","3","",""
"null","","html-keyboard-response","17","232289","0.0-17.0","3PJ71Z61R5OTHAQ6UURBW89E8QP19S","A2ZDEERVRN5AMC","3UAU495MIIEABANG75FBFHDC9WUUOI","","","<img src=""img/flower6.png"" style=""width:200px;border:14px solid red;"">","null","","","","","",""
"741.1000001430511","","image-keyboard-response","18","233031","0.0-18.0","3PJ71Z61R5OTHAQ6UURBW89E8QP19S","A2ZDEERVRN5AMC","3UAU495MIIEABANG75FBFHDC9WUUOI","","","img/flower6.png","76","742.2000000476837","3","1","3","",""
"null","","html-keyboard-response","19","233339","0.0-19.0","3PJ71Z61R5OTHAQ6UURBW89E8QP19S","A2ZDEERVRN5AMC","3UAU495MIIEABANG75FBFHDC9WUUOI","","","<img src=""img/flower6.png"" style=""width:200px; border:14px solid green;"">","null","","","","","",""
"674.2999999523163","","image-keyboard-response","20","234015","0.0-20.0","3PJ71Z61R5OTHAQ6UURBW89E8QP19S","A2ZDEERVRN5AMC","3UAU495MIIEABANG75FBFHDC9WUUOI","","","img/flower4.png","74","675.4000000953674","1","1","1","",""
"null","","html-keyboard-response","21","234325","0.0-21.0","3PJ71Z61R5OTHAQ6UURBW89E8QP19S","A2ZDEERVRN5AMC","3UAU495MIIEABANG75FBFHDC9WUUOI","","","<img src=""img/flower4.png"" style=""width:200px; border:14px solid green;"">","null","","","","","",""
"529.6999998092651","","image-keyboard-response","22","234856","0.0-22.0","3PJ71Z61R5OTHAQ6UURBW89E8QP19S","A2ZDEERVRN5AMC","3UAU495MIIEABANG75FBFHDC9WUUOI","","","img/flower5.png","75","531","2","1","2","",""
"null","","html-keyboard-response","23","235157","0.0-23.0","3PJ71Z61R5OTHAQ6UURBW89E8QP19S","A2ZDEERVRN5AMC","3UAU495MIIEABANG75FBFHDC9WUUOI","","","<img src=""img/flower5.png"" style=""width:200px; border:14px solid green;"">","null","","","","","",""
"497.2000000476837","","image-keyboard-response","24","235656","0.0-24.0","3PJ71Z61R5OTHAQ6UURBW89E8QP19S","A2ZDEERVRN5AMC","3UAU495MIIEABANG75FBFHDC9WUUOI","","","img/flower5.png","75","498.2999999523163","2","1","2","",""
"null","","html-keyboard-response","25","235973","0.0-25.0","3PJ71Z61R5OTHAQ6UURBW89E8QP19S","A2ZDEERVRN5AMC","3UAU495MIIEABANG75FBFHDC9WUUOI","","","<img src=""img/flower5.png"" style=""width:200px; border:14px solid green;"">","null","","","","","",""
"401.5","","image-keyboard-response","26","236376","0.0-26.0","3PJ71Z61R5OTHAQ6UURBW89E8QP19S","A2ZDEERVRN5AMC","3UAU495MIIEABANG75FBFHDC9WUUOI","","","img/flower5.png","75","402.7000000476837","2","1","2","",""
"null","","html-keyboard-response","27","236689","0.0-27.0","3PJ71Z61R5OTHAQ6UURBW89E8QP19S","A2ZDEERVRN5AMC","3UAU495MIIEABANG75FBFHDC9WUUOI","","","<img src=""img/flower5.png"" style=""width:200px; border:14px solid green;"">","null","","","","","",""
"653.6999998092651","","image-keyboard-response","28","237343","0.0-28.0","3PJ71Z61R5OTHAQ6UURBW89E8QP19S","A2ZDEERVRN5AMC","3UAU495MIIEABANG75FBFHDC9WUUOI","","","img/flower6.png","76","654.3999998569489","3","1","3","",""
"null","","html-keyboard-response","29","237656","0.0-29.0","3PJ71Z61R5OTHAQ6UURBW89E8QP19S","A2ZDEERVRN5AMC","3UAU495MIIEABANG75FBFHDC9WUUOI","","","<img src=""img/flower6.png"" style=""width:200px; border:14px solid green;"">","null","","","","","",""
"558.0999999046326","","image-keyboard-response","30","238216","0.0-30.0","3PJ71Z61R5OTHAQ6UURBW89E8QP19S","A2ZDEERVRN5AMC","3UAU495MIIEABANG75FBFHDC9WUUOI","","","img/flower4.png","74","559.1999998092651","1","1","1","",""
"null","","html-keyboard-response","31","238524","0.0-31.0","3PJ71Z61R5OTHAQ6UURBW89E8QP19S","A2ZDEERVRN5AMC","3UAU495MIIEABANG75FBFHDC9WUUOI","","","<img src=""img/flower4.png"" style=""width:200px; border:14px solid green;"">","null","","","","","",""
"441.5","","image-keyboard-response","32","238967","0.0-32.0","3PJ71Z61R5OTHAQ6UURBW89E8QP19S","A2ZDEERVRN5AMC","3UAU495MIIEABANG75FBFHDC9WUUOI","","","img/flower5.png","75","442.5","2","1","2","",""
"null","","html-keyboard-response","33","239273","0.0-33.0","3PJ71Z61R5OTHAQ6UURBW89E8QP19S","A2ZDEERVRN5AMC","3UAU495MIIEABANG75FBFHDC9WUUOI","","","<img src=""img/flower5.png"" style=""width:200px; border:14px solid green;"">","null","","","","","",""
"692.5999999046326","","image-keyboard-response","34","239967","0.0-34.0","3PJ71Z61R5OTHAQ6UURBW89E8QP19S","A2ZDEERVRN5AMC","3UAU495MIIEABANG75FBFHDC9WUUOI","","","img/flower6.png","76","693.5999999046326","3","1","3","",""
"null","","html-keyboard-response","35","240273","0.0-35.0","3PJ71Z61R5OTHAQ6UURBW89E8QP19S","A2ZDEERVRN5AMC","3UAU495MIIEABANG75FBFHDC9WUUOI","","","<img src=""img/flower6.png"" style=""width:200px; border:14px solid green;"">","null","","","","","",""
"605.3999998569489","","image-keyboard-response","36","240879","0.0-36.0","3PJ71Z61R5OTHAQ6UURBW89E8QP19S","A2ZDEERVRN5AMC","3UAU495MIIEABANG75FBFHDC9WUUOI","","","img/flower4.png","74","606.3999998569489","1","0","1","",""
"null","","html-keyboard-response","37","241190","0.0-37.0","3PJ71Z61R5OTHAQ6UURBW89E8QP19S","A2ZDEERVRN5AMC","3UAU495MIIEABANG75FBFHDC9WUUOI","","","<img src=""img/flower4.png"" style=""width:200px;border:14px solid red;"">","null","","","","","",""
"479.89999985694885","","image-keyboard-response","38","241672","0.0-38.0","3PJ71Z61R5OTHAQ6UURBW89E8QP19S","A2ZDEERVRN5AMC","3UAU495MIIEABANG75FBFHDC9WUUOI","","","img/flower5.png","75","481","2","1","2","",""
"null","","html-keyboard-response","39","241990","0.0-39.0","3PJ71Z61R5OTHAQ6UURBW89E8QP19S","A2ZDEERVRN5AMC","3UAU495MIIEABANG75FBFHDC9WUUOI","","","<img src=""img/flower5.png"" style=""width:200px; border:14px solid green;"">","null","","","","","",""
"544.4000000953674","","image-keyboard-response","40","242536","0.0-40.0","3PJ71Z61R5OTHAQ6UURBW89E8QP19S","A2ZDEERVRN5AMC","3UAU495MIIEABANG75FBFHDC9WUUOI","","","img/flower4.png","74","545.3999998569489","1","1","1","",""
"null","","html-keyboard-response","41","242846","0.0-41.0","3PJ71Z61R5OTHAQ6UURBW89E8QP19S","A2ZDEERVRN5AMC","3UAU495MIIEABANG75FBFHDC9WUUOI","","","<img src=""img/flower4.png"" style=""width:200px; border:14px solid green;"">","null","","","","","",""
"680.6000001430511","","image-keyboard-response","42","243528","0.0-42.0","3PJ71Z61R5OTHAQ6UURBW89E8QP19S","A2ZDEERVRN5AMC","3UAU495MIIEABANG75FBFHDC9WUUOI","","","img/flower4.png","74","681.6999998092651","1","0","1","",""
"null","","html-keyboard-response","43","243839","0.0-43.0","3PJ71Z61R5OTHAQ6UURBW89E8QP19S","A2ZDEERVRN5AMC","3UAU495MIIEABANG75FBFHDC9WUUOI","","","<img src=""img/flower4.png"" style=""width:200px;border:14px solid red;"">","null","","","","","",""
"543.2999999523163","","image-keyboard-response","44","244384","0.0-44.0","3PJ71Z61R5OTHAQ6UURBW89E8QP19S","A2ZDEERVRN5AMC","3UAU495MIIEABANG75FBFHDC9WUUOI","","","img/flower5.png","75","544.1999998092651","2","1","2","",""
"null","","html-keyboard-response","45","244690","0.0-45.0","3PJ71Z61R5OTHAQ6UURBW89E8QP19S","A2ZDEERVRN5AMC","3UAU495MIIEABANG75FBFHDC9WUUOI","","","<img src=""img/flower5.png"" style=""width:200px; border:14px solid green;"">","null","","","","","",""
"356.2000000476837","","image-keyboard-response","46","245048","0.0-46.0","3PJ71Z61R5OTHAQ6UURBW89E8QP19S","A2ZDEERVRN5AMC","3UAU495MIIEABANG75FBFHDC9WUUOI","","","img/flower5.png","75","357.09999990463257","2","1","2","",""
"null","","html-keyboard-response","47","245356","0.0-47.0","3PJ71Z61R5OTHAQ6UURBW89E8QP19S","A2ZDEERVRN5AMC","3UAU495MIIEABANG75FBFHDC9WUUOI","","","<img src=""img/flower5.png"" style=""width:200px; border:14px solid green;"">","null","","","","","",""
"561.4000000953674","","image-keyboard-response","48","245919","0.0-48.0","3PJ71Z61R5OTHAQ6UURBW89E8QP19S","A2ZDEERVRN5AMC","3UAU495MIIEABANG75FBFHDC9WUUOI","","","img/flower6.png","76","562.5999999046326","3","1","3","",""
"null","","html-keyboard-response","49","246225","0.0-49.0","3PJ71Z61R5OTHAQ6UURBW89E8QP19S","A2ZDEERVRN5AMC","3UAU495MIIEABANG75FBFHDC9WUUOI","","","<img src=""img/flower6.png"" style=""width:200px; border:14px solid green;"">","null","","","","","",""
"333.5","","image-keyboard-response","50","246560","0.0-50.0","3PJ71Z61R5OTHAQ6UURBW89E8QP19S","A2ZDEERVRN5AMC","3UAU495MIIEABANG75FBFHDC9WUUOI","","","img/flower6.png","76","334.7000000476837","3","1","3","",""
"null","","html-keyboard-response","51","246877","0.0-51.0","3PJ71Z61R5OTHAQ6UURBW89E8QP19S","A2ZDEERVRN5AMC","3UAU495MIIEABANG75FBFHDC9WUUOI","","","<img src=""img/flower6.png"" style=""width:200px; border:14px solid green;"">","null","","","","","",""
"561.7999999523163","","image-keyboard-response","52","247440","0.0-52.0","3PJ71Z61R5OTHAQ6UURBW89E8QP19S","A2ZDEERVRN5AMC","3UAU495MIIEABANG75FBFHDC9WUUOI","","","img/flower4.png","74","562.5","1","1","1","",""
"null","","html-keyboard-response","53","247756","0.0-53.0","3PJ71Z61R5OTHAQ6UURBW89E8QP19S","A2ZDEERVRN5AMC","3UAU495MIIEABANG75FBFHDC9WUUOI","","","<img src=""img/flower4.png"" style=""width:200px; border:14px solid green;"">","null","","","","","",""
"521.6999998092651","","image-keyboard-response","54","248280","0.0-54.0","3PJ71Z61R5OTHAQ6UURBW89E8QP19S","A2ZDEERVRN5AMC","3UAU495MIIEABANG75FBFHDC9WUUOI","","","img/flower6.png","75","522.9000000953674","2","1","3","",""
"null","","html-keyboard-response","55","248591","0.0-55.0","3PJ71Z61R5OTHAQ6UURBW89E8QP19S","A2ZDEERVRN5AMC","3UAU495MIIEABANG75FBFHDC9WUUOI","","","<img src=""img/flower6.png"" style=""width:200px; border:14px solid green;"">","null","","","","","",""
"1406.6000001430511","","image-keyboard-response","56","249999","0.0-56.0","3PJ71Z61R5OTHAQ6UURBW89E8QP19S","A2ZDEERVRN5AMC","3UAU495MIIEABANG75FBFHDC9WUUOI","","","img/flower4.png","74","1407.7999999523163","1","1","1","",""
"null","","html-keyboard-response","57","250317","0.0-57.0","3PJ71Z61R5OTHAQ6UURBW89E8QP19S","A2ZDEERVRN5AMC","3UAU495MIIEABANG75FBFHDC9WUUOI","","","<img src=""img/flower4.png"" style=""width:200px; border:14px solid green;"">","null","","","","","",""
"617","","image-keyboard-response","58","250935","0.0-58.0","3PJ71Z61R5OTHAQ6UURBW89E8QP19S","A2ZDEERVRN5AMC","3UAU495MIIEABANG75FBFHDC9WUUOI","","","img/flower4.png","74","618.2000000476837","1","1","1","",""
"null","","html-keyboard-response","59","251241","0.0-59.0","3PJ71Z61R5OTHAQ6UURBW89E8QP19S","A2ZDEERVRN5AMC","3UAU495MIIEABANG75FBFHDC9WUUOI","","","<img src=""img/flower4.png"" style=""width:200px; border:14px solid green;"">","null","","","","","",""
"452.90000009536743","","image-keyboard-response","60","251695","0.0-60.0","3PJ71Z61R5OTHAQ6UURBW89E8QP19S","A2ZDEERVRN5AMC","3UAU495MIIEABANG75FBFHDC9WUUOI","","","img/flower4.png","74","453.90000009536743","1","1","1","",""
"null","","html-keyboard-response","61","252008","0.0-61.0","3PJ71Z61R5OTHAQ6UURBW89E8QP19S","A2ZDEERVRN5AMC","3UAU495MIIEABANG75FBFHDC9WUUOI","","","<img src=""img/flower4.png"" style=""width:200px; border:14px solid green;"">","null","","","","","",""
"597.8000001907349","","image-keyboard-response","62","252607","0.0-62.0","3PJ71Z61R5OTHAQ6UURBW89E8QP19S","A2ZDEERVRN5AMC","3UAU495MIIEABANG75FBFHDC9WUUOI","","","img/flower5.png","75","599.1000001430511","2","1","2","",""
"null","","html-keyboard-response","63","252924","0.0-63.0","3PJ71Z61R5OTHAQ6UURBW89E8QP19S","A2ZDEERVRN5AMC","3UAU495MIIEABANG75FBFHDC9WUUOI","","","<img src=""img/flower5.png"" style=""width:200px; border:14px solid green;"">","null","","","","","",""
"13921.700000047684","","instructions","64","266846","0.0-64.0","3PJ71Z61R5OTHAQ6UURBW89E8QP19S","A2ZDEERVRN5AMC","3UAU495MIIEABANG75FBFHDC9WUUOI","","[{""page_index"":0,""viewing_time"":4552.799999952316},{""page_index"":1,""viewing_time"":9368.099999904633}]","","","","","","","",""
"1199.7000000476837","","image-keyboard-response","65","268048","0.0-65.0","3PJ71Z61R5OTHAQ6UURBW89E8QP19S","A2ZDEERVRN5AMC","3UAU495MIIEABANG75FBFHDC9WUUOI","","","img/flower5.png","75","1201.6000001430511","2","0","2","",""
"null","","html-keyboard-response","66","268357","0.0-66.0","3PJ71Z61R5OTHAQ6UURBW89E8QP19S","A2ZDEERVRN5AMC","3UAU495MIIEABANG75FBFHDC9WUUOI","","","<img src=""img/flower5.png"" style=""width:200px;border:14px solid red;"">","null","","","","","",""
"720.2000000476837","","image-keyboard-response","67","269079","0.0-67.0","3PJ71Z61R5OTHAQ6UURBW89E8QP19S","A2ZDEERVRN5AMC","3UAU495MIIEABANG75FBFHDC9WUUOI","","","img/flower5.png","74","721.5","1","0","2","",""
"null","","html-keyboard-response","68","269392","0.0-68.0","3PJ71Z61R5OTHAQ6UURBW89E8QP19S","A2ZDEERVRN5AMC","3UAU495MIIEABANG75FBFHDC9WUUOI","","","<img src=""img/flower5.png"" style=""width:200px;border:14px solid red;"">","null","","","","","",""
"1261.0999999046326","","image-keyboard-response","69","270655","0.0-69.0","3PJ71Z61R5OTHAQ6UURBW89E8QP19S","A2ZDEERVRN5AMC","3UAU495MIIEABANG75FBFHDC9WUUOI","","","img/flower6.png","75","1262.4000000953674","2","0","3","",""
"null","","html-keyboard-response","70","270974","0.0-70.0","3PJ71Z61R5OTHAQ6UURBW89E8QP19S","A2ZDEERVRN5AMC","3UAU495MIIEABANG75FBFHDC9WUUOI","","","<img src=""img/flower6.png"" style=""width:200px;border:14px solid red;"">","null","","","","","",""
"311.69999980926514","","image-keyboard-response","71","271287","0.0-71.0","3PJ71Z61R5OTHAQ6UURBW89E8QP19S","A2ZDEERVRN5AMC","3UAU495MIIEABANG75FBFHDC9WUUOI","","","img/flower5.png","76","312.90000009536743","3","0","2","",""
"null","","html-keyboard-response","72","271607","0.0-72.0","3PJ71Z61R5OTHAQ6UURBW89E8QP19S","A2ZDEERVRN5AMC","3UAU495MIIEABANG75FBFHDC9WUUOI","","","<img src=""img/flower5.png"" style=""width:200px;border:14px solid red;"">","null","","","","","",""
"1982.5","","image-keyboard-response","73","273591","0.0-73.0","3PJ71Z61R5OTHAQ6UURBW89E8QP19S","A2ZDEERVRN5AMC","3UAU495MIIEABANG75FBFHDC9WUUOI","","","img/flower6.png","74","1983.7000000476837","1","1","3","",""
"null","","html-keyboard-response","74","273907","0.0-74.0","3PJ71Z61R5OTHAQ6UURBW89E8QP19S","A2ZDEERVRN5AMC","3UAU495MIIEABANG75FBFHDC9WUUOI","","","<img src=""img/flower6.png"" style=""width:200px; border:14px solid green;"">","null","","","","","",""
"522.5999999046326","","image-keyboard-response","75","274431","0.0-75.0","3PJ71Z61R5OTHAQ6UURBW89E8QP19S","A2ZDEERVRN5AMC","3UAU495MIIEABANG75FBFHDC9WUUOI","","","img/flower6.png","74","523.5","1","1","3","",""
"null","","html-keyboard-response","76","274737","0.0-76.0","3PJ71Z61R5OTHAQ6UURBW89E8QP19S","A2ZDEERVRN5AMC","3UAU495MIIEABANG75FBFHDC9WUUOI","","","<img src=""img/flower6.png"" style=""width:200px; border:14px solid green;"">","null","","","","","",""
"636.5999999046326","","image-keyboard-response","77","275375","0.0-77.0","3PJ71Z61R5OTHAQ6UURBW89E8QP19S","A2ZDEERVRN5AMC","3UAU495MIIEABANG75FBFHDC9WUUOI","","","img/flower6.png","76","637.6000001430511","3","1","3","",""
"null","","html-keyboard-response","78","275690","0.0-78.0","3PJ71Z61R5OTHAQ6UURBW89E8QP19S","A2ZDEERVRN5AMC","3UAU495MIIEABANG75FBFHDC9WUUOI","","","<img src=""img/flower6.png"" style=""width:200px; border:14px solid green;"">","null","","","","","",""
"1363","","image-keyboard-response","79","277055","0.0-79.0","3PJ71Z61R5OTHAQ6UURBW89E8QP19S","A2ZDEERVRN5AMC","3UAU495MIIEABANG75FBFHDC9WUUOI","","","img/flower5.png","75","1364.2000000476837","2","1","2","",""
"null","","html-keyboard-response","80","277365","0.0-80.0","3PJ71Z61R5OTHAQ6UURBW89E8QP19S","A2ZDEERVRN5AMC","3UAU495MIIEABANG75FBFHDC9WUUOI","","","<img src=""img/flower5.png"" style=""width:200px; border:14px solid green;"">","null","","","","","",""
"288.2000000476837","","image-keyboard-response","81","277655","0.0-81.0","3PJ71Z61R5OTHAQ6UURBW89E8QP19S","A2ZDEERVRN5AMC","3UAU495MIIEABANG75FBFHDC9WUUOI","","","img/flower4.png","76","289.39999985694885","3","0","1","",""
"null","","html-keyboard-response","82","277961","0.0-82.0","3PJ71Z61R5OTHAQ6UURBW89E8QP19S","A2ZDEERVRN5AMC","3UAU495MIIEABANG75FBFHDC9WUUOI","","","<img src=""img/flower4.png"" style=""width:200px;border:14px solid red;"">","null","","","","","",""
"909.1000001430511","","image-keyboard-response","83","278871","0.0-83.0","3PJ71Z61R5OTHAQ6UURBW89E8QP19S","A2ZDEERVRN5AMC","3UAU495MIIEABANG75FBFHDC9WUUOI","","","img/flower6.png","76","910","3","0","3","",""
"null","","html-keyboard-response","84","279185","0.0-84.0","3PJ71Z61R5OTHAQ6UURBW89E8QP19S","A2ZDEERVRN5AMC","3UAU495MIIEABANG75FBFHDC9WUUOI","","","<img src=""img/flower6.png"" style=""width:200px;border:14px solid red;"">","null","","","","","",""
"604.5999999046326","","image-keyboard-response","85","279791","0.0-85.0","3PJ71Z61R5OTHAQ6UURBW89E8QP19S","A2ZDEERVRN5AMC","3UAU495MIIEABANG75FBFHDC9WUUOI","","","img/flower6.png","74","605.4000000953674","1","1","3","",""
"null","","html-keyboard-response","86","280097","0.0-86.0","3PJ71Z61R5OTHAQ6UURBW89E8QP19S","A2ZDEERVRN5AMC","3UAU495MIIEABANG75FBFHDC9WUUOI","","","<img src=""img/flower6.png"" style=""width:200px; border:14px solid green;"">","null","","","","","",""
"1324.9000000953674","","image-keyboard-response","87","281423","0.0-87.0","3PJ71Z61R5OTHAQ6UURBW89E8QP19S","A2ZDEERVRN5AMC","3UAU495MIIEABANG75FBFHDC9WUUOI","","","img/flower5.png","74","1325.7000000476837","1","0","2","",""
"null","","html-keyboard-response","88","281728","0.0-88.0","3PJ71Z61R5OTHAQ6UURBW89E8QP19S","A2ZDEERVRN5AMC","3UAU495MIIEABANG75FBFHDC9WUUOI","","","<img src=""img/flower5.png"" style=""width:200px;border:14px solid red;"">","null","","","","","",""
"1366.4000000953674","","image-keyboard-response","89","283096","0.0-89.0","3PJ71Z61R5OTHAQ6UURBW89E8QP19S","A2ZDEERVRN5AMC","3UAU495MIIEABANG75FBFHDC9WUUOI","","","img/flower6.png","74","1367.0999999046326","1","1","3","",""
"null","","html-keyboard-response","90","283407","0.0-90.0","3PJ71Z61R5OTHAQ6UURBW89E8QP19S","A2ZDEERVRN5AMC","3UAU495MIIEABANG75FBFHDC9WUUOI","","","<img src=""img/flower6.png"" style=""width:200px; border:14px solid green;"">","null","","","","","",""
"1053.8999998569489","","image-keyboard-response","91","284463","0.0-91.0","3PJ71Z61R5OTHAQ6UURBW89E8QP19S","A2ZDEERVRN5AMC","3UAU495MIIEABANG75FBFHDC9WUUOI","","","img/flower4.png","75","1055","2","1","1","",""
"null","","html-keyboard-response","92","284783","0.0-92.0","3PJ71Z61R5OTHAQ6UURBW89E8QP19S","A2ZDEERVRN5AMC","3UAU495MIIEABANG75FBFHDC9WUUOI","","","<img src=""img/flower4.png"" style=""width:200px; border:14px solid green;"">","null","","","","","",""
"981.7000000476837","","image-keyboard-response","93","285767","0.0-93.0","3PJ71Z61R5OTHAQ6UURBW89E8QP19S","A2ZDEERVRN5AMC","3UAU495MIIEABANG75FBFHDC9WUUOI","","","img/flower6.png","74","983","1","1","3","",""
"null","","html-keyboard-response","94","286074","0.0-94.0","3PJ71Z61R5OTHAQ6UURBW89E8QP19S","A2ZDEERVRN5AMC","3UAU495MIIEABANG75FBFHDC9WUUOI","","","<img src=""img/flower6.png"" style=""width:200px; border:14px solid green;"">","null","","","","","",""
"1115.2999999523163","","image-keyboard-response","95","287191","0.0-95.0","3PJ71Z61R5OTHAQ6UURBW89E8QP19S","A2ZDEERVRN5AMC","3UAU495MIIEABANG75FBFHDC9WUUOI","","","img/flower5.png","75","1116.3999998569489","2","1","2","",""
"null","","html-keyboard-response","96","287509","0.0-96.0","3PJ71Z61R5OTHAQ6UURBW89E8QP19S","A2ZDEERVRN5AMC","3UAU495MIIEABANG75FBFHDC9WUUOI","","","<img src=""img/flower5.png"" style=""width:200px; border:14px solid green;"">","null","","","","","",""
"1040.4000000953674","","image-keyboard-response","97","288551","0.0-97.0","3PJ71Z61R5OTHAQ6UURBW89E8QP19S","A2ZDEERVRN5AMC","3UAU495MIIEABANG75FBFHDC9WUUOI","","","img/flower6.png","76","1041.5999999046326","3","1","3","",""
"null","","html-keyboard-response","98","288861","0.0-98.0","3PJ71Z61R5OTHAQ6UURBW89E8QP19S","A2ZDEERVRN5AMC","3UAU495MIIEABANG75FBFHDC9WUUOI","","","<img src=""img/flower6.png"" style=""width:200px; border:14px solid green;"">","null","","","","","",""
"711.6999998092651","","image-keyboard-response","99","289574","0.0-99.0","3PJ71Z61R5OTHAQ6UURBW89E8QP19S","A2ZDEERVRN5AMC","3UAU495MIIEABANG75FBFHDC9WUUOI","","","img/flower4.png","74","712.7999999523163","1","1","1","",""
"null","","html-keyboard-response","100","289891","0.0-100.0","3PJ71Z61R5OTHAQ6UURBW89E8QP19S","A2ZDEERVRN5AMC","3UAU495MIIEABANG75FBFHDC9WUUOI","","","<img src=""img/flower4.png"" style=""width:200px; border:14px solid green;"">","null","","","","","",""
"1043.0999999046326","","image-keyboard-response","101","290935","0.0-101.0","3PJ71Z61R5OTHAQ6UURBW89E8QP19S","A2ZDEERVRN5AMC","3UAU495MIIEABANG75FBFHDC9WUUOI","","","img/flower6.png","74","1044.1000001430511","1","1","3","",""
"null","","html-keyboard-response","102","291244","0.0-102.0","3PJ71Z61R5OTHAQ6UURBW89E8QP19S","A2ZDEERVRN5AMC","3UAU495MIIEABANG75FBFHDC9WUUOI","","","<img src=""img/flower6.png"" style=""width:200px; border:14px solid green;"">","null","","","","","",""
"1145.9000000953674","","image-keyboard-response","103","292391","0.0-103.0","3PJ71Z61R5OTHAQ6UURBW89E8QP19S","A2ZDEERVRN5AMC","3UAU495MIIEABANG75FBFHDC9WUUOI","","","img/flower4.png","74","1147","1","1","1","",""
"null","","html-keyboard-response","104","292706","0.0-104.0","3PJ71Z61R5OTHAQ6UURBW89E8QP19S","A2ZDEERVRN5AMC","3UAU495MIIEABANG75FBFHDC9WUUOI","","","<img src=""img/flower4.png"" style=""width:200px; border:14px solid green;"">","null","","","","","",""
"691.4000000953674","","image-keyboard-response","105","293398","0.0-105.0","3PJ71Z61R5OTHAQ6UURBW89E8QP19S","A2ZDEERVRN5AMC","3UAU495MIIEABANG75FBFHDC9WUUOI","","","img/flower4.png","75","692.3999998569489","2","1","1","",""
"null","","html-keyboard-response","106","293708","0.0-106.0","3PJ71Z61R5OTHAQ6UURBW89E8QP19S","A2ZDEERVRN5AMC","3UAU495MIIEABANG75FBFHDC9WUUOI","","","<img src=""img/flower4.png"" style=""width:200px; border:14px solid green;"">","null","","","","","",""
"417.7999999523163","","image-keyboard-response","107","294126","0.0-107.0","3PJ71Z61R5OTHAQ6UURBW89E8QP19S","A2ZDEERVRN5AMC","3UAU495MIIEABANG75FBFHDC9WUUOI","","","img/flower4.png","75","418.7000000476837","2","1","1","",""
"null","","html-keyboard-response","108","294442","0.0-108.0","3PJ71Z61R5OTHAQ6UURBW89E8QP19S","A2ZDEERVRN5AMC","3UAU495MIIEABANG75FBFHDC9WUUOI","","","<img src=""img/flower4.png"" style=""width:200px; border:14px solid green;"">","null","","","","","",""
"564.3999998569489","","image-keyboard-response","109","295007","0.0-109.0","3PJ71Z61R5OTHAQ6UURBW89E8QP19S","A2ZDEERVRN5AMC","3UAU495MIIEABANG75FBFHDC9WUUOI","","","img/flower4.png","75","565.3999998569489","2","0","1","",""
"null","","html-keyboard-response","110","295324","0.0-110.0","3PJ71Z61R5OTHAQ6UURBW89E8QP19S","A2ZDEERVRN5AMC","3UAU495MIIEABANG75FBFHDC9WUUOI","","","<img src=""img/flower4.png"" style=""width:200px;border:14px solid red;"">","null","","","","","",""
"1017.4000000953674","","image-keyboard-response","111","296343","0.0-111.0","3PJ71Z61R5OTHAQ6UURBW89E8QP19S","A2ZDEERVRN5AMC","3UAU495MIIEABANG75FBFHDC9WUUOI","","","img/flower5.png","75","1018.5","2","1","2","",""
"null","","html-keyboard-response","112","296650","0.0-112.0","3PJ71Z61R5OTHAQ6UURBW89E8QP19S","A2ZDEERVRN5AMC","3UAU495MIIEABANG75FBFHDC9WUUOI","","","<img src=""img/flower5.png"" style=""width:200px; border:14px solid green;"">","null","","","","","",""
"348.40000009536743","","image-keyboard-response","113","296999","0.0-113.0","3PJ71Z61R5OTHAQ6UURBW89E8QP19S","A2ZDEERVRN5AMC","3UAU495MIIEABANG75FBFHDC9WUUOI","","","img/flower5.png","74","349.59999990463257","1","0","2","",""
"null","","html-keyboard-response","114","297308","0.0-114.0","3PJ71Z61R5OTHAQ6UURBW89E8QP19S","A2ZDEERVRN5AMC","3UAU495MIIEABANG75FBFHDC9WUUOI","","","<img src=""img/flower5.png"" style=""width:200px;border:14px solid red;"">","null","","","","","",""
"2209.9000000953674","","image-keyboard-response","115","299519","0.0-115.0","3PJ71Z61R5OTHAQ6UURBW89E8QP19S","A2ZDEERVRN5AMC","3UAU495MIIEABANG75FBFHDC9WUUOI","","","img/flower4.png","74","2210.800000190735","1","0","1","",""
"null","","html-keyboard-response","116","299825","0.0-116.0","3PJ71Z61R5OTHAQ6UURBW89E8QP19S","A2ZDEERVRN5AMC","3UAU495MIIEABANG75FBFHDC9WUUOI","","","<img src=""img/flower4.png"" style=""width:200px;border:14px solid red;"">","null","","","","","",""
"964.5","","image-keyboard-response","117","300791","0.0-117.0","3PJ71Z61R5OTHAQ6UURBW89E8QP19S","A2ZDEERVRN5AMC","3UAU495MIIEABANG75FBFHDC9WUUOI","","","img/flower5.png","76","965.3999998569489","3","1","2","",""
"null","","html-keyboard-response","118","301108","0.0-118.0","3PJ71Z61R5OTHAQ6UURBW89E8QP19S","A2ZDEERVRN5AMC","3UAU495MIIEABANG75FBFHDC9WUUOI","","","<img src=""img/flower5.png"" style=""width:200px; border:14px solid green;"">","null","","","","","",""
"1090.3999998569489","","image-keyboard-response","119","302199","0.0-119.0","3PJ71Z61R5OTHAQ6UURBW89E8QP19S","A2ZDEERVRN5AMC","3UAU495MIIEABANG75FBFHDC9WUUOI","","","img/flower4.png","74","1091.2000000476837","1","1","1","",""
"null","","html-keyboard-response","120","302508","0.0-120.0","3PJ71Z61R5OTHAQ6UURBW89E8QP19S","A2ZDEERVRN5AMC","3UAU495MIIEABANG75FBFHDC9WUUOI","","","<img src=""img/flower4.png"" style=""width:200px; border:14px solid green;"">","null","","","","","",""
"745.9000000953674","","image-keyboard-response","121","303255","0.0-121.0","3PJ71Z61R5OTHAQ6UURBW89E8QP19S","A2ZDEERVRN5AMC","3UAU495MIIEABANG75FBFHDC9WUUOI","","","img/flower4.png","75","746.7999999523163","2","1","1","",""
"null","","html-keyboard-response","122","303575","0.0-122.0","3PJ71Z61R5OTHAQ6UURBW89E8QP19S","A2ZDEERVRN5AMC","3UAU495MIIEABANG75FBFHDC9WUUOI","","","<img src=""img/flower4.png"" style=""width:200px; border:14px solid green;"">","null","","","","","",""
"798.2000000476837","","image-keyboard-response","123","304375","0.0-123.0","3PJ71Z61R5OTHAQ6UURBW89E8QP19S","A2ZDEERVRN5AMC","3UAU495MIIEABANG75FBFHDC9WUUOI","","","img/flower5.png","76","799.7000000476837","3","1","2","",""
"null","","html-keyboard-response","124","304691","0.0-124.0","3PJ71Z61R5OTHAQ6UURBW89E8QP19S","A2ZDEERVRN5AMC","3UAU495MIIEABANG75FBFHDC9WUUOI","","","<img src=""img/flower5.png"" style=""width:200px; border:14px solid green;"">","null","","","","","",""
"2768.899999856949","","instructions","125","307461","0.0-125.0","3PJ71Z61R5OTHAQ6UURBW89E8QP19S","A2ZDEERVRN5AMC","3UAU495MIIEABANG75FBFHDC9WUUOI","","[{""page_index"":0,""viewing_time"":2768.5999999046326}]","","","","","","","",""
"705","","image-keyboard-response","126","308167","0.0-126.0","3PJ71Z61R5OTHAQ6UURBW89E8QP19S","A2ZDEERVRN5AMC","3UAU495MIIEABANG75FBFHDC9WUUOI","","","img/flower4.png","74","706.1999998092651","1","1","1","1,1,0,0,1,1,1,0,1",""
"null","","html-keyboard-response","127","308475","0.0-127.0","3PJ71Z61R5OTHAQ6UURBW89E8QP19S","A2ZDEERVRN5AMC","3UAU495MIIEABANG75FBFHDC9WUUOI","","","<img src=""img/flower4.png"" style=""width:200px; border:14px solid green;"">","null","","","","","",""
"891","","image-keyboard-response","128","309367","0.0-128.0","3PJ71Z61R5OTHAQ6UURBW89E8QP19S","A2ZDEERVRN5AMC","3UAU495MIIEABANG75FBFHDC9WUUOI","","","img/flower4.png","75","892.4000000953674","2","1","1","1,1,0,0,1,1,1,0,1",""
"null","","html-keyboard-response","129","309676","0.0-129.0","3PJ71Z61R5OTHAQ6UURBW89E8QP19S","A2ZDEERVRN5AMC","3UAU495MIIEABANG75FBFHDC9WUUOI","","","<img src=""img/flower4.png"" style=""width:200px; border:14px solid green;"">","null","","","","","",""
"850.1000001430511","","image-keyboard-response","130","310527","0.0-130.0","3PJ71Z61R5OTHAQ6UURBW89E8QP19S","A2ZDEERVRN5AMC","3UAU495MIIEABANG75FBFHDC9WUUOI","","","img/flower6.png","76","851.2999999523163","3","1","3","1,1,0,0,1,1,1,0,1",""
"null","","html-keyboard-response","131","310843","0.0-131.0","3PJ71Z61R5OTHAQ6UURBW89E8QP19S","A2ZDEERVRN5AMC","3UAU495MIIEABANG75FBFHDC9WUUOI","","","<img src=""img/flower6.png"" style=""width:200px; border:14px solid green;"">","null","","","","","",""
"1091.4000000953674","","image-keyboard-response","132","311935","0.0-132.0","3PJ71Z61R5OTHAQ6UURBW89E8QP19S","A2ZDEERVRN5AMC","3UAU495MIIEABANG75FBFHDC9WUUOI","","","img/flower4.png","74","1092.3000001907349","1","1","1","1,1,0,0,1,1,1,0,1",""
"null","","html-keyboard-response","133","312242","0.0-133.0","3PJ71Z61R5OTHAQ6UURBW89E8QP19S","A2ZDEERVRN5AMC","3UAU495MIIEABANG75FBFHDC9WUUOI","","","<img src=""img/flower4.png"" style=""width:200px; border:14px solid green;"">","null","","","","","",""
"1275.3999998569489","","image-keyboard-response","134","313519","0.0-134.0","3PJ71Z61R5OTHAQ6UURBW89E8QP19S","A2ZDEERVRN5AMC","3UAU495MIIEABANG75FBFHDC9WUUOI","","","img/flower1.png","75","1276.7000000476837","2","1","2","1,1,0,0,1,1,1,0,1",""
"null","","html-keyboard-response","135","313841","0.0-135.0","3PJ71Z61R5OTHAQ6UURBW89E8QP19S","A2ZDEERVRN5AMC","3UAU495MIIEABANG75FBFHDC9WUUOI","","","<img src=""img/flower1.png"" style=""width:200px; border:14px solid green;"">","null","","","","","",""
"724.7999999523163","","image-keyboard-response","136","314567","0.0-136.0","3PJ71Z61R5OTHAQ6UURBW89E8QP19S","A2ZDEERVRN5AMC","3UAU495MIIEABANG75FBFHDC9WUUOI","","","img/flower1.png","75","725.7999999523163","2","1","2","1,1,0,0,1,1,1,0,1",""
"null","","html-keyboard-response","137","314879","0.0-137.0","3PJ71Z61R5OTHAQ6UURBW89E8QP19S","A2ZDEERVRN5AMC","3UAU495MIIEABANG75FBFHDC9WUUOI","","","<img src=""img/flower1.png"" style=""width:200px; border:14px solid green;"">","null","","","","","",""
"959","","image-keyboard-response","138","315839","0.0-138.0","3PJ71Z61R5OTHAQ6UURBW89E8QP19S","A2ZDEERVRN5AMC","3UAU495MIIEABANG75FBFHDC9WUUOI","","","img/flower4.png","74","959.8999998569489","1","1","1","1,1,0,0,1,1,1,0,1",""
"null","","html-keyboard-response","139","316149","0.0-139.0","3PJ71Z61R5OTHAQ6UURBW89E8QP19S","A2ZDEERVRN5AMC","3UAU495MIIEABANG75FBFHDC9WUUOI","","","<img src=""img/flower4.png"" style=""width:200px; border:14px solid green;"">","null","","","","","",""
"744.7000000476837","","image-keyboard-response","140","316895","0.0-140.0","3PJ71Z61R5OTHAQ6UURBW89E8QP19S","A2ZDEERVRN5AMC","3UAU495MIIEABANG75FBFHDC9WUUOI","","","img/flower1.png","75","745.5","2","1","2","1,1,0,0,1,1,1,0,1",""
"null","","html-keyboard-response","141","317209","0.0-141.0","3PJ71Z61R5OTHAQ6UURBW89E8QP19S","A2ZDEERVRN5AMC","3UAU495MIIEABANG75FBFHDC9WUUOI","","","<img src=""img/flower1.png"" style=""width:200px; border:14px solid green;"">","null","","","","","",""
"1028","","image-keyboard-response","142","318239","0.0-142.0","3PJ71Z61R5OTHAQ6UURBW89E8QP19S","A2ZDEERVRN5AMC","3UAU495MIIEABANG75FBFHDC9WUUOI","","","img/flower1.png","76","1029.2999999523163","3","1","2","1,1,0,0,1,1,1,0,1",""
"null","","html-keyboard-response","143","318558","0.0-143.0","3PJ71Z61R5OTHAQ6UURBW89E8QP19S","A2ZDEERVRN5AMC","3UAU495MIIEABANG75FBFHDC9WUUOI","","","<img src=""img/flower1.png"" style=""width:200px; border:14px solid green;"">","null","","","","","",""
"902.9000000953674","","image-keyboard-response","144","319463","0.0-144.0","3PJ71Z61R5OTHAQ6UURBW89E8QP19S","A2ZDEERVRN5AMC","3UAU495MIIEABANG75FBFHDC9WUUOI","","","img/flower1.png","75","904.3999998569489","2","1","2","1,1,0,0,1,1,1,0,1",""
"null","","html-keyboard-response","145","319775","0.0-145.0","3PJ71Z61R5OTHAQ6UURBW89E8QP19S","A2ZDEERVRN5AMC","3UAU495MIIEABANG75FBFHDC9WUUOI","","","<img src=""img/flower1.png"" style=""width:200px; border:14px solid green;"">","null","","","","","",""
"750.1999998092651","","image-keyboard-response","146","320527","0.0-146.0","3PJ71Z61R5OTHAQ6UURBW89E8QP19S","A2ZDEERVRN5AMC","3UAU495MIIEABANG75FBFHDC9WUUOI","","","img/flower1.png","76","751.4000000953674","3","1","2","1,1,0,0,1,1,1,0,1",""
"null","","html-keyboard-response","147","320833","0.0-147.0","3PJ71Z61R5OTHAQ6UURBW89E8QP19S","A2ZDEERVRN5AMC","3UAU495MIIEABANG75FBFHDC9WUUOI","","","<img src=""img/flower1.png"" style=""width:200px; border:14px solid green;"">","null","","","","","",""
"860.2999999523163","","image-keyboard-response","148","321695","0.0-148.0","3PJ71Z61R5OTHAQ6UURBW89E8QP19S","A2ZDEERVRN5AMC","3UAU495MIIEABANG75FBFHDC9WUUOI","","","img/flower6.png","76","861.2000000476837","3","1","3","1,1,0,0,1,1,1,0,1",""
"null","","html-keyboard-response","149","322008","0.0-149.0","3PJ71Z61R5OTHAQ6UURBW89E8QP19S","A2ZDEERVRN5AMC","3UAU495MIIEABANG75FBFHDC9WUUOI","","","<img src=""img/flower6.png"" style=""width:200px; border:14px solid green;"">","null","","","","","",""
"797.5999999046326","","image-keyboard-response","150","322807","0.0-150.0","3PJ71Z61R5OTHAQ6UURBW89E8QP19S","A2ZDEERVRN5AMC","3UAU495MIIEABANG75FBFHDC9WUUOI","","","img/flower1.png","75","798.2999999523163","2","1","2","1,1,0,0,1,1,1,0,1",""
"null","","html-keyboard-response","151","323125","0.0-151.0","3PJ71Z61R5OTHAQ6UURBW89E8QP19S","A2ZDEERVRN5AMC","3UAU495MIIEABANG75FBFHDC9WUUOI","","","<img src=""img/flower1.png"" style=""width:200px; border:14px solid green;"">","null","","","","","",""
"816.4000000953674","","image-keyboard-response","152","323942","0.0-152.0","3PJ71Z61R5OTHAQ6UURBW89E8QP19S","A2ZDEERVRN5AMC","3UAU495MIIEABANG75FBFHDC9WUUOI","","","img/flower6.png","76","817.1000001430511","3","1","3","1,1,0,0,1,1,1,0,1",""
"null","","html-keyboard-response","153","324259","0.0-153.0","3PJ71Z61R5OTHAQ6UURBW89E8QP19S","A2ZDEERVRN5AMC","3UAU495MIIEABANG75FBFHDC9WUUOI","","","<img src=""img/flower6.png"" style=""width:200px; border:14px solid green;"">","null","","","","","",""
"609.8000001907349","","image-keyboard-response","154","324871","0.0-154.0","3PJ71Z61R5OTHAQ6UURBW89E8QP19S","A2ZDEERVRN5AMC","3UAU495MIIEABANG75FBFHDC9WUUOI","","","img/flower1.png","75","611.2000000476837","2","1","2","1,1,0,0,1,1,1,0,1",""
"null","","html-keyboard-response","155","325190","0.0-155.0","3PJ71Z61R5OTHAQ6UURBW89E8QP19S","A2ZDEERVRN5AMC","3UAU495MIIEABANG75FBFHDC9WUUOI","","","<img src=""img/flower1.png"" style=""width:200px; border:14px solid green;"">","null","","","","","",""
"1118.7999999523163","","image-keyboard-response","156","326311","0.0-156.0","3PJ71Z61R5OTHAQ6UURBW89E8QP19S","A2ZDEERVRN5AMC","3UAU495MIIEABANG75FBFHDC9WUUOI","","","img/flower6.png","76","1120.1999998092651","3","1","3","1,1,0,0,1,1,1,0,1",""
"null","","html-keyboard-response","157","326626","0.0-157.0","3PJ71Z61R5OTHAQ6UURBW89E8QP19S","A2ZDEERVRN5AMC","3UAU495MIIEABANG75FBFHDC9WUUOI","","","<img src=""img/flower6.png"" style=""width:200px; border:14px solid green;"">","null","","","","","",""
"1179.6999998092651","","image-keyboard-response","158","327806","0.0-158.0","3PJ71Z61R5OTHAQ6UURBW89E8QP19S","A2ZDEERVRN5AMC","3UAU495MIIEABANG75FBFHDC9WUUOI","","","img/flower1.png","74","1180.3999998569489","1","0","2","1,1,0,0,1,1,1,0,1",""
"null","","html-keyboard-response","159","328126","0.0-159.0","3PJ71Z61R5OTHAQ6UURBW89E8QP19S","A2ZDEERVRN5AMC","3UAU495MIIEABANG75FBFHDC9WUUOI","","","<img src=""img/flower1.png"" style=""width:200px;border:14px solid red;"">","null","","","","","",""
"504.2999999523163","","image-keyboard-response","160","328631","0.0-160.0","3PJ71Z61R5OTHAQ6UURBW89E8QP19S","A2ZDEERVRN5AMC","3UAU495MIIEABANG75FBFHDC9WUUOI","","","img/flower1.png","75","505.2000000476837","2","1","2","1,1,0,0,1,1,1,0,1",""
"null","","html-keyboard-response","161","328942","0.0-161.0","3PJ71Z61R5OTHAQ6UURBW89E8QP19S","A2ZDEERVRN5AMC","3UAU495MIIEABANG75FBFHDC9WUUOI","","","<img src=""img/flower1.png"" style=""width:200px; border:14px solid green;"">","null","","","","","",""
"735.9000000953674","","image-keyboard-response","162","329679","0.0-162.0","3PJ71Z61R5OTHAQ6UURBW89E8QP19S","A2ZDEERVRN5AMC","3UAU495MIIEABANG75FBFHDC9WUUOI","","","img/flower6.png","76","736.7999999523163","3","1","3","1,1,0,0,1,1,1,0,1",""
"null","","html-keyboard-response","163","329992","0.0-163.0","3PJ71Z61R5OTHAQ6UURBW89E8QP19S","A2ZDEERVRN5AMC","3UAU495MIIEABANG75FBFHDC9WUUOI","","","<img src=""img/flower6.png"" style=""width:200px; border:14px solid green;"">","null","","","","","",""
"508.7999999523163","","image-keyboard-response","164","330503","0.0-164.0","3PJ71Z61R5OTHAQ6UURBW89E8QP19S","A2ZDEERVRN5AMC","3UAU495MIIEABANG75FBFHDC9WUUOI","","","img/flower6.png","74","510","1","1","3","1,1,0,0,1,1,1,0,1",""
"null","","html-keyboard-response","165","330816","0.0-165.0","3PJ71Z61R5OTHAQ6UURBW89E8QP19S","A2ZDEERVRN5AMC","3UAU495MIIEABANG75FBFHDC9WUUOI","","","<img src=""img/flower6.png"" style=""width:200px; border:14px solid green;"">","null","","","","","",""
"805.7000000476837","","image-keyboard-response","166","331623","0.0-166.0","3PJ71Z61R5OTHAQ6UURBW89E8QP19S","A2ZDEERVRN5AMC","3UAU495MIIEABANG75FBFHDC9WUUOI","","","img/flower1.png","75","806.6000001430511","2","1","2","1,1,0,0,1,1,1,0,1",""
"null","","html-keyboard-response","167","331941","0.0-167.0","3PJ71Z61R5OTHAQ6UURBW89E8QP19S","A2ZDEERVRN5AMC","3UAU495MIIEABANG75FBFHDC9WUUOI","","","<img src=""img/flower1.png"" style=""width:200px; border:14px solid green;"">","null","","","","","",""
"1032.9000000953674","","image-keyboard-response","168","332975","0.0-168.0","3PJ71Z61R5OTHAQ6UURBW89E8QP19S","A2ZDEERVRN5AMC","3UAU495MIIEABANG75FBFHDC9WUUOI","","","img/flower4.png","74","1033.8000001907349","1","1","1","1,1,0,0,1,1,1,0,1",""
"null","","html-keyboard-response","169","333292","0.0-169.0","3PJ71Z61R5OTHAQ6UURBW89E8QP19S","A2ZDEERVRN5AMC","3UAU495MIIEABANG75FBFHDC9WUUOI","","","<img src=""img/flower4.png"" style=""width:200px; border:14px solid green;"">","null","","","","","",""
"897.6000001430511","","image-keyboard-response","170","334191","0.0-170.0","3PJ71Z61R5OTHAQ6UURBW89E8QP19S","A2ZDEERVRN5AMC","3UAU495MIIEABANG75FBFHDC9WUUOI","","","img/flower6.png","76","899","3","1","3","1,1,0,0,1,1,1,0,1",""
"null","","html-keyboard-response","171","334509","0.0-171.0","3PJ71Z61R5OTHAQ6UURBW89E8QP19S","A2ZDEERVRN5AMC","3UAU495MIIEABANG75FBFHDC9WUUOI","","","<img src=""img/flower6.png"" style=""width:200px; border:14px solid green;"">","null","","","","","",""
"776.2000000476837","","image-keyboard-response","172","335287","0.0-172.0","3PJ71Z61R5OTHAQ6UURBW89E8QP19S","A2ZDEERVRN5AMC","3UAU495MIIEABANG75FBFHDC9WUUOI","","","img/flower1.png","75","777.7000000476837","2","1","2","1,1,0,0,1,1,1,0,1",""
"null","","html-keyboard-response","173","335609","0.0-173.0","3PJ71Z61R5OTHAQ6UURBW89E8QP19S","A2ZDEERVRN5AMC","3UAU495MIIEABANG75FBFHDC9WUUOI","","","<img src=""img/flower1.png"" style=""width:200px; border:14px solid green;"">","null","","","","","",""
"460.09999990463257","","image-keyboard-response","174","336070","0.0-174.0","3PJ71Z61R5OTHAQ6UURBW89E8QP19S","A2ZDEERVRN5AMC","3UAU495MIIEABANG75FBFHDC9WUUOI","","","img/flower1.png","75","461.40000009536743","2","1","2","1,1,0,0,1,1,1,0,1",""
"null","","html-keyboard-response","175","336390","0.0-175.0","3PJ71Z61R5OTHAQ6UURBW89E8QP19S","A2ZDEERVRN5AMC","3UAU495MIIEABANG75FBFHDC9WUUOI","","","<img src=""img/flower1.png"" style=""width:200px; border:14px solid green;"">","null","","","","","",""
"702.7999999523163","","image-keyboard-response","176","337095","0.0-176.0","3PJ71Z61R5OTHAQ6UURBW89E8QP19S","A2ZDEERVRN5AMC","3UAU495MIIEABANG75FBFHDC9WUUOI","","","img/flower6.png","76","703.7000000476837","3","1","3","1,1,0,0,1,1,1,0,1",""
"null","","html-keyboard-response","177","337409","0.0-177.0","3PJ71Z61R5OTHAQ6UURBW89E8QP19S","A2ZDEERVRN5AMC","3UAU495MIIEABANG75FBFHDC9WUUOI","","","<img src=""img/flower6.png"" style=""width:200px; border:14px solid green;"">","null","","","","","",""
"666.7000000476837","","image-keyboard-response","178","338077","0.0-178.0","3PJ71Z61R5OTHAQ6UURBW89E8QP19S","A2ZDEERVRN5AMC","3UAU495MIIEABANG75FBFHDC9WUUOI","","","img/flower1.png","75","668","2","1","2","1,1,0,0,1,1,1,0,1",""
"null","","html-keyboard-response","179","338394","0.0-179.0","3PJ71Z61R5OTHAQ6UURBW89E8QP19S","A2ZDEERVRN5AMC","3UAU495MIIEABANG75FBFHDC9WUUOI","","","<img src=""img/flower1.png"" style=""width:200px; border:14px solid green;"">","null","","","","","",""
"659.1999998092651","","image-keyboard-response","180","339054","0.0-180.0","3PJ71Z61R5OTHAQ6UURBW89E8QP19S","A2ZDEERVRN5AMC","3UAU495MIIEABANG75FBFHDC9WUUOI","","","img/flower4.png","74","660.2999999523163","1","1","1","1,1,0,0,1,1,1,0,1",""
"null","","html-keyboard-response","181","339375","0.0-181.0","3PJ71Z61R5OTHAQ6UURBW89E8QP19S","A2ZDEERVRN5AMC","3UAU495MIIEABANG75FBFHDC9WUUOI","","","<img src=""img/flower4.png"" style=""width:200px; border:14px solid green;"">","null","","","","","",""
"893.5","","image-keyboard-response","182","340270","0.0-182.0","3PJ71Z61R5OTHAQ6UURBW89E8QP19S","A2ZDEERVRN5AMC","3UAU495MIIEABANG75FBFHDC9WUUOI","","","img/flower6.png","75","894.5","2","0","3","1,1,0,0,1,1,1,0,1",""
"null","","html-keyboard-response","183","340591","0.0-183.0","3PJ71Z61R5OTHAQ6UURBW89E8QP19S","A2ZDEERVRN5AMC","3UAU495MIIEABANG75FBFHDC9WUUOI","","","<img src=""img/flower6.png"" style=""width:200px;border:14px solid red;"">","null","","","","","",""
"878","","image-keyboard-response","184","341470","0.0-184.0","3PJ71Z61R5OTHAQ6UURBW89E8QP19S","A2ZDEERVRN5AMC","3UAU495MIIEABANG75FBFHDC9WUUOI","","","img/flower1.png","74","879.1000001430511","1","0","2","1,1,0,0,1,1,1,0,1",""
"null","","html-keyboard-response","185","341791","0.0-185.0","3PJ71Z61R5OTHAQ6UURBW89E8QP19S","A2ZDEERVRN5AMC","3UAU495MIIEABANG75FBFHDC9WUUOI","","","<img src=""img/flower1.png"" style=""width:200px;border:14px solid red;"">","null","","","","","",""
"1045.7999999523163","","image-keyboard-response","186","342838","0.0-186.0","3PJ71Z61R5OTHAQ6UURBW89E8QP19S","A2ZDEERVRN5AMC","3UAU495MIIEABANG75FBFHDC9WUUOI","","","img/flower4.png","75","1046.5","2","1","1","1,1,0,0,1,1,1,0,1",""
"null","","html-keyboard-response","187","343159","0.0-187.0","3PJ71Z61R5OTHAQ6UURBW89E8QP19S","A2ZDEERVRN5AMC","3UAU495MIIEABANG75FBFHDC9WUUOI","","","<img src=""img/flower4.png"" style=""width:200px; border:14px solid green;"">","null","","","","","",""
"662","","image-keyboard-response","188","343822","0.0-188.0","3PJ71Z61R5OTHAQ6UURBW89E8QP19S","A2ZDEERVRN5AMC","3UAU495MIIEABANG75FBFHDC9WUUOI","","","img/flower6.png","76","663.2999999523163","3","1","3","1,1,0,0,1,1,1,0,1",""
"null","","html-keyboard-response","189","344142","0.0-189.0","3PJ71Z61R5OTHAQ6UURBW89E8QP19S","A2ZDEERVRN5AMC","3UAU495MIIEABANG75FBFHDC9WUUOI","","","<img src=""img/flower6.png"" style=""width:200px; border:14px solid green;"">","null","","","","","",""
"391.10000014305115","","image-keyboard-response","190","344534","0.0-190.0","3PJ71Z61R5OTHAQ6UURBW89E8QP19S","A2ZDEERVRN5AMC","3UAU495MIIEABANG75FBFHDC9WUUOI","","","img/flower6.png","76","392.40000009536743","3","1","3","1,1,0,0,1,1,1,0,1",""
"null","","html-keyboard-response","191","344847","0.0-191.0","3PJ71Z61R5OTHAQ6UURBW89E8QP19S","A2ZDEERVRN5AMC","3UAU495MIIEABANG75FBFHDC9WUUOI","","","<img src=""img/flower6.png"" style=""width:200px; border:14px solid green;"">","null","","","","","",""
"846.0999999046326","","image-keyboard-response","192","345694","0.0-192.0","3PJ71Z61R5OTHAQ6UURBW89E8QP19S","A2ZDEERVRN5AMC","3UAU495MIIEABANG75FBFHDC9WUUOI","","","img/flower4.png","75","847.1999998092651","2","1","1","1,1,0,0,1,1,1,0,1",""
"null","","html-keyboard-response","193","346009","0.0-193.0","3PJ71Z61R5OTHAQ6UURBW89E8QP19S","A2ZDEERVRN5AMC","3UAU495MIIEABANG75FBFHDC9WUUOI","","","<img src=""img/flower4.png"" style=""width:200px; border:14px solid green;"">","null","","","","","",""
"420.09999990463257","","image-keyboard-response","194","346430","0.0-194.0","3PJ71Z61R5OTHAQ6UURBW89E8QP19S","A2ZDEERVRN5AMC","3UAU495MIIEABANG75FBFHDC9WUUOI","","","img/flower4.png","75","421.40000009536743","2","1","1","1,1,0,0,1,1,1,0,1",""
"null","","html-keyboard-response","195","346738","0.0-195.0","3PJ71Z61R5OTHAQ6UURBW89E8QP19S","A2ZDEERVRN5AMC","3UAU495MIIEABANG75FBFHDC9WUUOI","","","<img src=""img/flower4.png"" style=""width:200px; border:14px solid green;"">","null","","","","","",""
"786.8999998569489","","image-keyboard-response","196","347526","0.0-196.0","3PJ71Z61R5OTHAQ6UURBW89E8QP19S","A2ZDEERVRN5AMC","3UAU495MIIEABANG75FBFHDC9WUUOI","","","img/flower6.png","76","788.1000001430511","3","1","3","1,1,0,0,1,1,1,0,1",""
"null","","html-keyboard-response","197","347842","0.0-197.0","3PJ71Z61R5OTHAQ6UURBW89E8QP19S","A2ZDEERVRN5AMC","3UAU495MIIEABANG75FBFHDC9WUUOI","","","<img src=""img/flower6.png"" style=""width:200px; border:14px solid green;"">","null","","","","","",""
"1323.6000001430511","","image-keyboard-response","198","349166","0.0-198.0","3PJ71Z61R5OTHAQ6UURBW89E8QP19S","A2ZDEERVRN5AMC","3UAU495MIIEABANG75FBFHDC9WUUOI","","","img/flower1.png","75","1324.5999999046326","2","1","2","1,1,0,0,1,1,1,0,1",""
"null","","html-keyboard-response","199","349477","0.0-199.0","3PJ71Z61R5OTHAQ6UURBW89E8QP19S","A2ZDEERVRN5AMC","3UAU495MIIEABANG75FBFHDC9WUUOI","","","<img src=""img/flower1.png"" style=""width:200px; border:14px solid green;"">","null","","","","","",""
"727.4000000953674","","image-keyboard-response","200","350206","0.0-200.0","3PJ71Z61R5OTHAQ6UURBW89E8QP19S","A2ZDEERVRN5AMC","3UAU495MIIEABANG75FBFHDC9WUUOI","","","img/flower4.png","74","728.7000000476837","1","1","1","1,1,0,0,1,1,1,0,1",""
"null","","html-keyboard-response","201","350526","0.0-201.0","3PJ71Z61R5OTHAQ6UURBW89E8QP19S","A2ZDEERVRN5AMC","3UAU495MIIEABANG75FBFHDC9WUUOI","","","<img src=""img/flower4.png"" style=""width:200px; border:14px solid green;"">","null","","","","","",""
"382.5","","image-keyboard-response","202","350910","0.0-202.0","3PJ71Z61R5OTHAQ6UURBW89E8QP19S","A2ZDEERVRN5AMC","3UAU495MIIEABANG75FBFHDC9WUUOI","","","img/flower4.png","74","383.69999980926514","1","1","1","1,1,0,0,1,1,1,0,1",""
"null","","html-keyboard-response","203","351225","0.0-203.0","3PJ71Z61R5OTHAQ6UURBW89E8QP19S","A2ZDEERVRN5AMC","3UAU495MIIEABANG75FBFHDC9WUUOI","","","<img src=""img/flower4.png"" style=""width:200px; border:14px solid green;"">","null","","","","","",""
"563.4000000953674","","image-keyboard-response","204","351790","0.0-204.0","3PJ71Z61R5OTHAQ6UURBW89E8QP19S","A2ZDEERVRN5AMC","3UAU495MIIEABANG75FBFHDC9WUUOI","","","img/flower1.png","75","564.5999999046326","2","1","2","1,1,0,0,1,1,1,0,1",""
"null","","html-keyboard-response","205","352109","0.0-205.0","3PJ71Z61R5OTHAQ6UURBW89E8QP19S","A2ZDEERVRN5AMC","3UAU495MIIEABANG75FBFHDC9WUUOI","","","<img src=""img/flower1.png"" style=""width:200px; border:14px solid green;"">","null","","","","","",""
"591.5999999046326","","image-keyboard-response","206","352702","0.0-206.0","3PJ71Z61R5OTHAQ6UURBW89E8QP19S","A2ZDEERVRN5AMC","3UAU495MIIEABANG75FBFHDC9WUUOI","","","img/flower6.png","76","593.0999999046326","3","1","3","1,1,0,0,1,1,1,0,1",""
"null","","html-keyboard-response","207","353025","0.0-207.0","3PJ71Z61R5OTHAQ6UURBW89E8QP19S","A2ZDEERVRN5AMC","3UAU495MIIEABANG75FBFHDC9WUUOI","","","<img src=""img/flower6.png"" style=""width:200px; border:14px solid green;"">","null","","","","","",""
"643.5999999046326","","image-keyboard-response","208","353670","0.0-208.0","3PJ71Z61R5OTHAQ6UURBW89E8QP19S","A2ZDEERVRN5AMC","3UAU495MIIEABANG75FBFHDC9WUUOI","","","img/flower4.png","74","644.2999999523163","1","1","1","1,1,0,0,1,1,1,0,1",""
"null","","html-keyboard-response","209","353991","0.0-209.0","3PJ71Z61R5OTHAQ6UURBW89E8QP19S","A2ZDEERVRN5AMC","3UAU495MIIEABANG75FBFHDC9WUUOI","","","<img src=""img/flower4.png"" style=""width:200px; border:14px solid green;"">","null","","","","","",""
"709.9000000953674","","image-keyboard-response","210","354692","0.0-210.0","3PJ71Z61R5OTHAQ6UURBW89E8QP19S","A2ZDEERVRN5AMC","3UAU495MIIEABANG75FBFHDC9WUUOI","","","img/flower1.png","75","711.2000000476837","2","1","2","1,1,0,0,1,1,1,0,1",""
"null","","html-keyboard-response","211","354999","0.0-211.0","3PJ71Z61R5OTHAQ6UURBW89E8QP19S","A2ZDEERVRN5AMC","3UAU495MIIEABANG75FBFHDC9WUUOI","","","<img src=""img/flower1.png"" style=""width:200px; border:14px solid green;"">","null","","","","","",""
"883.1000001430511","","image-keyboard-response","212","355883","0.0-212.0","3PJ71Z61R5OTHAQ6UURBW89E8QP19S","A2ZDEERVRN5AMC","3UAU495MIIEABANG75FBFHDC9WUUOI","","","img/flower4.png","74","883.9000000953674","1","1","1","1,1,0,0,1,1,1,0,1",""
"null","","html-keyboard-response","213","356199","0.0-213.0","3PJ71Z61R5OTHAQ6UURBW89E8QP19S","A2ZDEERVRN5AMC","3UAU495MIIEABANG75FBFHDC9WUUOI","","","<img src=""img/flower4.png"" style=""width:200px; border:14px solid green;"">","null","","","","","",""
"939.2000000476837","","image-keyboard-response","214","357139","0.0-214.0","3PJ71Z61R5OTHAQ6UURBW89E8QP19S","A2ZDEERVRN5AMC","3UAU495MIIEABANG75FBFHDC9WUUOI","","","img/flower6.png","74","940.6000001430511","1","1","3","1,1,0,0,1,1,1,0,1",""
"null","","html-keyboard-response","215","357448","0.0-215.0","3PJ71Z61R5OTHAQ6UURBW89E8QP19S","A2ZDEERVRN5AMC","3UAU495MIIEABANG75FBFHDC9WUUOI","","","<img src=""img/flower6.png"" style=""width:200px; border:14px solid green;"">","null","","","","","",""
"825.7000000476837","","image-keyboard-response","216","358275","0.0-216.0","3PJ71Z61R5OTHAQ6UURBW89E8QP19S","A2ZDEERVRN5AMC","3UAU495MIIEABANG75FBFHDC9WUUOI","","","img/flower4.png","74","827.0999999046326","1","1","1","1,1,0,0,1,1,1,0,1",""
"null","","html-keyboard-response","217","358598","0.0-217.0","3PJ71Z61R5OTHAQ6UURBW89E8QP19S","A2ZDEERVRN5AMC","3UAU495MIIEABANG75FBFHDC9WUUOI","","","<img src=""img/flower4.png"" style=""width:200px; border:14px solid green;"">","null","","","","","",""
"556.1000001430511","","image-keyboard-response","218","359155","0.0-218.0","3PJ71Z61R5OTHAQ6UURBW89E8QP19S","A2ZDEERVRN5AMC","3UAU495MIIEABANG75FBFHDC9WUUOI","","","img/flower4.png","75","557.3999998569489","2","1","1","1,1,0,0,1,1,1,0,1",""
"null","","html-keyboard-response","219","359465","0.0-219.0","3PJ71Z61R5OTHAQ6UURBW89E8QP19S","A2ZDEERVRN5AMC","3UAU495MIIEABANG75FBFHDC9WUUOI","","","<img src=""img/flower4.png"" style=""width:200px; border:14px solid green;"">","null","","","","","",""
"721","","image-keyboard-response","220","360187","0.0-220.0","3PJ71Z61R5OTHAQ6UURBW89E8QP19S","A2ZDEERVRN5AMC","3UAU495MIIEABANG75FBFHDC9WUUOI","","","img/flower1.png","75","722.4000000953674","2","1","2","1,1,0,0,1,1,1,0,1",""
"null","","html-keyboard-response","221","360498","0.0-221.0","3PJ71Z61R5OTHAQ6UURBW89E8QP19S","A2ZDEERVRN5AMC","3UAU495MIIEABANG75FBFHDC9WUUOI","","","<img src=""img/flower1.png"" style=""width:200px; border:14px solid green;"">","null","","","","","",""
"1071.7000000476837","","image-keyboard-response","222","361572","0.0-222.0","3PJ71Z61R5OTHAQ6UURBW89E8QP19S","A2ZDEERVRN5AMC","3UAU495MIIEABANG75FBFHDC9WUUOI","","","img/flower4.png","74","1073.0999999046326","1","1","1","1,1,0,0,1,1,1,0,1",""
"null","","html-keyboard-response","223","361881","0.0-223.0","3PJ71Z61R5OTHAQ6UURBW89E8QP19S","A2ZDEERVRN5AMC","3UAU495MIIEABANG75FBFHDC9WUUOI","","","<img src=""img/flower4.png"" style=""width:200px; border:14px solid green;"">","null","","","","","",""
"984.2999999523163","","image-keyboard-response","224","362867","0.0-224.0","3PJ71Z61R5OTHAQ6UURBW89E8QP19S","A2ZDEERVRN5AMC","3UAU495MIIEABANG75FBFHDC9WUUOI","","","img/flower1.png","76","985.5999999046326","3","1","2","1,1,0,0,1,1,1,0,1",""
"null","","html-keyboard-response","225","363182","0.0-225.0","3PJ71Z61R5OTHAQ6UURBW89E8QP19S","A2ZDEERVRN5AMC","3UAU495MIIEABANG75FBFHDC9WUUOI","","","<img src=""img/flower1.png"" style=""width:200px; border:14px solid green;"">","null","","","","","",""
"412.5","","image-keyboard-response","226","363595","0.0-226.0","3PJ71Z61R5OTHAQ6UURBW89E8QP19S","A2ZDEERVRN5AMC","3UAU495MIIEABANG75FBFHDC9WUUOI","","","img/flower1.png","76","413.40000009536743","3","1","2","1,1,0,0,1,1,1,0,1",""
"null","","html-keyboard-response","227","363915","0.0-227.0","3PJ71Z61R5OTHAQ6UURBW89E8QP19S","A2ZDEERVRN5AMC","3UAU495MIIEABANG75FBFHDC9WUUOI","","","<img src=""img/flower1.png"" style=""width:200px; border:14px solid green;"">","null","","","","","",""
"1168.1000001430511","","image-keyboard-response","228","365084","0.0-228.0","3PJ71Z61R5OTHAQ6UURBW89E8QP19S","A2ZDEERVRN5AMC","3UAU495MIIEABANG75FBFHDC9WUUOI","","","img/flower4.png","75","1169.2000000476837","2","1","1","1,1,0,0,1,1,1,0,1",""
"null","","html-keyboard-response","229","365398","0.0-229.0","3PJ71Z61R5OTHAQ6UURBW89E8QP19S","A2ZDEERVRN5AMC","3UAU495MIIEABANG75FBFHDC9WUUOI","","","<img src=""img/flower4.png"" style=""width:200px; border:14px solid green;"">","null","","","","","",""
"818.8999998569489","","image-keyboard-response","230","366219","0.0-230.0","3PJ71Z61R5OTHAQ6UURBW89E8QP19S","A2ZDEERVRN5AMC","3UAU495MIIEABANG75FBFHDC9WUUOI","","","img/flower6.png","76","820.3000001907349","3","1","3","1,1,0,0,1,1,1,0,1",""
"null","","html-keyboard-response","231","366532","0.0-231.0","3PJ71Z61R5OTHAQ6UURBW89E8QP19S","A2ZDEERVRN5AMC","3UAU495MIIEABANG75FBFHDC9WUUOI","","","<img src=""img/flower6.png"" style=""width:200px; border:14px solid green;"">","null","","","","","",""
"349.40000009536743","","image-keyboard-response","232","366883","0.0-232.0","3PJ71Z61R5OTHAQ6UURBW89E8QP19S","A2ZDEERVRN5AMC","3UAU495MIIEABANG75FBFHDC9WUUOI","","","img/flower6.png","74","350.5","1","1","3","1,1,0,0,1,1,1,0,1",""
"null","","html-keyboard-response","233","367198","0.0-233.0","3PJ71Z61R5OTHAQ6UURBW89E8QP19S","A2ZDEERVRN5AMC","3UAU495MIIEABANG75FBFHDC9WUUOI","","","<img src=""img/flower6.png"" style=""width:200px; border:14px solid green;"">","null","","","","","",""
"731.5","","image-keyboard-response","234","367931","0.0-234.0","3PJ71Z61R5OTHAQ6UURBW89E8QP19S","A2ZDEERVRN5AMC","3UAU495MIIEABANG75FBFHDC9WUUOI","","","img/flower4.png","74","732.8000001907349","1","1","1","1,1,0,0,1,1,1,0,1",""
"null","","html-keyboard-response","235","368248","0.0-235.0","3PJ71Z61R5OTHAQ6UURBW89E8QP19S","A2ZDEERVRN5AMC","3UAU495MIIEABANG75FBFHDC9WUUOI","","","<img src=""img/flower4.png"" style=""width:200px; border:14px solid green;"">","null","","","","","",""
"737.2999999523163","","image-keyboard-response","236","368987","0.0-236.0","3PJ71Z61R5OTHAQ6UURBW89E8QP19S","A2ZDEERVRN5AMC","3UAU495MIIEABANG75FBFHDC9WUUOI","","","img/flower1.png","75","738.3999998569489","2","1","2","1,1,0,0,1,1,1,0,1",""
"null","","html-keyboard-response","237","369299","0.0-237.0","3PJ71Z61R5OTHAQ6UURBW89E8QP19S","A2ZDEERVRN5AMC","3UAU495MIIEABANG75FBFHDC9WUUOI","","","<img src=""img/flower1.png"" style=""width:200px; border:14px solid green;"">","null","","","","","",""
"870.4000000953674","","image-keyboard-response","238","370171","0.0-238.0","3PJ71Z61R5OTHAQ6UURBW89E8QP19S","A2ZDEERVRN5AMC","3UAU495MIIEABANG75FBFHDC9WUUOI","","","img/flower6.png","76","871.9000000953674","3","1","3","1,1,0,0,1,1,1,0,1",""
"null","","html-keyboard-response","239","370481","0.0-239.0","3PJ71Z61R5OTHAQ6UURBW89E8QP19S","A2ZDEERVRN5AMC","3UAU495MIIEABANG75FBFHDC9WUUOI","","","<img src=""img/flower6.png"" style=""width:200px; border:14px solid green;"">","null","","","","","",""
"720.5","","image-keyboard-response","240","371203","0.0-240.0","3PJ71Z61R5OTHAQ6UURBW89E8QP19S","A2ZDEERVRN5AMC","3UAU495MIIEABANG75FBFHDC9WUUOI","","","img/flower1.png","75","721.3000001907349","2","1","2","1,1,0,0,1,1,1,0,1",""
"null","","html-keyboard-response","241","371515","0.0-241.0","3PJ71Z61R5OTHAQ6UURBW89E8QP19S","A2ZDEERVRN5AMC","3UAU495MIIEABANG75FBFHDC9WUUOI","","","<img src=""img/flower1.png"" style=""width:200px; border:14px solid green;"">","null","","","","","",""
"750.2999999523163","","image-keyboard-response","242","372267","0.0-242.0","3PJ71Z61R5OTHAQ6UURBW89E8QP19S","A2ZDEERVRN5AMC","3UAU495MIIEABANG75FBFHDC9WUUOI","","","img/flower1.png","75","751.5999999046326","2","1","2","1,1,0,0,1,1,1,0,1",""
"null","","html-keyboard-response","243","372581","0.0-243.0","3PJ71Z61R5OTHAQ6UURBW89E8QP19S","A2ZDEERVRN5AMC","3UAU495MIIEABANG75FBFHDC9WUUOI","","","<img src=""img/flower1.png"" style=""width:200px; border:14px solid green;"">","null","","","","","",""
"932.0999999046326","","image-keyboard-response","244","373515","0.0-244.0","3PJ71Z61R5OTHAQ6UURBW89E8QP19S","A2ZDEERVRN5AMC","3UAU495MIIEABANG75FBFHDC9WUUOI","","","img/flower6.png","74","933.4000000953674","1","1","3","1,1,0,0,1,1,1,0,1",""
"null","","html-keyboard-response","245","373827","0.0-245.0","3PJ71Z61R5OTHAQ6UURBW89E8QP19S","A2ZDEERVRN5AMC","3UAU495MIIEABANG75FBFHDC9WUUOI","","","<img src=""img/flower6.png"" style=""width:200px; border:14px solid green;"">","null","","","","","",""
"375.2999999523163","","image-keyboard-response","246","374203","0.0-246.0","3PJ71Z61R5OTHAQ6UURBW89E8QP19S","A2ZDEERVRN5AMC","3UAU495MIIEABANG75FBFHDC9WUUOI","","","img/flower6.png","74","376.09999990463257","1","1","3","1,1,0,0,1,1,1,0,1",""
"null","","html-keyboard-response","247","374515","0.0-247.0","3PJ71Z61R5OTHAQ6UURBW89E8QP19S","A2ZDEERVRN5AMC","3UAU495MIIEABANG75FBFHDC9WUUOI","","","<img src=""img/flower6.png"" style=""width:200px; border:14px solid green;"">","null","","","","","",""
"373.90000009536743","","image-keyboard-response","248","374891","0.0-248.0","3PJ71Z61R5OTHAQ6UURBW89E8QP19S","A2ZDEERVRN5AMC","3UAU495MIIEABANG75FBFHDC9WUUOI","","","img/flower6.png","76","375.2000000476837","3","1","3","1,1,0,0,1,1,1,0,1",""
"null","","html-keyboard-response","249","375200","0.0-249.0","3PJ71Z61R5OTHAQ6UURBW89E8QP19S","A2ZDEERVRN5AMC","3UAU495MIIEABANG75FBFHDC9WUUOI","","","<img src=""img/flower6.png"" style=""width:200px; border:14px solid green;"">","null","","","","","",""
"945.7999999523163","","image-keyboard-response","250","376147","0.0-250.0","3PJ71Z61R5OTHAQ6UURBW89E8QP19S","A2ZDEERVRN5AMC","3UAU495MIIEABANG75FBFHDC9WUUOI","","","img/flower1.png","75","947.2000000476837","2","1","2","1,1,0,0,1,1,1,0,1",""
"null","","html-keyboard-response","251","376466","0.0-251.0","3PJ71Z61R5OTHAQ6UURBW89E8QP19S","A2ZDEERVRN5AMC","3UAU495MIIEABANG75FBFHDC9WUUOI","","","<img src=""img/flower1.png"" style=""width:200px; border:14px solid green;"">","null","","","","","",""
"911.7999999523163","","image-keyboard-response","252","377379","0.0-252.0","3PJ71Z61R5OTHAQ6UURBW89E8QP19S","A2ZDEERVRN5AMC","3UAU495MIIEABANG75FBFHDC9WUUOI","","","img/flower4.png","75","913","2","1","1","1,1,0,0,1,1,1,0,1",""
"null","","html-keyboard-response","253","377699","0.0-253.0","3PJ71Z61R5OTHAQ6UURBW89E8QP19S","A2ZDEERVRN5AMC","3UAU495MIIEABANG75FBFHDC9WUUOI","","","<img src=""img/flower4.png"" style=""width:200px; border:14px solid green;"">","null","","","","","",""
"710.2999999523163","","image-keyboard-response","254","378411","0.0-254.0","3PJ71Z61R5OTHAQ6UURBW89E8QP19S","A2ZDEERVRN5AMC","3UAU495MIIEABANG75FBFHDC9WUUOI","","","img/flower6.png","76","711.7999999523163","3","1","3","1,1,0,0,1,1,1,0,1",""
"null","","html-keyboard-response","255","378729","0.0-255.0","3PJ71Z61R5OTHAQ6UURBW89E8QP19S","A2ZDEERVRN5AMC","3UAU495MIIEABANG75FBFHDC9WUUOI","","","<img src=""img/flower6.png"" style=""width:200px; border:14px solid green;"">","null","","","","","",""
"552.5","","image-keyboard-response","256","379283","0.0-256.0","3PJ71Z61R5OTHAQ6UURBW89E8QP19S","A2ZDEERVRN5AMC","3UAU495MIIEABANG75FBFHDC9WUUOI","","","img/flower4.png","74","553.7000000476837","1","1","1","1,1,0,0,1,1,1,0,1",""
"null","","html-keyboard-response","257","379599","0.0-257.0","3PJ71Z61R5OTHAQ6UURBW89E8QP19S","A2ZDEERVRN5AMC","3UAU495MIIEABANG75FBFHDC9WUUOI","","","<img src=""img/flower4.png"" style=""width:200px; border:14px solid green;"">","null","","","","","",""
"690.6000001430511","","image-keyboard-response","258","380291","0.0-258.0","3PJ71Z61R5OTHAQ6UURBW89E8QP19S","A2ZDEERVRN5AMC","3UAU495MIIEABANG75FBFHDC9WUUOI","","","img/flower1.png","75","691.7000000476837","2","1","2","1,1,0,0,1,1,1,0,1",""
"null","","html-keyboard-response","259","380621","0.0-259.0","3PJ71Z61R5OTHAQ6UURBW89E8QP19S","A2ZDEERVRN5AMC","3UAU495MIIEABANG75FBFHDC9WUUOI","","","<img src=""img/flower1.png"" style=""width:200px; border:14px solid green;"">","null","","","","","",""
"717.2000000476837","","image-keyboard-response","260","381339","0.0-260.0","3PJ71Z61R5OTHAQ6UURBW89E8QP19S","A2ZDEERVRN5AMC","3UAU495MIIEABANG75FBFHDC9WUUOI","","","img/flower6.png","76","718","3","1","3","1,1,0,0,1,1,1,0,1",""
"null","","html-keyboard-response","261","381649","0.0-261.0","3PJ71Z61R5OTHAQ6UURBW89E8QP19S","A2ZDEERVRN5AMC","3UAU495MIIEABANG75FBFHDC9WUUOI","","","<img src=""img/flower6.png"" style=""width:200px; border:14px solid green;"">","null","","","","","",""
"840.4000000953674","","image-keyboard-response","262","382491","0.0-262.0","3PJ71Z61R5OTHAQ6UURBW89E8QP19S","A2ZDEERVRN5AMC","3UAU495MIIEABANG75FBFHDC9WUUOI","","","img/flower4.png","74","841.7999999523163","1","1","1","1,1,0,0,1,1,1,0,1",""
"null","","html-keyboard-response","263","382806","0.0-263.0","3PJ71Z61R5OTHAQ6UURBW89E8QP19S","A2ZDEERVRN5AMC","3UAU495MIIEABANG75FBFHDC9WUUOI","","","<img src=""img/flower4.png"" style=""width:200px; border:14px solid green;"">","null","","","","","",""
"667.8000001907349","","image-keyboard-response","264","383475","0.0-264.0","3PJ71Z61R5OTHAQ6UURBW89E8QP19S","A2ZDEERVRN5AMC","3UAU495MIIEABANG75FBFHDC9WUUOI","","","img/flower1.png","75","668.5","2","1","2","1,1,0,0,1,1,1,0,1",""
"null","","html-keyboard-response","265","383782","0.0-265.0","3PJ71Z61R5OTHAQ6UURBW89E8QP19S","A2ZDEERVRN5AMC","3UAU495MIIEABANG75FBFHDC9WUUOI","","","<img src=""img/flower1.png"" style=""width:200px; border:14px solid green;"">","null","","","","","",""
"619.4000000953674","","image-keyboard-response","266","384403","0.0-266.0","3PJ71Z61R5OTHAQ6UURBW89E8QP19S","A2ZDEERVRN5AMC","3UAU495MIIEABANG75FBFHDC9WUUOI","","","img/flower4.png","74","620.2999999523163","1","1","1","1,1,0,0,1,1,1,0,1",""
"null","","html-keyboard-response","267","384712","0.0-267.0","3PJ71Z61R5OTHAQ6UURBW89E8QP19S","A2ZDEERVRN5AMC","3UAU495MIIEABANG75FBFHDC9WUUOI","","","<img src=""img/flower4.png"" style=""width:200px; border:14px solid green;"">","null","","","","","",""
"792.8000001907349","","image-keyboard-response","268","385507","0.0-268.0","3PJ71Z61R5OTHAQ6UURBW89E8QP19S","A2ZDEERVRN5AMC","3UAU495MIIEABANG75FBFHDC9WUUOI","","","img/flower6.png","75","794","2","0","3","1,1,0,0,1,1,1,0,1",""
"null","","html-keyboard-response","269","385815","0.0-269.0","3PJ71Z61R5OTHAQ6UURBW89E8QP19S","A2ZDEERVRN5AMC","3UAU495MIIEABANG75FBFHDC9WUUOI","","","<img src=""img/flower6.png"" style=""width:200px;border:14px solid red;"">","null","","","","","",""
"754.9000000953674","","image-keyboard-response","270","386571","0.0-270.0","3PJ71Z61R5OTHAQ6UURBW89E8QP19S","A2ZDEERVRN5AMC","3UAU495MIIEABANG75FBFHDC9WUUOI","","","img/flower4.png","74","755.8000001907349","1","1","1","1,1,0,0,1,1,1,0,1",""
"null","","html-keyboard-response","271","386886","0.0-271.0","3PJ71Z61R5OTHAQ6UURBW89E8QP19S","A2ZDEERVRN5AMC","3UAU495MIIEABANG75FBFHDC9WUUOI","","","<img src=""img/flower4.png"" style=""width:200px; border:14px solid green;"">","null","","","","","",""
"683.5","","image-keyboard-response","272","387571","0.0-272.0","3PJ71Z61R5OTHAQ6UURBW89E8QP19S","A2ZDEERVRN5AMC","3UAU495MIIEABANG75FBFHDC9WUUOI","","","img/flower1.png","75","684.5","2","1","2","1,1,0,0,1,1,1,0,1",""
"null","","html-keyboard-response","273","387882","0.0-273.0","3PJ71Z61R5OTHAQ6UURBW89E8QP19S","A2ZDEERVRN5AMC","3UAU495MIIEABANG75FBFHDC9WUUOI","","","<img src=""img/flower1.png"" style=""width:200px; border:14px solid green;"">","null","","","","","",""
"631.7000000476837","","image-keyboard-response","274","388515","0.0-274.0","3PJ71Z61R5OTHAQ6UURBW89E8QP19S","A2ZDEERVRN5AMC","3UAU495MIIEABANG75FBFHDC9WUUOI","","","img/flower6.png","76","632.5","3","1","3","1,1,0,0,1,1,1,0,1",""
"null","","html-keyboard-response","275","388837","0.0-275.0","3PJ71Z61R5OTHAQ6UURBW89E8QP19S","A2ZDEERVRN5AMC","3UAU495MIIEABANG75FBFHDC9WUUOI","","","<img src=""img/flower6.png"" style=""width:200px; border:14px solid green;"">","null","","","","","",""
"676.7000000476837","","image-keyboard-response","276","389515","0.0-276.0","3PJ71Z61R5OTHAQ6UURBW89E8QP19S","A2ZDEERVRN5AMC","3UAU495MIIEABANG75FBFHDC9WUUOI","","","img/flower1.png","75","677.5999999046326","2","1","2","1,1,0,0,1,1,1,0,1",""
"null","","html-keyboard-response","277","389831","0.0-277.0","3PJ71Z61R5OTHAQ6UURBW89E8QP19S","A2ZDEERVRN5AMC","3UAU495MIIEABANG75FBFHDC9WUUOI","","","<img src=""img/flower1.png"" style=""width:200px; border:14px solid green;"">","null","","","","","",""
"474.2000000476837","","image-keyboard-response","278","390307","0.0-278.0","3PJ71Z61R5OTHAQ6UURBW89E8QP19S","A2ZDEERVRN5AMC","3UAU495MIIEABANG75FBFHDC9WUUOI","","","img/flower1.png","75","474.89999985694885","2","1","2","1,1,0,0,1,1,1,0,1",""
"null","","html-keyboard-response","279","390615","0.0-279.0","3PJ71Z61R5OTHAQ6UURBW89E8QP19S","A2ZDEERVRN5AMC","3UAU495MIIEABANG75FBFHDC9WUUOI","","","<img src=""img/flower1.png"" style=""width:200px; border:14px solid green;"">","null","","","","","",""
"682.0999999046326","","image-keyboard-response","280","391299","0.0-280.0","3PJ71Z61R5OTHAQ6UURBW89E8QP19S","A2ZDEERVRN5AMC","3UAU495MIIEABANG75FBFHDC9WUUOI","","","img/flower6.png","76","683.1999998092651","3","1","3","1,1,0,0,1,1,1,0,1",""
"null","","html-keyboard-response","281","391615","0.0-281.0","3PJ71Z61R5OTHAQ6UURBW89E8QP19S","A2ZDEERVRN5AMC","3UAU495MIIEABANG75FBFHDC9WUUOI","","","<img src=""img/flower6.png"" style=""width:200px; border:14px solid green;"">","null","","","","","",""
"698.5","","image-keyboard-response","282","392315","0.0-282.0","3PJ71Z61R5OTHAQ6UURBW89E8QP19S","A2ZDEERVRN5AMC","3UAU495MIIEABANG75FBFHDC9WUUOI","","","img/flower4.png","74","699.5","1","1","1","1,1,0,0,1,1,1,0,1",""
"null","","html-keyboard-response","283","392632","0.0-283.0","3PJ71Z61R5OTHAQ6UURBW89E8QP19S","A2ZDEERVRN5AMC","3UAU495MIIEABANG75FBFHDC9WUUOI","","","<img src=""img/flower4.png"" style=""width:200px; border:14px solid green;"">","null","","","","","",""
"377.10000014305115","","image-keyboard-response","284","393011","0.0-284.0","3PJ71Z61R5OTHAQ6UURBW89E8QP19S","A2ZDEERVRN5AMC","3UAU495MIIEABANG75FBFHDC9WUUOI","","","img/flower4.png","75","378.2000000476837","2","1","1","1,1,0,0,1,1,1,0,1",""
"null","","html-keyboard-response","285","393332","0.0-285.0","3PJ71Z61R5OTHAQ6UURBW89E8QP19S","A2ZDEERVRN5AMC","3UAU495MIIEABANG75FBFHDC9WUUOI","","","<img src=""img/flower4.png"" style=""width:200px; border:14px solid green;"">","null","","","","","",""
"516.9000000953674","","image-keyboard-response","286","393850","0.0-286.0","3PJ71Z61R5OTHAQ6UURBW89E8QP19S","A2ZDEERVRN5AMC","3UAU495MIIEABANG75FBFHDC9WUUOI","","","img/flower4.png","74","517.8999998569489","1","1","1","1,1,0,0,1,1,1,0,1",""
"null","","html-keyboard-response","287","394165","0.0-287.0","3PJ71Z61R5OTHAQ6UURBW89E8QP19S","A2ZDEERVRN5AMC","3UAU495MIIEABANG75FBFHDC9WUUOI","","","<img src=""img/flower4.png"" style=""width:200px; border:14px solid green;"">","null","","","","","",""
"675.9000000953674","","image-keyboard-response","288","394842","0.0-288.0","3PJ71Z61R5OTHAQ6UURBW89E8QP19S","A2ZDEERVRN5AMC","3UAU495MIIEABANG75FBFHDC9WUUOI","","","img/flower6.png","74","677","1","1","3","1,1,0,0,1,1,1,0,1",""
"null","","html-keyboard-response","289","395165","0.0-289.0","3PJ71Z61R5OTHAQ6UURBW89E8QP19S","A2ZDEERVRN5AMC","3UAU495MIIEABANG75FBFHDC9WUUOI","","","<img src=""img/flower6.png"" style=""width:200px; border:14px solid green;"">","null","","","","","",""
"524.3000001907349","","image-keyboard-response","290","395690","0.0-290.0","3PJ71Z61R5OTHAQ6UURBW89E8QP19S","A2ZDEERVRN5AMC","3UAU495MIIEABANG75FBFHDC9WUUOI","","","img/flower4.png","74","525.7000000476837","1","1","1","1,1,0,0,1,1,1,0,1",""
"null","","html-keyboard-response","291","395999","0.0-291.0","3PJ71Z61R5OTHAQ6UURBW89E8QP19S","A2ZDEERVRN5AMC","3UAU495MIIEABANG75FBFHDC9WUUOI","","","<img src=""img/flower4.png"" style=""width:200px; border:14px solid green;"">","null","","","","","",""
"458.09999990463257","","image-keyboard-response","292","396458","0.0-292.0","3PJ71Z61R5OTHAQ6UURBW89E8QP19S","A2ZDEERVRN5AMC","3UAU495MIIEABANG75FBFHDC9WUUOI","","","img/flower4.png","74","458.90000009536743","1","1","1","1,1,0,0,1,1,1,0,1",""
"null","","html-keyboard-response","293","396801","0.0-293.0","3PJ71Z61R5OTHAQ6UURBW89E8QP19S","A2ZDEERVRN5AMC","3UAU495MIIEABANG75FBFHDC9WUUOI","","","<img src=""img/flower4.png"" style=""width:200px; border:14px solid green;"">","null","","","","","",""
"889.0999999046326","","image-keyboard-response","294","397691","0.0-294.0","3PJ71Z61R5OTHAQ6UURBW89E8QP19S","A2ZDEERVRN5AMC","3UAU495MIIEABANG75FBFHDC9WUUOI","","","img/flower6.png","76","890","3","1","3","1,1,0,0,1,1,1,0,1",""
"null","","html-keyboard-response","295","397999","0.0-295.0","3PJ71Z61R5OTHAQ6UURBW89E8QP19S","A2ZDEERVRN5AMC","3UAU495MIIEABANG75FBFHDC9WUUOI","","","<img src=""img/flower6.png"" style=""width:200px; border:14px solid green;"">","null","","","","","",""
"394.10000014305115","","image-keyboard-response","296","398394","0.0-296.0","3PJ71Z61R5OTHAQ6UURBW89E8QP19S","A2ZDEERVRN5AMC","3UAU495MIIEABANG75FBFHDC9WUUOI","","","img/flower6.png","76","395.2000000476837","3","1","3","1,1,0,0,1,1,1,0,1",""
"null","","html-keyboard-response","297","398712","0.0-297.0","3PJ71Z61R5OTHAQ6UURBW89E8QP19S","A2ZDEERVRN5AMC","3UAU495MIIEABANG75FBFHDC9WUUOI","","","<img src=""img/flower6.png"" style=""width:200px; border:14px solid green;"">","null","","","","","",""
"360.90000009536743","","image-keyboard-response","298","399074","0.0-298.0","3PJ71Z61R5OTHAQ6UURBW89E8QP19S","A2ZDEERVRN5AMC","3UAU495MIIEABANG75FBFHDC9WUUOI","","","img/flower6.png","76","362","3","1","3","1,1,0,0,1,1,1,0,1",""
"null","","html-keyboard-response","299","399398","0.0-299.0","3PJ71Z61R5OTHAQ6UURBW89E8QP19S","A2ZDEERVRN5AMC","3UAU495MIIEABANG75FBFHDC9WUUOI","","","<img src=""img/flower6.png"" style=""width:200px; border:14px solid green;"">","null","","","","","",""
"554.1999998092651","","image-keyboard-response","300","399954","0.0-300.0","3PJ71Z61R5OTHAQ6UURBW89E8QP19S","A2ZDEERVRN5AMC","3UAU495MIIEABANG75FBFHDC9WUUOI","","","img/flower4.png","74","555.7000000476837","1","1","1","1,1,0,0,1,1,1,0,1",""
"null","","html-keyboard-response","301","400265","0.0-301.0","3PJ71Z61R5OTHAQ6UURBW89E8QP19S","A2ZDEERVRN5AMC","3UAU495MIIEABANG75FBFHDC9WUUOI","","","<img src=""img/flower4.png"" style=""width:200px; border:14px solid green;"">","null","","","","","",""
"727.4000000953674","","image-keyboard-response","302","400994","0.0-302.0","3PJ71Z61R5OTHAQ6UURBW89E8QP19S","A2ZDEERVRN5AMC","3UAU495MIIEABANG75FBFHDC9WUUOI","","","img/flower6.png","76","728.5999999046326","3","1","3","1,1,0,0,1,1,1,0,1",""
"null","","html-keyboard-response","303","401316","0.0-303.0","3PJ71Z61R5OTHAQ6UURBW89E8QP19S","A2ZDEERVRN5AMC","3UAU495MIIEABANG75FBFHDC9WUUOI","","","<img src=""img/flower6.png"" style=""width:200px; border:14px solid green;"">","null","","","","","",""
"853.8999998569489","","image-keyboard-response","304","402170","0.0-304.0","3PJ71Z61R5OTHAQ6UURBW89E8QP19S","A2ZDEERVRN5AMC","3UAU495MIIEABANG75FBFHDC9WUUOI","","","img/flower4.png","74","854.7000000476837","1","1","1","1,1,0,0,1,1,1,0,1",""
"null","","html-keyboard-response","305","402482","0.0-305.0","3PJ71Z61R5OTHAQ6UURBW89E8QP19S","A2ZDEERVRN5AMC","3UAU495MIIEABANG75FBFHDC9WUUOI","","","<img src=""img/flower4.png"" style=""width:200px; border:14px solid green;"">","null","","","","","",""
"","","html-keyboard-response","306","404784","0.0-306.0","3PJ71Z61R5OTHAQ6UURBW89E8QP19S","A2ZDEERVRN5AMC","3UAU495MIIEABANG75FBFHDC9WUUOI","","","","","","","","","",""
"1280.9000000953674","","image-keyboard-response","307","406066","0.0-307.0","3PJ71Z61R5OTHAQ6UURBW89E8QP19S","A2ZDEERVRN5AMC","3UAU495MIIEABANG75FBFHDC9WUUOI","","","img/flower5.png","74","1282.1000001430511","1","0","2","1,0.5,0.5,0.5,1,0.5,0.5,0.5,1",""
"null","","html-keyboard-response","308","406382","0.0-308.0","3PJ71Z61R5OTHAQ6UURBW89E8QP19S","A2ZDEERVRN5AMC","3UAU495MIIEABANG75FBFHDC9WUUOI","","","<img src=""img/flower5.png"" style=""width:200px;border:14px solid red;"">","null","","","","","",""
"1347.2000000476837","","image-keyboard-response","309","407730","0.0-309.0","3PJ71Z61R5OTHAQ6UURBW89E8QP19S","A2ZDEERVRN5AMC","3UAU495MIIEABANG75FBFHDC9WUUOI","","","img/flower3.png","74","1348.2000000476837","1","0","3","1,0.5,0.5,0.5,1,0.5,0.5,0.5,1",""
"null","","html-keyboard-response","310","408049","0.0-310.0","3PJ71Z61R5OTHAQ6UURBW89E8QP19S","A2ZDEERVRN5AMC","3UAU495MIIEABANG75FBFHDC9WUUOI","","","<img src=""img/flower3.png"" style=""width:200px;border:14px solid red;"">","null","","","","","",""
"959.7000000476837","","image-keyboard-response","311","409010","0.0-311.0","3PJ71Z61R5OTHAQ6UURBW89E8QP19S","A2ZDEERVRN5AMC","3UAU495MIIEABANG75FBFHDC9WUUOI","","","img/flower2.png","74","960.7000000476837","1","1","1","1,0.5,0.5,0.5,1,0.5,0.5,0.5,1",""
"null","","html-keyboard-response","312","409331","0.0-312.0","3PJ71Z61R5OTHAQ6UURBW89E8QP19S","A2ZDEERVRN5AMC","3UAU495MIIEABANG75FBFHDC9WUUOI","","","<img src=""img/flower2.png"" style=""width:200px; border:14px solid green;"">","null","","","","","",""
"749.4000000953674","","image-keyboard-response","313","410082","0.0-313.0","3PJ71Z61R5OTHAQ6UURBW89E8QP19S","A2ZDEERVRN5AMC","3UAU495MIIEABANG75FBFHDC9WUUOI","","","img/flower5.png","75","750.5","2","1","2","1,0.5,0.5,0.5,1,0.5,0.5,0.5,1",""
"null","","html-keyboard-response","314","410398","0.0-314.0","3PJ71Z61R5OTHAQ6UURBW89E8QP19S","A2ZDEERVRN5AMC","3UAU495MIIEABANG75FBFHDC9WUUOI","","","<img src=""img/flower5.png"" style=""width:200px; border:14px solid green;"">","null","","","","","",""
"857.2999999523163","","image-keyboard-response","315","411258","0.0-315.0","3PJ71Z61R5OTHAQ6UURBW89E8QP19S","A2ZDEERVRN5AMC","3UAU495MIIEABANG75FBFHDC9WUUOI","","","img/flower5.png","76","858.9000000953674","3","0","2","1,0.5,0.5,0.5,1,0.5,0.5,0.5,1",""
"null","","html-keyboard-response","316","411583","0.0-316.0","3PJ71Z61R5OTHAQ6UURBW89E8QP19S","A2ZDEERVRN5AMC","3UAU495MIIEABANG75FBFHDC9WUUOI","","","<img src=""img/flower5.png"" style=""width:200px;border:14px solid red;"">","null","","","","","",""
"578.2000000476837","","image-keyboard-response","317","412162","0.0-317.0","3PJ71Z61R5OTHAQ6UURBW89E8QP19S","A2ZDEERVRN5AMC","3UAU495MIIEABANG75FBFHDC9WUUOI","","","img/flower5.png","75","579.4000000953674","2","1","2","1,0.5,0.5,0.5,1,0.5,0.5,0.5,1",""
"null","","html-keyboard-response","318","412482","0.0-318.0","3PJ71Z61R5OTHAQ6UURBW89E8QP19S","A2ZDEERVRN5AMC","3UAU495MIIEABANG75FBFHDC9WUUOI","","","<img src=""img/flower5.png"" style=""width:200px; border:14px solid green;"">","null","","","","","",""
"342.69999980926514","","image-keyboard-response","319","412826","0.0-319.0","3PJ71Z61R5OTHAQ6UURBW89E8QP19S","A2ZDEERVRN5AMC","3UAU495MIIEABANG75FBFHDC9WUUOI","","","img/flower5.png","74","343.7000000476837","1","0","2","1,0.5,0.5,0.5,1,0.5,0.5,0.5,1",""
"null","","html-keyboard-response","320","413149","0.0-320.0","3PJ71Z61R5OTHAQ6UURBW89E8QP19S","A2ZDEERVRN5AMC","3UAU495MIIEABANG75FBFHDC9WUUOI","","","<img src=""img/flower5.png"" style=""width:200px;border:14px solid red;"">","null","","","","","",""
"259.60000014305115","","image-keyboard-response","321","413410","0.0-321.0","3PJ71Z61R5OTHAQ6UURBW89E8QP19S","A2ZDEERVRN5AMC","3UAU495MIIEABANG75FBFHDC9WUUOI","","","img/flower2.png","75","260.7999999523163","2","1","1","1,0.5,0.5,0.5,1,0.5,0.5,0.5,1",""
"null","","html-keyboard-response","322","413739","0.0-322.0","3PJ71Z61R5OTHAQ6UURBW89E8QP19S","A2ZDEERVRN5AMC","3UAU495MIIEABANG75FBFHDC9WUUOI","","","<img src=""img/flower2.png"" style=""width:200px; border:14px solid green;"">","null","","","","","",""
"901.8999998569489","","image-keyboard-response","323","414642","0.0-323.0","3PJ71Z61R5OTHAQ6UURBW89E8QP19S","A2ZDEERVRN5AMC","3UAU495MIIEABANG75FBFHDC9WUUOI","","","img/flower3.png","75","902.8999998569489","2","1","3","1,0.5,0.5,0.5,1,0.5,0.5,0.5,1",""
"null","","html-keyboard-response","324","414978","0.0-324.0","3PJ71Z61R5OTHAQ6UURBW89E8QP19S","A2ZDEERVRN5AMC","3UAU495MIIEABANG75FBFHDC9WUUOI","","","<img src=""img/flower3.png"" style=""width:200px; border:14px solid green;"">","null","","","","","",""
"491.2999999523163","","image-keyboard-response","325","415471","0.0-325.0","3PJ71Z61R5OTHAQ6UURBW89E8QP19S","A2ZDEERVRN5AMC","3UAU495MIIEABANG75FBFHDC9WUUOI","","","img/flower3.png","76","492.2999999523163","3","1","3","1,0.5,0.5,0.5,1,0.5,0.5,0.5,1",""
"null","","html-keyboard-response","326","415794","0.0-326.0","3PJ71Z61R5OTHAQ6UURBW89E8QP19S","A2ZDEERVRN5AMC","3UAU495MIIEABANG75FBFHDC9WUUOI","","","<img src=""img/flower3.png"" style=""width:200px; border:14px solid green;"">","null","","","","","",""
"307.10000014305115","","image-keyboard-response","327","416102","0.0-327.0","3PJ71Z61R5OTHAQ6UURBW89E8QP19S","A2ZDEERVRN5AMC","3UAU495MIIEABANG75FBFHDC9WUUOI","","","img/flower3.png","75","307.90000009536743","2","0","3","1,0.5,0.5,0.5,1,0.5,0.5,0.5,1",""
"null","","html-keyboard-response","328","416414","0.0-328.0","3PJ71Z61R5OTHAQ6UURBW89E8QP19S","A2ZDEERVRN5AMC","3UAU495MIIEABANG75FBFHDC9WUUOI","","","<img src=""img/flower3.png"" style=""width:200px;border:14px solid red;"">","null","","","","","",""
"1151.1000001430511","","image-keyboard-response","329","417567","0.0-329.0","3PJ71Z61R5OTHAQ6UURBW89E8QP19S","A2ZDEERVRN5AMC","3UAU495MIIEABANG75FBFHDC9WUUOI","","","img/flower2.png","76","1152.6999998092651","3","1","1","1,0.5,0.5,0.5,1,0.5,0.5,0.5,1",""
"null","","html-keyboard-response","330","417879","0.0-330.0","3PJ71Z61R5OTHAQ6UURBW89E8QP19S","A2ZDEERVRN5AMC","3UAU495MIIEABANG75FBFHDC9WUUOI","","","<img src=""img/flower2.png"" style=""width:200px; border:14px solid green;"">","null","","","","","",""
"807","","image-keyboard-response","331","418687","0.0-331.0","3PJ71Z61R5OTHAQ6UURBW89E8QP19S","A2ZDEERVRN5AMC","3UAU495MIIEABANG75FBFHDC9WUUOI","","","img/flower3.png","75","808","2","1","3","1,0.5,0.5,0.5,1,0.5,0.5,0.5,1",""
"null","","html-keyboard-response","332","418996","0.0-332.0","3PJ71Z61R5OTHAQ6UURBW89E8QP19S","A2ZDEERVRN5AMC","3UAU495MIIEABANG75FBFHDC9WUUOI","","","<img src=""img/flower3.png"" style=""width:200px; border:14px solid green;"">","null","","","","","",""
"865.1000001430511","","image-keyboard-response","333","419862","0.0-333.0","3PJ71Z61R5OTHAQ6UURBW89E8QP19S","A2ZDEERVRN5AMC","3UAU495MIIEABANG75FBFHDC9WUUOI","","","img/flower5.png","74","866.2999999523163","1","1","2","1,0.5,0.5,0.5,1,0.5,0.5,0.5,1",""
"null","","html-keyboard-response","334","420179","0.0-334.0","3PJ71Z61R5OTHAQ6UURBW89E8QP19S","A2ZDEERVRN5AMC","3UAU495MIIEABANG75FBFHDC9WUUOI","","","<img src=""img/flower5.png"" style=""width:200px; border:14px solid green;"">","null","","","","","",""
"490.59999990463257","","image-keyboard-response","335","420671","0.0-335.0","3PJ71Z61R5OTHAQ6UURBW89E8QP19S","A2ZDEERVRN5AMC","3UAU495MIIEABANG75FBFHDC9WUUOI","","","img/flower5.png","74","491.7999999523163","1","0","2","1,0.5,0.5,0.5,1,0.5,0.5,0.5,1",""
"null","","html-keyboard-response","336","420994","0.0-336.0","3PJ71Z61R5OTHAQ6UURBW89E8QP19S","A2ZDEERVRN5AMC","3UAU495MIIEABANG75FBFHDC9WUUOI","","","<img src=""img/flower5.png"" style=""width:200px;border:14px solid red;"">","null","","","","","",""
"715.5","","image-keyboard-response","337","421711","0.0-337.0","3PJ71Z61R5OTHAQ6UURBW89E8QP19S","A2ZDEERVRN5AMC","3UAU495MIIEABANG75FBFHDC9WUUOI","","","img/flower3.png","75","716.7999999523163","2","1","3","1,0.5,0.5,0.5,1,0.5,0.5,0.5,1",""
"null","","html-keyboard-response","338","422028","0.0-338.0","3PJ71Z61R5OTHAQ6UURBW89E8QP19S","A2ZDEERVRN5AMC","3UAU495MIIEABANG75FBFHDC9WUUOI","","","<img src=""img/flower3.png"" style=""width:200px; border:14px solid green;"">","null","","","","","",""
"697.2000000476837","","image-keyboard-response","339","422726","0.0-339.0","3PJ71Z61R5OTHAQ6UURBW89E8QP19S","A2ZDEERVRN5AMC","3UAU495MIIEABANG75FBFHDC9WUUOI","","","img/flower2.png","76","698.1000001430511","3","1","1","1,0.5,0.5,0.5,1,0.5,0.5,0.5,1",""
"null","","html-keyboard-response","340","423044","0.0-340.0","3PJ71Z61R5OTHAQ6UURBW89E8QP19S","A2ZDEERVRN5AMC","3UAU495MIIEABANG75FBFHDC9WUUOI","","","<img src=""img/flower2.png"" style=""width:200px; border:14px solid green;"">","null","","","","","",""
"1129.0999999046326","","image-keyboard-response","341","424174","0.0-341.0","3PJ71Z61R5OTHAQ6UURBW89E8QP19S","A2ZDEERVRN5AMC","3UAU495MIIEABANG75FBFHDC9WUUOI","","","img/flower3.png","75","1129.8999998569489","2","0","3","1,0.5,0.5,0.5,1,0.5,0.5,0.5,1",""
"null","","html-keyboard-response","342","424494","0.0-342.0","3PJ71Z61R5OTHAQ6UURBW89E8QP19S","A2ZDEERVRN5AMC","3UAU495MIIEABANG75FBFHDC9WUUOI","","","<img src=""img/flower3.png"" style=""width:200px;border:14px solid red;"">","null","","","","","",""
"1262.2999999523163","","image-keyboard-response","343","425758","0.0-343.0","3PJ71Z61R5OTHAQ6UURBW89E8QP19S","A2ZDEERVRN5AMC","3UAU495MIIEABANG75FBFHDC9WUUOI","","","img/flower2.png","74","1263.4000000953674","1","1","1","1,0.5,0.5,0.5,1,0.5,0.5,0.5,1",""
"null","","html-keyboard-response","344","426078","0.0-344.0","3PJ71Z61R5OTHAQ6UURBW89E8QP19S","A2ZDEERVRN5AMC","3UAU495MIIEABANG75FBFHDC9WUUOI","","","<img src=""img/flower2.png"" style=""width:200px; border:14px solid green;"">","null","","","","","",""
"1263.2000000476837","","image-keyboard-response","345","427342","0.0-345.0","3PJ71Z61R5OTHAQ6UURBW89E8QP19S","A2ZDEERVRN5AMC","3UAU495MIIEABANG75FBFHDC9WUUOI","","","img/flower5.png","75","1264.1000001430511","2","1","2","1,0.5,0.5,0.5,1,0.5,0.5,0.5,1",""
"null","","html-keyboard-response","346","427662","0.0-346.0","3PJ71Z61R5OTHAQ6UURBW89E8QP19S","A2ZDEERVRN5AMC","3UAU495MIIEABANG75FBFHDC9WUUOI","","","<img src=""img/flower5.png"" style=""width:200px; border:14px solid green;"">","null","","","","","",""
"455.30000019073486","","image-keyboard-response","347","428118","0.0-347.0","3PJ71Z61R5OTHAQ6UURBW89E8QP19S","A2ZDEERVRN5AMC","3UAU495MIIEABANG75FBFHDC9WUUOI","","","img/flower5.png","75","456.39999985694885","2","1","2","1,0.5,0.5,0.5,1,0.5,0.5,0.5,1",""
"null","","html-keyboard-response","348","428428","0.0-348.0","3PJ71Z61R5OTHAQ6UURBW89E8QP19S","A2ZDEERVRN5AMC","3UAU495MIIEABANG75FBFHDC9WUUOI","","","<img src=""img/flower5.png"" style=""width:200px; border:14px solid green;"">","null","","","","","",""
"721.4000000953674","","image-keyboard-response","349","429151","0.0-349.0","3PJ71Z61R5OTHAQ6UURBW89E8QP19S","A2ZDEERVRN5AMC","3UAU495MIIEABANG75FBFHDC9WUUOI","","","img/flower3.png","75","722.6000001430511","2","1","3","1,0.5,0.5,0.5,1,0.5,0.5,0.5,1",""
"null","","html-keyboard-response","350","429463","0.0-350.0","3PJ71Z61R5OTHAQ6UURBW89E8QP19S","A2ZDEERVRN5AMC","3UAU495MIIEABANG75FBFHDC9WUUOI","","","<img src=""img/flower3.png"" style=""width:200px; border:14px solid green;"">","null","","","","","",""
"733.7000000476837","","image-keyboard-response","351","430198","0.0-351.0","3PJ71Z61R5OTHAQ6UURBW89E8QP19S","A2ZDEERVRN5AMC","3UAU495MIIEABANG75FBFHDC9WUUOI","","","img/flower5.png","75","735","2","1","2","1,0.5,0.5,0.5,1,0.5,0.5,0.5,1",""
"null","","html-keyboard-response","352","430512","0.0-352.0","3PJ71Z61R5OTHAQ6UURBW89E8QP19S","A2ZDEERVRN5AMC","3UAU495MIIEABANG75FBFHDC9WUUOI","","","<img src=""img/flower5.png"" style=""width:200px; border:14px solid green;"">","null","","","","","",""
"1181.2000000476837","","image-keyboard-response","353","431694","0.0-353.0","3PJ71Z61R5OTHAQ6UURBW89E8QP19S","A2ZDEERVRN5AMC","3UAU495MIIEABANG75FBFHDC9WUUOI","","","img/flower3.png","75","1182.4000000953674","2","0","3","1,0.5,0.5,0.5,1,0.5,0.5,0.5,1",""
"null","","html-keyboard-response","354","431997","0.0-354.0","3PJ71Z61R5OTHAQ6UURBW89E8QP19S","A2ZDEERVRN5AMC","3UAU495MIIEABANG75FBFHDC9WUUOI","","","<img src=""img/flower3.png"" style=""width:200px;border:14px solid red;"">","null","","","","","",""
"1056","","image-keyboard-response","355","433054","0.0-355.0","3PJ71Z61R5OTHAQ6UURBW89E8QP19S","A2ZDEERVRN5AMC","3UAU495MIIEABANG75FBFHDC9WUUOI","","","img/flower5.png","74","1056.6999998092651","1","0","2","1,0.5,0.5,0.5,1,0.5,0.5,0.5,1",""
"null","","html-keyboard-response","356","433362","0.0-356.0","3PJ71Z61R5OTHAQ6UURBW89E8QP19S","A2ZDEERVRN5AMC","3UAU495MIIEABANG75FBFHDC9WUUOI","","","<img src=""img/flower5.png"" style=""width:200px;border:14px solid red;"">","null","","","","","",""
"1098.9000000953674","","image-keyboard-response","357","434462","0.0-357.0","3PJ71Z61R5OTHAQ6UURBW89E8QP19S","A2ZDEERVRN5AMC","3UAU495MIIEABANG75FBFHDC9WUUOI","","","img/flower2.png","74","1100","1","1","1","1,0.5,0.5,0.5,1,0.5,0.5,0.5,1",""
"null","","html-keyboard-response","358","434780","0.0-358.0","3PJ71Z61R5OTHAQ6UURBW89E8QP19S","A2ZDEERVRN5AMC","3UAU495MIIEABANG75FBFHDC9WUUOI","","","<img src=""img/flower2.png"" style=""width:200px; border:14px solid green;"">","null","","","","","",""
"529.2000000476837","","image-keyboard-response","359","435310","0.0-359.0","3PJ71Z61R5OTHAQ6UURBW89E8QP19S","A2ZDEERVRN5AMC","3UAU495MIIEABANG75FBFHDC9WUUOI","","","img/flower2.png","74","530.5999999046326","1","1","1","1,0.5,0.5,0.5,1,0.5,0.5,0.5,1",""
"null","","html-keyboard-response","360","435628","0.0-360.0","3PJ71Z61R5OTHAQ6UURBW89E8QP19S","A2ZDEERVRN5AMC","3UAU495MIIEABANG75FBFHDC9WUUOI","","","<img src=""img/flower2.png"" style=""width:200px; border:14px solid green;"">","null","","","","","",""
"1800.2999999523163","","image-keyboard-response","361","437430","0.0-361.0","3PJ71Z61R5OTHAQ6UURBW89E8QP19S","A2ZDEERVRN5AMC","3UAU495MIIEABANG75FBFHDC9WUUOI","","","img/flower3.png","75","1801.4000000953674","2","1","3","1,0.5,0.5,0.5,1,0.5,0.5,0.5,1",""
"null","","html-keyboard-response","362","437745","0.0-362.0","3PJ71Z61R5OTHAQ6UURBW89E8QP19S","A2ZDEERVRN5AMC","3UAU495MIIEABANG75FBFHDC9WUUOI","","","<img src=""img/flower3.png"" style=""width:200px; border:14px solid green;"">","null","","","","","",""
"387.7999999523163","","image-keyboard-response","363","438134","0.0-363.0","3PJ71Z61R5OTHAQ6UURBW89E8QP19S","A2ZDEERVRN5AMC","3UAU495MIIEABANG75FBFHDC9WUUOI","","","img/flower3.png","75","388.5","2","0","3","1,0.5,0.5,0.5,1,0.5,0.5,0.5,1",""
"null","","html-keyboard-response","364","438445","0.0-364.0","3PJ71Z61R5OTHAQ6UURBW89E8QP19S","A2ZDEERVRN5AMC","3UAU495MIIEABANG75FBFHDC9WUUOI","","","<img src=""img/flower3.png"" style=""width:200px;border:14px solid red;"">","null","","","","","",""
"736.2000000476837","","image-keyboard-response","365","439182","0.0-365.0","3PJ71Z61R5OTHAQ6UURBW89E8QP19S","A2ZDEERVRN5AMC","3UAU495MIIEABANG75FBFHDC9WUUOI","","","img/flower5.png","74","737.4000000953674","1","0","2","1,0.5,0.5,0.5,1,0.5,0.5,0.5,1",""
"null","","html-keyboard-response","366","439484","0.0-366.0","3PJ71Z61R5OTHAQ6UURBW89E8QP19S","A2ZDEERVRN5AMC","3UAU495MIIEABANG75FBFHDC9WUUOI","","","<img src=""img/flower5.png"" style=""width:200px;border:14px solid red;"">","null","","","","","",""
"425.30000019073486","","image-keyboard-response","367","439910","0.0-367.0","3PJ71Z61R5OTHAQ6UURBW89E8QP19S","A2ZDEERVRN5AMC","3UAU495MIIEABANG75FBFHDC9WUUOI","","","img/flower5.png","76","426.40000009536743","3","1","2","1,0.5,0.5,0.5,1,0.5,0.5,0.5,1",""
"null","","html-keyboard-response","368","440229","0.0-368.0","3PJ71Z61R5OTHAQ6UURBW89E8QP19S","A2ZDEERVRN5AMC","3UAU495MIIEABANG75FBFHDC9WUUOI","","","<img src=""img/flower5.png"" style=""width:200px; border:14px solid green;"">","null","","","","","",""
"1087.9000000953674","","image-keyboard-response","369","441318","0.0-369.0","3PJ71Z61R5OTHAQ6UURBW89E8QP19S","A2ZDEERVRN5AMC","3UAU495MIIEABANG75FBFHDC9WUUOI","","","img/flower3.png","76","1089.1999998092651","3","1","3","1,0.5,0.5,0.5,1,0.5,0.5,0.5,1",""
"null","","html-keyboard-response","370","441629","0.0-370.0","3PJ71Z61R5OTHAQ6UURBW89E8QP19S","A2ZDEERVRN5AMC","3UAU495MIIEABANG75FBFHDC9WUUOI","","","<img src=""img/flower3.png"" style=""width:200px; border:14px solid green;"">","null","","","","","",""
"895.9000000953674","","image-keyboard-response","371","442526","0.0-371.0","3PJ71Z61R5OTHAQ6UURBW89E8QP19S","A2ZDEERVRN5AMC","3UAU495MIIEABANG75FBFHDC9WUUOI","","","img/flower2.png","74","897.0999999046326","1","1","1","1,0.5,0.5,0.5,1,0.5,0.5,0.5,1",""
"null","","html-keyboard-response","372","442835","0.0-372.0","3PJ71Z61R5OTHAQ6UURBW89E8QP19S","A2ZDEERVRN5AMC","3UAU495MIIEABANG75FBFHDC9WUUOI","","","<img src=""img/flower2.png"" style=""width:200px; border:14px solid green;"">","null","","","","","",""
"978.0999999046326","","image-keyboard-response","373","443814","0.0-373.0","3PJ71Z61R5OTHAQ6UURBW89E8QP19S","A2ZDEERVRN5AMC","3UAU495MIIEABANG75FBFHDC9WUUOI","","","img/flower5.png","76","978.9000000953674","3","0","2","1,0.5,0.5,0.5,1,0.5,0.5,0.5,1",""
"null","","html-keyboard-response","374","444129","0.0-374.0","3PJ71Z61R5OTHAQ6UURBW89E8QP19S","A2ZDEERVRN5AMC","3UAU495MIIEABANG75FBFHDC9WUUOI","","","<img src=""img/flower5.png"" style=""width:200px;border:14px solid red;"">","null","","","","","",""
"683.7000000476837","","image-keyboard-response","375","444814","0.0-375.0","3PJ71Z61R5OTHAQ6UURBW89E8QP19S","A2ZDEERVRN5AMC","3UAU495MIIEABANG75FBFHDC9WUUOI","","","img/flower3.png","76","684.7999999523163","3","1","3","1,0.5,0.5,0.5,1,0.5,0.5,0.5,1",""
"null","","html-keyboard-response","376","445129","0.0-376.0","3PJ71Z61R5OTHAQ6UURBW89E8QP19S","A2ZDEERVRN5AMC","3UAU495MIIEABANG75FBFHDC9WUUOI","","","<img src=""img/flower3.png"" style=""width:200px; border:14px solid green;"">","null","","","","","",""
"692.1999998092651","","image-keyboard-response","377","445822","0.0-377.0","3PJ71Z61R5OTHAQ6UURBW89E8QP19S","A2ZDEERVRN5AMC","3UAU495MIIEABANG75FBFHDC9WUUOI","","","img/flower2.png","76","693","3","0","1","1,0.5,0.5,0.5,1,0.5,0.5,0.5,1",""
"null","","html-keyboard-response","378","446144","0.0-378.0","3PJ71Z61R5OTHAQ6UURBW89E8QP19S","A2ZDEERVRN5AMC","3UAU495MIIEABANG75FBFHDC9WUUOI","","","<img src=""img/flower2.png"" style=""width:200px;border:14px solid red;"">","null","","","","","",""
"652.1000001430511","","image-keyboard-response","379","446798","0.0-379.0","3PJ71Z61R5OTHAQ6UURBW89E8QP19S","A2ZDEERVRN5AMC","3UAU495MIIEABANG75FBFHDC9WUUOI","","","img/flower5.png","76","653.1000001430511","3","0","2","1,0.5,0.5,0.5,1,0.5,0.5,0.5,1",""
"null","","html-keyboard-response","380","447112","0.0-380.0","3PJ71Z61R5OTHAQ6UURBW89E8QP19S","A2ZDEERVRN5AMC","3UAU495MIIEABANG75FBFHDC9WUUOI","","","<img src=""img/flower5.png"" style=""width:200px;border:14px solid red;"">","null","","","","","",""
"388.89999985694885","","image-keyboard-response","381","447502","0.0-381.0","3PJ71Z61R5OTHAQ6UURBW89E8QP19S","A2ZDEERVRN5AMC","3UAU495MIIEABANG75FBFHDC9WUUOI","","","img/flower5.png","75","389.7999999523163","2","1","2","1,0.5,0.5,0.5,1,0.5,0.5,0.5,1",""
"null","","html-keyboard-response","382","447811","0.0-382.0","3PJ71Z61R5OTHAQ6UURBW89E8QP19S","A2ZDEERVRN5AMC","3UAU495MIIEABANG75FBFHDC9WUUOI","","","<img src=""img/flower5.png"" style=""width:200px; border:14px solid green;"">","null","","","","","",""
"721.2999999523163","","image-keyboard-response","383","448534","0.0-383.0","3PJ71Z61R5OTHAQ6UURBW89E8QP19S","A2ZDEERVRN5AMC","3UAU495MIIEABANG75FBFHDC9WUUOI","","","img/flower3.png","75","722.5","2","1","3","1,0.5,0.5,0.5,1,0.5,0.5,0.5,1",""
"null","","html-keyboard-response","384","448850","0.0-384.0","3PJ71Z61R5OTHAQ6UURBW89E8QP19S","A2ZDEERVRN5AMC","3UAU495MIIEABANG75FBFHDC9WUUOI","","","<img src=""img/flower3.png"" style=""width:200px; border:14px solid green;"">","null","","","","","",""
"1395.3999998569489","","image-keyboard-response","385","450247","0.0-385.0","3PJ71Z61R5OTHAQ6UURBW89E8QP19S","A2ZDEERVRN5AMC","3UAU495MIIEABANG75FBFHDC9WUUOI","","","img/flower2.png","74","1396.6000001430511","1","1","1","1,0.5,0.5,0.5,1,0.5,0.5,0.5,1",""
"null","","html-keyboard-response","386","450562","0.0-386.0","3PJ71Z61R5OTHAQ6UURBW89E8QP19S","A2ZDEERVRN5AMC","3UAU495MIIEABANG75FBFHDC9WUUOI","","","<img src=""img/flower2.png"" style=""width:200px; border:14px solid green;"">","null","","","","","",""
"970.2000000476837","","image-keyboard-response","387","451534","0.0-387.0","3PJ71Z61R5OTHAQ6UURBW89E8QP19S","A2ZDEERVRN5AMC","3UAU495MIIEABANG75FBFHDC9WUUOI","","","img/flower2.png","74","971.4000000953674","1","1","1","1,0.5,0.5,0.5,1,0.5,0.5,0.5,1",""
"null","","html-keyboard-response","388","451845","0.0-388.0","3PJ71Z61R5OTHAQ6UURBW89E8QP19S","A2ZDEERVRN5AMC","3UAU495MIIEABANG75FBFHDC9WUUOI","","","<img src=""img/flower2.png"" style=""width:200px; border:14px solid green;"">","null","","","","","",""
"1071.7999999523163","","image-keyboard-response","389","452918","0.0-389.0","3PJ71Z61R5OTHAQ6UURBW89E8QP19S","A2ZDEERVRN5AMC","3UAU495MIIEABANG75FBFHDC9WUUOI","","","img/flower5.png","75","1072.7999999523163","2","1","2","1,0.5,0.5,0.5,1,0.5,0.5,0.5,1",""
"null","","html-keyboard-response","390","453229","0.0-390.0","3PJ71Z61R5OTHAQ6UURBW89E8QP19S","A2ZDEERVRN5AMC","3UAU495MIIEABANG75FBFHDC9WUUOI","","","<img src=""img/flower5.png"" style=""width:200px; border:14px solid green;"">","null","","","","","",""
"1127.9000000953674","","image-keyboard-response","391","454358","0.0-391.0","3PJ71Z61R5OTHAQ6UURBW89E8QP19S","A2ZDEERVRN5AMC","3UAU495MIIEABANG75FBFHDC9WUUOI","","","img/flower2.png","74","1128.8000001907349","1","1","1","1,0.5,0.5,0.5,1,0.5,0.5,0.5,1",""
"null","","html-keyboard-response","392","454679","0.0-392.0","3PJ71Z61R5OTHAQ6UURBW89E8QP19S","A2ZDEERVRN5AMC","3UAU495MIIEABANG75FBFHDC9WUUOI","","","<img src=""img/flower2.png"" style=""width:200px; border:14px solid green;"">","null","","","","","",""
"341.59999990463257","","image-keyboard-response","393","455022","0.0-393.0","3PJ71Z61R5OTHAQ6UURBW89E8QP19S","A2ZDEERVRN5AMC","3UAU495MIIEABANG75FBFHDC9WUUOI","","","img/flower2.png","74","342.7999999523163","1","1","1","1,0.5,0.5,0.5,1,0.5,0.5,0.5,1",""
"null","","html-keyboard-response","394","455329","0.0-394.0","3PJ71Z61R5OTHAQ6UURBW89E8QP19S","A2ZDEERVRN5AMC","3UAU495MIIEABANG75FBFHDC9WUUOI","","","<img src=""img/flower2.png"" style=""width:200px; border:14px solid green;"">","null","","","","","",""
"331.2999999523163","","image-keyboard-response","395","455662","0.0-395.0","3PJ71Z61R5OTHAQ6UURBW89E8QP19S","A2ZDEERVRN5AMC","3UAU495MIIEABANG75FBFHDC9WUUOI","","","img/flower2.png","74","332.5","1","1","1","1,0.5,0.5,0.5,1,0.5,0.5,0.5,1",""
"null","","html-keyboard-response","396","455978","0.0-396.0","3PJ71Z61R5OTHAQ6UURBW89E8QP19S","A2ZDEERVRN5AMC","3UAU495MIIEABANG75FBFHDC9WUUOI","","","<img src=""img/flower2.png"" style=""width:200px; border:14px solid green;"">","null","","","","","",""
"714.2999999523163","","image-keyboard-response","397","456694","0.0-397.0","3PJ71Z61R5OTHAQ6UURBW89E8QP19S","A2ZDEERVRN5AMC","3UAU495MIIEABANG75FBFHDC9WUUOI","","","img/flower3.png","75","715.0999999046326","2","1","3","1,0.5,0.5,0.5,1,0.5,0.5,0.5,1",""
"null","","html-keyboard-response","398","457012","0.0-398.0","3PJ71Z61R5OTHAQ6UURBW89E8QP19S","A2ZDEERVRN5AMC","3UAU495MIIEABANG75FBFHDC9WUUOI","","","<img src=""img/flower3.png"" style=""width:200px; border:14px solid green;"">","null","","","","","",""
"1161.0999999046326","","image-keyboard-response","399","458174","0.0-399.0","3PJ71Z61R5OTHAQ6UURBW89E8QP19S","A2ZDEERVRN5AMC","3UAU495MIIEABANG75FBFHDC9WUUOI","","","img/flower5.png","75","1162.1000001430511","2","1","2","1,0.5,0.5,0.5,1,0.5,0.5,0.5,1",""
"null","","html-keyboard-response","400","458496","0.0-400.0","3PJ71Z61R5OTHAQ6UURBW89E8QP19S","A2ZDEERVRN5AMC","3UAU495MIIEABANG75FBFHDC9WUUOI","","","<img src=""img/flower5.png"" style=""width:200px; border:14px solid green;"">","null","","","","","",""
"1012.2000000476837","","image-keyboard-response","401","459510","0.0-401.0","3PJ71Z61R5OTHAQ6UURBW89E8QP19S","A2ZDEERVRN5AMC","3UAU495MIIEABANG75FBFHDC9WUUOI","","","img/flower2.png","74","1013.5999999046326","1","1","1","1,0.5,0.5,0.5,1,0.5,0.5,0.5,1",""
"null","","html-keyboard-response","402","459829","0.0-402.0","3PJ71Z61R5OTHAQ6UURBW89E8QP19S","A2ZDEERVRN5AMC","3UAU495MIIEABANG75FBFHDC9WUUOI","","","<img src=""img/flower2.png"" style=""width:200px; border:14px solid green;"">","null","","","","","",""
"808.3000001907349","","image-keyboard-response","403","460638","0.0-403.0","3PJ71Z61R5OTHAQ6UURBW89E8QP19S","A2ZDEERVRN5AMC","3UAU495MIIEABANG75FBFHDC9WUUOI","","","img/flower3.png","75","809.2000000476837","2","0","3","1,0.5,0.5,0.5,1,0.5,0.5,0.5,1",""
"null","","html-keyboard-response","404","460961","0.0-404.0","3PJ71Z61R5OTHAQ6UURBW89E8QP19S","A2ZDEERVRN5AMC","3UAU495MIIEABANG75FBFHDC9WUUOI","","","<img src=""img/flower3.png"" style=""width:200px;border:14px solid red;"">","null","","","","","",""
