"success","trial_type","trial_index","time_elapsed","internal_node_id","assignmentID","mturkID","hitID","view_history","rt","stimulus","key_press","reactionTime","a","r","s","cond","reward_cond","reward_cond_actual","reward_matrix_idx","responses"
"true","fullscreen","0","2231","0.0-0.0","3W8CV64QJ3L4LLBKWJUWOVPLS7Z9H0","A2ZL5GAZK6S0H1","3D1UCPY6GGVNRONHL4UEVMXCHLT38H","","","","","","","","","","","","",""
"","instructions","1","8624","0.0-1.0","3W8CV64QJ3L4LLBKWJUWOVPLS7Z9H0","A2ZL5GAZK6S0H1","3D1UCPY6GGVNRONHL4UEVMXCHLT38H","[{""page_index"":0,""viewing_time"":811.7999992370605},{""page_index"":1,""viewing_time"":853},{""page_index"":2,""viewing_time"":1083.3000001907349},{""page_index"":3,""viewing_time"":334.19999980926514},{""page_index"":4,""viewing_time"":1150.7000007629395},{""page_index"":5,""viewing_time"":734.6999998092651},{""page_index"":6,""viewing_time"":624.5},{""page_index"":7,""viewing_time"":788.6999998092651}]","6381.799999237061","","","","","","","","","","",""
"","image-keyboard-response","2","9506","0.0-2.0","3W8CV64QJ3L4LLBKWJUWOVPLS7Z9H0","A2ZL5GAZK6S0H1","3D1UCPY6GGVNRONHL4UEVMXCHLT38H","","855.5","img/flower1.png","74","872.5","1","0","1","2","1,0,0,1,1,0,1,0,1","0,1,0,0,1,1,1,1,0","3",""
"","html-keyboard-response","3","9822","0.0-3.0","3W8CV64QJ3L4LLBKWJUWOVPLS7Z9H0","A2ZL5GAZK6S0H1","3D1UCPY6GGVNRONHL4UEVMXCHLT38H","","null","<img src=""img/flower1.png"" style=""width:200px;border:14px solid red;"">","null","","","","","","","","",""
"","image-keyboard-response","4","10034","0.0-4.0","3W8CV64QJ3L4LLBKWJUWOVPLS7Z9H0","A2ZL5GAZK6S0H1","3D1UCPY6GGVNRONHL4UEVMXCHLT38H","","207.5999994277954","img/flower4.png","75","210.5","2","1","2","2","1,0,0,1,1,0,1,0,1","0,1,0,0,1,1,1,1,0","3",""
"","html-keyboard-response","5","10350","0.0-5.0","3W8CV64QJ3L4LLBKWJUWOVPLS7Z9H0","A2ZL5GAZK6S0H1","3D1UCPY6GGVNRONHL4UEVMXCHLT38H","","null","<img src=""img/flower4.png"" style=""width:200px; border:14px solid green;"">","null","","","","","","","","",""
"","image-keyboard-response","6","10599","0.0-6.0","3W8CV64QJ3L4LLBKWJUWOVPLS7Z9H0","A2ZL5GAZK6S0H1","3D1UCPY6GGVNRONHL4UEVMXCHLT38H","","239.29999923706055","img/flower1.png","75","247","2","1","1","2","1,0,0,1,1,0,1,0,1","0,1,0,0,1,1,1,1,0","3",""
"","html-keyboard-response","7","10912","0.0-7.0","3W8CV64QJ3L4LLBKWJUWOVPLS7Z9H0","A2ZL5GAZK6S0H1","3D1UCPY6GGVNRONHL4UEVMXCHLT38H","","null","<img src=""img/flower1.png"" style=""width:200px; border:14px solid green;"">","null","","","","","","","","",""
"","image-keyboard-response","8","11267","0.0-8.0","3W8CV64QJ3L4LLBKWJUWOVPLS7Z9H0","A2ZL5GAZK6S0H1","3D1UCPY6GGVNRONHL4UEVMXCHLT38H","","349.5999994277954","img/flower3.png","76","353.6000003814697","3","0","3","2","1,0,0,1,1,0,1,0,1","0,1,0,0,1,1,1,1,0","3",""
"","html-keyboard-response","9","11579","0.0-9.0","3W8CV64QJ3L4LLBKWJUWOVPLS7Z9H0","A2ZL5GAZK6S0H1","3D1UCPY6GGVNRONHL4UEVMXCHLT38H","","null","<img src=""img/flower3.png"" style=""width:200px;border:14px solid red;"">","null","","","","","","","","",""
"","image-keyboard-response","10","11848","0.0-10.0","3W8CV64QJ3L4LLBKWJUWOVPLS7Z9H0","A2ZL5GAZK6S0H1","3D1UCPY6GGVNRONHL4UEVMXCHLT38H","","262.5","img/flower1.png","75","269.19999980926514","2","1","1","2","1,0,0,1,1,0,1,0,1","0,1,0,0,1,1,1,1,0","3",""
"","html-keyboard-response","11","12165","0.0-11.0","3W8CV64QJ3L4LLBKWJUWOVPLS7Z9H0","A2ZL5GAZK6S0H1","3D1UCPY6GGVNRONHL4UEVMXCHLT38H","","null","<img src=""img/flower1.png"" style=""width:200px; border:14px solid green;"">","null","","","","","","","","",""
"","image-keyboard-response","12","12433","0.0-12.0","3W8CV64QJ3L4LLBKWJUWOVPLS7Z9H0","A2ZL5GAZK6S0H1","3D1UCPY6GGVNRONHL4UEVMXCHLT38H","","260.69999980926514","img/flower4.png","74","264.69999980926514","1","0","2","2","1,0,0,1,1,0,1,0,1","0,1,0,0,1,1,1,1,0","3",""
"","html-keyboard-response","13","12743","0.0-13.0","3W8CV64QJ3L4LLBKWJUWOVPLS7Z9H0","A2ZL5GAZK6S0H1","3D1UCPY6GGVNRONHL4UEVMXCHLT38H","","null","<img src=""img/flower4.png"" style=""width:200px;border:14px solid red;"">","null","","","","","","","","",""
"","image-keyboard-response","14","13045","0.0-14.0","3W8CV64QJ3L4LLBKWJUWOVPLS7Z9H0","A2ZL5GAZK6S0H1","3D1UCPY6GGVNRONHL4UEVMXCHLT38H","","293.8999996185303","img/flower3.png","75","301.30000019073486","2","1","3","2","1,0,0,1,1,0,1,0,1","0,1,0,0,1,1,1,1,0","3",""
"","html-keyboard-response","15","13365","0.0-15.0","3W8CV64QJ3L4LLBKWJUWOVPLS7Z9H0","A2ZL5GAZK6S0H1","3D1UCPY6GGVNRONHL4UEVMXCHLT38H","","null","<img src=""img/flower3.png"" style=""width:200px; border:14px solid green;"">","null","","","","","","","","",""
"","image-keyboard-response","16","13594","0.0-16.0","3W8CV64QJ3L4LLBKWJUWOVPLS7Z9H0","A2ZL5GAZK6S0H1","3D1UCPY6GGVNRONHL4UEVMXCHLT38H","","222","img/flower3.png","75","227","2","1","3","2","1,0,0,1,1,0,1,0,1","0,1,0,0,1,1,1,1,0","3",""
"","html-keyboard-response","17","13915","0.0-17.0","3W8CV64QJ3L4LLBKWJUWOVPLS7Z9H0","A2ZL5GAZK6S0H1","3D1UCPY6GGVNRONHL4UEVMXCHLT38H","","null","<img src=""img/flower3.png"" style=""width:200px; border:14px solid green;"">","null","","","","","","","","",""
"","image-keyboard-response","18","14133","0.0-18.0","3W8CV64QJ3L4LLBKWJUWOVPLS7Z9H0","A2ZL5GAZK6S0H1","3D1UCPY6GGVNRONHL4UEVMXCHLT38H","","208.5","img/flower3.png","76","213.10000038146973","3","0","3","2","1,0,0,1,1,0,1,0,1","0,1,0,0,1,1,1,1,0","3",""
"","html-keyboard-response","19","14450","0.0-19.0","3W8CV64QJ3L4LLBKWJUWOVPLS7Z9H0","A2ZL5GAZK6S0H1","3D1UCPY6GGVNRONHL4UEVMXCHLT38H","","null","<img src=""img/flower3.png"" style=""width:200px;border:14px solid red;"">","null","","","","","","","","",""
"","image-keyboard-response","20","14606","0.0-20.0","3W8CV64QJ3L4LLBKWJUWOVPLS7Z9H0","A2ZL5GAZK6S0H1","3D1UCPY6GGVNRONHL4UEVMXCHLT38H","","147.19999980926514","img/flower4.png","75","154.10000038146973","2","1","2","2","1,0,0,1,1,0,1,0,1","0,1,0,0,1,1,1,1,0","3",""
"","html-keyboard-response","21","14916","0.0-21.0","3W8CV64QJ3L4LLBKWJUWOVPLS7Z9H0","A2ZL5GAZK6S0H1","3D1UCPY6GGVNRONHL4UEVMXCHLT38H","","null","<img src=""img/flower4.png"" style=""width:200px; border:14px solid green;"">","null","","","","","","","","",""
"","image-keyboard-response","22","15156","0.0-22.0","3W8CV64QJ3L4LLBKWJUWOVPLS7Z9H0","A2ZL5GAZK6S0H1","3D1UCPY6GGVNRONHL4UEVMXCHLT38H","","234.0999994277954","img/flower4.png","74","240","1","0","2","2","1,0,0,1,1,0,1,0,1","0,1,0,0,1,1,1,1,0","3",""
"","html-keyboard-response","23","15464","0.0-23.0","3W8CV64QJ3L4LLBKWJUWOVPLS7Z9H0","A2ZL5GAZK6S0H1","3D1UCPY6GGVNRONHL4UEVMXCHLT38H","","null","<img src=""img/flower4.png"" style=""width:200px;border:14px solid red;"">","null","","","","","","","","",""
"","image-keyboard-response","24","15671","0.0-24.0","3W8CV64QJ3L4LLBKWJUWOVPLS7Z9H0","A2ZL5GAZK6S0H1","3D1UCPY6GGVNRONHL4UEVMXCHLT38H","","204.4000005722046","img/flower4.png","74","206.30000019073486","1","0","2","2","1,0,0,1,1,0,1,0,1","0,1,0,0,1,1,1,1,0","3",""
"","html-keyboard-response","25","15980","0.0-25.0","3W8CV64QJ3L4LLBKWJUWOVPLS7Z9H0","A2ZL5GAZK6S0H1","3D1UCPY6GGVNRONHL4UEVMXCHLT38H","","null","<img src=""img/flower4.png"" style=""width:200px;border:14px solid red;"">","null","","","","","","","","",""
"","image-keyboard-response","26","16112","0.0-26.0","3W8CV64QJ3L4LLBKWJUWOVPLS7Z9H0","A2ZL5GAZK6S0H1","3D1UCPY6GGVNRONHL4UEVMXCHLT38H","","125","img/flower1.png","76","129.80000019073486","3","0","1","2","1,0,0,1,1,0,1,0,1","0,1,0,0,1,1,1,1,0","3",""
"","html-keyboard-response","27","16420","0.0-27.0","3W8CV64QJ3L4LLBKWJUWOVPLS7Z9H0","A2ZL5GAZK6S0H1","3D1UCPY6GGVNRONHL4UEVMXCHLT38H","","null","<img src=""img/flower1.png"" style=""width:200px;border:14px solid red;"">","null","","","","","","","","",""
"","image-keyboard-response","28","16701","0.0-28.0","3W8CV64QJ3L4LLBKWJUWOVPLS7Z9H0","A2ZL5GAZK6S0H1","3D1UCPY6GGVNRONHL4UEVMXCHLT38H","","275.19999980926514","img/flower3.png","75","279.5","2","1","3","2","1,0,0,1,1,0,1,0,1","0,1,0,0,1,1,1,1,0","3",""
"","html-keyboard-response","29","17012","0.0-29.0","3W8CV64QJ3L4LLBKWJUWOVPLS7Z9H0","A2ZL5GAZK6S0H1","3D1UCPY6GGVNRONHL4UEVMXCHLT38H","","null","<img src=""img/flower3.png"" style=""width:200px; border:14px solid green;"">","null","","","","","","","","",""
"","image-keyboard-response","30","17148","0.0-30.0","3W8CV64QJ3L4LLBKWJUWOVPLS7Z9H0","A2ZL5GAZK6S0H1","3D1UCPY6GGVNRONHL4UEVMXCHLT38H","","126.5","img/flower3.png","75","135.29999923706055","2","1","3","2","1,0,0,1,1,0,1,0,1","0,1,0,0,1,1,1,1,0","3",""
"","html-keyboard-response","31","17465","0.0-31.0","3W8CV64QJ3L4LLBKWJUWOVPLS7Z9H0","A2ZL5GAZK6S0H1","3D1UCPY6GGVNRONHL4UEVMXCHLT38H","","null","<img src=""img/flower3.png"" style=""width:200px; border:14px solid green;"">","null","","","","","","","","",""
"","image-keyboard-response","32","17690","0.0-32.0","3W8CV64QJ3L4LLBKWJUWOVPLS7Z9H0","A2ZL5GAZK6S0H1","3D1UCPY6GGVNRONHL4UEVMXCHLT38H","","222.0999994277954","img/flower1.png","75","225","2","1","1","2","1,0,0,1,1,0,1,0,1","0,1,0,0,1,1,1,1,0","3",""
"","html-keyboard-response","33","17997","0.0-33.0","3W8CV64QJ3L4LLBKWJUWOVPLS7Z9H0","A2ZL5GAZK6S0H1","3D1UCPY6GGVNRONHL4UEVMXCHLT38H","","null","<img src=""img/flower1.png"" style=""width:200px; border:14px solid green;"">","null","","","","","","","","",""
"","image-keyboard-response","34","18193","0.0-34.0","3W8CV64QJ3L4LLBKWJUWOVPLS7Z9H0","A2ZL5GAZK6S0H1","3D1UCPY6GGVNRONHL4UEVMXCHLT38H","","189.4000005722046","img/flower3.png","74","194.9000005722046","1","1","3","2","1,0,0,1,1,0,1,0,1","0,1,0,0,1,1,1,1,0","3",""
"","html-keyboard-response","35","18502","0.0-35.0","3W8CV64QJ3L4LLBKWJUWOVPLS7Z9H0","A2ZL5GAZK6S0H1","3D1UCPY6GGVNRONHL4UEVMXCHLT38H","","null","<img src=""img/flower3.png"" style=""width:200px; border:14px solid green;"">","null","","","","","","","","",""
"","image-keyboard-response","36","18763","0.0-36.0","3W8CV64QJ3L4LLBKWJUWOVPLS7Z9H0","A2ZL5GAZK6S0H1","3D1UCPY6GGVNRONHL4UEVMXCHLT38H","","256.6000003814697","img/flower1.png","75","261.1000003814697","2","1","1","2","1,0,0,1,1,0,1,0,1","0,1,0,0,1,1,1,1,0","3",""
"","html-keyboard-response","37","19081","0.0-37.0","3W8CV64QJ3L4LLBKWJUWOVPLS7Z9H0","A2ZL5GAZK6S0H1","3D1UCPY6GGVNRONHL4UEVMXCHLT38H","","null","<img src=""img/flower1.png"" style=""width:200px; border:14px solid green;"">","null","","","","","","","","",""
"","image-keyboard-response","38","19194","0.0-38.0","3W8CV64QJ3L4LLBKWJUWOVPLS7Z9H0","A2ZL5GAZK6S0H1","3D1UCPY6GGVNRONHL4UEVMXCHLT38H","","105.89999961853027","img/flower1.png","74","111.19999980926514","1","0","1","2","1,0,0,1,1,0,1,0,1","0,1,0,0,1,1,1,1,0","3",""
"","html-keyboard-response","39","19512","0.0-39.0","3W8CV64QJ3L4LLBKWJUWOVPLS7Z9H0","A2ZL5GAZK6S0H1","3D1UCPY6GGVNRONHL4UEVMXCHLT38H","","null","<img src=""img/flower1.png"" style=""width:200px;border:14px solid red;"">","null","","","","","","","","",""
"","image-keyboard-response","40","19678","0.0-40.0","3W8CV64QJ3L4LLBKWJUWOVPLS7Z9H0","A2ZL5GAZK6S0H1","3D1UCPY6GGVNRONHL4UEVMXCHLT38H","","163.0999994277954","img/flower3.png","75","166.30000019073486","2","1","3","2","1,0,0,1,1,0,1,0,1","0,1,0,0,1,1,1,1,0","3",""
"","html-keyboard-response","41","20001","0.0-41.0","3W8CV64QJ3L4LLBKWJUWOVPLS7Z9H0","A2ZL5GAZK6S0H1","3D1UCPY6GGVNRONHL4UEVMXCHLT38H","","null","<img src=""img/flower3.png"" style=""width:200px; border:14px solid green;"">","null","","","","","","","","",""
"","image-keyboard-response","42","20145","0.0-42.0","3W8CV64QJ3L4LLBKWJUWOVPLS7Z9H0","A2ZL5GAZK6S0H1","3D1UCPY6GGVNRONHL4UEVMXCHLT38H","","137.30000019073486","img/flower1.png","76","143","3","0","1","2","1,0,0,1,1,0,1,0,1","0,1,0,0,1,1,1,1,0","3",""
"","html-keyboard-response","43","20467","0.0-43.0","3W8CV64QJ3L4LLBKWJUWOVPLS7Z9H0","A2ZL5GAZK6S0H1","3D1UCPY6GGVNRONHL4UEVMXCHLT38H","","null","<img src=""img/flower1.png"" style=""width:200px;border:14px solid red;"">","null","","","","","","","","",""
"","image-keyboard-response","44","20660","0.0-44.0","3W8CV64QJ3L4LLBKWJUWOVPLS7Z9H0","A2ZL5GAZK6S0H1","3D1UCPY6GGVNRONHL4UEVMXCHLT38H","","189.80000019073486","img/flower3.png","75","192.69999980926514","2","1","3","2","1,0,0,1,1,0,1,0,1","0,1,0,0,1,1,1,1,0","3",""
"","html-keyboard-response","45","20979","0.0-45.0","3W8CV64QJ3L4LLBKWJUWOVPLS7Z9H0","A2ZL5GAZK6S0H1","3D1UCPY6GGVNRONHL4UEVMXCHLT38H","","null","<img src=""img/flower3.png"" style=""width:200px; border:14px solid green;"">","null","","","","","","","","",""
"","image-keyboard-response","46","21138","0.0-46.0","3W8CV64QJ3L4LLBKWJUWOVPLS7Z9H0","A2ZL5GAZK6S0H1","3D1UCPY6GGVNRONHL4UEVMXCHLT38H","","155.60000038146973","img/flower4.png","74","158.5","1","0","2","2","1,0,0,1,1,0,1,0,1","0,1,0,0,1,1,1,1,0","3",""
"","html-keyboard-response","47","21443","0.0-47.0","3W8CV64QJ3L4LLBKWJUWOVPLS7Z9H0","A2ZL5GAZK6S0H1","3D1UCPY6GGVNRONHL4UEVMXCHLT38H","","null","<img src=""img/flower4.png"" style=""width:200px;border:14px solid red;"">","null","","","","","","","","",""
"","image-keyboard-response","48","21591","0.0-48.0","3W8CV64QJ3L4LLBKWJUWOVPLS7Z9H0","A2ZL5GAZK6S0H1","3D1UCPY6GGVNRONHL4UEVMXCHLT38H","","145.30000019073486","img/flower1.png","75","147.30000019073486","2","1","1","2","1,0,0,1,1,0,1,0,1","0,1,0,0,1,1,1,1,0","3",""
"","html-keyboard-response","49","21897","0.0-49.0","3W8CV64QJ3L4LLBKWJUWOVPLS7Z9H0","A2ZL5GAZK6S0H1","3D1UCPY6GGVNRONHL4UEVMXCHLT38H","","null","<img src=""img/flower1.png"" style=""width:200px; border:14px solid green;"">","null","","","","","","","","",""
"","image-keyboard-response","50","22023","0.0-50.0","3W8CV64QJ3L4LLBKWJUWOVPLS7Z9H0","A2ZL5GAZK6S0H1","3D1UCPY6GGVNRONHL4UEVMXCHLT38H","","118.5","img/flower1.png","76","124.40000057220459","3","0","1","2","1,0,0,1,1,0,1,0,1","0,1,0,0,1,1,1,1,0","3",""
"","html-keyboard-response","51","22344","0.0-51.0","3W8CV64QJ3L4LLBKWJUWOVPLS7Z9H0","A2ZL5GAZK6S0H1","3D1UCPY6GGVNRONHL4UEVMXCHLT38H","","null","<img src=""img/flower1.png"" style=""width:200px;border:14px solid red;"">","null","","","","","","","","",""
"","image-keyboard-response","52","22503","0.0-52.0","3W8CV64QJ3L4LLBKWJUWOVPLS7Z9H0","A2ZL5GAZK6S0H1","3D1UCPY6GGVNRONHL4UEVMXCHLT38H","","150.10000038146973","img/flower1.png","75","158.39999961853027","2","1","1","2","1,0,0,1,1,0,1,0,1","0,1,0,0,1,1,1,1,0","3",""
"","html-keyboard-response","53","22811","0.0-53.0","3W8CV64QJ3L4LLBKWJUWOVPLS7Z9H0","A2ZL5GAZK6S0H1","3D1UCPY6GGVNRONHL4UEVMXCHLT38H","","null","<img src=""img/flower1.png"" style=""width:200px; border:14px solid green;"">","null","","","","","","","","",""
"","image-keyboard-response","54","22946","0.0-54.0","3W8CV64QJ3L4LLBKWJUWOVPLS7Z9H0","A2ZL5GAZK6S0H1","3D1UCPY6GGVNRONHL4UEVMXCHLT38H","","127.09999942779541","img/flower4.png","75","133.80000019073486","2","1","2","2","1,0,0,1,1,0,1,0,1","0,1,0,0,1,1,1,1,0","3",""
"","html-keyboard-response","55","23262","0.0-55.0","3W8CV64QJ3L4LLBKWJUWOVPLS7Z9H0","A2ZL5GAZK6S0H1","3D1UCPY6GGVNRONHL4UEVMXCHLT38H","","null","<img src=""img/flower4.png"" style=""width:200px; border:14px solid green;"">","null","","","","","","","","",""
"","image-keyboard-response","56","23433","0.0-56.0","3W8CV64QJ3L4LLBKWJUWOVPLS7Z9H0","A2ZL5GAZK6S0H1","3D1UCPY6GGVNRONHL4UEVMXCHLT38H","","166.69999980926514","img/flower4.png","74","171","1","0","2","2","1,0,0,1,1,0,1,0,1","0,1,0,0,1,1,1,1,0","3",""
"","html-keyboard-response","57","23751","0.0-57.0","3W8CV64QJ3L4LLBKWJUWOVPLS7Z9H0","A2ZL5GAZK6S0H1","3D1UCPY6GGVNRONHL4UEVMXCHLT38H","","null","<img src=""img/flower4.png"" style=""width:200px;border:14px solid red;"">","null","","","","","","","","",""
"","image-keyboard-response","58","23879","0.0-58.0","3W8CV64QJ3L4LLBKWJUWOVPLS7Z9H0","A2ZL5GAZK6S0H1","3D1UCPY6GGVNRONHL4UEVMXCHLT38H","","125.39999961853027","img/flower3.png","75","127.60000038146973","2","1","3","2","1,0,0,1,1,0,1,0,1","0,1,0,0,1,1,1,1,0","3",""
"","html-keyboard-response","59","24195","0.0-59.0","3W8CV64QJ3L4LLBKWJUWOVPLS7Z9H0","A2ZL5GAZK6S0H1","3D1UCPY6GGVNRONHL4UEVMXCHLT38H","","null","<img src=""img/flower3.png"" style=""width:200px; border:14px solid green;"">","null","","","","","","","","",""
"","image-keyboard-response","60","24382","0.0-60.0","3W8CV64QJ3L4LLBKWJUWOVPLS7Z9H0","A2ZL5GAZK6S0H1","3D1UCPY6GGVNRONHL4UEVMXCHLT38H","","183.5","img/flower3.png","75","187","2","1","3","2","1,0,0,1,1,0,1,0,1","0,1,0,0,1,1,1,1,0","3",""
"","html-keyboard-response","61","24702","0.0-61.0","3W8CV64QJ3L4LLBKWJUWOVPLS7Z9H0","A2ZL5GAZK6S0H1","3D1UCPY6GGVNRONHL4UEVMXCHLT38H","","null","<img src=""img/flower3.png"" style=""width:200px; border:14px solid green;"">","null","","","","","","","","",""
"","image-keyboard-response","62","24886","0.0-62.0","3W8CV64QJ3L4LLBKWJUWOVPLS7Z9H0","A2ZL5GAZK6S0H1","3D1UCPY6GGVNRONHL4UEVMXCHLT38H","","175.5","img/flower3.png","76","183.30000019073486","3","0","3","2","1,0,0,1,1,0,1,0,1","0,1,0,0,1,1,1,1,0","3",""
"","html-keyboard-response","63","25192","0.0-63.0","3W8CV64QJ3L4LLBKWJUWOVPLS7Z9H0","A2ZL5GAZK6S0H1","3D1UCPY6GGVNRONHL4UEVMXCHLT38H","","null","<img src=""img/flower3.png"" style=""width:200px;border:14px solid red;"">","null","","","","","","","","",""
"","image-keyboard-response","64","25347","0.0-64.0","3W8CV64QJ3L4LLBKWJUWOVPLS7Z9H0","A2ZL5GAZK6S0H1","3D1UCPY6GGVNRONHL4UEVMXCHLT38H","","147.10000038146973","img/flower1.png","75","154","2","1","1","2","1,0,0,1,1,0,1,0,1","0,1,0,0,1,1,1,1,0","3",""
"","html-keyboard-response","65","25653","0.0-65.0","3W8CV64QJ3L4LLBKWJUWOVPLS7Z9H0","A2ZL5GAZK6S0H1","3D1UCPY6GGVNRONHL4UEVMXCHLT38H","","null","<img src=""img/flower1.png"" style=""width:200px; border:14px solid green;"">","null","","","","","","","","",""
"","image-keyboard-response","66","25847","0.0-66.0","3W8CV64QJ3L4LLBKWJUWOVPLS7Z9H0","A2ZL5GAZK6S0H1","3D1UCPY6GGVNRONHL4UEVMXCHLT38H","","187.80000019073486","img/flower4.png","75","194","2","1","2","2","1,0,0,1,1,0,1,0,1","0,1,0,0,1,1,1,1,0","3",""
"","html-keyboard-response","67","26155","0.0-67.0","3W8CV64QJ3L4LLBKWJUWOVPLS7Z9H0","A2ZL5GAZK6S0H1","3D1UCPY6GGVNRONHL4UEVMXCHLT38H","","null","<img src=""img/flower4.png"" style=""width:200px; border:14px solid green;"">","null","","","","","","","","",""
"","image-keyboard-response","68","26320","0.0-68.0","3W8CV64QJ3L4LLBKWJUWOVPLS7Z9H0","A2ZL5GAZK6S0H1","3D1UCPY6GGVNRONHL4UEVMXCHLT38H","","162.0999994277954","img/flower1.png","74","164.4000005722046","1","0","1","2","1,0,0,1,1,0,1,0,1","0,1,0,0,1,1,1,1,0","3",""
"","html-keyboard-response","69","26623","0.0-69.0","3W8CV64QJ3L4LLBKWJUWOVPLS7Z9H0","A2ZL5GAZK6S0H1","3D1UCPY6GGVNRONHL4UEVMXCHLT38H","","null","<img src=""img/flower1.png"" style=""width:200px;border:14px solid red;"">","null","","","","","","","","",""
"","image-keyboard-response","70","26792","0.0-70.0","3W8CV64QJ3L4LLBKWJUWOVPLS7Z9H0","A2ZL5GAZK6S0H1","3D1UCPY6GGVNRONHL4UEVMXCHLT38H","","165.89999961853027","img/flower3.png","75","168.5999994277954","2","1","3","2","1,0,0,1,1,0,1,0,1","0,1,0,0,1,1,1,1,0","3",""
"","html-keyboard-response","71","27097","0.0-71.0","3W8CV64QJ3L4LLBKWJUWOVPLS7Z9H0","A2ZL5GAZK6S0H1","3D1UCPY6GGVNRONHL4UEVMXCHLT38H","","null","<img src=""img/flower3.png"" style=""width:200px; border:14px solid green;"">","null","","","","","","","","",""
"","image-keyboard-response","72","27255","0.0-72.0","3W8CV64QJ3L4LLBKWJUWOVPLS7Z9H0","A2ZL5GAZK6S0H1","3D1UCPY6GGVNRONHL4UEVMXCHLT38H","","153.5","img/flower4.png","75","158.0999994277954","2","1","2","2","1,0,0,1,1,0,1,0,1","0,1,0,0,1,1,1,1,0","3",""
"","html-keyboard-response","73","27564","0.0-73.0","3W8CV64QJ3L4LLBKWJUWOVPLS7Z9H0","A2ZL5GAZK6S0H1","3D1UCPY6GGVNRONHL4UEVMXCHLT38H","","null","<img src=""img/flower4.png"" style=""width:200px; border:14px solid green;"">","null","","","","","","","","",""
"","image-keyboard-response","74","27750","0.0-74.0","3W8CV64QJ3L4LLBKWJUWOVPLS7Z9H0","A2ZL5GAZK6S0H1","3D1UCPY6GGVNRONHL4UEVMXCHLT38H","","182.5","img/flower1.png","75","185.60000038146973","2","1","1","2","1,0,0,1,1,0,1,0,1","0,1,0,0,1,1,1,1,0","3",""
"","html-keyboard-response","75","28055","0.0-75.0","3W8CV64QJ3L4LLBKWJUWOVPLS7Z9H0","A2ZL5GAZK6S0H1","3D1UCPY6GGVNRONHL4UEVMXCHLT38H","","null","<img src=""img/flower1.png"" style=""width:200px; border:14px solid green;"">","null","","","","","","","","",""
"","image-keyboard-response","76","28202","0.0-76.0","3W8CV64QJ3L4LLBKWJUWOVPLS7Z9H0","A2ZL5GAZK6S0H1","3D1UCPY6GGVNRONHL4UEVMXCHLT38H","","144.60000038146973","img/flower4.png","76","146.4000005722046","3","1","2","2","1,0,0,1,1,0,1,0,1","0,1,0,0,1,1,1,1,0","3",""
"","html-keyboard-response","77","28508","0.0-77.0","3W8CV64QJ3L4LLBKWJUWOVPLS7Z9H0","A2ZL5GAZK6S0H1","3D1UCPY6GGVNRONHL4UEVMXCHLT38H","","null","<img src=""img/flower4.png"" style=""width:200px; border:14px solid green;"">","null","","","","","","","","",""
"","image-keyboard-response","78","28750","0.0-78.0","3W8CV64QJ3L4LLBKWJUWOVPLS7Z9H0","A2ZL5GAZK6S0H1","3D1UCPY6GGVNRONHL4UEVMXCHLT38H","","237.10000038146973","img/flower3.png","76","241.5","3","0","3","2","1,0,0,1,1,0,1,0,1","0,1,0,0,1,1,1,1,0","3",""
"","html-keyboard-response","79","29055","0.0-79.0","3W8CV64QJ3L4LLBKWJUWOVPLS7Z9H0","A2ZL5GAZK6S0H1","3D1UCPY6GGVNRONHL4UEVMXCHLT38H","","null","<img src=""img/flower3.png"" style=""width:200px;border:14px solid red;"">","null","","","","","","","","",""
"","image-keyboard-response","80","29147","0.0-80.0","3W8CV64QJ3L4LLBKWJUWOVPLS7Z9H0","A2ZL5GAZK6S0H1","3D1UCPY6GGVNRONHL4UEVMXCHLT38H","","85.5","img/flower4.png","75","90.90000057220459","2","1","2","2","1,0,0,1,1,0,1,0,1","0,1,0,0,1,1,1,1,0","3",""
"","html-keyboard-response","81","29454","0.0-81.0","3W8CV64QJ3L4LLBKWJUWOVPLS7Z9H0","A2ZL5GAZK6S0H1","3D1UCPY6GGVNRONHL4UEVMXCHLT38H","","null","<img src=""img/flower4.png"" style=""width:200px; border:14px solid green;"">","null","","","","","","","","",""
"","image-keyboard-response","82","29632","0.0-82.0","3W8CV64QJ3L4LLBKWJUWOVPLS7Z9H0","A2ZL5GAZK6S0H1","3D1UCPY6GGVNRONHL4UEVMXCHLT38H","","171.19999980926514","img/flower3.png","74","176.5999994277954","1","1","3","2","1,0,0,1,1,0,1,0,1","0,1,0,0,1,1,1,1,0","3",""
"","html-keyboard-response","83","29939","0.0-83.0","3W8CV64QJ3L4LLBKWJUWOVPLS7Z9H0","A2ZL5GAZK6S0H1","3D1UCPY6GGVNRONHL4UEVMXCHLT38H","","null","<img src=""img/flower3.png"" style=""width:200px; border:14px solid green;"">","null","","","","","","","","",""
"","image-keyboard-response","84","30114","0.0-84.0","3W8CV64QJ3L4LLBKWJUWOVPLS7Z9H0","A2ZL5GAZK6S0H1","3D1UCPY6GGVNRONHL4UEVMXCHLT38H","","172.20000076293945","img/flower3.png","75","175.29999923706055","2","1","3","2","1,0,0,1,1,0,1,0,1","0,1,0,0,1,1,1,1,0","3",""
"","html-keyboard-response","85","30420","0.0-85.0","3W8CV64QJ3L4LLBKWJUWOVPLS7Z9H0","A2ZL5GAZK6S0H1","3D1UCPY6GGVNRONHL4UEVMXCHLT38H","","null","<img src=""img/flower3.png"" style=""width:200px; border:14px solid green;"">","null","","","","","","","","",""
"","image-keyboard-response","86","30598","0.0-86.0","3W8CV64QJ3L4LLBKWJUWOVPLS7Z9H0","A2ZL5GAZK6S0H1","3D1UCPY6GGVNRONHL4UEVMXCHLT38H","","170.9000005722046","img/flower1.png","74","176.9000005722046","1","0","1","2","1,0,0,1,1,0,1,0,1","0,1,0,0,1,1,1,1,0","3",""
"","html-keyboard-response","87","30906","0.0-87.0","3W8CV64QJ3L4LLBKWJUWOVPLS7Z9H0","A2ZL5GAZK6S0H1","3D1UCPY6GGVNRONHL4UEVMXCHLT38H","","null","<img src=""img/flower1.png"" style=""width:200px;border:14px solid red;"">","null","","","","","","","","",""
"","image-keyboard-response","88","31054","0.0-88.0","3W8CV64QJ3L4LLBKWJUWOVPLS7Z9H0","A2ZL5GAZK6S0H1","3D1UCPY6GGVNRONHL4UEVMXCHLT38H","","143.0999994277954","img/flower4.png","75","147.20000076293945","2","1","2","2","1,0,0,1,1,0,1,0,1","0,1,0,0,1,1,1,1,0","3",""
"","html-keyboard-response","89","31358","0.0-89.0","3W8CV64QJ3L4LLBKWJUWOVPLS7Z9H0","A2ZL5GAZK6S0H1","3D1UCPY6GGVNRONHL4UEVMXCHLT38H","","null","<img src=""img/flower4.png"" style=""width:200px; border:14px solid green;"">","null","","","","","","","","",""
"","image-keyboard-response","90","31502","0.0-90.0","3W8CV64QJ3L4LLBKWJUWOVPLS7Z9H0","A2ZL5GAZK6S0H1","3D1UCPY6GGVNRONHL4UEVMXCHLT38H","","140.60000038146973","img/flower1.png","76","143.79999923706055","3","0","1","2","1,0,0,1,1,0,1,0,1","0,1,0,0,1,1,1,1,0","3",""
"","html-keyboard-response","91","31808","0.0-91.0","3W8CV64QJ3L4LLBKWJUWOVPLS7Z9H0","A2ZL5GAZK6S0H1","3D1UCPY6GGVNRONHL4UEVMXCHLT38H","","null","<img src=""img/flower1.png"" style=""width:200px;border:14px solid red;"">","null","","","","","","","","",""
"","image-keyboard-response","92","31944","0.0-92.0","3W8CV64QJ3L4LLBKWJUWOVPLS7Z9H0","A2ZL5GAZK6S0H1","3D1UCPY6GGVNRONHL4UEVMXCHLT38H","","130.5","img/flower3.png","75","134.89999961853027","2","1","3","2","1,0,0,1,1,0,1,0,1","0,1,0,0,1,1,1,1,0","3",""
"","html-keyboard-response","93","32252","0.0-93.0","3W8CV64QJ3L4LLBKWJUWOVPLS7Z9H0","A2ZL5GAZK6S0H1","3D1UCPY6GGVNRONHL4UEVMXCHLT38H","","null","<img src=""img/flower3.png"" style=""width:200px; border:14px solid green;"">","null","","","","","","","","",""
"","image-keyboard-response","94","32425","0.0-94.0","3W8CV64QJ3L4LLBKWJUWOVPLS7Z9H0","A2ZL5GAZK6S0H1","3D1UCPY6GGVNRONHL4UEVMXCHLT38H","","170.9000005722046","img/flower3.png","74","173.19999980926514","1","1","3","2","1,0,0,1,1,0,1,0,1","0,1,0,0,1,1,1,1,0","3",""
"","html-keyboard-response","95","32729","0.0-95.0","3W8CV64QJ3L4LLBKWJUWOVPLS7Z9H0","A2ZL5GAZK6S0H1","3D1UCPY6GGVNRONHL4UEVMXCHLT38H","","null","<img src=""img/flower3.png"" style=""width:200px; border:14px solid green;"">","null","","","","","","","","",""
"","image-keyboard-response","96","32845","0.0-96.0","3W8CV64QJ3L4LLBKWJUWOVPLS7Z9H0","A2ZL5GAZK6S0H1","3D1UCPY6GGVNRONHL4UEVMXCHLT38H","","111.69999980926514","img/flower4.png","75","115.5","2","1","2","2","1,0,0,1,1,0,1,0,1","0,1,0,0,1,1,1,1,0","3",""
"","html-keyboard-response","97","33148","0.0-97.0","3W8CV64QJ3L4LLBKWJUWOVPLS7Z9H0","A2ZL5GAZK6S0H1","3D1UCPY6GGVNRONHL4UEVMXCHLT38H","","null","<img src=""img/flower4.png"" style=""width:200px; border:14px solid green;"">","null","","","","","","","","",""
"","image-keyboard-response","98","33292","0.0-98.0","3W8CV64QJ3L4LLBKWJUWOVPLS7Z9H0","A2ZL5GAZK6S0H1","3D1UCPY6GGVNRONHL4UEVMXCHLT38H","","140.10000038146973","img/flower3.png","74","143.19999980926514","1","1","3","2","1,0,0,1,1,0,1,0,1","0,1,0,0,1,1,1,1,0","3",""
"","html-keyboard-response","99","33599","0.0-99.0","3W8CV64QJ3L4LLBKWJUWOVPLS7Z9H0","A2ZL5GAZK6S0H1","3D1UCPY6GGVNRONHL4UEVMXCHLT38H","","null","<img src=""img/flower3.png"" style=""width:200px; border:14px solid green;"">","null","","","","","","","","",""
"","image-keyboard-response","100","33792","0.0-100.0","3W8CV64QJ3L4LLBKWJUWOVPLS7Z9H0","A2ZL5GAZK6S0H1","3D1UCPY6GGVNRONHL4UEVMXCHLT38H","","186.10000038146973","img/flower4.png","75","191.5","2","1","2","2","1,0,0,1,1,0,1,0,1","0,1,0,0,1,1,1,1,0","3",""
"","html-keyboard-response","101","34100","0.0-101.0","3W8CV64QJ3L4LLBKWJUWOVPLS7Z9H0","A2ZL5GAZK6S0H1","3D1UCPY6GGVNRONHL4UEVMXCHLT38H","","null","<img src=""img/flower4.png"" style=""width:200px; border:14px solid green;"">","null","","","","","","","","",""
"","image-keyboard-response","102","34208","0.0-102.0","3W8CV64QJ3L4LLBKWJUWOVPLS7Z9H0","A2ZL5GAZK6S0H1","3D1UCPY6GGVNRONHL4UEVMXCHLT38H","","100.79999923706055","img/flower1.png","76","107.19999980926514","3","0","1","2","1,0,0,1,1,0,1,0,1","0,1,0,0,1,1,1,1,0","3",""
"","html-keyboard-response","103","34516","0.0-103.0","3W8CV64QJ3L4LLBKWJUWOVPLS7Z9H0","A2ZL5GAZK6S0H1","3D1UCPY6GGVNRONHL4UEVMXCHLT38H","","null","<img src=""img/flower1.png"" style=""width:200px;border:14px solid red;"">","null","","","","","","","","",""
"","image-keyboard-response","104","34631","0.0-104.0","3W8CV64QJ3L4LLBKWJUWOVPLS7Z9H0","A2ZL5GAZK6S0H1","3D1UCPY6GGVNRONHL4UEVMXCHLT38H","","111.09999942779541","img/flower1.png","75","114.30000019073486","2","1","1","2","1,0,0,1,1,0,1,0,1","0,1,0,0,1,1,1,1,0","3",""
"","html-keyboard-response","105","34936","0.0-105.0","3W8CV64QJ3L4LLBKWJUWOVPLS7Z9H0","A2ZL5GAZK6S0H1","3D1UCPY6GGVNRONHL4UEVMXCHLT38H","","null","<img src=""img/flower1.png"" style=""width:200px; border:14px solid green;"">","null","","","","","","","","",""
"","image-keyboard-response","106","35055","0.0-106.0","3W8CV64QJ3L4LLBKWJUWOVPLS7Z9H0","A2ZL5GAZK6S0H1","3D1UCPY6GGVNRONHL4UEVMXCHLT38H","","112.70000076293945","img/flower1.png","74","118.10000038146973","1","0","1","2","1,0,0,1,1,0,1,0,1","0,1,0,0,1,1,1,1,0","3",""
"","html-keyboard-response","107","35362","0.0-107.0","3W8CV64QJ3L4LLBKWJUWOVPLS7Z9H0","A2ZL5GAZK6S0H1","3D1UCPY6GGVNRONHL4UEVMXCHLT38H","","null","<img src=""img/flower1.png"" style=""width:200px;border:14px solid red;"">","null","","","","","","","","",""
"","image-keyboard-response","108","35585","0.0-108.0","3W8CV64QJ3L4LLBKWJUWOVPLS7Z9H0","A2ZL5GAZK6S0H1","3D1UCPY6GGVNRONHL4UEVMXCHLT38H","","215.19999980926514","img/flower4.png","75","221.5","2","1","2","2","1,0,0,1,1,0,1,0,1","0,1,0,0,1,1,1,1,0","3",""
"","html-keyboard-response","109","35892","0.0-109.0","3W8CV64QJ3L4LLBKWJUWOVPLS7Z9H0","A2ZL5GAZK6S0H1","3D1UCPY6GGVNRONHL4UEVMXCHLT38H","","null","<img src=""img/flower4.png"" style=""width:200px; border:14px solid green;"">","null","","","","","","","","",""
"","image-keyboard-response","110","35968","0.0-110.0","3W8CV64QJ3L4LLBKWJUWOVPLS7Z9H0","A2ZL5GAZK6S0H1","3D1UCPY6GGVNRONHL4UEVMXCHLT38H","","68.10000038146973","img/flower4.png","76","74.80000019073486","3","1","2","2","1,0,0,1,1,0,1,0,1","0,1,0,0,1,1,1,1,0","3",""
"","html-keyboard-response","111","36276","0.0-111.0","3W8CV64QJ3L4LLBKWJUWOVPLS7Z9H0","A2ZL5GAZK6S0H1","3D1UCPY6GGVNRONHL4UEVMXCHLT38H","","null","<img src=""img/flower4.png"" style=""width:200px; border:14px solid green;"">","null","","","","","","","","",""
"","image-keyboard-response","112","36470","0.0-112.0","3W8CV64QJ3L4LLBKWJUWOVPLS7Z9H0","A2ZL5GAZK6S0H1","3D1UCPY6GGVNRONHL4UEVMXCHLT38H","","186.9000005722046","img/flower3.png","75","193.0999994277954","2","1","3","2","1,0,0,1,1,0,1,0,1","0,1,0,0,1,1,1,1,0","3",""
"","html-keyboard-response","113","36777","0.0-113.0","3W8CV64QJ3L4LLBKWJUWOVPLS7Z9H0","A2ZL5GAZK6S0H1","3D1UCPY6GGVNRONHL4UEVMXCHLT38H","","null","<img src=""img/flower3.png"" style=""width:200px; border:14px solid green;"">","null","","","","","","","","",""
"","image-keyboard-response","114","36951","0.0-114.0","3W8CV64QJ3L4LLBKWJUWOVPLS7Z9H0","A2ZL5GAZK6S0H1","3D1UCPY6GGVNRONHL4UEVMXCHLT38H","","171.0999994277954","img/flower4.png","76","174.60000038146973","3","1","2","2","1,0,0,1,1,0,1,0,1","0,1,0,0,1,1,1,1,0","3",""
"","html-keyboard-response","115","37258","0.0-115.0","3W8CV64QJ3L4LLBKWJUWOVPLS7Z9H0","A2ZL5GAZK6S0H1","3D1UCPY6GGVNRONHL4UEVMXCHLT38H","","null","<img src=""img/flower4.png"" style=""width:200px; border:14px solid green;"">","null","","","","","","","","",""
"","image-keyboard-response","116","37393","0.0-116.0","3W8CV64QJ3L4LLBKWJUWOVPLS7Z9H0","A2ZL5GAZK6S0H1","3D1UCPY6GGVNRONHL4UEVMXCHLT38H","","127.5","img/flower4.png","75","133.39999961853027","2","1","2","2","1,0,0,1,1,0,1,0,1","0,1,0,0,1,1,1,1,0","3",""
"","html-keyboard-response","117","37702","0.0-117.0","3W8CV64QJ3L4LLBKWJUWOVPLS7Z9H0","A2ZL5GAZK6S0H1","3D1UCPY6GGVNRONHL4UEVMXCHLT38H","","null","<img src=""img/flower4.png"" style=""width:200px; border:14px solid green;"">","null","","","","","","","","",""
"","image-keyboard-response","118","37887","0.0-118.0","3W8CV64QJ3L4LLBKWJUWOVPLS7Z9H0","A2ZL5GAZK6S0H1","3D1UCPY6GGVNRONHL4UEVMXCHLT38H","","178","img/flower4.png","74","183.30000019073486","1","0","2","2","1,0,0,1,1,0,1,0,1","0,1,0,0,1,1,1,1,0","3",""
"","html-keyboard-response","119","38194","0.0-119.0","3W8CV64QJ3L4LLBKWJUWOVPLS7Z9H0","A2ZL5GAZK6S0H1","3D1UCPY6GGVNRONHL4UEVMXCHLT38H","","null","<img src=""img/flower4.png"" style=""width:200px;border:14px solid red;"">","null","","","","","","","","",""
"","image-keyboard-response","120","38327","0.0-120.0","3W8CV64QJ3L4LLBKWJUWOVPLS7Z9H0","A2ZL5GAZK6S0H1","3D1UCPY6GGVNRONHL4UEVMXCHLT38H","","124.5","img/flower1.png","75","131.19999980926514","2","1","1","2","1,0,0,1,1,0,1,0,1","0,1,0,0,1,1,1,1,0","3",""
"","html-keyboard-response","121","38634","0.0-121.0","3W8CV64QJ3L4LLBKWJUWOVPLS7Z9H0","A2ZL5GAZK6S0H1","3D1UCPY6GGVNRONHL4UEVMXCHLT38H","","null","<img src=""img/flower1.png"" style=""width:200px; border:14px solid green;"">","null","","","","","","","","",""
"","image-keyboard-response","122","38792","0.0-122.0","3W8CV64QJ3L4LLBKWJUWOVPLS7Z9H0","A2ZL5GAZK6S0H1","3D1UCPY6GGVNRONHL4UEVMXCHLT38H","","150","img/flower3.png","76","154.29999923706055","3","0","3","2","1,0,0,1,1,0,1,0,1","0,1,0,0,1,1,1,1,0","3",""
"","html-keyboard-response","123","39110","0.0-123.0","3W8CV64QJ3L4LLBKWJUWOVPLS7Z9H0","A2ZL5GAZK6S0H1","3D1UCPY6GGVNRONHL4UEVMXCHLT38H","","null","<img src=""img/flower3.png"" style=""width:200px;border:14px solid red;"">","null","","","","","","","","",""
"","image-keyboard-response","124","39261","0.0-124.0","3W8CV64QJ3L4LLBKWJUWOVPLS7Z9H0","A2ZL5GAZK6S0H1","3D1UCPY6GGVNRONHL4UEVMXCHLT38H","","146.89999961853027","img/flower1.png","75","151","2","1","1","2","1,0,0,1,1,0,1,0,1","0,1,0,0,1,1,1,1,0","3",""
"","html-keyboard-response","125","39570","0.0-125.0","3W8CV64QJ3L4LLBKWJUWOVPLS7Z9H0","A2ZL5GAZK6S0H1","3D1UCPY6GGVNRONHL4UEVMXCHLT38H","","null","<img src=""img/flower1.png"" style=""width:200px; border:14px solid green;"">","null","","","","","","","","",""
"","image-keyboard-response","126","39739","0.0-126.0","3W8CV64QJ3L4LLBKWJUWOVPLS7Z9H0","A2ZL5GAZK6S0H1","3D1UCPY6GGVNRONHL4UEVMXCHLT38H","","164","img/flower3.png","74","168.69999980926514","1","1","3","2","1,0,0,1,1,0,1,0,1","0,1,0,0,1,1,1,1,0","3",""
"","html-keyboard-response","127","40043","0.0-127.0","3W8CV64QJ3L4LLBKWJUWOVPLS7Z9H0","A2ZL5GAZK6S0H1","3D1UCPY6GGVNRONHL4UEVMXCHLT38H","","null","<img src=""img/flower3.png"" style=""width:200px; border:14px solid green;"">","null","","","","","","","","",""
"","image-keyboard-response","128","40189","0.0-128.0","3W8CV64QJ3L4LLBKWJUWOVPLS7Z9H0","A2ZL5GAZK6S0H1","3D1UCPY6GGVNRONHL4UEVMXCHLT38H","","142.80000019073486","img/flower4.png","75","145.89999961853027","2","1","2","2","1,0,0,1,1,0,1,0,1","0,1,0,0,1,1,1,1,0","3",""
"","html-keyboard-response","129","40497","0.0-129.0","3W8CV64QJ3L4LLBKWJUWOVPLS7Z9H0","A2ZL5GAZK6S0H1","3D1UCPY6GGVNRONHL4UEVMXCHLT38H","","null","<img src=""img/flower4.png"" style=""width:200px; border:14px solid green;"">","null","","","","","","","","",""
"","image-keyboard-response","130","40633","0.0-130.0","3W8CV64QJ3L4LLBKWJUWOVPLS7Z9H0","A2ZL5GAZK6S0H1","3D1UCPY6GGVNRONHL4UEVMXCHLT38H","","131.29999923706055","img/flower4.png","74","135.4000005722046","1","0","2","2","1,0,0,1,1,0,1,0,1","0,1,0,0,1,1,1,1,0","3",""
"","html-keyboard-response","131","40941","0.0-131.0","3W8CV64QJ3L4LLBKWJUWOVPLS7Z9H0","A2ZL5GAZK6S0H1","3D1UCPY6GGVNRONHL4UEVMXCHLT38H","","null","<img src=""img/flower4.png"" style=""width:200px;border:14px solid red;"">","null","","","","","","","","",""
"","image-keyboard-response","132","41083","0.0-132.0","3W8CV64QJ3L4LLBKWJUWOVPLS7Z9H0","A2ZL5GAZK6S0H1","3D1UCPY6GGVNRONHL4UEVMXCHLT38H","","132.30000019073486","img/flower3.png","75","141","2","1","3","2","1,0,0,1,1,0,1,0,1","0,1,0,0,1,1,1,1,0","3",""
"","html-keyboard-response","133","41389","0.0-133.0","3W8CV64QJ3L4LLBKWJUWOVPLS7Z9H0","A2ZL5GAZK6S0H1","3D1UCPY6GGVNRONHL4UEVMXCHLT38H","","null","<img src=""img/flower3.png"" style=""width:200px; border:14px solid green;"">","null","","","","","","","","",""
"","image-keyboard-response","134","41545","0.0-134.0","3W8CV64QJ3L4LLBKWJUWOVPLS7Z9H0","A2ZL5GAZK6S0H1","3D1UCPY6GGVNRONHL4UEVMXCHLT38H","","152","img/flower4.png","76","155.4000005722046","3","1","2","2","1,0,0,1,1,0,1,0,1","0,1,0,0,1,1,1,1,0","3",""
"","html-keyboard-response","135","41853","0.0-135.0","3W8CV64QJ3L4LLBKWJUWOVPLS7Z9H0","A2ZL5GAZK6S0H1","3D1UCPY6GGVNRONHL4UEVMXCHLT38H","","null","<img src=""img/flower4.png"" style=""width:200px; border:14px solid green;"">","null","","","","","","","","",""
"","image-keyboard-response","136","41991","0.0-136.0","3W8CV64QJ3L4LLBKWJUWOVPLS7Z9H0","A2ZL5GAZK6S0H1","3D1UCPY6GGVNRONHL4UEVMXCHLT38H","","130.29999923706055","img/flower4.png","75","136.19999980926514","2","1","2","2","1,0,0,1,1,0,1,0,1","0,1,0,0,1,1,1,1,0","3",""
"","html-keyboard-response","137","42298","0.0-137.0","3W8CV64QJ3L4LLBKWJUWOVPLS7Z9H0","A2ZL5GAZK6S0H1","3D1UCPY6GGVNRONHL4UEVMXCHLT38H","","null","<img src=""img/flower4.png"" style=""width:200px; border:14px solid green;"">","null","","","","","","","","",""
"","image-keyboard-response","138","42478","0.0-138.0","3W8CV64QJ3L4LLBKWJUWOVPLS7Z9H0","A2ZL5GAZK6S0H1","3D1UCPY6GGVNRONHL4UEVMXCHLT38H","","173.39999961853027","img/flower4.png","76","178.69999980926514","3","1","2","2","1,0,0,1,1,0,1,0,1","0,1,0,0,1,1,1,1,0","3",""
"","html-keyboard-response","139","42787","0.0-139.0","3W8CV64QJ3L4LLBKWJUWOVPLS7Z9H0","A2ZL5GAZK6S0H1","3D1UCPY6GGVNRONHL4UEVMXCHLT38H","","null","<img src=""img/flower4.png"" style=""width:200px; border:14px solid green;"">","null","","","","","","","","",""
"","image-keyboard-response","140","42942","0.0-140.0","3W8CV64QJ3L4LLBKWJUWOVPLS7Z9H0","A2ZL5GAZK6S0H1","3D1UCPY6GGVNRONHL4UEVMXCHLT38H","","151.19999980926514","img/flower1.png","75","154.60000038146973","2","1","1","2","1,0,0,1,1,0,1,0,1","0,1,0,0,1,1,1,1,0","3",""
"","html-keyboard-response","141","43250","0.0-141.0","3W8CV64QJ3L4LLBKWJUWOVPLS7Z9H0","A2ZL5GAZK6S0H1","3D1UCPY6GGVNRONHL4UEVMXCHLT38H","","null","<img src=""img/flower1.png"" style=""width:200px; border:14px solid green;"">","null","","","","","","","","",""
"","image-keyboard-response","142","43444","0.0-142.0","3W8CV64QJ3L4LLBKWJUWOVPLS7Z9H0","A2ZL5GAZK6S0H1","3D1UCPY6GGVNRONHL4UEVMXCHLT38H","","189.19999980926514","img/flower1.png","74","193.4000005722046","1","0","1","2","1,0,0,1,1,0,1,0,1","0,1,0,0,1,1,1,1,0","3",""
"","html-keyboard-response","143","43752","0.0-143.0","3W8CV64QJ3L4LLBKWJUWOVPLS7Z9H0","A2ZL5GAZK6S0H1","3D1UCPY6GGVNRONHL4UEVMXCHLT38H","","null","<img src=""img/flower1.png"" style=""width:200px;border:14px solid red;"">","null","","","","","","","","",""
"","image-keyboard-response","144","43871","0.0-144.0","3W8CV64QJ3L4LLBKWJUWOVPLS7Z9H0","A2ZL5GAZK6S0H1","3D1UCPY6GGVNRONHL4UEVMXCHLT38H","","116.80000019073486","img/flower1.png","75","118.89999961853027","2","1","1","2","1,0,0,1,1,0,1,0,1","0,1,0,0,1,1,1,1,0","3",""
"","html-keyboard-response","145","44177","0.0-145.0","3W8CV64QJ3L4LLBKWJUWOVPLS7Z9H0","A2ZL5GAZK6S0H1","3D1UCPY6GGVNRONHL4UEVMXCHLT38H","","null","<img src=""img/flower1.png"" style=""width:200px; border:14px solid green;"">","null","","","","","","","","",""
"","image-keyboard-response","146","44370","0.0-146.0","3W8CV64QJ3L4LLBKWJUWOVPLS7Z9H0","A2ZL5GAZK6S0H1","3D1UCPY6GGVNRONHL4UEVMXCHLT38H","","185.5","img/flower1.png","75","191.60000038146973","2","1","1","2","1,0,0,1,1,0,1,0,1","0,1,0,0,1,1,1,1,0","3",""
"","html-keyboard-response","147","44677","0.0-147.0","3W8CV64QJ3L4LLBKWJUWOVPLS7Z9H0","A2ZL5GAZK6S0H1","3D1UCPY6GGVNRONHL4UEVMXCHLT38H","","null","<img src=""img/flower1.png"" style=""width:200px; border:14px solid green;"">","null","","","","","","","","",""
"","image-keyboard-response","148","44806","0.0-148.0","3W8CV64QJ3L4LLBKWJUWOVPLS7Z9H0","A2ZL5GAZK6S0H1","3D1UCPY6GGVNRONHL4UEVMXCHLT38H","","126.39999961853027","img/flower3.png","76","128.5","3","0","3","2","1,0,0,1,1,0,1,0,1","0,1,0,0,1,1,1,1,0","3",""
"","html-keyboard-response","149","45111","0.0-149.0","3W8CV64QJ3L4LLBKWJUWOVPLS7Z9H0","A2ZL5GAZK6S0H1","3D1UCPY6GGVNRONHL4UEVMXCHLT38H","","null","<img src=""img/flower3.png"" style=""width:200px;border:14px solid red;"">","null","","","","","","","","",""
"","image-keyboard-response","150","45251","0.0-150.0","3W8CV64QJ3L4LLBKWJUWOVPLS7Z9H0","A2ZL5GAZK6S0H1","3D1UCPY6GGVNRONHL4UEVMXCHLT38H","","132.89999961853027","img/flower3.png","75","139.20000076293945","2","1","3","2","1,0,0,1,1,0,1,0,1","0,1,0,0,1,1,1,1,0","3",""
"","html-keyboard-response","151","45558","0.0-151.0","3W8CV64QJ3L4LLBKWJUWOVPLS7Z9H0","A2ZL5GAZK6S0H1","3D1UCPY6GGVNRONHL4UEVMXCHLT38H","","null","<img src=""img/flower3.png"" style=""width:200px; border:14px solid green;"">","null","","","","","","","","",""
"","image-keyboard-response","152","45725","0.0-152.0","3W8CV64QJ3L4LLBKWJUWOVPLS7Z9H0","A2ZL5GAZK6S0H1","3D1UCPY6GGVNRONHL4UEVMXCHLT38H","","160.30000019073486","img/flower4.png","74","165.89999961853027","1","0","2","2","1,0,0,1,1,0,1,0,1","0,1,0,0,1,1,1,1,0","3",""
"","html-keyboard-response","153","46030","0.0-153.0","3W8CV64QJ3L4LLBKWJUWOVPLS7Z9H0","A2ZL5GAZK6S0H1","3D1UCPY6GGVNRONHL4UEVMXCHLT38H","","null","<img src=""img/flower4.png"" style=""width:200px;border:14px solid red;"">","null","","","","","","","","",""
"","image-keyboard-response","154","46186","0.0-154.0","3W8CV64QJ3L4LLBKWJUWOVPLS7Z9H0","A2ZL5GAZK6S0H1","3D1UCPY6GGVNRONHL4UEVMXCHLT38H","","149.5","img/flower4.png","75","155.30000019073486","2","1","2","2","1,0,0,1,1,0,1,0,1","0,1,0,0,1,1,1,1,0","3",""
"","html-keyboard-response","155","46494","0.0-155.0","3W8CV64QJ3L4LLBKWJUWOVPLS7Z9H0","A2ZL5GAZK6S0H1","3D1UCPY6GGVNRONHL4UEVMXCHLT38H","","null","<img src=""img/flower4.png"" style=""width:200px; border:14px solid green;"">","null","","","","","","","","",""
"","image-keyboard-response","156","46584","0.0-156.0","3W8CV64QJ3L4LLBKWJUWOVPLS7Z9H0","A2ZL5GAZK6S0H1","3D1UCPY6GGVNRONHL4UEVMXCHLT38H","","83.09999942779541","img/flower3.png","76","89","3","0","3","2","1,0,0,1,1,0,1,0,1","0,1,0,0,1,1,1,1,0","3",""
"","html-keyboard-response","157","46890","0.0-157.0","3W8CV64QJ3L4LLBKWJUWOVPLS7Z9H0","A2ZL5GAZK6S0H1","3D1UCPY6GGVNRONHL4UEVMXCHLT38H","","null","<img src=""img/flower3.png"" style=""width:200px;border:14px solid red;"">","null","","","","","","","","",""
"","image-keyboard-response","158","47075","0.0-158.0","3W8CV64QJ3L4LLBKWJUWOVPLS7Z9H0","A2ZL5GAZK6S0H1","3D1UCPY6GGVNRONHL4UEVMXCHLT38H","","177.5","img/flower1.png","75","183.19999980926514","2","1","1","2","1,0,0,1,1,0,1,0,1","0,1,0,0,1,1,1,1,0","3",""
"","html-keyboard-response","159","47382","0.0-159.0","3W8CV64QJ3L4LLBKWJUWOVPLS7Z9H0","A2ZL5GAZK6S0H1","3D1UCPY6GGVNRONHL4UEVMXCHLT38H","","null","<img src=""img/flower1.png"" style=""width:200px; border:14px solid green;"">","null","","","","","","","","",""
"","image-keyboard-response","160","47601","0.0-160.0","3W8CV64QJ3L4LLBKWJUWOVPLS7Z9H0","A2ZL5GAZK6S0H1","3D1UCPY6GGVNRONHL4UEVMXCHLT38H","","215.30000019073486","img/flower3.png","74","218.80000019073486","1","1","3","2","1,0,0,1,1,0,1,0,1","0,1,0,0,1,1,1,1,0","3",""
"","html-keyboard-response","161","47908","0.0-161.0","3W8CV64QJ3L4LLBKWJUWOVPLS7Z9H0","A2ZL5GAZK6S0H1","3D1UCPY6GGVNRONHL4UEVMXCHLT38H","","null","<img src=""img/flower3.png"" style=""width:200px; border:14px solid green;"">","null","","","","","","","","",""
"","image-keyboard-response","162","48118","0.0-162.0","3W8CV64QJ3L4LLBKWJUWOVPLS7Z9H0","A2ZL5GAZK6S0H1","3D1UCPY6GGVNRONHL4UEVMXCHLT38H","","200.60000038146973","img/flower4.png","76","208.69999980926514","3","1","2","2","1,0,0,1,1,0,1,0,1","0,1,0,0,1,1,1,1,0","3",""
"","html-keyboard-response","163","48424","0.0-163.0","3W8CV64QJ3L4LLBKWJUWOVPLS7Z9H0","A2ZL5GAZK6S0H1","3D1UCPY6GGVNRONHL4UEVMXCHLT38H","","null","<img src=""img/flower4.png"" style=""width:200px; border:14px solid green;"">","null","","","","","","","","",""
"","image-keyboard-response","164","48556","0.0-164.0","3W8CV64QJ3L4LLBKWJUWOVPLS7Z9H0","A2ZL5GAZK6S0H1","3D1UCPY6GGVNRONHL4UEVMXCHLT38H","","128.80000019073486","img/flower3.png","75","131.89999961853027","2","1","3","2","1,0,0,1,1,0,1,0,1","0,1,0,0,1,1,1,1,0","3",""
"","html-keyboard-response","165","48865","0.0-165.0","3W8CV64QJ3L4LLBKWJUWOVPLS7Z9H0","A2ZL5GAZK6S0H1","3D1UCPY6GGVNRONHL4UEVMXCHLT38H","","null","<img src=""img/flower3.png"" style=""width:200px; border:14px solid green;"">","null","","","","","","","","",""
"","image-keyboard-response","166","49067","0.0-166.0","3W8CV64QJ3L4LLBKWJUWOVPLS7Z9H0","A2ZL5GAZK6S0H1","3D1UCPY6GGVNRONHL4UEVMXCHLT38H","","198.30000019073486","img/flower1.png","76","202.10000038146973","3","0","1","2","1,0,0,1,1,0,1,0,1","0,1,0,0,1,1,1,1,0","3",""
"","html-keyboard-response","167","49379","0.0-167.0","3W8CV64QJ3L4LLBKWJUWOVPLS7Z9H0","A2ZL5GAZK6S0H1","3D1UCPY6GGVNRONHL4UEVMXCHLT38H","","null","<img src=""img/flower1.png"" style=""width:200px;border:14px solid red;"">","null","","","","","","","","",""
"","image-keyboard-response","168","49497","0.0-168.0","3W8CV64QJ3L4LLBKWJUWOVPLS7Z9H0","A2ZL5GAZK6S0H1","3D1UCPY6GGVNRONHL4UEVMXCHLT38H","","110.29999923706055","img/flower4.png","75","115.59999942779541","2","1","2","2","1,0,0,1,1,0,1,0,1","0,1,0,0,1,1,1,1,0","3",""
"","html-keyboard-response","169","49803","0.0-169.0","3W8CV64QJ3L4LLBKWJUWOVPLS7Z9H0","A2ZL5GAZK6S0H1","3D1UCPY6GGVNRONHL4UEVMXCHLT38H","","null","<img src=""img/flower4.png"" style=""width:200px; border:14px solid green;"">","null","","","","","","","","",""
"","image-keyboard-response","170","49874","0.0-170.0","3W8CV64QJ3L4LLBKWJUWOVPLS7Z9H0","A2ZL5GAZK6S0H1","3D1UCPY6GGVNRONHL4UEVMXCHLT38H","","65.90000057220459","img/flower1.png","74","71","1","0","1","2","1,0,0,1,1,0,1,0,1","0,1,0,0,1,1,1,1,0","3",""
"","html-keyboard-response","171","50181","0.0-171.0","3W8CV64QJ3L4LLBKWJUWOVPLS7Z9H0","A2ZL5GAZK6S0H1","3D1UCPY6GGVNRONHL4UEVMXCHLT38H","","null","<img src=""img/flower1.png"" style=""width:200px;border:14px solid red;"">","null","","","","","","","","",""
"","image-keyboard-response","172","50426","0.0-172.0","3W8CV64QJ3L4LLBKWJUWOVPLS7Z9H0","A2ZL5GAZK6S0H1","3D1UCPY6GGVNRONHL4UEVMXCHLT38H","","239.30000019073486","img/flower3.png","75","243.39999961853027","2","1","3","2","1,0,0,1,1,0,1,0,1","0,1,0,0,1,1,1,1,0","3",""
"","html-keyboard-response","173","50730","0.0-173.0","3W8CV64QJ3L4LLBKWJUWOVPLS7Z9H0","A2ZL5GAZK6S0H1","3D1UCPY6GGVNRONHL4UEVMXCHLT38H","","null","<img src=""img/flower3.png"" style=""width:200px; border:14px solid green;"">","null","","","","","","","","",""
"","image-keyboard-response","174","50921","0.0-174.0","3W8CV64QJ3L4LLBKWJUWOVPLS7Z9H0","A2ZL5GAZK6S0H1","3D1UCPY6GGVNRONHL4UEVMXCHLT38H","","188.5","img/flower4.png","76","190.89999961853027","3","1","2","2","1,0,0,1,1,0,1,0,1","0,1,0,0,1,1,1,1,0","3",""
"","html-keyboard-response","175","51229","0.0-175.0","3W8CV64QJ3L4LLBKWJUWOVPLS7Z9H0","A2ZL5GAZK6S0H1","3D1UCPY6GGVNRONHL4UEVMXCHLT38H","","null","<img src=""img/flower4.png"" style=""width:200px; border:14px solid green;"">","null","","","","","","","","",""
"","image-keyboard-response","176","51434","0.0-176.0","3W8CV64QJ3L4LLBKWJUWOVPLS7Z9H0","A2ZL5GAZK6S0H1","3D1UCPY6GGVNRONHL4UEVMXCHLT38H","","191.80000019073486","img/flower1.png","75","199.69999980926514","2","1","1","2","1,0,0,1,1,0,1,0,1","0,1,0,0,1,1,1,1,0","3",""
"","html-keyboard-response","177","51742","0.0-177.0","3W8CV64QJ3L4LLBKWJUWOVPLS7Z9H0","A2ZL5GAZK6S0H1","3D1UCPY6GGVNRONHL4UEVMXCHLT38H","","null","<img src=""img/flower1.png"" style=""width:200px; border:14px solid green;"">","null","","","","","","","","",""
"","image-keyboard-response","178","51852","0.0-178.0","3W8CV64QJ3L4LLBKWJUWOVPLS7Z9H0","A2ZL5GAZK6S0H1","3D1UCPY6GGVNRONHL4UEVMXCHLT38H","","106.5","img/flower3.png","74","110.10000038146973","1","1","3","2","1,0,0,1,1,0,1,0,1","0,1,0,0,1,1,1,1,0","3",""
"","html-keyboard-response","179","52158","0.0-179.0","3W8CV64QJ3L4LLBKWJUWOVPLS7Z9H0","A2ZL5GAZK6S0H1","3D1UCPY6GGVNRONHL4UEVMXCHLT38H","","null","<img src=""img/flower3.png"" style=""width:200px; border:14px solid green;"">","null","","","","","","","","",""
"","image-keyboard-response","180","52334","0.0-180.0","3W8CV64QJ3L4LLBKWJUWOVPLS7Z9H0","A2ZL5GAZK6S0H1","3D1UCPY6GGVNRONHL4UEVMXCHLT38H","","171.69999980926514","img/flower1.png","75","175.5999994277954","2","1","1","2","1,0,0,1,1,0,1,0,1","0,1,0,0,1,1,1,1,0","3",""
"","html-keyboard-response","181","52645","0.0-181.0","3W8CV64QJ3L4LLBKWJUWOVPLS7Z9H0","A2ZL5GAZK6S0H1","3D1UCPY6GGVNRONHL4UEVMXCHLT38H","","null","<img src=""img/flower1.png"" style=""width:200px; border:14px solid green;"">","null","","","","","","","","",""
"","image-keyboard-response","182","52799","0.0-182.0","3W8CV64QJ3L4LLBKWJUWOVPLS7Z9H0","A2ZL5GAZK6S0H1","3D1UCPY6GGVNRONHL4UEVMXCHLT38H","","148.0999994277954","img/flower5.png","75","153.39999961853027","2","0","3","1","1,0.333,0.333,0.333,1,0.333,0.333,0.333,1","1,0.333,0.333,0.333,1,0.333,0.333,0.333,1","1",""
"","html-keyboard-response","183","53105","0.0-183.0","3W8CV64QJ3L4LLBKWJUWOVPLS7Z9H0","A2ZL5GAZK6S0H1","3D1UCPY6GGVNRONHL4UEVMXCHLT38H","","null","<img src=""img/flower5.png"" style=""width:200px;border:14px solid red;"">","null","","","","","","","","",""
"","image-keyboard-response","184","53291","0.0-184.0","3W8CV64QJ3L4LLBKWJUWOVPLS7Z9H0","A2ZL5GAZK6S0H1","3D1UCPY6GGVNRONHL4UEVMXCHLT38H","","179.5999994277954","img/flower5.png","76","185.29999923706055","3","1","3","1","1,0.333,0.333,0.333,1,0.333,0.333,0.333,1","1,0.333,0.333,0.333,1,0.333,0.333,0.333,1","1",""
"","html-keyboard-response","185","53602","0.0-185.0","3W8CV64QJ3L4LLBKWJUWOVPLS7Z9H0","A2ZL5GAZK6S0H1","3D1UCPY6GGVNRONHL4UEVMXCHLT38H","","null","<img src=""img/flower5.png"" style=""width:200px; border:14px solid green;"">","null","","","","","","","","",""
"","image-keyboard-response","186","53718","0.0-186.0","3W8CV64QJ3L4LLBKWJUWOVPLS7Z9H0","A2ZL5GAZK6S0H1","3D1UCPY6GGVNRONHL4UEVMXCHLT38H","","107.69999980926514","img/flower2.png","75","116.19999980926514","2","1","2","1","1,0.333,0.333,0.333,1,0.333,0.333,0.333,1","1,0.333,0.333,0.333,1,0.333,0.333,0.333,1","1",""
"","html-keyboard-response","187","54026","0.0-187.0","3W8CV64QJ3L4LLBKWJUWOVPLS7Z9H0","A2ZL5GAZK6S0H1","3D1UCPY6GGVNRONHL4UEVMXCHLT38H","","null","<img src=""img/flower2.png"" style=""width:200px; border:14px solid green;"">","null","","","","","","","","",""
"","image-keyboard-response","188","54147","0.0-188.0","3W8CV64QJ3L4LLBKWJUWOVPLS7Z9H0","A2ZL5GAZK6S0H1","3D1UCPY6GGVNRONHL4UEVMXCHLT38H","","114.10000038146973","img/flower6.png","76","119.10000038146973","3","0","1","1","1,0.333,0.333,0.333,1,0.333,0.333,0.333,1","1,0.333,0.333,0.333,1,0.333,0.333,0.333,1","1",""
"","html-keyboard-response","189","54452","0.0-189.0","3W8CV64QJ3L4LLBKWJUWOVPLS7Z9H0","A2ZL5GAZK6S0H1","3D1UCPY6GGVNRONHL4UEVMXCHLT38H","","null","<img src=""img/flower6.png"" style=""width:200px;border:14px solid red;"">","null","","","","","","","","",""
"","image-keyboard-response","190","54706","0.0-190.0","3W8CV64QJ3L4LLBKWJUWOVPLS7Z9H0","A2ZL5GAZK6S0H1","3D1UCPY6GGVNRONHL4UEVMXCHLT38H","","230.39999961853027","img/flower6.png","75","251.80000019073486","2","1","1","1","1,0.333,0.333,0.333,1,0.333,0.333,0.333,1","1,0.333,0.333,0.333,1,0.333,0.333,0.333,1","1",""
"","html-keyboard-response","191","55011","0.0-191.0","3W8CV64QJ3L4LLBKWJUWOVPLS7Z9H0","A2ZL5GAZK6S0H1","3D1UCPY6GGVNRONHL4UEVMXCHLT38H","","null","<img src=""img/flower6.png"" style=""width:200px; border:14px solid green;"">","null","","","","","","","","",""
"","image-keyboard-response","192","55127","0.0-192.0","3W8CV64QJ3L4LLBKWJUWOVPLS7Z9H0","A2ZL5GAZK6S0H1","3D1UCPY6GGVNRONHL4UEVMXCHLT38H","","113.60000038146973","img/flower6.png","74","116.09999942779541","1","1","1","1","1,0.333,0.333,0.333,1,0.333,0.333,0.333,1","1,0.333,0.333,0.333,1,0.333,0.333,0.333,1","1",""
"","html-keyboard-response","193","55431","0.0-193.0","3W8CV64QJ3L4LLBKWJUWOVPLS7Z9H0","A2ZL5GAZK6S0H1","3D1UCPY6GGVNRONHL4UEVMXCHLT38H","","null","<img src=""img/flower6.png"" style=""width:200px; border:14px solid green;"">","null","","","","","","","","",""
"","image-keyboard-response","194","55595","0.0-194.0","3W8CV64QJ3L4LLBKWJUWOVPLS7Z9H0","A2ZL5GAZK6S0H1","3D1UCPY6GGVNRONHL4UEVMXCHLT38H","","156.5999994277954","img/flower5.png","75","162.30000019073486","2","1","3","1","1,0.333,0.333,0.333,1,0.333,0.333,0.333,1","1,0.333,0.333,0.333,1,0.333,0.333,0.333,1","1",""
"","html-keyboard-response","195","55902","0.0-195.0","3W8CV64QJ3L4LLBKWJUWOVPLS7Z9H0","A2ZL5GAZK6S0H1","3D1UCPY6GGVNRONHL4UEVMXCHLT38H","","null","<img src=""img/flower5.png"" style=""width:200px; border:14px solid green;"">","null","","","","","","","","",""
"","image-keyboard-response","196","56048","0.0-196.0","3W8CV64QJ3L4LLBKWJUWOVPLS7Z9H0","A2ZL5GAZK6S0H1","3D1UCPY6GGVNRONHL4UEVMXCHLT38H","","140.5","img/flower6.png","74","144.5","1","1","1","1","1,0.333,0.333,0.333,1,0.333,0.333,0.333,1","1,0.333,0.333,0.333,1,0.333,0.333,0.333,1","1",""
"","html-keyboard-response","197","56352","0.0-197.0","3W8CV64QJ3L4LLBKWJUWOVPLS7Z9H0","A2ZL5GAZK6S0H1","3D1UCPY6GGVNRONHL4UEVMXCHLT38H","","null","<img src=""img/flower6.png"" style=""width:200px; border:14px solid green;"">","null","","","","","","","","",""
"","image-keyboard-response","198","56451","0.0-198.0","3W8CV64QJ3L4LLBKWJUWOVPLS7Z9H0","A2ZL5GAZK6S0H1","3D1UCPY6GGVNRONHL4UEVMXCHLT38H","","93","img/flower2.png","75","98.39999961853027","2","1","2","1","1,0.333,0.333,0.333,1,0.333,0.333,0.333,1","1,0.333,0.333,0.333,1,0.333,0.333,0.333,1","1",""
"","html-keyboard-response","199","56758","0.0-199.0","3W8CV64QJ3L4LLBKWJUWOVPLS7Z9H0","A2ZL5GAZK6S0H1","3D1UCPY6GGVNRONHL4UEVMXCHLT38H","","null","<img src=""img/flower2.png"" style=""width:200px; border:14px solid green;"">","null","","","","","","","","",""
"","image-keyboard-response","200","56897","0.0-200.0","3W8CV64QJ3L4LLBKWJUWOVPLS7Z9H0","A2ZL5GAZK6S0H1","3D1UCPY6GGVNRONHL4UEVMXCHLT38H","","135.5","img/flower6.png","76","139.19999980926514","3","0","1","1","1,0.333,0.333,0.333,1,0.333,0.333,0.333,1","1,0.333,0.333,0.333,1,0.333,0.333,0.333,1","1",""
"","html-keyboard-response","201","57204","0.0-201.0","3W8CV64QJ3L4LLBKWJUWOVPLS7Z9H0","A2ZL5GAZK6S0H1","3D1UCPY6GGVNRONHL4UEVMXCHLT38H","","null","<img src=""img/flower6.png"" style=""width:200px;border:14px solid red;"">","null","","","","","","","","",""
"","image-keyboard-response","202","57351","0.0-202.0","3W8CV64QJ3L4LLBKWJUWOVPLS7Z9H0","A2ZL5GAZK6S0H1","3D1UCPY6GGVNRONHL4UEVMXCHLT38H","","143.5999994277954","img/flower2.png","75","147.39999961853027","2","1","2","1","1,0.333,0.333,0.333,1,0.333,0.333,0.333,1","1,0.333,0.333,0.333,1,0.333,0.333,0.333,1","1",""
"","html-keyboard-response","203","57662","0.0-203.0","3W8CV64QJ3L4LLBKWJUWOVPLS7Z9H0","A2ZL5GAZK6S0H1","3D1UCPY6GGVNRONHL4UEVMXCHLT38H","","null","<img src=""img/flower2.png"" style=""width:200px; border:14px solid green;"">","null","","","","","","","","",""
"","image-keyboard-response","204","57804","0.0-204.0","3W8CV64QJ3L4LLBKWJUWOVPLS7Z9H0","A2ZL5GAZK6S0H1","3D1UCPY6GGVNRONHL4UEVMXCHLT38H","","133.79999923706055","img/flower6.png","74","140.69999980926514","1","1","1","1","1,0.333,0.333,0.333,1,0.333,0.333,0.333,1","1,0.333,0.333,0.333,1,0.333,0.333,0.333,1","1",""
"","html-keyboard-response","205","58111","0.0-205.0","3W8CV64QJ3L4LLBKWJUWOVPLS7Z9H0","A2ZL5GAZK6S0H1","3D1UCPY6GGVNRONHL4UEVMXCHLT38H","","null","<img src=""img/flower6.png"" style=""width:200px; border:14px solid green;"">","null","","","","","","","","",""
"","image-keyboard-response","206","58344","0.0-206.0","3W8CV64QJ3L4LLBKWJUWOVPLS7Z9H0","A2ZL5GAZK6S0H1","3D1UCPY6GGVNRONHL4UEVMXCHLT38H","","225","img/flower6.png","75","232.60000038146973","2","0","1","1","1,0.333,0.333,0.333,1,0.333,0.333,0.333,1","1,0.333,0.333,0.333,1,0.333,0.333,0.333,1","1",""
"","html-keyboard-response","207","58653","0.0-207.0","3W8CV64QJ3L4LLBKWJUWOVPLS7Z9H0","A2ZL5GAZK6S0H1","3D1UCPY6GGVNRONHL4UEVMXCHLT38H","","null","<img src=""img/flower6.png"" style=""width:200px;border:14px solid red;"">","null","","","","","","","","",""
"","image-keyboard-response","208","58777","0.0-208.0","3W8CV64QJ3L4LLBKWJUWOVPLS7Z9H0","A2ZL5GAZK6S0H1","3D1UCPY6GGVNRONHL4UEVMXCHLT38H","","117.89999961853027","img/flower2.png","74","122.19999980926514","1","0","2","1","1,0.333,0.333,0.333,1,0.333,0.333,0.333,1","1,0.333,0.333,0.333,1,0.333,0.333,0.333,1","1",""
"","html-keyboard-response","209","59081","0.0-209.0","3W8CV64QJ3L4LLBKWJUWOVPLS7Z9H0","A2ZL5GAZK6S0H1","3D1UCPY6GGVNRONHL4UEVMXCHLT38H","","null","<img src=""img/flower2.png"" style=""width:200px;border:14px solid red;"">","null","","","","","","","","",""
"","image-keyboard-response","210","59261","0.0-210.0","3W8CV64QJ3L4LLBKWJUWOVPLS7Z9H0","A2ZL5GAZK6S0H1","3D1UCPY6GGVNRONHL4UEVMXCHLT38H","","172.69999980926514","img/flower5.png","76","178.10000038146973","3","1","3","1","1,0.333,0.333,0.333,1,0.333,0.333,0.333,1","1,0.333,0.333,0.333,1,0.333,0.333,0.333,1","1",""
"","html-keyboard-response","211","59569","0.0-211.0","3W8CV64QJ3L4LLBKWJUWOVPLS7Z9H0","A2ZL5GAZK6S0H1","3D1UCPY6GGVNRONHL4UEVMXCHLT38H","","null","<img src=""img/flower5.png"" style=""width:200px; border:14px solid green;"">","null","","","","","","","","",""
"","image-keyboard-response","212","59701","0.0-212.0","3W8CV64QJ3L4LLBKWJUWOVPLS7Z9H0","A2ZL5GAZK6S0H1","3D1UCPY6GGVNRONHL4UEVMXCHLT38H","","126.19999980926514","img/flower2.png","75","131.0999994277954","2","1","2","1","1,0.333,0.333,0.333,1,0.333,0.333,0.333,1","1,0.333,0.333,0.333,1,0.333,0.333,0.333,1","1",""
"","html-keyboard-response","213","60011","0.0-213.0","3W8CV64QJ3L4LLBKWJUWOVPLS7Z9H0","A2ZL5GAZK6S0H1","3D1UCPY6GGVNRONHL4UEVMXCHLT38H","","null","<img src=""img/flower2.png"" style=""width:200px; border:14px solid green;"">","null","","","","","","","","",""
"","image-keyboard-response","214","60182","0.0-214.0","3W8CV64QJ3L4LLBKWJUWOVPLS7Z9H0","A2ZL5GAZK6S0H1","3D1UCPY6GGVNRONHL4UEVMXCHLT38H","","159.70000076293945","img/flower5.png","76","169.5999994277954","3","1","3","1","1,0.333,0.333,0.333,1,0.333,0.333,0.333,1","1,0.333,0.333,0.333,1,0.333,0.333,0.333,1","1",""
"","html-keyboard-response","215","60489","0.0-215.0","3W8CV64QJ3L4LLBKWJUWOVPLS7Z9H0","A2ZL5GAZK6S0H1","3D1UCPY6GGVNRONHL4UEVMXCHLT38H","","null","<img src=""img/flower5.png"" style=""width:200px; border:14px solid green;"">","null","","","","","","","","",""
"","image-keyboard-response","216","60632","0.0-216.0","3W8CV64QJ3L4LLBKWJUWOVPLS7Z9H0","A2ZL5GAZK6S0H1","3D1UCPY6GGVNRONHL4UEVMXCHLT38H","","137.5","img/flower6.png","75","142.69999980926514","2","0","1","1","1,0.333,0.333,0.333,1,0.333,0.333,0.333,1","1,0.333,0.333,0.333,1,0.333,0.333,0.333,1","1",""
"","html-keyboard-response","217","60941","0.0-217.0","3W8CV64QJ3L4LLBKWJUWOVPLS7Z9H0","A2ZL5GAZK6S0H1","3D1UCPY6GGVNRONHL4UEVMXCHLT38H","","null","<img src=""img/flower6.png"" style=""width:200px;border:14px solid red;"">","null","","","","","","","","",""
"","image-keyboard-response","218","61105","0.0-218.0","3W8CV64QJ3L4LLBKWJUWOVPLS7Z9H0","A2ZL5GAZK6S0H1","3D1UCPY6GGVNRONHL4UEVMXCHLT38H","","157.5999994277954","img/flower2.png","76","162.39999961853027","3","0","2","1","1,0.333,0.333,0.333,1,0.333,0.333,0.333,1","1,0.333,0.333,0.333,1,0.333,0.333,0.333,1","1",""
"","html-keyboard-response","219","61412","0.0-219.0","3W8CV64QJ3L4LLBKWJUWOVPLS7Z9H0","A2ZL5GAZK6S0H1","3D1UCPY6GGVNRONHL4UEVMXCHLT38H","","null","<img src=""img/flower2.png"" style=""width:200px;border:14px solid red;"">","null","","","","","","","","",""
"","image-keyboard-response","220","61552","0.0-220.0","3W8CV64QJ3L4LLBKWJUWOVPLS7Z9H0","A2ZL5GAZK6S0H1","3D1UCPY6GGVNRONHL4UEVMXCHLT38H","","132.80000019073486","img/flower2.png","75","139","2","1","2","1","1,0.333,0.333,0.333,1,0.333,0.333,0.333,1","1,0.333,0.333,0.333,1,0.333,0.333,0.333,1","1",""
"","html-keyboard-response","221","61860","0.0-221.0","3W8CV64QJ3L4LLBKWJUWOVPLS7Z9H0","A2ZL5GAZK6S0H1","3D1UCPY6GGVNRONHL4UEVMXCHLT38H","","null","<img src=""img/flower2.png"" style=""width:200px; border:14px solid green;"">","null","","","","","","","","",""
"","image-keyboard-response","222","62041","0.0-222.0","3W8CV64QJ3L4LLBKWJUWOVPLS7Z9H0","A2ZL5GAZK6S0H1","3D1UCPY6GGVNRONHL4UEVMXCHLT38H","","171.5","img/flower2.png","74","178.60000038146973","1","0","2","1","1,0.333,0.333,0.333,1,0.333,0.333,0.333,1","1,0.333,0.333,0.333,1,0.333,0.333,0.333,1","1",""
"","html-keyboard-response","223","62346","0.0-223.0","3W8CV64QJ3L4LLBKWJUWOVPLS7Z9H0","A2ZL5GAZK6S0H1","3D1UCPY6GGVNRONHL4UEVMXCHLT38H","","null","<img src=""img/flower2.png"" style=""width:200px;border:14px solid red;"">","null","","","","","","","","",""
"","image-keyboard-response","224","62469","0.0-224.0","3W8CV64QJ3L4LLBKWJUWOVPLS7Z9H0","A2ZL5GAZK6S0H1","3D1UCPY6GGVNRONHL4UEVMXCHLT38H","","114.5","img/flower2.png","75","120.39999961853027","2","1","2","1","1,0.333,0.333,0.333,1,0.333,0.333,0.333,1","1,0.333,0.333,0.333,1,0.333,0.333,0.333,1","1",""
"","html-keyboard-response","225","62776","0.0-225.0","3W8CV64QJ3L4LLBKWJUWOVPLS7Z9H0","A2ZL5GAZK6S0H1","3D1UCPY6GGVNRONHL4UEVMXCHLT38H","","null","<img src=""img/flower2.png"" style=""width:200px; border:14px solid green;"">","null","","","","","","","","",""
"","image-keyboard-response","226","62937","0.0-226.0","3W8CV64QJ3L4LLBKWJUWOVPLS7Z9H0","A2ZL5GAZK6S0H1","3D1UCPY6GGVNRONHL4UEVMXCHLT38H","","157.39999961853027","img/flower5.png","76","160.80000019073486","3","1","3","1","1,0.333,0.333,0.333,1,0.333,0.333,0.333,1","1,0.333,0.333,0.333,1,0.333,0.333,0.333,1","1",""
"","html-keyboard-response","227","63244","0.0-227.0","3W8CV64QJ3L4LLBKWJUWOVPLS7Z9H0","A2ZL5GAZK6S0H1","3D1UCPY6GGVNRONHL4UEVMXCHLT38H","","null","<img src=""img/flower5.png"" style=""width:200px; border:14px solid green;"">","null","","","","","","","","",""
"","image-keyboard-response","228","63432","0.0-228.0","3W8CV64QJ3L4LLBKWJUWOVPLS7Z9H0","A2ZL5GAZK6S0H1","3D1UCPY6GGVNRONHL4UEVMXCHLT38H","","185.5999994277954","img/flower5.png","75","187.89999961853027","2","0","3","1","1,0.333,0.333,0.333,1,0.333,0.333,0.333,1","1,0.333,0.333,0.333,1,0.333,0.333,0.333,1","1",""
"","html-keyboard-response","229","63736","0.0-229.0","3W8CV64QJ3L4LLBKWJUWOVPLS7Z9H0","A2ZL5GAZK6S0H1","3D1UCPY6GGVNRONHL4UEVMXCHLT38H","","null","<img src=""img/flower5.png"" style=""width:200px;border:14px solid red;"">","null","","","","","","","","",""
"","image-keyboard-response","230","63864","0.0-230.0","3W8CV64QJ3L4LLBKWJUWOVPLS7Z9H0","A2ZL5GAZK6S0H1","3D1UCPY6GGVNRONHL4UEVMXCHLT38H","","123.60000038146973","img/flower6.png","74","127.30000019073486","1","1","1","1","1,0.333,0.333,0.333,1,0.333,0.333,0.333,1","1,0.333,0.333,0.333,1,0.333,0.333,0.333,1","1",""
"","html-keyboard-response","231","64171","0.0-231.0","3W8CV64QJ3L4LLBKWJUWOVPLS7Z9H0","A2ZL5GAZK6S0H1","3D1UCPY6GGVNRONHL4UEVMXCHLT38H","","null","<img src=""img/flower6.png"" style=""width:200px; border:14px solid green;"">","null","","","","","","","","",""
"","image-keyboard-response","232","64344","0.0-232.0","3W8CV64QJ3L4LLBKWJUWOVPLS7Z9H0","A2ZL5GAZK6S0H1","3D1UCPY6GGVNRONHL4UEVMXCHLT38H","","170.0999994277954","img/flower6.png","75","173.5","2","1","1","1","1,0.333,0.333,0.333,1,0.333,0.333,0.333,1","1,0.333,0.333,0.333,1,0.333,0.333,0.333,1","1",""
"","html-keyboard-response","233","64653","0.0-233.0","3W8CV64QJ3L4LLBKWJUWOVPLS7Z9H0","A2ZL5GAZK6S0H1","3D1UCPY6GGVNRONHL4UEVMXCHLT38H","","null","<img src=""img/flower6.png"" style=""width:200px; border:14px solid green;"">","null","","","","","","","","",""
"","image-keyboard-response","234","64756","0.0-234.0","3W8CV64QJ3L4LLBKWJUWOVPLS7Z9H0","A2ZL5GAZK6S0H1","3D1UCPY6GGVNRONHL4UEVMXCHLT38H","","98.30000019073486","img/flower5.png","76","102.39999961853027","3","1","3","1","1,0.333,0.333,0.333,1,0.333,0.333,0.333,1","1,0.333,0.333,0.333,1,0.333,0.333,0.333,1","1",""
"","html-keyboard-response","235","65060","0.0-235.0","3W8CV64QJ3L4LLBKWJUWOVPLS7Z9H0","A2ZL5GAZK6S0H1","3D1UCPY6GGVNRONHL4UEVMXCHLT38H","","null","<img src=""img/flower5.png"" style=""width:200px; border:14px solid green;"">","null","","","","","","","","",""
"","image-keyboard-response","236","65305","0.0-236.0","3W8CV64QJ3L4LLBKWJUWOVPLS7Z9H0","A2ZL5GAZK6S0H1","3D1UCPY6GGVNRONHL4UEVMXCHLT38H","","237.39999961853027","img/flower2.png","75","244.5999994277954","2","1","2","1","1,0.333,0.333,0.333,1,0.333,0.333,0.333,1","1,0.333,0.333,0.333,1,0.333,0.333,0.333,1","1",""
"","html-keyboard-response","237","65612","0.0-237.0","3W8CV64QJ3L4LLBKWJUWOVPLS7Z9H0","A2ZL5GAZK6S0H1","3D1UCPY6GGVNRONHL4UEVMXCHLT38H","","null","<img src=""img/flower2.png"" style=""width:200px; border:14px solid green;"">","null","","","","","","","","",""
"","image-keyboard-response","238","65779","0.0-238.0","3W8CV64QJ3L4LLBKWJUWOVPLS7Z9H0","A2ZL5GAZK6S0H1","3D1UCPY6GGVNRONHL4UEVMXCHLT38H","","162.80000019073486","img/flower5.png","74","166.69999980926514","1","0","3","1","1,0.333,0.333,0.333,1,0.333,0.333,0.333,1","1,0.333,0.333,0.333,1,0.333,0.333,0.333,1","1",""
"","html-keyboard-response","239","66085","0.0-239.0","3W8CV64QJ3L4LLBKWJUWOVPLS7Z9H0","A2ZL5GAZK6S0H1","3D1UCPY6GGVNRONHL4UEVMXCHLT38H","","null","<img src=""img/flower5.png"" style=""width:200px;border:14px solid red;"">","null","","","","","","","","",""
"","image-keyboard-response","240","66242","0.0-240.0","3W8CV64QJ3L4LLBKWJUWOVPLS7Z9H0","A2ZL5GAZK6S0H1","3D1UCPY6GGVNRONHL4UEVMXCHLT38H","","150.19999980926514","img/flower2.png","75","155.89999961853027","2","1","2","1","1,0.333,0.333,0.333,1,0.333,0.333,0.333,1","1,0.333,0.333,0.333,1,0.333,0.333,0.333,1","1",""
"","html-keyboard-response","241","66549","0.0-241.0","3W8CV64QJ3L4LLBKWJUWOVPLS7Z9H0","A2ZL5GAZK6S0H1","3D1UCPY6GGVNRONHL4UEVMXCHLT38H","","null","<img src=""img/flower2.png"" style=""width:200px; border:14px solid green;"">","null","","","","","","","","",""
"","image-keyboard-response","242","66767","0.0-242.0","3W8CV64QJ3L4LLBKWJUWOVPLS7Z9H0","A2ZL5GAZK6S0H1","3D1UCPY6GGVNRONHL4UEVMXCHLT38H","","212","img/flower5.png","76","216.80000019073486","3","1","3","1","1,0.333,0.333,0.333,1,0.333,0.333,0.333,1","1,0.333,0.333,0.333,1,0.333,0.333,0.333,1","1",""
"","html-keyboard-response","243","67072","0.0-243.0","3W8CV64QJ3L4LLBKWJUWOVPLS7Z9H0","A2ZL5GAZK6S0H1","3D1UCPY6GGVNRONHL4UEVMXCHLT38H","","null","<img src=""img/flower5.png"" style=""width:200px; border:14px solid green;"">","null","","","","","","","","",""
"","image-keyboard-response","244","67229","0.0-244.0","3W8CV64QJ3L4LLBKWJUWOVPLS7Z9H0","A2ZL5GAZK6S0H1","3D1UCPY6GGVNRONHL4UEVMXCHLT38H","","150.89999961853027","img/flower2.png","75","156.5","2","1","2","1","1,0.333,0.333,0.333,1,0.333,0.333,0.333,1","1,0.333,0.333,0.333,1,0.333,0.333,0.333,1","1",""
"","html-keyboard-response","245","67540","0.0-245.0","3W8CV64QJ3L4LLBKWJUWOVPLS7Z9H0","A2ZL5GAZK6S0H1","3D1UCPY6GGVNRONHL4UEVMXCHLT38H","","null","<img src=""img/flower2.png"" style=""width:200px; border:14px solid green;"">","null","","","","","","","","",""
"","image-keyboard-response","246","67672","0.0-246.0","3W8CV64QJ3L4LLBKWJUWOVPLS7Z9H0","A2ZL5GAZK6S0H1","3D1UCPY6GGVNRONHL4UEVMXCHLT38H","","125","img/flower6.png","74","130.4000005722046","1","1","1","1","1,0.333,0.333,0.333,1,0.333,0.333,0.333,1","1,0.333,0.333,0.333,1,0.333,0.333,0.333,1","1",""
"","html-keyboard-response","247","67979","0.0-247.0","3W8CV64QJ3L4LLBKWJUWOVPLS7Z9H0","A2ZL5GAZK6S0H1","3D1UCPY6GGVNRONHL4UEVMXCHLT38H","","null","<img src=""img/flower6.png"" style=""width:200px; border:14px solid green;"">","null","","","","","","","","",""
"","image-keyboard-response","248","68223","0.0-248.0","3W8CV64QJ3L4LLBKWJUWOVPLS7Z9H0","A2ZL5GAZK6S0H1","3D1UCPY6GGVNRONHL4UEVMXCHLT38H","","237.0999994277954","img/flower2.png","75","248.60000038146973","2","1","2","1","1,0.333,0.333,0.333,1,0.333,0.333,0.333,1","1,0.333,0.333,0.333,1,0.333,0.333,0.333,1","1",""
"","html-keyboard-response","249","68543","0.0-249.0","3W8CV64QJ3L4LLBKWJUWOVPLS7Z9H0","A2ZL5GAZK6S0H1","3D1UCPY6GGVNRONHL4UEVMXCHLT38H","","null","<img src=""img/flower2.png"" style=""width:200px; border:14px solid green;"">","null","","","","","","","","",""
"","image-keyboard-response","250","68765","0.0-250.0","3W8CV64QJ3L4LLBKWJUWOVPLS7Z9H0","A2ZL5GAZK6S0H1","3D1UCPY6GGVNRONHL4UEVMXCHLT38H","","215.9000005722046","img/flower6.png","74","220.5","1","1","1","1","1,0.333,0.333,0.333,1,0.333,0.333,0.333,1","1,0.333,0.333,0.333,1,0.333,0.333,0.333,1","1",""
"","html-keyboard-response","251","69069","0.0-251.0","3W8CV64QJ3L4LLBKWJUWOVPLS7Z9H0","A2ZL5GAZK6S0H1","3D1UCPY6GGVNRONHL4UEVMXCHLT38H","","null","<img src=""img/flower6.png"" style=""width:200px; border:14px solid green;"">","null","","","","","","","","",""
"","image-keyboard-response","252","69204","0.0-252.0","3W8CV64QJ3L4LLBKWJUWOVPLS7Z9H0","A2ZL5GAZK6S0H1","3D1UCPY6GGVNRONHL4UEVMXCHLT38H","","132.5999994277954","img/flower6.png","76","134.39999961853027","3","0","1","1","1,0.333,0.333,0.333,1,0.333,0.333,0.333,1","1,0.333,0.333,0.333,1,0.333,0.333,0.333,1","1",""
"","html-keyboard-response","253","69508","0.0-253.0","3W8CV64QJ3L4LLBKWJUWOVPLS7Z9H0","A2ZL5GAZK6S0H1","3D1UCPY6GGVNRONHL4UEVMXCHLT38H","","null","<img src=""img/flower6.png"" style=""width:200px;border:14px solid red;"">","null","","","","","","","","",""
"","image-keyboard-response","254","69606","0.0-254.0","3W8CV64QJ3L4LLBKWJUWOVPLS7Z9H0","A2ZL5GAZK6S0H1","3D1UCPY6GGVNRONHL4UEVMXCHLT38H","","91.39999961853027","img/flower5.png","75","97.19999980926514","2","0","3","1","1,0.333,0.333,0.333,1,0.333,0.333,0.333,1","1,0.333,0.333,0.333,1,0.333,0.333,0.333,1","1",""
"","html-keyboard-response","255","69915","0.0-255.0","3W8CV64QJ3L4LLBKWJUWOVPLS7Z9H0","A2ZL5GAZK6S0H1","3D1UCPY6GGVNRONHL4UEVMXCHLT38H","","null","<img src=""img/flower5.png"" style=""width:200px;border:14px solid red;"">","null","","","","","","","","",""
"","image-keyboard-response","256","70530","0.0-256.0","3W8CV64QJ3L4LLBKWJUWOVPLS7Z9H0","A2ZL5GAZK6S0H1","3D1UCPY6GGVNRONHL4UEVMXCHLT38H","","611.3000001907349","img/flower2.png","74","614.7000007629395","1","0","2","1","1,0.333,0.333,0.333,1,0.333,0.333,0.333,1","1,0.333,0.333,0.333,1,0.333,0.333,0.333,1","1",""
"","html-keyboard-response","257","70838","0.0-257.0","3W8CV64QJ3L4LLBKWJUWOVPLS7Z9H0","A2ZL5GAZK6S0H1","3D1UCPY6GGVNRONHL4UEVMXCHLT38H","","null","<img src=""img/flower2.png"" style=""width:200px;border:14px solid red;"">","null","","","","","","","","",""
"","image-keyboard-response","258","71073","0.0-258.0","3W8CV64QJ3L4LLBKWJUWOVPLS7Z9H0","A2ZL5GAZK6S0H1","3D1UCPY6GGVNRONHL4UEVMXCHLT38H","","230.39999961853027","img/flower5.png","75","234","2","1","3","1","1,0.333,0.333,0.333,1,0.333,0.333,0.333,1","1,0.333,0.333,0.333,1,0.333,0.333,0.333,1","1",""
"","html-keyboard-response","259","71379","0.0-259.0","3W8CV64QJ3L4LLBKWJUWOVPLS7Z9H0","A2ZL5GAZK6S0H1","3D1UCPY6GGVNRONHL4UEVMXCHLT38H","","null","<img src=""img/flower5.png"" style=""width:200px; border:14px solid green;"">","null","","","","","","","","",""
"","image-keyboard-response","260","71591","0.0-260.0","3W8CV64QJ3L4LLBKWJUWOVPLS7Z9H0","A2ZL5GAZK6S0H1","3D1UCPY6GGVNRONHL4UEVMXCHLT38H","","204.69999980926514","img/flower2.png","76","210.80000019073486","3","1","2","1","1,0.333,0.333,0.333,1,0.333,0.333,0.333,1","1,0.333,0.333,0.333,1,0.333,0.333,0.333,1","1",""
"","html-keyboard-response","261","71899","0.0-261.0","3W8CV64QJ3L4LLBKWJUWOVPLS7Z9H0","A2ZL5GAZK6S0H1","3D1UCPY6GGVNRONHL4UEVMXCHLT38H","","null","<img src=""img/flower2.png"" style=""width:200px; border:14px solid green;"">","null","","","","","","","","",""
"","image-keyboard-response","262","72062","0.0-262.0","3W8CV64QJ3L4LLBKWJUWOVPLS7Z9H0","A2ZL5GAZK6S0H1","3D1UCPY6GGVNRONHL4UEVMXCHLT38H","","156.60000038146973","img/flower6.png","75","161.89999961853027","2","1","1","1","1,0.333,0.333,0.333,1,0.333,0.333,0.333,1","1,0.333,0.333,0.333,1,0.333,0.333,0.333,1","1",""
"","html-keyboard-response","263","72370","0.0-263.0","3W8CV64QJ3L4LLBKWJUWOVPLS7Z9H0","A2ZL5GAZK6S0H1","3D1UCPY6GGVNRONHL4UEVMXCHLT38H","","null","<img src=""img/flower6.png"" style=""width:200px; border:14px solid green;"">","null","","","","","","","","",""
"","image-keyboard-response","264","72465","0.0-264.0","3W8CV64QJ3L4LLBKWJUWOVPLS7Z9H0","A2ZL5GAZK6S0H1","3D1UCPY6GGVNRONHL4UEVMXCHLT38H","","88","img/flower2.png","76","93.89999961853027","3","0","2","1","1,0.333,0.333,0.333,1,0.333,0.333,0.333,1","1,0.333,0.333,0.333,1,0.333,0.333,0.333,1","1",""
"","html-keyboard-response","265","72777","0.0-265.0","3W8CV64QJ3L4LLBKWJUWOVPLS7Z9H0","A2ZL5GAZK6S0H1","3D1UCPY6GGVNRONHL4UEVMXCHLT38H","","null","<img src=""img/flower2.png"" style=""width:200px;border:14px solid red;"">","null","","","","","","","","",""
"","image-keyboard-response","266","72995","0.0-266.0","3W8CV64QJ3L4LLBKWJUWOVPLS7Z9H0","A2ZL5GAZK6S0H1","3D1UCPY6GGVNRONHL4UEVMXCHLT38H","","214.0999994277954","img/flower5.png","76","217.70000076293945","3","1","3","1","1,0.333,0.333,0.333,1,0.333,0.333,0.333,1","1,0.333,0.333,0.333,1,0.333,0.333,0.333,1","1",""
"","html-keyboard-response","267","73303","0.0-267.0","3W8CV64QJ3L4LLBKWJUWOVPLS7Z9H0","A2ZL5GAZK6S0H1","3D1UCPY6GGVNRONHL4UEVMXCHLT38H","","null","<img src=""img/flower5.png"" style=""width:200px; border:14px solid green;"">","null","","","","","","","","",""
"","image-keyboard-response","268","73490","0.0-268.0","3W8CV64QJ3L4LLBKWJUWOVPLS7Z9H0","A2ZL5GAZK6S0H1","3D1UCPY6GGVNRONHL4UEVMXCHLT38H","","181.0999994277954","img/flower6.png","75","186.9000005722046","2","0","1","1","1,0.333,0.333,0.333,1,0.333,0.333,0.333,1","1,0.333,0.333,0.333,1,0.333,0.333,0.333,1","1",""
"","html-keyboard-response","269","73797","0.0-269.0","3W8CV64QJ3L4LLBKWJUWOVPLS7Z9H0","A2ZL5GAZK6S0H1","3D1UCPY6GGVNRONHL4UEVMXCHLT38H","","null","<img src=""img/flower6.png"" style=""width:200px;border:14px solid red;"">","null","","","","","","","","",""
"","image-keyboard-response","270","73960","0.0-270.0","3W8CV64QJ3L4LLBKWJUWOVPLS7Z9H0","A2ZL5GAZK6S0H1","3D1UCPY6GGVNRONHL4UEVMXCHLT38H","","160","img/flower2.png","74","163.29999923706055","1","1","2","1","1,0.333,0.333,0.333,1,0.333,0.333,0.333,1","1,0.333,0.333,0.333,1,0.333,0.333,0.333,1","1",""
"","html-keyboard-response","271","74271","0.0-271.0","3W8CV64QJ3L4LLBKWJUWOVPLS7Z9H0","A2ZL5GAZK6S0H1","3D1UCPY6GGVNRONHL4UEVMXCHLT38H","","null","<img src=""img/flower2.png"" style=""width:200px; border:14px solid green;"">","null","","","","","","","","",""
"","image-keyboard-response","272","74448","0.0-272.0","3W8CV64QJ3L4LLBKWJUWOVPLS7Z9H0","A2ZL5GAZK6S0H1","3D1UCPY6GGVNRONHL4UEVMXCHLT38H","","170.0999994277954","img/flower5.png","74","176","1","0","3","1","1,0.333,0.333,0.333,1,0.333,0.333,0.333,1","1,0.333,0.333,0.333,1,0.333,0.333,0.333,1","1",""
"","html-keyboard-response","273","74756","0.0-273.0","3W8CV64QJ3L4LLBKWJUWOVPLS7Z9H0","A2ZL5GAZK6S0H1","3D1UCPY6GGVNRONHL4UEVMXCHLT38H","","null","<img src=""img/flower5.png"" style=""width:200px;border:14px solid red;"">","null","","","","","","","","",""
"","image-keyboard-response","274","74907","0.0-274.0","3W8CV64QJ3L4LLBKWJUWOVPLS7Z9H0","A2ZL5GAZK6S0H1","3D1UCPY6GGVNRONHL4UEVMXCHLT38H","","147.5999994277954","img/flower5.png","75","151","2","1","3","1","1,0.333,0.333,0.333,1,0.333,0.333,0.333,1","1,0.333,0.333,0.333,1,0.333,0.333,0.333,1","1",""
"","html-keyboard-response","275","75214","0.0-275.0","3W8CV64QJ3L4LLBKWJUWOVPLS7Z9H0","A2ZL5GAZK6S0H1","3D1UCPY6GGVNRONHL4UEVMXCHLT38H","","null","<img src=""img/flower5.png"" style=""width:200px; border:14px solid green;"">","null","","","","","","","","",""
"","image-keyboard-response","276","75347","0.0-276.0","3W8CV64QJ3L4LLBKWJUWOVPLS7Z9H0","A2ZL5GAZK6S0H1","3D1UCPY6GGVNRONHL4UEVMXCHLT38H","","126.19999980926514","img/flower5.png","74","131.69999980926514","1","0","3","1","1,0.333,0.333,0.333,1,0.333,0.333,0.333,1","1,0.333,0.333,0.333,1,0.333,0.333,0.333,1","1",""
"","html-keyboard-response","277","75656","0.0-277.0","3W8CV64QJ3L4LLBKWJUWOVPLS7Z9H0","A2ZL5GAZK6S0H1","3D1UCPY6GGVNRONHL4UEVMXCHLT38H","","null","<img src=""img/flower5.png"" style=""width:200px;border:14px solid red;"">","null","","","","","","","","",""
"","image-keyboard-response","278","75868","0.0-278.0","3W8CV64QJ3L4LLBKWJUWOVPLS7Z9H0","A2ZL5GAZK6S0H1","3D1UCPY6GGVNRONHL4UEVMXCHLT38H","","206.30000019073486","img/flower6.png","75","210.80000019073486","2","0","1","1","1,0.333,0.333,0.333,1,0.333,0.333,0.333,1","1,0.333,0.333,0.333,1,0.333,0.333,0.333,1","1",""
"","html-keyboard-response","279","76174","0.0-279.0","3W8CV64QJ3L4LLBKWJUWOVPLS7Z9H0","A2ZL5GAZK6S0H1","3D1UCPY6GGVNRONHL4UEVMXCHLT38H","","null","<img src=""img/flower6.png"" style=""width:200px;border:14px solid red;"">","null","","","","","","","","",""
"","image-keyboard-response","280","76318","0.0-280.0","3W8CV64QJ3L4LLBKWJUWOVPLS7Z9H0","A2ZL5GAZK6S0H1","3D1UCPY6GGVNRONHL4UEVMXCHLT38H","","136.4000005722046","img/flower6.png","74","143.0999994277954","1","1","1","1","1,0.333,0.333,0.333,1,0.333,0.333,0.333,1","1,0.333,0.333,0.333,1,0.333,0.333,0.333,1","1",""
"","html-keyboard-response","281","76626","0.0-281.0","3W8CV64QJ3L4LLBKWJUWOVPLS7Z9H0","A2ZL5GAZK6S0H1","3D1UCPY6GGVNRONHL4UEVMXCHLT38H","","null","<img src=""img/flower6.png"" style=""width:200px; border:14px solid green;"">","null","","","","","","","","",""
"","image-keyboard-response","282","76811","0.0-282.0","3W8CV64QJ3L4LLBKWJUWOVPLS7Z9H0","A2ZL5GAZK6S0H1","3D1UCPY6GGVNRONHL4UEVMXCHLT38H","","178.30000019073486","img/flower6.png","75","184.5","2","1","1","1","1,0.333,0.333,0.333,1,0.333,0.333,0.333,1","1,0.333,0.333,0.333,1,0.333,0.333,0.333,1","1",""
"","html-keyboard-response","283","77121","0.0-283.0","3W8CV64QJ3L4LLBKWJUWOVPLS7Z9H0","A2ZL5GAZK6S0H1","3D1UCPY6GGVNRONHL4UEVMXCHLT38H","","null","<img src=""img/flower6.png"" style=""width:200px; border:14px solid green;"">","null","","","","","","","","",""
"","image-keyboard-response","284","77279","0.0-284.0","3W8CV64QJ3L4LLBKWJUWOVPLS7Z9H0","A2ZL5GAZK6S0H1","3D1UCPY6GGVNRONHL4UEVMXCHLT38H","","152","img/flower6.png","76","157.80000019073486","3","0","1","1","1,0.333,0.333,0.333,1,0.333,0.333,0.333,1","1,0.333,0.333,0.333,1,0.333,0.333,0.333,1","1",""
"","html-keyboard-response","285","77588","0.0-285.0","3W8CV64QJ3L4LLBKWJUWOVPLS7Z9H0","A2ZL5GAZK6S0H1","3D1UCPY6GGVNRONHL4UEVMXCHLT38H","","null","<img src=""img/flower6.png"" style=""width:200px;border:14px solid red;"">","null","","","","","","","","",""
"","image-keyboard-response","286","77767","0.0-286.0","3W8CV64QJ3L4LLBKWJUWOVPLS7Z9H0","A2ZL5GAZK6S0H1","3D1UCPY6GGVNRONHL4UEVMXCHLT38H","","173.19999980926514","img/flower5.png","75","177.10000038146973","2","0","3","1","1,0.333,0.333,0.333,1,0.333,0.333,0.333,1","1,0.333,0.333,0.333,1,0.333,0.333,0.333,1","1",""
"","html-keyboard-response","287","78070","0.0-287.0","3W8CV64QJ3L4LLBKWJUWOVPLS7Z9H0","A2ZL5GAZK6S0H1","3D1UCPY6GGVNRONHL4UEVMXCHLT38H","","null","<img src=""img/flower5.png"" style=""width:200px;border:14px solid red;"">","null","","","","","","","","",""
"","image-keyboard-response","288","78248","0.0-288.0","3W8CV64QJ3L4LLBKWJUWOVPLS7Z9H0","A2ZL5GAZK6S0H1","3D1UCPY6GGVNRONHL4UEVMXCHLT38H","","170.30000019073486","img/flower6.png","74","177.19999980926514","1","1","1","1","1,0.333,0.333,0.333,1,0.333,0.333,0.333,1","1,0.333,0.333,0.333,1,0.333,0.333,0.333,1","1",""
"","html-keyboard-response","289","78556","0.0-289.0","3W8CV64QJ3L4LLBKWJUWOVPLS7Z9H0","A2ZL5GAZK6S0H1","3D1UCPY6GGVNRONHL4UEVMXCHLT38H","","null","<img src=""img/flower6.png"" style=""width:200px; border:14px solid green;"">","null","","","","","","","","",""
"","image-keyboard-response","290","78737","0.0-290.0","3W8CV64QJ3L4LLBKWJUWOVPLS7Z9H0","A2ZL5GAZK6S0H1","3D1UCPY6GGVNRONHL4UEVMXCHLT38H","","175","img/flower5.png","75","180.0999994277954","2","1","3","1","1,0.333,0.333,0.333,1,0.333,0.333,0.333,1","1,0.333,0.333,0.333,1,0.333,0.333,0.333,1","1",""
"","html-keyboard-response","291","79042","0.0-291.0","3W8CV64QJ3L4LLBKWJUWOVPLS7Z9H0","A2ZL5GAZK6S0H1","3D1UCPY6GGVNRONHL4UEVMXCHLT38H","","null","<img src=""img/flower5.png"" style=""width:200px; border:14px solid green;"">","null","","","","","","","","",""
"","image-keyboard-response","292","79195","0.0-292.0","3W8CV64QJ3L4LLBKWJUWOVPLS7Z9H0","A2ZL5GAZK6S0H1","3D1UCPY6GGVNRONHL4UEVMXCHLT38H","","146.5","img/flower6.png","76","151.89999961853027","3","1","1","1","1,0.333,0.333,0.333,1,0.333,0.333,0.333,1","1,0.333,0.333,0.333,1,0.333,0.333,0.333,1","1",""
"","html-keyboard-response","293","79503","0.0-293.0","3W8CV64QJ3L4LLBKWJUWOVPLS7Z9H0","A2ZL5GAZK6S0H1","3D1UCPY6GGVNRONHL4UEVMXCHLT38H","","null","<img src=""img/flower6.png"" style=""width:200px; border:14px solid green;"">","null","","","","","","","","",""
"","image-keyboard-response","294","79665","0.0-294.0","3W8CV64QJ3L4LLBKWJUWOVPLS7Z9H0","A2ZL5GAZK6S0H1","3D1UCPY6GGVNRONHL4UEVMXCHLT38H","","155.4000005722046","img/flower5.png","75","161.39999961853027","2","0","3","1","1,0.333,0.333,0.333,1,0.333,0.333,0.333,1","1,0.333,0.333,0.333,1,0.333,0.333,0.333,1","1",""
"","html-keyboard-response","295","79972","0.0-295.0","3W8CV64QJ3L4LLBKWJUWOVPLS7Z9H0","A2ZL5GAZK6S0H1","3D1UCPY6GGVNRONHL4UEVMXCHLT38H","","null","<img src=""img/flower5.png"" style=""width:200px;border:14px solid red;"">","null","","","","","","","","",""
"","image-keyboard-response","296","80098","0.0-296.0","3W8CV64QJ3L4LLBKWJUWOVPLS7Z9H0","A2ZL5GAZK6S0H1","3D1UCPY6GGVNRONHL4UEVMXCHLT38H","","120.89999961853027","img/flower6.png","74","125.60000038146973","1","1","1","1","1,0.333,0.333,0.333,1,0.333,0.333,0.333,1","1,0.333,0.333,0.333,1,0.333,0.333,0.333,1","1",""
"","html-keyboard-response","297","80404","0.0-297.0","3W8CV64QJ3L4LLBKWJUWOVPLS7Z9H0","A2ZL5GAZK6S0H1","3D1UCPY6GGVNRONHL4UEVMXCHLT38H","","null","<img src=""img/flower6.png"" style=""width:200px; border:14px solid green;"">","null","","","","","","","","",""
"","image-keyboard-response","298","80577","0.0-298.0","3W8CV64QJ3L4LLBKWJUWOVPLS7Z9H0","A2ZL5GAZK6S0H1","3D1UCPY6GGVNRONHL4UEVMXCHLT38H","","166.89999961853027","img/flower2.png","75","171.29999923706055","2","1","2","1","1,0.333,0.333,0.333,1,0.333,0.333,0.333,1","1,0.333,0.333,0.333,1,0.333,0.333,0.333,1","1",""
"","html-keyboard-response","299","80883","0.0-299.0","3W8CV64QJ3L4LLBKWJUWOVPLS7Z9H0","A2ZL5GAZK6S0H1","3D1UCPY6GGVNRONHL4UEVMXCHLT38H","","null","<img src=""img/flower2.png"" style=""width:200px; border:14px solid green;"">","null","","","","","","","","",""
"","image-keyboard-response","300","81041","0.0-300.0","3W8CV64QJ3L4LLBKWJUWOVPLS7Z9H0","A2ZL5GAZK6S0H1","3D1UCPY6GGVNRONHL4UEVMXCHLT38H","","148.79999923706055","img/flower2.png","76","154.30000019073486","3","0","2","1","1,0.333,0.333,0.333,1,0.333,0.333,0.333,1","1,0.333,0.333,0.333,1,0.333,0.333,0.333,1","1",""
"","html-keyboard-response","301","81348","0.0-301.0","3W8CV64QJ3L4LLBKWJUWOVPLS7Z9H0","A2ZL5GAZK6S0H1","3D1UCPY6GGVNRONHL4UEVMXCHLT38H","","null","<img src=""img/flower2.png"" style=""width:200px;border:14px solid red;"">","null","","","","","","","","",""
"","image-keyboard-response","302","81493","0.0-302.0","3W8CV64QJ3L4LLBKWJUWOVPLS7Z9H0","A2ZL5GAZK6S0H1","3D1UCPY6GGVNRONHL4UEVMXCHLT38H","","141.79999923706055","img/flower6.png","75","145.19999980926514","2","1","1","1","1,0.333,0.333,0.333,1,0.333,0.333,0.333,1","1,0.333,0.333,0.333,1,0.333,0.333,0.333,1","1",""
"","html-keyboard-response","303","81800","0.0-303.0","3W8CV64QJ3L4LLBKWJUWOVPLS7Z9H0","A2ZL5GAZK6S0H1","3D1UCPY6GGVNRONHL4UEVMXCHLT38H","","null","<img src=""img/flower6.png"" style=""width:200px; border:14px solid green;"">","null","","","","","","","","",""
"","image-keyboard-response","304","82014","0.0-304.0","3W8CV64QJ3L4LLBKWJUWOVPLS7Z9H0","A2ZL5GAZK6S0H1","3D1UCPY6GGVNRONHL4UEVMXCHLT38H","","209.79999923706055","img/flower5.png","74","213.80000019073486","1","0","3","1","1,0.333,0.333,0.333,1,0.333,0.333,0.333,1","1,0.333,0.333,0.333,1,0.333,0.333,0.333,1","1",""
"","html-keyboard-response","305","82320","0.0-305.0","3W8CV64QJ3L4LLBKWJUWOVPLS7Z9H0","A2ZL5GAZK6S0H1","3D1UCPY6GGVNRONHL4UEVMXCHLT38H","","null","<img src=""img/flower5.png"" style=""width:200px;border:14px solid red;"">","null","","","","","","","","",""
"","image-keyboard-response","306","82431","0.0-306.0","3W8CV64QJ3L4LLBKWJUWOVPLS7Z9H0","A2ZL5GAZK6S0H1","3D1UCPY6GGVNRONHL4UEVMXCHLT38H","","107","img/flower5.png","75","110.5","2","0","3","1","1,0.333,0.333,0.333,1,0.333,0.333,0.333,1","1,0.333,0.333,0.333,1,0.333,0.333,0.333,1","1",""
"","html-keyboard-response","307","82739","0.0-307.0","3W8CV64QJ3L4LLBKWJUWOVPLS7Z9H0","A2ZL5GAZK6S0H1","3D1UCPY6GGVNRONHL4UEVMXCHLT38H","","null","<img src=""img/flower5.png"" style=""width:200px;border:14px solid red;"">","null","","","","","","","","",""
"","image-keyboard-response","308","82863","0.0-308.0","3W8CV64QJ3L4LLBKWJUWOVPLS7Z9H0","A2ZL5GAZK6S0H1","3D1UCPY6GGVNRONHL4UEVMXCHLT38H","","120.90000057220459","img/flower2.png","76","123.30000019073486","3","0","2","1","1,0.333,0.333,0.333,1,0.333,0.333,0.333,1","1,0.333,0.333,0.333,1,0.333,0.333,0.333,1","1",""
"","html-keyboard-response","309","83169","0.0-309.0","3W8CV64QJ3L4LLBKWJUWOVPLS7Z9H0","A2ZL5GAZK6S0H1","3D1UCPY6GGVNRONHL4UEVMXCHLT38H","","null","<img src=""img/flower2.png"" style=""width:200px;border:14px solid red;"">","null","","","","","","","","",""
"","image-keyboard-response","310","83473","0.0-310.0","3W8CV64QJ3L4LLBKWJUWOVPLS7Z9H0","A2ZL5GAZK6S0H1","3D1UCPY6GGVNRONHL4UEVMXCHLT38H","","297.8999996185303","img/flower2.png","76","303.6000003814697","3","1","2","1","1,0.333,0.333,0.333,1,0.333,0.333,0.333,1","1,0.333,0.333,0.333,1,0.333,0.333,0.333,1","1",""
"","html-keyboard-response","311","83781","0.0-311.0","3W8CV64QJ3L4LLBKWJUWOVPLS7Z9H0","A2ZL5GAZK6S0H1","3D1UCPY6GGVNRONHL4UEVMXCHLT38H","","null","<img src=""img/flower2.png"" style=""width:200px; border:14px solid green;"">","null","","","","","","","","",""
"","image-keyboard-response","312","83920","0.0-312.0","3W8CV64QJ3L4LLBKWJUWOVPLS7Z9H0","A2ZL5GAZK6S0H1","3D1UCPY6GGVNRONHL4UEVMXCHLT38H","","135.10000038146973","img/flower2.png","75","139","2","1","2","1","1,0.333,0.333,0.333,1,0.333,0.333,0.333,1","1,0.333,0.333,0.333,1,0.333,0.333,0.333,1","1",""
"","html-keyboard-response","313","84232","0.0-313.0","3W8CV64QJ3L4LLBKWJUWOVPLS7Z9H0","A2ZL5GAZK6S0H1","3D1UCPY6GGVNRONHL4UEVMXCHLT38H","","null","<img src=""img/flower2.png"" style=""width:200px; border:14px solid green;"">","null","","","","","","","","",""
"","image-keyboard-response","314","84403","0.0-314.0","3W8CV64QJ3L4LLBKWJUWOVPLS7Z9H0","A2ZL5GAZK6S0H1","3D1UCPY6GGVNRONHL4UEVMXCHLT38H","","165.60000038146973","img/flower5.png","74","169.39999961853027","1","0","3","1","1,0.333,0.333,0.333,1,0.333,0.333,0.333,1","1,0.333,0.333,0.333,1,0.333,0.333,0.333,1","1",""
"","html-keyboard-response","315","84709","0.0-315.0","3W8CV64QJ3L4LLBKWJUWOVPLS7Z9H0","A2ZL5GAZK6S0H1","3D1UCPY6GGVNRONHL4UEVMXCHLT38H","","null","<img src=""img/flower5.png"" style=""width:200px;border:14px solid red;"">","null","","","","","","","","",""
"","image-keyboard-response","316","84911","0.0-316.0","3W8CV64QJ3L4LLBKWJUWOVPLS7Z9H0","A2ZL5GAZK6S0H1","3D1UCPY6GGVNRONHL4UEVMXCHLT38H","","188.89999961853027","img/flower6.png","75","194.4000005722046","2","1","1","1","1,0.333,0.333,0.333,1,0.333,0.333,0.333,1","1,0.333,0.333,0.333,1,0.333,0.333,0.333,1","1",""
"","html-keyboard-response","317","85219","0.0-317.0","3W8CV64QJ3L4LLBKWJUWOVPLS7Z9H0","A2ZL5GAZK6S0H1","3D1UCPY6GGVNRONHL4UEVMXCHLT38H","","null","<img src=""img/flower6.png"" style=""width:200px; border:14px solid green;"">","null","","","","","","","","",""
"","image-keyboard-response","318","85443","0.0-318.0","3W8CV64QJ3L4LLBKWJUWOVPLS7Z9H0","A2ZL5GAZK6S0H1","3D1UCPY6GGVNRONHL4UEVMXCHLT38H","","217.5","img/flower6.png","76","223","3","1","1","1","1,0.333,0.333,0.333,1,0.333,0.333,0.333,1","1,0.333,0.333,0.333,1,0.333,0.333,0.333,1","1",""
"","html-keyboard-response","319","85751","0.0-319.0","3W8CV64QJ3L4LLBKWJUWOVPLS7Z9H0","A2ZL5GAZK6S0H1","3D1UCPY6GGVNRONHL4UEVMXCHLT38H","","null","<img src=""img/flower6.png"" style=""width:200px; border:14px solid green;"">","null","","","","","","","","",""
"","image-keyboard-response","320","85912","0.0-320.0","3W8CV64QJ3L4LLBKWJUWOVPLS7Z9H0","A2ZL5GAZK6S0H1","3D1UCPY6GGVNRONHL4UEVMXCHLT38H","","157.30000019073486","img/flower6.png","75","160.60000038146973","2","0","1","1","1,0.333,0.333,0.333,1,0.333,0.333,0.333,1","1,0.333,0.333,0.333,1,0.333,0.333,0.333,1","1",""
"","html-keyboard-response","321","86221","0.0-321.0","3W8CV64QJ3L4LLBKWJUWOVPLS7Z9H0","A2ZL5GAZK6S0H1","3D1UCPY6GGVNRONHL4UEVMXCHLT38H","","null","<img src=""img/flower6.png"" style=""width:200px;border:14px solid red;"">","null","","","","","","","","",""
"","image-keyboard-response","322","86736","0.0-322.0","3W8CV64QJ3L4LLBKWJUWOVPLS7Z9H0","A2ZL5GAZK6S0H1","3D1UCPY6GGVNRONHL4UEVMXCHLT38H","","508","img/flower5.png","74","513.6000003814697","1","0","3","1","1,0.333,0.333,0.333,1,0.333,0.333,0.333,1","1,0.333,0.333,0.333,1,0.333,0.333,0.333,1","1",""
"","html-keyboard-response","323","87041","0.0-323.0","3W8CV64QJ3L4LLBKWJUWOVPLS7Z9H0","A2ZL5GAZK6S0H1","3D1UCPY6GGVNRONHL4UEVMXCHLT38H","","null","<img src=""img/flower5.png"" style=""width:200px;border:14px solid red;"">","null","","","","","","","","",""
"","image-keyboard-response","324","87243","0.0-324.0","3W8CV64QJ3L4LLBKWJUWOVPLS7Z9H0","A2ZL5GAZK6S0H1","3D1UCPY6GGVNRONHL4UEVMXCHLT38H","","192","img/flower6.png","74","200.10000038146973","1","1","1","1","1,0.333,0.333,0.333,1,0.333,0.333,0.333,1","1,0.333,0.333,0.333,1,0.333,0.333,0.333,1","1",""
"","html-keyboard-response","325","87550","0.0-325.0","3W8CV64QJ3L4LLBKWJUWOVPLS7Z9H0","A2ZL5GAZK6S0H1","3D1UCPY6GGVNRONHL4UEVMXCHLT38H","","null","<img src=""img/flower6.png"" style=""width:200px; border:14px solid green;"">","null","","","","","","","","",""
"","image-keyboard-response","326","87816","0.0-326.0","3W8CV64QJ3L4LLBKWJUWOVPLS7Z9H0","A2ZL5GAZK6S0H1","3D1UCPY6GGVNRONHL4UEVMXCHLT38H","","260.5999994277954","img/flower2.png","75","265","2","1","2","1","1,0.333,0.333,0.333,1,0.333,0.333,0.333,1","1,0.333,0.333,0.333,1,0.333,0.333,0.333,1","1",""
"","html-keyboard-response","327","88127","0.0-327.0","3W8CV64QJ3L4LLBKWJUWOVPLS7Z9H0","A2ZL5GAZK6S0H1","3D1UCPY6GGVNRONHL4UEVMXCHLT38H","","null","<img src=""img/flower2.png"" style=""width:200px; border:14px solid green;"">","null","","","","","","","","",""
"","image-keyboard-response","328","88430","0.0-328.0","3W8CV64QJ3L4LLBKWJUWOVPLS7Z9H0","A2ZL5GAZK6S0H1","3D1UCPY6GGVNRONHL4UEVMXCHLT38H","","295.79999923706055","img/flower6.png","76","301.69999980926514","3","1","1","1","1,0.333,0.333,0.333,1,0.333,0.333,0.333,1","1,0.333,0.333,0.333,1,0.333,0.333,0.333,1","1",""
"","html-keyboard-response","329","88738","0.0-329.0","3W8CV64QJ3L4LLBKWJUWOVPLS7Z9H0","A2ZL5GAZK6S0H1","3D1UCPY6GGVNRONHL4UEVMXCHLT38H","","null","<img src=""img/flower6.png"" style=""width:200px; border:14px solid green;"">","null","","","","","","","","",""
"","image-keyboard-response","330","88884","0.0-330.0","3W8CV64QJ3L4LLBKWJUWOVPLS7Z9H0","A2ZL5GAZK6S0H1","3D1UCPY6GGVNRONHL4UEVMXCHLT38H","","142.20000076293945","img/flower2.png","75","146.5","2","1","2","1","1,0.333,0.333,0.333,1,0.333,0.333,0.333,1","1,0.333,0.333,0.333,1,0.333,0.333,0.333,1","1",""
"","html-keyboard-response","331","89192","0.0-331.0","3W8CV64QJ3L4LLBKWJUWOVPLS7Z9H0","A2ZL5GAZK6S0H1","3D1UCPY6GGVNRONHL4UEVMXCHLT38H","","null","<img src=""img/flower2.png"" style=""width:200px; border:14px solid green;"">","null","","","","","","","","",""
"","image-keyboard-response","332","89380","0.0-332.0","3W8CV64QJ3L4LLBKWJUWOVPLS7Z9H0","A2ZL5GAZK6S0H1","3D1UCPY6GGVNRONHL4UEVMXCHLT38H","","178.80000019073486","img/flower2.png","76","185.9000005722046","3","0","2","1","1,0.333,0.333,0.333,1,0.333,0.333,0.333,1","1,0.333,0.333,0.333,1,0.333,0.333,0.333,1","1",""
"","html-keyboard-response","333","89689","0.0-333.0","3W8CV64QJ3L4LLBKWJUWOVPLS7Z9H0","A2ZL5GAZK6S0H1","3D1UCPY6GGVNRONHL4UEVMXCHLT38H","","null","<img src=""img/flower2.png"" style=""width:200px;border:14px solid red;"">","null","","","","","","","","",""
"","image-keyboard-response","334","89842","0.0-334.0","3W8CV64QJ3L4LLBKWJUWOVPLS7Z9H0","A2ZL5GAZK6S0H1","3D1UCPY6GGVNRONHL4UEVMXCHLT38H","","143.89999961853027","img/flower2.png","75","153.80000019073486","2","1","2","1","1,0.333,0.333,0.333,1,0.333,0.333,0.333,1","1,0.333,0.333,0.333,1,0.333,0.333,0.333,1","1",""
"","html-keyboard-response","335","90152","0.0-335.0","3W8CV64QJ3L4LLBKWJUWOVPLS7Z9H0","A2ZL5GAZK6S0H1","3D1UCPY6GGVNRONHL4UEVMXCHLT38H","","null","<img src=""img/flower2.png"" style=""width:200px; border:14px solid green;"">","null","","","","","","","","",""
"","image-keyboard-response","336","90330","0.0-336.0","3W8CV64QJ3L4LLBKWJUWOVPLS7Z9H0","A2ZL5GAZK6S0H1","3D1UCPY6GGVNRONHL4UEVMXCHLT38H","","171.89999961853027","img/flower6.png","76","178.0999994277954","3","0","1","1","1,0.333,0.333,0.333,1,0.333,0.333,0.333,1","1,0.333,0.333,0.333,1,0.333,0.333,0.333,1","1",""
"","html-keyboard-response","337","90652","0.0-337.0","3W8CV64QJ3L4LLBKWJUWOVPLS7Z9H0","A2ZL5GAZK6S0H1","3D1UCPY6GGVNRONHL4UEVMXCHLT38H","","null","<img src=""img/flower6.png"" style=""width:200px;border:14px solid red;"">","null","","","","","","","","",""
"","image-keyboard-response","338","90821","0.0-338.0","3W8CV64QJ3L4LLBKWJUWOVPLS7Z9H0","A2ZL5GAZK6S0H1","3D1UCPY6GGVNRONHL4UEVMXCHLT38H","","161.0999994277954","img/flower5.png","75","168.30000019073486","2","1","3","1","1,0.333,0.333,0.333,1,0.333,0.333,0.333,1","1,0.333,0.333,0.333,1,0.333,0.333,0.333,1","1",""
"","html-keyboard-response","339","91126","0.0-339.0","3W8CV64QJ3L4LLBKWJUWOVPLS7Z9H0","A2ZL5GAZK6S0H1","3D1UCPY6GGVNRONHL4UEVMXCHLT38H","","null","<img src=""img/flower5.png"" style=""width:200px; border:14px solid green;"">","null","","","","","","","","",""
"","image-keyboard-response","340","91348","0.0-340.0","3W8CV64QJ3L4LLBKWJUWOVPLS7Z9H0","A2ZL5GAZK6S0H1","3D1UCPY6GGVNRONHL4UEVMXCHLT38H","","213.89999961853027","img/flower6.png","74","220.80000019073486","1","1","1","1","1,0.333,0.333,0.333,1,0.333,0.333,0.333,1","1,0.333,0.333,0.333,1,0.333,0.333,0.333,1","1",""
"","html-keyboard-response","341","91652","0.0-341.0","3W8CV64QJ3L4LLBKWJUWOVPLS7Z9H0","A2ZL5GAZK6S0H1","3D1UCPY6GGVNRONHL4UEVMXCHLT38H","","null","<img src=""img/flower6.png"" style=""width:200px; border:14px solid green;"">","null","","","","","","","","",""
"","image-keyboard-response","342","91767","0.0-342.0","3W8CV64QJ3L4LLBKWJUWOVPLS7Z9H0","A2ZL5GAZK6S0H1","3D1UCPY6GGVNRONHL4UEVMXCHLT38H","","112.39999961853027","img/flower5.png","75","114.60000038146973","2","0","3","1","1,0.333,0.333,0.333,1,0.333,0.333,0.333,1","1,0.333,0.333,0.333,1,0.333,0.333,0.333,1","1",""
"","html-keyboard-response","343","92071","0.0-343.0","3W8CV64QJ3L4LLBKWJUWOVPLS7Z9H0","A2ZL5GAZK6S0H1","3D1UCPY6GGVNRONHL4UEVMXCHLT38H","","null","<img src=""img/flower5.png"" style=""width:200px;border:14px solid red;"">","null","","","","","","","","",""
"","image-keyboard-response","344","92290","0.0-344.0","3W8CV64QJ3L4LLBKWJUWOVPLS7Z9H0","A2ZL5GAZK6S0H1","3D1UCPY6GGVNRONHL4UEVMXCHLT38H","","212.60000038146973","img/flower5.png","74","218.39999961853027","1","1","3","1","1,0.333,0.333,0.333,1,0.333,0.333,0.333,1","1,0.333,0.333,0.333,1,0.333,0.333,0.333,1","1",""
"","html-keyboard-response","345","92603","0.0-345.0","3W8CV64QJ3L4LLBKWJUWOVPLS7Z9H0","A2ZL5GAZK6S0H1","3D1UCPY6GGVNRONHL4UEVMXCHLT38H","","null","<img src=""img/flower5.png"" style=""width:200px; border:14px solid green;"">","null","","","","","","","","",""
"","image-keyboard-response","346","92751","0.0-346.0","3W8CV64QJ3L4LLBKWJUWOVPLS7Z9H0","A2ZL5GAZK6S0H1","3D1UCPY6GGVNRONHL4UEVMXCHLT38H","","139.69999980926514","img/flower5.png","75","143.5999994277954","2","0","3","1","1,0.333,0.333,0.333,1,0.333,0.333,0.333,1","1,0.333,0.333,0.333,1,0.333,0.333,0.333,1","1",""
"","html-keyboard-response","347","93061","0.0-347.0","3W8CV64QJ3L4LLBKWJUWOVPLS7Z9H0","A2ZL5GAZK6S0H1","3D1UCPY6GGVNRONHL4UEVMXCHLT38H","","null","<img src=""img/flower5.png"" style=""width:200px;border:14px solid red;"">","null","","","","","","","","",""
"","image-keyboard-response","348","93259","0.0-348.0","3W8CV64QJ3L4LLBKWJUWOVPLS7Z9H0","A2ZL5GAZK6S0H1","3D1UCPY6GGVNRONHL4UEVMXCHLT38H","","192.60000038146973","img/flower5.png","76","197.89999961853027","3","1","3","1","1,0.333,0.333,0.333,1,0.333,0.333,0.333,1","1,0.333,0.333,0.333,1,0.333,0.333,0.333,1","1",""
"","html-keyboard-response","349","93572","0.0-349.0","3W8CV64QJ3L4LLBKWJUWOVPLS7Z9H0","A2ZL5GAZK6S0H1","3D1UCPY6GGVNRONHL4UEVMXCHLT38H","","null","<img src=""img/flower5.png"" style=""width:200px; border:14px solid green;"">","null","","","","","","","","",""
"","image-keyboard-response","350","93738","0.0-350.0","3W8CV64QJ3L4LLBKWJUWOVPLS7Z9H0","A2ZL5GAZK6S0H1","3D1UCPY6GGVNRONHL4UEVMXCHLT38H","","160.80000019073486","img/flower2.png","75","165.5","2","1","2","1","1,0.333,0.333,0.333,1,0.333,0.333,0.333,1","1,0.333,0.333,0.333,1,0.333,0.333,0.333,1","1",""
"","html-keyboard-response","351","94045","0.0-351.0","3W8CV64QJ3L4LLBKWJUWOVPLS7Z9H0","A2ZL5GAZK6S0H1","3D1UCPY6GGVNRONHL4UEVMXCHLT38H","","null","<img src=""img/flower2.png"" style=""width:200px; border:14px solid green;"">","null","","","","","","","","",""
"","image-keyboard-response","352","94220","0.0-352.0","3W8CV64QJ3L4LLBKWJUWOVPLS7Z9H0","A2ZL5GAZK6S0H1","3D1UCPY6GGVNRONHL4UEVMXCHLT38H","","168.9000005722046","img/flower5.png","74","174.29999923706055","1","0","3","1","1,0.333,0.333,0.333,1,0.333,0.333,0.333,1","1,0.333,0.333,0.333,1,0.333,0.333,0.333,1","1",""
"","html-keyboard-response","353","94525","0.0-353.0","3W8CV64QJ3L4LLBKWJUWOVPLS7Z9H0","A2ZL5GAZK6S0H1","3D1UCPY6GGVNRONHL4UEVMXCHLT38H","","null","<img src=""img/flower5.png"" style=""width:200px;border:14px solid red;"">","null","","","","","","","","",""
"","image-keyboard-response","354","94700","0.0-354.0","3W8CV64QJ3L4LLBKWJUWOVPLS7Z9H0","A2ZL5GAZK6S0H1","3D1UCPY6GGVNRONHL4UEVMXCHLT38H","","168.60000038146973","img/flower2.png","74","174.0999994277954","1","0","2","1","1,0.333,0.333,0.333,1,0.333,0.333,0.333,1","1,0.333,0.333,0.333,1,0.333,0.333,0.333,1","1",""
"","html-keyboard-response","355","95012","0.0-355.0","3W8CV64QJ3L4LLBKWJUWOVPLS7Z9H0","A2ZL5GAZK6S0H1","3D1UCPY6GGVNRONHL4UEVMXCHLT38H","","null","<img src=""img/flower2.png"" style=""width:200px;border:14px solid red;"">","null","","","","","","","","",""
"","image-keyboard-response","356","95178","0.0-356.0","3W8CV64QJ3L4LLBKWJUWOVPLS7Z9H0","A2ZL5GAZK6S0H1","3D1UCPY6GGVNRONHL4UEVMXCHLT38H","","158.0999994277954","img/flower2.png","75","165","2","1","2","1","1,0.333,0.333,0.333,1,0.333,0.333,0.333,1","1,0.333,0.333,0.333,1,0.333,0.333,0.333,1","1",""
"","html-keyboard-response","357","95486","0.0-357.0","3W8CV64QJ3L4LLBKWJUWOVPLS7Z9H0","A2ZL5GAZK6S0H1","3D1UCPY6GGVNRONHL4UEVMXCHLT38H","","null","<img src=""img/flower2.png"" style=""width:200px; border:14px solid green;"">","null","","","","","","","","",""
"","image-keyboard-response","358","95655","0.0-358.0","3W8CV64QJ3L4LLBKWJUWOVPLS7Z9H0","A2ZL5GAZK6S0H1","3D1UCPY6GGVNRONHL4UEVMXCHLT38H","","162.4000005722046","img/flower2.png","76","168.30000019073486","3","0","2","1","1,0.333,0.333,0.333,1,0.333,0.333,0.333,1","1,0.333,0.333,0.333,1,0.333,0.333,0.333,1","1",""
"","html-keyboard-response","359","95963","0.0-359.0","3W8CV64QJ3L4LLBKWJUWOVPLS7Z9H0","A2ZL5GAZK6S0H1","3D1UCPY6GGVNRONHL4UEVMXCHLT38H","","null","<img src=""img/flower2.png"" style=""width:200px;border:14px solid red;"">","null","","","","","","","","",""
"","image-keyboard-response","360","96108","0.0-360.0","3W8CV64QJ3L4LLBKWJUWOVPLS7Z9H0","A2ZL5GAZK6S0H1","3D1UCPY6GGVNRONHL4UEVMXCHLT38H","","139.19999980926514","img/flower5.png","75","144","2","0","3","1","1,0.333,0.333,0.333,1,0.333,0.333,0.333,1","1,0.333,0.333,0.333,1,0.333,0.333,0.333,1","1",""
"","html-keyboard-response","361","96414","0.0-361.0","3W8CV64QJ3L4LLBKWJUWOVPLS7Z9H0","A2ZL5GAZK6S0H1","3D1UCPY6GGVNRONHL4UEVMXCHLT38H","","null","<img src=""img/flower5.png"" style=""width:200px;border:14px solid red;"">","null","","","","","","","","",""
"","html-keyboard-response","362","99161","0.0-362.0","3W8CV64QJ3L4LLBKWJUWOVPLS7Z9H0","A2ZL5GAZK6S0H1","3D1UCPY6GGVNRONHL4UEVMXCHLT38H","","","","","","","","","","","","",""
"","instructions","363","100355","0.0-363.0","3W8CV64QJ3L4LLBKWJUWOVPLS7Z9H0","A2ZL5GAZK6S0H1","3D1UCPY6GGVNRONHL4UEVMXCHLT38H","[{""page_index"":0,""viewing_time"":1187.5}]","1189.3000001907349","","","","","","","","","","",""
"","survey-text","364","103621","0.0-364.0","3W8CV64QJ3L4LLBKWJUWOVPLS7Z9H0","A2ZL5GAZK6S0H1","3D1UCPY6GGVNRONHL4UEVMXCHLT38H","","3249.4000005722046","","","","","","","","","","","{""Q0"":""A2ZL5GAZK6S0H1""}"
