"success","trial_type","trial_index","time_elapsed","internal_node_id","assignmentID","mturkID","hitID","view_history","rt","stimulus","key_press","reactionTime","a","r","s","cond","reward_cond","reward_cond_actual","reward_matrix_idx","responses"
"true","fullscreen","0","10376","0.0-0.0","3SB5N7Y3O4Q8PVSWCHTLAKCRAAH0GJ","A307K1CZXGBN4L","3MXX6RQ9EVRTFC527Z18RDK8KW6P4R","","","","","","","","","","","","",""
"","instructions","1","36989","0.0-1.0","3SB5N7Y3O4Q8PVSWCHTLAKCRAAH0GJ","A307K1CZXGBN4L","3MXX6RQ9EVRTFC527Z18RDK8KW6P4R","[{""page_index"":0,""viewing_time"":2705},{""page_index"":1,""viewing_time"":2331},{""page_index"":2,""viewing_time"":2548},{""page_index"":3,""viewing_time"":1785},{""page_index"":4,""viewing_time"":9100},{""page_index"":5,""viewing_time"":2115},{""page_index"":6,""viewing_time"":3616},{""page_index"":7,""viewing_time"":2408}]","26610","","","","","","","","","","",""
"","image-keyboard-response","2","38327","0.0-2.0","3SB5N7Y3O4Q8PVSWCHTLAKCRAAH0GJ","A307K1CZXGBN4L","3MXX6RQ9EVRTFC527Z18RDK8KW6P4R","","1332","img/flower5.png","74","1338","1","0","3","1","1,0.333,0.333,0.333,1,0.333,0.333,0.333,1","1,0.333,0.333,0.333,1,0.333,0.333,0.333,1","1",""
"","html-keyboard-response","3","38636","0.0-3.0","3SB5N7Y3O4Q8PVSWCHTLAKCRAAH0GJ","A307K1CZXGBN4L","3MXX6RQ9EVRTFC527Z18RDK8KW6P4R","","null","<img src=""img/flower5.png"" style=""width:200px;border:14px solid red;"">","null","","","","","","","","",""
"","image-keyboard-response","4","39208","0.0-4.0","3SB5N7Y3O4Q8PVSWCHTLAKCRAAH0GJ","A307K1CZXGBN4L","3MXX6RQ9EVRTFC527Z18RDK8KW6P4R","","569","img/flower1.png","74","570","1","0","2","1","1,0.333,0.333,0.333,1,0.333,0.333,0.333,1","1,0.333,0.333,0.333,1,0.333,0.333,0.333,1","1",""
"","html-keyboard-response","5","39510","0.0-5.0","3SB5N7Y3O4Q8PVSWCHTLAKCRAAH0GJ","A307K1CZXGBN4L","3MXX6RQ9EVRTFC527Z18RDK8KW6P4R","","null","<img src=""img/flower1.png"" style=""width:200px;border:14px solid red;"">","null","","","","","","","","",""
"","image-keyboard-response","6","40213","0.0-6.0","3SB5N7Y3O4Q8PVSWCHTLAKCRAAH0GJ","A307K1CZXGBN4L","3MXX6RQ9EVRTFC527Z18RDK8KW6P4R","","701","img/flower6.png","74","703","1","1","1","1","1,0.333,0.333,0.333,1,0.333,0.333,0.333,1","1,0.333,0.333,0.333,1,0.333,0.333,0.333,1","1",""
"","html-keyboard-response","7","40516","0.0-7.0","3SB5N7Y3O4Q8PVSWCHTLAKCRAAH0GJ","A307K1CZXGBN4L","3MXX6RQ9EVRTFC527Z18RDK8KW6P4R","","null","<img src=""img/flower6.png"" style=""width:200px; border:14px solid green;"">","null","","","","","","","","",""
"","image-keyboard-response","8","41870","0.0-8.0","3SB5N7Y3O4Q8PVSWCHTLAKCRAAH0GJ","A307K1CZXGBN4L","3MXX6RQ9EVRTFC527Z18RDK8KW6P4R","","1353","img/flower1.png","75","1354","2","1","2","1","1,0.333,0.333,0.333,1,0.333,0.333,0.333,1","1,0.333,0.333,0.333,1,0.333,0.333,0.333,1","1",""
"","html-keyboard-response","9","42172","0.0-9.0","3SB5N7Y3O4Q8PVSWCHTLAKCRAAH0GJ","A307K1CZXGBN4L","3MXX6RQ9EVRTFC527Z18RDK8KW6P4R","","null","<img src=""img/flower1.png"" style=""width:200px; border:14px solid green;"">","null","","","","","","","","",""
"","image-keyboard-response","10","42926","0.0-10.0","3SB5N7Y3O4Q8PVSWCHTLAKCRAAH0GJ","A307K1CZXGBN4L","3MXX6RQ9EVRTFC527Z18RDK8KW6P4R","","752","img/flower5.png","75","754","2","1","3","1","1,0.333,0.333,0.333,1,0.333,0.333,0.333,1","1,0.333,0.333,0.333,1,0.333,0.333,0.333,1","1",""
"","html-keyboard-response","11","43228","0.0-11.0","3SB5N7Y3O4Q8PVSWCHTLAKCRAAH0GJ","A307K1CZXGBN4L","3MXX6RQ9EVRTFC527Z18RDK8KW6P4R","","null","<img src=""img/flower5.png"" style=""width:200px; border:14px solid green;"">","null","","","","","","","","",""
"","image-keyboard-response","12","43871","0.0-12.0","3SB5N7Y3O4Q8PVSWCHTLAKCRAAH0GJ","A307K1CZXGBN4L","3MXX6RQ9EVRTFC527Z18RDK8KW6P4R","","642","img/flower6.png","75","643","2","0","1","1","1,0.333,0.333,0.333,1,0.333,0.333,0.333,1","1,0.333,0.333,0.333,1,0.333,0.333,0.333,1","1",""
"","html-keyboard-response","13","44172","0.0-13.0","3SB5N7Y3O4Q8PVSWCHTLAKCRAAH0GJ","A307K1CZXGBN4L","3MXX6RQ9EVRTFC527Z18RDK8KW6P4R","","null","<img src=""img/flower6.png"" style=""width:200px;border:14px solid red;"">","null","","","","","","","","",""
"","image-keyboard-response","14","44726","0.0-14.0","3SB5N7Y3O4Q8PVSWCHTLAKCRAAH0GJ","A307K1CZXGBN4L","3MXX6RQ9EVRTFC527Z18RDK8KW6P4R","","551","img/flower1.png","75","553","2","1","2","1","1,0.333,0.333,0.333,1,0.333,0.333,0.333,1","1,0.333,0.333,0.333,1,0.333,0.333,0.333,1","1",""
"","html-keyboard-response","15","45028","0.0-15.0","3SB5N7Y3O4Q8PVSWCHTLAKCRAAH0GJ","A307K1CZXGBN4L","3MXX6RQ9EVRTFC527Z18RDK8KW6P4R","","null","<img src=""img/flower1.png"" style=""width:200px; border:14px solid green;"">","null","","","","","","","","",""
"","image-keyboard-response","16","45517","0.0-16.0","3SB5N7Y3O4Q8PVSWCHTLAKCRAAH0GJ","A307K1CZXGBN4L","3MXX6RQ9EVRTFC527Z18RDK8KW6P4R","","489","img/flower5.png","75","489","2","0","3","1","1,0.333,0.333,0.333,1,0.333,0.333,0.333,1","1,0.333,0.333,0.333,1,0.333,0.333,0.333,1","1",""
"","html-keyboard-response","17","45819","0.0-17.0","3SB5N7Y3O4Q8PVSWCHTLAKCRAAH0GJ","A307K1CZXGBN4L","3MXX6RQ9EVRTFC527Z18RDK8KW6P4R","","null","<img src=""img/flower5.png"" style=""width:200px;border:14px solid red;"">","null","","","","","","","","",""
"","image-keyboard-response","18","46414","0.0-18.0","3SB5N7Y3O4Q8PVSWCHTLAKCRAAH0GJ","A307K1CZXGBN4L","3MXX6RQ9EVRTFC527Z18RDK8KW6P4R","","593","img/flower6.png","75","594","2","0","1","1","1,0.333,0.333,0.333,1,0.333,0.333,0.333,1","1,0.333,0.333,0.333,1,0.333,0.333,0.333,1","1",""
"","html-keyboard-response","19","46716","0.0-19.0","3SB5N7Y3O4Q8PVSWCHTLAKCRAAH0GJ","A307K1CZXGBN4L","3MXX6RQ9EVRTFC527Z18RDK8KW6P4R","","null","<img src=""img/flower6.png"" style=""width:200px;border:14px solid red;"">","null","","","","","","","","",""
"","image-keyboard-response","20","47207","0.0-20.0","3SB5N7Y3O4Q8PVSWCHTLAKCRAAH0GJ","A307K1CZXGBN4L","3MXX6RQ9EVRTFC527Z18RDK8KW6P4R","","490","img/flower6.png","75","490","2","0","1","1","1,0.333,0.333,0.333,1,0.333,0.333,0.333,1","1,0.333,0.333,0.333,1,0.333,0.333,0.333,1","1",""
"","html-keyboard-response","21","47510","0.0-21.0","3SB5N7Y3O4Q8PVSWCHTLAKCRAAH0GJ","A307K1CZXGBN4L","3MXX6RQ9EVRTFC527Z18RDK8KW6P4R","","null","<img src=""img/flower6.png"" style=""width:200px;border:14px solid red;"">","null","","","","","","","","",""
"","image-keyboard-response","22","48183","0.0-22.0","3SB5N7Y3O4Q8PVSWCHTLAKCRAAH0GJ","A307K1CZXGBN4L","3MXX6RQ9EVRTFC527Z18RDK8KW6P4R","","672","img/flower5.png","75","673","2","1","3","1","1,0.333,0.333,0.333,1,0.333,0.333,0.333,1","1,0.333,0.333,0.333,1,0.333,0.333,0.333,1","1",""
"","html-keyboard-response","23","48486","0.0-23.0","3SB5N7Y3O4Q8PVSWCHTLAKCRAAH0GJ","A307K1CZXGBN4L","3MXX6RQ9EVRTFC527Z18RDK8KW6P4R","","null","<img src=""img/flower5.png"" style=""width:200px; border:14px solid green;"">","null","","","","","","","","",""
"","image-keyboard-response","24","49749","0.0-24.0","3SB5N7Y3O4Q8PVSWCHTLAKCRAAH0GJ","A307K1CZXGBN4L","3MXX6RQ9EVRTFC527Z18RDK8KW6P4R","","1262","img/flower6.png","75","1266","2","0","1","1","1,0.333,0.333,0.333,1,0.333,0.333,0.333,1","1,0.333,0.333,0.333,1,0.333,0.333,0.333,1","1",""
"","html-keyboard-response","25","50054","0.0-25.0","3SB5N7Y3O4Q8PVSWCHTLAKCRAAH0GJ","A307K1CZXGBN4L","3MXX6RQ9EVRTFC527Z18RDK8KW6P4R","","null","<img src=""img/flower6.png"" style=""width:200px;border:14px solid red;"">","null","","","","","","","","",""
"","image-keyboard-response","26","50558","0.0-26.0","3SB5N7Y3O4Q8PVSWCHTLAKCRAAH0GJ","A307K1CZXGBN4L","3MXX6RQ9EVRTFC527Z18RDK8KW6P4R","","501","img/flower1.png","75","502","2","1","2","1","1,0.333,0.333,0.333,1,0.333,0.333,0.333,1","1,0.333,0.333,0.333,1,0.333,0.333,0.333,1","1",""
"","html-keyboard-response","27","50859","0.0-27.0","3SB5N7Y3O4Q8PVSWCHTLAKCRAAH0GJ","A307K1CZXGBN4L","3MXX6RQ9EVRTFC527Z18RDK8KW6P4R","","null","<img src=""img/flower1.png"" style=""width:200px; border:14px solid green;"">","null","","","","","","","","",""
"","image-keyboard-response","28","51341","0.0-28.0","3SB5N7Y3O4Q8PVSWCHTLAKCRAAH0GJ","A307K1CZXGBN4L","3MXX6RQ9EVRTFC527Z18RDK8KW6P4R","","480","img/flower5.png","75","483","2","0","3","1","1,0.333,0.333,0.333,1,0.333,0.333,0.333,1","1,0.333,0.333,0.333,1,0.333,0.333,0.333,1","1",""
"","html-keyboard-response","29","51642","0.0-29.0","3SB5N7Y3O4Q8PVSWCHTLAKCRAAH0GJ","A307K1CZXGBN4L","3MXX6RQ9EVRTFC527Z18RDK8KW6P4R","","null","<img src=""img/flower5.png"" style=""width:200px;border:14px solid red;"">","null","","","","","","","","",""
"","image-keyboard-response","30","52054","0.0-30.0","3SB5N7Y3O4Q8PVSWCHTLAKCRAAH0GJ","A307K1CZXGBN4L","3MXX6RQ9EVRTFC527Z18RDK8KW6P4R","","409","img/flower1.png","75","411","2","1","2","1","1,0.333,0.333,0.333,1,0.333,0.333,0.333,1","1,0.333,0.333,0.333,1,0.333,0.333,0.333,1","1",""
"","html-keyboard-response","31","52355","0.0-31.0","3SB5N7Y3O4Q8PVSWCHTLAKCRAAH0GJ","A307K1CZXGBN4L","3MXX6RQ9EVRTFC527Z18RDK8KW6P4R","","null","<img src=""img/flower1.png"" style=""width:200px; border:14px solid green;"">","null","","","","","","","","",""
"","image-keyboard-response","32","52823","0.0-32.0","3SB5N7Y3O4Q8PVSWCHTLAKCRAAH0GJ","A307K1CZXGBN4L","3MXX6RQ9EVRTFC527Z18RDK8KW6P4R","","464","img/flower5.png","75","467","2","0","3","1","1,0.333,0.333,0.333,1,0.333,0.333,0.333,1","1,0.333,0.333,0.333,1,0.333,0.333,0.333,1","1",""
"","html-keyboard-response","33","53124","0.0-33.0","3SB5N7Y3O4Q8PVSWCHTLAKCRAAH0GJ","A307K1CZXGBN4L","3MXX6RQ9EVRTFC527Z18RDK8KW6P4R","","null","<img src=""img/flower5.png"" style=""width:200px;border:14px solid red;"">","null","","","","","","","","",""
"","image-keyboard-response","34","53166","0.0-34.0","3SB5N7Y3O4Q8PVSWCHTLAKCRAAH0GJ","A307K1CZXGBN4L","3MXX6RQ9EVRTFC527Z18RDK8KW6P4R","","40","img/flower1.png","75","40","2","1","2","1","1,0.333,0.333,0.333,1,0.333,0.333,0.333,1","1,0.333,0.333,0.333,1,0.333,0.333,0.333,1","1",""
"","html-keyboard-response","35","53467","0.0-35.0","3SB5N7Y3O4Q8PVSWCHTLAKCRAAH0GJ","A307K1CZXGBN4L","3MXX6RQ9EVRTFC527Z18RDK8KW6P4R","","null","<img src=""img/flower1.png"" style=""width:200px; border:14px solid green;"">","null","","","","","","","","",""
"","image-keyboard-response","36","54081","0.0-36.0","3SB5N7Y3O4Q8PVSWCHTLAKCRAAH0GJ","A307K1CZXGBN4L","3MXX6RQ9EVRTFC527Z18RDK8KW6P4R","","612","img/flower6.png","75","614","2","0","1","1","1,0.333,0.333,0.333,1,0.333,0.333,0.333,1","1,0.333,0.333,0.333,1,0.333,0.333,0.333,1","1",""
"","html-keyboard-response","37","54383","0.0-37.0","3SB5N7Y3O4Q8PVSWCHTLAKCRAAH0GJ","A307K1CZXGBN4L","3MXX6RQ9EVRTFC527Z18RDK8KW6P4R","","null","<img src=""img/flower6.png"" style=""width:200px;border:14px solid red;"">","null","","","","","","","","",""
"","image-keyboard-response","38","55383","0.0-38.0","3SB5N7Y3O4Q8PVSWCHTLAKCRAAH0GJ","A307K1CZXGBN4L","3MXX6RQ9EVRTFC527Z18RDK8KW6P4R","","998","img/flower6.png","75","999","2","0","1","1","1,0.333,0.333,0.333,1,0.333,0.333,0.333,1","1,0.333,0.333,0.333,1,0.333,0.333,0.333,1","1",""
"","html-keyboard-response","39","55684","0.0-39.0","3SB5N7Y3O4Q8PVSWCHTLAKCRAAH0GJ","A307K1CZXGBN4L","3MXX6RQ9EVRTFC527Z18RDK8KW6P4R","","null","<img src=""img/flower6.png"" style=""width:200px;border:14px solid red;"">","null","","","","","","","","",""
"","image-keyboard-response","40","56600","0.0-40.0","3SB5N7Y3O4Q8PVSWCHTLAKCRAAH0GJ","A307K1CZXGBN4L","3MXX6RQ9EVRTFC527Z18RDK8KW6P4R","","914","img/flower5.png","74","916","1","1","3","1","1,0.333,0.333,0.333,1,0.333,0.333,0.333,1","1,0.333,0.333,0.333,1,0.333,0.333,0.333,1","1",""
"","html-keyboard-response","41","56901","0.0-41.0","3SB5N7Y3O4Q8PVSWCHTLAKCRAAH0GJ","A307K1CZXGBN4L","3MXX6RQ9EVRTFC527Z18RDK8KW6P4R","","null","<img src=""img/flower5.png"" style=""width:200px; border:14px solid green;"">","null","","","","","","","","",""
"","image-keyboard-response","42","57839","0.0-42.0","3SB5N7Y3O4Q8PVSWCHTLAKCRAAH0GJ","A307K1CZXGBN4L","3MXX6RQ9EVRTFC527Z18RDK8KW6P4R","","936","img/flower1.png","75","938","2","1","2","1","1,0.333,0.333,0.333,1,0.333,0.333,0.333,1","1,0.333,0.333,0.333,1,0.333,0.333,0.333,1","1",""
"","html-keyboard-response","43","58140","0.0-43.0","3SB5N7Y3O4Q8PVSWCHTLAKCRAAH0GJ","A307K1CZXGBN4L","3MXX6RQ9EVRTFC527Z18RDK8KW6P4R","","null","<img src=""img/flower1.png"" style=""width:200px; border:14px solid green;"">","null","","","","","","","","",""
"","image-keyboard-response","44","58958","0.0-44.0","3SB5N7Y3O4Q8PVSWCHTLAKCRAAH0GJ","A307K1CZXGBN4L","3MXX6RQ9EVRTFC527Z18RDK8KW6P4R","","816","img/flower6.png","75","817","2","1","1","1","1,0.333,0.333,0.333,1,0.333,0.333,0.333,1","1,0.333,0.333,0.333,1,0.333,0.333,0.333,1","1",""
"","html-keyboard-response","45","59260","0.0-45.0","3SB5N7Y3O4Q8PVSWCHTLAKCRAAH0GJ","A307K1CZXGBN4L","3MXX6RQ9EVRTFC527Z18RDK8KW6P4R","","null","<img src=""img/flower6.png"" style=""width:200px; border:14px solid green;"">","null","","","","","","","","",""
"","image-keyboard-response","46","59894","0.0-46.0","3SB5N7Y3O4Q8PVSWCHTLAKCRAAH0GJ","A307K1CZXGBN4L","3MXX6RQ9EVRTFC527Z18RDK8KW6P4R","","634","img/flower1.png","75","635","2","1","2","1","1,0.333,0.333,0.333,1,0.333,0.333,0.333,1","1,0.333,0.333,0.333,1,0.333,0.333,0.333,1","1",""
"","html-keyboard-response","47","60196","0.0-47.0","3SB5N7Y3O4Q8PVSWCHTLAKCRAAH0GJ","A307K1CZXGBN4L","3MXX6RQ9EVRTFC527Z18RDK8KW6P4R","","null","<img src=""img/flower1.png"" style=""width:200px; border:14px solid green;"">","null","","","","","","","","",""
"","image-keyboard-response","48","60502","0.0-48.0","3SB5N7Y3O4Q8PVSWCHTLAKCRAAH0GJ","A307K1CZXGBN4L","3MXX6RQ9EVRTFC527Z18RDK8KW6P4R","","304","img/flower1.png","75","306","2","1","2","1","1,0.333,0.333,0.333,1,0.333,0.333,0.333,1","1,0.333,0.333,0.333,1,0.333,0.333,0.333,1","1",""
"","html-keyboard-response","49","60804","0.0-49.0","3SB5N7Y3O4Q8PVSWCHTLAKCRAAH0GJ","A307K1CZXGBN4L","3MXX6RQ9EVRTFC527Z18RDK8KW6P4R","","null","<img src=""img/flower1.png"" style=""width:200px; border:14px solid green;"">","null","","","","","","","","",""
"","image-keyboard-response","50","61110","0.0-50.0","3SB5N7Y3O4Q8PVSWCHTLAKCRAAH0GJ","A307K1CZXGBN4L","3MXX6RQ9EVRTFC527Z18RDK8KW6P4R","","304","img/flower5.png","75","305","2","0","3","1","1,0.333,0.333,0.333,1,0.333,0.333,0.333,1","1,0.333,0.333,0.333,1,0.333,0.333,0.333,1","1",""
"","html-keyboard-response","51","61411","0.0-51.0","3SB5N7Y3O4Q8PVSWCHTLAKCRAAH0GJ","A307K1CZXGBN4L","3MXX6RQ9EVRTFC527Z18RDK8KW6P4R","","null","<img src=""img/flower5.png"" style=""width:200px;border:14px solid red;"">","null","","","","","","","","",""
"","image-keyboard-response","52","61741","0.0-52.0","3SB5N7Y3O4Q8PVSWCHTLAKCRAAH0GJ","A307K1CZXGBN4L","3MXX6RQ9EVRTFC527Z18RDK8KW6P4R","","328","img/flower5.png","75","330","2","0","3","1","1,0.333,0.333,0.333,1,0.333,0.333,0.333,1","1,0.333,0.333,0.333,1,0.333,0.333,0.333,1","1",""
"","html-keyboard-response","53","62043","0.0-53.0","3SB5N7Y3O4Q8PVSWCHTLAKCRAAH0GJ","A307K1CZXGBN4L","3MXX6RQ9EVRTFC527Z18RDK8KW6P4R","","null","<img src=""img/flower5.png"" style=""width:200px;border:14px solid red;"">","null","","","","","","","","",""
"","image-keyboard-response","54","62383","0.0-54.0","3SB5N7Y3O4Q8PVSWCHTLAKCRAAH0GJ","A307K1CZXGBN4L","3MXX6RQ9EVRTFC527Z18RDK8KW6P4R","","339","img/flower5.png","75","340","2","0","3","1","1,0.333,0.333,0.333,1,0.333,0.333,0.333,1","1,0.333,0.333,0.333,1,0.333,0.333,0.333,1","1",""
"","html-keyboard-response","55","62687","0.0-55.0","3SB5N7Y3O4Q8PVSWCHTLAKCRAAH0GJ","A307K1CZXGBN4L","3MXX6RQ9EVRTFC527Z18RDK8KW6P4R","","null","<img src=""img/flower5.png"" style=""width:200px;border:14px solid red;"">","null","","","","","","","","",""
"","image-keyboard-response","56","63199","0.0-56.0","3SB5N7Y3O4Q8PVSWCHTLAKCRAAH0GJ","A307K1CZXGBN4L","3MXX6RQ9EVRTFC527Z18RDK8KW6P4R","","511","img/flower6.png","75","512","2","1","1","1","1,0.333,0.333,0.333,1,0.333,0.333,0.333,1","1,0.333,0.333,0.333,1,0.333,0.333,0.333,1","1",""
"","html-keyboard-response","57","63500","0.0-57.0","3SB5N7Y3O4Q8PVSWCHTLAKCRAAH0GJ","A307K1CZXGBN4L","3MXX6RQ9EVRTFC527Z18RDK8KW6P4R","","null","<img src=""img/flower6.png"" style=""width:200px; border:14px solid green;"">","null","","","","","","","","",""
"","image-keyboard-response","58","63918","0.0-58.0","3SB5N7Y3O4Q8PVSWCHTLAKCRAAH0GJ","A307K1CZXGBN4L","3MXX6RQ9EVRTFC527Z18RDK8KW6P4R","","415","img/flower5.png","75","417","2","1","3","1","1,0.333,0.333,0.333,1,0.333,0.333,0.333,1","1,0.333,0.333,0.333,1,0.333,0.333,0.333,1","1",""
"","html-keyboard-response","59","64219","0.0-59.0","3SB5N7Y3O4Q8PVSWCHTLAKCRAAH0GJ","A307K1CZXGBN4L","3MXX6RQ9EVRTFC527Z18RDK8KW6P4R","","null","<img src=""img/flower5.png"" style=""width:200px; border:14px solid green;"">","null","","","","","","","","",""
"","image-keyboard-response","60","64517","0.0-60.0","3SB5N7Y3O4Q8PVSWCHTLAKCRAAH0GJ","A307K1CZXGBN4L","3MXX6RQ9EVRTFC527Z18RDK8KW6P4R","","295","img/flower6.png","75","296","2","0","1","1","1,0.333,0.333,0.333,1,0.333,0.333,0.333,1","1,0.333,0.333,0.333,1,0.333,0.333,0.333,1","1",""
"","html-keyboard-response","61","64819","0.0-61.0","3SB5N7Y3O4Q8PVSWCHTLAKCRAAH0GJ","A307K1CZXGBN4L","3MXX6RQ9EVRTFC527Z18RDK8KW6P4R","","null","<img src=""img/flower6.png"" style=""width:200px;border:14px solid red;"">","null","","","","","","","","",""
"","image-keyboard-response","62","65051","0.0-62.0","3SB5N7Y3O4Q8PVSWCHTLAKCRAAH0GJ","A307K1CZXGBN4L","3MXX6RQ9EVRTFC527Z18RDK8KW6P4R","","230","img/flower5.png","75","231","2","1","3","1","1,0.333,0.333,0.333,1,0.333,0.333,0.333,1","1,0.333,0.333,0.333,1,0.333,0.333,0.333,1","1",""
"","html-keyboard-response","63","65353","0.0-63.0","3SB5N7Y3O4Q8PVSWCHTLAKCRAAH0GJ","A307K1CZXGBN4L","3MXX6RQ9EVRTFC527Z18RDK8KW6P4R","","null","<img src=""img/flower5.png"" style=""width:200px; border:14px solid green;"">","null","","","","","","","","",""
"","image-keyboard-response","64","65613","0.0-64.0","3SB5N7Y3O4Q8PVSWCHTLAKCRAAH0GJ","A307K1CZXGBN4L","3MXX6RQ9EVRTFC527Z18RDK8KW6P4R","","260","img/flower5.png","75","261","2","0","3","1","1,0.333,0.333,0.333,1,0.333,0.333,0.333,1","1,0.333,0.333,0.333,1,0.333,0.333,0.333,1","1",""
"","html-keyboard-response","65","65915","0.0-65.0","3SB5N7Y3O4Q8PVSWCHTLAKCRAAH0GJ","A307K1CZXGBN4L","3MXX6RQ9EVRTFC527Z18RDK8KW6P4R","","null","<img src=""img/flower5.png"" style=""width:200px;border:14px solid red;"">","null","","","","","","","","",""
"","image-keyboard-response","66","66298","0.0-66.0","3SB5N7Y3O4Q8PVSWCHTLAKCRAAH0GJ","A307K1CZXGBN4L","3MXX6RQ9EVRTFC527Z18RDK8KW6P4R","","381","img/flower6.png","75","382","2","1","1","1","1,0.333,0.333,0.333,1,0.333,0.333,0.333,1","1,0.333,0.333,0.333,1,0.333,0.333,0.333,1","1",""
"","html-keyboard-response","67","66600","0.0-67.0","3SB5N7Y3O4Q8PVSWCHTLAKCRAAH0GJ","A307K1CZXGBN4L","3MXX6RQ9EVRTFC527Z18RDK8KW6P4R","","null","<img src=""img/flower6.png"" style=""width:200px; border:14px solid green;"">","null","","","","","","","","",""
"","image-keyboard-response","68","66902","0.0-68.0","3SB5N7Y3O4Q8PVSWCHTLAKCRAAH0GJ","A307K1CZXGBN4L","3MXX6RQ9EVRTFC527Z18RDK8KW6P4R","","300","img/flower6.png","75","301","2","0","1","1","1,0.333,0.333,0.333,1,0.333,0.333,0.333,1","1,0.333,0.333,0.333,1,0.333,0.333,0.333,1","1",""
"","html-keyboard-response","69","67204","0.0-69.0","3SB5N7Y3O4Q8PVSWCHTLAKCRAAH0GJ","A307K1CZXGBN4L","3MXX6RQ9EVRTFC527Z18RDK8KW6P4R","","null","<img src=""img/flower6.png"" style=""width:200px;border:14px solid red;"">","null","","","","","","","","",""
"","image-keyboard-response","70","67629","0.0-70.0","3SB5N7Y3O4Q8PVSWCHTLAKCRAAH0GJ","A307K1CZXGBN4L","3MXX6RQ9EVRTFC527Z18RDK8KW6P4R","","424","img/flower5.png","75","424","2","1","3","1","1,0.333,0.333,0.333,1,0.333,0.333,0.333,1","1,0.333,0.333,0.333,1,0.333,0.333,0.333,1","1",""
"","html-keyboard-response","71","67931","0.0-71.0","3SB5N7Y3O4Q8PVSWCHTLAKCRAAH0GJ","A307K1CZXGBN4L","3MXX6RQ9EVRTFC527Z18RDK8KW6P4R","","null","<img src=""img/flower5.png"" style=""width:200px; border:14px solid green;"">","null","","","","","","","","",""
"","image-keyboard-response","72","68229","0.0-72.0","3SB5N7Y3O4Q8PVSWCHTLAKCRAAH0GJ","A307K1CZXGBN4L","3MXX6RQ9EVRTFC527Z18RDK8KW6P4R","","296","img/flower5.png","75","297","2","1","3","1","1,0.333,0.333,0.333,1,0.333,0.333,0.333,1","1,0.333,0.333,0.333,1,0.333,0.333,0.333,1","1",""
"","html-keyboard-response","73","68530","0.0-73.0","3SB5N7Y3O4Q8PVSWCHTLAKCRAAH0GJ","A307K1CZXGBN4L","3MXX6RQ9EVRTFC527Z18RDK8KW6P4R","","null","<img src=""img/flower5.png"" style=""width:200px; border:14px solid green;"">","null","","","","","","","","",""
"","image-keyboard-response","74","68799","0.0-74.0","3SB5N7Y3O4Q8PVSWCHTLAKCRAAH0GJ","A307K1CZXGBN4L","3MXX6RQ9EVRTFC527Z18RDK8KW6P4R","","267","img/flower5.png","75","267","2","1","3","1","1,0.333,0.333,0.333,1,0.333,0.333,0.333,1","1,0.333,0.333,0.333,1,0.333,0.333,0.333,1","1",""
"","html-keyboard-response","75","69100","0.0-75.0","3SB5N7Y3O4Q8PVSWCHTLAKCRAAH0GJ","A307K1CZXGBN4L","3MXX6RQ9EVRTFC527Z18RDK8KW6P4R","","null","<img src=""img/flower5.png"" style=""width:200px; border:14px solid green;"">","null","","","","","","","","",""
"","image-keyboard-response","76","69519","0.0-76.0","3SB5N7Y3O4Q8PVSWCHTLAKCRAAH0GJ","A307K1CZXGBN4L","3MXX6RQ9EVRTFC527Z18RDK8KW6P4R","","416","img/flower5.png","75","417","2","1","3","1","1,0.333,0.333,0.333,1,0.333,0.333,0.333,1","1,0.333,0.333,0.333,1,0.333,0.333,0.333,1","1",""
"","html-keyboard-response","77","69820","0.0-77.0","3SB5N7Y3O4Q8PVSWCHTLAKCRAAH0GJ","A307K1CZXGBN4L","3MXX6RQ9EVRTFC527Z18RDK8KW6P4R","","null","<img src=""img/flower5.png"" style=""width:200px; border:14px solid green;"">","null","","","","","","","","",""
"","image-keyboard-response","78","70154","0.0-78.0","3SB5N7Y3O4Q8PVSWCHTLAKCRAAH0GJ","A307K1CZXGBN4L","3MXX6RQ9EVRTFC527Z18RDK8KW6P4R","","332","img/flower1.png","75","334","2","1","2","1","1,0.333,0.333,0.333,1,0.333,0.333,0.333,1","1,0.333,0.333,0.333,1,0.333,0.333,0.333,1","1",""
"","html-keyboard-response","79","70456","0.0-79.0","3SB5N7Y3O4Q8PVSWCHTLAKCRAAH0GJ","A307K1CZXGBN4L","3MXX6RQ9EVRTFC527Z18RDK8KW6P4R","","null","<img src=""img/flower1.png"" style=""width:200px; border:14px solid green;"">","null","","","","","","","","",""
"","image-keyboard-response","80","70854","0.0-80.0","3SB5N7Y3O4Q8PVSWCHTLAKCRAAH0GJ","A307K1CZXGBN4L","3MXX6RQ9EVRTFC527Z18RDK8KW6P4R","","396","img/flower6.png","75","398","2","1","1","1","1,0.333,0.333,0.333,1,0.333,0.333,0.333,1","1,0.333,0.333,0.333,1,0.333,0.333,0.333,1","1",""
"","html-keyboard-response","81","71158","0.0-81.0","3SB5N7Y3O4Q8PVSWCHTLAKCRAAH0GJ","A307K1CZXGBN4L","3MXX6RQ9EVRTFC527Z18RDK8KW6P4R","","null","<img src=""img/flower6.png"" style=""width:200px; border:14px solid green;"">","null","","","","","","","","",""
"","image-keyboard-response","82","71582","0.0-82.0","3SB5N7Y3O4Q8PVSWCHTLAKCRAAH0GJ","A307K1CZXGBN4L","3MXX6RQ9EVRTFC527Z18RDK8KW6P4R","","423","img/flower6.png","75","424","2","1","1","1","1,0.333,0.333,0.333,1,0.333,0.333,0.333,1","1,0.333,0.333,0.333,1,0.333,0.333,0.333,1","1",""
"","html-keyboard-response","83","71884","0.0-83.0","3SB5N7Y3O4Q8PVSWCHTLAKCRAAH0GJ","A307K1CZXGBN4L","3MXX6RQ9EVRTFC527Z18RDK8KW6P4R","","null","<img src=""img/flower6.png"" style=""width:200px; border:14px solid green;"">","null","","","","","","","","",""
"","image-keyboard-response","84","72190","0.0-84.0","3SB5N7Y3O4Q8PVSWCHTLAKCRAAH0GJ","A307K1CZXGBN4L","3MXX6RQ9EVRTFC527Z18RDK8KW6P4R","","304","img/flower5.png","75","306","2","0","3","1","1,0.333,0.333,0.333,1,0.333,0.333,0.333,1","1,0.333,0.333,0.333,1,0.333,0.333,0.333,1","1",""
"","html-keyboard-response","85","72491","0.0-85.0","3SB5N7Y3O4Q8PVSWCHTLAKCRAAH0GJ","A307K1CZXGBN4L","3MXX6RQ9EVRTFC527Z18RDK8KW6P4R","","null","<img src=""img/flower5.png"" style=""width:200px;border:14px solid red;"">","null","","","","","","","","",""
"","image-keyboard-response","86","72875","0.0-86.0","3SB5N7Y3O4Q8PVSWCHTLAKCRAAH0GJ","A307K1CZXGBN4L","3MXX6RQ9EVRTFC527Z18RDK8KW6P4R","","382","img/flower5.png","75","384","2","0","3","1","1,0.333,0.333,0.333,1,0.333,0.333,0.333,1","1,0.333,0.333,0.333,1,0.333,0.333,0.333,1","1",""
"","html-keyboard-response","87","73178","0.0-87.0","3SB5N7Y3O4Q8PVSWCHTLAKCRAAH0GJ","A307K1CZXGBN4L","3MXX6RQ9EVRTFC527Z18RDK8KW6P4R","","null","<img src=""img/flower5.png"" style=""width:200px;border:14px solid red;"">","null","","","","","","","","",""
"","image-keyboard-response","88","73542","0.0-88.0","3SB5N7Y3O4Q8PVSWCHTLAKCRAAH0GJ","A307K1CZXGBN4L","3MXX6RQ9EVRTFC527Z18RDK8KW6P4R","","363","img/flower5.png","76","363","3","1","3","1","1,0.333,0.333,0.333,1,0.333,0.333,0.333,1","1,0.333,0.333,0.333,1,0.333,0.333,0.333,1","1",""
"","html-keyboard-response","89","73844","0.0-89.0","3SB5N7Y3O4Q8PVSWCHTLAKCRAAH0GJ","A307K1CZXGBN4L","3MXX6RQ9EVRTFC527Z18RDK8KW6P4R","","null","<img src=""img/flower5.png"" style=""width:200px; border:14px solid green;"">","null","","","","","","","","",""
"","image-keyboard-response","90","74166","0.0-90.0","3SB5N7Y3O4Q8PVSWCHTLAKCRAAH0GJ","A307K1CZXGBN4L","3MXX6RQ9EVRTFC527Z18RDK8KW6P4R","","321","img/flower1.png","76","322","3","0","2","1","1,0.333,0.333,0.333,1,0.333,0.333,0.333,1","1,0.333,0.333,0.333,1,0.333,0.333,0.333,1","1",""
"","html-keyboard-response","91","74468","0.0-91.0","3SB5N7Y3O4Q8PVSWCHTLAKCRAAH0GJ","A307K1CZXGBN4L","3MXX6RQ9EVRTFC527Z18RDK8KW6P4R","","null","<img src=""img/flower1.png"" style=""width:200px;border:14px solid red;"">","null","","","","","","","","",""
"","image-keyboard-response","92","74811","0.0-92.0","3SB5N7Y3O4Q8PVSWCHTLAKCRAAH0GJ","A307K1CZXGBN4L","3MXX6RQ9EVRTFC527Z18RDK8KW6P4R","","341","img/flower1.png","76","343","3","0","2","1","1,0.333,0.333,0.333,1,0.333,0.333,0.333,1","1,0.333,0.333,0.333,1,0.333,0.333,0.333,1","1",""
"","html-keyboard-response","93","75112","0.0-93.0","3SB5N7Y3O4Q8PVSWCHTLAKCRAAH0GJ","A307K1CZXGBN4L","3MXX6RQ9EVRTFC527Z18RDK8KW6P4R","","null","<img src=""img/flower1.png"" style=""width:200px;border:14px solid red;"">","null","","","","","","","","",""
"","image-keyboard-response","94","75446","0.0-94.0","3SB5N7Y3O4Q8PVSWCHTLAKCRAAH0GJ","A307K1CZXGBN4L","3MXX6RQ9EVRTFC527Z18RDK8KW6P4R","","333","img/flower1.png","76","333","3","0","2","1","1,0.333,0.333,0.333,1,0.333,0.333,0.333,1","1,0.333,0.333,0.333,1,0.333,0.333,0.333,1","1",""
"","html-keyboard-response","95","75748","0.0-95.0","3SB5N7Y3O4Q8PVSWCHTLAKCRAAH0GJ","A307K1CZXGBN4L","3MXX6RQ9EVRTFC527Z18RDK8KW6P4R","","null","<img src=""img/flower1.png"" style=""width:200px;border:14px solid red;"">","null","","","","","","","","",""
"","image-keyboard-response","96","76022","0.0-96.0","3SB5N7Y3O4Q8PVSWCHTLAKCRAAH0GJ","A307K1CZXGBN4L","3MXX6RQ9EVRTFC527Z18RDK8KW6P4R","","272","img/flower1.png","75","273","2","1","2","1","1,0.333,0.333,0.333,1,0.333,0.333,0.333,1","1,0.333,0.333,0.333,1,0.333,0.333,0.333,1","1",""
"","html-keyboard-response","97","76324","0.0-97.0","3SB5N7Y3O4Q8PVSWCHTLAKCRAAH0GJ","A307K1CZXGBN4L","3MXX6RQ9EVRTFC527Z18RDK8KW6P4R","","null","<img src=""img/flower1.png"" style=""width:200px; border:14px solid green;"">","null","","","","","","","","",""
"","image-keyboard-response","98","76607","0.0-98.0","3SB5N7Y3O4Q8PVSWCHTLAKCRAAH0GJ","A307K1CZXGBN4L","3MXX6RQ9EVRTFC527Z18RDK8KW6P4R","","281","img/flower6.png","75","282","2","0","1","1","1,0.333,0.333,0.333,1,0.333,0.333,0.333,1","1,0.333,0.333,0.333,1,0.333,0.333,0.333,1","1",""
"","html-keyboard-response","99","76909","0.0-99.0","3SB5N7Y3O4Q8PVSWCHTLAKCRAAH0GJ","A307K1CZXGBN4L","3MXX6RQ9EVRTFC527Z18RDK8KW6P4R","","null","<img src=""img/flower6.png"" style=""width:200px;border:14px solid red;"">","null","","","","","","","","",""
"","image-keyboard-response","100","77232","0.0-100.0","3SB5N7Y3O4Q8PVSWCHTLAKCRAAH0GJ","A307K1CZXGBN4L","3MXX6RQ9EVRTFC527Z18RDK8KW6P4R","","322","img/flower1.png","75","324","2","1","2","1","1,0.333,0.333,0.333,1,0.333,0.333,0.333,1","1,0.333,0.333,0.333,1,0.333,0.333,0.333,1","1",""
"","html-keyboard-response","101","77535","0.0-101.0","3SB5N7Y3O4Q8PVSWCHTLAKCRAAH0GJ","A307K1CZXGBN4L","3MXX6RQ9EVRTFC527Z18RDK8KW6P4R","","null","<img src=""img/flower1.png"" style=""width:200px; border:14px solid green;"">","null","","","","","","","","",""
"","image-keyboard-response","102","77862","0.0-102.0","3SB5N7Y3O4Q8PVSWCHTLAKCRAAH0GJ","A307K1CZXGBN4L","3MXX6RQ9EVRTFC527Z18RDK8KW6P4R","","326","img/flower6.png","75","327","2","0","1","1","1,0.333,0.333,0.333,1,0.333,0.333,0.333,1","1,0.333,0.333,0.333,1,0.333,0.333,0.333,1","1",""
"","html-keyboard-response","103","78167","0.0-103.0","3SB5N7Y3O4Q8PVSWCHTLAKCRAAH0GJ","A307K1CZXGBN4L","3MXX6RQ9EVRTFC527Z18RDK8KW6P4R","","null","<img src=""img/flower6.png"" style=""width:200px;border:14px solid red;"">","null","","","","","","","","",""
"","image-keyboard-response","104","78526","0.0-104.0","3SB5N7Y3O4Q8PVSWCHTLAKCRAAH0GJ","A307K1CZXGBN4L","3MXX6RQ9EVRTFC527Z18RDK8KW6P4R","","357","img/flower1.png","75","358","2","1","2","1","1,0.333,0.333,0.333,1,0.333,0.333,0.333,1","1,0.333,0.333,0.333,1,0.333,0.333,0.333,1","1",""
"","html-keyboard-response","105","78829","0.0-105.0","3SB5N7Y3O4Q8PVSWCHTLAKCRAAH0GJ","A307K1CZXGBN4L","3MXX6RQ9EVRTFC527Z18RDK8KW6P4R","","null","<img src=""img/flower1.png"" style=""width:200px; border:14px solid green;"">","null","","","","","","","","",""
"","image-keyboard-response","106","79046","0.0-106.0","3SB5N7Y3O4Q8PVSWCHTLAKCRAAH0GJ","A307K1CZXGBN4L","3MXX6RQ9EVRTFC527Z18RDK8KW6P4R","","216","img/flower1.png","75","216","2","1","2","1","1,0.333,0.333,0.333,1,0.333,0.333,0.333,1","1,0.333,0.333,0.333,1,0.333,0.333,0.333,1","1",""
"","html-keyboard-response","107","79347","0.0-107.0","3SB5N7Y3O4Q8PVSWCHTLAKCRAAH0GJ","A307K1CZXGBN4L","3MXX6RQ9EVRTFC527Z18RDK8KW6P4R","","null","<img src=""img/flower1.png"" style=""width:200px; border:14px solid green;"">","null","","","","","","","","",""
"","image-keyboard-response","108","79586","0.0-108.0","3SB5N7Y3O4Q8PVSWCHTLAKCRAAH0GJ","A307K1CZXGBN4L","3MXX6RQ9EVRTFC527Z18RDK8KW6P4R","","238","img/flower5.png","75","238","2","0","3","1","1,0.333,0.333,0.333,1,0.333,0.333,0.333,1","1,0.333,0.333,0.333,1,0.333,0.333,0.333,1","1",""
"","html-keyboard-response","109","79887","0.0-109.0","3SB5N7Y3O4Q8PVSWCHTLAKCRAAH0GJ","A307K1CZXGBN4L","3MXX6RQ9EVRTFC527Z18RDK8KW6P4R","","null","<img src=""img/flower5.png"" style=""width:200px;border:14px solid red;"">","null","","","","","","","","",""
"","image-keyboard-response","110","80235","0.0-110.0","3SB5N7Y3O4Q8PVSWCHTLAKCRAAH0GJ","A307K1CZXGBN4L","3MXX6RQ9EVRTFC527Z18RDK8KW6P4R","","347","img/flower1.png","75","348","2","1","2","1","1,0.333,0.333,0.333,1,0.333,0.333,0.333,1","1,0.333,0.333,0.333,1,0.333,0.333,0.333,1","1",""
"","html-keyboard-response","111","80541","0.0-111.0","3SB5N7Y3O4Q8PVSWCHTLAKCRAAH0GJ","A307K1CZXGBN4L","3MXX6RQ9EVRTFC527Z18RDK8KW6P4R","","null","<img src=""img/flower1.png"" style=""width:200px; border:14px solid green;"">","null","","","","","","","","",""
"","image-keyboard-response","112","80863","0.0-112.0","3SB5N7Y3O4Q8PVSWCHTLAKCRAAH0GJ","A307K1CZXGBN4L","3MXX6RQ9EVRTFC527Z18RDK8KW6P4R","","320","img/flower1.png","75","322","2","1","2","1","1,0.333,0.333,0.333,1,0.333,0.333,0.333,1","1,0.333,0.333,0.333,1,0.333,0.333,0.333,1","1",""
"","html-keyboard-response","113","81165","0.0-113.0","3SB5N7Y3O4Q8PVSWCHTLAKCRAAH0GJ","A307K1CZXGBN4L","3MXX6RQ9EVRTFC527Z18RDK8KW6P4R","","null","<img src=""img/flower1.png"" style=""width:200px; border:14px solid green;"">","null","","","","","","","","",""
"","image-keyboard-response","114","81505","0.0-114.0","3SB5N7Y3O4Q8PVSWCHTLAKCRAAH0GJ","A307K1CZXGBN4L","3MXX6RQ9EVRTFC527Z18RDK8KW6P4R","","339","img/flower6.png","75","340","2","0","1","1","1,0.333,0.333,0.333,1,0.333,0.333,0.333,1","1,0.333,0.333,0.333,1,0.333,0.333,0.333,1","1",""
"","html-keyboard-response","115","81807","0.0-115.0","3SB5N7Y3O4Q8PVSWCHTLAKCRAAH0GJ","A307K1CZXGBN4L","3MXX6RQ9EVRTFC527Z18RDK8KW6P4R","","null","<img src=""img/flower6.png"" style=""width:200px;border:14px solid red;"">","null","","","","","","","","",""
"","image-keyboard-response","116","82144","0.0-116.0","3SB5N7Y3O4Q8PVSWCHTLAKCRAAH0GJ","A307K1CZXGBN4L","3MXX6RQ9EVRTFC527Z18RDK8KW6P4R","","336","img/flower5.png","75","336","2","0","3","1","1,0.333,0.333,0.333,1,0.333,0.333,0.333,1","1,0.333,0.333,0.333,1,0.333,0.333,0.333,1","1",""
"","html-keyboard-response","117","82445","0.0-117.0","3SB5N7Y3O4Q8PVSWCHTLAKCRAAH0GJ","A307K1CZXGBN4L","3MXX6RQ9EVRTFC527Z18RDK8KW6P4R","","null","<img src=""img/flower5.png"" style=""width:200px;border:14px solid red;"">","null","","","","","","","","",""
"","image-keyboard-response","118","82572","0.0-118.0","3SB5N7Y3O4Q8PVSWCHTLAKCRAAH0GJ","A307K1CZXGBN4L","3MXX6RQ9EVRTFC527Z18RDK8KW6P4R","","126","img/flower6.png","75","127","2","0","1","1","1,0.333,0.333,0.333,1,0.333,0.333,0.333,1","1,0.333,0.333,0.333,1,0.333,0.333,0.333,1","1",""
"","html-keyboard-response","119","82875","0.0-119.0","3SB5N7Y3O4Q8PVSWCHTLAKCRAAH0GJ","A307K1CZXGBN4L","3MXX6RQ9EVRTFC527Z18RDK8KW6P4R","","null","<img src=""img/flower6.png"" style=""width:200px;border:14px solid red;"">","null","","","","","","","","",""
"","image-keyboard-response","120","83251","0.0-120.0","3SB5N7Y3O4Q8PVSWCHTLAKCRAAH0GJ","A307K1CZXGBN4L","3MXX6RQ9EVRTFC527Z18RDK8KW6P4R","","376","img/flower5.png","75","377","2","1","3","1","1,0.333,0.333,0.333,1,0.333,0.333,0.333,1","1,0.333,0.333,0.333,1,0.333,0.333,0.333,1","1",""
"","html-keyboard-response","121","83553","0.0-121.0","3SB5N7Y3O4Q8PVSWCHTLAKCRAAH0GJ","A307K1CZXGBN4L","3MXX6RQ9EVRTFC527Z18RDK8KW6P4R","","null","<img src=""img/flower5.png"" style=""width:200px; border:14px solid green;"">","null","","","","","","","","",""
"","image-keyboard-response","122","83802","0.0-122.0","3SB5N7Y3O4Q8PVSWCHTLAKCRAAH0GJ","A307K1CZXGBN4L","3MXX6RQ9EVRTFC527Z18RDK8KW6P4R","","247","img/flower1.png","75","248","2","1","2","1","1,0.333,0.333,0.333,1,0.333,0.333,0.333,1","1,0.333,0.333,0.333,1,0.333,0.333,0.333,1","1",""
"","html-keyboard-response","123","84105","0.0-123.0","3SB5N7Y3O4Q8PVSWCHTLAKCRAAH0GJ","A307K1CZXGBN4L","3MXX6RQ9EVRTFC527Z18RDK8KW6P4R","","null","<img src=""img/flower1.png"" style=""width:200px; border:14px solid green;"">","null","","","","","","","","",""
"","image-keyboard-response","124","84267","0.0-124.0","3SB5N7Y3O4Q8PVSWCHTLAKCRAAH0GJ","A307K1CZXGBN4L","3MXX6RQ9EVRTFC527Z18RDK8KW6P4R","","162","img/flower1.png","75","162","2","1","2","1","1,0.333,0.333,0.333,1,0.333,0.333,0.333,1","1,0.333,0.333,0.333,1,0.333,0.333,0.333,1","1",""
"","html-keyboard-response","125","84569","0.0-125.0","3SB5N7Y3O4Q8PVSWCHTLAKCRAAH0GJ","A307K1CZXGBN4L","3MXX6RQ9EVRTFC527Z18RDK8KW6P4R","","null","<img src=""img/flower1.png"" style=""width:200px; border:14px solid green;"">","null","","","","","","","","",""
"","image-keyboard-response","126","84819","0.0-126.0","3SB5N7Y3O4Q8PVSWCHTLAKCRAAH0GJ","A307K1CZXGBN4L","3MXX6RQ9EVRTFC527Z18RDK8KW6P4R","","248","img/flower6.png","75","249","2","1","1","1","1,0.333,0.333,0.333,1,0.333,0.333,0.333,1","1,0.333,0.333,0.333,1,0.333,0.333,0.333,1","1",""
"","html-keyboard-response","127","85121","0.0-127.0","3SB5N7Y3O4Q8PVSWCHTLAKCRAAH0GJ","A307K1CZXGBN4L","3MXX6RQ9EVRTFC527Z18RDK8KW6P4R","","null","<img src=""img/flower6.png"" style=""width:200px; border:14px solid green;"">","null","","","","","","","","",""
"","image-keyboard-response","128","85297","0.0-128.0","3SB5N7Y3O4Q8PVSWCHTLAKCRAAH0GJ","A307K1CZXGBN4L","3MXX6RQ9EVRTFC527Z18RDK8KW6P4R","","174","img/flower5.png","75","176","2","0","3","1","1,0.333,0.333,0.333,1,0.333,0.333,0.333,1","1,0.333,0.333,0.333,1,0.333,0.333,0.333,1","1",""
"","html-keyboard-response","129","85603","0.0-129.0","3SB5N7Y3O4Q8PVSWCHTLAKCRAAH0GJ","A307K1CZXGBN4L","3MXX6RQ9EVRTFC527Z18RDK8KW6P4R","","null","<img src=""img/flower5.png"" style=""width:200px;border:14px solid red;"">","null","","","","","","","","",""
"","image-keyboard-response","130","85897","0.0-130.0","3SB5N7Y3O4Q8PVSWCHTLAKCRAAH0GJ","A307K1CZXGBN4L","3MXX6RQ9EVRTFC527Z18RDK8KW6P4R","","292","img/flower5.png","75","293","2","1","3","1","1,0.333,0.333,0.333,1,0.333,0.333,0.333,1","1,0.333,0.333,0.333,1,0.333,0.333,0.333,1","1",""
"","html-keyboard-response","131","86198","0.0-131.0","3SB5N7Y3O4Q8PVSWCHTLAKCRAAH0GJ","A307K1CZXGBN4L","3MXX6RQ9EVRTFC527Z18RDK8KW6P4R","","null","<img src=""img/flower5.png"" style=""width:200px; border:14px solid green;"">","null","","","","","","","","",""
"","image-keyboard-response","132","86427","0.0-132.0","3SB5N7Y3O4Q8PVSWCHTLAKCRAAH0GJ","A307K1CZXGBN4L","3MXX6RQ9EVRTFC527Z18RDK8KW6P4R","","227","img/flower6.png","75","227","2","1","1","1","1,0.333,0.333,0.333,1,0.333,0.333,0.333,1","1,0.333,0.333,0.333,1,0.333,0.333,0.333,1","1",""
"","html-keyboard-response","133","86728","0.0-133.0","3SB5N7Y3O4Q8PVSWCHTLAKCRAAH0GJ","A307K1CZXGBN4L","3MXX6RQ9EVRTFC527Z18RDK8KW6P4R","","null","<img src=""img/flower6.png"" style=""width:200px; border:14px solid green;"">","null","","","","","","","","",""
"","image-keyboard-response","134","86959","0.0-134.0","3SB5N7Y3O4Q8PVSWCHTLAKCRAAH0GJ","A307K1CZXGBN4L","3MXX6RQ9EVRTFC527Z18RDK8KW6P4R","","230","img/flower1.png","75","230","2","1","2","1","1,0.333,0.333,0.333,1,0.333,0.333,0.333,1","1,0.333,0.333,0.333,1,0.333,0.333,0.333,1","1",""
"","html-keyboard-response","135","87260","0.0-135.0","3SB5N7Y3O4Q8PVSWCHTLAKCRAAH0GJ","A307K1CZXGBN4L","3MXX6RQ9EVRTFC527Z18RDK8KW6P4R","","null","<img src=""img/flower1.png"" style=""width:200px; border:14px solid green;"">","null","","","","","","","","",""
"","image-keyboard-response","136","87559","0.0-136.0","3SB5N7Y3O4Q8PVSWCHTLAKCRAAH0GJ","A307K1CZXGBN4L","3MXX6RQ9EVRTFC527Z18RDK8KW6P4R","","297","img/flower6.png","75","298","2","0","1","1","1,0.333,0.333,0.333,1,0.333,0.333,0.333,1","1,0.333,0.333,0.333,1,0.333,0.333,0.333,1","1",""
"","html-keyboard-response","137","87862","0.0-137.0","3SB5N7Y3O4Q8PVSWCHTLAKCRAAH0GJ","A307K1CZXGBN4L","3MXX6RQ9EVRTFC527Z18RDK8KW6P4R","","null","<img src=""img/flower6.png"" style=""width:200px;border:14px solid red;"">","null","","","","","","","","",""
"","image-keyboard-response","138","87985","0.0-138.0","3SB5N7Y3O4Q8PVSWCHTLAKCRAAH0GJ","A307K1CZXGBN4L","3MXX6RQ9EVRTFC527Z18RDK8KW6P4R","","121","img/flower6.png","75","122","2","0","1","1","1,0.333,0.333,0.333,1,0.333,0.333,0.333,1","1,0.333,0.333,0.333,1,0.333,0.333,0.333,1","1",""
"","html-keyboard-response","139","88286","0.0-139.0","3SB5N7Y3O4Q8PVSWCHTLAKCRAAH0GJ","A307K1CZXGBN4L","3MXX6RQ9EVRTFC527Z18RDK8KW6P4R","","null","<img src=""img/flower6.png"" style=""width:200px;border:14px solid red;"">","null","","","","","","","","",""
"","image-keyboard-response","140","88647","0.0-140.0","3SB5N7Y3O4Q8PVSWCHTLAKCRAAH0GJ","A307K1CZXGBN4L","3MXX6RQ9EVRTFC527Z18RDK8KW6P4R","","359","img/flower1.png","75","360","2","1","2","1","1,0.333,0.333,0.333,1,0.333,0.333,0.333,1","1,0.333,0.333,0.333,1,0.333,0.333,0.333,1","1",""
"","html-keyboard-response","141","88951","0.0-141.0","3SB5N7Y3O4Q8PVSWCHTLAKCRAAH0GJ","A307K1CZXGBN4L","3MXX6RQ9EVRTFC527Z18RDK8KW6P4R","","null","<img src=""img/flower1.png"" style=""width:200px; border:14px solid green;"">","null","","","","","","","","",""
"","image-keyboard-response","142","89229","0.0-142.0","3SB5N7Y3O4Q8PVSWCHTLAKCRAAH0GJ","A307K1CZXGBN4L","3MXX6RQ9EVRTFC527Z18RDK8KW6P4R","","277","img/flower6.png","75","278","2","0","1","1","1,0.333,0.333,0.333,1,0.333,0.333,0.333,1","1,0.333,0.333,0.333,1,0.333,0.333,0.333,1","1",""
"","html-keyboard-response","143","89531","0.0-143.0","3SB5N7Y3O4Q8PVSWCHTLAKCRAAH0GJ","A307K1CZXGBN4L","3MXX6RQ9EVRTFC527Z18RDK8KW6P4R","","null","<img src=""img/flower6.png"" style=""width:200px;border:14px solid red;"">","null","","","","","","","","",""
"","image-keyboard-response","144","89798","0.0-144.0","3SB5N7Y3O4Q8PVSWCHTLAKCRAAH0GJ","A307K1CZXGBN4L","3MXX6RQ9EVRTFC527Z18RDK8KW6P4R","","265","img/flower6.png","75","267","2","0","1","1","1,0.333,0.333,0.333,1,0.333,0.333,0.333,1","1,0.333,0.333,0.333,1,0.333,0.333,0.333,1","1",""
"","html-keyboard-response","145","90100","0.0-145.0","3SB5N7Y3O4Q8PVSWCHTLAKCRAAH0GJ","A307K1CZXGBN4L","3MXX6RQ9EVRTFC527Z18RDK8KW6P4R","","null","<img src=""img/flower6.png"" style=""width:200px;border:14px solid red;"">","null","","","","","","","","",""
"","image-keyboard-response","146","90222","0.0-146.0","3SB5N7Y3O4Q8PVSWCHTLAKCRAAH0GJ","A307K1CZXGBN4L","3MXX6RQ9EVRTFC527Z18RDK8KW6P4R","","120","img/flower1.png","75","122","2","1","2","1","1,0.333,0.333,0.333,1,0.333,0.333,0.333,1","1,0.333,0.333,0.333,1,0.333,0.333,0.333,1","1",""
"","html-keyboard-response","147","90524","0.0-147.0","3SB5N7Y3O4Q8PVSWCHTLAKCRAAH0GJ","A307K1CZXGBN4L","3MXX6RQ9EVRTFC527Z18RDK8KW6P4R","","null","<img src=""img/flower1.png"" style=""width:200px; border:14px solid green;"">","null","","","","","","","","",""
"","image-keyboard-response","148","90728","0.0-148.0","3SB5N7Y3O4Q8PVSWCHTLAKCRAAH0GJ","A307K1CZXGBN4L","3MXX6RQ9EVRTFC527Z18RDK8KW6P4R","","203","img/flower6.png","75","204","2","1","1","1","1,0.333,0.333,0.333,1,0.333,0.333,0.333,1","1,0.333,0.333,0.333,1,0.333,0.333,0.333,1","1",""
"","html-keyboard-response","149","91030","0.0-149.0","3SB5N7Y3O4Q8PVSWCHTLAKCRAAH0GJ","A307K1CZXGBN4L","3MXX6RQ9EVRTFC527Z18RDK8KW6P4R","","null","<img src=""img/flower6.png"" style=""width:200px; border:14px solid green;"">","null","","","","","","","","",""
"","image-keyboard-response","150","91241","0.0-150.0","3SB5N7Y3O4Q8PVSWCHTLAKCRAAH0GJ","A307K1CZXGBN4L","3MXX6RQ9EVRTFC527Z18RDK8KW6P4R","","210","img/flower5.png","75","210","2","1","3","1","1,0.333,0.333,0.333,1,0.333,0.333,0.333,1","1,0.333,0.333,0.333,1,0.333,0.333,0.333,1","1",""
"","html-keyboard-response","151","91543","0.0-151.0","3SB5N7Y3O4Q8PVSWCHTLAKCRAAH0GJ","A307K1CZXGBN4L","3MXX6RQ9EVRTFC527Z18RDK8KW6P4R","","null","<img src=""img/flower5.png"" style=""width:200px; border:14px solid green;"">","null","","","","","","","","",""
"","image-keyboard-response","152","91567","0.0-152.0","3SB5N7Y3O4Q8PVSWCHTLAKCRAAH0GJ","A307K1CZXGBN4L","3MXX6RQ9EVRTFC527Z18RDK8KW6P4R","","24","img/flower1.png","74","24","1","1","2","1","1,0.333,0.333,0.333,1,0.333,0.333,0.333,1","1,0.333,0.333,0.333,1,0.333,0.333,0.333,1","1",""
"","html-keyboard-response","153","91870","0.0-153.0","3SB5N7Y3O4Q8PVSWCHTLAKCRAAH0GJ","A307K1CZXGBN4L","3MXX6RQ9EVRTFC527Z18RDK8KW6P4R","","null","<img src=""img/flower1.png"" style=""width:200px; border:14px solid green;"">","null","","","","","","","","",""
"","image-keyboard-response","154","92091","0.0-154.0","3SB5N7Y3O4Q8PVSWCHTLAKCRAAH0GJ","A307K1CZXGBN4L","3MXX6RQ9EVRTFC527Z18RDK8KW6P4R","","219","img/flower6.png","74","220","1","1","1","1","1,0.333,0.333,0.333,1,0.333,0.333,0.333,1","1,0.333,0.333,0.333,1,0.333,0.333,0.333,1","1",""
"","html-keyboard-response","155","92392","0.0-155.0","3SB5N7Y3O4Q8PVSWCHTLAKCRAAH0GJ","A307K1CZXGBN4L","3MXX6RQ9EVRTFC527Z18RDK8KW6P4R","","null","<img src=""img/flower6.png"" style=""width:200px; border:14px solid green;"">","null","","","","","","","","",""
"","image-keyboard-response","156","92511","0.0-156.0","3SB5N7Y3O4Q8PVSWCHTLAKCRAAH0GJ","A307K1CZXGBN4L","3MXX6RQ9EVRTFC527Z18RDK8KW6P4R","","117","img/flower6.png","74","118","1","1","1","1","1,0.333,0.333,0.333,1,0.333,0.333,0.333,1","1,0.333,0.333,0.333,1,0.333,0.333,0.333,1","1",""
"","html-keyboard-response","157","92812","0.0-157.0","3SB5N7Y3O4Q8PVSWCHTLAKCRAAH0GJ","A307K1CZXGBN4L","3MXX6RQ9EVRTFC527Z18RDK8KW6P4R","","null","<img src=""img/flower6.png"" style=""width:200px; border:14px solid green;"">","null","","","","","","","","",""
"","image-keyboard-response","158","93022","0.0-158.0","3SB5N7Y3O4Q8PVSWCHTLAKCRAAH0GJ","A307K1CZXGBN4L","3MXX6RQ9EVRTFC527Z18RDK8KW6P4R","","209","img/flower6.png","74","210","1","1","1","1","1,0.333,0.333,0.333,1,0.333,0.333,0.333,1","1,0.333,0.333,0.333,1,0.333,0.333,0.333,1","1",""
"","html-keyboard-response","159","93325","0.0-159.0","3SB5N7Y3O4Q8PVSWCHTLAKCRAAH0GJ","A307K1CZXGBN4L","3MXX6RQ9EVRTFC527Z18RDK8KW6P4R","","null","<img src=""img/flower6.png"" style=""width:200px; border:14px solid green;"">","null","","","","","","","","",""
"","image-keyboard-response","160","93472","0.0-160.0","3SB5N7Y3O4Q8PVSWCHTLAKCRAAH0GJ","A307K1CZXGBN4L","3MXX6RQ9EVRTFC527Z18RDK8KW6P4R","","146","img/flower1.png","74","147","1","0","2","1","1,0.333,0.333,0.333,1,0.333,0.333,0.333,1","1,0.333,0.333,0.333,1,0.333,0.333,0.333,1","1",""
"","html-keyboard-response","161","93775","0.0-161.0","3SB5N7Y3O4Q8PVSWCHTLAKCRAAH0GJ","A307K1CZXGBN4L","3MXX6RQ9EVRTFC527Z18RDK8KW6P4R","","null","<img src=""img/flower1.png"" style=""width:200px;border:14px solid red;"">","null","","","","","","","","",""
"","image-keyboard-response","162","94022","0.0-162.0","3SB5N7Y3O4Q8PVSWCHTLAKCRAAH0GJ","A307K1CZXGBN4L","3MXX6RQ9EVRTFC527Z18RDK8KW6P4R","","245","img/flower1.png","74","247","1","0","2","1","1,0.333,0.333,0.333,1,0.333,0.333,0.333,1","1,0.333,0.333,0.333,1,0.333,0.333,0.333,1","1",""
"","html-keyboard-response","163","94323","0.0-163.0","3SB5N7Y3O4Q8PVSWCHTLAKCRAAH0GJ","A307K1CZXGBN4L","3MXX6RQ9EVRTFC527Z18RDK8KW6P4R","","null","<img src=""img/flower1.png"" style=""width:200px;border:14px solid red;"">","null","","","","","","","","",""
"","image-keyboard-response","164","94535","0.0-164.0","3SB5N7Y3O4Q8PVSWCHTLAKCRAAH0GJ","A307K1CZXGBN4L","3MXX6RQ9EVRTFC527Z18RDK8KW6P4R","","211","img/flower5.png","74","211","1","1","3","1","1,0.333,0.333,0.333,1,0.333,0.333,0.333,1","1,0.333,0.333,0.333,1,0.333,0.333,0.333,1","1",""
"","html-keyboard-response","165","94837","0.0-165.0","3SB5N7Y3O4Q8PVSWCHTLAKCRAAH0GJ","A307K1CZXGBN4L","3MXX6RQ9EVRTFC527Z18RDK8KW6P4R","","null","<img src=""img/flower5.png"" style=""width:200px; border:14px solid green;"">","null","","","","","","","","",""
"","image-keyboard-response","166","95202","0.0-166.0","3SB5N7Y3O4Q8PVSWCHTLAKCRAAH0GJ","A307K1CZXGBN4L","3MXX6RQ9EVRTFC527Z18RDK8KW6P4R","","364","img/flower5.png","74","365","1","0","3","1","1,0.333,0.333,0.333,1,0.333,0.333,0.333,1","1,0.333,0.333,0.333,1,0.333,0.333,0.333,1","1",""
"","html-keyboard-response","167","95504","0.0-167.0","3SB5N7Y3O4Q8PVSWCHTLAKCRAAH0GJ","A307K1CZXGBN4L","3MXX6RQ9EVRTFC527Z18RDK8KW6P4R","","null","<img src=""img/flower5.png"" style=""width:200px;border:14px solid red;"">","null","","","","","","","","",""
"","image-keyboard-response","168","95902","0.0-168.0","3SB5N7Y3O4Q8PVSWCHTLAKCRAAH0GJ","A307K1CZXGBN4L","3MXX6RQ9EVRTFC527Z18RDK8KW6P4R","","398","img/flower1.png","74","399","1","0","2","1","1,0.333,0.333,0.333,1,0.333,0.333,0.333,1","1,0.333,0.333,0.333,1,0.333,0.333,0.333,1","1",""
"","html-keyboard-response","169","96204","0.0-169.0","3SB5N7Y3O4Q8PVSWCHTLAKCRAAH0GJ","A307K1CZXGBN4L","3MXX6RQ9EVRTFC527Z18RDK8KW6P4R","","null","<img src=""img/flower1.png"" style=""width:200px;border:14px solid red;"">","null","","","","","","","","",""
"","image-keyboard-response","170","96397","0.0-170.0","3SB5N7Y3O4Q8PVSWCHTLAKCRAAH0GJ","A307K1CZXGBN4L","3MXX6RQ9EVRTFC527Z18RDK8KW6P4R","","191","img/flower1.png","74","192","1","0","2","1","1,0.333,0.333,0.333,1,0.333,0.333,0.333,1","1,0.333,0.333,0.333,1,0.333,0.333,0.333,1","1",""
"","html-keyboard-response","171","96699","0.0-171.0","3SB5N7Y3O4Q8PVSWCHTLAKCRAAH0GJ","A307K1CZXGBN4L","3MXX6RQ9EVRTFC527Z18RDK8KW6P4R","","null","<img src=""img/flower1.png"" style=""width:200px;border:14px solid red;"">","null","","","","","","","","",""
"","image-keyboard-response","172","96958","0.0-172.0","3SB5N7Y3O4Q8PVSWCHTLAKCRAAH0GJ","A307K1CZXGBN4L","3MXX6RQ9EVRTFC527Z18RDK8KW6P4R","","259","img/flower6.png","74","260","1","1","1","1","1,0.333,0.333,0.333,1,0.333,0.333,0.333,1","1,0.333,0.333,0.333,1,0.333,0.333,0.333,1","1",""
"","html-keyboard-response","173","97261","0.0-173.0","3SB5N7Y3O4Q8PVSWCHTLAKCRAAH0GJ","A307K1CZXGBN4L","3MXX6RQ9EVRTFC527Z18RDK8KW6P4R","","null","<img src=""img/flower6.png"" style=""width:200px; border:14px solid green;"">","null","","","","","","","","",""
"","image-keyboard-response","174","97539","0.0-174.0","3SB5N7Y3O4Q8PVSWCHTLAKCRAAH0GJ","A307K1CZXGBN4L","3MXX6RQ9EVRTFC527Z18RDK8KW6P4R","","276","img/flower6.png","74","277","1","1","1","1","1,0.333,0.333,0.333,1,0.333,0.333,0.333,1","1,0.333,0.333,0.333,1,0.333,0.333,0.333,1","1",""
"","html-keyboard-response","175","97840","0.0-175.0","3SB5N7Y3O4Q8PVSWCHTLAKCRAAH0GJ","A307K1CZXGBN4L","3MXX6RQ9EVRTFC527Z18RDK8KW6P4R","","null","<img src=""img/flower6.png"" style=""width:200px; border:14px solid green;"">","null","","","","","","","","",""
"","image-keyboard-response","176","98071","0.0-176.0","3SB5N7Y3O4Q8PVSWCHTLAKCRAAH0GJ","A307K1CZXGBN4L","3MXX6RQ9EVRTFC527Z18RDK8KW6P4R","","229","img/flower5.png","74","230","1","0","3","1","1,0.333,0.333,0.333,1,0.333,0.333,0.333,1","1,0.333,0.333,0.333,1,0.333,0.333,0.333,1","1",""
"","html-keyboard-response","177","98373","0.0-177.0","3SB5N7Y3O4Q8PVSWCHTLAKCRAAH0GJ","A307K1CZXGBN4L","3MXX6RQ9EVRTFC527Z18RDK8KW6P4R","","null","<img src=""img/flower5.png"" style=""width:200px;border:14px solid red;"">","null","","","","","","","","",""
"","image-keyboard-response","178","98975","0.0-178.0","3SB5N7Y3O4Q8PVSWCHTLAKCRAAH0GJ","A307K1CZXGBN4L","3MXX6RQ9EVRTFC527Z18RDK8KW6P4R","","601","img/flower5.png","75","601","2","0","3","1","1,0.333,0.333,0.333,1,0.333,0.333,0.333,1","1,0.333,0.333,0.333,1,0.333,0.333,0.333,1","1",""
"","html-keyboard-response","179","99276","0.0-179.0","3SB5N7Y3O4Q8PVSWCHTLAKCRAAH0GJ","A307K1CZXGBN4L","3MXX6RQ9EVRTFC527Z18RDK8KW6P4R","","null","<img src=""img/flower5.png"" style=""width:200px;border:14px solid red;"">","null","","","","","","","","",""
"","image-keyboard-response","180","99495","0.0-180.0","3SB5N7Y3O4Q8PVSWCHTLAKCRAAH0GJ","A307K1CZXGBN4L","3MXX6RQ9EVRTFC527Z18RDK8KW6P4R","","215","img/flower1.png","75","218","2","1","2","1","1,0.333,0.333,0.333,1,0.333,0.333,0.333,1","1,0.333,0.333,0.333,1,0.333,0.333,0.333,1","1",""
"","html-keyboard-response","181","99796","0.0-181.0","3SB5N7Y3O4Q8PVSWCHTLAKCRAAH0GJ","A307K1CZXGBN4L","3MXX6RQ9EVRTFC527Z18RDK8KW6P4R","","null","<img src=""img/flower1.png"" style=""width:200px; border:14px solid green;"">","null","","","","","","","","",""
"","html-keyboard-response","182","102603","0.0-182.0","3SB5N7Y3O4Q8PVSWCHTLAKCRAAH0GJ","A307K1CZXGBN4L","3MXX6RQ9EVRTFC527Z18RDK8KW6P4R","","","","","","","","","","","","",""
"","image-keyboard-response","183","103678","0.0-183.0","3SB5N7Y3O4Q8PVSWCHTLAKCRAAH0GJ","A307K1CZXGBN4L","3MXX6RQ9EVRTFC527Z18RDK8KW6P4R","","1072","img/flower2.png","74","1075","1","1","3","2","1,0,0,1,1,0,1,0,1","0,1,0,0,1,1,1,1,0","3",""
"","html-keyboard-response","184","103984","0.0-184.0","3SB5N7Y3O4Q8PVSWCHTLAKCRAAH0GJ","A307K1CZXGBN4L","3MXX6RQ9EVRTFC527Z18RDK8KW6P4R","","null","<img src=""img/flower2.png"" style=""width:200px; border:14px solid green;"">","null","","","","","","","","",""
"","image-keyboard-response","185","104540","0.0-185.0","3SB5N7Y3O4Q8PVSWCHTLAKCRAAH0GJ","A307K1CZXGBN4L","3MXX6RQ9EVRTFC527Z18RDK8KW6P4R","","555","img/flower3.png","74","556","1","0","2","2","1,0,0,1,1,0,1,0,1","0,1,0,0,1,1,1,1,0","3",""
"","html-keyboard-response","186","104842","0.0-186.0","3SB5N7Y3O4Q8PVSWCHTLAKCRAAH0GJ","A307K1CZXGBN4L","3MXX6RQ9EVRTFC527Z18RDK8KW6P4R","","null","<img src=""img/flower3.png"" style=""width:200px;border:14px solid red;"">","null","","","","","","","","",""
"","image-keyboard-response","187","105311","0.0-187.0","3SB5N7Y3O4Q8PVSWCHTLAKCRAAH0GJ","A307K1CZXGBN4L","3MXX6RQ9EVRTFC527Z18RDK8KW6P4R","","467","img/flower3.png","75","468","2","1","2","2","1,0,0,1,1,0,1,0,1","0,1,0,0,1,1,1,1,0","3",""
"","html-keyboard-response","188","105612","0.0-188.0","3SB5N7Y3O4Q8PVSWCHTLAKCRAAH0GJ","A307K1CZXGBN4L","3MXX6RQ9EVRTFC527Z18RDK8KW6P4R","","null","<img src=""img/flower3.png"" style=""width:200px; border:14px solid green;"">","null","","","","","","","","",""
"","image-keyboard-response","189","106278","0.0-189.0","3SB5N7Y3O4Q8PVSWCHTLAKCRAAH0GJ","A307K1CZXGBN4L","3MXX6RQ9EVRTFC527Z18RDK8KW6P4R","","663","img/flower2.png","74","666","1","1","3","2","1,0,0,1,1,0,1,0,1","0,1,0,0,1,1,1,1,0","3",""
"","html-keyboard-response","190","106580","0.0-190.0","3SB5N7Y3O4Q8PVSWCHTLAKCRAAH0GJ","A307K1CZXGBN4L","3MXX6RQ9EVRTFC527Z18RDK8KW6P4R","","null","<img src=""img/flower2.png"" style=""width:200px; border:14px solid green;"">","null","","","","","","","","",""
"","image-keyboard-response","191","107455","0.0-191.0","3SB5N7Y3O4Q8PVSWCHTLAKCRAAH0GJ","A307K1CZXGBN4L","3MXX6RQ9EVRTFC527Z18RDK8KW6P4R","","874","img/flower4.png","75","876","2","1","1","2","1,0,0,1,1,0,1,0,1","0,1,0,0,1,1,1,1,0","3",""
"","html-keyboard-response","192","107757","0.0-192.0","3SB5N7Y3O4Q8PVSWCHTLAKCRAAH0GJ","A307K1CZXGBN4L","3MXX6RQ9EVRTFC527Z18RDK8KW6P4R","","null","<img src=""img/flower4.png"" style=""width:200px; border:14px solid green;"">","null","","","","","","","","",""
"","image-keyboard-response","193","108367","0.0-193.0","3SB5N7Y3O4Q8PVSWCHTLAKCRAAH0GJ","A307K1CZXGBN4L","3MXX6RQ9EVRTFC527Z18RDK8KW6P4R","","607","img/flower4.png","74","610","1","0","1","2","1,0,0,1,1,0,1,0,1","0,1,0,0,1,1,1,1,0","3",""
"","html-keyboard-response","194","108668","0.0-194.0","3SB5N7Y3O4Q8PVSWCHTLAKCRAAH0GJ","A307K1CZXGBN4L","3MXX6RQ9EVRTFC527Z18RDK8KW6P4R","","null","<img src=""img/flower4.png"" style=""width:200px;border:14px solid red;"">","null","","","","","","","","",""
"","image-keyboard-response","195","109079","0.0-195.0","3SB5N7Y3O4Q8PVSWCHTLAKCRAAH0GJ","A307K1CZXGBN4L","3MXX6RQ9EVRTFC527Z18RDK8KW6P4R","","408","img/flower2.png","75","410","2","1","3","2","1,0,0,1,1,0,1,0,1","0,1,0,0,1,1,1,1,0","3",""
"","html-keyboard-response","196","109381","0.0-196.0","3SB5N7Y3O4Q8PVSWCHTLAKCRAAH0GJ","A307K1CZXGBN4L","3MXX6RQ9EVRTFC527Z18RDK8KW6P4R","","null","<img src=""img/flower2.png"" style=""width:200px; border:14px solid green;"">","null","","","","","","","","",""
"","image-keyboard-response","197","110750","0.0-197.0","3SB5N7Y3O4Q8PVSWCHTLAKCRAAH0GJ","A307K1CZXGBN4L","3MXX6RQ9EVRTFC527Z18RDK8KW6P4R","","1368","img/flower4.png","74","1370","1","0","1","2","1,0,0,1,1,0,1,0,1","0,1,0,0,1,1,1,1,0","3",""
"","html-keyboard-response","198","111052","0.0-198.0","3SB5N7Y3O4Q8PVSWCHTLAKCRAAH0GJ","A307K1CZXGBN4L","3MXX6RQ9EVRTFC527Z18RDK8KW6P4R","","null","<img src=""img/flower4.png"" style=""width:200px;border:14px solid red;"">","null","","","","","","","","",""
"","image-keyboard-response","199","111679","0.0-199.0","3SB5N7Y3O4Q8PVSWCHTLAKCRAAH0GJ","A307K1CZXGBN4L","3MXX6RQ9EVRTFC527Z18RDK8KW6P4R","","625","img/flower3.png","75","627","2","1","2","2","1,0,0,1,1,0,1,0,1","0,1,0,0,1,1,1,1,0","3",""
"","html-keyboard-response","200","111980","0.0-200.0","3SB5N7Y3O4Q8PVSWCHTLAKCRAAH0GJ","A307K1CZXGBN4L","3MXX6RQ9EVRTFC527Z18RDK8KW6P4R","","null","<img src=""img/flower3.png"" style=""width:200px; border:14px solid green;"">","null","","","","","","","","",""
"","image-keyboard-response","201","112791","0.0-201.0","3SB5N7Y3O4Q8PVSWCHTLAKCRAAH0GJ","A307K1CZXGBN4L","3MXX6RQ9EVRTFC527Z18RDK8KW6P4R","","809","img/flower3.png","75","809","2","1","2","2","1,0,0,1,1,0,1,0,1","0,1,0,0,1,1,1,1,0","3",""
"","html-keyboard-response","202","113095","0.0-202.0","3SB5N7Y3O4Q8PVSWCHTLAKCRAAH0GJ","A307K1CZXGBN4L","3MXX6RQ9EVRTFC527Z18RDK8KW6P4R","","null","<img src=""img/flower3.png"" style=""width:200px; border:14px solid green;"">","null","","","","","","","","",""
"","image-keyboard-response","203","113687","0.0-203.0","3SB5N7Y3O4Q8PVSWCHTLAKCRAAH0GJ","A307K1CZXGBN4L","3MXX6RQ9EVRTFC527Z18RDK8KW6P4R","","591","img/flower2.png","74","592","1","1","3","2","1,0,0,1,1,0,1,0,1","0,1,0,0,1,1,1,1,0","3",""
"","html-keyboard-response","204","113989","0.0-204.0","3SB5N7Y3O4Q8PVSWCHTLAKCRAAH0GJ","A307K1CZXGBN4L","3MXX6RQ9EVRTFC527Z18RDK8KW6P4R","","null","<img src=""img/flower2.png"" style=""width:200px; border:14px solid green;"">","null","","","","","","","","",""
"","image-keyboard-response","205","114606","0.0-205.0","3SB5N7Y3O4Q8PVSWCHTLAKCRAAH0GJ","A307K1CZXGBN4L","3MXX6RQ9EVRTFC527Z18RDK8KW6P4R","","617","img/flower2.png","74","618","1","1","3","2","1,0,0,1,1,0,1,0,1","0,1,0,0,1,1,1,1,0","3",""
"","html-keyboard-response","206","114908","0.0-206.0","3SB5N7Y3O4Q8PVSWCHTLAKCRAAH0GJ","A307K1CZXGBN4L","3MXX6RQ9EVRTFC527Z18RDK8KW6P4R","","null","<img src=""img/flower2.png"" style=""width:200px; border:14px solid green;"">","null","","","","","","","","",""
"","image-keyboard-response","207","115423","0.0-207.0","3SB5N7Y3O4Q8PVSWCHTLAKCRAAH0GJ","A307K1CZXGBN4L","3MXX6RQ9EVRTFC527Z18RDK8KW6P4R","","513","img/flower4.png","75","514","2","1","1","2","1,0,0,1,1,0,1,0,1","0,1,0,0,1,1,1,1,0","3",""
"","html-keyboard-response","208","115724","0.0-208.0","3SB5N7Y3O4Q8PVSWCHTLAKCRAAH0GJ","A307K1CZXGBN4L","3MXX6RQ9EVRTFC527Z18RDK8KW6P4R","","null","<img src=""img/flower4.png"" style=""width:200px; border:14px solid green;"">","null","","","","","","","","",""
"","image-keyboard-response","209","116305","0.0-209.0","3SB5N7Y3O4Q8PVSWCHTLAKCRAAH0GJ","A307K1CZXGBN4L","3MXX6RQ9EVRTFC527Z18RDK8KW6P4R","","577","img/flower2.png","74","582","1","1","3","2","1,0,0,1,1,0,1,0,1","0,1,0,0,1,1,1,1,0","3",""
"","html-keyboard-response","210","116607","0.0-210.0","3SB5N7Y3O4Q8PVSWCHTLAKCRAAH0GJ","A307K1CZXGBN4L","3MXX6RQ9EVRTFC527Z18RDK8KW6P4R","","null","<img src=""img/flower2.png"" style=""width:200px; border:14px solid green;"">","null","","","","","","","","",""
"","image-keyboard-response","211","117143","0.0-211.0","3SB5N7Y3O4Q8PVSWCHTLAKCRAAH0GJ","A307K1CZXGBN4L","3MXX6RQ9EVRTFC527Z18RDK8KW6P4R","","535","img/flower4.png","75","535","2","1","1","2","1,0,0,1,1,0,1,0,1","0,1,0,0,1,1,1,1,0","3",""
"","html-keyboard-response","212","117445","0.0-212.0","3SB5N7Y3O4Q8PVSWCHTLAKCRAAH0GJ","A307K1CZXGBN4L","3MXX6RQ9EVRTFC527Z18RDK8KW6P4R","","null","<img src=""img/flower4.png"" style=""width:200px; border:14px solid green;"">","null","","","","","","","","",""
"","image-keyboard-response","213","118238","0.0-213.0","3SB5N7Y3O4Q8PVSWCHTLAKCRAAH0GJ","A307K1CZXGBN4L","3MXX6RQ9EVRTFC527Z18RDK8KW6P4R","","792","img/flower3.png","75","792","2","1","2","2","1,0,0,1,1,0,1,0,1","0,1,0,0,1,1,1,1,0","3",""
"","html-keyboard-response","214","118540","0.0-214.0","3SB5N7Y3O4Q8PVSWCHTLAKCRAAH0GJ","A307K1CZXGBN4L","3MXX6RQ9EVRTFC527Z18RDK8KW6P4R","","null","<img src=""img/flower3.png"" style=""width:200px; border:14px solid green;"">","null","","","","","","","","",""
"","image-keyboard-response","215","119169","0.0-215.0","3SB5N7Y3O4Q8PVSWCHTLAKCRAAH0GJ","A307K1CZXGBN4L","3MXX6RQ9EVRTFC527Z18RDK8KW6P4R","","628","img/flower2.png","74","628","1","1","3","2","1,0,0,1,1,0,1,0,1","0,1,0,0,1,1,1,1,0","3",""
"","html-keyboard-response","216","119471","0.0-216.0","3SB5N7Y3O4Q8PVSWCHTLAKCRAAH0GJ","A307K1CZXGBN4L","3MXX6RQ9EVRTFC527Z18RDK8KW6P4R","","null","<img src=""img/flower2.png"" style=""width:200px; border:14px solid green;"">","null","","","","","","","","",""
"","image-keyboard-response","217","119848","0.0-217.0","3SB5N7Y3O4Q8PVSWCHTLAKCRAAH0GJ","A307K1CZXGBN4L","3MXX6RQ9EVRTFC527Z18RDK8KW6P4R","","376","img/flower2.png","75","377","2","1","3","2","1,0,0,1,1,0,1,0,1","0,1,0,0,1,1,1,1,0","3",""
"","html-keyboard-response","218","120149","0.0-218.0","3SB5N7Y3O4Q8PVSWCHTLAKCRAAH0GJ","A307K1CZXGBN4L","3MXX6RQ9EVRTFC527Z18RDK8KW6P4R","","null","<img src=""img/flower2.png"" style=""width:200px; border:14px solid green;"">","null","","","","","","","","",""
"","image-keyboard-response","219","120791","0.0-219.0","3SB5N7Y3O4Q8PVSWCHTLAKCRAAH0GJ","A307K1CZXGBN4L","3MXX6RQ9EVRTFC527Z18RDK8KW6P4R","","639","img/flower2.png","74","641","1","1","3","2","1,0,0,1,1,0,1,0,1","0,1,0,0,1,1,1,1,0","3",""
"","html-keyboard-response","220","121092","0.0-220.0","3SB5N7Y3O4Q8PVSWCHTLAKCRAAH0GJ","A307K1CZXGBN4L","3MXX6RQ9EVRTFC527Z18RDK8KW6P4R","","null","<img src=""img/flower2.png"" style=""width:200px; border:14px solid green;"">","null","","","","","","","","",""
"","image-keyboard-response","221","121744","0.0-221.0","3SB5N7Y3O4Q8PVSWCHTLAKCRAAH0GJ","A307K1CZXGBN4L","3MXX6RQ9EVRTFC527Z18RDK8KW6P4R","","651","img/flower4.png","75","652","2","1","1","2","1,0,0,1,1,0,1,0,1","0,1,0,0,1,1,1,1,0","3",""
"","html-keyboard-response","222","122046","0.0-222.0","3SB5N7Y3O4Q8PVSWCHTLAKCRAAH0GJ","A307K1CZXGBN4L","3MXX6RQ9EVRTFC527Z18RDK8KW6P4R","","null","<img src=""img/flower4.png"" style=""width:200px; border:14px solid green;"">","null","","","","","","","","",""
"","image-keyboard-response","223","123343","0.0-223.0","3SB5N7Y3O4Q8PVSWCHTLAKCRAAH0GJ","A307K1CZXGBN4L","3MXX6RQ9EVRTFC527Z18RDK8KW6P4R","","1296","img/flower3.png","75","1296","2","1","2","2","1,0,0,1,1,0,1,0,1","0,1,0,0,1,1,1,1,0","3",""
"","html-keyboard-response","224","123645","0.0-224.0","3SB5N7Y3O4Q8PVSWCHTLAKCRAAH0GJ","A307K1CZXGBN4L","3MXX6RQ9EVRTFC527Z18RDK8KW6P4R","","null","<img src=""img/flower3.png"" style=""width:200px; border:14px solid green;"">","null","","","","","","","","",""
"","image-keyboard-response","225","124058","0.0-225.0","3SB5N7Y3O4Q8PVSWCHTLAKCRAAH0GJ","A307K1CZXGBN4L","3MXX6RQ9EVRTFC527Z18RDK8KW6P4R","","413","img/flower4.png","75","413","2","1","1","2","1,0,0,1,1,0,1,0,1","0,1,0,0,1,1,1,1,0","3",""
"","html-keyboard-response","226","124359","0.0-226.0","3SB5N7Y3O4Q8PVSWCHTLAKCRAAH0GJ","A307K1CZXGBN4L","3MXX6RQ9EVRTFC527Z18RDK8KW6P4R","","null","<img src=""img/flower4.png"" style=""width:200px; border:14px solid green;"">","null","","","","","","","","",""
"","image-keyboard-response","227","124767","0.0-227.0","3SB5N7Y3O4Q8PVSWCHTLAKCRAAH0GJ","A307K1CZXGBN4L","3MXX6RQ9EVRTFC527Z18RDK8KW6P4R","","407","img/flower3.png","75","408","2","1","2","2","1,0,0,1,1,0,1,0,1","0,1,0,0,1,1,1,1,0","3",""
"","html-keyboard-response","228","125070","0.0-228.0","3SB5N7Y3O4Q8PVSWCHTLAKCRAAH0GJ","A307K1CZXGBN4L","3MXX6RQ9EVRTFC527Z18RDK8KW6P4R","","null","<img src=""img/flower3.png"" style=""width:200px; border:14px solid green;"">","null","","","","","","","","",""
"","image-keyboard-response","229","125343","0.0-229.0","3SB5N7Y3O4Q8PVSWCHTLAKCRAAH0GJ","A307K1CZXGBN4L","3MXX6RQ9EVRTFC527Z18RDK8KW6P4R","","272","img/flower3.png","75","273","2","1","2","2","1,0,0,1,1,0,1,0,1","0,1,0,0,1,1,1,1,0","3",""
"","html-keyboard-response","230","125645","0.0-230.0","3SB5N7Y3O4Q8PVSWCHTLAKCRAAH0GJ","A307K1CZXGBN4L","3MXX6RQ9EVRTFC527Z18RDK8KW6P4R","","null","<img src=""img/flower3.png"" style=""width:200px; border:14px solid green;"">","null","","","","","","","","",""
"","image-keyboard-response","231","126152","0.0-231.0","3SB5N7Y3O4Q8PVSWCHTLAKCRAAH0GJ","A307K1CZXGBN4L","3MXX6RQ9EVRTFC527Z18RDK8KW6P4R","","505","img/flower2.png","74","507","1","1","3","2","1,0,0,1,1,0,1,0,1","0,1,0,0,1,1,1,1,0","3",""
"","html-keyboard-response","232","126452","0.0-232.0","3SB5N7Y3O4Q8PVSWCHTLAKCRAAH0GJ","A307K1CZXGBN4L","3MXX6RQ9EVRTFC527Z18RDK8KW6P4R","","null","<img src=""img/flower2.png"" style=""width:200px; border:14px solid green;"">","null","","","","","","","","",""
"","image-keyboard-response","233","126745","0.0-233.0","3SB5N7Y3O4Q8PVSWCHTLAKCRAAH0GJ","A307K1CZXGBN4L","3MXX6RQ9EVRTFC527Z18RDK8KW6P4R","","290","img/flower2.png","75","293","2","1","3","2","1,0,0,1,1,0,1,0,1","0,1,0,0,1,1,1,1,0","3",""
"","html-keyboard-response","234","127050","0.0-234.0","3SB5N7Y3O4Q8PVSWCHTLAKCRAAH0GJ","A307K1CZXGBN4L","3MXX6RQ9EVRTFC527Z18RDK8KW6P4R","","null","<img src=""img/flower2.png"" style=""width:200px; border:14px solid green;"">","null","","","","","","","","",""
"","image-keyboard-response","235","127463","0.0-235.0","3SB5N7Y3O4Q8PVSWCHTLAKCRAAH0GJ","A307K1CZXGBN4L","3MXX6RQ9EVRTFC527Z18RDK8KW6P4R","","412","img/flower4.png","74","412","1","0","1","2","1,0,0,1,1,0,1,0,1","0,1,0,0,1,1,1,1,0","3",""
"","html-keyboard-response","236","127765","0.0-236.0","3SB5N7Y3O4Q8PVSWCHTLAKCRAAH0GJ","A307K1CZXGBN4L","3MXX6RQ9EVRTFC527Z18RDK8KW6P4R","","null","<img src=""img/flower4.png"" style=""width:200px;border:14px solid red;"">","null","","","","","","","","",""
"","image-keyboard-response","237","128615","0.0-237.0","3SB5N7Y3O4Q8PVSWCHTLAKCRAAH0GJ","A307K1CZXGBN4L","3MXX6RQ9EVRTFC527Z18RDK8KW6P4R","","848","img/flower3.png","75","850","2","1","2","2","1,0,0,1,1,0,1,0,1","0,1,0,0,1,1,1,1,0","3",""
"","html-keyboard-response","238","128917","0.0-238.0","3SB5N7Y3O4Q8PVSWCHTLAKCRAAH0GJ","A307K1CZXGBN4L","3MXX6RQ9EVRTFC527Z18RDK8KW6P4R","","null","<img src=""img/flower3.png"" style=""width:200px; border:14px solid green;"">","null","","","","","","","","",""
"","image-keyboard-response","239","129400","0.0-239.0","3SB5N7Y3O4Q8PVSWCHTLAKCRAAH0GJ","A307K1CZXGBN4L","3MXX6RQ9EVRTFC527Z18RDK8KW6P4R","","481","img/flower2.png","74","481","1","1","3","2","1,0,0,1,1,0,1,0,1","0,1,0,0,1,1,1,1,0","3",""
"","html-keyboard-response","240","129701","0.0-240.0","3SB5N7Y3O4Q8PVSWCHTLAKCRAAH0GJ","A307K1CZXGBN4L","3MXX6RQ9EVRTFC527Z18RDK8KW6P4R","","null","<img src=""img/flower2.png"" style=""width:200px; border:14px solid green;"">","null","","","","","","","","",""
"","image-keyboard-response","241","130306","0.0-241.0","3SB5N7Y3O4Q8PVSWCHTLAKCRAAH0GJ","A307K1CZXGBN4L","3MXX6RQ9EVRTFC527Z18RDK8KW6P4R","","604","img/flower4.png","75","604","2","1","1","2","1,0,0,1,1,0,1,0,1","0,1,0,0,1,1,1,1,0","3",""
"","html-keyboard-response","242","130607","0.0-242.0","3SB5N7Y3O4Q8PVSWCHTLAKCRAAH0GJ","A307K1CZXGBN4L","3MXX6RQ9EVRTFC527Z18RDK8KW6P4R","","null","<img src=""img/flower4.png"" style=""width:200px; border:14px solid green;"">","null","","","","","","","","",""
"","image-keyboard-response","243","131079","0.0-243.0","3SB5N7Y3O4Q8PVSWCHTLAKCRAAH0GJ","A307K1CZXGBN4L","3MXX6RQ9EVRTFC527Z18RDK8KW6P4R","","469","img/flower4.png","75","471","2","1","1","2","1,0,0,1,1,0,1,0,1","0,1,0,0,1,1,1,1,0","3",""
"","html-keyboard-response","244","131381","0.0-244.0","3SB5N7Y3O4Q8PVSWCHTLAKCRAAH0GJ","A307K1CZXGBN4L","3MXX6RQ9EVRTFC527Z18RDK8KW6P4R","","null","<img src=""img/flower4.png"" style=""width:200px; border:14px solid green;"">","null","","","","","","","","",""
"","image-keyboard-response","245","131757","0.0-245.0","3SB5N7Y3O4Q8PVSWCHTLAKCRAAH0GJ","A307K1CZXGBN4L","3MXX6RQ9EVRTFC527Z18RDK8KW6P4R","","375","img/flower4.png","75","376","2","1","1","2","1,0,0,1,1,0,1,0,1","0,1,0,0,1,1,1,1,0","3",""
"","html-keyboard-response","246","132060","0.0-246.0","3SB5N7Y3O4Q8PVSWCHTLAKCRAAH0GJ","A307K1CZXGBN4L","3MXX6RQ9EVRTFC527Z18RDK8KW6P4R","","null","<img src=""img/flower4.png"" style=""width:200px; border:14px solid green;"">","null","","","","","","","","",""
"","image-keyboard-response","247","132502","0.0-247.0","3SB5N7Y3O4Q8PVSWCHTLAKCRAAH0GJ","A307K1CZXGBN4L","3MXX6RQ9EVRTFC527Z18RDK8KW6P4R","","441","img/flower3.png","75","441","2","1","2","2","1,0,0,1,1,0,1,0,1","0,1,0,0,1,1,1,1,0","3",""
"","html-keyboard-response","248","132804","0.0-248.0","3SB5N7Y3O4Q8PVSWCHTLAKCRAAH0GJ","A307K1CZXGBN4L","3MXX6RQ9EVRTFC527Z18RDK8KW6P4R","","null","<img src=""img/flower3.png"" style=""width:200px; border:14px solid green;"">","null","","","","","","","","",""
"","image-keyboard-response","249","133110","0.0-249.0","3SB5N7Y3O4Q8PVSWCHTLAKCRAAH0GJ","A307K1CZXGBN4L","3MXX6RQ9EVRTFC527Z18RDK8KW6P4R","","304","img/flower3.png","75","306","2","1","2","2","1,0,0,1,1,0,1,0,1","0,1,0,0,1,1,1,1,0","3",""
"","html-keyboard-response","250","133413","0.0-250.0","3SB5N7Y3O4Q8PVSWCHTLAKCRAAH0GJ","A307K1CZXGBN4L","3MXX6RQ9EVRTFC527Z18RDK8KW6P4R","","null","<img src=""img/flower3.png"" style=""width:200px; border:14px solid green;"">","null","","","","","","","","",""
"","image-keyboard-response","251","133879","0.0-251.0","3SB5N7Y3O4Q8PVSWCHTLAKCRAAH0GJ","A307K1CZXGBN4L","3MXX6RQ9EVRTFC527Z18RDK8KW6P4R","","465","img/flower2.png","74","465","1","1","3","2","1,0,0,1,1,0,1,0,1","0,1,0,0,1,1,1,1,0","3",""
"","html-keyboard-response","252","134182","0.0-252.0","3SB5N7Y3O4Q8PVSWCHTLAKCRAAH0GJ","A307K1CZXGBN4L","3MXX6RQ9EVRTFC527Z18RDK8KW6P4R","","null","<img src=""img/flower2.png"" style=""width:200px; border:14px solid green;"">","null","","","","","","","","",""
"","image-keyboard-response","253","134607","0.0-253.0","3SB5N7Y3O4Q8PVSWCHTLAKCRAAH0GJ","A307K1CZXGBN4L","3MXX6RQ9EVRTFC527Z18RDK8KW6P4R","","424","img/flower4.png","75","424","2","1","1","2","1,0,0,1,1,0,1,0,1","0,1,0,0,1,1,1,1,0","3",""
"","html-keyboard-response","254","134909","0.0-254.0","3SB5N7Y3O4Q8PVSWCHTLAKCRAAH0GJ","A307K1CZXGBN4L","3MXX6RQ9EVRTFC527Z18RDK8KW6P4R","","null","<img src=""img/flower4.png"" style=""width:200px; border:14px solid green;"">","null","","","","","","","","",""
"","image-keyboard-response","255","135224","0.0-255.0","3SB5N7Y3O4Q8PVSWCHTLAKCRAAH0GJ","A307K1CZXGBN4L","3MXX6RQ9EVRTFC527Z18RDK8KW6P4R","","313","img/flower3.png","75","314","2","1","2","2","1,0,0,1,1,0,1,0,1","0,1,0,0,1,1,1,1,0","3",""
"","html-keyboard-response","256","135525","0.0-256.0","3SB5N7Y3O4Q8PVSWCHTLAKCRAAH0GJ","A307K1CZXGBN4L","3MXX6RQ9EVRTFC527Z18RDK8KW6P4R","","null","<img src=""img/flower3.png"" style=""width:200px; border:14px solid green;"">","null","","","","","","","","",""
"","image-keyboard-response","257","136047","0.0-257.0","3SB5N7Y3O4Q8PVSWCHTLAKCRAAH0GJ","A307K1CZXGBN4L","3MXX6RQ9EVRTFC527Z18RDK8KW6P4R","","521","img/flower4.png","75","522","2","1","1","2","1,0,0,1,1,0,1,0,1","0,1,0,0,1,1,1,1,0","3",""
"","html-keyboard-response","258","136349","0.0-258.0","3SB5N7Y3O4Q8PVSWCHTLAKCRAAH0GJ","A307K1CZXGBN4L","3MXX6RQ9EVRTFC527Z18RDK8KW6P4R","","null","<img src=""img/flower4.png"" style=""width:200px; border:14px solid green;"">","null","","","","","","","","",""
"","image-keyboard-response","259","136727","0.0-259.0","3SB5N7Y3O4Q8PVSWCHTLAKCRAAH0GJ","A307K1CZXGBN4L","3MXX6RQ9EVRTFC527Z18RDK8KW6P4R","","377","img/flower4.png","75","378","2","1","1","2","1,0,0,1,1,0,1,0,1","0,1,0,0,1,1,1,1,0","3",""
"","html-keyboard-response","260","137030","0.0-260.0","3SB5N7Y3O4Q8PVSWCHTLAKCRAAH0GJ","A307K1CZXGBN4L","3MXX6RQ9EVRTFC527Z18RDK8KW6P4R","","null","<img src=""img/flower4.png"" style=""width:200px; border:14px solid green;"">","null","","","","","","","","",""
"","image-keyboard-response","261","137136","0.0-261.0","3SB5N7Y3O4Q8PVSWCHTLAKCRAAH0GJ","A307K1CZXGBN4L","3MXX6RQ9EVRTFC527Z18RDK8KW6P4R","","106","img/flower3.png","75","106","2","1","2","2","1,0,0,1,1,0,1,0,1","0,1,0,0,1,1,1,1,0","3",""
"","html-keyboard-response","262","137439","0.0-262.0","3SB5N7Y3O4Q8PVSWCHTLAKCRAAH0GJ","A307K1CZXGBN4L","3MXX6RQ9EVRTFC527Z18RDK8KW6P4R","","null","<img src=""img/flower3.png"" style=""width:200px; border:14px solid green;"">","null","","","","","","","","",""
"","image-keyboard-response","263","137911","0.0-263.0","3SB5N7Y3O4Q8PVSWCHTLAKCRAAH0GJ","A307K1CZXGBN4L","3MXX6RQ9EVRTFC527Z18RDK8KW6P4R","","470","img/flower2.png","74","472","1","1","3","2","1,0,0,1,1,0,1,0,1","0,1,0,0,1,1,1,1,0","3",""
"","html-keyboard-response","264","138212","0.0-264.0","3SB5N7Y3O4Q8PVSWCHTLAKCRAAH0GJ","A307K1CZXGBN4L","3MXX6RQ9EVRTFC527Z18RDK8KW6P4R","","null","<img src=""img/flower2.png"" style=""width:200px; border:14px solid green;"">","null","","","","","","","","",""
"","image-keyboard-response","265","138681","0.0-265.0","3SB5N7Y3O4Q8PVSWCHTLAKCRAAH0GJ","A307K1CZXGBN4L","3MXX6RQ9EVRTFC527Z18RDK8KW6P4R","","466","img/flower2.png","74","468","1","1","3","2","1,0,0,1,1,0,1,0,1","0,1,0,0,1,1,1,1,0","3",""
"","html-keyboard-response","266","138982","0.0-266.0","3SB5N7Y3O4Q8PVSWCHTLAKCRAAH0GJ","A307K1CZXGBN4L","3MXX6RQ9EVRTFC527Z18RDK8KW6P4R","","null","<img src=""img/flower2.png"" style=""width:200px; border:14px solid green;"">","null","","","","","","","","",""
"","image-keyboard-response","267","139463","0.0-267.0","3SB5N7Y3O4Q8PVSWCHTLAKCRAAH0GJ","A307K1CZXGBN4L","3MXX6RQ9EVRTFC527Z18RDK8KW6P4R","","480","img/flower4.png","75","480","2","1","1","2","1,0,0,1,1,0,1,0,1","0,1,0,0,1,1,1,1,0","3",""
"","html-keyboard-response","268","139766","0.0-268.0","3SB5N7Y3O4Q8PVSWCHTLAKCRAAH0GJ","A307K1CZXGBN4L","3MXX6RQ9EVRTFC527Z18RDK8KW6P4R","","null","<img src=""img/flower4.png"" style=""width:200px; border:14px solid green;"">","null","","","","","","","","",""
"","image-keyboard-response","269","140087","0.0-269.0","3SB5N7Y3O4Q8PVSWCHTLAKCRAAH0GJ","A307K1CZXGBN4L","3MXX6RQ9EVRTFC527Z18RDK8KW6P4R","","319","img/flower3.png","75","321","2","1","2","2","1,0,0,1,1,0,1,0,1","0,1,0,0,1,1,1,1,0","3",""
"","html-keyboard-response","270","140389","0.0-270.0","3SB5N7Y3O4Q8PVSWCHTLAKCRAAH0GJ","A307K1CZXGBN4L","3MXX6RQ9EVRTFC527Z18RDK8KW6P4R","","null","<img src=""img/flower3.png"" style=""width:200px; border:14px solid green;"">","null","","","","","","","","",""
"","image-keyboard-response","271","140661","0.0-271.0","3SB5N7Y3O4Q8PVSWCHTLAKCRAAH0GJ","A307K1CZXGBN4L","3MXX6RQ9EVRTFC527Z18RDK8KW6P4R","","271","img/flower4.png","75","272","2","1","1","2","1,0,0,1,1,0,1,0,1","0,1,0,0,1,1,1,1,0","3",""
"","html-keyboard-response","272","140963","0.0-272.0","3SB5N7Y3O4Q8PVSWCHTLAKCRAAH0GJ","A307K1CZXGBN4L","3MXX6RQ9EVRTFC527Z18RDK8KW6P4R","","null","<img src=""img/flower4.png"" style=""width:200px; border:14px solid green;"">","null","","","","","","","","",""
"","image-keyboard-response","273","141247","0.0-273.0","3SB5N7Y3O4Q8PVSWCHTLAKCRAAH0GJ","A307K1CZXGBN4L","3MXX6RQ9EVRTFC527Z18RDK8KW6P4R","","283","img/flower3.png","75","283","2","1","2","2","1,0,0,1,1,0,1,0,1","0,1,0,0,1,1,1,1,0","3",""
"","html-keyboard-response","274","141549","0.0-274.0","3SB5N7Y3O4Q8PVSWCHTLAKCRAAH0GJ","A307K1CZXGBN4L","3MXX6RQ9EVRTFC527Z18RDK8KW6P4R","","null","<img src=""img/flower3.png"" style=""width:200px; border:14px solid green;"">","null","","","","","","","","",""
"","image-keyboard-response","275","141866","0.0-275.0","3SB5N7Y3O4Q8PVSWCHTLAKCRAAH0GJ","A307K1CZXGBN4L","3MXX6RQ9EVRTFC527Z18RDK8KW6P4R","","315","img/flower3.png","75","317","2","1","2","2","1,0,0,1,1,0,1,0,1","0,1,0,0,1,1,1,1,0","3",""
"","html-keyboard-response","276","142167","0.0-276.0","3SB5N7Y3O4Q8PVSWCHTLAKCRAAH0GJ","A307K1CZXGBN4L","3MXX6RQ9EVRTFC527Z18RDK8KW6P4R","","null","<img src=""img/flower3.png"" style=""width:200px; border:14px solid green;"">","null","","","","","","","","",""
"","image-keyboard-response","277","142455","0.0-277.0","3SB5N7Y3O4Q8PVSWCHTLAKCRAAH0GJ","A307K1CZXGBN4L","3MXX6RQ9EVRTFC527Z18RDK8KW6P4R","","285","img/flower3.png","75","287","2","1","2","2","1,0,0,1,1,0,1,0,1","0,1,0,0,1,1,1,1,0","3",""
"","html-keyboard-response","278","142756","0.0-278.0","3SB5N7Y3O4Q8PVSWCHTLAKCRAAH0GJ","A307K1CZXGBN4L","3MXX6RQ9EVRTFC527Z18RDK8KW6P4R","","null","<img src=""img/flower3.png"" style=""width:200px; border:14px solid green;"">","null","","","","","","","","",""
"","image-keyboard-response","279","143007","0.0-279.0","3SB5N7Y3O4Q8PVSWCHTLAKCRAAH0GJ","A307K1CZXGBN4L","3MXX6RQ9EVRTFC527Z18RDK8KW6P4R","","250","img/flower2.png","75","251","2","1","3","2","1,0,0,1,1,0,1,0,1","0,1,0,0,1,1,1,1,0","3",""
"","html-keyboard-response","280","143309","0.0-280.0","3SB5N7Y3O4Q8PVSWCHTLAKCRAAH0GJ","A307K1CZXGBN4L","3MXX6RQ9EVRTFC527Z18RDK8KW6P4R","","null","<img src=""img/flower2.png"" style=""width:200px; border:14px solid green;"">","null","","","","","","","","",""
"","image-keyboard-response","281","143708","0.0-281.0","3SB5N7Y3O4Q8PVSWCHTLAKCRAAH0GJ","A307K1CZXGBN4L","3MXX6RQ9EVRTFC527Z18RDK8KW6P4R","","398","img/flower4.png","74","399","1","0","1","2","1,0,0,1,1,0,1,0,1","0,1,0,0,1,1,1,1,0","3",""
"","html-keyboard-response","282","144009","0.0-282.0","3SB5N7Y3O4Q8PVSWCHTLAKCRAAH0GJ","A307K1CZXGBN4L","3MXX6RQ9EVRTFC527Z18RDK8KW6P4R","","null","<img src=""img/flower4.png"" style=""width:200px;border:14px solid red;"">","null","","","","","","","","",""
"","image-keyboard-response","283","144055","0.0-283.0","3SB5N7Y3O4Q8PVSWCHTLAKCRAAH0GJ","A307K1CZXGBN4L","3MXX6RQ9EVRTFC527Z18RDK8KW6P4R","","43","img/flower2.png","75","44","2","1","3","2","1,0,0,1,1,0,1,0,1","0,1,0,0,1,1,1,1,0","3",""
"","html-keyboard-response","284","144359","0.0-284.0","3SB5N7Y3O4Q8PVSWCHTLAKCRAAH0GJ","A307K1CZXGBN4L","3MXX6RQ9EVRTFC527Z18RDK8KW6P4R","","null","<img src=""img/flower2.png"" style=""width:200px; border:14px solid green;"">","null","","","","","","","","",""
"","image-keyboard-response","285","145150","0.0-285.0","3SB5N7Y3O4Q8PVSWCHTLAKCRAAH0GJ","A307K1CZXGBN4L","3MXX6RQ9EVRTFC527Z18RDK8KW6P4R","","785","img/flower4.png","75","793","2","1","1","2","1,0,0,1,1,0,1,0,1","0,1,0,0,1,1,1,1,0","3",""
"","html-keyboard-response","286","145453","0.0-286.0","3SB5N7Y3O4Q8PVSWCHTLAKCRAAH0GJ","A307K1CZXGBN4L","3MXX6RQ9EVRTFC527Z18RDK8KW6P4R","","null","<img src=""img/flower4.png"" style=""width:200px; border:14px solid green;"">","null","","","","","","","","",""
"","image-keyboard-response","287","145544","0.0-287.0","3SB5N7Y3O4Q8PVSWCHTLAKCRAAH0GJ","A307K1CZXGBN4L","3MXX6RQ9EVRTFC527Z18RDK8KW6P4R","","90","img/flower2.png","75","91","2","1","3","2","1,0,0,1,1,0,1,0,1","0,1,0,0,1,1,1,1,0","3",""
"","html-keyboard-response","288","145845","0.0-288.0","3SB5N7Y3O4Q8PVSWCHTLAKCRAAH0GJ","A307K1CZXGBN4L","3MXX6RQ9EVRTFC527Z18RDK8KW6P4R","","null","<img src=""img/flower2.png"" style=""width:200px; border:14px solid green;"">","null","","","","","","","","",""
"","image-keyboard-response","289","146343","0.0-289.0","3SB5N7Y3O4Q8PVSWCHTLAKCRAAH0GJ","A307K1CZXGBN4L","3MXX6RQ9EVRTFC527Z18RDK8KW6P4R","","492","img/flower3.png","75","497","2","1","2","2","1,0,0,1,1,0,1,0,1","0,1,0,0,1,1,1,1,0","3",""
"","html-keyboard-response","290","146644","0.0-290.0","3SB5N7Y3O4Q8PVSWCHTLAKCRAAH0GJ","A307K1CZXGBN4L","3MXX6RQ9EVRTFC527Z18RDK8KW6P4R","","null","<img src=""img/flower3.png"" style=""width:200px; border:14px solid green;"">","null","","","","","","","","",""
"","image-keyboard-response","291","146819","0.0-291.0","3SB5N7Y3O4Q8PVSWCHTLAKCRAAH0GJ","A307K1CZXGBN4L","3MXX6RQ9EVRTFC527Z18RDK8KW6P4R","","173","img/flower4.png","75","174","2","1","1","2","1,0,0,1,1,0,1,0,1","0,1,0,0,1,1,1,1,0","3",""
"","html-keyboard-response","292","147122","0.0-292.0","3SB5N7Y3O4Q8PVSWCHTLAKCRAAH0GJ","A307K1CZXGBN4L","3MXX6RQ9EVRTFC527Z18RDK8KW6P4R","","null","<img src=""img/flower4.png"" style=""width:200px; border:14px solid green;"">","null","","","","","","","","",""
"","image-keyboard-response","293","147550","0.0-293.0","3SB5N7Y3O4Q8PVSWCHTLAKCRAAH0GJ","A307K1CZXGBN4L","3MXX6RQ9EVRTFC527Z18RDK8KW6P4R","","427","img/flower2.png","74","429","1","1","3","2","1,0,0,1,1,0,1,0,1","0,1,0,0,1,1,1,1,0","3",""
"","html-keyboard-response","294","147853","0.0-294.0","3SB5N7Y3O4Q8PVSWCHTLAKCRAAH0GJ","A307K1CZXGBN4L","3MXX6RQ9EVRTFC527Z18RDK8KW6P4R","","null","<img src=""img/flower2.png"" style=""width:200px; border:14px solid green;"">","null","","","","","","","","",""
"","image-keyboard-response","295","148663","0.0-295.0","3SB5N7Y3O4Q8PVSWCHTLAKCRAAH0GJ","A307K1CZXGBN4L","3MXX6RQ9EVRTFC527Z18RDK8KW6P4R","","809","img/flower3.png","75","810","2","1","2","2","1,0,0,1,1,0,1,0,1","0,1,0,0,1,1,1,1,0","3",""
"","html-keyboard-response","296","148965","0.0-296.0","3SB5N7Y3O4Q8PVSWCHTLAKCRAAH0GJ","A307K1CZXGBN4L","3MXX6RQ9EVRTFC527Z18RDK8KW6P4R","","null","<img src=""img/flower3.png"" style=""width:200px; border:14px solid green;"">","null","","","","","","","","",""
"","image-keyboard-response","297","149479","0.0-297.0","3SB5N7Y3O4Q8PVSWCHTLAKCRAAH0GJ","A307K1CZXGBN4L","3MXX6RQ9EVRTFC527Z18RDK8KW6P4R","","513","img/flower2.png","74","515","1","1","3","2","1,0,0,1,1,0,1,0,1","0,1,0,0,1,1,1,1,0","3",""
"","html-keyboard-response","298","149781","0.0-298.0","3SB5N7Y3O4Q8PVSWCHTLAKCRAAH0GJ","A307K1CZXGBN4L","3MXX6RQ9EVRTFC527Z18RDK8KW6P4R","","null","<img src=""img/flower2.png"" style=""width:200px; border:14px solid green;"">","null","","","","","","","","",""
"","image-keyboard-response","299","150231","0.0-299.0","3SB5N7Y3O4Q8PVSWCHTLAKCRAAH0GJ","A307K1CZXGBN4L","3MXX6RQ9EVRTFC527Z18RDK8KW6P4R","","449","img/flower2.png","74","450","1","1","3","2","1,0,0,1,1,0,1,0,1","0,1,0,0,1,1,1,1,0","3",""
"","html-keyboard-response","300","150533","0.0-300.0","3SB5N7Y3O4Q8PVSWCHTLAKCRAAH0GJ","A307K1CZXGBN4L","3MXX6RQ9EVRTFC527Z18RDK8KW6P4R","","null","<img src=""img/flower2.png"" style=""width:200px; border:14px solid green;"">","null","","","","","","","","",""
"","image-keyboard-response","301","150998","0.0-301.0","3SB5N7Y3O4Q8PVSWCHTLAKCRAAH0GJ","A307K1CZXGBN4L","3MXX6RQ9EVRTFC527Z18RDK8KW6P4R","","464","img/flower4.png","75","466","2","1","1","2","1,0,0,1,1,0,1,0,1","0,1,0,0,1,1,1,1,0","3",""
"","html-keyboard-response","302","151300","0.0-302.0","3SB5N7Y3O4Q8PVSWCHTLAKCRAAH0GJ","A307K1CZXGBN4L","3MXX6RQ9EVRTFC527Z18RDK8KW6P4R","","null","<img src=""img/flower4.png"" style=""width:200px; border:14px solid green;"">","null","","","","","","","","",""
"","image-keyboard-response","303","151711","0.0-303.0","3SB5N7Y3O4Q8PVSWCHTLAKCRAAH0GJ","A307K1CZXGBN4L","3MXX6RQ9EVRTFC527Z18RDK8KW6P4R","","410","img/flower3.png","74","411","1","0","2","2","1,0,0,1,1,0,1,0,1","0,1,0,0,1,1,1,1,0","3",""
"","html-keyboard-response","304","152015","0.0-304.0","3SB5N7Y3O4Q8PVSWCHTLAKCRAAH0GJ","A307K1CZXGBN4L","3MXX6RQ9EVRTFC527Z18RDK8KW6P4R","","null","<img src=""img/flower3.png"" style=""width:200px;border:14px solid red;"">","null","","","","","","","","",""
"","image-keyboard-response","305","152351","0.0-305.0","3SB5N7Y3O4Q8PVSWCHTLAKCRAAH0GJ","A307K1CZXGBN4L","3MXX6RQ9EVRTFC527Z18RDK8KW6P4R","","334","img/flower3.png","75","335","2","1","2","2","1,0,0,1,1,0,1,0,1","0,1,0,0,1,1,1,1,0","3",""
"","html-keyboard-response","306","152652","0.0-306.0","3SB5N7Y3O4Q8PVSWCHTLAKCRAAH0GJ","A307K1CZXGBN4L","3MXX6RQ9EVRTFC527Z18RDK8KW6P4R","","null","<img src=""img/flower3.png"" style=""width:200px; border:14px solid green;"">","null","","","","","","","","",""
"","image-keyboard-response","307","153199","0.0-307.0","3SB5N7Y3O4Q8PVSWCHTLAKCRAAH0GJ","A307K1CZXGBN4L","3MXX6RQ9EVRTFC527Z18RDK8KW6P4R","","546","img/flower2.png","74","546","1","1","3","2","1,0,0,1,1,0,1,0,1","0,1,0,0,1,1,1,1,0","3",""
"","html-keyboard-response","308","153500","0.0-308.0","3SB5N7Y3O4Q8PVSWCHTLAKCRAAH0GJ","A307K1CZXGBN4L","3MXX6RQ9EVRTFC527Z18RDK8KW6P4R","","null","<img src=""img/flower2.png"" style=""width:200px; border:14px solid green;"">","null","","","","","","","","",""
"","image-keyboard-response","309","154374","0.0-309.0","3SB5N7Y3O4Q8PVSWCHTLAKCRAAH0GJ","A307K1CZXGBN4L","3MXX6RQ9EVRTFC527Z18RDK8KW6P4R","","872","img/flower4.png","75","873","2","1","1","2","1,0,0,1,1,0,1,0,1","0,1,0,0,1,1,1,1,0","3",""
"","html-keyboard-response","310","154675","0.0-310.0","3SB5N7Y3O4Q8PVSWCHTLAKCRAAH0GJ","A307K1CZXGBN4L","3MXX6RQ9EVRTFC527Z18RDK8KW6P4R","","null","<img src=""img/flower4.png"" style=""width:200px; border:14px solid green;"">","null","","","","","","","","",""
"","image-keyboard-response","311","154975","0.0-311.0","3SB5N7Y3O4Q8PVSWCHTLAKCRAAH0GJ","A307K1CZXGBN4L","3MXX6RQ9EVRTFC527Z18RDK8KW6P4R","","299","img/flower4.png","75","299","2","1","1","2","1,0,0,1,1,0,1,0,1","0,1,0,0,1,1,1,1,0","3",""
"","html-keyboard-response","312","155301","0.0-312.0","3SB5N7Y3O4Q8PVSWCHTLAKCRAAH0GJ","A307K1CZXGBN4L","3MXX6RQ9EVRTFC527Z18RDK8KW6P4R","","null","<img src=""img/flower4.png"" style=""width:200px; border:14px solid green;"">","null","","","","","","","","",""
"","image-keyboard-response","313","155535","0.0-313.0","3SB5N7Y3O4Q8PVSWCHTLAKCRAAH0GJ","A307K1CZXGBN4L","3MXX6RQ9EVRTFC527Z18RDK8KW6P4R","","232","img/flower4.png","75","235","2","1","1","2","1,0,0,1,1,0,1,0,1","0,1,0,0,1,1,1,1,0","3",""
"","html-keyboard-response","314","155837","0.0-314.0","3SB5N7Y3O4Q8PVSWCHTLAKCRAAH0GJ","A307K1CZXGBN4L","3MXX6RQ9EVRTFC527Z18RDK8KW6P4R","","null","<img src=""img/flower4.png"" style=""width:200px; border:14px solid green;"">","null","","","","","","","","",""
"","image-keyboard-response","315","156279","0.0-315.0","3SB5N7Y3O4Q8PVSWCHTLAKCRAAH0GJ","A307K1CZXGBN4L","3MXX6RQ9EVRTFC527Z18RDK8KW6P4R","","441","img/flower3.png","75","441","2","1","2","2","1,0,0,1,1,0,1,0,1","0,1,0,0,1,1,1,1,0","3",""
"","html-keyboard-response","316","156581","0.0-316.0","3SB5N7Y3O4Q8PVSWCHTLAKCRAAH0GJ","A307K1CZXGBN4L","3MXX6RQ9EVRTFC527Z18RDK8KW6P4R","","null","<img src=""img/flower3.png"" style=""width:200px; border:14px solid green;"">","null","","","","","","","","",""
"","image-keyboard-response","317","156753","0.0-317.0","3SB5N7Y3O4Q8PVSWCHTLAKCRAAH0GJ","A307K1CZXGBN4L","3MXX6RQ9EVRTFC527Z18RDK8KW6P4R","","170","img/flower2.png","75","171","2","1","3","2","1,0,0,1,1,0,1,0,1","0,1,0,0,1,1,1,1,0","3",""
"","html-keyboard-response","318","157055","0.0-318.0","3SB5N7Y3O4Q8PVSWCHTLAKCRAAH0GJ","A307K1CZXGBN4L","3MXX6RQ9EVRTFC527Z18RDK8KW6P4R","","null","<img src=""img/flower2.png"" style=""width:200px; border:14px solid green;"">","null","","","","","","","","",""
"","image-keyboard-response","319","157584","0.0-319.0","3SB5N7Y3O4Q8PVSWCHTLAKCRAAH0GJ","A307K1CZXGBN4L","3MXX6RQ9EVRTFC527Z18RDK8KW6P4R","","529","img/flower3.png","75","529","2","1","2","2","1,0,0,1,1,0,1,0,1","0,1,0,0,1,1,1,1,0","3",""
"","html-keyboard-response","320","157886","0.0-320.0","3SB5N7Y3O4Q8PVSWCHTLAKCRAAH0GJ","A307K1CZXGBN4L","3MXX6RQ9EVRTFC527Z18RDK8KW6P4R","","null","<img src=""img/flower3.png"" style=""width:200px; border:14px solid green;"">","null","","","","","","","","",""
"","image-keyboard-response","321","158166","0.0-321.0","3SB5N7Y3O4Q8PVSWCHTLAKCRAAH0GJ","A307K1CZXGBN4L","3MXX6RQ9EVRTFC527Z18RDK8KW6P4R","","280","img/flower4.png","75","282","2","1","1","2","1,0,0,1,1,0,1,0,1","0,1,0,0,1,1,1,1,0","3",""
"","html-keyboard-response","322","158469","0.0-322.0","3SB5N7Y3O4Q8PVSWCHTLAKCRAAH0GJ","A307K1CZXGBN4L","3MXX6RQ9EVRTFC527Z18RDK8KW6P4R","","null","<img src=""img/flower4.png"" style=""width:200px; border:14px solid green;"">","null","","","","","","","","",""
"","image-keyboard-response","323","158737","0.0-323.0","3SB5N7Y3O4Q8PVSWCHTLAKCRAAH0GJ","A307K1CZXGBN4L","3MXX6RQ9EVRTFC527Z18RDK8KW6P4R","","268","img/flower3.png","75","268","2","1","2","2","1,0,0,1,1,0,1,0,1","0,1,0,0,1,1,1,1,0","3",""
"","html-keyboard-response","324","159039","0.0-324.0","3SB5N7Y3O4Q8PVSWCHTLAKCRAAH0GJ","A307K1CZXGBN4L","3MXX6RQ9EVRTFC527Z18RDK8KW6P4R","","null","<img src=""img/flower3.png"" style=""width:200px; border:14px solid green;"">","null","","","","","","","","",""
"","image-keyboard-response","325","159427","0.0-325.0","3SB5N7Y3O4Q8PVSWCHTLAKCRAAH0GJ","A307K1CZXGBN4L","3MXX6RQ9EVRTFC527Z18RDK8KW6P4R","","386","img/flower4.png","75","387","2","1","1","2","1,0,0,1,1,0,1,0,1","0,1,0,0,1,1,1,1,0","3",""
"","html-keyboard-response","326","159728","0.0-326.0","3SB5N7Y3O4Q8PVSWCHTLAKCRAAH0GJ","A307K1CZXGBN4L","3MXX6RQ9EVRTFC527Z18RDK8KW6P4R","","null","<img src=""img/flower4.png"" style=""width:200px; border:14px solid green;"">","null","","","","","","","","",""
"","image-keyboard-response","327","160055","0.0-327.0","3SB5N7Y3O4Q8PVSWCHTLAKCRAAH0GJ","A307K1CZXGBN4L","3MXX6RQ9EVRTFC527Z18RDK8KW6P4R","","326","img/flower3.png","75","326","2","1","2","2","1,0,0,1,1,0,1,0,1","0,1,0,0,1,1,1,1,0","3",""
"","html-keyboard-response","328","160357","0.0-328.0","3SB5N7Y3O4Q8PVSWCHTLAKCRAAH0GJ","A307K1CZXGBN4L","3MXX6RQ9EVRTFC527Z18RDK8KW6P4R","","null","<img src=""img/flower3.png"" style=""width:200px; border:14px solid green;"">","null","","","","","","","","",""
"","image-keyboard-response","329","160864","0.0-329.0","3SB5N7Y3O4Q8PVSWCHTLAKCRAAH0GJ","A307K1CZXGBN4L","3MXX6RQ9EVRTFC527Z18RDK8KW6P4R","","506","img/flower2.png","74","508","1","1","3","2","1,0,0,1,1,0,1,0,1","0,1,0,0,1,1,1,1,0","3",""
"","html-keyboard-response","330","161167","0.0-330.0","3SB5N7Y3O4Q8PVSWCHTLAKCRAAH0GJ","A307K1CZXGBN4L","3MXX6RQ9EVRTFC527Z18RDK8KW6P4R","","null","<img src=""img/flower2.png"" style=""width:200px; border:14px solid green;"">","null","","","","","","","","",""
"","image-keyboard-response","331","161625","0.0-331.0","3SB5N7Y3O4Q8PVSWCHTLAKCRAAH0GJ","A307K1CZXGBN4L","3MXX6RQ9EVRTFC527Z18RDK8KW6P4R","","457","img/flower3.png","75","458","2","1","2","2","1,0,0,1,1,0,1,0,1","0,1,0,0,1,1,1,1,0","3",""
"","html-keyboard-response","332","161927","0.0-332.0","3SB5N7Y3O4Q8PVSWCHTLAKCRAAH0GJ","A307K1CZXGBN4L","3MXX6RQ9EVRTFC527Z18RDK8KW6P4R","","null","<img src=""img/flower3.png"" style=""width:200px; border:14px solid green;"">","null","","","","","","","","",""
"","image-keyboard-response","333","162243","0.0-333.0","3SB5N7Y3O4Q8PVSWCHTLAKCRAAH0GJ","A307K1CZXGBN4L","3MXX6RQ9EVRTFC527Z18RDK8KW6P4R","","316","img/flower2.png","75","316","2","1","3","2","1,0,0,1,1,0,1,0,1","0,1,0,0,1,1,1,1,0","3",""
"","html-keyboard-response","334","162546","0.0-334.0","3SB5N7Y3O4Q8PVSWCHTLAKCRAAH0GJ","A307K1CZXGBN4L","3MXX6RQ9EVRTFC527Z18RDK8KW6P4R","","null","<img src=""img/flower2.png"" style=""width:200px; border:14px solid green;"">","null","","","","","","","","",""
"","image-keyboard-response","335","162913","0.0-335.0","3SB5N7Y3O4Q8PVSWCHTLAKCRAAH0GJ","A307K1CZXGBN4L","3MXX6RQ9EVRTFC527Z18RDK8KW6P4R","","364","img/flower2.png","74","366","1","1","3","2","1,0,0,1,1,0,1,0,1","0,1,0,0,1,1,1,1,0","3",""
"","html-keyboard-response","336","163214","0.0-336.0","3SB5N7Y3O4Q8PVSWCHTLAKCRAAH0GJ","A307K1CZXGBN4L","3MXX6RQ9EVRTFC527Z18RDK8KW6P4R","","null","<img src=""img/flower2.png"" style=""width:200px; border:14px solid green;"">","null","","","","","","","","",""
"","image-keyboard-response","337","163535","0.0-337.0","3SB5N7Y3O4Q8PVSWCHTLAKCRAAH0GJ","A307K1CZXGBN4L","3MXX6RQ9EVRTFC527Z18RDK8KW6P4R","","319","img/flower2.png","74","320","1","1","3","2","1,0,0,1,1,0,1,0,1","0,1,0,0,1,1,1,1,0","3",""
"","html-keyboard-response","338","163836","0.0-338.0","3SB5N7Y3O4Q8PVSWCHTLAKCRAAH0GJ","A307K1CZXGBN4L","3MXX6RQ9EVRTFC527Z18RDK8KW6P4R","","null","<img src=""img/flower2.png"" style=""width:200px; border:14px solid green;"">","null","","","","","","","","",""
"","image-keyboard-response","339","164131","0.0-339.0","3SB5N7Y3O4Q8PVSWCHTLAKCRAAH0GJ","A307K1CZXGBN4L","3MXX6RQ9EVRTFC527Z18RDK8KW6P4R","","292","img/flower3.png","74","293","1","0","2","2","1,0,0,1,1,0,1,0,1","0,1,0,0,1,1,1,1,0","3",""
"","html-keyboard-response","340","164432","0.0-340.0","3SB5N7Y3O4Q8PVSWCHTLAKCRAAH0GJ","A307K1CZXGBN4L","3MXX6RQ9EVRTFC527Z18RDK8KW6P4R","","null","<img src=""img/flower3.png"" style=""width:200px;border:14px solid red;"">","null","","","","","","","","",""
"","image-keyboard-response","341","164866","0.0-341.0","3SB5N7Y3O4Q8PVSWCHTLAKCRAAH0GJ","A307K1CZXGBN4L","3MXX6RQ9EVRTFC527Z18RDK8KW6P4R","","433","img/flower4.png","75","435","2","1","1","2","1,0,0,1,1,0,1,0,1","0,1,0,0,1,1,1,1,0","3",""
"","html-keyboard-response","342","165168","0.0-342.0","3SB5N7Y3O4Q8PVSWCHTLAKCRAAH0GJ","A307K1CZXGBN4L","3MXX6RQ9EVRTFC527Z18RDK8KW6P4R","","null","<img src=""img/flower4.png"" style=""width:200px; border:14px solid green;"">","null","","","","","","","","",""
"","image-keyboard-response","343","165576","0.0-343.0","3SB5N7Y3O4Q8PVSWCHTLAKCRAAH0GJ","A307K1CZXGBN4L","3MXX6RQ9EVRTFC527Z18RDK8KW6P4R","","407","img/flower3.png","75","408","2","1","2","2","1,0,0,1,1,0,1,0,1","0,1,0,0,1,1,1,1,0","3",""
"","html-keyboard-response","344","165878","0.0-344.0","3SB5N7Y3O4Q8PVSWCHTLAKCRAAH0GJ","A307K1CZXGBN4L","3MXX6RQ9EVRTFC527Z18RDK8KW6P4R","","null","<img src=""img/flower3.png"" style=""width:200px; border:14px solid green;"">","null","","","","","","","","",""
"","image-keyboard-response","345","166350","0.0-345.0","3SB5N7Y3O4Q8PVSWCHTLAKCRAAH0GJ","A307K1CZXGBN4L","3MXX6RQ9EVRTFC527Z18RDK8KW6P4R","","471","img/flower2.png","74","472","1","1","3","2","1,0,0,1,1,0,1,0,1","0,1,0,0,1,1,1,1,0","3",""
"","html-keyboard-response","346","166652","0.0-346.0","3SB5N7Y3O4Q8PVSWCHTLAKCRAAH0GJ","A307K1CZXGBN4L","3MXX6RQ9EVRTFC527Z18RDK8KW6P4R","","null","<img src=""img/flower2.png"" style=""width:200px; border:14px solid green;"">","null","","","","","","","","",""
"","image-keyboard-response","347","167287","0.0-347.0","3SB5N7Y3O4Q8PVSWCHTLAKCRAAH0GJ","A307K1CZXGBN4L","3MXX6RQ9EVRTFC527Z18RDK8KW6P4R","","634","img/flower4.png","75","636","2","1","1","2","1,0,0,1,1,0,1,0,1","0,1,0,0,1,1,1,1,0","3",""
"","html-keyboard-response","348","167589","0.0-348.0","3SB5N7Y3O4Q8PVSWCHTLAKCRAAH0GJ","A307K1CZXGBN4L","3MXX6RQ9EVRTFC527Z18RDK8KW6P4R","","null","<img src=""img/flower4.png"" style=""width:200px; border:14px solid green;"">","null","","","","","","","","",""
"","image-keyboard-response","349","168223","0.0-349.0","3SB5N7Y3O4Q8PVSWCHTLAKCRAAH0GJ","A307K1CZXGBN4L","3MXX6RQ9EVRTFC527Z18RDK8KW6P4R","","633","img/flower3.png","75","633","2","1","2","2","1,0,0,1,1,0,1,0,1","0,1,0,0,1,1,1,1,0","3",""
"","html-keyboard-response","350","168525","0.0-350.0","3SB5N7Y3O4Q8PVSWCHTLAKCRAAH0GJ","A307K1CZXGBN4L","3MXX6RQ9EVRTFC527Z18RDK8KW6P4R","","null","<img src=""img/flower3.png"" style=""width:200px; border:14px solid green;"">","null","","","","","","","","",""
"","image-keyboard-response","351","169172","0.0-351.0","3SB5N7Y3O4Q8PVSWCHTLAKCRAAH0GJ","A307K1CZXGBN4L","3MXX6RQ9EVRTFC527Z18RDK8KW6P4R","","645","img/flower4.png","75","647","2","1","1","2","1,0,0,1,1,0,1,0,1","0,1,0,0,1,1,1,1,0","3",""
"","html-keyboard-response","352","169473","0.0-352.0","3SB5N7Y3O4Q8PVSWCHTLAKCRAAH0GJ","A307K1CZXGBN4L","3MXX6RQ9EVRTFC527Z18RDK8KW6P4R","","null","<img src=""img/flower4.png"" style=""width:200px; border:14px solid green;"">","null","","","","","","","","",""
"","image-keyboard-response","353","169578","0.0-353.0","3SB5N7Y3O4Q8PVSWCHTLAKCRAAH0GJ","A307K1CZXGBN4L","3MXX6RQ9EVRTFC527Z18RDK8KW6P4R","","103","img/flower2.png","75","105","2","1","3","2","1,0,0,1,1,0,1,0,1","0,1,0,0,1,1,1,1,0","3",""
"","html-keyboard-response","354","169880","0.0-354.0","3SB5N7Y3O4Q8PVSWCHTLAKCRAAH0GJ","A307K1CZXGBN4L","3MXX6RQ9EVRTFC527Z18RDK8KW6P4R","","null","<img src=""img/flower2.png"" style=""width:200px; border:14px solid green;"">","null","","","","","","","","",""
"","image-keyboard-response","355","170432","0.0-355.0","3SB5N7Y3O4Q8PVSWCHTLAKCRAAH0GJ","A307K1CZXGBN4L","3MXX6RQ9EVRTFC527Z18RDK8KW6P4R","","550","img/flower3.png","75","552","2","1","2","2","1,0,0,1,1,0,1,0,1","0,1,0,0,1,1,1,1,0","3",""
"","html-keyboard-response","356","170735","0.0-356.0","3SB5N7Y3O4Q8PVSWCHTLAKCRAAH0GJ","A307K1CZXGBN4L","3MXX6RQ9EVRTFC527Z18RDK8KW6P4R","","null","<img src=""img/flower3.png"" style=""width:200px; border:14px solid green;"">","null","","","","","","","","",""
"","image-keyboard-response","357","171135","0.0-357.0","3SB5N7Y3O4Q8PVSWCHTLAKCRAAH0GJ","A307K1CZXGBN4L","3MXX6RQ9EVRTFC527Z18RDK8KW6P4R","","400","img/flower4.png","75","400","2","1","1","2","1,0,0,1,1,0,1,0,1","0,1,0,0,1,1,1,1,0","3",""
"","html-keyboard-response","358","171437","0.0-358.0","3SB5N7Y3O4Q8PVSWCHTLAKCRAAH0GJ","A307K1CZXGBN4L","3MXX6RQ9EVRTFC527Z18RDK8KW6P4R","","null","<img src=""img/flower4.png"" style=""width:200px; border:14px solid green;"">","null","","","","","","","","",""
"","image-keyboard-response","359","171916","0.0-359.0","3SB5N7Y3O4Q8PVSWCHTLAKCRAAH0GJ","A307K1CZXGBN4L","3MXX6RQ9EVRTFC527Z18RDK8KW6P4R","","478","img/flower2.png","74","478","1","1","3","2","1,0,0,1,1,0,1,0,1","0,1,0,0,1,1,1,1,0","3",""
"","html-keyboard-response","360","172218","0.0-360.0","3SB5N7Y3O4Q8PVSWCHTLAKCRAAH0GJ","A307K1CZXGBN4L","3MXX6RQ9EVRTFC527Z18RDK8KW6P4R","","null","<img src=""img/flower2.png"" style=""width:200px; border:14px solid green;"">","null","","","","","","","","",""
"","image-keyboard-response","361","172647","0.0-361.0","3SB5N7Y3O4Q8PVSWCHTLAKCRAAH0GJ","A307K1CZXGBN4L","3MXX6RQ9EVRTFC527Z18RDK8KW6P4R","","428","img/flower4.png","75","430","2","1","1","2","1,0,0,1,1,0,1,0,1","0,1,0,0,1,1,1,1,0","3",""
"","html-keyboard-response","362","172948","0.0-362.0","3SB5N7Y3O4Q8PVSWCHTLAKCRAAH0GJ","A307K1CZXGBN4L","3MXX6RQ9EVRTFC527Z18RDK8KW6P4R","","null","<img src=""img/flower4.png"" style=""width:200px; border:14px solid green;"">","null","","","","","","","","",""
"","instructions","363","175734","0.0-363.0","3SB5N7Y3O4Q8PVSWCHTLAKCRAAH0GJ","A307K1CZXGBN4L","3MXX6RQ9EVRTFC527Z18RDK8KW6P4R","[{""page_index"":0,""viewing_time"":2784}]","2784","","","","","","","","","","",""
"","survey-text","364","181993","0.0-364.0","3SB5N7Y3O4Q8PVSWCHTLAKCRAAH0GJ","A307K1CZXGBN4L","3MXX6RQ9EVRTFC527Z18RDK8KW6P4R","","6248","","","","","","","","","","","{""Q0"":""A307K1CZXGBN4L""}"
