"success","trial_type","trial_index","time_elapsed","internal_node_id","assignmentID","mturkID","hitID","view_history","rt","stimulus","key_press","reactionTime","a","r","s","cond","reward_cond","reward_cond_actual","reward_matrix_idx","responses"
"true","fullscreen","0","2494","0.0-0.0","3X66WABAJX446NRTV4B4CIAYDN43GM","A30RAYNDOWQ61S","3UUIU9GZC5R93N292LT21FRJ9VS5TN","","","","","","","","","","","","",""
"","instructions","1","50476","0.0-1.0","3X66WABAJX446NRTV4B4CIAYDN43GM","A30RAYNDOWQ61S","3UUIU9GZC5R93N292LT21FRJ9VS5TN","[{""page_index"":0,""viewing_time"":6256.900000035763},{""page_index"":1,""viewing_time"":1043.8999999761581},{""page_index"":2,""viewing_time"":1437},{""page_index"":3,""viewing_time"":1273.199999988079},{""page_index"":4,""viewing_time"":4450.800000011921},{""page_index"":5,""viewing_time"":1673},{""page_index"":6,""viewing_time"":2919.800000011921},{""page_index"":7,""viewing_time"":28926.30000001192}]","47981.10000002384","","","","","","","","","","",""
"","image-keyboard-response","2","51305","0.0-2.0","3X66WABAJX446NRTV4B4CIAYDN43GM","A30RAYNDOWQ61S","3UUIU9GZC5R93N292LT21FRJ9VS5TN","","827.6999999880791","img/flower6.png","74","828.5","1","1","3","2","1,0,0,1,1,0,1,0,1","0,1,0,0,1,1,1,1,0","3",""
"","html-keyboard-response","3","51607","0.0-3.0","3X66WABAJX446NRTV4B4CIAYDN43GM","A30RAYNDOWQ61S","3UUIU9GZC5R93N292LT21FRJ9VS5TN","","null","<img src=""img/flower6.png"" style=""width:200px; border:14px solid green;"">","null","","","","","","","","",""
"","image-keyboard-response","4","52425","0.0-4.0","3X66WABAJX446NRTV4B4CIAYDN43GM","A30RAYNDOWQ61S","3UUIU9GZC5R93N292LT21FRJ9VS5TN","","817.5999999642372","img/flower4.png","75","818.1000000238419","2","1","1","2","1,0,0,1,1,0,1,0,1","0,1,0,0,1,1,1,1,0","3",""
"","html-keyboard-response","5","52726","0.0-5.0","3X66WABAJX446NRTV4B4CIAYDN43GM","A30RAYNDOWQ61S","3UUIU9GZC5R93N292LT21FRJ9VS5TN","","null","<img src=""img/flower4.png"" style=""width:200px; border:14px solid green;"">","null","","","","","","","","",""
"","image-keyboard-response","6","53264","0.0-6.0","3X66WABAJX446NRTV4B4CIAYDN43GM","A30RAYNDOWQ61S","3UUIU9GZC5R93N292LT21FRJ9VS5TN","","537.3000000119209","img/flower2.png","74","537.6999999880791","1","0","2","2","1,0,0,1,1,0,1,0,1","0,1,0,0,1,1,1,1,0","3",""
"","html-keyboard-response","7","53566","0.0-7.0","3X66WABAJX446NRTV4B4CIAYDN43GM","A30RAYNDOWQ61S","3UUIU9GZC5R93N292LT21FRJ9VS5TN","","null","<img src=""img/flower2.png"" style=""width:200px;border:14px solid red;"">","null","","","","","","","","",""
"","image-keyboard-response","8","54049","0.0-8.0","3X66WABAJX446NRTV4B4CIAYDN43GM","A30RAYNDOWQ61S","3UUIU9GZC5R93N292LT21FRJ9VS5TN","","482.5","img/flower4.png","75","482.9000000357628","2","1","1","2","1,0,0,1,1,0,1,0,1","0,1,0,0,1,1,1,1,0","3",""
"","html-keyboard-response","9","54350","0.0-9.0","3X66WABAJX446NRTV4B4CIAYDN43GM","A30RAYNDOWQ61S","3UUIU9GZC5R93N292LT21FRJ9VS5TN","","null","<img src=""img/flower4.png"" style=""width:200px; border:14px solid green;"">","null","","","","","","","","",""
"","image-keyboard-response","10","55016","0.0-10.0","3X66WABAJX446NRTV4B4CIAYDN43GM","A30RAYNDOWQ61S","3UUIU9GZC5R93N292LT21FRJ9VS5TN","","666.3000000119209","img/flower2.png","76","666.6999999880791","3","1","2","2","1,0,0,1,1,0,1,0,1","0,1,0,0,1,1,1,1,0","3",""
"","html-keyboard-response","11","55328","0.0-11.0","3X66WABAJX446NRTV4B4CIAYDN43GM","A30RAYNDOWQ61S","3UUIU9GZC5R93N292LT21FRJ9VS5TN","","null","<img src=""img/flower2.png"" style=""width:200px; border:14px solid green;"">","null","","","","","","","","",""
"","image-keyboard-response","12","56016","0.0-12.0","3X66WABAJX446NRTV4B4CIAYDN43GM","A30RAYNDOWQ61S","3UUIU9GZC5R93N292LT21FRJ9VS5TN","","687.4000000357628","img/flower6.png","74","688","1","1","3","2","1,0,0,1,1,0,1,0,1","0,1,0,0,1,1,1,1,0","3",""
"","html-keyboard-response","13","56318","0.0-13.0","3X66WABAJX446NRTV4B4CIAYDN43GM","A30RAYNDOWQ61S","3UUIU9GZC5R93N292LT21FRJ9VS5TN","","null","<img src=""img/flower6.png"" style=""width:200px; border:14px solid green;"">","null","","","","","","","","",""
"","image-keyboard-response","14","56952","0.0-14.0","3X66WABAJX446NRTV4B4CIAYDN43GM","A30RAYNDOWQ61S","3UUIU9GZC5R93N292LT21FRJ9VS5TN","","633.8000000119209","img/flower6.png","74","634.4000000357628","1","1","3","2","1,0,0,1,1,0,1,0,1","0,1,0,0,1,1,1,1,0","3",""
"","html-keyboard-response","15","57254","0.0-15.0","3X66WABAJX446NRTV4B4CIAYDN43GM","A30RAYNDOWQ61S","3UUIU9GZC5R93N292LT21FRJ9VS5TN","","null","<img src=""img/flower6.png"" style=""width:200px; border:14px solid green;"">","null","","","","","","","","",""
"","image-keyboard-response","16","57800","0.0-16.0","3X66WABAJX446NRTV4B4CIAYDN43GM","A30RAYNDOWQ61S","3UUIU9GZC5R93N292LT21FRJ9VS5TN","","545.6999999880791","img/flower4.png","75","546.1000000238419","2","1","1","2","1,0,0,1,1,0,1,0,1","0,1,0,0,1,1,1,1,0","3",""
"","html-keyboard-response","17","58102","0.0-17.0","3X66WABAJX446NRTV4B4CIAYDN43GM","A30RAYNDOWQ61S","3UUIU9GZC5R93N292LT21FRJ9VS5TN","","null","<img src=""img/flower4.png"" style=""width:200px; border:14px solid green;"">","null","","","","","","","","",""
"","image-keyboard-response","18","58657","0.0-18.0","3X66WABAJX446NRTV4B4CIAYDN43GM","A30RAYNDOWQ61S","3UUIU9GZC5R93N292LT21FRJ9VS5TN","","554.8000000119209","img/flower6.png","74","555.1999999880791","1","1","3","2","1,0,0,1,1,0,1,0,1","0,1,0,0,1,1,1,1,0","3",""
"","html-keyboard-response","19","58957","0.0-19.0","3X66WABAJX446NRTV4B4CIAYDN43GM","A30RAYNDOWQ61S","3UUIU9GZC5R93N292LT21FRJ9VS5TN","","null","<img src=""img/flower6.png"" style=""width:200px; border:14px solid green;"">","null","","","","","","","","",""
"","image-keyboard-response","20","59560","0.0-20.0","3X66WABAJX446NRTV4B4CIAYDN43GM","A30RAYNDOWQ61S","3UUIU9GZC5R93N292LT21FRJ9VS5TN","","602.3000000119209","img/flower4.png","75","602.8000000119209","2","1","1","2","1,0,0,1,1,0,1,0,1","0,1,0,0,1,1,1,1,0","3",""
"","html-keyboard-response","21","59862","0.0-21.0","3X66WABAJX446NRTV4B4CIAYDN43GM","A30RAYNDOWQ61S","3UUIU9GZC5R93N292LT21FRJ9VS5TN","","null","<img src=""img/flower4.png"" style=""width:200px; border:14px solid green;"">","null","","","","","","","","",""
"","image-keyboard-response","22","60329","0.0-22.0","3X66WABAJX446NRTV4B4CIAYDN43GM","A30RAYNDOWQ61S","3UUIU9GZC5R93N292LT21FRJ9VS5TN","","466.0999999642372","img/flower4.png","75","466.69999998807907","2","1","1","2","1,0,0,1,1,0,1,0,1","0,1,0,0,1,1,1,1,0","3",""
"","html-keyboard-response","23","60630","0.0-23.0","3X66WABAJX446NRTV4B4CIAYDN43GM","A30RAYNDOWQ61S","3UUIU9GZC5R93N292LT21FRJ9VS5TN","","null","<img src=""img/flower4.png"" style=""width:200px; border:14px solid green;"">","null","","","","","","","","",""
"","image-keyboard-response","24","61024","0.0-24.0","3X66WABAJX446NRTV4B4CIAYDN43GM","A30RAYNDOWQ61S","3UUIU9GZC5R93N292LT21FRJ9VS5TN","","393.89999997615814","img/flower4.png","75","394.39999997615814","2","1","1","2","1,0,0,1,1,0,1,0,1","0,1,0,0,1,1,1,1,0","3",""
"","html-keyboard-response","25","61326","0.0-25.0","3X66WABAJX446NRTV4B4CIAYDN43GM","A30RAYNDOWQ61S","3UUIU9GZC5R93N292LT21FRJ9VS5TN","","null","<img src=""img/flower4.png"" style=""width:200px; border:14px solid green;"">","null","","","","","","","","",""
"","image-keyboard-response","26","61688","0.0-26.0","3X66WABAJX446NRTV4B4CIAYDN43GM","A30RAYNDOWQ61S","3UUIU9GZC5R93N292LT21FRJ9VS5TN","","362.10000002384186","img/flower4.png","75","362.5","2","1","1","2","1,0,0,1,1,0,1,0,1","0,1,0,0,1,1,1,1,0","3",""
"","html-keyboard-response","27","61989","0.0-27.0","3X66WABAJX446NRTV4B4CIAYDN43GM","A30RAYNDOWQ61S","3UUIU9GZC5R93N292LT21FRJ9VS5TN","","null","<img src=""img/flower4.png"" style=""width:200px; border:14px solid green;"">","null","","","","","","","","",""
"","image-keyboard-response","28","62384","0.0-28.0","3X66WABAJX446NRTV4B4CIAYDN43GM","A30RAYNDOWQ61S","3UUIU9GZC5R93N292LT21FRJ9VS5TN","","394","img/flower4.png","75","394.39999997615814","2","1","1","2","1,0,0,1,1,0,1,0,1","0,1,0,0,1,1,1,1,0","3",""
"","html-keyboard-response","29","62685","0.0-29.0","3X66WABAJX446NRTV4B4CIAYDN43GM","A30RAYNDOWQ61S","3UUIU9GZC5R93N292LT21FRJ9VS5TN","","null","<img src=""img/flower4.png"" style=""width:200px; border:14px solid green;"">","null","","","","","","","","",""
"","image-keyboard-response","30","63024","0.0-30.0","3X66WABAJX446NRTV4B4CIAYDN43GM","A30RAYNDOWQ61S","3UUIU9GZC5R93N292LT21FRJ9VS5TN","","338.89999997615814","img/flower4.png","75","339.39999997615814","2","1","1","2","1,0,0,1,1,0,1,0,1","0,1,0,0,1,1,1,1,0","3",""
"","html-keyboard-response","31","63326","0.0-31.0","3X66WABAJX446NRTV4B4CIAYDN43GM","A30RAYNDOWQ61S","3UUIU9GZC5R93N292LT21FRJ9VS5TN","","null","<img src=""img/flower4.png"" style=""width:200px; border:14px solid green;"">","null","","","","","","","","",""
"","image-keyboard-response","32","63969","0.0-32.0","3X66WABAJX446NRTV4B4CIAYDN43GM","A30RAYNDOWQ61S","3UUIU9GZC5R93N292LT21FRJ9VS5TN","","642.1999999880791","img/flower6.png","74","642.6999999880791","1","1","3","2","1,0,0,1,1,0,1,0,1","0,1,0,0,1,1,1,1,0","3",""
"","html-keyboard-response","33","64270","0.0-33.0","3X66WABAJX446NRTV4B4CIAYDN43GM","A30RAYNDOWQ61S","3UUIU9GZC5R93N292LT21FRJ9VS5TN","","null","<img src=""img/flower6.png"" style=""width:200px; border:14px solid green;"">","null","","","","","","","","",""
"","image-keyboard-response","34","64544","0.0-34.0","3X66WABAJX446NRTV4B4CIAYDN43GM","A30RAYNDOWQ61S","3UUIU9GZC5R93N292LT21FRJ9VS5TN","","273.60000002384186","img/flower2.png","74","273.89999997615814","1","0","2","2","1,0,0,1,1,0,1,0,1","0,1,0,0,1,1,1,1,0","3",""
"","html-keyboard-response","35","64846","0.0-35.0","3X66WABAJX446NRTV4B4CIAYDN43GM","A30RAYNDOWQ61S","3UUIU9GZC5R93N292LT21FRJ9VS5TN","","null","<img src=""img/flower2.png"" style=""width:200px;border:14px solid red;"">","null","","","","","","","","",""
"","image-keyboard-response","36","65392","0.0-36.0","3X66WABAJX446NRTV4B4CIAYDN43GM","A30RAYNDOWQ61S","3UUIU9GZC5R93N292LT21FRJ9VS5TN","","544.9000000357628","img/flower2.png","76","545.5999999642372","3","1","2","2","1,0,0,1,1,0,1,0,1","0,1,0,0,1,1,1,1,0","3",""
"","html-keyboard-response","37","65694","0.0-37.0","3X66WABAJX446NRTV4B4CIAYDN43GM","A30RAYNDOWQ61S","3UUIU9GZC5R93N292LT21FRJ9VS5TN","","null","<img src=""img/flower2.png"" style=""width:200px; border:14px solid green;"">","null","","","","","","","","",""
"","image-keyboard-response","38","66032","0.0-38.0","3X66WABAJX446NRTV4B4CIAYDN43GM","A30RAYNDOWQ61S","3UUIU9GZC5R93N292LT21FRJ9VS5TN","","337.5","img/flower2.png","76","338","3","1","2","2","1,0,0,1,1,0,1,0,1","0,1,0,0,1,1,1,1,0","3",""
"","html-keyboard-response","39","66333","0.0-39.0","3X66WABAJX446NRTV4B4CIAYDN43GM","A30RAYNDOWQ61S","3UUIU9GZC5R93N292LT21FRJ9VS5TN","","null","<img src=""img/flower2.png"" style=""width:200px; border:14px solid green;"">","null","","","","","","","","",""
"","image-keyboard-response","40","66648","0.0-40.0","3X66WABAJX446NRTV4B4CIAYDN43GM","A30RAYNDOWQ61S","3UUIU9GZC5R93N292LT21FRJ9VS5TN","","314.5999999642372","img/flower2.png","76","315.30000001192093","3","1","2","2","1,0,0,1,1,0,1,0,1","0,1,0,0,1,1,1,1,0","3",""
"","html-keyboard-response","41","66950","0.0-41.0","3X66WABAJX446NRTV4B4CIAYDN43GM","A30RAYNDOWQ61S","3UUIU9GZC5R93N292LT21FRJ9VS5TN","","null","<img src=""img/flower2.png"" style=""width:200px; border:14px solid green;"">","null","","","","","","","","",""
"","image-keyboard-response","42","67272","0.0-42.0","3X66WABAJX446NRTV4B4CIAYDN43GM","A30RAYNDOWQ61S","3UUIU9GZC5R93N292LT21FRJ9VS5TN","","321.69999998807907","img/flower2.png","76","322.10000002384186","3","1","2","2","1,0,0,1,1,0,1,0,1","0,1,0,0,1,1,1,1,0","3",""
"","html-keyboard-response","43","67573","0.0-43.0","3X66WABAJX446NRTV4B4CIAYDN43GM","A30RAYNDOWQ61S","3UUIU9GZC5R93N292LT21FRJ9VS5TN","","null","<img src=""img/flower2.png"" style=""width:200px; border:14px solid green;"">","null","","","","","","","","",""
"","image-keyboard-response","44","68176","0.0-44.0","3X66WABAJX446NRTV4B4CIAYDN43GM","A30RAYNDOWQ61S","3UUIU9GZC5R93N292LT21FRJ9VS5TN","","602","img/flower6.png","74","602.4000000357628","1","1","3","2","1,0,0,1,1,0,1,0,1","0,1,0,0,1,1,1,1,0","3",""
"","html-keyboard-response","45","68476","0.0-45.0","3X66WABAJX446NRTV4B4CIAYDN43GM","A30RAYNDOWQ61S","3UUIU9GZC5R93N292LT21FRJ9VS5TN","","null","<img src=""img/flower6.png"" style=""width:200px; border:14px solid green;"">","null","","","","","","","","",""
"","image-keyboard-response","46","68712","0.0-46.0","3X66WABAJX446NRTV4B4CIAYDN43GM","A30RAYNDOWQ61S","3UUIU9GZC5R93N292LT21FRJ9VS5TN","","235.19999998807907","img/flower4.png","74","235.69999998807907","1","0","1","2","1,0,0,1,1,0,1,0,1","0,1,0,0,1,1,1,1,0","3",""
"","html-keyboard-response","47","69014","0.0-47.0","3X66WABAJX446NRTV4B4CIAYDN43GM","A30RAYNDOWQ61S","3UUIU9GZC5R93N292LT21FRJ9VS5TN","","null","<img src=""img/flower4.png"" style=""width:200px;border:14px solid red;"">","null","","","","","","","","",""
"","image-keyboard-response","48","69280","0.0-48.0","3X66WABAJX446NRTV4B4CIAYDN43GM","A30RAYNDOWQ61S","3UUIU9GZC5R93N292LT21FRJ9VS5TN","","265.80000001192093","img/flower6.png","75","266.2000000476837","2","1","3","2","1,0,0,1,1,0,1,0,1","0,1,0,0,1,1,1,1,0","3",""
"","html-keyboard-response","49","69581","0.0-49.0","3X66WABAJX446NRTV4B4CIAYDN43GM","A30RAYNDOWQ61S","3UUIU9GZC5R93N292LT21FRJ9VS5TN","","null","<img src=""img/flower6.png"" style=""width:200px; border:14px solid green;"">","null","","","","","","","","",""
"","image-keyboard-response","50","69833","0.0-50.0","3X66WABAJX446NRTV4B4CIAYDN43GM","A30RAYNDOWQ61S","3UUIU9GZC5R93N292LT21FRJ9VS5TN","","251","img/flower6.png","74","251.5999999642372","1","1","3","2","1,0,0,1,1,0,1,0,1","0,1,0,0,1,1,1,1,0","3",""
"","html-keyboard-response","51","70135","0.0-51.0","3X66WABAJX446NRTV4B4CIAYDN43GM","A30RAYNDOWQ61S","3UUIU9GZC5R93N292LT21FRJ9VS5TN","","null","<img src=""img/flower6.png"" style=""width:200px; border:14px solid green;"">","null","","","","","","","","",""
"","image-keyboard-response","52","70497","0.0-52.0","3X66WABAJX446NRTV4B4CIAYDN43GM","A30RAYNDOWQ61S","3UUIU9GZC5R93N292LT21FRJ9VS5TN","","361.7999999523163","img/flower6.png","74","362.30000001192093","1","1","3","2","1,0,0,1,1,0,1,0,1","0,1,0,0,1,1,1,1,0","3",""
"","html-keyboard-response","53","70799","0.0-53.0","3X66WABAJX446NRTV4B4CIAYDN43GM","A30RAYNDOWQ61S","3UUIU9GZC5R93N292LT21FRJ9VS5TN","","null","<img src=""img/flower6.png"" style=""width:200px; border:14px solid green;"">","null","","","","","","","","",""
"","image-keyboard-response","54","71200","0.0-54.0","3X66WABAJX446NRTV4B4CIAYDN43GM","A30RAYNDOWQ61S","3UUIU9GZC5R93N292LT21FRJ9VS5TN","","400.80000001192093","img/flower6.png","74","401.30000001192093","1","1","3","2","1,0,0,1,1,0,1,0,1","0,1,0,0,1,1,1,1,0","3",""
"","html-keyboard-response","55","71501","0.0-55.0","3X66WABAJX446NRTV4B4CIAYDN43GM","A30RAYNDOWQ61S","3UUIU9GZC5R93N292LT21FRJ9VS5TN","","null","<img src=""img/flower6.png"" style=""width:200px; border:14px solid green;"">","null","","","","","","","","",""
"","image-keyboard-response","56","72016","0.0-56.0","3X66WABAJX446NRTV4B4CIAYDN43GM","A30RAYNDOWQ61S","3UUIU9GZC5R93N292LT21FRJ9VS5TN","","515.0999999642372","img/flower6.png","74","515.6000000238419","1","1","3","2","1,0,0,1,1,0,1,0,1","0,1,0,0,1,1,1,1,0","3",""
"","html-keyboard-response","57","72318","0.0-57.0","3X66WABAJX446NRTV4B4CIAYDN43GM","A30RAYNDOWQ61S","3UUIU9GZC5R93N292LT21FRJ9VS5TN","","null","<img src=""img/flower6.png"" style=""width:200px; border:14px solid green;"">","null","","","","","","","","",""
"","image-keyboard-response","58","72832","0.0-58.0","3X66WABAJX446NRTV4B4CIAYDN43GM","A30RAYNDOWQ61S","3UUIU9GZC5R93N292LT21FRJ9VS5TN","","513.6000000238419","img/flower2.png","76","514.0999999642372","3","1","2","2","1,0,0,1,1,0,1,0,1","0,1,0,0,1,1,1,1,0","3",""
"","html-keyboard-response","59","73133","0.0-59.0","3X66WABAJX446NRTV4B4CIAYDN43GM","A30RAYNDOWQ61S","3UUIU9GZC5R93N292LT21FRJ9VS5TN","","null","<img src=""img/flower2.png"" style=""width:200px; border:14px solid green;"">","null","","","","","","","","",""
"","image-keyboard-response","60","73353","0.0-60.0","3X66WABAJX446NRTV4B4CIAYDN43GM","A30RAYNDOWQ61S","3UUIU9GZC5R93N292LT21FRJ9VS5TN","","218.9000000357628","img/flower2.png","76","219.30000001192093","3","1","2","2","1,0,0,1,1,0,1,0,1","0,1,0,0,1,1,1,1,0","3",""
"","html-keyboard-response","61","73654","0.0-61.0","3X66WABAJX446NRTV4B4CIAYDN43GM","A30RAYNDOWQ61S","3UUIU9GZC5R93N292LT21FRJ9VS5TN","","null","<img src=""img/flower2.png"" style=""width:200px; border:14px solid green;"">","null","","","","","","","","",""
"","image-keyboard-response","62","73889","0.0-62.0","3X66WABAJX446NRTV4B4CIAYDN43GM","A30RAYNDOWQ61S","3UUIU9GZC5R93N292LT21FRJ9VS5TN","","234","img/flower6.png","76","234.5","3","0","3","2","1,0,0,1,1,0,1,0,1","0,1,0,0,1,1,1,1,0","3",""
"","html-keyboard-response","63","74190","0.0-63.0","3X66WABAJX446NRTV4B4CIAYDN43GM","A30RAYNDOWQ61S","3UUIU9GZC5R93N292LT21FRJ9VS5TN","","null","<img src=""img/flower6.png"" style=""width:200px;border:14px solid red;"">","null","","","","","","","","",""
"","image-keyboard-response","64","74312","0.0-64.0","3X66WABAJX446NRTV4B4CIAYDN43GM","A30RAYNDOWQ61S","3UUIU9GZC5R93N292LT21FRJ9VS5TN","","121.89999997615814","img/flower6.png","74","122.30000001192093","1","1","3","2","1,0,0,1,1,0,1,0,1","0,1,0,0,1,1,1,1,0","3",""
"","html-keyboard-response","65","74614","0.0-65.0","3X66WABAJX446NRTV4B4CIAYDN43GM","A30RAYNDOWQ61S","3UUIU9GZC5R93N292LT21FRJ9VS5TN","","null","<img src=""img/flower6.png"" style=""width:200px; border:14px solid green;"">","null","","","","","","","","",""
"","image-keyboard-response","66","74897","0.0-66.0","3X66WABAJX446NRTV4B4CIAYDN43GM","A30RAYNDOWQ61S","3UUIU9GZC5R93N292LT21FRJ9VS5TN","","282.2000000476837","img/flower6.png","74","282.60000002384186","1","1","3","2","1,0,0,1,1,0,1,0,1","0,1,0,0,1,1,1,1,0","3",""
"","html-keyboard-response","67","75198","0.0-67.0","3X66WABAJX446NRTV4B4CIAYDN43GM","A30RAYNDOWQ61S","3UUIU9GZC5R93N292LT21FRJ9VS5TN","","null","<img src=""img/flower6.png"" style=""width:200px; border:14px solid green;"">","null","","","","","","","","",""
"","image-keyboard-response","68","75849","0.0-68.0","3X66WABAJX446NRTV4B4CIAYDN43GM","A30RAYNDOWQ61S","3UUIU9GZC5R93N292LT21FRJ9VS5TN","","650.4000000357628","img/flower4.png","75","650.6999999880791","2","1","1","2","1,0,0,1,1,0,1,0,1","0,1,0,0,1,1,1,1,0","3",""
"","html-keyboard-response","69","76150","0.0-69.0","3X66WABAJX446NRTV4B4CIAYDN43GM","A30RAYNDOWQ61S","3UUIU9GZC5R93N292LT21FRJ9VS5TN","","null","<img src=""img/flower4.png"" style=""width:200px; border:14px solid green;"">","null","","","","","","","","",""
"","image-keyboard-response","70","76384","0.0-70.0","3X66WABAJX446NRTV4B4CIAYDN43GM","A30RAYNDOWQ61S","3UUIU9GZC5R93N292LT21FRJ9VS5TN","","233.80000001192093","img/flower6.png","75","234.30000001192093","2","1","3","2","1,0,0,1,1,0,1,0,1","0,1,0,0,1,1,1,1,0","3",""
"","html-keyboard-response","71","76685","0.0-71.0","3X66WABAJX446NRTV4B4CIAYDN43GM","A30RAYNDOWQ61S","3UUIU9GZC5R93N292LT21FRJ9VS5TN","","null","<img src=""img/flower6.png"" style=""width:200px; border:14px solid green;"">","null","","","","","","","","",""
"","image-keyboard-response","72","77256","0.0-72.0","3X66WABAJX446NRTV4B4CIAYDN43GM","A30RAYNDOWQ61S","3UUIU9GZC5R93N292LT21FRJ9VS5TN","","570.6000000238419","img/flower4.png","74","571.0999999642372","1","0","1","2","1,0,0,1,1,0,1,0,1","0,1,0,0,1,1,1,1,0","3",""
"","html-keyboard-response","73","77557","0.0-73.0","3X66WABAJX446NRTV4B4CIAYDN43GM","A30RAYNDOWQ61S","3UUIU9GZC5R93N292LT21FRJ9VS5TN","","null","<img src=""img/flower4.png"" style=""width:200px;border:14px solid red;"">","null","","","","","","","","",""
"","image-keyboard-response","74","78264","0.0-74.0","3X66WABAJX446NRTV4B4CIAYDN43GM","A30RAYNDOWQ61S","3UUIU9GZC5R93N292LT21FRJ9VS5TN","","706.5999999642372","img/flower4.png","74","707.0999999642372","1","0","1","2","1,0,0,1,1,0,1,0,1","0,1,0,0,1,1,1,1,0","3",""
"","html-keyboard-response","75","78565","0.0-75.0","3X66WABAJX446NRTV4B4CIAYDN43GM","A30RAYNDOWQ61S","3UUIU9GZC5R93N292LT21FRJ9VS5TN","","null","<img src=""img/flower4.png"" style=""width:200px;border:14px solid red;"">","null","","","","","","","","",""
"","image-keyboard-response","76","79432","0.0-76.0","3X66WABAJX446NRTV4B4CIAYDN43GM","A30RAYNDOWQ61S","3UUIU9GZC5R93N292LT21FRJ9VS5TN","","866.6999999880791","img/flower6.png","74","867.1000000238419","1","1","3","2","1,0,0,1,1,0,1,0,1","0,1,0,0,1,1,1,1,0","3",""
"","html-keyboard-response","77","79734","0.0-77.0","3X66WABAJX446NRTV4B4CIAYDN43GM","A30RAYNDOWQ61S","3UUIU9GZC5R93N292LT21FRJ9VS5TN","","null","<img src=""img/flower6.png"" style=""width:200px; border:14px solid green;"">","null","","","","","","","","",""
"","image-keyboard-response","78","80472","0.0-78.0","3X66WABAJX446NRTV4B4CIAYDN43GM","A30RAYNDOWQ61S","3UUIU9GZC5R93N292LT21FRJ9VS5TN","","737.5","img/flower2.png","76","737.8999999761581","3","1","2","2","1,0,0,1,1,0,1,0,1","0,1,0,0,1,1,1,1,0","3",""
"","html-keyboard-response","79","80773","0.0-79.0","3X66WABAJX446NRTV4B4CIAYDN43GM","A30RAYNDOWQ61S","3UUIU9GZC5R93N292LT21FRJ9VS5TN","","null","<img src=""img/flower2.png"" style=""width:200px; border:14px solid green;"">","null","","","","","","","","",""
"","image-keyboard-response","80","81384","0.0-80.0","3X66WABAJX446NRTV4B4CIAYDN43GM","A30RAYNDOWQ61S","3UUIU9GZC5R93N292LT21FRJ9VS5TN","","610.8000000119209","img/flower6.png","74","611.3000000119209","1","1","3","2","1,0,0,1,1,0,1,0,1","0,1,0,0,1,1,1,1,0","3",""
"","html-keyboard-response","81","81686","0.0-81.0","3X66WABAJX446NRTV4B4CIAYDN43GM","A30RAYNDOWQ61S","3UUIU9GZC5R93N292LT21FRJ9VS5TN","","null","<img src=""img/flower6.png"" style=""width:200px; border:14px solid green;"">","null","","","","","","","","",""
"","image-keyboard-response","82","82216","0.0-82.0","3X66WABAJX446NRTV4B4CIAYDN43GM","A30RAYNDOWQ61S","3UUIU9GZC5R93N292LT21FRJ9VS5TN","","529.6000000238419","img/flower6.png","74","530.1999999880791","1","1","3","2","1,0,0,1,1,0,1,0,1","0,1,0,0,1,1,1,1,0","3",""
"","html-keyboard-response","83","82517","0.0-83.0","3X66WABAJX446NRTV4B4CIAYDN43GM","A30RAYNDOWQ61S","3UUIU9GZC5R93N292LT21FRJ9VS5TN","","null","<img src=""img/flower6.png"" style=""width:200px; border:14px solid green;"">","null","","","","","","","","",""
"","image-keyboard-response","84","82984","0.0-84.0","3X66WABAJX446NRTV4B4CIAYDN43GM","A30RAYNDOWQ61S","3UUIU9GZC5R93N292LT21FRJ9VS5TN","","466.30000001192093","img/flower2.png","76","466.69999998807907","3","1","2","2","1,0,0,1,1,0,1,0,1","0,1,0,0,1,1,1,1,0","3",""
"","html-keyboard-response","85","83285","0.0-85.0","3X66WABAJX446NRTV4B4CIAYDN43GM","A30RAYNDOWQ61S","3UUIU9GZC5R93N292LT21FRJ9VS5TN","","null","<img src=""img/flower2.png"" style=""width:200px; border:14px solid green;"">","null","","","","","","","","",""
"","image-keyboard-response","86","83632","0.0-86.0","3X66WABAJX446NRTV4B4CIAYDN43GM","A30RAYNDOWQ61S","3UUIU9GZC5R93N292LT21FRJ9VS5TN","","346.30000001192093","img/flower2.png","76","346.9000000357628","3","1","2","2","1,0,0,1,1,0,1,0,1","0,1,0,0,1,1,1,1,0","3",""
"","html-keyboard-response","87","83934","0.0-87.0","3X66WABAJX446NRTV4B4CIAYDN43GM","A30RAYNDOWQ61S","3UUIU9GZC5R93N292LT21FRJ9VS5TN","","null","<img src=""img/flower2.png"" style=""width:200px; border:14px solid green;"">","null","","","","","","","","",""
"","image-keyboard-response","88","84264","0.0-88.0","3X66WABAJX446NRTV4B4CIAYDN43GM","A30RAYNDOWQ61S","3UUIU9GZC5R93N292LT21FRJ9VS5TN","","330.39999997615814","img/flower2.png","76","330.80000001192093","3","1","2","2","1,0,0,1,1,0,1,0,1","0,1,0,0,1,1,1,1,0","3",""
"","html-keyboard-response","89","84566","0.0-89.0","3X66WABAJX446NRTV4B4CIAYDN43GM","A30RAYNDOWQ61S","3UUIU9GZC5R93N292LT21FRJ9VS5TN","","null","<img src=""img/flower2.png"" style=""width:200px; border:14px solid green;"">","null","","","","","","","","",""
"","image-keyboard-response","90","85224","0.0-90.0","3X66WABAJX446NRTV4B4CIAYDN43GM","A30RAYNDOWQ61S","3UUIU9GZC5R93N292LT21FRJ9VS5TN","","657.3000000119209","img/flower4.png","74","657.6999999880791","1","0","1","2","1,0,0,1,1,0,1,0,1","0,1,0,0,1,1,1,1,0","3",""
"","html-keyboard-response","91","85525","0.0-91.0","3X66WABAJX446NRTV4B4CIAYDN43GM","A30RAYNDOWQ61S","3UUIU9GZC5R93N292LT21FRJ9VS5TN","","null","<img src=""img/flower4.png"" style=""width:200px;border:14px solid red;"">","null","","","","","","","","",""
"","image-keyboard-response","92","86440","0.0-92.0","3X66WABAJX446NRTV4B4CIAYDN43GM","A30RAYNDOWQ61S","3UUIU9GZC5R93N292LT21FRJ9VS5TN","","914.3000000119209","img/flower2.png","76","914.8999999761581","3","1","2","2","1,0,0,1,1,0,1,0,1","0,1,0,0,1,1,1,1,0","3",""
"","html-keyboard-response","93","86741","0.0-93.0","3X66WABAJX446NRTV4B4CIAYDN43GM","A30RAYNDOWQ61S","3UUIU9GZC5R93N292LT21FRJ9VS5TN","","null","<img src=""img/flower2.png"" style=""width:200px; border:14px solid green;"">","null","","","","","","","","",""
"","image-keyboard-response","94","86968","0.0-94.0","3X66WABAJX446NRTV4B4CIAYDN43GM","A30RAYNDOWQ61S","3UUIU9GZC5R93N292LT21FRJ9VS5TN","","226.10000002384186","img/flower2.png","76","226.5","3","1","2","2","1,0,0,1,1,0,1,0,1","0,1,0,0,1,1,1,1,0","3",""
"","html-keyboard-response","95","87269","0.0-95.0","3X66WABAJX446NRTV4B4CIAYDN43GM","A30RAYNDOWQ61S","3UUIU9GZC5R93N292LT21FRJ9VS5TN","","null","<img src=""img/flower2.png"" style=""width:200px; border:14px solid green;"">","null","","","","","","","","",""
"","image-keyboard-response","96","87560","0.0-96.0","3X66WABAJX446NRTV4B4CIAYDN43GM","A30RAYNDOWQ61S","3UUIU9GZC5R93N292LT21FRJ9VS5TN","","289.89999997615814","img/flower4.png","76","290.19999998807907","3","0","1","2","1,0,0,1,1,0,1,0,1","0,1,0,0,1,1,1,1,0","3",""
"","html-keyboard-response","97","87861","0.0-97.0","3X66WABAJX446NRTV4B4CIAYDN43GM","A30RAYNDOWQ61S","3UUIU9GZC5R93N292LT21FRJ9VS5TN","","null","<img src=""img/flower4.png"" style=""width:200px;border:14px solid red;"">","null","","","","","","","","",""
"","image-keyboard-response","98","88249","0.0-98.0","3X66WABAJX446NRTV4B4CIAYDN43GM","A30RAYNDOWQ61S","3UUIU9GZC5R93N292LT21FRJ9VS5TN","","387.80000001192093","img/flower4.png","75","388.19999998807907","2","1","1","2","1,0,0,1,1,0,1,0,1","0,1,0,0,1,1,1,1,0","3",""
"","html-keyboard-response","99","88550","0.0-99.0","3X66WABAJX446NRTV4B4CIAYDN43GM","A30RAYNDOWQ61S","3UUIU9GZC5R93N292LT21FRJ9VS5TN","","null","<img src=""img/flower4.png"" style=""width:200px; border:14px solid green;"">","null","","","","","","","","",""
"","image-keyboard-response","100","88992","0.0-100.0","3X66WABAJX446NRTV4B4CIAYDN43GM","A30RAYNDOWQ61S","3UUIU9GZC5R93N292LT21FRJ9VS5TN","","441.5","img/flower4.png","75","441.9000000357628","2","1","1","2","1,0,0,1,1,0,1,0,1","0,1,0,0,1,1,1,1,0","3",""
"","html-keyboard-response","101","89294","0.0-101.0","3X66WABAJX446NRTV4B4CIAYDN43GM","A30RAYNDOWQ61S","3UUIU9GZC5R93N292LT21FRJ9VS5TN","","null","<img src=""img/flower4.png"" style=""width:200px; border:14px solid green;"">","null","","","","","","","","",""
"","image-keyboard-response","102","89784","0.0-102.0","3X66WABAJX446NRTV4B4CIAYDN43GM","A30RAYNDOWQ61S","3UUIU9GZC5R93N292LT21FRJ9VS5TN","","489.60000002384186","img/flower2.png","76","490.19999998807907","3","1","2","2","1,0,0,1,1,0,1,0,1","0,1,0,0,1,1,1,1,0","3",""
"","html-keyboard-response","103","90086","0.0-103.0","3X66WABAJX446NRTV4B4CIAYDN43GM","A30RAYNDOWQ61S","3UUIU9GZC5R93N292LT21FRJ9VS5TN","","null","<img src=""img/flower2.png"" style=""width:200px; border:14px solid green;"">","null","","","","","","","","",""
"","image-keyboard-response","104","90792","0.0-104.0","3X66WABAJX446NRTV4B4CIAYDN43GM","A30RAYNDOWQ61S","3UUIU9GZC5R93N292LT21FRJ9VS5TN","","705.8999999761581","img/flower6.png","74","706.1999999880791","1","1","3","2","1,0,0,1,1,0,1,0,1","0,1,0,0,1,1,1,1,0","3",""
"","html-keyboard-response","105","91093","0.0-105.0","3X66WABAJX446NRTV4B4CIAYDN43GM","A30RAYNDOWQ61S","3UUIU9GZC5R93N292LT21FRJ9VS5TN","","null","<img src=""img/flower6.png"" style=""width:200px; border:14px solid green;"">","null","","","","","","","","",""
"","image-keyboard-response","106","91872","0.0-106.0","3X66WABAJX446NRTV4B4CIAYDN43GM","A30RAYNDOWQ61S","3UUIU9GZC5R93N292LT21FRJ9VS5TN","","778.3999999761581","img/flower2.png","76","778.8999999761581","3","1","2","2","1,0,0,1,1,0,1,0,1","0,1,0,0,1,1,1,1,0","3",""
"","html-keyboard-response","107","92173","0.0-107.0","3X66WABAJX446NRTV4B4CIAYDN43GM","A30RAYNDOWQ61S","3UUIU9GZC5R93N292LT21FRJ9VS5TN","","null","<img src=""img/flower2.png"" style=""width:200px; border:14px solid green;"">","null","","","","","","","","",""
"","image-keyboard-response","108","92816","0.0-108.0","3X66WABAJX446NRTV4B4CIAYDN43GM","A30RAYNDOWQ61S","3UUIU9GZC5R93N292LT21FRJ9VS5TN","","642.4000000357628","img/flower6.png","74","642.9000000357628","1","1","3","2","1,0,0,1,1,0,1,0,1","0,1,0,0,1,1,1,1,0","3",""
"","html-keyboard-response","109","93122","0.0-109.0","3X66WABAJX446NRTV4B4CIAYDN43GM","A30RAYNDOWQ61S","3UUIU9GZC5R93N292LT21FRJ9VS5TN","","null","<img src=""img/flower6.png"" style=""width:200px; border:14px solid green;"">","null","","","","","","","","",""
"","image-keyboard-response","110","93528","0.0-110.0","3X66WABAJX446NRTV4B4CIAYDN43GM","A30RAYNDOWQ61S","3UUIU9GZC5R93N292LT21FRJ9VS5TN","","405.80000001192093","img/flower6.png","74","406.2000000476837","1","1","3","2","1,0,0,1,1,0,1,0,1","0,1,0,0,1,1,1,1,0","3",""
"","html-keyboard-response","111","93829","0.0-111.0","3X66WABAJX446NRTV4B4CIAYDN43GM","A30RAYNDOWQ61S","3UUIU9GZC5R93N292LT21FRJ9VS5TN","","null","<img src=""img/flower6.png"" style=""width:200px; border:14px solid green;"">","null","","","","","","","","",""
"","image-keyboard-response","112","94344","0.0-112.0","3X66WABAJX446NRTV4B4CIAYDN43GM","A30RAYNDOWQ61S","3UUIU9GZC5R93N292LT21FRJ9VS5TN","","514.3000000119209","img/flower2.png","76","514.8000000119209","3","1","2","2","1,0,0,1,1,0,1,0,1","0,1,0,0,1,1,1,1,0","3",""
"","html-keyboard-response","113","94646","0.0-113.0","3X66WABAJX446NRTV4B4CIAYDN43GM","A30RAYNDOWQ61S","3UUIU9GZC5R93N292LT21FRJ9VS5TN","","null","<img src=""img/flower2.png"" style=""width:200px; border:14px solid green;"">","null","","","","","","","","",""
"","image-keyboard-response","114","94953","0.0-114.0","3X66WABAJX446NRTV4B4CIAYDN43GM","A30RAYNDOWQ61S","3UUIU9GZC5R93N292LT21FRJ9VS5TN","","306.39999997615814","img/flower2.png","76","306.9000000357628","3","1","2","2","1,0,0,1,1,0,1,0,1","0,1,0,0,1,1,1,1,0","3",""
"","html-keyboard-response","115","95254","0.0-115.0","3X66WABAJX446NRTV4B4CIAYDN43GM","A30RAYNDOWQ61S","3UUIU9GZC5R93N292LT21FRJ9VS5TN","","null","<img src=""img/flower2.png"" style=""width:200px; border:14px solid green;"">","null","","","","","","","","",""
"","image-keyboard-response","116","95600","0.0-116.0","3X66WABAJX446NRTV4B4CIAYDN43GM","A30RAYNDOWQ61S","3UUIU9GZC5R93N292LT21FRJ9VS5TN","","345.5","img/flower2.png","76","346","3","1","2","2","1,0,0,1,1,0,1,0,1","0,1,0,0,1,1,1,1,0","3",""
"","html-keyboard-response","117","95901","0.0-117.0","3X66WABAJX446NRTV4B4CIAYDN43GM","A30RAYNDOWQ61S","3UUIU9GZC5R93N292LT21FRJ9VS5TN","","null","<img src=""img/flower2.png"" style=""width:200px; border:14px solid green;"">","null","","","","","","","","",""
"","image-keyboard-response","118","96609","0.0-118.0","3X66WABAJX446NRTV4B4CIAYDN43GM","A30RAYNDOWQ61S","3UUIU9GZC5R93N292LT21FRJ9VS5TN","","707.3999999761581","img/flower4.png","75","707.8999999761581","2","1","1","2","1,0,0,1,1,0,1,0,1","0,1,0,0,1,1,1,1,0","3",""
"","html-keyboard-response","119","96911","0.0-119.0","3X66WABAJX446NRTV4B4CIAYDN43GM","A30RAYNDOWQ61S","3UUIU9GZC5R93N292LT21FRJ9VS5TN","","null","<img src=""img/flower4.png"" style=""width:200px; border:14px solid green;"">","null","","","","","","","","",""
"","image-keyboard-response","120","97480","0.0-120.0","3X66WABAJX446NRTV4B4CIAYDN43GM","A30RAYNDOWQ61S","3UUIU9GZC5R93N292LT21FRJ9VS5TN","","569.2999999523163","img/flower2.png","76","569.7000000476837","3","1","2","2","1,0,0,1,1,0,1,0,1","0,1,0,0,1,1,1,1,0","3",""
"","html-keyboard-response","121","97782","0.0-121.0","3X66WABAJX446NRTV4B4CIAYDN43GM","A30RAYNDOWQ61S","3UUIU9GZC5R93N292LT21FRJ9VS5TN","","null","<img src=""img/flower2.png"" style=""width:200px; border:14px solid green;"">","null","","","","","","","","",""
"","image-keyboard-response","122","98489","0.0-122.0","3X66WABAJX446NRTV4B4CIAYDN43GM","A30RAYNDOWQ61S","3UUIU9GZC5R93N292LT21FRJ9VS5TN","","706.8000000119209","img/flower4.png","75","707.0999999642372","2","1","1","2","1,0,0,1,1,0,1,0,1","0,1,0,0,1,1,1,1,0","3",""
"","html-keyboard-response","123","98790","0.0-123.0","3X66WABAJX446NRTV4B4CIAYDN43GM","A30RAYNDOWQ61S","3UUIU9GZC5R93N292LT21FRJ9VS5TN","","null","<img src=""img/flower4.png"" style=""width:200px; border:14px solid green;"">","null","","","","","","","","",""
"","image-keyboard-response","124","99377","0.0-124.0","3X66WABAJX446NRTV4B4CIAYDN43GM","A30RAYNDOWQ61S","3UUIU9GZC5R93N292LT21FRJ9VS5TN","","586.1000000238419","img/flower6.png","74","586.5999999642372","1","1","3","2","1,0,0,1,1,0,1,0,1","0,1,0,0,1,1,1,1,0","3",""
"","html-keyboard-response","125","99680","0.0-125.0","3X66WABAJX446NRTV4B4CIAYDN43GM","A30RAYNDOWQ61S","3UUIU9GZC5R93N292LT21FRJ9VS5TN","","null","<img src=""img/flower6.png"" style=""width:200px; border:14px solid green;"">","null","","","","","","","","",""
"","image-keyboard-response","126","100232","0.0-126.0","3X66WABAJX446NRTV4B4CIAYDN43GM","A30RAYNDOWQ61S","3UUIU9GZC5R93N292LT21FRJ9VS5TN","","551.7999999523163","img/flower4.png","75","552.5","2","1","1","2","1,0,0,1,1,0,1,0,1","0,1,0,0,1,1,1,1,0","3",""
"","html-keyboard-response","127","100534","0.0-127.0","3X66WABAJX446NRTV4B4CIAYDN43GM","A30RAYNDOWQ61S","3UUIU9GZC5R93N292LT21FRJ9VS5TN","","null","<img src=""img/flower4.png"" style=""width:200px; border:14px solid green;"">","null","","","","","","","","",""
"","image-keyboard-response","128","101088","0.0-128.0","3X66WABAJX446NRTV4B4CIAYDN43GM","A30RAYNDOWQ61S","3UUIU9GZC5R93N292LT21FRJ9VS5TN","","553.6000000238419","img/flower6.png","74","554.1000000238419","1","1","3","2","1,0,0,1,1,0,1,0,1","0,1,0,0,1,1,1,1,0","3",""
"","html-keyboard-response","129","101389","0.0-129.0","3X66WABAJX446NRTV4B4CIAYDN43GM","A30RAYNDOWQ61S","3UUIU9GZC5R93N292LT21FRJ9VS5TN","","null","<img src=""img/flower6.png"" style=""width:200px; border:14px solid green;"">","null","","","","","","","","",""
"","image-keyboard-response","130","101864","0.0-130.0","3X66WABAJX446NRTV4B4CIAYDN43GM","A30RAYNDOWQ61S","3UUIU9GZC5R93N292LT21FRJ9VS5TN","","474.0999999642372","img/flower6.png","74","474.5","1","1","3","2","1,0,0,1,1,0,1,0,1","0,1,0,0,1,1,1,1,0","3",""
"","html-keyboard-response","131","102165","0.0-131.0","3X66WABAJX446NRTV4B4CIAYDN43GM","A30RAYNDOWQ61S","3UUIU9GZC5R93N292LT21FRJ9VS5TN","","null","<img src=""img/flower6.png"" style=""width:200px; border:14px solid green;"">","null","","","","","","","","",""
"","image-keyboard-response","132","102609","0.0-132.0","3X66WABAJX446NRTV4B4CIAYDN43GM","A30RAYNDOWQ61S","3UUIU9GZC5R93N292LT21FRJ9VS5TN","","443.39999997615814","img/flower6.png","74","444.60000002384186","1","1","3","2","1,0,0,1,1,0,1,0,1","0,1,0,0,1,1,1,1,0","3",""
"","html-keyboard-response","133","102910","0.0-133.0","3X66WABAJX446NRTV4B4CIAYDN43GM","A30RAYNDOWQ61S","3UUIU9GZC5R93N292LT21FRJ9VS5TN","","null","<img src=""img/flower6.png"" style=""width:200px; border:14px solid green;"">","null","","","","","","","","",""
"","image-keyboard-response","134","103448","0.0-134.0","3X66WABAJX446NRTV4B4CIAYDN43GM","A30RAYNDOWQ61S","3UUIU9GZC5R93N292LT21FRJ9VS5TN","","537.1000000238419","img/flower4.png","75","537.3999999761581","2","1","1","2","1,0,0,1,1,0,1,0,1","0,1,0,0,1,1,1,1,0","3",""
"","html-keyboard-response","135","103750","0.0-135.0","3X66WABAJX446NRTV4B4CIAYDN43GM","A30RAYNDOWQ61S","3UUIU9GZC5R93N292LT21FRJ9VS5TN","","null","<img src=""img/flower4.png"" style=""width:200px; border:14px solid green;"">","null","","","","","","","","",""
"","image-keyboard-response","136","104249","0.0-136.0","3X66WABAJX446NRTV4B4CIAYDN43GM","A30RAYNDOWQ61S","3UUIU9GZC5R93N292LT21FRJ9VS5TN","","498.60000002384186","img/flower4.png","75","499.10000002384186","2","1","1","2","1,0,0,1,1,0,1,0,1","0,1,0,0,1,1,1,1,0","3",""
"","html-keyboard-response","137","104551","0.0-137.0","3X66WABAJX446NRTV4B4CIAYDN43GM","A30RAYNDOWQ61S","3UUIU9GZC5R93N292LT21FRJ9VS5TN","","null","<img src=""img/flower4.png"" style=""width:200px; border:14px solid green;"">","null","","","","","","","","",""
"","image-keyboard-response","138","105152","0.0-138.0","3X66WABAJX446NRTV4B4CIAYDN43GM","A30RAYNDOWQ61S","3UUIU9GZC5R93N292LT21FRJ9VS5TN","","601.3000000119209","img/flower2.png","76","601.8000000119209","3","1","2","2","1,0,0,1,1,0,1,0,1","0,1,0,0,1,1,1,1,0","3",""
"","html-keyboard-response","139","105454","0.0-139.0","3X66WABAJX446NRTV4B4CIAYDN43GM","A30RAYNDOWQ61S","3UUIU9GZC5R93N292LT21FRJ9VS5TN","","null","<img src=""img/flower2.png"" style=""width:200px; border:14px solid green;"">","null","","","","","","","","",""
"","image-keyboard-response","140","106096","0.0-140.0","3X66WABAJX446NRTV4B4CIAYDN43GM","A30RAYNDOWQ61S","3UUIU9GZC5R93N292LT21FRJ9VS5TN","","641.8000000119209","img/flower4.png","74","642.1000000238419","1","0","1","2","1,0,0,1,1,0,1,0,1","0,1,0,0,1,1,1,1,0","3",""
"","html-keyboard-response","141","106397","0.0-141.0","3X66WABAJX446NRTV4B4CIAYDN43GM","A30RAYNDOWQ61S","3UUIU9GZC5R93N292LT21FRJ9VS5TN","","null","<img src=""img/flower4.png"" style=""width:200px;border:14px solid red;"">","null","","","","","","","","",""
"","image-keyboard-response","142","106616","0.0-142.0","3X66WABAJX446NRTV4B4CIAYDN43GM","A30RAYNDOWQ61S","3UUIU9GZC5R93N292LT21FRJ9VS5TN","","218.0999999642372","img/flower2.png","75","218.5","2","1","2","2","1,0,0,1,1,0,1,0,1","0,1,0,0,1,1,1,1,0","3",""
"","html-keyboard-response","143","106917","0.0-143.0","3X66WABAJX446NRTV4B4CIAYDN43GM","A30RAYNDOWQ61S","3UUIU9GZC5R93N292LT21FRJ9VS5TN","","null","<img src=""img/flower2.png"" style=""width:200px; border:14px solid green;"">","null","","","","","","","","",""
"","image-keyboard-response","144","107641","0.0-144.0","3X66WABAJX446NRTV4B4CIAYDN43GM","A30RAYNDOWQ61S","3UUIU9GZC5R93N292LT21FRJ9VS5TN","","722.9000000357628","img/flower2.png","76","723.3000000119209","3","1","2","2","1,0,0,1,1,0,1,0,1","0,1,0,0,1,1,1,1,0","3",""
"","html-keyboard-response","145","107942","0.0-145.0","3X66WABAJX446NRTV4B4CIAYDN43GM","A30RAYNDOWQ61S","3UUIU9GZC5R93N292LT21FRJ9VS5TN","","null","<img src=""img/flower2.png"" style=""width:200px; border:14px solid green;"">","null","","","","","","","","",""
"","image-keyboard-response","146","108840","0.0-146.0","3X66WABAJX446NRTV4B4CIAYDN43GM","A30RAYNDOWQ61S","3UUIU9GZC5R93N292LT21FRJ9VS5TN","","897.6000000238419","img/flower4.png","75","897.9000000357628","2","1","1","2","1,0,0,1,1,0,1,0,1","0,1,0,0,1,1,1,1,0","3",""
"","html-keyboard-response","147","109142","0.0-147.0","3X66WABAJX446NRTV4B4CIAYDN43GM","A30RAYNDOWQ61S","3UUIU9GZC5R93N292LT21FRJ9VS5TN","","null","<img src=""img/flower4.png"" style=""width:200px; border:14px solid green;"">","null","","","","","","","","",""
"","image-keyboard-response","148","109704","0.0-148.0","3X66WABAJX446NRTV4B4CIAYDN43GM","A30RAYNDOWQ61S","3UUIU9GZC5R93N292LT21FRJ9VS5TN","","562.1999999880791","img/flower2.png","76","562.5999999642372","3","1","2","2","1,0,0,1,1,0,1,0,1","0,1,0,0,1,1,1,1,0","3",""
"","html-keyboard-response","149","110006","0.0-149.0","3X66WABAJX446NRTV4B4CIAYDN43GM","A30RAYNDOWQ61S","3UUIU9GZC5R93N292LT21FRJ9VS5TN","","null","<img src=""img/flower2.png"" style=""width:200px; border:14px solid green;"">","null","","","","","","","","",""
"","image-keyboard-response","150","110552","0.0-150.0","3X66WABAJX446NRTV4B4CIAYDN43GM","A30RAYNDOWQ61S","3UUIU9GZC5R93N292LT21FRJ9VS5TN","","545.9000000357628","img/flower2.png","76","546.4000000357628","3","1","2","2","1,0,0,1,1,0,1,0,1","0,1,0,0,1,1,1,1,0","3",""
"","html-keyboard-response","151","110853","0.0-151.0","3X66WABAJX446NRTV4B4CIAYDN43GM","A30RAYNDOWQ61S","3UUIU9GZC5R93N292LT21FRJ9VS5TN","","null","<img src=""img/flower2.png"" style=""width:200px; border:14px solid green;"">","null","","","","","","","","",""
"","image-keyboard-response","152","111528","0.0-152.0","3X66WABAJX446NRTV4B4CIAYDN43GM","A30RAYNDOWQ61S","3UUIU9GZC5R93N292LT21FRJ9VS5TN","","674.1999999880791","img/flower6.png","74","674.6999999880791","1","1","3","2","1,0,0,1,1,0,1,0,1","0,1,0,0,1,1,1,1,0","3",""
"","html-keyboard-response","153","111829","0.0-153.0","3X66WABAJX446NRTV4B4CIAYDN43GM","A30RAYNDOWQ61S","3UUIU9GZC5R93N292LT21FRJ9VS5TN","","null","<img src=""img/flower6.png"" style=""width:200px; border:14px solid green;"">","null","","","","","","","","",""
"","image-keyboard-response","154","112248","0.0-154.0","3X66WABAJX446NRTV4B4CIAYDN43GM","A30RAYNDOWQ61S","3UUIU9GZC5R93N292LT21FRJ9VS5TN","","418.39999997615814","img/flower6.png","74","418.9000000357628","1","1","3","2","1,0,0,1,1,0,1,0,1","0,1,0,0,1,1,1,1,0","3",""
"","html-keyboard-response","155","112549","0.0-155.0","3X66WABAJX446NRTV4B4CIAYDN43GM","A30RAYNDOWQ61S","3UUIU9GZC5R93N292LT21FRJ9VS5TN","","null","<img src=""img/flower6.png"" style=""width:200px; border:14px solid green;"">","null","","","","","","","","",""
"","image-keyboard-response","156","113120","0.0-156.0","3X66WABAJX446NRTV4B4CIAYDN43GM","A30RAYNDOWQ61S","3UUIU9GZC5R93N292LT21FRJ9VS5TN","","570.6000000238419","img/flower4.png","75","571","2","1","1","2","1,0,0,1,1,0,1,0,1","0,1,0,0,1,1,1,1,0","3",""
"","html-keyboard-response","157","113422","0.0-157.0","3X66WABAJX446NRTV4B4CIAYDN43GM","A30RAYNDOWQ61S","3UUIU9GZC5R93N292LT21FRJ9VS5TN","","null","<img src=""img/flower4.png"" style=""width:200px; border:14px solid green;"">","null","","","","","","","","",""
"","image-keyboard-response","158","113776","0.0-158.0","3X66WABAJX446NRTV4B4CIAYDN43GM","A30RAYNDOWQ61S","3UUIU9GZC5R93N292LT21FRJ9VS5TN","","354","img/flower4.png","75","354.30000001192093","2","1","1","2","1,0,0,1,1,0,1,0,1","0,1,0,0,1,1,1,1,0","3",""
"","html-keyboard-response","159","114077","0.0-159.0","3X66WABAJX446NRTV4B4CIAYDN43GM","A30RAYNDOWQ61S","3UUIU9GZC5R93N292LT21FRJ9VS5TN","","null","<img src=""img/flower4.png"" style=""width:200px; border:14px solid green;"">","null","","","","","","","","",""
"","image-keyboard-response","160","114592","0.0-160.0","3X66WABAJX446NRTV4B4CIAYDN43GM","A30RAYNDOWQ61S","3UUIU9GZC5R93N292LT21FRJ9VS5TN","","514","img/flower2.png","76","514.4000000357628","3","1","2","2","1,0,0,1,1,0,1,0,1","0,1,0,0,1,1,1,1,0","3",""
"","html-keyboard-response","161","114893","0.0-161.0","3X66WABAJX446NRTV4B4CIAYDN43GM","A30RAYNDOWQ61S","3UUIU9GZC5R93N292LT21FRJ9VS5TN","","null","<img src=""img/flower2.png"" style=""width:200px; border:14px solid green;"">","null","","","","","","","","",""
"","image-keyboard-response","162","115208","0.0-162.0","3X66WABAJX446NRTV4B4CIAYDN43GM","A30RAYNDOWQ61S","3UUIU9GZC5R93N292LT21FRJ9VS5TN","","314.30000001192093","img/flower2.png","76","314.89999997615814","3","1","2","2","1,0,0,1,1,0,1,0,1","0,1,0,0,1,1,1,1,0","3",""
"","html-keyboard-response","163","115510","0.0-163.0","3X66WABAJX446NRTV4B4CIAYDN43GM","A30RAYNDOWQ61S","3UUIU9GZC5R93N292LT21FRJ9VS5TN","","null","<img src=""img/flower2.png"" style=""width:200px; border:14px solid green;"">","null","","","","","","","","",""
"","image-keyboard-response","164","115809","0.0-164.0","3X66WABAJX446NRTV4B4CIAYDN43GM","A30RAYNDOWQ61S","3UUIU9GZC5R93N292LT21FRJ9VS5TN","","298.5","img/flower2.png","76","299","3","1","2","2","1,0,0,1,1,0,1,0,1","0,1,0,0,1,1,1,1,0","3",""
"","html-keyboard-response","165","116110","0.0-165.0","3X66WABAJX446NRTV4B4CIAYDN43GM","A30RAYNDOWQ61S","3UUIU9GZC5R93N292LT21FRJ9VS5TN","","null","<img src=""img/flower2.png"" style=""width:200px; border:14px solid green;"">","null","","","","","","","","",""
"","image-keyboard-response","166","116905","0.0-166.0","3X66WABAJX446NRTV4B4CIAYDN43GM","A30RAYNDOWQ61S","3UUIU9GZC5R93N292LT21FRJ9VS5TN","","794.6000000238419","img/flower4.png","75","794.8999999761581","2","1","1","2","1,0,0,1,1,0,1,0,1","0,1,0,0,1,1,1,1,0","3",""
"","html-keyboard-response","167","117206","0.0-167.0","3X66WABAJX446NRTV4B4CIAYDN43GM","A30RAYNDOWQ61S","3UUIU9GZC5R93N292LT21FRJ9VS5TN","","null","<img src=""img/flower4.png"" style=""width:200px; border:14px solid green;"">","null","","","","","","","","",""
"","image-keyboard-response","168","117488","0.0-168.0","3X66WABAJX446NRTV4B4CIAYDN43GM","A30RAYNDOWQ61S","3UUIU9GZC5R93N292LT21FRJ9VS5TN","","281.19999998807907","img/flower4.png","75","281.7000000476837","2","1","1","2","1,0,0,1,1,0,1,0,1","0,1,0,0,1,1,1,1,0","3",""
"","html-keyboard-response","169","117789","0.0-169.0","3X66WABAJX446NRTV4B4CIAYDN43GM","A30RAYNDOWQ61S","3UUIU9GZC5R93N292LT21FRJ9VS5TN","","null","<img src=""img/flower4.png"" style=""width:200px; border:14px solid green;"">","null","","","","","","","","",""
"","image-keyboard-response","170","118264","0.0-170.0","3X66WABAJX446NRTV4B4CIAYDN43GM","A30RAYNDOWQ61S","3UUIU9GZC5R93N292LT21FRJ9VS5TN","","474.89999997615814","img/flower6.png","74","475.30000001192093","1","1","3","2","1,0,0,1,1,0,1,0,1","0,1,0,0,1,1,1,1,0","3",""
"","html-keyboard-response","171","118565","0.0-171.0","3X66WABAJX446NRTV4B4CIAYDN43GM","A30RAYNDOWQ61S","3UUIU9GZC5R93N292LT21FRJ9VS5TN","","null","<img src=""img/flower6.png"" style=""width:200px; border:14px solid green;"">","null","","","","","","","","",""
"","image-keyboard-response","172","118832","0.0-172.0","3X66WABAJX446NRTV4B4CIAYDN43GM","A30RAYNDOWQ61S","3UUIU9GZC5R93N292LT21FRJ9VS5TN","","267.0999999642372","img/flower6.png","74","267.60000002384186","1","1","3","2","1,0,0,1,1,0,1,0,1","0,1,0,0,1,1,1,1,0","3",""
"","html-keyboard-response","173","119133","0.0-173.0","3X66WABAJX446NRTV4B4CIAYDN43GM","A30RAYNDOWQ61S","3UUIU9GZC5R93N292LT21FRJ9VS5TN","","null","<img src=""img/flower6.png"" style=""width:200px; border:14px solid green;"">","null","","","","","","","","",""
"","image-keyboard-response","174","119720","0.0-174.0","3X66WABAJX446NRTV4B4CIAYDN43GM","A30RAYNDOWQ61S","3UUIU9GZC5R93N292LT21FRJ9VS5TN","","586.2999999523163","img/flower4.png","75","586.6000000238419","2","1","1","2","1,0,0,1,1,0,1,0,1","0,1,0,0,1,1,1,1,0","3",""
"","html-keyboard-response","175","120021","0.0-175.0","3X66WABAJX446NRTV4B4CIAYDN43GM","A30RAYNDOWQ61S","3UUIU9GZC5R93N292LT21FRJ9VS5TN","","null","<img src=""img/flower4.png"" style=""width:200px; border:14px solid green;"">","null","","","","","","","","",""
"","image-keyboard-response","176","120616","0.0-176.0","3X66WABAJX446NRTV4B4CIAYDN43GM","A30RAYNDOWQ61S","3UUIU9GZC5R93N292LT21FRJ9VS5TN","","594.4000000357628","img/flower2.png","76","594.7000000476837","3","1","2","2","1,0,0,1,1,0,1,0,1","0,1,0,0,1,1,1,1,0","3",""
"","html-keyboard-response","177","120917","0.0-177.0","3X66WABAJX446NRTV4B4CIAYDN43GM","A30RAYNDOWQ61S","3UUIU9GZC5R93N292LT21FRJ9VS5TN","","null","<img src=""img/flower2.png"" style=""width:200px; border:14px solid green;"">","null","","","","","","","","",""
"","image-keyboard-response","178","121288","0.0-178.0","3X66WABAJX446NRTV4B4CIAYDN43GM","A30RAYNDOWQ61S","3UUIU9GZC5R93N292LT21FRJ9VS5TN","","370.30000001192093","img/flower4.png","76","370.7000000476837","3","0","1","2","1,0,0,1,1,0,1,0,1","0,1,0,0,1,1,1,1,0","3",""
"","html-keyboard-response","179","121589","0.0-179.0","3X66WABAJX446NRTV4B4CIAYDN43GM","A30RAYNDOWQ61S","3UUIU9GZC5R93N292LT21FRJ9VS5TN","","null","<img src=""img/flower4.png"" style=""width:200px;border:14px solid red;"">","null","","","","","","","","",""
"","image-keyboard-response","180","122264","0.0-180.0","3X66WABAJX446NRTV4B4CIAYDN43GM","A30RAYNDOWQ61S","3UUIU9GZC5R93N292LT21FRJ9VS5TN","","674.1000000238419","img/flower6.png","74","674.5","1","1","3","2","1,0,0,1,1,0,1,0,1","0,1,0,0,1,1,1,1,0","3",""
"","html-keyboard-response","181","122565","0.0-181.0","3X66WABAJX446NRTV4B4CIAYDN43GM","A30RAYNDOWQ61S","3UUIU9GZC5R93N292LT21FRJ9VS5TN","","null","<img src=""img/flower6.png"" style=""width:200px; border:14px solid green;"">","null","","","","","","","","",""
"","image-keyboard-response","182","123624","0.0-182.0","3X66WABAJX446NRTV4B4CIAYDN43GM","A30RAYNDOWQ61S","3UUIU9GZC5R93N292LT21FRJ9VS5TN","","1058.5","img/flower5.png","75","1059.1000000238419","2","1","3","1","1,0.333,0.333,0.333,1,0.333,0.333,0.333,1","1,0.333,0.333,0.333,1,0.333,0.333,0.333,1","1",""
"","html-keyboard-response","183","123925","0.0-183.0","3X66WABAJX446NRTV4B4CIAYDN43GM","A30RAYNDOWQ61S","3UUIU9GZC5R93N292LT21FRJ9VS5TN","","null","<img src=""img/flower5.png"" style=""width:200px; border:14px solid green;"">","null","","","","","","","","",""
"","image-keyboard-response","184","124528","0.0-184.0","3X66WABAJX446NRTV4B4CIAYDN43GM","A30RAYNDOWQ61S","3UUIU9GZC5R93N292LT21FRJ9VS5TN","","602.8999999761581","img/flower1.png","75","603.5","2","1","2","1","1,0.333,0.333,0.333,1,0.333,0.333,0.333,1","1,0.333,0.333,0.333,1,0.333,0.333,0.333,1","1",""
"","html-keyboard-response","185","124830","0.0-185.0","3X66WABAJX446NRTV4B4CIAYDN43GM","A30RAYNDOWQ61S","3UUIU9GZC5R93N292LT21FRJ9VS5TN","","null","<img src=""img/flower1.png"" style=""width:200px; border:14px solid green;"">","null","","","","","","","","",""
"","image-keyboard-response","186","125488","0.0-186.0","3X66WABAJX446NRTV4B4CIAYDN43GM","A30RAYNDOWQ61S","3UUIU9GZC5R93N292LT21FRJ9VS5TN","","657.6000000238419","img/flower3.png","75","658","2","0","1","1","1,0.333,0.333,0.333,1,0.333,0.333,0.333,1","1,0.333,0.333,0.333,1,0.333,0.333,0.333,1","1",""
"","html-keyboard-response","187","125790","0.0-187.0","3X66WABAJX446NRTV4B4CIAYDN43GM","A30RAYNDOWQ61S","3UUIU9GZC5R93N292LT21FRJ9VS5TN","","null","<img src=""img/flower3.png"" style=""width:200px;border:14px solid red;"">","null","","","","","","","","",""
"","image-keyboard-response","188","126176","0.0-188.0","3X66WABAJX446NRTV4B4CIAYDN43GM","A30RAYNDOWQ61S","3UUIU9GZC5R93N292LT21FRJ9VS5TN","","386.10000002384186","img/flower1.png","74","386.69999998807907","1","1","2","1","1,0.333,0.333,0.333,1,0.333,0.333,0.333,1","1,0.333,0.333,0.333,1,0.333,0.333,0.333,1","1",""
"","html-keyboard-response","189","126478","0.0-189.0","3X66WABAJX446NRTV4B4CIAYDN43GM","A30RAYNDOWQ61S","3UUIU9GZC5R93N292LT21FRJ9VS5TN","","null","<img src=""img/flower1.png"" style=""width:200px; border:14px solid green;"">","null","","","","","","","","",""
"","image-keyboard-response","190","127168","0.0-190.0","3X66WABAJX446NRTV4B4CIAYDN43GM","A30RAYNDOWQ61S","3UUIU9GZC5R93N292LT21FRJ9VS5TN","","689.1000000238419","img/flower5.png","75","689.5","2","0","3","1","1,0.333,0.333,0.333,1,0.333,0.333,0.333,1","1,0.333,0.333,0.333,1,0.333,0.333,0.333,1","1",""
"","html-keyboard-response","191","127469","0.0-191.0","3X66WABAJX446NRTV4B4CIAYDN43GM","A30RAYNDOWQ61S","3UUIU9GZC5R93N292LT21FRJ9VS5TN","","null","<img src=""img/flower5.png"" style=""width:200px;border:14px solid red;"">","null","","","","","","","","",""
"","image-keyboard-response","192","127880","0.0-192.0","3X66WABAJX446NRTV4B4CIAYDN43GM","A30RAYNDOWQ61S","3UUIU9GZC5R93N292LT21FRJ9VS5TN","","410","img/flower1.png","76","410.60000002384186","3","0","2","1","1,0.333,0.333,0.333,1,0.333,0.333,0.333,1","1,0.333,0.333,0.333,1,0.333,0.333,0.333,1","1",""
"","html-keyboard-response","193","128181","0.0-193.0","3X66WABAJX446NRTV4B4CIAYDN43GM","A30RAYNDOWQ61S","3UUIU9GZC5R93N292LT21FRJ9VS5TN","","null","<img src=""img/flower1.png"" style=""width:200px;border:14px solid red;"">","null","","","","","","","","",""
"","image-keyboard-response","194","128608","0.0-194.0","3X66WABAJX446NRTV4B4CIAYDN43GM","A30RAYNDOWQ61S","3UUIU9GZC5R93N292LT21FRJ9VS5TN","","426.60000002384186","img/flower3.png","74","426.89999997615814","1","1","1","1","1,0.333,0.333,0.333,1,0.333,0.333,0.333,1","1,0.333,0.333,0.333,1,0.333,0.333,0.333,1","1",""
"","html-keyboard-response","195","128909","0.0-195.0","3X66WABAJX446NRTV4B4CIAYDN43GM","A30RAYNDOWQ61S","3UUIU9GZC5R93N292LT21FRJ9VS5TN","","null","<img src=""img/flower3.png"" style=""width:200px; border:14px solid green;"">","null","","","","","","","","",""
"","image-keyboard-response","196","129352","0.0-196.0","3X66WABAJX446NRTV4B4CIAYDN43GM","A30RAYNDOWQ61S","3UUIU9GZC5R93N292LT21FRJ9VS5TN","","442.0999999642372","img/flower5.png","76","442.60000002384186","3","1","3","1","1,0.333,0.333,0.333,1,0.333,0.333,0.333,1","1,0.333,0.333,0.333,1,0.333,0.333,0.333,1","1",""
"","html-keyboard-response","197","129653","0.0-197.0","3X66WABAJX446NRTV4B4CIAYDN43GM","A30RAYNDOWQ61S","3UUIU9GZC5R93N292LT21FRJ9VS5TN","","null","<img src=""img/flower5.png"" style=""width:200px; border:14px solid green;"">","null","","","","","","","","",""
"","image-keyboard-response","198","130216","0.0-198.0","3X66WABAJX446NRTV4B4CIAYDN43GM","A30RAYNDOWQ61S","3UUIU9GZC5R93N292LT21FRJ9VS5TN","","562.8000000119209","img/flower1.png","76","563.1999999880791","3","1","2","1","1,0.333,0.333,0.333,1,0.333,0.333,0.333,1","1,0.333,0.333,0.333,1,0.333,0.333,0.333,1","1",""
"","html-keyboard-response","199","130518","0.0-199.0","3X66WABAJX446NRTV4B4CIAYDN43GM","A30RAYNDOWQ61S","3UUIU9GZC5R93N292LT21FRJ9VS5TN","","null","<img src=""img/flower1.png"" style=""width:200px; border:14px solid green;"">","null","","","","","","","","",""
"","image-keyboard-response","200","131297","0.0-200.0","3X66WABAJX446NRTV4B4CIAYDN43GM","A30RAYNDOWQ61S","3UUIU9GZC5R93N292LT21FRJ9VS5TN","","778.9000000357628","img/flower3.png","75","779.3000000119209","2","0","1","1","1,0.333,0.333,0.333,1,0.333,0.333,0.333,1","1,0.333,0.333,0.333,1,0.333,0.333,0.333,1","1",""
"","html-keyboard-response","201","131598","0.0-201.0","3X66WABAJX446NRTV4B4CIAYDN43GM","A30RAYNDOWQ61S","3UUIU9GZC5R93N292LT21FRJ9VS5TN","","null","<img src=""img/flower3.png"" style=""width:200px;border:14px solid red;"">","null","","","","","","","","",""
"","image-keyboard-response","202","132256","0.0-202.0","3X66WABAJX446NRTV4B4CIAYDN43GM","A30RAYNDOWQ61S","3UUIU9GZC5R93N292LT21FRJ9VS5TN","","657.6999999880791","img/flower1.png","74","658.1999999880791","1","0","2","1","1,0.333,0.333,0.333,1,0.333,0.333,0.333,1","1,0.333,0.333,0.333,1,0.333,0.333,0.333,1","1",""
"","html-keyboard-response","203","132557","0.0-203.0","3X66WABAJX446NRTV4B4CIAYDN43GM","A30RAYNDOWQ61S","3UUIU9GZC5R93N292LT21FRJ9VS5TN","","null","<img src=""img/flower1.png"" style=""width:200px;border:14px solid red;"">","null","","","","","","","","",""
"","image-keyboard-response","204","133232","0.0-204.0","3X66WABAJX446NRTV4B4CIAYDN43GM","A30RAYNDOWQ61S","3UUIU9GZC5R93N292LT21FRJ9VS5TN","","674.5999999642372","img/flower3.png","76","675","3","1","1","1","1,0.333,0.333,0.333,1,0.333,0.333,0.333,1","1,0.333,0.333,0.333,1,0.333,0.333,0.333,1","1",""
"","html-keyboard-response","205","133533","0.0-205.0","3X66WABAJX446NRTV4B4CIAYDN43GM","A30RAYNDOWQ61S","3UUIU9GZC5R93N292LT21FRJ9VS5TN","","null","<img src=""img/flower3.png"" style=""width:200px; border:14px solid green;"">","null","","","","","","","","",""
"","image-keyboard-response","206","134224","0.0-206.0","3X66WABAJX446NRTV4B4CIAYDN43GM","A30RAYNDOWQ61S","3UUIU9GZC5R93N292LT21FRJ9VS5TN","","690.5","img/flower1.png","75","691.1000000238419","2","1","2","1","1,0.333,0.333,0.333,1,0.333,0.333,0.333,1","1,0.333,0.333,0.333,1,0.333,0.333,0.333,1","1",""
"","html-keyboard-response","207","134525","0.0-207.0","3X66WABAJX446NRTV4B4CIAYDN43GM","A30RAYNDOWQ61S","3UUIU9GZC5R93N292LT21FRJ9VS5TN","","null","<img src=""img/flower1.png"" style=""width:200px; border:14px solid green;"">","null","","","","","","","","",""
"","image-keyboard-response","208","135032","0.0-208.0","3X66WABAJX446NRTV4B4CIAYDN43GM","A30RAYNDOWQ61S","3UUIU9GZC5R93N292LT21FRJ9VS5TN","","506.39999997615814","img/flower1.png","75","506.80000001192093","2","1","2","1","1,0.333,0.333,0.333,1,0.333,0.333,0.333,1","1,0.333,0.333,0.333,1,0.333,0.333,0.333,1","1",""
"","html-keyboard-response","209","135333","0.0-209.0","3X66WABAJX446NRTV4B4CIAYDN43GM","A30RAYNDOWQ61S","3UUIU9GZC5R93N292LT21FRJ9VS5TN","","null","<img src=""img/flower1.png"" style=""width:200px; border:14px solid green;"">","null","","","","","","","","",""
"","image-keyboard-response","210","136016","0.0-210.0","3X66WABAJX446NRTV4B4CIAYDN43GM","A30RAYNDOWQ61S","3UUIU9GZC5R93N292LT21FRJ9VS5TN","","683.1999999880791","img/flower5.png","76","683.6000000238419","3","1","3","1","1,0.333,0.333,0.333,1,0.333,0.333,0.333,1","1,0.333,0.333,0.333,1,0.333,0.333,0.333,1","1",""
"","html-keyboard-response","211","136328","0.0-211.0","3X66WABAJX446NRTV4B4CIAYDN43GM","A30RAYNDOWQ61S","3UUIU9GZC5R93N292LT21FRJ9VS5TN","","null","<img src=""img/flower5.png"" style=""width:200px; border:14px solid green;"">","null","","","","","","","","",""
"","image-keyboard-response","212","137088","0.0-212.0","3X66WABAJX446NRTV4B4CIAYDN43GM","A30RAYNDOWQ61S","3UUIU9GZC5R93N292LT21FRJ9VS5TN","","758.6999999880791","img/flower3.png","74","759.3999999761581","1","1","1","1","1,0.333,0.333,0.333,1,0.333,0.333,0.333,1","1,0.333,0.333,0.333,1,0.333,0.333,0.333,1","1",""
"","html-keyboard-response","213","137389","0.0-213.0","3X66WABAJX446NRTV4B4CIAYDN43GM","A30RAYNDOWQ61S","3UUIU9GZC5R93N292LT21FRJ9VS5TN","","null","<img src=""img/flower3.png"" style=""width:200px; border:14px solid green;"">","null","","","","","","","","",""
"","image-keyboard-response","214","138232","0.0-214.0","3X66WABAJX446NRTV4B4CIAYDN43GM","A30RAYNDOWQ61S","3UUIU9GZC5R93N292LT21FRJ9VS5TN","","843.3000000119209","img/flower3.png","75","843.6000000238419","2","1","1","1","1,0.333,0.333,0.333,1,0.333,0.333,0.333,1","1,0.333,0.333,0.333,1,0.333,0.333,0.333,1","1",""
"","html-keyboard-response","215","138534","0.0-215.0","3X66WABAJX446NRTV4B4CIAYDN43GM","A30RAYNDOWQ61S","3UUIU9GZC5R93N292LT21FRJ9VS5TN","","null","<img src=""img/flower3.png"" style=""width:200px; border:14px solid green;"">","null","","","","","","","","",""
"","image-keyboard-response","216","139096","0.0-216.0","3X66WABAJX446NRTV4B4CIAYDN43GM","A30RAYNDOWQ61S","3UUIU9GZC5R93N292LT21FRJ9VS5TN","","561.6999999880791","img/flower1.png","76","562.0999999642372","3","1","2","1","1,0.333,0.333,0.333,1,0.333,0.333,0.333,1","1,0.333,0.333,0.333,1,0.333,0.333,0.333,1","1",""
"","html-keyboard-response","217","139398","0.0-217.0","3X66WABAJX446NRTV4B4CIAYDN43GM","A30RAYNDOWQ61S","3UUIU9GZC5R93N292LT21FRJ9VS5TN","","null","<img src=""img/flower1.png"" style=""width:200px; border:14px solid green;"">","null","","","","","","","","",""
"","image-keyboard-response","218","139944","0.0-218.0","3X66WABAJX446NRTV4B4CIAYDN43GM","A30RAYNDOWQ61S","3UUIU9GZC5R93N292LT21FRJ9VS5TN","","546.3999999761581","img/flower5.png","75","546.8000000119209","2","0","3","1","1,0.333,0.333,0.333,1,0.333,0.333,0.333,1","1,0.333,0.333,0.333,1,0.333,0.333,0.333,1","1",""
"","html-keyboard-response","219","140246","0.0-219.0","3X66WABAJX446NRTV4B4CIAYDN43GM","A30RAYNDOWQ61S","3UUIU9GZC5R93N292LT21FRJ9VS5TN","","null","<img src=""img/flower5.png"" style=""width:200px;border:14px solid red;"">","null","","","","","","","","",""
"","image-keyboard-response","220","141072","0.0-220.0","3X66WABAJX446NRTV4B4CIAYDN43GM","A30RAYNDOWQ61S","3UUIU9GZC5R93N292LT21FRJ9VS5TN","","825.6999999880791","img/flower3.png","74","826.0999999642372","1","1","1","1","1,0.333,0.333,0.333,1,0.333,0.333,0.333,1","1,0.333,0.333,0.333,1,0.333,0.333,0.333,1","1",""
"","html-keyboard-response","221","141373","0.0-221.0","3X66WABAJX446NRTV4B4CIAYDN43GM","A30RAYNDOWQ61S","3UUIU9GZC5R93N292LT21FRJ9VS5TN","","null","<img src=""img/flower3.png"" style=""width:200px; border:14px solid green;"">","null","","","","","","","","",""
"","image-keyboard-response","222","141808","0.0-222.0","3X66WABAJX446NRTV4B4CIAYDN43GM","A30RAYNDOWQ61S","3UUIU9GZC5R93N292LT21FRJ9VS5TN","","434.2000000476837","img/flower3.png","74","434.5999999642372","1","1","1","1","1,0.333,0.333,0.333,1,0.333,0.333,0.333,1","1,0.333,0.333,0.333,1,0.333,0.333,0.333,1","1",""
"","html-keyboard-response","223","142110","0.0-223.0","3X66WABAJX446NRTV4B4CIAYDN43GM","A30RAYNDOWQ61S","3UUIU9GZC5R93N292LT21FRJ9VS5TN","","null","<img src=""img/flower3.png"" style=""width:200px; border:14px solid green;"">","null","","","","","","","","",""
"","image-keyboard-response","224","142528","0.0-224.0","3X66WABAJX446NRTV4B4CIAYDN43GM","A30RAYNDOWQ61S","3UUIU9GZC5R93N292LT21FRJ9VS5TN","","417.5","img/flower3.png","74","418.19999998807907","1","1","1","1","1,0.333,0.333,0.333,1,0.333,0.333,0.333,1","1,0.333,0.333,0.333,1,0.333,0.333,0.333,1","1",""
"","html-keyboard-response","225","142830","0.0-225.0","3X66WABAJX446NRTV4B4CIAYDN43GM","A30RAYNDOWQ61S","3UUIU9GZC5R93N292LT21FRJ9VS5TN","","null","<img src=""img/flower3.png"" style=""width:200px; border:14px solid green;"">","null","","","","","","","","",""
"","image-keyboard-response","226","143312","0.0-226.0","3X66WABAJX446NRTV4B4CIAYDN43GM","A30RAYNDOWQ61S","3UUIU9GZC5R93N292LT21FRJ9VS5TN","","481.2999999523163","img/flower5.png","76","481.80000001192093","3","1","3","1","1,0.333,0.333,0.333,1,0.333,0.333,0.333,1","1,0.333,0.333,0.333,1,0.333,0.333,0.333,1","1",""
"","html-keyboard-response","227","143613","0.0-227.0","3X66WABAJX446NRTV4B4CIAYDN43GM","A30RAYNDOWQ61S","3UUIU9GZC5R93N292LT21FRJ9VS5TN","","null","<img src=""img/flower5.png"" style=""width:200px; border:14px solid green;"">","null","","","","","","","","",""
"","image-keyboard-response","228","143984","0.0-228.0","3X66WABAJX446NRTV4B4CIAYDN43GM","A30RAYNDOWQ61S","3UUIU9GZC5R93N292LT21FRJ9VS5TN","","370.9000000357628","img/flower5.png","76","371.2999999523163","3","1","3","1","1,0.333,0.333,0.333,1,0.333,0.333,0.333,1","1,0.333,0.333,0.333,1,0.333,0.333,0.333,1","1",""
"","html-keyboard-response","229","144285","0.0-229.0","3X66WABAJX446NRTV4B4CIAYDN43GM","A30RAYNDOWQ61S","3UUIU9GZC5R93N292LT21FRJ9VS5TN","","null","<img src=""img/flower5.png"" style=""width:200px; border:14px solid green;"">","null","","","","","","","","",""
"","image-keyboard-response","230","144729","0.0-230.0","3X66WABAJX446NRTV4B4CIAYDN43GM","A30RAYNDOWQ61S","3UUIU9GZC5R93N292LT21FRJ9VS5TN","","442.60000002384186","img/flower5.png","76","443","3","1","3","1","1,0.333,0.333,0.333,1,0.333,0.333,0.333,1","1,0.333,0.333,0.333,1,0.333,0.333,0.333,1","1",""
"","html-keyboard-response","231","145030","0.0-231.0","3X66WABAJX446NRTV4B4CIAYDN43GM","A30RAYNDOWQ61S","3UUIU9GZC5R93N292LT21FRJ9VS5TN","","null","<img src=""img/flower5.png"" style=""width:200px; border:14px solid green;"">","null","","","","","","","","",""
"","image-keyboard-response","232","145384","0.0-232.0","3X66WABAJX446NRTV4B4CIAYDN43GM","A30RAYNDOWQ61S","3UUIU9GZC5R93N292LT21FRJ9VS5TN","","353.39999997615814","img/flower5.png","76","353.89999997615814","3","1","3","1","1,0.333,0.333,0.333,1,0.333,0.333,0.333,1","1,0.333,0.333,0.333,1,0.333,0.333,0.333,1","1",""
"","html-keyboard-response","233","145686","0.0-233.0","3X66WABAJX446NRTV4B4CIAYDN43GM","A30RAYNDOWQ61S","3UUIU9GZC5R93N292LT21FRJ9VS5TN","","null","<img src=""img/flower5.png"" style=""width:200px; border:14px solid green;"">","null","","","","","","","","",""
"","image-keyboard-response","234","146064","0.0-234.0","3X66WABAJX446NRTV4B4CIAYDN43GM","A30RAYNDOWQ61S","3UUIU9GZC5R93N292LT21FRJ9VS5TN","","378.19999998807907","img/flower5.png","76","378.7000000476837","3","1","3","1","1,0.333,0.333,0.333,1,0.333,0.333,0.333,1","1,0.333,0.333,0.333,1,0.333,0.333,0.333,1","1",""
"","html-keyboard-response","235","146366","0.0-235.0","3X66WABAJX446NRTV4B4CIAYDN43GM","A30RAYNDOWQ61S","3UUIU9GZC5R93N292LT21FRJ9VS5TN","","null","<img src=""img/flower5.png"" style=""width:200px; border:14px solid green;"">","null","","","","","","","","",""
"","image-keyboard-response","236","146745","0.0-236.0","3X66WABAJX446NRTV4B4CIAYDN43GM","A30RAYNDOWQ61S","3UUIU9GZC5R93N292LT21FRJ9VS5TN","","378.10000002384186","img/flower5.png","76","378.5","3","1","3","1","1,0.333,0.333,0.333,1,0.333,0.333,0.333,1","1,0.333,0.333,0.333,1,0.333,0.333,0.333,1","1",""
"","html-keyboard-response","237","147046","0.0-237.0","3X66WABAJX446NRTV4B4CIAYDN43GM","A30RAYNDOWQ61S","3UUIU9GZC5R93N292LT21FRJ9VS5TN","","null","<img src=""img/flower5.png"" style=""width:200px; border:14px solid green;"">","null","","","","","","","","",""
"","image-keyboard-response","238","147592","0.0-238.0","3X66WABAJX446NRTV4B4CIAYDN43GM","A30RAYNDOWQ61S","3UUIU9GZC5R93N292LT21FRJ9VS5TN","","545.6000000238419","img/flower1.png","75","546.1000000238419","2","1","2","1","1,0.333,0.333,0.333,1,0.333,0.333,0.333,1","1,0.333,0.333,0.333,1,0.333,0.333,0.333,1","1",""
"","html-keyboard-response","239","147893","0.0-239.0","3X66WABAJX446NRTV4B4CIAYDN43GM","A30RAYNDOWQ61S","3UUIU9GZC5R93N292LT21FRJ9VS5TN","","null","<img src=""img/flower1.png"" style=""width:200px; border:14px solid green;"">","null","","","","","","","","",""
"","image-keyboard-response","240","148184","0.0-240.0","3X66WABAJX446NRTV4B4CIAYDN43GM","A30RAYNDOWQ61S","3UUIU9GZC5R93N292LT21FRJ9VS5TN","","290.30000001192093","img/flower1.png","75","290.69999998807907","2","1","2","1","1,0.333,0.333,0.333,1,0.333,0.333,0.333,1","1,0.333,0.333,0.333,1,0.333,0.333,0.333,1","1",""
"","html-keyboard-response","241","148485","0.0-241.0","3X66WABAJX446NRTV4B4CIAYDN43GM","A30RAYNDOWQ61S","3UUIU9GZC5R93N292LT21FRJ9VS5TN","","null","<img src=""img/flower1.png"" style=""width:200px; border:14px solid green;"">","null","","","","","","","","",""
"","image-keyboard-response","242","148784","0.0-242.0","3X66WABAJX446NRTV4B4CIAYDN43GM","A30RAYNDOWQ61S","3UUIU9GZC5R93N292LT21FRJ9VS5TN","","299.0999999642372","img/flower1.png","75","299.60000002384186","2","1","2","1","1,0.333,0.333,0.333,1,0.333,0.333,0.333,1","1,0.333,0.333,0.333,1,0.333,0.333,0.333,1","1",""
"","html-keyboard-response","243","149086","0.0-243.0","3X66WABAJX446NRTV4B4CIAYDN43GM","A30RAYNDOWQ61S","3UUIU9GZC5R93N292LT21FRJ9VS5TN","","null","<img src=""img/flower1.png"" style=""width:200px; border:14px solid green;"">","null","","","","","","","","",""
"","image-keyboard-response","244","149448","0.0-244.0","3X66WABAJX446NRTV4B4CIAYDN43GM","A30RAYNDOWQ61S","3UUIU9GZC5R93N292LT21FRJ9VS5TN","","361.39999997615814","img/flower1.png","75","361.89999997615814","2","1","2","1","1,0.333,0.333,0.333,1,0.333,0.333,0.333,1","1,0.333,0.333,0.333,1,0.333,0.333,0.333,1","1",""
"","html-keyboard-response","245","149749","0.0-245.0","3X66WABAJX446NRTV4B4CIAYDN43GM","A30RAYNDOWQ61S","3UUIU9GZC5R93N292LT21FRJ9VS5TN","","null","<img src=""img/flower1.png"" style=""width:200px; border:14px solid green;"">","null","","","","","","","","",""
"","image-keyboard-response","246","150304","0.0-246.0","3X66WABAJX446NRTV4B4CIAYDN43GM","A30RAYNDOWQ61S","3UUIU9GZC5R93N292LT21FRJ9VS5TN","","553.8000000119209","img/flower5.png","76","554.2999999523163","3","1","3","1","1,0.333,0.333,0.333,1,0.333,0.333,0.333,1","1,0.333,0.333,0.333,1,0.333,0.333,0.333,1","1",""
"","html-keyboard-response","247","150604","0.0-247.0","3X66WABAJX446NRTV4B4CIAYDN43GM","A30RAYNDOWQ61S","3UUIU9GZC5R93N292LT21FRJ9VS5TN","","null","<img src=""img/flower5.png"" style=""width:200px; border:14px solid green;"">","null","","","","","","","","",""
"","image-keyboard-response","248","150848","0.0-248.0","3X66WABAJX446NRTV4B4CIAYDN43GM","A30RAYNDOWQ61S","3UUIU9GZC5R93N292LT21FRJ9VS5TN","","243","img/flower3.png","76","243.39999997615814","3","1","1","1","1,0.333,0.333,0.333,1,0.333,0.333,0.333,1","1,0.333,0.333,0.333,1,0.333,0.333,0.333,1","1",""
"","html-keyboard-response","249","151149","0.0-249.0","3X66WABAJX446NRTV4B4CIAYDN43GM","A30RAYNDOWQ61S","3UUIU9GZC5R93N292LT21FRJ9VS5TN","","null","<img src=""img/flower3.png"" style=""width:200px; border:14px solid green;"">","null","","","","","","","","",""
"","image-keyboard-response","250","151673","0.0-250.0","3X66WABAJX446NRTV4B4CIAYDN43GM","A30RAYNDOWQ61S","3UUIU9GZC5R93N292LT21FRJ9VS5TN","","523.5","img/flower3.png","76","524","3","0","1","1","1,0.333,0.333,0.333,1,0.333,0.333,0.333,1","1,0.333,0.333,0.333,1,0.333,0.333,0.333,1","1",""
"","html-keyboard-response","251","151975","0.0-251.0","3X66WABAJX446NRTV4B4CIAYDN43GM","A30RAYNDOWQ61S","3UUIU9GZC5R93N292LT21FRJ9VS5TN","","null","<img src=""img/flower3.png"" style=""width:200px;border:14px solid red;"">","null","","","","","","","","",""
"","image-keyboard-response","252","152800","0.0-252.0","3X66WABAJX446NRTV4B4CIAYDN43GM","A30RAYNDOWQ61S","3UUIU9GZC5R93N292LT21FRJ9VS5TN","","825.5","img/flower5.png","75","825.8999999761581","2","0","3","1","1,0.333,0.333,0.333,1,0.333,0.333,0.333,1","1,0.333,0.333,0.333,1,0.333,0.333,0.333,1","1",""
"","html-keyboard-response","253","153102","0.0-253.0","3X66WABAJX446NRTV4B4CIAYDN43GM","A30RAYNDOWQ61S","3UUIU9GZC5R93N292LT21FRJ9VS5TN","","null","<img src=""img/flower5.png"" style=""width:200px;border:14px solid red;"">","null","","","","","","","","",""
"","image-keyboard-response","254","153816","0.0-254.0","3X66WABAJX446NRTV4B4CIAYDN43GM","A30RAYNDOWQ61S","3UUIU9GZC5R93N292LT21FRJ9VS5TN","","714.3999999761581","img/flower3.png","74","714.8999999761581","1","1","1","1","1,0.333,0.333,0.333,1,0.333,0.333,0.333,1","1,0.333,0.333,0.333,1,0.333,0.333,0.333,1","1",""
"","html-keyboard-response","255","154118","0.0-255.0","3X66WABAJX446NRTV4B4CIAYDN43GM","A30RAYNDOWQ61S","3UUIU9GZC5R93N292LT21FRJ9VS5TN","","null","<img src=""img/flower3.png"" style=""width:200px; border:14px solid green;"">","null","","","","","","","","",""
"","image-keyboard-response","256","154512","0.0-256.0","3X66WABAJX446NRTV4B4CIAYDN43GM","A30RAYNDOWQ61S","3UUIU9GZC5R93N292LT21FRJ9VS5TN","","393.80000001192093","img/flower3.png","74","394.30000001192093","1","1","1","1","1,0.333,0.333,0.333,1,0.333,0.333,0.333,1","1,0.333,0.333,0.333,1,0.333,0.333,0.333,1","1",""
"","html-keyboard-response","257","154814","0.0-257.0","3X66WABAJX446NRTV4B4CIAYDN43GM","A30RAYNDOWQ61S","3UUIU9GZC5R93N292LT21FRJ9VS5TN","","null","<img src=""img/flower3.png"" style=""width:200px; border:14px solid green;"">","null","","","","","","","","",""
"","image-keyboard-response","258","155128","0.0-258.0","3X66WABAJX446NRTV4B4CIAYDN43GM","A30RAYNDOWQ61S","3UUIU9GZC5R93N292LT21FRJ9VS5TN","","313.80000001192093","img/flower3.png","74","314.4000000357628","1","1","1","1","1,0.333,0.333,0.333,1,0.333,0.333,0.333,1","1,0.333,0.333,0.333,1,0.333,0.333,0.333,1","1",""
"","html-keyboard-response","259","155429","0.0-259.0","3X66WABAJX446NRTV4B4CIAYDN43GM","A30RAYNDOWQ61S","3UUIU9GZC5R93N292LT21FRJ9VS5TN","","null","<img src=""img/flower3.png"" style=""width:200px; border:14px solid green;"">","null","","","","","","","","",""
"","image-keyboard-response","260","156032","0.0-260.0","3X66WABAJX446NRTV4B4CIAYDN43GM","A30RAYNDOWQ61S","3UUIU9GZC5R93N292LT21FRJ9VS5TN","","602.3000000119209","img/flower5.png","76","602.6999999880791","3","1","3","1","1,0.333,0.333,0.333,1,0.333,0.333,0.333,1","1,0.333,0.333,0.333,1,0.333,0.333,0.333,1","1",""
"","html-keyboard-response","261","156334","0.0-261.0","3X66WABAJX446NRTV4B4CIAYDN43GM","A30RAYNDOWQ61S","3UUIU9GZC5R93N292LT21FRJ9VS5TN","","null","<img src=""img/flower5.png"" style=""width:200px; border:14px solid green;"">","null","","","","","","","","",""
"","image-keyboard-response","262","157184","0.0-262.0","3X66WABAJX446NRTV4B4CIAYDN43GM","A30RAYNDOWQ61S","3UUIU9GZC5R93N292LT21FRJ9VS5TN","","849.8000000119209","img/flower3.png","74","850.4000000357628","1","1","1","1","1,0.333,0.333,0.333,1,0.333,0.333,0.333,1","1,0.333,0.333,0.333,1,0.333,0.333,0.333,1","1",""
"","html-keyboard-response","263","157486","0.0-263.0","3X66WABAJX446NRTV4B4CIAYDN43GM","A30RAYNDOWQ61S","3UUIU9GZC5R93N292LT21FRJ9VS5TN","","null","<img src=""img/flower3.png"" style=""width:200px; border:14px solid green;"">","null","","","","","","","","",""
"","image-keyboard-response","264","157696","0.0-264.0","3X66WABAJX446NRTV4B4CIAYDN43GM","A30RAYNDOWQ61S","3UUIU9GZC5R93N292LT21FRJ9VS5TN","","209.19999998807907","img/flower1.png","74","209.60000002384186","1","1","2","1","1,0.333,0.333,0.333,1,0.333,0.333,0.333,1","1,0.333,0.333,0.333,1,0.333,0.333,0.333,1","1",""
"","html-keyboard-response","265","157997","0.0-265.0","3X66WABAJX446NRTV4B4CIAYDN43GM","A30RAYNDOWQ61S","3UUIU9GZC5R93N292LT21FRJ9VS5TN","","null","<img src=""img/flower1.png"" style=""width:200px; border:14px solid green;"">","null","","","","","","","","",""
"","image-keyboard-response","266","158785","0.0-266.0","3X66WABAJX446NRTV4B4CIAYDN43GM","A30RAYNDOWQ61S","3UUIU9GZC5R93N292LT21FRJ9VS5TN","","786.8000000119209","img/flower5.png","74","787.1999999880791","1","1","3","1","1,0.333,0.333,0.333,1,0.333,0.333,0.333,1","1,0.333,0.333,0.333,1,0.333,0.333,0.333,1","1",""
"","html-keyboard-response","267","159086","0.0-267.0","3X66WABAJX446NRTV4B4CIAYDN43GM","A30RAYNDOWQ61S","3UUIU9GZC5R93N292LT21FRJ9VS5TN","","null","<img src=""img/flower5.png"" style=""width:200px; border:14px solid green;"">","null","","","","","","","","",""
"","image-keyboard-response","268","159665","0.0-268.0","3X66WABAJX446NRTV4B4CIAYDN43GM","A30RAYNDOWQ61S","3UUIU9GZC5R93N292LT21FRJ9VS5TN","","577.2999999523163","img/flower1.png","74","578","1","1","2","1","1,0.333,0.333,0.333,1,0.333,0.333,0.333,1","1,0.333,0.333,0.333,1,0.333,0.333,0.333,1","1",""
"","html-keyboard-response","269","159967","0.0-269.0","3X66WABAJX446NRTV4B4CIAYDN43GM","A30RAYNDOWQ61S","3UUIU9GZC5R93N292LT21FRJ9VS5TN","","null","<img src=""img/flower1.png"" style=""width:200px; border:14px solid green;"">","null","","","","","","","","",""
"","image-keyboard-response","270","160328","0.0-270.0","3X66WABAJX446NRTV4B4CIAYDN43GM","A30RAYNDOWQ61S","3UUIU9GZC5R93N292LT21FRJ9VS5TN","","360.89999997615814","img/flower1.png","74","361.60000002384186","1","0","2","1","1,0.333,0.333,0.333,1,0.333,0.333,0.333,1","1,0.333,0.333,0.333,1,0.333,0.333,0.333,1","1",""
"","html-keyboard-response","271","160630","0.0-271.0","3X66WABAJX446NRTV4B4CIAYDN43GM","A30RAYNDOWQ61S","3UUIU9GZC5R93N292LT21FRJ9VS5TN","","null","<img src=""img/flower1.png"" style=""width:200px;border:14px solid red;"">","null","","","","","","","","",""
"","image-keyboard-response","272","161529","0.0-272.0","3X66WABAJX446NRTV4B4CIAYDN43GM","A30RAYNDOWQ61S","3UUIU9GZC5R93N292LT21FRJ9VS5TN","","898.1999999880791","img/flower3.png","74","898.5999999642372","1","1","1","1","1,0.333,0.333,0.333,1,0.333,0.333,0.333,1","1,0.333,0.333,0.333,1,0.333,0.333,0.333,1","1",""
"","html-keyboard-response","273","161830","0.0-273.0","3X66WABAJX446NRTV4B4CIAYDN43GM","A30RAYNDOWQ61S","3UUIU9GZC5R93N292LT21FRJ9VS5TN","","null","<img src=""img/flower3.png"" style=""width:200px; border:14px solid green;"">","null","","","","","","","","",""
"","image-keyboard-response","274","162320","0.0-274.0","3X66WABAJX446NRTV4B4CIAYDN43GM","A30RAYNDOWQ61S","3UUIU9GZC5R93N292LT21FRJ9VS5TN","","490.2999999523163","img/flower1.png","76","490.80000001192093","3","0","2","1","1,0.333,0.333,0.333,1,0.333,0.333,0.333,1","1,0.333,0.333,0.333,1,0.333,0.333,0.333,1","1",""
"","html-keyboard-response","275","162622","0.0-275.0","3X66WABAJX446NRTV4B4CIAYDN43GM","A30RAYNDOWQ61S","3UUIU9GZC5R93N292LT21FRJ9VS5TN","","null","<img src=""img/flower1.png"" style=""width:200px;border:14px solid red;"">","null","","","","","","","","",""
"","image-keyboard-response","276","163056","0.0-276.0","3X66WABAJX446NRTV4B4CIAYDN43GM","A30RAYNDOWQ61S","3UUIU9GZC5R93N292LT21FRJ9VS5TN","","433","img/flower1.png","75","433.5999999642372","2","1","2","1","1,0.333,0.333,0.333,1,0.333,0.333,0.333,1","1,0.333,0.333,0.333,1,0.333,0.333,0.333,1","1",""
"","html-keyboard-response","277","163358","0.0-277.0","3X66WABAJX446NRTV4B4CIAYDN43GM","A30RAYNDOWQ61S","3UUIU9GZC5R93N292LT21FRJ9VS5TN","","null","<img src=""img/flower1.png"" style=""width:200px; border:14px solid green;"">","null","","","","","","","","",""
"","image-keyboard-response","278","163928","0.0-278.0","3X66WABAJX446NRTV4B4CIAYDN43GM","A30RAYNDOWQ61S","3UUIU9GZC5R93N292LT21FRJ9VS5TN","","569.8000000119209","img/flower5.png","76","570.1000000238419","3","1","3","1","1,0.333,0.333,0.333,1,0.333,0.333,0.333,1","1,0.333,0.333,0.333,1,0.333,0.333,0.333,1","1",""
"","html-keyboard-response","279","164229","0.0-279.0","3X66WABAJX446NRTV4B4CIAYDN43GM","A30RAYNDOWQ61S","3UUIU9GZC5R93N292LT21FRJ9VS5TN","","null","<img src=""img/flower5.png"" style=""width:200px; border:14px solid green;"">","null","","","","","","","","",""
"","image-keyboard-response","280","164544","0.0-280.0","3X66WABAJX446NRTV4B4CIAYDN43GM","A30RAYNDOWQ61S","3UUIU9GZC5R93N292LT21FRJ9VS5TN","","314.9000000357628","img/flower5.png","76","315.30000001192093","3","1","3","1","1,0.333,0.333,0.333,1,0.333,0.333,0.333,1","1,0.333,0.333,0.333,1,0.333,0.333,0.333,1","1",""
"","html-keyboard-response","281","164845","0.0-281.0","3X66WABAJX446NRTV4B4CIAYDN43GM","A30RAYNDOWQ61S","3UUIU9GZC5R93N292LT21FRJ9VS5TN","","null","<img src=""img/flower5.png"" style=""width:200px; border:14px solid green;"">","null","","","","","","","","",""
"","image-keyboard-response","282","165312","0.0-282.0","3X66WABAJX446NRTV4B4CIAYDN43GM","A30RAYNDOWQ61S","3UUIU9GZC5R93N292LT21FRJ9VS5TN","","465.89999997615814","img/flower3.png","75","466.19999998807907","2","0","1","1","1,0.333,0.333,0.333,1,0.333,0.333,0.333,1","1,0.333,0.333,0.333,1,0.333,0.333,0.333,1","1",""
"","html-keyboard-response","283","165614","0.0-283.0","3X66WABAJX446NRTV4B4CIAYDN43GM","A30RAYNDOWQ61S","3UUIU9GZC5R93N292LT21FRJ9VS5TN","","null","<img src=""img/flower3.png"" style=""width:200px;border:14px solid red;"">","null","","","","","","","","",""
"","image-keyboard-response","284","165824","0.0-284.0","3X66WABAJX446NRTV4B4CIAYDN43GM","A30RAYNDOWQ61S","3UUIU9GZC5R93N292LT21FRJ9VS5TN","","209.70000004768372","img/flower5.png","74","210.10000002384186","1","0","3","1","1,0.333,0.333,0.333,1,0.333,0.333,0.333,1","1,0.333,0.333,0.333,1,0.333,0.333,0.333,1","1",""
"","html-keyboard-response","285","166125","0.0-285.0","3X66WABAJX446NRTV4B4CIAYDN43GM","A30RAYNDOWQ61S","3UUIU9GZC5R93N292LT21FRJ9VS5TN","","null","<img src=""img/flower5.png"" style=""width:200px;border:14px solid red;"">","null","","","","","","","","",""
"","image-keyboard-response","286","166576","0.0-286.0","3X66WABAJX446NRTV4B4CIAYDN43GM","A30RAYNDOWQ61S","3UUIU9GZC5R93N292LT21FRJ9VS5TN","","450.39999997615814","img/flower3.png","76","450.89999997615814","3","0","1","1","1,0.333,0.333,0.333,1,0.333,0.333,0.333,1","1,0.333,0.333,0.333,1,0.333,0.333,0.333,1","1",""
"","html-keyboard-response","287","166890","0.0-287.0","3X66WABAJX446NRTV4B4CIAYDN43GM","A30RAYNDOWQ61S","3UUIU9GZC5R93N292LT21FRJ9VS5TN","","null","<img src=""img/flower3.png"" style=""width:200px;border:14px solid red;"">","null","","","","","","","","",""
"","image-keyboard-response","288","167737","0.0-288.0","3X66WABAJX446NRTV4B4CIAYDN43GM","A30RAYNDOWQ61S","3UUIU9GZC5R93N292LT21FRJ9VS5TN","","846.4000000357628","img/flower5.png","76","847","3","1","3","1","1,0.333,0.333,0.333,1,0.333,0.333,0.333,1","1,0.333,0.333,0.333,1,0.333,0.333,0.333,1","1",""
"","html-keyboard-response","289","168038","0.0-289.0","3X66WABAJX446NRTV4B4CIAYDN43GM","A30RAYNDOWQ61S","3UUIU9GZC5R93N292LT21FRJ9VS5TN","","null","<img src=""img/flower5.png"" style=""width:200px; border:14px solid green;"">","null","","","","","","","","",""
"","image-keyboard-response","290","168896","0.0-290.0","3X66WABAJX446NRTV4B4CIAYDN43GM","A30RAYNDOWQ61S","3UUIU9GZC5R93N292LT21FRJ9VS5TN","","857","img/flower1.png","75","857.5","2","1","2","1","1,0.333,0.333,0.333,1,0.333,0.333,0.333,1","1,0.333,0.333,0.333,1,0.333,0.333,0.333,1","1",""
"","html-keyboard-response","291","169197","0.0-291.0","3X66WABAJX446NRTV4B4CIAYDN43GM","A30RAYNDOWQ61S","3UUIU9GZC5R93N292LT21FRJ9VS5TN","","null","<img src=""img/flower1.png"" style=""width:200px; border:14px solid green;"">","null","","","","","","","","",""
"","image-keyboard-response","292","169640","0.0-292.0","3X66WABAJX446NRTV4B4CIAYDN43GM","A30RAYNDOWQ61S","3UUIU9GZC5R93N292LT21FRJ9VS5TN","","442.5999999642372","img/flower5.png","76","443.10000002384186","3","1","3","1","1,0.333,0.333,0.333,1,0.333,0.333,0.333,1","1,0.333,0.333,0.333,1,0.333,0.333,0.333,1","1",""
"","html-keyboard-response","293","169941","0.0-293.0","3X66WABAJX446NRTV4B4CIAYDN43GM","A30RAYNDOWQ61S","3UUIU9GZC5R93N292LT21FRJ9VS5TN","","null","<img src=""img/flower5.png"" style=""width:200px; border:14px solid green;"">","null","","","","","","","","",""
"","image-keyboard-response","294","170536","0.0-294.0","3X66WABAJX446NRTV4B4CIAYDN43GM","A30RAYNDOWQ61S","3UUIU9GZC5R93N292LT21FRJ9VS5TN","","594.6999999880791","img/flower1.png","75","595.2000000476837","2","1","2","1","1,0.333,0.333,0.333,1,0.333,0.333,0.333,1","1,0.333,0.333,0.333,1,0.333,0.333,0.333,1","1",""
"","html-keyboard-response","295","170837","0.0-295.0","3X66WABAJX446NRTV4B4CIAYDN43GM","A30RAYNDOWQ61S","3UUIU9GZC5R93N292LT21FRJ9VS5TN","","null","<img src=""img/flower1.png"" style=""width:200px; border:14px solid green;"">","null","","","","","","","","",""
"","image-keyboard-response","296","171552","0.0-296.0","3X66WABAJX446NRTV4B4CIAYDN43GM","A30RAYNDOWQ61S","3UUIU9GZC5R93N292LT21FRJ9VS5TN","","713.8000000119209","img/flower3.png","74","714.1999999880791","1","1","1","1","1,0.333,0.333,0.333,1,0.333,0.333,0.333,1","1,0.333,0.333,0.333,1,0.333,0.333,0.333,1","1",""
"","html-keyboard-response","297","171853","0.0-297.0","3X66WABAJX446NRTV4B4CIAYDN43GM","A30RAYNDOWQ61S","3UUIU9GZC5R93N292LT21FRJ9VS5TN","","null","<img src=""img/flower3.png"" style=""width:200px; border:14px solid green;"">","null","","","","","","","","",""
"","image-keyboard-response","298","172504","0.0-298.0","3X66WABAJX446NRTV4B4CIAYDN43GM","A30RAYNDOWQ61S","3UUIU9GZC5R93N292LT21FRJ9VS5TN","","650","img/flower5.png","76","650.3000000119209","3","1","3","1","1,0.333,0.333,0.333,1,0.333,0.333,0.333,1","1,0.333,0.333,0.333,1,0.333,0.333,0.333,1","1",""
"","html-keyboard-response","299","172806","0.0-299.0","3X66WABAJX446NRTV4B4CIAYDN43GM","A30RAYNDOWQ61S","3UUIU9GZC5R93N292LT21FRJ9VS5TN","","null","<img src=""img/flower5.png"" style=""width:200px; border:14px solid green;"">","null","","","","","","","","",""
"","image-keyboard-response","300","173688","0.0-300.0","3X66WABAJX446NRTV4B4CIAYDN43GM","A30RAYNDOWQ61S","3UUIU9GZC5R93N292LT21FRJ9VS5TN","","881.6999999880791","img/flower1.png","74","882.3000000119209","1","1","2","1","1,0.333,0.333,0.333,1,0.333,0.333,0.333,1","1,0.333,0.333,0.333,1,0.333,0.333,0.333,1","1",""
"","html-keyboard-response","301","173989","0.0-301.0","3X66WABAJX446NRTV4B4CIAYDN43GM","A30RAYNDOWQ61S","3UUIU9GZC5R93N292LT21FRJ9VS5TN","","null","<img src=""img/flower1.png"" style=""width:200px; border:14px solid green;"">","null","","","","","","","","",""
"","image-keyboard-response","302","174728","0.0-302.0","3X66WABAJX446NRTV4B4CIAYDN43GM","A30RAYNDOWQ61S","3UUIU9GZC5R93N292LT21FRJ9VS5TN","","738.3000000119209","img/flower3.png","74","738.6999999880791","1","1","1","1","1,0.333,0.333,0.333,1,0.333,0.333,0.333,1","1,0.333,0.333,0.333,1,0.333,0.333,0.333,1","1",""
"","html-keyboard-response","303","175029","0.0-303.0","3X66WABAJX446NRTV4B4CIAYDN43GM","A30RAYNDOWQ61S","3UUIU9GZC5R93N292LT21FRJ9VS5TN","","null","<img src=""img/flower3.png"" style=""width:200px; border:14px solid green;"">","null","","","","","","","","",""
"","image-keyboard-response","304","175800","0.0-304.0","3X66WABAJX446NRTV4B4CIAYDN43GM","A30RAYNDOWQ61S","3UUIU9GZC5R93N292LT21FRJ9VS5TN","","770.2999999523163","img/flower1.png","74","770.8000000119209","1","0","2","1","1,0.333,0.333,0.333,1,0.333,0.333,0.333,1","1,0.333,0.333,0.333,1,0.333,0.333,0.333,1","1",""
"","html-keyboard-response","305","176101","0.0-305.0","3X66WABAJX446NRTV4B4CIAYDN43GM","A30RAYNDOWQ61S","3UUIU9GZC5R93N292LT21FRJ9VS5TN","","null","<img src=""img/flower1.png"" style=""width:200px;border:14px solid red;"">","null","","","","","","","","",""
"","image-keyboard-response","306","176696","0.0-306.0","3X66WABAJX446NRTV4B4CIAYDN43GM","A30RAYNDOWQ61S","3UUIU9GZC5R93N292LT21FRJ9VS5TN","","594.5999999642372","img/flower5.png","76","595","3","1","3","1","1,0.333,0.333,0.333,1,0.333,0.333,0.333,1","1,0.333,0.333,0.333,1,0.333,0.333,0.333,1","1",""
"","html-keyboard-response","307","176997","0.0-307.0","3X66WABAJX446NRTV4B4CIAYDN43GM","A30RAYNDOWQ61S","3UUIU9GZC5R93N292LT21FRJ9VS5TN","","null","<img src=""img/flower5.png"" style=""width:200px; border:14px solid green;"">","null","","","","","","","","",""
"","image-keyboard-response","308","177744","0.0-308.0","3X66WABAJX446NRTV4B4CIAYDN43GM","A30RAYNDOWQ61S","3UUIU9GZC5R93N292LT21FRJ9VS5TN","","746.1000000238419","img/flower1.png","75","746.5999999642372","2","1","2","1","1,0.333,0.333,0.333,1,0.333,0.333,0.333,1","1,0.333,0.333,0.333,1,0.333,0.333,0.333,1","1",""
"","html-keyboard-response","309","178045","0.0-309.0","3X66WABAJX446NRTV4B4CIAYDN43GM","A30RAYNDOWQ61S","3UUIU9GZC5R93N292LT21FRJ9VS5TN","","null","<img src=""img/flower1.png"" style=""width:200px; border:14px solid green;"">","null","","","","","","","","",""
"","image-keyboard-response","310","178456","0.0-310.0","3X66WABAJX446NRTV4B4CIAYDN43GM","A30RAYNDOWQ61S","3UUIU9GZC5R93N292LT21FRJ9VS5TN","","410.80000001192093","img/flower1.png","75","411.19999998807907","2","1","2","1","1,0.333,0.333,0.333,1,0.333,0.333,0.333,1","1,0.333,0.333,0.333,1,0.333,0.333,0.333,1","1",""
"","html-keyboard-response","311","178757","0.0-311.0","3X66WABAJX446NRTV4B4CIAYDN43GM","A30RAYNDOWQ61S","3UUIU9GZC5R93N292LT21FRJ9VS5TN","","null","<img src=""img/flower1.png"" style=""width:200px; border:14px solid green;"">","null","","","","","","","","",""
"","image-keyboard-response","312","179240","0.0-312.0","3X66WABAJX446NRTV4B4CIAYDN43GM","A30RAYNDOWQ61S","3UUIU9GZC5R93N292LT21FRJ9VS5TN","","482.4000000357628","img/flower5.png","76","483","3","1","3","1","1,0.333,0.333,0.333,1,0.333,0.333,0.333,1","1,0.333,0.333,0.333,1,0.333,0.333,0.333,1","1",""
"","html-keyboard-response","313","179541","0.0-313.0","3X66WABAJX446NRTV4B4CIAYDN43GM","A30RAYNDOWQ61S","3UUIU9GZC5R93N292LT21FRJ9VS5TN","","null","<img src=""img/flower5.png"" style=""width:200px; border:14px solid green;"">","null","","","","","","","","",""
"","image-keyboard-response","314","179944","0.0-314.0","3X66WABAJX446NRTV4B4CIAYDN43GM","A30RAYNDOWQ61S","3UUIU9GZC5R93N292LT21FRJ9VS5TN","","402.30000001192093","img/flower5.png","76","402.60000002384186","3","1","3","1","1,0.333,0.333,0.333,1,0.333,0.333,0.333,1","1,0.333,0.333,0.333,1,0.333,0.333,0.333,1","1",""
"","html-keyboard-response","315","180245","0.0-315.0","3X66WABAJX446NRTV4B4CIAYDN43GM","A30RAYNDOWQ61S","3UUIU9GZC5R93N292LT21FRJ9VS5TN","","null","<img src=""img/flower5.png"" style=""width:200px; border:14px solid green;"">","null","","","","","","","","",""
"","image-keyboard-response","316","180688","0.0-316.0","3X66WABAJX446NRTV4B4CIAYDN43GM","A30RAYNDOWQ61S","3UUIU9GZC5R93N292LT21FRJ9VS5TN","","443.19999998807907","img/flower5.png","76","443.5","3","1","3","1","1,0.333,0.333,0.333,1,0.333,0.333,0.333,1","1,0.333,0.333,0.333,1,0.333,0.333,0.333,1","1",""
"","html-keyboard-response","317","180990","0.0-317.0","3X66WABAJX446NRTV4B4CIAYDN43GM","A30RAYNDOWQ61S","3UUIU9GZC5R93N292LT21FRJ9VS5TN","","null","<img src=""img/flower5.png"" style=""width:200px; border:14px solid green;"">","null","","","","","","","","",""
"","image-keyboard-response","318","181824","0.0-318.0","3X66WABAJX446NRTV4B4CIAYDN43GM","A30RAYNDOWQ61S","3UUIU9GZC5R93N292LT21FRJ9VS5TN","","833.3999999761581","img/flower3.png","74","833.9000000357628","1","1","1","1","1,0.333,0.333,0.333,1,0.333,0.333,0.333,1","1,0.333,0.333,0.333,1,0.333,0.333,0.333,1","1",""
"","html-keyboard-response","319","182124","0.0-319.0","3X66WABAJX446NRTV4B4CIAYDN43GM","A30RAYNDOWQ61S","3UUIU9GZC5R93N292LT21FRJ9VS5TN","","null","<img src=""img/flower3.png"" style=""width:200px; border:14px solid green;"">","null","","","","","","","","",""
"","image-keyboard-response","320","182480","0.0-320.0","3X66WABAJX446NRTV4B4CIAYDN43GM","A30RAYNDOWQ61S","3UUIU9GZC5R93N292LT21FRJ9VS5TN","","355.10000002384186","img/flower1.png","74","355.4000000357628","1","1","2","1","1,0.333,0.333,0.333,1,0.333,0.333,0.333,1","1,0.333,0.333,0.333,1,0.333,0.333,0.333,1","1",""
"","html-keyboard-response","321","182781","0.0-321.0","3X66WABAJX446NRTV4B4CIAYDN43GM","A30RAYNDOWQ61S","3UUIU9GZC5R93N292LT21FRJ9VS5TN","","null","<img src=""img/flower1.png"" style=""width:200px; border:14px solid green;"">","null","","","","","","","","",""
"","image-keyboard-response","322","183720","0.0-322.0","3X66WABAJX446NRTV4B4CIAYDN43GM","A30RAYNDOWQ61S","3UUIU9GZC5R93N292LT21FRJ9VS5TN","","937.9000000357628","img/flower3.png","74","938.3000000119209","1","1","1","1","1,0.333,0.333,0.333,1,0.333,0.333,0.333,1","1,0.333,0.333,0.333,1,0.333,0.333,0.333,1","1",""
"","html-keyboard-response","323","184021","0.0-323.0","3X66WABAJX446NRTV4B4CIAYDN43GM","A30RAYNDOWQ61S","3UUIU9GZC5R93N292LT21FRJ9VS5TN","","null","<img src=""img/flower3.png"" style=""width:200px; border:14px solid green;"">","null","","","","","","","","",""
"","image-keyboard-response","324","184752","0.0-324.0","3X66WABAJX446NRTV4B4CIAYDN43GM","A30RAYNDOWQ61S","3UUIU9GZC5R93N292LT21FRJ9VS5TN","","731.0999999642372","img/flower1.png","75","731.6000000238419","2","1","2","1","1,0.333,0.333,0.333,1,0.333,0.333,0.333,1","1,0.333,0.333,0.333,1,0.333,0.333,0.333,1","1",""
"","html-keyboard-response","325","185054","0.0-325.0","3X66WABAJX446NRTV4B4CIAYDN43GM","A30RAYNDOWQ61S","3UUIU9GZC5R93N292LT21FRJ9VS5TN","","null","<img src=""img/flower1.png"" style=""width:200px; border:14px solid green;"">","null","","","","","","","","",""
"","image-keyboard-response","326","185480","0.0-326.0","3X66WABAJX446NRTV4B4CIAYDN43GM","A30RAYNDOWQ61S","3UUIU9GZC5R93N292LT21FRJ9VS5TN","","426","img/flower1.png","75","426.5","2","1","2","1","1,0.333,0.333,0.333,1,0.333,0.333,0.333,1","1,0.333,0.333,0.333,1,0.333,0.333,0.333,1","1",""
"","html-keyboard-response","327","185782","0.0-327.0","3X66WABAJX446NRTV4B4CIAYDN43GM","A30RAYNDOWQ61S","3UUIU9GZC5R93N292LT21FRJ9VS5TN","","null","<img src=""img/flower1.png"" style=""width:200px; border:14px solid green;"">","null","","","","","","","","",""
"","image-keyboard-response","328","186104","0.0-328.0","3X66WABAJX446NRTV4B4CIAYDN43GM","A30RAYNDOWQ61S","3UUIU9GZC5R93N292LT21FRJ9VS5TN","","321.7000000476837","img/flower1.png","75","322.2999999523163","2","1","2","1","1,0.333,0.333,0.333,1,0.333,0.333,0.333,1","1,0.333,0.333,0.333,1,0.333,0.333,0.333,1","1",""
"","html-keyboard-response","329","186406","0.0-329.0","3X66WABAJX446NRTV4B4CIAYDN43GM","A30RAYNDOWQ61S","3UUIU9GZC5R93N292LT21FRJ9VS5TN","","null","<img src=""img/flower1.png"" style=""width:200px; border:14px solid green;"">","null","","","","","","","","",""
"","image-keyboard-response","330","186944","0.0-330.0","3X66WABAJX446NRTV4B4CIAYDN43GM","A30RAYNDOWQ61S","3UUIU9GZC5R93N292LT21FRJ9VS5TN","","538","img/flower3.png","74","538.3999999761581","1","1","1","1","1,0.333,0.333,0.333,1,0.333,0.333,0.333,1","1,0.333,0.333,0.333,1,0.333,0.333,0.333,1","1",""
"","html-keyboard-response","331","187245","0.0-331.0","3X66WABAJX446NRTV4B4CIAYDN43GM","A30RAYNDOWQ61S","3UUIU9GZC5R93N292LT21FRJ9VS5TN","","null","<img src=""img/flower3.png"" style=""width:200px; border:14px solid green;"">","null","","","","","","","","",""
"","image-keyboard-response","332","188104","0.0-332.0","3X66WABAJX446NRTV4B4CIAYDN43GM","A30RAYNDOWQ61S","3UUIU9GZC5R93N292LT21FRJ9VS5TN","","858.3000000119209","img/flower1.png","75","858.8000000119209","2","1","2","1","1,0.333,0.333,0.333,1,0.333,0.333,0.333,1","1,0.333,0.333,0.333,1,0.333,0.333,0.333,1","1",""
"","html-keyboard-response","333","188406","0.0-333.0","3X66WABAJX446NRTV4B4CIAYDN43GM","A30RAYNDOWQ61S","3UUIU9GZC5R93N292LT21FRJ9VS5TN","","null","<img src=""img/flower1.png"" style=""width:200px; border:14px solid green;"">","null","","","","","","","","",""
"","image-keyboard-response","334","188960","0.0-334.0","3X66WABAJX446NRTV4B4CIAYDN43GM","A30RAYNDOWQ61S","3UUIU9GZC5R93N292LT21FRJ9VS5TN","","553.8000000119209","img/flower3.png","74","554.1999999880791","1","1","1","1","1,0.333,0.333,0.333,1,0.333,0.333,0.333,1","1,0.333,0.333,0.333,1,0.333,0.333,0.333,1","1",""
"","html-keyboard-response","335","189262","0.0-335.0","3X66WABAJX446NRTV4B4CIAYDN43GM","A30RAYNDOWQ61S","3UUIU9GZC5R93N292LT21FRJ9VS5TN","","null","<img src=""img/flower3.png"" style=""width:200px; border:14px solid green;"">","null","","","","","","","","",""
"","image-keyboard-response","336","189705","0.0-336.0","3X66WABAJX446NRTV4B4CIAYDN43GM","A30RAYNDOWQ61S","3UUIU9GZC5R93N292LT21FRJ9VS5TN","","442.2000000476837","img/flower3.png","74","442.69999998807907","1","1","1","1","1,0.333,0.333,0.333,1,0.333,0.333,0.333,1","1,0.333,0.333,0.333,1,0.333,0.333,0.333,1","1",""
"","html-keyboard-response","337","190006","0.0-337.0","3X66WABAJX446NRTV4B4CIAYDN43GM","A30RAYNDOWQ61S","3UUIU9GZC5R93N292LT21FRJ9VS5TN","","null","<img src=""img/flower3.png"" style=""width:200px; border:14px solid green;"">","null","","","","","","","","",""
"","image-keyboard-response","338","190376","0.0-338.0","3X66WABAJX446NRTV4B4CIAYDN43GM","A30RAYNDOWQ61S","3UUIU9GZC5R93N292LT21FRJ9VS5TN","","369.10000002384186","img/flower3.png","74","369.5999999642372","1","1","1","1","1,0.333,0.333,0.333,1,0.333,0.333,0.333,1","1,0.333,0.333,0.333,1,0.333,0.333,0.333,1","1",""
"","html-keyboard-response","339","190678","0.0-339.0","3X66WABAJX446NRTV4B4CIAYDN43GM","A30RAYNDOWQ61S","3UUIU9GZC5R93N292LT21FRJ9VS5TN","","null","<img src=""img/flower3.png"" style=""width:200px; border:14px solid green;"">","null","","","","","","","","",""
"","image-keyboard-response","340","191328","0.0-340.0","3X66WABAJX446NRTV4B4CIAYDN43GM","A30RAYNDOWQ61S","3UUIU9GZC5R93N292LT21FRJ9VS5TN","","649.3000000119209","img/flower1.png","74","649.8000000119209","1","1","2","1","1,0.333,0.333,0.333,1,0.333,0.333,0.333,1","1,0.333,0.333,0.333,1,0.333,0.333,0.333,1","1",""
"","html-keyboard-response","341","191629","0.0-341.0","3X66WABAJX446NRTV4B4CIAYDN43GM","A30RAYNDOWQ61S","3UUIU9GZC5R93N292LT21FRJ9VS5TN","","null","<img src=""img/flower1.png"" style=""width:200px; border:14px solid green;"">","null","","","","","","","","",""
"","image-keyboard-response","342","192256","0.0-342.0","3X66WABAJX446NRTV4B4CIAYDN43GM","A30RAYNDOWQ61S","3UUIU9GZC5R93N292LT21FRJ9VS5TN","","626.0999999642372","img/flower5.png","76","626.5","3","1","3","1","1,0.333,0.333,0.333,1,0.333,0.333,0.333,1","1,0.333,0.333,0.333,1,0.333,0.333,0.333,1","1",""
"","html-keyboard-response","343","192557","0.0-343.0","3X66WABAJX446NRTV4B4CIAYDN43GM","A30RAYNDOWQ61S","3UUIU9GZC5R93N292LT21FRJ9VS5TN","","null","<img src=""img/flower5.png"" style=""width:200px; border:14px solid green;"">","null","","","","","","","","",""
"","image-keyboard-response","344","192912","0.0-344.0","3X66WABAJX446NRTV4B4CIAYDN43GM","A30RAYNDOWQ61S","3UUIU9GZC5R93N292LT21FRJ9VS5TN","","354.0999999642372","img/flower5.png","76","354.4000000357628","3","1","3","1","1,0.333,0.333,0.333,1,0.333,0.333,0.333,1","1,0.333,0.333,0.333,1,0.333,0.333,0.333,1","1",""
"","html-keyboard-response","345","193214","0.0-345.0","3X66WABAJX446NRTV4B4CIAYDN43GM","A30RAYNDOWQ61S","3UUIU9GZC5R93N292LT21FRJ9VS5TN","","null","<img src=""img/flower5.png"" style=""width:200px; border:14px solid green;"">","null","","","","","","","","",""
"","image-keyboard-response","346","193704","0.0-346.0","3X66WABAJX446NRTV4B4CIAYDN43GM","A30RAYNDOWQ61S","3UUIU9GZC5R93N292LT21FRJ9VS5TN","","489.80000001192093","img/flower1.png","74","490.19999998807907","1","1","2","1","1,0.333,0.333,0.333,1,0.333,0.333,0.333,1","1,0.333,0.333,0.333,1,0.333,0.333,0.333,1","1",""
"","html-keyboard-response","347","194005","0.0-347.0","3X66WABAJX446NRTV4B4CIAYDN43GM","A30RAYNDOWQ61S","3UUIU9GZC5R93N292LT21FRJ9VS5TN","","null","<img src=""img/flower1.png"" style=""width:200px; border:14px solid green;"">","null","","","","","","","","",""
"","image-keyboard-response","348","194400","0.0-348.0","3X66WABAJX446NRTV4B4CIAYDN43GM","A30RAYNDOWQ61S","3UUIU9GZC5R93N292LT21FRJ9VS5TN","","394","img/flower3.png","74","394.5","1","1","1","1","1,0.333,0.333,0.333,1,0.333,0.333,0.333,1","1,0.333,0.333,0.333,1,0.333,0.333,0.333,1","1",""
"","html-keyboard-response","349","194701","0.0-349.0","3X66WABAJX446NRTV4B4CIAYDN43GM","A30RAYNDOWQ61S","3UUIU9GZC5R93N292LT21FRJ9VS5TN","","null","<img src=""img/flower3.png"" style=""width:200px; border:14px solid green;"">","null","","","","","","","","",""
"","image-keyboard-response","350","195328","0.0-350.0","3X66WABAJX446NRTV4B4CIAYDN43GM","A30RAYNDOWQ61S","3UUIU9GZC5R93N292LT21FRJ9VS5TN","","626.7000000476837","img/flower5.png","76","627.0999999642372","3","1","3","1","1,0.333,0.333,0.333,1,0.333,0.333,0.333,1","1,0.333,0.333,0.333,1,0.333,0.333,0.333,1","1",""
"","html-keyboard-response","351","195630","0.0-351.0","3X66WABAJX446NRTV4B4CIAYDN43GM","A30RAYNDOWQ61S","3UUIU9GZC5R93N292LT21FRJ9VS5TN","","null","<img src=""img/flower5.png"" style=""width:200px; border:14px solid green;"">","null","","","","","","","","",""
"","image-keyboard-response","352","196368","0.0-352.0","3X66WABAJX446NRTV4B4CIAYDN43GM","A30RAYNDOWQ61S","3UUIU9GZC5R93N292LT21FRJ9VS5TN","","737.5","img/flower3.png","74","737.8999999761581","1","1","1","1","1,0.333,0.333,0.333,1,0.333,0.333,0.333,1","1,0.333,0.333,0.333,1,0.333,0.333,0.333,1","1",""
"","html-keyboard-response","353","196669","0.0-353.0","3X66WABAJX446NRTV4B4CIAYDN43GM","A30RAYNDOWQ61S","3UUIU9GZC5R93N292LT21FRJ9VS5TN","","null","<img src=""img/flower3.png"" style=""width:200px; border:14px solid green;"">","null","","","","","","","","",""
"","image-keyboard-response","354","197080","0.0-354.0","3X66WABAJX446NRTV4B4CIAYDN43GM","A30RAYNDOWQ61S","3UUIU9GZC5R93N292LT21FRJ9VS5TN","","409.9000000357628","img/flower3.png","74","410.39999997615814","1","1","1","1","1,0.333,0.333,0.333,1,0.333,0.333,0.333,1","1,0.333,0.333,0.333,1,0.333,0.333,0.333,1","1",""
"","html-keyboard-response","355","197381","0.0-355.0","3X66WABAJX446NRTV4B4CIAYDN43GM","A30RAYNDOWQ61S","3UUIU9GZC5R93N292LT21FRJ9VS5TN","","null","<img src=""img/flower3.png"" style=""width:200px; border:14px solid green;"">","null","","","","","","","","",""
"","image-keyboard-response","356","197760","0.0-356.0","3X66WABAJX446NRTV4B4CIAYDN43GM","A30RAYNDOWQ61S","3UUIU9GZC5R93N292LT21FRJ9VS5TN","","378.69999998807907","img/flower3.png","74","379.19999998807907","1","1","1","1","1,0.333,0.333,0.333,1,0.333,0.333,0.333,1","1,0.333,0.333,0.333,1,0.333,0.333,0.333,1","1",""
"","html-keyboard-response","357","198062","0.0-357.0","3X66WABAJX446NRTV4B4CIAYDN43GM","A30RAYNDOWQ61S","3UUIU9GZC5R93N292LT21FRJ9VS5TN","","null","<img src=""img/flower3.png"" style=""width:200px; border:14px solid green;"">","null","","","","","","","","",""
"","image-keyboard-response","358","198616","0.0-358.0","3X66WABAJX446NRTV4B4CIAYDN43GM","A30RAYNDOWQ61S","3UUIU9GZC5R93N292LT21FRJ9VS5TN","","553.5999999642372","img/flower5.png","76","554","3","1","3","1","1,0.333,0.333,0.333,1,0.333,0.333,0.333,1","1,0.333,0.333,0.333,1,0.333,0.333,0.333,1","1",""
"","html-keyboard-response","359","198917","0.0-359.0","3X66WABAJX446NRTV4B4CIAYDN43GM","A30RAYNDOWQ61S","3UUIU9GZC5R93N292LT21FRJ9VS5TN","","null","<img src=""img/flower5.png"" style=""width:200px; border:14px solid green;"">","null","","","","","","","","",""
"","image-keyboard-response","360","199592","0.0-360.0","3X66WABAJX446NRTV4B4CIAYDN43GM","A30RAYNDOWQ61S","3UUIU9GZC5R93N292LT21FRJ9VS5TN","","674.0999999642372","img/flower5.png","76","674.3999999761581","3","1","3","1","1,0.333,0.333,0.333,1,0.333,0.333,0.333,1","1,0.333,0.333,0.333,1,0.333,0.333,0.333,1","1",""
"","html-keyboard-response","361","199893","0.0-361.0","3X66WABAJX446NRTV4B4CIAYDN43GM","A30RAYNDOWQ61S","3UUIU9GZC5R93N292LT21FRJ9VS5TN","","null","<img src=""img/flower5.png"" style=""width:200px; border:14px solid green;"">","null","","","","","","","","",""
"","html-keyboard-response","362","206393","0.0-362.0","3X66WABAJX446NRTV4B4CIAYDN43GM","A30RAYNDOWQ61S","3UUIU9GZC5R93N292LT21FRJ9VS5TN","","","","","","","","","","","","",""
