"rt","url","trial_type","trial_index","time_elapsed","internal_node_id","assignmentID","mturkID","hitID","success","view_history","stimulus","key_press","reactionTime","a","r","s","reward_cond","responses"
"15615","consent.html","external-html","0","15805","0.0-0.0","3X31TUMD7Y8OICRFJRU11H0974AL1G","A32BQNJMLMZYG0","3FW4EL5A3LANKRP91N782LFHPY722Q","","","","","","","","","",""
"","","fullscreen","1","51217","0.0-1.0","3X31TUMD7Y8OICRFJRU11H0974AL1G","A32BQNJMLMZYG0","3FW4EL5A3LANKRP91N782LFHPY722Q","true","","","","","","","","",""
"592633","","instructions","2","643852","0.0-2.0","3X31TUMD7Y8OICRFJRU11H0974AL1G","A32BQNJMLMZYG0","3FW4EL5A3LANKRP91N782LFHPY722Q","","[{""page_index"":0,""viewing_time"":21324},{""page_index"":1,""viewing_time"":438123},{""page_index"":2,""viewing_time"":9114},{""page_index"":3,""viewing_time"":9398},{""page_index"":4,""viewing_time"":100958},{""page_index"":5,""viewing_time"":9658},{""page_index"":6,""viewing_time"":4051}]","","","","","","","",""
"31686","","instructions","3","675539","0.0-3.0","3X31TUMD7Y8OICRFJRU11H0974AL1G","A32BQNJMLMZYG0","3FW4EL5A3LANKRP91N782LFHPY722Q","","[{""page_index"":0,""viewing_time"":31685}]","","","","","","","",""
"2497","","image-keyboard-response","4","678039","0.0-4.0","3X31TUMD7Y8OICRFJRU11H0974AL1G","A32BQNJMLMZYG0","3FW4EL5A3LANKRP91N782LFHPY722Q","","","img/flower6.png","76","2499","3","1","3","",""
"null","","html-keyboard-response","5","678352","0.0-5.0","3X31TUMD7Y8OICRFJRU11H0974AL1G","A32BQNJMLMZYG0","3FW4EL5A3LANKRP91N782LFHPY722Q","","","<img src=""img/flower6.png"" style=""width:200px; border:14px solid green;"">","null","","","","","",""
"2266","","image-keyboard-response","6","680621","0.0-6.0","3X31TUMD7Y8OICRFJRU11H0974AL1G","A32BQNJMLMZYG0","3FW4EL5A3LANKRP91N782LFHPY722Q","","","img/flower5.png","75","2269","2","1","2","",""
"null","","html-keyboard-response","7","680937","0.0-7.0","3X31TUMD7Y8OICRFJRU11H0974AL1G","A32BQNJMLMZYG0","3FW4EL5A3LANKRP91N782LFHPY722Q","","","<img src=""img/flower5.png"" style=""width:200px; border:14px solid green;"">","null","","","","","",""
"2046","","image-keyboard-response","8","682998","0.0-8.0","3X31TUMD7Y8OICRFJRU11H0974AL1G","A32BQNJMLMZYG0","3FW4EL5A3LANKRP91N782LFHPY722Q","","","img/flower6.png","76","2061","3","1","3","",""
"null","","html-keyboard-response","9","683312","0.0-9.0","3X31TUMD7Y8OICRFJRU11H0974AL1G","A32BQNJMLMZYG0","3FW4EL5A3LANKRP91N782LFHPY722Q","","","<img src=""img/flower6.png"" style=""width:200px; border:14px solid green;"">","null","","","","","",""
"2817","","image-keyboard-response","10","686129","0.0-10.0","3X31TUMD7Y8OICRFJRU11H0974AL1G","A32BQNJMLMZYG0","3FW4EL5A3LANKRP91N782LFHPY722Q","","","img/flower6.png","76","2817","3","1","3","",""
"null","","html-keyboard-response","11","686437","0.0-11.0","3X31TUMD7Y8OICRFJRU11H0974AL1G","A32BQNJMLMZYG0","3FW4EL5A3LANKRP91N782LFHPY722Q","","","<img src=""img/flower6.png"" style=""width:200px; border:14px solid green;"">","null","","","","","",""
"1637","","image-keyboard-response","12","688081","0.0-12.0","3X31TUMD7Y8OICRFJRU11H0974AL1G","A32BQNJMLMZYG0","3FW4EL5A3LANKRP91N782LFHPY722Q","","","img/flower5.png","75","1643","2","1","2","",""
"null","","html-keyboard-response","13","688390","0.0-13.0","3X31TUMD7Y8OICRFJRU11H0974AL1G","A32BQNJMLMZYG0","3FW4EL5A3LANKRP91N782LFHPY722Q","","","<img src=""img/flower5.png"" style=""width:200px; border:14px solid green;"">","null","","","","","",""
"2045","","image-keyboard-response","14","690443","0.0-14.0","3X31TUMD7Y8OICRFJRU11H0974AL1G","A32BQNJMLMZYG0","3FW4EL5A3LANKRP91N782LFHPY722Q","","","img/flower6.png","76","2053","3","1","3","",""
"null","","html-keyboard-response","15","690749","0.0-15.0","3X31TUMD7Y8OICRFJRU11H0974AL1G","A32BQNJMLMZYG0","3FW4EL5A3LANKRP91N782LFHPY722Q","","","<img src=""img/flower6.png"" style=""width:200px; border:14px solid green;"">","null","","","","","",""
"1983","","image-keyboard-response","16","692742","0.0-16.0","3X31TUMD7Y8OICRFJRU11H0974AL1G","A32BQNJMLMZYG0","3FW4EL5A3LANKRP91N782LFHPY722Q","","","img/flower4.png","74","1993","1","1","1","",""
"null","","html-keyboard-response","17","693046","0.0-17.0","3X31TUMD7Y8OICRFJRU11H0974AL1G","A32BQNJMLMZYG0","3FW4EL5A3LANKRP91N782LFHPY722Q","","","<img src=""img/flower4.png"" style=""width:200px; border:14px solid green;"">","null","","","","","",""
"1374","","image-keyboard-response","18","694433","0.0-18.0","3X31TUMD7Y8OICRFJRU11H0974AL1G","A32BQNJMLMZYG0","3FW4EL5A3LANKRP91N782LFHPY722Q","","","img/flower5.png","75","1387","2","1","2","",""
"null","","html-keyboard-response","19","694750","0.0-19.0","3X31TUMD7Y8OICRFJRU11H0974AL1G","A32BQNJMLMZYG0","3FW4EL5A3LANKRP91N782LFHPY722Q","","","<img src=""img/flower5.png"" style=""width:200px; border:14px solid green;"">","null","","","","","",""
"1451","","image-keyboard-response","20","696202","0.0-20.0","3X31TUMD7Y8OICRFJRU11H0974AL1G","A32BQNJMLMZYG0","3FW4EL5A3LANKRP91N782LFHPY722Q","","","img/flower6.png","76","1452","3","1","3","",""
"null","","html-keyboard-response","21","696515","0.0-21.0","3X31TUMD7Y8OICRFJRU11H0974AL1G","A32BQNJMLMZYG0","3FW4EL5A3LANKRP91N782LFHPY722Q","","","<img src=""img/flower6.png"" style=""width:200px; border:14px solid green;"">","null","","","","","",""
"1451","","image-keyboard-response","22","697980","0.0-22.0","3X31TUMD7Y8OICRFJRU11H0974AL1G","A32BQNJMLMZYG0","3FW4EL5A3LANKRP91N782LFHPY722Q","","","img/flower5.png","75","1465","2","1","2","",""
"null","","html-keyboard-response","23","698296","0.0-23.0","3X31TUMD7Y8OICRFJRU11H0974AL1G","A32BQNJMLMZYG0","3FW4EL5A3LANKRP91N782LFHPY722Q","","","<img src=""img/flower5.png"" style=""width:200px; border:14px solid green;"">","null","","","","","",""
"2248","","image-keyboard-response","24","700549","0.0-24.0","3X31TUMD7Y8OICRFJRU11H0974AL1G","A32BQNJMLMZYG0","3FW4EL5A3LANKRP91N782LFHPY722Q","","","img/flower4.png","74","2253","1","1","1","",""
"null","","html-keyboard-response","25","700858","0.0-25.0","3X31TUMD7Y8OICRFJRU11H0974AL1G","A32BQNJMLMZYG0","3FW4EL5A3LANKRP91N782LFHPY722Q","","","<img src=""img/flower4.png"" style=""width:200px; border:14px solid green;"">","null","","","","","",""
"1638","","image-keyboard-response","26","702513","0.0-26.0","3X31TUMD7Y8OICRFJRU11H0974AL1G","A32BQNJMLMZYG0","3FW4EL5A3LANKRP91N782LFHPY722Q","","","img/flower6.png","76","1654","3","1","3","",""
"null","","html-keyboard-response","27","702831","0.0-27.0","3X31TUMD7Y8OICRFJRU11H0974AL1G","A32BQNJMLMZYG0","3FW4EL5A3LANKRP91N782LFHPY722Q","","","<img src=""img/flower6.png"" style=""width:200px; border:14px solid green;"">","null","","","","","",""
"1245","","image-keyboard-response","28","704089","0.0-28.0","3X31TUMD7Y8OICRFJRU11H0974AL1G","A32BQNJMLMZYG0","3FW4EL5A3LANKRP91N782LFHPY722Q","","","img/flower5.png","75","1258","2","1","2","",""
"null","","html-keyboard-response","29","704421","0.0-29.0","3X31TUMD7Y8OICRFJRU11H0974AL1G","A32BQNJMLMZYG0","3FW4EL5A3LANKRP91N782LFHPY722Q","","","<img src=""img/flower5.png"" style=""width:200px; border:14px solid green;"">","null","","","","","",""
"1639","","image-keyboard-response","30","706069","0.0-30.0","3X31TUMD7Y8OICRFJRU11H0974AL1G","A32BQNJMLMZYG0","3FW4EL5A3LANKRP91N782LFHPY722Q","","","img/flower5.png","75","1647","2","1","2","",""
"null","","html-keyboard-response","31","706377","0.0-31.0","3X31TUMD7Y8OICRFJRU11H0974AL1G","A32BQNJMLMZYG0","3FW4EL5A3LANKRP91N782LFHPY722Q","","","<img src=""img/flower5.png"" style=""width:200px; border:14px solid green;"">","null","","","","","",""
"949","","image-keyboard-response","32","707329","0.0-32.0","3X31TUMD7Y8OICRFJRU11H0974AL1G","A32BQNJMLMZYG0","3FW4EL5A3LANKRP91N782LFHPY722Q","","","img/flower5.png","75","952","2","1","2","",""
"null","","html-keyboard-response","33","707640","0.0-33.0","3X31TUMD7Y8OICRFJRU11H0974AL1G","A32BQNJMLMZYG0","3FW4EL5A3LANKRP91N782LFHPY722Q","","","<img src=""img/flower5.png"" style=""width:200px; border:14px solid green;"">","null","","","","","",""
"1045","","image-keyboard-response","34","708693","0.0-34.0","3X31TUMD7Y8OICRFJRU11H0974AL1G","A32BQNJMLMZYG0","3FW4EL5A3LANKRP91N782LFHPY722Q","","","img/flower4.png","74","1053","1","1","1","",""
"null","","html-keyboard-response","35","709020","0.0-35.0","3X31TUMD7Y8OICRFJRU11H0974AL1G","A32BQNJMLMZYG0","3FW4EL5A3LANKRP91N782LFHPY722Q","","","<img src=""img/flower4.png"" style=""width:200px; border:14px solid green;"">","null","","","","","",""
"885","","image-keyboard-response","36","709916","0.0-36.0","3X31TUMD7Y8OICRFJRU11H0974AL1G","A32BQNJMLMZYG0","3FW4EL5A3LANKRP91N782LFHPY722Q","","","img/flower6.png","76","896","3","0","3","",""
"null","","html-keyboard-response","37","710287","0.0-37.0","3X31TUMD7Y8OICRFJRU11H0974AL1G","A32BQNJMLMZYG0","3FW4EL5A3LANKRP91N782LFHPY722Q","","","<img src=""img/flower6.png"" style=""width:200px;border:14px solid red;"">","null","","","","","",""
"876","","image-keyboard-response","38","711164","0.0-38.0","3X31TUMD7Y8OICRFJRU11H0974AL1G","A32BQNJMLMZYG0","3FW4EL5A3LANKRP91N782LFHPY722Q","","","img/flower6.png","76","877","3","0","3","",""
"null","","html-keyboard-response","39","711468","0.0-39.0","3X31TUMD7Y8OICRFJRU11H0974AL1G","A32BQNJMLMZYG0","3FW4EL5A3LANKRP91N782LFHPY722Q","","","<img src=""img/flower6.png"" style=""width:200px;border:14px solid red;"">","null","","","","","",""
"1983","","image-keyboard-response","40","713460","0.0-40.0","3X31TUMD7Y8OICRFJRU11H0974AL1G","A32BQNJMLMZYG0","3FW4EL5A3LANKRP91N782LFHPY722Q","","","img/flower4.png","74","1992","1","0","1","",""
"null","","html-keyboard-response","41","713765","0.0-41.0","3X31TUMD7Y8OICRFJRU11H0974AL1G","A32BQNJMLMZYG0","3FW4EL5A3LANKRP91N782LFHPY722Q","","","<img src=""img/flower4.png"" style=""width:200px;border:14px solid red;"">","null","","","","","",""
"858","","image-keyboard-response","42","714639","0.0-42.0","3X31TUMD7Y8OICRFJRU11H0974AL1G","A32BQNJMLMZYG0","3FW4EL5A3LANKRP91N782LFHPY722Q","","","img/flower6.png","75","874","2","0","3","",""
"null","","html-keyboard-response","43","714968","0.0-43.0","3X31TUMD7Y8OICRFJRU11H0974AL1G","A32BQNJMLMZYG0","3FW4EL5A3LANKRP91N782LFHPY722Q","","","<img src=""img/flower6.png"" style=""width:200px;border:14px solid red;"">","null","","","","","",""
"2060","","image-keyboard-response","44","717034","0.0-44.0","3X31TUMD7Y8OICRFJRU11H0974AL1G","A32BQNJMLMZYG0","3FW4EL5A3LANKRP91N782LFHPY722Q","","","img/flower4.png","74","2066","1","1","1","",""
"null","","html-keyboard-response","45","717357","0.0-45.0","3X31TUMD7Y8OICRFJRU11H0974AL1G","A32BQNJMLMZYG0","3FW4EL5A3LANKRP91N782LFHPY722Q","","","<img src=""img/flower4.png"" style=""width:200px; border:14px solid green;"">","null","","","","","",""
"999","","image-keyboard-response","46","718371","0.0-46.0","3X31TUMD7Y8OICRFJRU11H0974AL1G","A32BQNJMLMZYG0","3FW4EL5A3LANKRP91N782LFHPY722Q","","","img/flower6.png","76","1014","3","1","3","",""
"null","","html-keyboard-response","47","718687","0.0-47.0","3X31TUMD7Y8OICRFJRU11H0974AL1G","A32BQNJMLMZYG0","3FW4EL5A3LANKRP91N782LFHPY722Q","","","<img src=""img/flower6.png"" style=""width:200px; border:14px solid green;"">","null","","","","","",""
"1108","","image-keyboard-response","48","719805","0.0-48.0","3X31TUMD7Y8OICRFJRU11H0974AL1G","A32BQNJMLMZYG0","3FW4EL5A3LANKRP91N782LFHPY722Q","","","img/flower5.png","75","1118","2","0","2","",""
"null","","html-keyboard-response","49","720108","0.0-49.0","3X31TUMD7Y8OICRFJRU11H0974AL1G","A32BQNJMLMZYG0","3FW4EL5A3LANKRP91N782LFHPY722Q","","","<img src=""img/flower5.png"" style=""width:200px;border:14px solid red;"">","null","","","","","",""
"1702","","image-keyboard-response","50","721819","0.0-50.0","3X31TUMD7Y8OICRFJRU11H0974AL1G","A32BQNJMLMZYG0","3FW4EL5A3LANKRP91N782LFHPY722Q","","","img/flower5.png","75","1711","2","0","2","",""
"null","","html-keyboard-response","51","722120","0.0-51.0","3X31TUMD7Y8OICRFJRU11H0974AL1G","A32BQNJMLMZYG0","3FW4EL5A3LANKRP91N782LFHPY722Q","","","<img src=""img/flower5.png"" style=""width:200px;border:14px solid red;"">","null","","","","","",""
"1190","","image-keyboard-response","52","723321","0.0-52.0","3X31TUMD7Y8OICRFJRU11H0974AL1G","A32BQNJMLMZYG0","3FW4EL5A3LANKRP91N782LFHPY722Q","","","img/flower4.png","74","1201","1","1","1","",""
"null","","html-keyboard-response","53","723625","0.0-53.0","3X31TUMD7Y8OICRFJRU11H0974AL1G","A32BQNJMLMZYG0","3FW4EL5A3LANKRP91N782LFHPY722Q","","","<img src=""img/flower4.png"" style=""width:200px; border:14px solid green;"">","null","","","","","",""
"903","","image-keyboard-response","54","724533","0.0-54.0","3X31TUMD7Y8OICRFJRU11H0974AL1G","A32BQNJMLMZYG0","3FW4EL5A3LANKRP91N782LFHPY722Q","","","img/flower4.png","74","908","1","1","1","",""
"null","","html-keyboard-response","55","724843","0.0-55.0","3X31TUMD7Y8OICRFJRU11H0974AL1G","A32BQNJMLMZYG0","3FW4EL5A3LANKRP91N782LFHPY722Q","","","<img src=""img/flower4.png"" style=""width:200px; border:14px solid green;"">","null","","","","","",""
"732","","image-keyboard-response","56","725589","0.0-56.0","3X31TUMD7Y8OICRFJRU11H0974AL1G","A32BQNJMLMZYG0","3FW4EL5A3LANKRP91N782LFHPY722Q","","","img/flower4.png","74","746","1","0","1","",""
"null","","html-keyboard-response","57","725892","0.0-57.0","3X31TUMD7Y8OICRFJRU11H0974AL1G","A32BQNJMLMZYG0","3FW4EL5A3LANKRP91N782LFHPY722Q","","","<img src=""img/flower4.png"" style=""width:200px;border:14px solid red;"">","null","","","","","",""
"747","","image-keyboard-response","58","726644","0.0-58.0","3X31TUMD7Y8OICRFJRU11H0974AL1G","A32BQNJMLMZYG0","3FW4EL5A3LANKRP91N782LFHPY722Q","","","img/flower4.png","74","752","1","1","1","",""
"null","","html-keyboard-response","59","726952","0.0-59.0","3X31TUMD7Y8OICRFJRU11H0974AL1G","A32BQNJMLMZYG0","3FW4EL5A3LANKRP91N782LFHPY722Q","","","<img src=""img/flower4.png"" style=""width:200px; border:14px solid green;"">","null","","","","","",""
"1224","","image-keyboard-response","60","728177","0.0-60.0","3X31TUMD7Y8OICRFJRU11H0974AL1G","A32BQNJMLMZYG0","3FW4EL5A3LANKRP91N782LFHPY722Q","","","img/flower5.png","75","1225","2","0","2","",""
"null","","html-keyboard-response","61","728483","0.0-61.0","3X31TUMD7Y8OICRFJRU11H0974AL1G","A32BQNJMLMZYG0","3FW4EL5A3LANKRP91N782LFHPY722Q","","","<img src=""img/flower5.png"" style=""width:200px;border:14px solid red;"">","null","","","","","",""
"1125","","image-keyboard-response","62","729621","0.0-62.0","3X31TUMD7Y8OICRFJRU11H0974AL1G","A32BQNJMLMZYG0","3FW4EL5A3LANKRP91N782LFHPY722Q","","","img/flower4.png","74","1138","1","1","1","",""
"null","","html-keyboard-response","63","729967","0.0-63.0","3X31TUMD7Y8OICRFJRU11H0974AL1G","A32BQNJMLMZYG0","3FW4EL5A3LANKRP91N782LFHPY722Q","","","<img src=""img/flower4.png"" style=""width:200px; border:14px solid green;"">","null","","","","","",""
"41468","","instructions","64","771435","0.0-64.0","3X31TUMD7Y8OICRFJRU11H0974AL1G","A32BQNJMLMZYG0","3FW4EL5A3LANKRP91N782LFHPY722Q","","[{""page_index"":0,""viewing_time"":5551},{""page_index"":1,""viewing_time"":35917}]","","","","","","","",""
"3530","","image-keyboard-response","65","774966","0.0-65.0","3X31TUMD7Y8OICRFJRU11H0974AL1G","A32BQNJMLMZYG0","3FW4EL5A3LANKRP91N782LFHPY722Q","","","img/flower4.png","75","3530","2","1","1","",""
"null","","html-keyboard-response","66","775280","0.0-66.0","3X31TUMD7Y8OICRFJRU11H0974AL1G","A32BQNJMLMZYG0","3FW4EL5A3LANKRP91N782LFHPY722Q","","","<img src=""img/flower4.png"" style=""width:200px; border:14px solid green;"">","null","","","","","",""
"4264","","image-keyboard-response","67","779552","0.0-67.0","3X31TUMD7Y8OICRFJRU11H0974AL1G","A32BQNJMLMZYG0","3FW4EL5A3LANKRP91N782LFHPY722Q","","","img/flower5.png","75","4272","2","1","2","",""
"null","","html-keyboard-response","68","779853","0.0-68.0","3X31TUMD7Y8OICRFJRU11H0974AL1G","A32BQNJMLMZYG0","3FW4EL5A3LANKRP91N782LFHPY722Q","","","<img src=""img/flower5.png"" style=""width:200px; border:14px solid green;"">","null","","","","","",""
"2596","","image-keyboard-response","69","782458","0.0-69.0","3X31TUMD7Y8OICRFJRU11H0974AL1G","A32BQNJMLMZYG0","3FW4EL5A3LANKRP91N782LFHPY722Q","","","img/flower4.png","76","2605","3","0","1","",""
"null","","html-keyboard-response","70","782767","0.0-70.0","3X31TUMD7Y8OICRFJRU11H0974AL1G","A32BQNJMLMZYG0","3FW4EL5A3LANKRP91N782LFHPY722Q","","","<img src=""img/flower4.png"" style=""width:200px;border:14px solid red;"">","null","","","","","",""
"2455","","image-keyboard-response","71","785237","0.0-71.0","3X31TUMD7Y8OICRFJRU11H0974AL1G","A32BQNJMLMZYG0","3FW4EL5A3LANKRP91N782LFHPY722Q","","","img/flower5.png","75","2470","2","1","2","",""
"null","","html-keyboard-response","72","785546","0.0-72.0","3X31TUMD7Y8OICRFJRU11H0974AL1G","A32BQNJMLMZYG0","3FW4EL5A3LANKRP91N782LFHPY722Q","","","<img src=""img/flower5.png"" style=""width:200px; border:14px solid green;"">","null","","","","","",""
"1185","","image-keyboard-response","73","786736","0.0-73.0","3X31TUMD7Y8OICRFJRU11H0974AL1G","A32BQNJMLMZYG0","3FW4EL5A3LANKRP91N782LFHPY722Q","","","img/flower4.png","74","1189","1","1","1","",""
"null","","html-keyboard-response","74","787047","0.0-74.0","3X31TUMD7Y8OICRFJRU11H0974AL1G","A32BQNJMLMZYG0","3FW4EL5A3LANKRP91N782LFHPY722Q","","","<img src=""img/flower4.png"" style=""width:200px; border:14px solid green;"">","null","","","","","",""
"2544","","image-keyboard-response","75","789593","0.0-75.0","3X31TUMD7Y8OICRFJRU11H0974AL1G","A32BQNJMLMZYG0","3FW4EL5A3LANKRP91N782LFHPY722Q","","","img/flower5.png","75","2546","2","1","2","",""
"null","","html-keyboard-response","76","789904","0.0-76.0","3X31TUMD7Y8OICRFJRU11H0974AL1G","A32BQNJMLMZYG0","3FW4EL5A3LANKRP91N782LFHPY722Q","","","<img src=""img/flower5.png"" style=""width:200px; border:14px solid green;"">","null","","","","","",""
"1223","","image-keyboard-response","77","791128","0.0-77.0","3X31TUMD7Y8OICRFJRU11H0974AL1G","A32BQNJMLMZYG0","3FW4EL5A3LANKRP91N782LFHPY722Q","","","img/flower4.png","75","1224","2","0","1","",""
"null","","html-keyboard-response","78","791438","0.0-78.0","3X31TUMD7Y8OICRFJRU11H0974AL1G","A32BQNJMLMZYG0","3FW4EL5A3LANKRP91N782LFHPY722Q","","","<img src=""img/flower4.png"" style=""width:200px;border:14px solid red;"">","null","","","","","",""
"4664","","image-keyboard-response","79","796103","0.0-79.0","3X31TUMD7Y8OICRFJRU11H0974AL1G","A32BQNJMLMZYG0","3FW4EL5A3LANKRP91N782LFHPY722Q","","","img/flower6.png","74","4665","1","0","3","",""
"null","","html-keyboard-response","80","796407","0.0-80.0","3X31TUMD7Y8OICRFJRU11H0974AL1G","A32BQNJMLMZYG0","3FW4EL5A3LANKRP91N782LFHPY722Q","","","<img src=""img/flower6.png"" style=""width:200px;border:14px solid red;"">","null","","","","","",""
"4091","","image-keyboard-response","81","800512","0.0-81.0","3X31TUMD7Y8OICRFJRU11H0974AL1G","A32BQNJMLMZYG0","3FW4EL5A3LANKRP91N782LFHPY722Q","","","img/flower6.png","74","4105","1","1","3","",""
"null","","html-keyboard-response","82","800828","0.0-82.0","3X31TUMD7Y8OICRFJRU11H0974AL1G","A32BQNJMLMZYG0","3FW4EL5A3LANKRP91N782LFHPY722Q","","","<img src=""img/flower6.png"" style=""width:200px; border:14px solid green;"">","null","","","","","",""
"360","","image-keyboard-response","83","801188","0.0-83.0","3X31TUMD7Y8OICRFJRU11H0974AL1G","A32BQNJMLMZYG0","3FW4EL5A3LANKRP91N782LFHPY722Q","","","img/flower5.png","76","360","3","1","2","",""
"null","","html-keyboard-response","84","801499","0.0-84.0","3X31TUMD7Y8OICRFJRU11H0974AL1G","A32BQNJMLMZYG0","3FW4EL5A3LANKRP91N782LFHPY722Q","","","<img src=""img/flower5.png"" style=""width:200px; border:14px solid green;"">","null","","","","","",""
"3076","","image-keyboard-response","85","804579","0.0-85.0","3X31TUMD7Y8OICRFJRU11H0974AL1G","A32BQNJMLMZYG0","3FW4EL5A3LANKRP91N782LFHPY722Q","","","img/flower4.png","74","3080","1","1","1","",""
"null","","html-keyboard-response","86","804890","0.0-86.0","3X31TUMD7Y8OICRFJRU11H0974AL1G","A32BQNJMLMZYG0","3FW4EL5A3LANKRP91N782LFHPY722Q","","","<img src=""img/flower4.png"" style=""width:200px; border:14px solid green;"">","null","","","","","",""
"2050","","image-keyboard-response","87","806940","0.0-87.0","3X31TUMD7Y8OICRFJRU11H0974AL1G","A32BQNJMLMZYG0","3FW4EL5A3LANKRP91N782LFHPY722Q","","","img/flower4.png","74","2050","1","0","1","",""
"null","","html-keyboard-response","88","807250","0.0-88.0","3X31TUMD7Y8OICRFJRU11H0974AL1G","A32BQNJMLMZYG0","3FW4EL5A3LANKRP91N782LFHPY722Q","","","<img src=""img/flower4.png"" style=""width:200px;border:14px solid red;"">","null","","","","","",""
"2825","","image-keyboard-response","89","810093","0.0-89.0","3X31TUMD7Y8OICRFJRU11H0974AL1G","A32BQNJMLMZYG0","3FW4EL5A3LANKRP91N782LFHPY722Q","","","img/flower4.png","74","2843","1","1","1","",""
"null","","html-keyboard-response","90","810406","0.0-90.0","3X31TUMD7Y8OICRFJRU11H0974AL1G","A32BQNJMLMZYG0","3FW4EL5A3LANKRP91N782LFHPY722Q","","","<img src=""img/flower4.png"" style=""width:200px; border:14px solid green;"">","null","","","","","",""
"1529","","image-keyboard-response","91","811936","0.0-91.0","3X31TUMD7Y8OICRFJRU11H0974AL1G","A32BQNJMLMZYG0","3FW4EL5A3LANKRP91N782LFHPY722Q","","","img/flower5.png","75","1530","2","1","2","",""
"null","","html-keyboard-response","92","812264","0.0-92.0","3X31TUMD7Y8OICRFJRU11H0974AL1G","A32BQNJMLMZYG0","3FW4EL5A3LANKRP91N782LFHPY722Q","","","<img src=""img/flower5.png"" style=""width:200px; border:14px solid green;"">","null","","","","","",""
"940","","image-keyboard-response","93","813206","0.0-93.0","3X31TUMD7Y8OICRFJRU11H0974AL1G","A32BQNJMLMZYG0","3FW4EL5A3LANKRP91N782LFHPY722Q","","","img/flower5.png","75","941","2","1","2","",""
"null","","html-keyboard-response","94","813544","0.0-94.0","3X31TUMD7Y8OICRFJRU11H0974AL1G","A32BQNJMLMZYG0","3FW4EL5A3LANKRP91N782LFHPY722Q","","","<img src=""img/flower5.png"" style=""width:200px; border:14px solid green;"">","null","","","","","",""
"1046","","image-keyboard-response","95","814598","0.0-95.0","3X31TUMD7Y8OICRFJRU11H0974AL1G","A32BQNJMLMZYG0","3FW4EL5A3LANKRP91N782LFHPY722Q","","","img/flower6.png","76","1054","3","1","3","",""
"null","","html-keyboard-response","96","814905","0.0-96.0","3X31TUMD7Y8OICRFJRU11H0974AL1G","A32BQNJMLMZYG0","3FW4EL5A3LANKRP91N782LFHPY722Q","","","<img src=""img/flower6.png"" style=""width:200px; border:14px solid green;"">","null","","","","","",""
"1030","","image-keyboard-response","97","815937","0.0-97.0","3X31TUMD7Y8OICRFJRU11H0974AL1G","A32BQNJMLMZYG0","3FW4EL5A3LANKRP91N782LFHPY722Q","","","img/flower4.png","75","1032","2","0","1","",""
"null","","html-keyboard-response","98","816249","0.0-98.0","3X31TUMD7Y8OICRFJRU11H0974AL1G","A32BQNJMLMZYG0","3FW4EL5A3LANKRP91N782LFHPY722Q","","","<img src=""img/flower4.png"" style=""width:200px;border:14px solid red;"">","null","","","","","",""
"998","","image-keyboard-response","99","817262","0.0-99.0","3X31TUMD7Y8OICRFJRU11H0974AL1G","A32BQNJMLMZYG0","3FW4EL5A3LANKRP91N782LFHPY722Q","","","img/flower5.png","75","1013","2","1","2","",""
"null","","html-keyboard-response","100","817600","0.0-100.0","3X31TUMD7Y8OICRFJRU11H0974AL1G","A32BQNJMLMZYG0","3FW4EL5A3LANKRP91N782LFHPY722Q","","","<img src=""img/flower5.png"" style=""width:200px; border:14px solid green;"">","null","","","","","",""
"1053","","image-keyboard-response","101","818664","0.0-101.0","3X31TUMD7Y8OICRFJRU11H0974AL1G","A32BQNJMLMZYG0","3FW4EL5A3LANKRP91N782LFHPY722Q","","","img/flower6.png","76","1064","3","1","3","",""
"null","","html-keyboard-response","102","818976","0.0-102.0","3X31TUMD7Y8OICRFJRU11H0974AL1G","A32BQNJMLMZYG0","3FW4EL5A3LANKRP91N782LFHPY722Q","","","<img src=""img/flower6.png"" style=""width:200px; border:14px solid green;"">","null","","","","","",""
"1319","","image-keyboard-response","103","820299","0.0-103.0","3X31TUMD7Y8OICRFJRU11H0974AL1G","A32BQNJMLMZYG0","3FW4EL5A3LANKRP91N782LFHPY722Q","","","img/flower6.png","76","1323","3","1","3","",""
"null","","html-keyboard-response","104","820609","0.0-104.0","3X31TUMD7Y8OICRFJRU11H0974AL1G","A32BQNJMLMZYG0","3FW4EL5A3LANKRP91N782LFHPY722Q","","","<img src=""img/flower6.png"" style=""width:200px; border:14px solid green;"">","null","","","","","",""
"1905","","image-keyboard-response","105","822520","0.0-105.0","3X31TUMD7Y8OICRFJRU11H0974AL1G","A32BQNJMLMZYG0","3FW4EL5A3LANKRP91N782LFHPY722Q","","","img/flower5.png","75","1911","2","1","2","",""
"null","","html-keyboard-response","106","822829","0.0-106.0","3X31TUMD7Y8OICRFJRU11H0974AL1G","A32BQNJMLMZYG0","3FW4EL5A3LANKRP91N782LFHPY722Q","","","<img src=""img/flower5.png"" style=""width:200px; border:14px solid green;"">","null","","","","","",""
"1387","","image-keyboard-response","107","824225","0.0-107.0","3X31TUMD7Y8OICRFJRU11H0974AL1G","A32BQNJMLMZYG0","3FW4EL5A3LANKRP91N782LFHPY722Q","","","img/flower5.png","75","1396","2","1","2","",""
"null","","html-keyboard-response","108","824530","0.0-108.0","3X31TUMD7Y8OICRFJRU11H0974AL1G","A32BQNJMLMZYG0","3FW4EL5A3LANKRP91N782LFHPY722Q","","","<img src=""img/flower5.png"" style=""width:200px; border:14px solid green;"">","null","","","","","",""
"1014","","image-keyboard-response","109","825552","0.0-109.0","3X31TUMD7Y8OICRFJRU11H0974AL1G","A32BQNJMLMZYG0","3FW4EL5A3LANKRP91N782LFHPY722Q","","","img/flower6.png","76","1022","3","1","3","",""
"null","","html-keyboard-response","110","825858","0.0-110.0","3X31TUMD7Y8OICRFJRU11H0974AL1G","A32BQNJMLMZYG0","3FW4EL5A3LANKRP91N782LFHPY722Q","","","<img src=""img/flower6.png"" style=""width:200px; border:14px solid green;"">","null","","","","","",""
"999","","image-keyboard-response","111","826862","0.0-111.0","3X31TUMD7Y8OICRFJRU11H0974AL1G","A32BQNJMLMZYG0","3FW4EL5A3LANKRP91N782LFHPY722Q","","","img/flower4.png","74","1004","1","1","1","",""
"null","","html-keyboard-response","112","827163","0.0-112.0","3X31TUMD7Y8OICRFJRU11H0974AL1G","A32BQNJMLMZYG0","3FW4EL5A3LANKRP91N782LFHPY722Q","","","<img src=""img/flower4.png"" style=""width:200px; border:14px solid green;"">","null","","","","","",""
"1146","","image-keyboard-response","113","828315","0.0-113.0","3X31TUMD7Y8OICRFJRU11H0974AL1G","A32BQNJMLMZYG0","3FW4EL5A3LANKRP91N782LFHPY722Q","","","img/flower6.png","76","1151","3","1","3","",""
"null","","html-keyboard-response","114","828624","0.0-114.0","3X31TUMD7Y8OICRFJRU11H0974AL1G","A32BQNJMLMZYG0","3FW4EL5A3LANKRP91N782LFHPY722Q","","","<img src=""img/flower6.png"" style=""width:200px; border:14px solid green;"">","null","","","","","",""
"1139","","image-keyboard-response","115","829770","0.0-115.0","3X31TUMD7Y8OICRFJRU11H0974AL1G","A32BQNJMLMZYG0","3FW4EL5A3LANKRP91N782LFHPY722Q","","","img/flower4.png","74","1146","1","1","1","",""
"null","","html-keyboard-response","116","830081","0.0-116.0","3X31TUMD7Y8OICRFJRU11H0974AL1G","A32BQNJMLMZYG0","3FW4EL5A3LANKRP91N782LFHPY722Q","","","<img src=""img/flower4.png"" style=""width:200px; border:14px solid green;"">","null","","","","","",""
"1021","","image-keyboard-response","117","831102","0.0-117.0","3X31TUMD7Y8OICRFJRU11H0974AL1G","A32BQNJMLMZYG0","3FW4EL5A3LANKRP91N782LFHPY722Q","","","img/flower6.png","76","1021","3","1","3","",""
"null","","html-keyboard-response","118","831405","0.0-118.0","3X31TUMD7Y8OICRFJRU11H0974AL1G","A32BQNJMLMZYG0","3FW4EL5A3LANKRP91N782LFHPY722Q","","","<img src=""img/flower6.png"" style=""width:200px; border:14px solid green;"">","null","","","","","",""
"1030","","image-keyboard-response","119","832449","0.0-119.0","3X31TUMD7Y8OICRFJRU11H0974AL1G","A32BQNJMLMZYG0","3FW4EL5A3LANKRP91N782LFHPY722Q","","","img/flower6.png","76","1044","3","0","3","",""
"null","","html-keyboard-response","120","832765","0.0-120.0","3X31TUMD7Y8OICRFJRU11H0974AL1G","A32BQNJMLMZYG0","3FW4EL5A3LANKRP91N782LFHPY722Q","","","<img src=""img/flower6.png"" style=""width:200px;border:14px solid red;"">","null","","","","","",""
"3217","","image-keyboard-response","121","835990","0.0-121.0","3X31TUMD7Y8OICRFJRU11H0974AL1G","A32BQNJMLMZYG0","3FW4EL5A3LANKRP91N782LFHPY722Q","","","img/flower6.png","74","3225","1","1","3","",""
"null","","html-keyboard-response","122","836296","0.0-122.0","3X31TUMD7Y8OICRFJRU11H0974AL1G","A32BQNJMLMZYG0","3FW4EL5A3LANKRP91N782LFHPY722Q","","","<img src=""img/flower6.png"" style=""width:200px; border:14px solid green;"">","null","","","","","",""
"4499","","image-keyboard-response","123","840798","0.0-123.0","3X31TUMD7Y8OICRFJRU11H0974AL1G","A32BQNJMLMZYG0","3FW4EL5A3LANKRP91N782LFHPY722Q","","","img/flower5.png","75","4502","2","1","2","",""
"null","","html-keyboard-response","124","841108","0.0-124.0","3X31TUMD7Y8OICRFJRU11H0974AL1G","A32BQNJMLMZYG0","3FW4EL5A3LANKRP91N782LFHPY722Q","","","<img src=""img/flower5.png"" style=""width:200px; border:14px solid green;"">","null","","","","","",""
"2980","","instructions","125","844089","0.0-125.0","3X31TUMD7Y8OICRFJRU11H0974AL1G","A32BQNJMLMZYG0","3FW4EL5A3LANKRP91N782LFHPY722Q","","[{""page_index"":0,""viewing_time"":2979}]","","","","","","","",""
"5302","","image-keyboard-response","126","849392","0.0-126.0","3X31TUMD7Y8OICRFJRU11H0974AL1G","A32BQNJMLMZYG0","3FW4EL5A3LANKRP91N782LFHPY722Q","","","img/flower2.png","74","5304","1","0","3","0.8,0.2,0.2,0.2,0.8,0.2,0.2,0.2,0.8",""
"null","","html-keyboard-response","127","849702","0.0-127.0","3X31TUMD7Y8OICRFJRU11H0974AL1G","A32BQNJMLMZYG0","3FW4EL5A3LANKRP91N782LFHPY722Q","","","<img src=""img/flower2.png"" style=""width:200px;border:14px solid red;"">","null","","","","","",""
"1515","","image-keyboard-response","128","851220","0.0-128.0","3X31TUMD7Y8OICRFJRU11H0974AL1G","A32BQNJMLMZYG0","3FW4EL5A3LANKRP91N782LFHPY722Q","","","img/flower6.png","76","1518","3","0","2","0.8,0.2,0.2,0.2,0.8,0.2,0.2,0.2,0.8",""
"null","","html-keyboard-response","129","851530","0.0-129.0","3X31TUMD7Y8OICRFJRU11H0974AL1G","A32BQNJMLMZYG0","3FW4EL5A3LANKRP91N782LFHPY722Q","","","<img src=""img/flower6.png"" style=""width:200px;border:14px solid red;"">","null","","","","","",""
"4623","","image-keyboard-response","130","856156","0.0-130.0","3X31TUMD7Y8OICRFJRU11H0974AL1G","A32BQNJMLMZYG0","3FW4EL5A3LANKRP91N782LFHPY722Q","","","img/flower6.png","74","4626","1","0","2","0.8,0.2,0.2,0.2,0.8,0.2,0.2,0.2,0.8",""
"null","","html-keyboard-response","131","856468","0.0-131.0","3X31TUMD7Y8OICRFJRU11H0974AL1G","A32BQNJMLMZYG0","3FW4EL5A3LANKRP91N782LFHPY722Q","","","<img src=""img/flower6.png"" style=""width:200px;border:14px solid red;"">","null","","","","","",""
"1640","","image-keyboard-response","132","858110","0.0-132.0","3X31TUMD7Y8OICRFJRU11H0974AL1G","A32BQNJMLMZYG0","3FW4EL5A3LANKRP91N782LFHPY722Q","","","img/flower6.png","76","1642","3","0","2","0.8,0.2,0.2,0.2,0.8,0.2,0.2,0.2,0.8",""
"null","","html-keyboard-response","133","858437","0.0-133.0","3X31TUMD7Y8OICRFJRU11H0974AL1G","A32BQNJMLMZYG0","3FW4EL5A3LANKRP91N782LFHPY722Q","","","<img src=""img/flower6.png"" style=""width:200px;border:14px solid red;"">","null","","","","","",""
"1014","","image-keyboard-response","134","859460","0.0-134.0","3X31TUMD7Y8OICRFJRU11H0974AL1G","A32BQNJMLMZYG0","3FW4EL5A3LANKRP91N782LFHPY722Q","","","img/flower2.png","75","1023","2","0","3","0.8,0.2,0.2,0.2,0.8,0.2,0.2,0.2,0.8",""
"null","","html-keyboard-response","135","859764","0.0-135.0","3X31TUMD7Y8OICRFJRU11H0974AL1G","A32BQNJMLMZYG0","3FW4EL5A3LANKRP91N782LFHPY722Q","","","<img src=""img/flower2.png"" style=""width:200px;border:14px solid red;"">","null","","","","","",""
"1071","","image-keyboard-response","136","860838","0.0-136.0","3X31TUMD7Y8OICRFJRU11H0974AL1G","A32BQNJMLMZYG0","3FW4EL5A3LANKRP91N782LFHPY722Q","","","img/flower6.png","74","1073","1","0","2","0.8,0.2,0.2,0.2,0.8,0.2,0.2,0.2,0.8",""
"null","","html-keyboard-response","137","861155","0.0-137.0","3X31TUMD7Y8OICRFJRU11H0974AL1G","A32BQNJMLMZYG0","3FW4EL5A3LANKRP91N782LFHPY722Q","","","<img src=""img/flower6.png"" style=""width:200px;border:14px solid red;"">","null","","","","","",""
"1217","","image-keyboard-response","138","862382","0.0-138.0","3X31TUMD7Y8OICRFJRU11H0974AL1G","A32BQNJMLMZYG0","3FW4EL5A3LANKRP91N782LFHPY722Q","","","img/flower2.png","75","1228","2","0","3","0.8,0.2,0.2,0.2,0.8,0.2,0.2,0.2,0.8",""
"null","","html-keyboard-response","139","862687","0.0-139.0","3X31TUMD7Y8OICRFJRU11H0974AL1G","A32BQNJMLMZYG0","3FW4EL5A3LANKRP91N782LFHPY722Q","","","<img src=""img/flower2.png"" style=""width:200px;border:14px solid red;"">","null","","","","","",""
"639","","image-keyboard-response","140","863326","0.0-140.0","3X31TUMD7Y8OICRFJRU11H0974AL1G","A32BQNJMLMZYG0","3FW4EL5A3LANKRP91N782LFHPY722Q","","","img/flower2.png","74","639","1","0","3","0.8,0.2,0.2,0.2,0.8,0.2,0.2,0.2,0.8",""
"null","","html-keyboard-response","141","863656","0.0-141.0","3X31TUMD7Y8OICRFJRU11H0974AL1G","A32BQNJMLMZYG0","3FW4EL5A3LANKRP91N782LFHPY722Q","","","<img src=""img/flower2.png"" style=""width:200px;border:14px solid red;"">","null","","","","","",""
"1230","","image-keyboard-response","142","864905","0.0-142.0","3X31TUMD7Y8OICRFJRU11H0974AL1G","A32BQNJMLMZYG0","3FW4EL5A3LANKRP91N782LFHPY722Q","","","img/flower2.png","75","1249","2","0","3","0.8,0.2,0.2,0.2,0.8,0.2,0.2,0.2,0.8",""
"null","","html-keyboard-response","143","865217","0.0-143.0","3X31TUMD7Y8OICRFJRU11H0974AL1G","A32BQNJMLMZYG0","3FW4EL5A3LANKRP91N782LFHPY722Q","","","<img src=""img/flower2.png"" style=""width:200px;border:14px solid red;"">","null","","","","","",""
"719","","image-keyboard-response","144","865946","0.0-144.0","3X31TUMD7Y8OICRFJRU11H0974AL1G","A32BQNJMLMZYG0","3FW4EL5A3LANKRP91N782LFHPY722Q","","","img/flower6.png","75","729","2","1","2","0.8,0.2,0.2,0.2,0.8,0.2,0.2,0.2,0.8",""
"null","","html-keyboard-response","145","866249","0.0-145.0","3X31TUMD7Y8OICRFJRU11H0974AL1G","A32BQNJMLMZYG0","3FW4EL5A3LANKRP91N782LFHPY722Q","","","<img src=""img/flower6.png"" style=""width:200px; border:14px solid green;"">","null","","","","","",""
"4045","","image-keyboard-response","146","870309","0.0-146.0","3X31TUMD7Y8OICRFJRU11H0974AL1G","A32BQNJMLMZYG0","3FW4EL5A3LANKRP91N782LFHPY722Q","","","img/flower6.png","75","4059","2","1","2","0.8,0.2,0.2,0.2,0.8,0.2,0.2,0.2,0.8",""
"null","","html-keyboard-response","147","870625","0.0-147.0","3X31TUMD7Y8OICRFJRU11H0974AL1G","A32BQNJMLMZYG0","3FW4EL5A3LANKRP91N782LFHPY722Q","","","<img src=""img/flower6.png"" style=""width:200px; border:14px solid green;"">","null","","","","","",""
"3013","","image-keyboard-response","148","873642","0.0-148.0","3X31TUMD7Y8OICRFJRU11H0974AL1G","A32BQNJMLMZYG0","3FW4EL5A3LANKRP91N782LFHPY722Q","","","img/flower5.png","75","3017","2","0","1","0.8,0.2,0.2,0.2,0.8,0.2,0.2,0.2,0.8",""
"null","","html-keyboard-response","149","873952","0.0-149.0","3X31TUMD7Y8OICRFJRU11H0974AL1G","A32BQNJMLMZYG0","3FW4EL5A3LANKRP91N782LFHPY722Q","","","<img src=""img/flower5.png"" style=""width:200px;border:14px solid red;"">","null","","","","","",""
"1326","","image-keyboard-response","150","875293","0.0-150.0","3X31TUMD7Y8OICRFJRU11H0974AL1G","A32BQNJMLMZYG0","3FW4EL5A3LANKRP91N782LFHPY722Q","","","img/flower2.png","75","1341","2","0","3","0.8,0.2,0.2,0.2,0.8,0.2,0.2,0.2,0.8",""
"null","","html-keyboard-response","151","875670","0.0-151.0","3X31TUMD7Y8OICRFJRU11H0974AL1G","A32BQNJMLMZYG0","3FW4EL5A3LANKRP91N782LFHPY722Q","","","<img src=""img/flower2.png"" style=""width:200px;border:14px solid red;"">","null","","","","","",""
"967","","image-keyboard-response","152","876641","0.0-152.0","3X31TUMD7Y8OICRFJRU11H0974AL1G","A32BQNJMLMZYG0","3FW4EL5A3LANKRP91N782LFHPY722Q","","","img/flower5.png","75","970","2","0","1","0.8,0.2,0.2,0.2,0.8,0.2,0.2,0.2,0.8",""
"null","","html-keyboard-response","153","876952","0.0-153.0","3X31TUMD7Y8OICRFJRU11H0974AL1G","A32BQNJMLMZYG0","3FW4EL5A3LANKRP91N782LFHPY722Q","","","<img src=""img/flower5.png"" style=""width:200px;border:14px solid red;"">","null","","","","","",""
"1062","","image-keyboard-response","154","878029","0.0-154.0","3X31TUMD7Y8OICRFJRU11H0974AL1G","A32BQNJMLMZYG0","3FW4EL5A3LANKRP91N782LFHPY722Q","","","img/flower6.png","76","1077","3","0","2","0.8,0.2,0.2,0.2,0.8,0.2,0.2,0.2,0.8",""
"null","","html-keyboard-response","155","878343","0.0-155.0","3X31TUMD7Y8OICRFJRU11H0974AL1G","A32BQNJMLMZYG0","3FW4EL5A3LANKRP91N782LFHPY722Q","","","<img src=""img/flower6.png"" style=""width:200px;border:14px solid red;"">","null","","","","","",""
"1061","","image-keyboard-response","156","879418","0.0-156.0","3X31TUMD7Y8OICRFJRU11H0974AL1G","A32BQNJMLMZYG0","3FW4EL5A3LANKRP91N782LFHPY722Q","","","img/flower2.png","76","1075","3","1","3","0.8,0.2,0.2,0.2,0.8,0.2,0.2,0.2,0.8",""
"null","","html-keyboard-response","157","879733","0.0-157.0","3X31TUMD7Y8OICRFJRU11H0974AL1G","A32BQNJMLMZYG0","3FW4EL5A3LANKRP91N782LFHPY722Q","","","<img src=""img/flower2.png"" style=""width:200px; border:14px solid green;"">","null","","","","","",""
"1357","","image-keyboard-response","158","881100","0.0-158.0","3X31TUMD7Y8OICRFJRU11H0974AL1G","A32BQNJMLMZYG0","3FW4EL5A3LANKRP91N782LFHPY722Q","","","img/flower5.png","74","1367","1","1","1","0.8,0.2,0.2,0.2,0.8,0.2,0.2,0.2,0.8",""
"null","","html-keyboard-response","159","881404","0.0-159.0","3X31TUMD7Y8OICRFJRU11H0974AL1G","A32BQNJMLMZYG0","3FW4EL5A3LANKRP91N782LFHPY722Q","","","<img src=""img/flower5.png"" style=""width:200px; border:14px solid green;"">","null","","","","","",""
"3342","","image-keyboard-response","160","884760","0.0-160.0","3X31TUMD7Y8OICRFJRU11H0974AL1G","A32BQNJMLMZYG0","3FW4EL5A3LANKRP91N782LFHPY722Q","","","img/flower2.png","75","3357","2","0","3","0.8,0.2,0.2,0.2,0.8,0.2,0.2,0.2,0.8",""
"null","","html-keyboard-response","161","885078","0.0-161.0","3X31TUMD7Y8OICRFJRU11H0974AL1G","A32BQNJMLMZYG0","3FW4EL5A3LANKRP91N782LFHPY722Q","","","<img src=""img/flower2.png"" style=""width:200px;border:14px solid red;"">","null","","","","","",""
"1034","","image-keyboard-response","162","886126","0.0-162.0","3X31TUMD7Y8OICRFJRU11H0974AL1G","A32BQNJMLMZYG0","3FW4EL5A3LANKRP91N782LFHPY722Q","","","img/flower2.png","75","1038","2","0","3","0.8,0.2,0.2,0.2,0.8,0.2,0.2,0.2,0.8",""
"null","","html-keyboard-response","163","886438","0.0-163.0","3X31TUMD7Y8OICRFJRU11H0974AL1G","A32BQNJMLMZYG0","3FW4EL5A3LANKRP91N782LFHPY722Q","","","<img src=""img/flower2.png"" style=""width:200px;border:14px solid red;"">","null","","","","","",""
"559","","image-keyboard-response","164","887004","0.0-164.0","3X31TUMD7Y8OICRFJRU11H0974AL1G","A32BQNJMLMZYG0","3FW4EL5A3LANKRP91N782LFHPY722Q","","","img/flower2.png","74","566","1","1","3","0.8,0.2,0.2,0.2,0.8,0.2,0.2,0.2,0.8",""
"null","","html-keyboard-response","165","887314","0.0-165.0","3X31TUMD7Y8OICRFJRU11H0974AL1G","A32BQNJMLMZYG0","3FW4EL5A3LANKRP91N782LFHPY722Q","","","<img src=""img/flower2.png"" style=""width:200px; border:14px solid green;"">","null","","","","","",""
"1622","","image-keyboard-response","166","888941","0.0-166.0","3X31TUMD7Y8OICRFJRU11H0974AL1G","A32BQNJMLMZYG0","3FW4EL5A3LANKRP91N782LFHPY722Q","","","img/flower5.png","75","1627","2","0","1","0.8,0.2,0.2,0.2,0.8,0.2,0.2,0.2,0.8",""
"null","","html-keyboard-response","167","889251","0.0-167.0","3X31TUMD7Y8OICRFJRU11H0974AL1G","A32BQNJMLMZYG0","3FW4EL5A3LANKRP91N782LFHPY722Q","","","<img src=""img/flower5.png"" style=""width:200px;border:14px solid red;"">","null","","","","","",""
"731","","image-keyboard-response","168","889990","0.0-168.0","3X31TUMD7Y8OICRFJRU11H0974AL1G","A32BQNJMLMZYG0","3FW4EL5A3LANKRP91N782LFHPY722Q","","","img/flower5.png","76","739","3","1","1","0.8,0.2,0.2,0.2,0.8,0.2,0.2,0.2,0.8",""
"null","","html-keyboard-response","169","890296","0.0-169.0","3X31TUMD7Y8OICRFJRU11H0974AL1G","A32BQNJMLMZYG0","3FW4EL5A3LANKRP91N782LFHPY722Q","","","<img src=""img/flower5.png"" style=""width:200px; border:14px solid green;"">","null","","","","","",""
"542","","image-keyboard-response","170","890840","0.0-170.0","3X31TUMD7Y8OICRFJRU11H0974AL1G","A32BQNJMLMZYG0","3FW4EL5A3LANKRP91N782LFHPY722Q","","","img/flower2.png","76","544","3","1","3","0.8,0.2,0.2,0.2,0.8,0.2,0.2,0.2,0.8",""
"null","","html-keyboard-response","171","891156","0.0-171.0","3X31TUMD7Y8OICRFJRU11H0974AL1G","A32BQNJMLMZYG0","3FW4EL5A3LANKRP91N782LFHPY722Q","","","<img src=""img/flower2.png"" style=""width:200px; border:14px solid green;"">","null","","","","","",""
"1200","","image-keyboard-response","172","892365","0.0-172.0","3X31TUMD7Y8OICRFJRU11H0974AL1G","A32BQNJMLMZYG0","3FW4EL5A3LANKRP91N782LFHPY722Q","","","img/flower2.png","76","1208","3","1","3","0.8,0.2,0.2,0.2,0.8,0.2,0.2,0.2,0.8",""
"null","","html-keyboard-response","173","892670","0.0-173.0","3X31TUMD7Y8OICRFJRU11H0974AL1G","A32BQNJMLMZYG0","3FW4EL5A3LANKRP91N782LFHPY722Q","","","<img src=""img/flower2.png"" style=""width:200px; border:14px solid green;"">","null","","","","","",""
"1016","","image-keyboard-response","174","893697","0.0-174.0","3X31TUMD7Y8OICRFJRU11H0974AL1G","A32BQNJMLMZYG0","3FW4EL5A3LANKRP91N782LFHPY722Q","","","img/flower5.png","75","1027","2","0","1","0.8,0.2,0.2,0.2,0.8,0.2,0.2,0.2,0.8",""
"null","","html-keyboard-response","175","893999","0.0-175.0","3X31TUMD7Y8OICRFJRU11H0974AL1G","A32BQNJMLMZYG0","3FW4EL5A3LANKRP91N782LFHPY722Q","","","<img src=""img/flower5.png"" style=""width:200px;border:14px solid red;"">","null","","","","","",""
"499","","image-keyboard-response","176","894504","0.0-176.0","3X31TUMD7Y8OICRFJRU11H0974AL1G","A32BQNJMLMZYG0","3FW4EL5A3LANKRP91N782LFHPY722Q","","","img/flower6.png","74","505","1","0","2","0.8,0.2,0.2,0.2,0.8,0.2,0.2,0.2,0.8",""
"null","","html-keyboard-response","177","894811","0.0-177.0","3X31TUMD7Y8OICRFJRU11H0974AL1G","A32BQNJMLMZYG0","3FW4EL5A3LANKRP91N782LFHPY722Q","","","<img src=""img/flower6.png"" style=""width:200px;border:14px solid red;"">","null","","","","","",""
"515","","image-keyboard-response","178","895331","0.0-178.0","3X31TUMD7Y8OICRFJRU11H0974AL1G","A32BQNJMLMZYG0","3FW4EL5A3LANKRP91N782LFHPY722Q","","","img/flower6.png","76","520","3","0","2","0.8,0.2,0.2,0.2,0.8,0.2,0.2,0.2,0.8",""
"null","","html-keyboard-response","179","895909","0.0-179.0","3X31TUMD7Y8OICRFJRU11H0974AL1G","A32BQNJMLMZYG0","3FW4EL5A3LANKRP91N782LFHPY722Q","","","<img src=""img/flower6.png"" style=""width:200px;border:14px solid red;"">","null","","","","","",""
"83","","image-keyboard-response","180","895994","0.0-180.0","3X31TUMD7Y8OICRFJRU11H0974AL1G","A32BQNJMLMZYG0","3FW4EL5A3LANKRP91N782LFHPY722Q","","","img/flower5.png","75","85","2","0","1","0.8,0.2,0.2,0.2,0.8,0.2,0.2,0.2,0.8",""
"null","","html-keyboard-response","181","896296","0.0-181.0","3X31TUMD7Y8OICRFJRU11H0974AL1G","A32BQNJMLMZYG0","3FW4EL5A3LANKRP91N782LFHPY722Q","","","<img src=""img/flower5.png"" style=""width:200px;border:14px solid red;"">","null","","","","","",""
"467","","image-keyboard-response","182","896768","0.0-182.0","3X31TUMD7Y8OICRFJRU11H0974AL1G","A32BQNJMLMZYG0","3FW4EL5A3LANKRP91N782LFHPY722Q","","","img/flower6.png","75","472","2","1","2","0.8,0.2,0.2,0.2,0.8,0.2,0.2,0.2,0.8",""
"null","","html-keyboard-response","183","897085","0.0-183.0","3X31TUMD7Y8OICRFJRU11H0974AL1G","A32BQNJMLMZYG0","3FW4EL5A3LANKRP91N782LFHPY722Q","","","<img src=""img/flower6.png"" style=""width:200px; border:14px solid green;"">","null","","","","","",""
"787","","image-keyboard-response","184","897883","0.0-184.0","3X31TUMD7Y8OICRFJRU11H0974AL1G","A32BQNJMLMZYG0","3FW4EL5A3LANKRP91N782LFHPY722Q","","","img/flower6.png","74","798","1","0","2","0.8,0.2,0.2,0.2,0.8,0.2,0.2,0.2,0.8",""
"null","","html-keyboard-response","185","898187","0.0-185.0","3X31TUMD7Y8OICRFJRU11H0974AL1G","A32BQNJMLMZYG0","3FW4EL5A3LANKRP91N782LFHPY722Q","","","<img src=""img/flower6.png"" style=""width:200px;border:14px solid red;"">","null","","","","","",""
"233","","image-keyboard-response","186","898430","0.0-186.0","3X31TUMD7Y8OICRFJRU11H0974AL1G","A32BQNJMLMZYG0","3FW4EL5A3LANKRP91N782LFHPY722Q","","","img/flower6.png","76","243","3","1","2","0.8,0.2,0.2,0.2,0.8,0.2,0.2,0.2,0.8",""
"null","","html-keyboard-response","187","898749","0.0-187.0","3X31TUMD7Y8OICRFJRU11H0974AL1G","A32BQNJMLMZYG0","3FW4EL5A3LANKRP91N782LFHPY722Q","","","<img src=""img/flower6.png"" style=""width:200px; border:14px solid green;"">","null","","","","","",""
"16","","image-keyboard-response","188","898767","0.0-188.0","3X31TUMD7Y8OICRFJRU11H0974AL1G","A32BQNJMLMZYG0","3FW4EL5A3LANKRP91N782LFHPY722Q","","","img/flower2.png","75","18","2","1","3","0.8,0.2,0.2,0.2,0.8,0.2,0.2,0.2,0.8",""
"null","","html-keyboard-response","189","899076","0.0-189.0","3X31TUMD7Y8OICRFJRU11H0974AL1G","A32BQNJMLMZYG0","3FW4EL5A3LANKRP91N782LFHPY722Q","","","<img src=""img/flower2.png"" style=""width:200px; border:14px solid green;"">","null","","","","","",""
"406","","image-keyboard-response","190","899483","0.0-190.0","3X31TUMD7Y8OICRFJRU11H0974AL1G","A32BQNJMLMZYG0","3FW4EL5A3LANKRP91N782LFHPY722Q","","","img/flower5.png","75","411","2","1","1","0.8,0.2,0.2,0.2,0.8,0.2,0.2,0.2,0.8",""
"null","","html-keyboard-response","191","899809","0.0-191.0","3X31TUMD7Y8OICRFJRU11H0974AL1G","A32BQNJMLMZYG0","3FW4EL5A3LANKRP91N782LFHPY722Q","","","<img src=""img/flower5.png"" style=""width:200px; border:14px solid green;"">","null","","","","","",""
"719","","image-keyboard-response","192","900533","0.0-192.0","3X31TUMD7Y8OICRFJRU11H0974AL1G","A32BQNJMLMZYG0","3FW4EL5A3LANKRP91N782LFHPY722Q","","","img/flower5.png","75","723","2","0","1","0.8,0.2,0.2,0.2,0.8,0.2,0.2,0.2,0.8",""
"null","","html-keyboard-response","193","900843","0.0-193.0","3X31TUMD7Y8OICRFJRU11H0974AL1G","A32BQNJMLMZYG0","3FW4EL5A3LANKRP91N782LFHPY722Q","","","<img src=""img/flower5.png"" style=""width:200px;border:14px solid red;"">","null","","","","","",""
"498","","image-keyboard-response","194","901351","0.0-194.0","3X31TUMD7Y8OICRFJRU11H0974AL1G","A32BQNJMLMZYG0","3FW4EL5A3LANKRP91N782LFHPY722Q","","","img/flower2.png","74","507","1","1","3","0.8,0.2,0.2,0.2,0.8,0.2,0.2,0.2,0.8",""
"null","","html-keyboard-response","195","901658","0.0-195.0","3X31TUMD7Y8OICRFJRU11H0974AL1G","A32BQNJMLMZYG0","3FW4EL5A3LANKRP91N782LFHPY722Q","","","<img src=""img/flower2.png"" style=""width:200px; border:14px solid green;"">","null","","","","","",""
"899","","image-keyboard-response","196","902561","0.0-196.0","3X31TUMD7Y8OICRFJRU11H0974AL1G","A32BQNJMLMZYG0","3FW4EL5A3LANKRP91N782LFHPY722Q","","","img/flower5.png","75","902","2","0","1","0.8,0.2,0.2,0.2,0.8,0.2,0.2,0.2,0.8",""
"null","","html-keyboard-response","197","902861","0.0-197.0","3X31TUMD7Y8OICRFJRU11H0974AL1G","A32BQNJMLMZYG0","3FW4EL5A3LANKRP91N782LFHPY722Q","","","<img src=""img/flower5.png"" style=""width:200px;border:14px solid red;"">","null","","","","","",""
"308","","image-keyboard-response","198","903182","0.0-198.0","3X31TUMD7Y8OICRFJRU11H0974AL1G","A32BQNJMLMZYG0","3FW4EL5A3LANKRP91N782LFHPY722Q","","","img/flower5.png","75","321","2","0","1","0.8,0.2,0.2,0.2,0.8,0.2,0.2,0.2,0.8",""
"null","","html-keyboard-response","199","903499","0.0-199.0","3X31TUMD7Y8OICRFJRU11H0974AL1G","A32BQNJMLMZYG0","3FW4EL5A3LANKRP91N782LFHPY722Q","","","<img src=""img/flower5.png"" style=""width:200px;border:14px solid red;"">","null","","","","","",""
"405","","image-keyboard-response","200","903913","0.0-200.0","3X31TUMD7Y8OICRFJRU11H0974AL1G","A32BQNJMLMZYG0","3FW4EL5A3LANKRP91N782LFHPY722Q","","","img/flower5.png","76","413","3","0","1","0.8,0.2,0.2,0.2,0.8,0.2,0.2,0.2,0.8",""
"null","","html-keyboard-response","201","904218","0.0-201.0","3X31TUMD7Y8OICRFJRU11H0974AL1G","A32BQNJMLMZYG0","3FW4EL5A3LANKRP91N782LFHPY722Q","","","<img src=""img/flower5.png"" style=""width:200px;border:14px solid red;"">","null","","","","","",""
"200","","image-keyboard-response","202","904434","0.0-202.0","3X31TUMD7Y8OICRFJRU11H0974AL1G","A32BQNJMLMZYG0","3FW4EL5A3LANKRP91N782LFHPY722Q","","","img/flower2.png","74","215","1","0","3","0.8,0.2,0.2,0.2,0.8,0.2,0.2,0.2,0.8",""
"null","","html-keyboard-response","203","904749","0.0-203.0","3X31TUMD7Y8OICRFJRU11H0974AL1G","A32BQNJMLMZYG0","3FW4EL5A3LANKRP91N782LFHPY722Q","","","<img src=""img/flower2.png"" style=""width:200px;border:14px solid red;"">","null","","","","","",""
"374","","image-keyboard-response","204","905135","0.0-204.0","3X31TUMD7Y8OICRFJRU11H0974AL1G","A32BQNJMLMZYG0","3FW4EL5A3LANKRP91N782LFHPY722Q","","","img/flower2.png","75","386","2","0","3","0.8,0.2,0.2,0.2,0.8,0.2,0.2,0.2,0.8",""
"null","","html-keyboard-response","205","905439","0.0-205.0","3X31TUMD7Y8OICRFJRU11H0974AL1G","A32BQNJMLMZYG0","3FW4EL5A3LANKRP91N782LFHPY722Q","","","<img src=""img/flower2.png"" style=""width:200px;border:14px solid red;"">","null","","","","","",""
"262","","image-keyboard-response","206","905707","0.0-206.0","3X31TUMD7Y8OICRFJRU11H0974AL1G","A32BQNJMLMZYG0","3FW4EL5A3LANKRP91N782LFHPY722Q","","","img/flower2.png","76","268","3","0","3","0.8,0.2,0.2,0.2,0.8,0.2,0.2,0.2,0.8",""
"null","","html-keyboard-response","207","906015","0.0-207.0","3X31TUMD7Y8OICRFJRU11H0974AL1G","A32BQNJMLMZYG0","3FW4EL5A3LANKRP91N782LFHPY722Q","","","<img src=""img/flower2.png"" style=""width:200px;border:14px solid red;"">","null","","","","","",""
"249","","image-keyboard-response","208","906267","0.0-208.0","3X31TUMD7Y8OICRFJRU11H0974AL1G","A32BQNJMLMZYG0","3FW4EL5A3LANKRP91N782LFHPY722Q","","","img/flower2.png","75","252","2","0","3","0.8,0.2,0.2,0.2,0.8,0.2,0.2,0.2,0.8",""
"null","","html-keyboard-response","209","906594","0.0-209.0","3X31TUMD7Y8OICRFJRU11H0974AL1G","A32BQNJMLMZYG0","3FW4EL5A3LANKRP91N782LFHPY722Q","","","<img src=""img/flower2.png"" style=""width:200px;border:14px solid red;"">","null","","","","","",""
"262","","image-keyboard-response","210","906862","0.0-210.0","3X31TUMD7Y8OICRFJRU11H0974AL1G","A32BQNJMLMZYG0","3FW4EL5A3LANKRP91N782LFHPY722Q","","","img/flower2.png","75","267","2","0","3","0.8,0.2,0.2,0.2,0.8,0.2,0.2,0.2,0.8",""
"null","","html-keyboard-response","211","907171","0.0-211.0","3X31TUMD7Y8OICRFJRU11H0974AL1G","A32BQNJMLMZYG0","3FW4EL5A3LANKRP91N782LFHPY722Q","","","<img src=""img/flower2.png"" style=""width:200px;border:14px solid red;"">","null","","","","","",""
"499","","image-keyboard-response","212","907672","0.0-212.0","3X31TUMD7Y8OICRFJRU11H0974AL1G","A32BQNJMLMZYG0","3FW4EL5A3LANKRP91N782LFHPY722Q","","","img/flower6.png","76","501","3","0","2","0.8,0.2,0.2,0.2,0.8,0.2,0.2,0.2,0.8",""
"null","","html-keyboard-response","213","907984","0.0-213.0","3X31TUMD7Y8OICRFJRU11H0974AL1G","A32BQNJMLMZYG0","3FW4EL5A3LANKRP91N782LFHPY722Q","","","<img src=""img/flower6.png"" style=""width:200px;border:14px solid red;"">","null","","","","","",""
"811","","image-keyboard-response","214","908804","0.0-214.0","3X31TUMD7Y8OICRFJRU11H0974AL1G","A32BQNJMLMZYG0","3FW4EL5A3LANKRP91N782LFHPY722Q","","","img/flower6.png","75","820","2","0","2","0.8,0.2,0.2,0.2,0.8,0.2,0.2,0.2,0.8",""
"null","","html-keyboard-response","215","909108","0.0-215.0","3X31TUMD7Y8OICRFJRU11H0974AL1G","A32BQNJMLMZYG0","3FW4EL5A3LANKRP91N782LFHPY722Q","","","<img src=""img/flower6.png"" style=""width:200px;border:14px solid red;"">","null","","","","","",""
"905","","image-keyboard-response","216","910021","0.0-216.0","3X31TUMD7Y8OICRFJRU11H0974AL1G","A32BQNJMLMZYG0","3FW4EL5A3LANKRP91N782LFHPY722Q","","","img/flower5.png","74","912","1","1","1","0.8,0.2,0.2,0.2,0.8,0.2,0.2,0.2,0.8",""
"null","","html-keyboard-response","217","910328","0.0-217.0","3X31TUMD7Y8OICRFJRU11H0974AL1G","A32BQNJMLMZYG0","3FW4EL5A3LANKRP91N782LFHPY722Q","","","<img src=""img/flower5.png"" style=""width:200px; border:14px solid green;"">","null","","","","","",""
"950","","image-keyboard-response","218","911285","0.0-218.0","3X31TUMD7Y8OICRFJRU11H0974AL1G","A32BQNJMLMZYG0","3FW4EL5A3LANKRP91N782LFHPY722Q","","","img/flower6.png","76","957","3","0","2","0.8,0.2,0.2,0.2,0.8,0.2,0.2,0.2,0.8",""
"null","","html-keyboard-response","219","911614","0.0-219.0","3X31TUMD7Y8OICRFJRU11H0974AL1G","A32BQNJMLMZYG0","3FW4EL5A3LANKRP91N782LFHPY722Q","","","<img src=""img/flower6.png"" style=""width:200px;border:14px solid red;"">","null","","","","","",""
"696","","image-keyboard-response","220","912324","0.0-220.0","3X31TUMD7Y8OICRFJRU11H0974AL1G","A32BQNJMLMZYG0","3FW4EL5A3LANKRP91N782LFHPY722Q","","","img/flower6.png","75","710","2","1","2","0.8,0.2,0.2,0.2,0.8,0.2,0.2,0.2,0.8",""
"null","","html-keyboard-response","221","912640","0.0-221.0","3X31TUMD7Y8OICRFJRU11H0974AL1G","A32BQNJMLMZYG0","3FW4EL5A3LANKRP91N782LFHPY722Q","","","<img src=""img/flower6.png"" style=""width:200px; border:14px solid green;"">","null","","","","","",""
"1841","","image-keyboard-response","222","914483","0.0-222.0","3X31TUMD7Y8OICRFJRU11H0974AL1G","A32BQNJMLMZYG0","3FW4EL5A3LANKRP91N782LFHPY722Q","","","img/flower5.png","75","1857","2","0","1","0.8,0.2,0.2,0.2,0.8,0.2,0.2,0.2,0.8",""
"null","","html-keyboard-response","223","914816","0.0-223.0","3X31TUMD7Y8OICRFJRU11H0974AL1G","A32BQNJMLMZYG0","3FW4EL5A3LANKRP91N782LFHPY722Q","","","<img src=""img/flower5.png"" style=""width:200px;border:14px solid red;"">","null","","","","","",""
"526","","image-keyboard-response","224","915345","0.0-224.0","3X31TUMD7Y8OICRFJRU11H0974AL1G","A32BQNJMLMZYG0","3FW4EL5A3LANKRP91N782LFHPY722Q","","","img/flower6.png","75","529","2","1","2","0.8,0.2,0.2,0.2,0.8,0.2,0.2,0.2,0.8",""
"null","","html-keyboard-response","225","915656","0.0-225.0","3X31TUMD7Y8OICRFJRU11H0974AL1G","A32BQNJMLMZYG0","3FW4EL5A3LANKRP91N782LFHPY722Q","","","<img src=""img/flower6.png"" style=""width:200px; border:14px solid green;"">","null","","","","","",""
"951","","image-keyboard-response","226","916621","0.0-226.0","3X31TUMD7Y8OICRFJRU11H0974AL1G","A32BQNJMLMZYG0","3FW4EL5A3LANKRP91N782LFHPY722Q","","","img/flower5.png","75","965","2","0","1","0.8,0.2,0.2,0.2,0.8,0.2,0.2,0.2,0.8",""
"null","","html-keyboard-response","227","916937","0.0-227.0","3X31TUMD7Y8OICRFJRU11H0974AL1G","A32BQNJMLMZYG0","3FW4EL5A3LANKRP91N782LFHPY722Q","","","<img src=""img/flower5.png"" style=""width:200px;border:14px solid red;"">","null","","","","","",""
"545","","image-keyboard-response","228","917494","0.0-228.0","3X31TUMD7Y8OICRFJRU11H0974AL1G","A32BQNJMLMZYG0","3FW4EL5A3LANKRP91N782LFHPY722Q","","","img/flower2.png","74","557","1","0","3","0.8,0.2,0.2,0.2,0.8,0.2,0.2,0.2,0.8",""
"null","","html-keyboard-response","229","917815","0.0-229.0","3X31TUMD7Y8OICRFJRU11H0974AL1G","A32BQNJMLMZYG0","3FW4EL5A3LANKRP91N782LFHPY722Q","","","<img src=""img/flower2.png"" style=""width:200px;border:14px solid red;"">","null","","","","","",""
"699","","image-keyboard-response","230","918524","0.0-230.0","3X31TUMD7Y8OICRFJRU11H0974AL1G","A32BQNJMLMZYG0","3FW4EL5A3LANKRP91N782LFHPY722Q","","","img/flower2.png","75","709","2","1","3","0.8,0.2,0.2,0.2,0.8,0.2,0.2,0.2,0.8",""
"null","","html-keyboard-response","231","918827","0.0-231.0","3X31TUMD7Y8OICRFJRU11H0974AL1G","A32BQNJMLMZYG0","3FW4EL5A3LANKRP91N782LFHPY722Q","","","<img src=""img/flower2.png"" style=""width:200px; border:14px solid green;"">","null","","","","","",""
"1577","","image-keyboard-response","232","920408","0.0-232.0","3X31TUMD7Y8OICRFJRU11H0974AL1G","A32BQNJMLMZYG0","3FW4EL5A3LANKRP91N782LFHPY722Q","","","img/flower5.png","75","1581","2","0","1","0.8,0.2,0.2,0.2,0.8,0.2,0.2,0.2,0.8",""
"null","","html-keyboard-response","233","920718","0.0-233.0","3X31TUMD7Y8OICRFJRU11H0974AL1G","A32BQNJMLMZYG0","3FW4EL5A3LANKRP91N782LFHPY722Q","","","<img src=""img/flower5.png"" style=""width:200px;border:14px solid red;"">","null","","","","","",""
"686","","image-keyboard-response","234","921411","0.0-234.0","3X31TUMD7Y8OICRFJRU11H0974AL1G","A32BQNJMLMZYG0","3FW4EL5A3LANKRP91N782LFHPY722Q","","","img/flower2.png","75","693","2","1","3","0.8,0.2,0.2,0.2,0.8,0.2,0.2,0.2,0.8",""
"null","","html-keyboard-response","235","921721","0.0-235.0","3X31TUMD7Y8OICRFJRU11H0974AL1G","A32BQNJMLMZYG0","3FW4EL5A3LANKRP91N782LFHPY722Q","","","<img src=""img/flower2.png"" style=""width:200px; border:14px solid green;"">","null","","","","","",""
"1165","","image-keyboard-response","236","922900","0.0-236.0","3X31TUMD7Y8OICRFJRU11H0974AL1G","A32BQNJMLMZYG0","3FW4EL5A3LANKRP91N782LFHPY722Q","","","img/flower2.png","74","1178","1","0","3","0.8,0.2,0.2,0.2,0.8,0.2,0.2,0.2,0.8",""
"null","","html-keyboard-response","237","923218","0.0-237.0","3X31TUMD7Y8OICRFJRU11H0974AL1G","A32BQNJMLMZYG0","3FW4EL5A3LANKRP91N782LFHPY722Q","","","<img src=""img/flower2.png"" style=""width:200px;border:14px solid red;"">","null","","","","","",""
"633","","image-keyboard-response","238","923862","0.0-238.0","3X31TUMD7Y8OICRFJRU11H0974AL1G","A32BQNJMLMZYG0","3FW4EL5A3LANKRP91N782LFHPY722Q","","","img/flower6.png","75","638","2","1","2","0.8,0.2,0.2,0.2,0.8,0.2,0.2,0.2,0.8",""
"null","","html-keyboard-response","239","924187","0.0-239.0","3X31TUMD7Y8OICRFJRU11H0974AL1G","A32BQNJMLMZYG0","3FW4EL5A3LANKRP91N782LFHPY722Q","","","<img src=""img/flower6.png"" style=""width:200px; border:14px solid green;"">","null","","","","","",""
"951","","image-keyboard-response","240","925154","0.0-240.0","3X31TUMD7Y8OICRFJRU11H0974AL1G","A32BQNJMLMZYG0","3FW4EL5A3LANKRP91N782LFHPY722Q","","","img/flower5.png","76","966","3","0","1","0.8,0.2,0.2,0.2,0.8,0.2,0.2,0.2,0.8",""
"null","","html-keyboard-response","241","925483","0.0-241.0","3X31TUMD7Y8OICRFJRU11H0974AL1G","A32BQNJMLMZYG0","3FW4EL5A3LANKRP91N782LFHPY722Q","","","<img src=""img/flower5.png"" style=""width:200px;border:14px solid red;"">","null","","","","","",""
"701","","image-keyboard-response","242","926197","0.0-242.0","3X31TUMD7Y8OICRFJRU11H0974AL1G","A32BQNJMLMZYG0","3FW4EL5A3LANKRP91N782LFHPY722Q","","","img/flower5.png","74","714","1","1","1","0.8,0.2,0.2,0.2,0.8,0.2,0.2,0.2,0.8",""
"null","","html-keyboard-response","243","926500","0.0-243.0","3X31TUMD7Y8OICRFJRU11H0974AL1G","A32BQNJMLMZYG0","3FW4EL5A3LANKRP91N782LFHPY722Q","","","<img src=""img/flower5.png"" style=""width:200px; border:14px solid green;"">","null","","","","","",""
"776","","image-keyboard-response","244","927277","0.0-244.0","3X31TUMD7Y8OICRFJRU11H0974AL1G","A32BQNJMLMZYG0","3FW4EL5A3LANKRP91N782LFHPY722Q","","","img/flower5.png","75","777","2","0","1","0.8,0.2,0.2,0.2,0.8,0.2,0.2,0.2,0.8",""
"null","","html-keyboard-response","245","927593","0.0-245.0","3X31TUMD7Y8OICRFJRU11H0974AL1G","A32BQNJMLMZYG0","3FW4EL5A3LANKRP91N782LFHPY722Q","","","<img src=""img/flower5.png"" style=""width:200px;border:14px solid red;"">","null","","","","","",""
"1196","","image-keyboard-response","246","928799","0.0-246.0","3X31TUMD7Y8OICRFJRU11H0974AL1G","A32BQNJMLMZYG0","3FW4EL5A3LANKRP91N782LFHPY722Q","","","img/flower6.png","75","1201","2","0","2","0.8,0.2,0.2,0.2,0.8,0.2,0.2,0.2,0.8",""
"null","","html-keyboard-response","247","929108","0.0-247.0","3X31TUMD7Y8OICRFJRU11H0974AL1G","A32BQNJMLMZYG0","3FW4EL5A3LANKRP91N782LFHPY722Q","","","<img src=""img/flower6.png"" style=""width:200px;border:14px solid red;"">","null","","","","","",""
"459","","image-keyboard-response","248","929570","0.0-248.0","3X31TUMD7Y8OICRFJRU11H0974AL1G","A32BQNJMLMZYG0","3FW4EL5A3LANKRP91N782LFHPY722Q","","","img/flower2.png","76","462","3","1","3","0.8,0.2,0.2,0.2,0.8,0.2,0.2,0.2,0.8",""
"null","","html-keyboard-response","249","929871","0.0-249.0","3X31TUMD7Y8OICRFJRU11H0974AL1G","A32BQNJMLMZYG0","3FW4EL5A3LANKRP91N782LFHPY722Q","","","<img src=""img/flower2.png"" style=""width:200px; border:14px solid green;"">","null","","","","","",""
"1048","","image-keyboard-response","250","930924","0.0-250.0","3X31TUMD7Y8OICRFJRU11H0974AL1G","A32BQNJMLMZYG0","3FW4EL5A3LANKRP91N782LFHPY722Q","","","img/flower6.png","74","1052","1","1","2","0.8,0.2,0.2,0.2,0.8,0.2,0.2,0.2,0.8",""
"null","","html-keyboard-response","251","931234","0.0-251.0","3X31TUMD7Y8OICRFJRU11H0974AL1G","A32BQNJMLMZYG0","3FW4EL5A3LANKRP91N782LFHPY722Q","","","<img src=""img/flower6.png"" style=""width:200px; border:14px solid green;"">","null","","","","","",""
"702","","image-keyboard-response","252","931947","0.0-252.0","3X31TUMD7Y8OICRFJRU11H0974AL1G","A32BQNJMLMZYG0","3FW4EL5A3LANKRP91N782LFHPY722Q","","","img/flower6.png","75","713","2","1","2","0.8,0.2,0.2,0.2,0.8,0.2,0.2,0.2,0.8",""
"null","","html-keyboard-response","253","932250","0.0-253.0","3X31TUMD7Y8OICRFJRU11H0974AL1G","A32BQNJMLMZYG0","3FW4EL5A3LANKRP91N782LFHPY722Q","","","<img src=""img/flower6.png"" style=""width:200px; border:14px solid green;"">","null","","","","","",""
"2138","","image-keyboard-response","254","934398","0.0-254.0","3X31TUMD7Y8OICRFJRU11H0974AL1G","A32BQNJMLMZYG0","3FW4EL5A3LANKRP91N782LFHPY722Q","","","img/flower6.png","75","2148","2","1","2","0.8,0.2,0.2,0.2,0.8,0.2,0.2,0.2,0.8",""
"null","","html-keyboard-response","255","934705","0.0-255.0","3X31TUMD7Y8OICRFJRU11H0974AL1G","A32BQNJMLMZYG0","3FW4EL5A3LANKRP91N782LFHPY722Q","","","<img src=""img/flower6.png"" style=""width:200px; border:14px solid green;"">","null","","","","","",""
"947","","image-keyboard-response","256","935660","0.0-256.0","3X31TUMD7Y8OICRFJRU11H0974AL1G","A32BQNJMLMZYG0","3FW4EL5A3LANKRP91N782LFHPY722Q","","","img/flower6.png","75","954","2","1","2","0.8,0.2,0.2,0.2,0.8,0.2,0.2,0.2,0.8",""
"null","","html-keyboard-response","257","935967","0.0-257.0","3X31TUMD7Y8OICRFJRU11H0974AL1G","A32BQNJMLMZYG0","3FW4EL5A3LANKRP91N782LFHPY722Q","","","<img src=""img/flower6.png"" style=""width:200px; border:14px solid green;"">","null","","","","","",""
"1061","","image-keyboard-response","258","937042","0.0-258.0","3X31TUMD7Y8OICRFJRU11H0974AL1G","A32BQNJMLMZYG0","3FW4EL5A3LANKRP91N782LFHPY722Q","","","img/flower2.png","76","1074","3","1","3","0.8,0.2,0.2,0.2,0.8,0.2,0.2,0.2,0.8",""
"null","","html-keyboard-response","259","937358","0.0-259.0","3X31TUMD7Y8OICRFJRU11H0974AL1G","A32BQNJMLMZYG0","3FW4EL5A3LANKRP91N782LFHPY722Q","","","<img src=""img/flower2.png"" style=""width:200px; border:14px solid green;"">","null","","","","","",""
"874","","image-keyboard-response","260","938248","0.0-260.0","3X31TUMD7Y8OICRFJRU11H0974AL1G","A32BQNJMLMZYG0","3FW4EL5A3LANKRP91N782LFHPY722Q","","","img/flower2.png","76","890","3","1","3","0.8,0.2,0.2,0.2,0.8,0.2,0.2,0.2,0.8",""
"null","","html-keyboard-response","261","938581","0.0-261.0","3X31TUMD7Y8OICRFJRU11H0974AL1G","A32BQNJMLMZYG0","3FW4EL5A3LANKRP91N782LFHPY722Q","","","<img src=""img/flower2.png"" style=""width:200px; border:14px solid green;"">","null","","","","","",""
"1222","","image-keyboard-response","262","939826","0.0-262.0","3X31TUMD7Y8OICRFJRU11H0974AL1G","A32BQNJMLMZYG0","3FW4EL5A3LANKRP91N782LFHPY722Q","","","img/flower5.png","74","1238","1","1","1","0.8,0.2,0.2,0.2,0.8,0.2,0.2,0.2,0.8",""
"null","","html-keyboard-response","263","940149","0.0-263.0","3X31TUMD7Y8OICRFJRU11H0974AL1G","A32BQNJMLMZYG0","3FW4EL5A3LANKRP91N782LFHPY722Q","","","<img src=""img/flower5.png"" style=""width:200px; border:14px solid green;"">","null","","","","","",""
"878","","image-keyboard-response","264","941058","0.0-264.0","3X31TUMD7Y8OICRFJRU11H0974AL1G","A32BQNJMLMZYG0","3FW4EL5A3LANKRP91N782LFHPY722Q","","","img/flower5.png","74","910","1","1","1","0.8,0.2,0.2,0.2,0.8,0.2,0.2,0.2,0.8",""
"null","","html-keyboard-response","265","941375","0.0-265.0","3X31TUMD7Y8OICRFJRU11H0974AL1G","A32BQNJMLMZYG0","3FW4EL5A3LANKRP91N782LFHPY722Q","","","<img src=""img/flower5.png"" style=""width:200px; border:14px solid green;"">","null","","","","","",""
"1058","","image-keyboard-response","266","942451","0.0-266.0","3X31TUMD7Y8OICRFJRU11H0974AL1G","A32BQNJMLMZYG0","3FW4EL5A3LANKRP91N782LFHPY722Q","","","img/flower2.png","75","1075","2","0","3","0.8,0.2,0.2,0.2,0.8,0.2,0.2,0.2,0.8",""
"null","","html-keyboard-response","267","942765","0.0-267.0","3X31TUMD7Y8OICRFJRU11H0974AL1G","A32BQNJMLMZYG0","3FW4EL5A3LANKRP91N782LFHPY722Q","","","<img src=""img/flower2.png"" style=""width:200px;border:14px solid red;"">","null","","","","","",""
"982","","image-keyboard-response","268","943757","0.0-268.0","3X31TUMD7Y8OICRFJRU11H0974AL1G","A32BQNJMLMZYG0","3FW4EL5A3LANKRP91N782LFHPY722Q","","","img/flower5.png","74","992","1","1","1","0.8,0.2,0.2,0.2,0.8,0.2,0.2,0.2,0.8",""
"null","","html-keyboard-response","269","944062","0.0-269.0","3X31TUMD7Y8OICRFJRU11H0974AL1G","A32BQNJMLMZYG0","3FW4EL5A3LANKRP91N782LFHPY722Q","","","<img src=""img/flower5.png"" style=""width:200px; border:14px solid green;"">","null","","","","","",""
"1249","","image-keyboard-response","270","945325","0.0-270.0","3X31TUMD7Y8OICRFJRU11H0974AL1G","A32BQNJMLMZYG0","3FW4EL5A3LANKRP91N782LFHPY722Q","","","img/flower5.png","74","1263","1","0","1","0.8,0.2,0.2,0.2,0.8,0.2,0.2,0.2,0.8",""
"null","","html-keyboard-response","271","945641","0.0-271.0","3X31TUMD7Y8OICRFJRU11H0974AL1G","A32BQNJMLMZYG0","3FW4EL5A3LANKRP91N782LFHPY722Q","","","<img src=""img/flower5.png"" style=""width:200px;border:14px solid red;"">","null","","","","","",""
"778","","image-keyboard-response","272","946432","0.0-272.0","3X31TUMD7Y8OICRFJRU11H0974AL1G","A32BQNJMLMZYG0","3FW4EL5A3LANKRP91N782LFHPY722Q","","","img/flower5.png","76","791","3","1","1","0.8,0.2,0.2,0.2,0.8,0.2,0.2,0.2,0.8",""
"null","","html-keyboard-response","273","946748","0.0-273.0","3X31TUMD7Y8OICRFJRU11H0974AL1G","A32BQNJMLMZYG0","3FW4EL5A3LANKRP91N782LFHPY722Q","","","<img src=""img/flower5.png"" style=""width:200px; border:14px solid green;"">","null","","","","","",""
"1108","","image-keyboard-response","274","947867","0.0-274.0","3X31TUMD7Y8OICRFJRU11H0974AL1G","A32BQNJMLMZYG0","3FW4EL5A3LANKRP91N782LFHPY722Q","","","img/flower6.png","74","1119","1","1","2","0.8,0.2,0.2,0.2,0.8,0.2,0.2,0.2,0.8",""
"null","","html-keyboard-response","275","948168","0.0-275.0","3X31TUMD7Y8OICRFJRU11H0974AL1G","A32BQNJMLMZYG0","3FW4EL5A3LANKRP91N782LFHPY722Q","","","<img src=""img/flower6.png"" style=""width:200px; border:14px solid green;"">","null","","","","","",""
"939","","image-keyboard-response","276","949117","0.0-276.0","3X31TUMD7Y8OICRFJRU11H0974AL1G","A32BQNJMLMZYG0","3FW4EL5A3LANKRP91N782LFHPY722Q","","","img/flower5.png","75","949","2","0","1","0.8,0.2,0.2,0.2,0.8,0.2,0.2,0.2,0.8",""
"null","","html-keyboard-response","277","949424","0.0-277.0","3X31TUMD7Y8OICRFJRU11H0974AL1G","A32BQNJMLMZYG0","3FW4EL5A3LANKRP91N782LFHPY722Q","","","<img src=""img/flower5.png"" style=""width:200px;border:14px solid red;"">","null","","","","","",""
"1042","","image-keyboard-response","278","950482","0.0-278.0","3X31TUMD7Y8OICRFJRU11H0974AL1G","A32BQNJMLMZYG0","3FW4EL5A3LANKRP91N782LFHPY722Q","","","img/flower6.png","74","1058","1","1","2","0.8,0.2,0.2,0.2,0.8,0.2,0.2,0.2,0.8",""
"null","","html-keyboard-response","279","950796","0.0-279.0","3X31TUMD7Y8OICRFJRU11H0974AL1G","A32BQNJMLMZYG0","3FW4EL5A3LANKRP91N782LFHPY722Q","","","<img src=""img/flower6.png"" style=""width:200px; border:14px solid green;"">","null","","","","","",""
"1326","","image-keyboard-response","280","952131","0.0-280.0","3X31TUMD7Y8OICRFJRU11H0974AL1G","A32BQNJMLMZYG0","3FW4EL5A3LANKRP91N782LFHPY722Q","","","img/flower6.png","74","1335","1","0","2","0.8,0.2,0.2,0.2,0.8,0.2,0.2,0.2,0.8",""
"null","","html-keyboard-response","281","952444","0.0-281.0","3X31TUMD7Y8OICRFJRU11H0974AL1G","A32BQNJMLMZYG0","3FW4EL5A3LANKRP91N782LFHPY722Q","","","<img src=""img/flower6.png"" style=""width:200px;border:14px solid red;"">","null","","","","","",""
"819","","image-keyboard-response","282","953275","0.0-282.0","3X31TUMD7Y8OICRFJRU11H0974AL1G","A32BQNJMLMZYG0","3FW4EL5A3LANKRP91N782LFHPY722Q","","","img/flower2.png","76","831","3","1","3","0.8,0.2,0.2,0.2,0.8,0.2,0.2,0.2,0.8",""
"null","","html-keyboard-response","283","953577","0.0-283.0","3X31TUMD7Y8OICRFJRU11H0974AL1G","A32BQNJMLMZYG0","3FW4EL5A3LANKRP91N782LFHPY722Q","","","<img src=""img/flower2.png"" style=""width:200px; border:14px solid green;"">","null","","","","","",""
"968","","image-keyboard-response","284","954558","0.0-284.0","3X31TUMD7Y8OICRFJRU11H0974AL1G","A32BQNJMLMZYG0","3FW4EL5A3LANKRP91N782LFHPY722Q","","","img/flower5.png","75","981","2","0","1","0.8,0.2,0.2,0.2,0.8,0.2,0.2,0.2,0.8",""
"null","","html-keyboard-response","285","954874","0.0-285.0","3X31TUMD7Y8OICRFJRU11H0974AL1G","A32BQNJMLMZYG0","3FW4EL5A3LANKRP91N782LFHPY722Q","","","<img src=""img/flower5.png"" style=""width:200px;border:14px solid red;"">","null","","","","","",""
"577","","image-keyboard-response","286","955458","0.0-286.0","3X31TUMD7Y8OICRFJRU11H0974AL1G","A32BQNJMLMZYG0","3FW4EL5A3LANKRP91N782LFHPY722Q","","","img/flower5.png","74","583","1","1","1","0.8,0.2,0.2,0.2,0.8,0.2,0.2,0.2,0.8",""
"null","","html-keyboard-response","287","955765","0.0-287.0","3X31TUMD7Y8OICRFJRU11H0974AL1G","A32BQNJMLMZYG0","3FW4EL5A3LANKRP91N782LFHPY722Q","","","<img src=""img/flower5.png"" style=""width:200px; border:14px solid green;"">","null","","","","","",""
"1170","","image-keyboard-response","288","956940","0.0-288.0","3X31TUMD7Y8OICRFJRU11H0974AL1G","A32BQNJMLMZYG0","3FW4EL5A3LANKRP91N782LFHPY722Q","","","img/flower2.png","75","1175","2","0","3","0.8,0.2,0.2,0.2,0.8,0.2,0.2,0.2,0.8",""
"null","","html-keyboard-response","289","957240","0.0-289.0","3X31TUMD7Y8OICRFJRU11H0974AL1G","A32BQNJMLMZYG0","3FW4EL5A3LANKRP91N782LFHPY722Q","","","<img src=""img/flower2.png"" style=""width:200px;border:14px solid red;"">","null","","","","","",""
"477","","image-keyboard-response","290","957731","0.0-290.0","3X31TUMD7Y8OICRFJRU11H0974AL1G","A32BQNJMLMZYG0","3FW4EL5A3LANKRP91N782LFHPY722Q","","","img/flower6.png","76","491","3","1","2","0.8,0.2,0.2,0.2,0.8,0.2,0.2,0.2,0.8",""
"null","","html-keyboard-response","291","958046","0.0-291.0","3X31TUMD7Y8OICRFJRU11H0974AL1G","A32BQNJMLMZYG0","3FW4EL5A3LANKRP91N782LFHPY722Q","","","<img src=""img/flower6.png"" style=""width:200px; border:14px solid green;"">","null","","","","","",""
"608","","image-keyboard-response","292","958659","0.0-292.0","3X31TUMD7Y8OICRFJRU11H0974AL1G","A32BQNJMLMZYG0","3FW4EL5A3LANKRP91N782LFHPY722Q","","","img/flower5.png","74","613","1","1","1","0.8,0.2,0.2,0.2,0.8,0.2,0.2,0.2,0.8",""
"null","","html-keyboard-response","293","958970","0.0-293.0","3X31TUMD7Y8OICRFJRU11H0974AL1G","A32BQNJMLMZYG0","3FW4EL5A3LANKRP91N782LFHPY722Q","","","<img src=""img/flower5.png"" style=""width:200px; border:14px solid green;"">","null","","","","","",""
"605","","image-keyboard-response","294","959578","0.0-294.0","3X31TUMD7Y8OICRFJRU11H0974AL1G","A32BQNJMLMZYG0","3FW4EL5A3LANKRP91N782LFHPY722Q","","","img/flower5.png","76","608","3","0","1","0.8,0.2,0.2,0.2,0.8,0.2,0.2,0.2,0.8",""
"null","","html-keyboard-response","295","959880","0.0-295.0","3X31TUMD7Y8OICRFJRU11H0974AL1G","A32BQNJMLMZYG0","3FW4EL5A3LANKRP91N782LFHPY722Q","","","<img src=""img/flower5.png"" style=""width:200px;border:14px solid red;"">","null","","","","","",""
"492","","image-keyboard-response","296","960387","0.0-296.0","3X31TUMD7Y8OICRFJRU11H0974AL1G","A32BQNJMLMZYG0","3FW4EL5A3LANKRP91N782LFHPY722Q","","","img/flower6.png","75","507","2","1","2","0.8,0.2,0.2,0.2,0.8,0.2,0.2,0.2,0.8",""
"null","","html-keyboard-response","297","960702","0.0-297.0","3X31TUMD7Y8OICRFJRU11H0974AL1G","A32BQNJMLMZYG0","3FW4EL5A3LANKRP91N782LFHPY722Q","","","<img src=""img/flower6.png"" style=""width:200px; border:14px solid green;"">","null","","","","","",""
"653","","image-keyboard-response","298","961374","0.0-298.0","3X31TUMD7Y8OICRFJRU11H0974AL1G","A32BQNJMLMZYG0","3FW4EL5A3LANKRP91N782LFHPY722Q","","","img/flower6.png","74","671","1","0","2","0.8,0.2,0.2,0.2,0.8,0.2,0.2,0.2,0.8",""
"null","","html-keyboard-response","299","961716","0.0-299.0","3X31TUMD7Y8OICRFJRU11H0974AL1G","A32BQNJMLMZYG0","3FW4EL5A3LANKRP91N782LFHPY722Q","","","<img src=""img/flower6.png"" style=""width:200px;border:14px solid red;"">","null","","","","","",""
"390","","image-keyboard-response","300","962117","0.0-300.0","3X31TUMD7Y8OICRFJRU11H0974AL1G","A32BQNJMLMZYG0","3FW4EL5A3LANKRP91N782LFHPY722Q","","","img/flower5.png","76","401","3","0","1","0.8,0.2,0.2,0.2,0.8,0.2,0.2,0.2,0.8",""
"null","","html-keyboard-response","301","962422","0.0-301.0","3X31TUMD7Y8OICRFJRU11H0974AL1G","A32BQNJMLMZYG0","3FW4EL5A3LANKRP91N782LFHPY722Q","","","<img src=""img/flower5.png"" style=""width:200px;border:14px solid red;"">","null","","","","","",""
"935","","image-keyboard-response","302","963367","0.0-302.0","3X31TUMD7Y8OICRFJRU11H0974AL1G","A32BQNJMLMZYG0","3FW4EL5A3LANKRP91N782LFHPY722Q","","","img/flower2.png","75","945","2","0","3","0.8,0.2,0.2,0.2,0.8,0.2,0.2,0.2,0.8",""
"null","","html-keyboard-response","303","963730","0.0-303.0","3X31TUMD7Y8OICRFJRU11H0974AL1G","A32BQNJMLMZYG0","3FW4EL5A3LANKRP91N782LFHPY722Q","","","<img src=""img/flower2.png"" style=""width:200px;border:14px solid red;"">","null","","","","","",""
"377","","image-keyboard-response","304","964111","0.0-304.0","3X31TUMD7Y8OICRFJRU11H0974AL1G","A32BQNJMLMZYG0","3FW4EL5A3LANKRP91N782LFHPY722Q","","","img/flower6.png","74","381","1","0","2","0.8,0.2,0.2,0.2,0.8,0.2,0.2,0.2,0.8",""
"null","","html-keyboard-response","305","964420","0.0-305.0","3X31TUMD7Y8OICRFJRU11H0974AL1G","A32BQNJMLMZYG0","3FW4EL5A3LANKRP91N782LFHPY722Q","","","<img src=""img/flower6.png"" style=""width:200px;border:14px solid red;"">","null","","","","","",""
"","","html-keyboard-response","306","1129125","0.0-306.0","3X31TUMD7Y8OICRFJRU11H0974AL1G","A32BQNJMLMZYG0","3FW4EL5A3LANKRP91N782LFHPY722Q","","","","","","","","","",""
"3669","","image-keyboard-response","307","1132797","0.0-307.0","3X31TUMD7Y8OICRFJRU11H0974AL1G","A32BQNJMLMZYG0","3FW4EL5A3LANKRP91N782LFHPY722Q","","","img/flower7.png","74","3673","1","1","3","0.8,0.8,0.2,0.2,0.8,0.8,0.8,0.2,0.8",""
"null","","html-keyboard-response","308","1133108","0.0-308.0","3X31TUMD7Y8OICRFJRU11H0974AL1G","A32BQNJMLMZYG0","3FW4EL5A3LANKRP91N782LFHPY722Q","","","<img src=""img/flower7.png"" style=""width:200px; border:14px solid green;"">","null","","","","","",""
"953","","image-keyboard-response","309","1134061","0.0-309.0","3X31TUMD7Y8OICRFJRU11H0974AL1G","A32BQNJMLMZYG0","3FW4EL5A3LANKRP91N782LFHPY722Q","","","img/flower9.png","75","953","2","1","2","0.8,0.8,0.2,0.2,0.8,0.8,0.8,0.2,0.8",""
"null","","html-keyboard-response","310","1134390","0.0-310.0","3X31TUMD7Y8OICRFJRU11H0974AL1G","A32BQNJMLMZYG0","3FW4EL5A3LANKRP91N782LFHPY722Q","","","<img src=""img/flower9.png"" style=""width:200px; border:14px solid green;"">","null","","","","","",""
"1325","","image-keyboard-response","311","1135717","0.0-311.0","3X31TUMD7Y8OICRFJRU11H0974AL1G","A32BQNJMLMZYG0","3FW4EL5A3LANKRP91N782LFHPY722Q","","","img/flower9.png","75","1326","2","1","2","0.8,0.8,0.2,0.2,0.8,0.8,0.8,0.2,0.8",""
"null","","html-keyboard-response","312","1136061","0.0-312.0","3X31TUMD7Y8OICRFJRU11H0974AL1G","A32BQNJMLMZYG0","3FW4EL5A3LANKRP91N782LFHPY722Q","","","<img src=""img/flower9.png"" style=""width:200px; border:14px solid green;"">","null","","","","","",""
"2030","","image-keyboard-response","313","1138106","0.0-313.0","3X31TUMD7Y8OICRFJRU11H0974AL1G","A32BQNJMLMZYG0","3FW4EL5A3LANKRP91N782LFHPY722Q","","","img/flower3.png","74","2044","1","1","1","0.8,0.8,0.2,0.2,0.8,0.8,0.8,0.2,0.8",""
"null","","html-keyboard-response","314","1138421","0.0-314.0","3X31TUMD7Y8OICRFJRU11H0974AL1G","A32BQNJMLMZYG0","3FW4EL5A3LANKRP91N782LFHPY722Q","","","<img src=""img/flower3.png"" style=""width:200px; border:14px solid green;"">","null","","","","","",""
"671","","image-keyboard-response","315","1139101","0.0-315.0","3X31TUMD7Y8OICRFJRU11H0974AL1G","A32BQNJMLMZYG0","3FW4EL5A3LANKRP91N782LFHPY722Q","","","img/flower3.png","74","681","1","1","1","0.8,0.8,0.2,0.2,0.8,0.8,0.8,0.2,0.8",""
"null","","html-keyboard-response","316","1139405","0.0-316.0","3X31TUMD7Y8OICRFJRU11H0974AL1G","A32BQNJMLMZYG0","3FW4EL5A3LANKRP91N782LFHPY722Q","","","<img src=""img/flower3.png"" style=""width:200px; border:14px solid green;"">","null","","","","","",""
"1030","","image-keyboard-response","317","1140438","0.0-317.0","3X31TUMD7Y8OICRFJRU11H0974AL1G","A32BQNJMLMZYG0","3FW4EL5A3LANKRP91N782LFHPY722Q","","","img/flower9.png","75","1033","2","0","2","0.8,0.8,0.2,0.2,0.8,0.8,0.8,0.2,0.8",""
"null","","html-keyboard-response","318","1140749","0.0-318.0","3X31TUMD7Y8OICRFJRU11H0974AL1G","A32BQNJMLMZYG0","3FW4EL5A3LANKRP91N782LFHPY722Q","","","<img src=""img/flower9.png"" style=""width:200px;border:14px solid red;"">","null","","","","","",""
"1264","","image-keyboard-response","319","1142026","0.0-319.0","3X31TUMD7Y8OICRFJRU11H0974AL1G","A32BQNJMLMZYG0","3FW4EL5A3LANKRP91N782LFHPY722Q","","","img/flower3.png","74","1277","1","1","1","0.8,0.8,0.2,0.2,0.8,0.8,0.8,0.2,0.8",""
"null","","html-keyboard-response","320","1142328","0.0-320.0","3X31TUMD7Y8OICRFJRU11H0974AL1G","A32BQNJMLMZYG0","3FW4EL5A3LANKRP91N782LFHPY722Q","","","<img src=""img/flower3.png"" style=""width:200px; border:14px solid green;"">","null","","","","","",""
"1044","","image-keyboard-response","321","1143379","0.0-321.0","3X31TUMD7Y8OICRFJRU11H0974AL1G","A32BQNJMLMZYG0","3FW4EL5A3LANKRP91N782LFHPY722Q","","","img/flower3.png","74","1050","1","1","1","0.8,0.8,0.2,0.2,0.8,0.8,0.8,0.2,0.8",""
"null","","html-keyboard-response","322","1143725","0.0-322.0","3X31TUMD7Y8OICRFJRU11H0974AL1G","A32BQNJMLMZYG0","3FW4EL5A3LANKRP91N782LFHPY722Q","","","<img src=""img/flower3.png"" style=""width:200px; border:14px solid green;"">","null","","","","","",""
"758","","image-keyboard-response","323","1144485","0.0-323.0","3X31TUMD7Y8OICRFJRU11H0974AL1G","A32BQNJMLMZYG0","3FW4EL5A3LANKRP91N782LFHPY722Q","","","img/flower3.png","74","760","1","0","1","0.8,0.8,0.2,0.2,0.8,0.8,0.8,0.2,0.8",""
"null","","html-keyboard-response","324","1144796","0.0-324.0","3X31TUMD7Y8OICRFJRU11H0974AL1G","A32BQNJMLMZYG0","3FW4EL5A3LANKRP91N782LFHPY722Q","","","<img src=""img/flower3.png"" style=""width:200px;border:14px solid red;"">","null","","","","","",""
"1686","","image-keyboard-response","325","1146494","0.0-325.0","3X31TUMD7Y8OICRFJRU11H0974AL1G","A32BQNJMLMZYG0","3FW4EL5A3LANKRP91N782LFHPY722Q","","","img/flower7.png","76","1697","3","1","3","0.8,0.8,0.2,0.2,0.8,0.8,0.8,0.2,0.8",""
"null","","html-keyboard-response","326","1146812","0.0-326.0","3X31TUMD7Y8OICRFJRU11H0974AL1G","A32BQNJMLMZYG0","3FW4EL5A3LANKRP91N782LFHPY722Q","","","<img src=""img/flower7.png"" style=""width:200px; border:14px solid green;"">","null","","","","","",""
"1515","","image-keyboard-response","327","1148342","0.0-327.0","3X31TUMD7Y8OICRFJRU11H0974AL1G","A32BQNJMLMZYG0","3FW4EL5A3LANKRP91N782LFHPY722Q","","","img/flower9.png","75","1530","2","1","2","0.8,0.8,0.2,0.2,0.8,0.8,0.8,0.2,0.8",""
"null","","html-keyboard-response","328","1148656","0.0-328.0","3X31TUMD7Y8OICRFJRU11H0974AL1G","A32BQNJMLMZYG0","3FW4EL5A3LANKRP91N782LFHPY722Q","","","<img src=""img/flower9.png"" style=""width:200px; border:14px solid green;"">","null","","","","","",""
"857","","image-keyboard-response","329","1149522","0.0-329.0","3X31TUMD7Y8OICRFJRU11H0974AL1G","A32BQNJMLMZYG0","3FW4EL5A3LANKRP91N782LFHPY722Q","","","img/flower9.png","75","866","2","1","2","0.8,0.8,0.2,0.2,0.8,0.8,0.8,0.2,0.8",""
"null","","html-keyboard-response","330","1149827","0.0-330.0","3X31TUMD7Y8OICRFJRU11H0974AL1G","A32BQNJMLMZYG0","3FW4EL5A3LANKRP91N782LFHPY722Q","","","<img src=""img/flower9.png"" style=""width:200px; border:14px solid green;"">","null","","","","","",""
"967","","image-keyboard-response","331","1150799","0.0-331.0","3X31TUMD7Y8OICRFJRU11H0974AL1G","A32BQNJMLMZYG0","3FW4EL5A3LANKRP91N782LFHPY722Q","","","img/flower7.png","74","972","1","0","3","0.8,0.8,0.2,0.2,0.8,0.8,0.8,0.2,0.8",""
"null","","html-keyboard-response","332","1151108","0.0-332.0","3X31TUMD7Y8OICRFJRU11H0974AL1G","A32BQNJMLMZYG0","3FW4EL5A3LANKRP91N782LFHPY722Q","","","<img src=""img/flower7.png"" style=""width:200px;border:14px solid red;"">","null","","","","","",""
"1170","","image-keyboard-response","333","1152287","0.0-333.0","3X31TUMD7Y8OICRFJRU11H0974AL1G","A32BQNJMLMZYG0","3FW4EL5A3LANKRP91N782LFHPY722Q","","","img/flower3.png","75","1179","2","1","1","0.8,0.8,0.2,0.2,0.8,0.8,0.8,0.2,0.8",""
"null","","html-keyboard-response","334","1152592","0.0-334.0","3X31TUMD7Y8OICRFJRU11H0974AL1G","A32BQNJMLMZYG0","3FW4EL5A3LANKRP91N782LFHPY722Q","","","<img src=""img/flower3.png"" style=""width:200px; border:14px solid green;"">","null","","","","","",""
"1028","","image-keyboard-response","335","1153630","0.0-335.0","3X31TUMD7Y8OICRFJRU11H0974AL1G","A32BQNJMLMZYG0","3FW4EL5A3LANKRP91N782LFHPY722Q","","","img/flower3.png","75","1039","2","1","1","0.8,0.8,0.2,0.2,0.8,0.8,0.8,0.2,0.8",""
"null","","html-keyboard-response","336","1153937","0.0-336.0","3X31TUMD7Y8OICRFJRU11H0974AL1G","A32BQNJMLMZYG0","3FW4EL5A3LANKRP91N782LFHPY722Q","","","<img src=""img/flower3.png"" style=""width:200px; border:14px solid green;"">","null","","","","","",""
"1154","","image-keyboard-response","337","1155092","0.0-337.0","3X31TUMD7Y8OICRFJRU11H0974AL1G","A32BQNJMLMZYG0","3FW4EL5A3LANKRP91N782LFHPY722Q","","","img/flower9.png","76","1155","3","1","2","0.8,0.8,0.2,0.2,0.8,0.8,0.8,0.2,0.8",""
"null","","html-keyboard-response","338","1155406","0.0-338.0","3X31TUMD7Y8OICRFJRU11H0974AL1G","A32BQNJMLMZYG0","3FW4EL5A3LANKRP91N782LFHPY722Q","","","<img src=""img/flower9.png"" style=""width:200px; border:14px solid green;"">","null","","","","","",""
"747","","image-keyboard-response","339","1156162","0.0-339.0","3X31TUMD7Y8OICRFJRU11H0974AL1G","A32BQNJMLMZYG0","3FW4EL5A3LANKRP91N782LFHPY722Q","","","img/flower9.png","76","756","3","1","2","0.8,0.8,0.2,0.2,0.8,0.8,0.8,0.2,0.8",""
"null","","html-keyboard-response","340","1156468","0.0-340.0","3X31TUMD7Y8OICRFJRU11H0974AL1G","A32BQNJMLMZYG0","3FW4EL5A3LANKRP91N782LFHPY722Q","","","<img src=""img/flower9.png"" style=""width:200px; border:14px solid green;"">","null","","","","","",""
"1482","","image-keyboard-response","341","1157951","0.0-341.0","3X31TUMD7Y8OICRFJRU11H0974AL1G","A32BQNJMLMZYG0","3FW4EL5A3LANKRP91N782LFHPY722Q","","","img/flower3.png","74","1483","1","1","1","0.8,0.8,0.2,0.2,0.8,0.8,0.8,0.2,0.8",""
"null","","html-keyboard-response","342","1158251","0.0-342.0","3X31TUMD7Y8OICRFJRU11H0974AL1G","A32BQNJMLMZYG0","3FW4EL5A3LANKRP91N782LFHPY722Q","","","<img src=""img/flower3.png"" style=""width:200px; border:14px solid green;"">","null","","","","","",""
"887","","image-keyboard-response","343","1159141","0.0-343.0","3X31TUMD7Y8OICRFJRU11H0974AL1G","A32BQNJMLMZYG0","3FW4EL5A3LANKRP91N782LFHPY722Q","","","img/flower3.png","74","889","1","1","1","0.8,0.8,0.2,0.2,0.8,0.8,0.8,0.2,0.8",""
"null","","html-keyboard-response","344","1159485","0.0-344.0","3X31TUMD7Y8OICRFJRU11H0974AL1G","A32BQNJMLMZYG0","3FW4EL5A3LANKRP91N782LFHPY722Q","","","<img src=""img/flower3.png"" style=""width:200px; border:14px solid green;"">","null","","","","","",""
"810","","image-keyboard-response","345","1160310","0.0-345.0","3X31TUMD7Y8OICRFJRU11H0974AL1G","A32BQNJMLMZYG0","3FW4EL5A3LANKRP91N782LFHPY722Q","","","img/flower9.png","75","825","2","1","2","0.8,0.8,0.2,0.2,0.8,0.8,0.8,0.2,0.8",""
"null","","html-keyboard-response","346","1160625","0.0-346.0","3X31TUMD7Y8OICRFJRU11H0974AL1G","A32BQNJMLMZYG0","3FW4EL5A3LANKRP91N782LFHPY722Q","","","<img src=""img/flower9.png"" style=""width:200px; border:14px solid green;"">","null","","","","","",""
"1482","","image-keyboard-response","347","1162122","0.0-347.0","3X31TUMD7Y8OICRFJRU11H0974AL1G","A32BQNJMLMZYG0","3FW4EL5A3LANKRP91N782LFHPY722Q","","","img/flower3.png","74","1497","1","1","1","0.8,0.8,0.2,0.2,0.8,0.8,0.8,0.2,0.8",""
"null","","html-keyboard-response","348","1162437","0.0-348.0","3X31TUMD7Y8OICRFJRU11H0974AL1G","A32BQNJMLMZYG0","3FW4EL5A3LANKRP91N782LFHPY722Q","","","<img src=""img/flower3.png"" style=""width:200px; border:14px solid green;"">","null","","","","","",""
"1029","","image-keyboard-response","349","1163474","0.0-349.0","3X31TUMD7Y8OICRFJRU11H0974AL1G","A32BQNJMLMZYG0","3FW4EL5A3LANKRP91N782LFHPY722Q","","","img/flower9.png","75","1037","2","1","2","0.8,0.8,0.2,0.2,0.8,0.8,0.8,0.2,0.8",""
"null","","html-keyboard-response","350","1163782","0.0-350.0","3X31TUMD7Y8OICRFJRU11H0974AL1G","A32BQNJMLMZYG0","3FW4EL5A3LANKRP91N782LFHPY722Q","","","<img src=""img/flower9.png"" style=""width:200px; border:14px solid green;"">","null","","","","","",""
"871","","image-keyboard-response","351","1164663","0.0-351.0","3X31TUMD7Y8OICRFJRU11H0974AL1G","A32BQNJMLMZYG0","3FW4EL5A3LANKRP91N782LFHPY722Q","","","img/flower7.png","76","881","3","1","3","0.8,0.8,0.2,0.2,0.8,0.8,0.8,0.2,0.8",""
"null","","html-keyboard-response","352","1164968","0.0-352.0","3X31TUMD7Y8OICRFJRU11H0974AL1G","A32BQNJMLMZYG0","3FW4EL5A3LANKRP91N782LFHPY722Q","","","<img src=""img/flower7.png"" style=""width:200px; border:14px solid green;"">","null","","","","","",""
"795","","image-keyboard-response","353","1165765","0.0-353.0","3X31TUMD7Y8OICRFJRU11H0974AL1G","A32BQNJMLMZYG0","3FW4EL5A3LANKRP91N782LFHPY722Q","","","img/flower3.png","75","796","2","1","1","0.8,0.8,0.2,0.2,0.8,0.8,0.8,0.2,0.8",""
"null","","html-keyboard-response","354","1166077","0.0-354.0","3X31TUMD7Y8OICRFJRU11H0974AL1G","A32BQNJMLMZYG0","3FW4EL5A3LANKRP91N782LFHPY722Q","","","<img src=""img/flower3.png"" style=""width:200px; border:14px solid green;"">","null","","","","","",""
"1233","","image-keyboard-response","355","1167325","0.0-355.0","3X31TUMD7Y8OICRFJRU11H0974AL1G","A32BQNJMLMZYG0","3FW4EL5A3LANKRP91N782LFHPY722Q","","","img/flower9.png","74","1248","1","0","2","0.8,0.8,0.2,0.2,0.8,0.8,0.8,0.2,0.8",""
"null","","html-keyboard-response","356","1167642","0.0-356.0","3X31TUMD7Y8OICRFJRU11H0974AL1G","A32BQNJMLMZYG0","3FW4EL5A3LANKRP91N782LFHPY722Q","","","<img src=""img/flower9.png"" style=""width:200px;border:14px solid red;"">","null","","","","","",""
"1107","","image-keyboard-response","357","1168751","0.0-357.0","3X31TUMD7Y8OICRFJRU11H0974AL1G","A32BQNJMLMZYG0","3FW4EL5A3LANKRP91N782LFHPY722Q","","","img/flower7.png","75","1109","2","1","3","0.8,0.8,0.2,0.2,0.8,0.8,0.8,0.2,0.8",""
"null","","html-keyboard-response","358","1169062","0.0-358.0","3X31TUMD7Y8OICRFJRU11H0974AL1G","A32BQNJMLMZYG0","3FW4EL5A3LANKRP91N782LFHPY722Q","","","<img src=""img/flower7.png"" style=""width:200px; border:14px solid green;"">","null","","","","","",""
"801","","image-keyboard-response","359","1169864","0.0-359.0","3X31TUMD7Y8OICRFJRU11H0974AL1G","A32BQNJMLMZYG0","3FW4EL5A3LANKRP91N782LFHPY722Q","","","img/flower3.png","74","802","1","0","1","0.8,0.8,0.2,0.2,0.8,0.8,0.8,0.2,0.8",""
"null","","html-keyboard-response","360","1170171","0.0-360.0","3X31TUMD7Y8OICRFJRU11H0974AL1G","A32BQNJMLMZYG0","3FW4EL5A3LANKRP91N782LFHPY722Q","","","<img src=""img/flower3.png"" style=""width:200px;border:14px solid red;"">","null","","","","","",""
"576","","image-keyboard-response","361","1170757","0.0-361.0","3X31TUMD7Y8OICRFJRU11H0974AL1G","A32BQNJMLMZYG0","3FW4EL5A3LANKRP91N782LFHPY722Q","","","img/flower7.png","75","586","2","0","3","0.8,0.8,0.2,0.2,0.8,0.8,0.8,0.2,0.8",""
"null","","html-keyboard-response","362","1171061","0.0-362.0","3X31TUMD7Y8OICRFJRU11H0974AL1G","A32BQNJMLMZYG0","3FW4EL5A3LANKRP91N782LFHPY722Q","","","<img src=""img/flower7.png"" style=""width:200px;border:14px solid red;"">","null","","","","","",""
"733","","image-keyboard-response","363","1171797","0.0-363.0","3X31TUMD7Y8OICRFJRU11H0974AL1G","A32BQNJMLMZYG0","3FW4EL5A3LANKRP91N782LFHPY722Q","","","img/flower9.png","76","736","3","1","2","0.8,0.8,0.2,0.2,0.8,0.8,0.8,0.2,0.8",""
"null","","html-keyboard-response","364","1172108","0.0-364.0","3X31TUMD7Y8OICRFJRU11H0974AL1G","A32BQNJMLMZYG0","3FW4EL5A3LANKRP91N782LFHPY722Q","","","<img src=""img/flower9.png"" style=""width:200px; border:14px solid green;"">","null","","","","","",""
"706","","image-keyboard-response","365","1172828","0.0-365.0","3X31TUMD7Y8OICRFJRU11H0974AL1G","A32BQNJMLMZYG0","3FW4EL5A3LANKRP91N782LFHPY722Q","","","img/flower3.png","74","720","1","1","1","0.8,0.8,0.2,0.2,0.8,0.8,0.8,0.2,0.8",""
"null","","html-keyboard-response","366","1173140","0.0-366.0","3X31TUMD7Y8OICRFJRU11H0974AL1G","A32BQNJMLMZYG0","3FW4EL5A3LANKRP91N782LFHPY722Q","","","<img src=""img/flower3.png"" style=""width:200px; border:14px solid green;"">","null","","","","","",""
"623","","image-keyboard-response","367","1173778","0.0-367.0","3X31TUMD7Y8OICRFJRU11H0974AL1G","A32BQNJMLMZYG0","3FW4EL5A3LANKRP91N782LFHPY722Q","","","img/flower3.png","75","637","2","1","1","0.8,0.8,0.2,0.2,0.8,0.8,0.8,0.2,0.8",""
"null","","html-keyboard-response","368","1174099","0.0-368.0","3X31TUMD7Y8OICRFJRU11H0974AL1G","A32BQNJMLMZYG0","3FW4EL5A3LANKRP91N782LFHPY722Q","","","<img src=""img/flower3.png"" style=""width:200px; border:14px solid green;"">","null","","","","","",""
"711","","image-keyboard-response","369","1174814","0.0-369.0","3X31TUMD7Y8OICRFJRU11H0974AL1G","A32BQNJMLMZYG0","3FW4EL5A3LANKRP91N782LFHPY722Q","","","img/flower7.png","74","715","1","1","3","0.8,0.8,0.2,0.2,0.8,0.8,0.8,0.2,0.8",""
"null","","html-keyboard-response","370","1175124","0.0-370.0","3X31TUMD7Y8OICRFJRU11H0974AL1G","A32BQNJMLMZYG0","3FW4EL5A3LANKRP91N782LFHPY722Q","","","<img src=""img/flower7.png"" style=""width:200px; border:14px solid green;"">","null","","","","","",""
"640","","image-keyboard-response","371","1175775","0.0-371.0","3X31TUMD7Y8OICRFJRU11H0974AL1G","A32BQNJMLMZYG0","3FW4EL5A3LANKRP91N782LFHPY722Q","","","img/flower3.png","75","651","2","1","1","0.8,0.8,0.2,0.2,0.8,0.8,0.8,0.2,0.8",""
"null","","html-keyboard-response","372","1176077","0.0-372.0","3X31TUMD7Y8OICRFJRU11H0974AL1G","A32BQNJMLMZYG0","3FW4EL5A3LANKRP91N782LFHPY722Q","","","<img src=""img/flower3.png"" style=""width:200px; border:14px solid green;"">","null","","","","","",""
"621","","image-keyboard-response","373","1176705","0.0-373.0","3X31TUMD7Y8OICRFJRU11H0974AL1G","A32BQNJMLMZYG0","3FW4EL5A3LANKRP91N782LFHPY722Q","","","img/flower9.png","76","625","3","1","2","0.8,0.8,0.2,0.2,0.8,0.8,0.8,0.2,0.8",""
"null","","html-keyboard-response","374","1177015","0.0-374.0","3X31TUMD7Y8OICRFJRU11H0974AL1G","A32BQNJMLMZYG0","3FW4EL5A3LANKRP91N782LFHPY722Q","","","<img src=""img/flower9.png"" style=""width:200px; border:14px solid green;"">","null","","","","","",""
"592","","image-keyboard-response","375","1177608","0.0-375.0","3X31TUMD7Y8OICRFJRU11H0974AL1G","A32BQNJMLMZYG0","3FW4EL5A3LANKRP91N782LFHPY722Q","","","img/flower7.png","74","593","1","1","3","0.8,0.8,0.2,0.2,0.8,0.8,0.8,0.2,0.8",""
"null","","html-keyboard-response","376","1177938","0.0-376.0","3X31TUMD7Y8OICRFJRU11H0974AL1G","A32BQNJMLMZYG0","3FW4EL5A3LANKRP91N782LFHPY722Q","","","<img src=""img/flower7.png"" style=""width:200px; border:14px solid green;"">","null","","","","","",""
"512","","image-keyboard-response","377","1178456","0.0-377.0","3X31TUMD7Y8OICRFJRU11H0974AL1G","A32BQNJMLMZYG0","3FW4EL5A3LANKRP91N782LFHPY722Q","","","img/flower3.png","75","517","2","1","1","0.8,0.8,0.2,0.2,0.8,0.8,0.8,0.2,0.8",""
"null","","html-keyboard-response","378","1178766","0.0-378.0","3X31TUMD7Y8OICRFJRU11H0974AL1G","A32BQNJMLMZYG0","3FW4EL5A3LANKRP91N782LFHPY722Q","","","<img src=""img/flower3.png"" style=""width:200px; border:14px solid green;"">","null","","","","","",""
"826","","image-keyboard-response","379","1179603","0.0-379.0","3X31TUMD7Y8OICRFJRU11H0974AL1G","A32BQNJMLMZYG0","3FW4EL5A3LANKRP91N782LFHPY722Q","","","img/flower3.png","75","837","2","1","1","0.8,0.8,0.2,0.2,0.8,0.8,0.8,0.2,0.8",""
"null","","html-keyboard-response","380","1179914","0.0-380.0","3X31TUMD7Y8OICRFJRU11H0974AL1G","A32BQNJMLMZYG0","3FW4EL5A3LANKRP91N782LFHPY722Q","","","<img src=""img/flower3.png"" style=""width:200px; border:14px solid green;"">","null","","","","","",""
"740","","image-keyboard-response","381","1180689","0.0-381.0","3X31TUMD7Y8OICRFJRU11H0974AL1G","A32BQNJMLMZYG0","3FW4EL5A3LANKRP91N782LFHPY722Q","","","img/flower9.png","76","775","3","0","2","0.8,0.8,0.2,0.2,0.8,0.8,0.8,0.2,0.8",""
"null","","html-keyboard-response","382","1181006","0.0-382.0","3X31TUMD7Y8OICRFJRU11H0974AL1G","A32BQNJMLMZYG0","3FW4EL5A3LANKRP91N782LFHPY722Q","","","<img src=""img/flower9.png"" style=""width:200px;border:14px solid red;"">","null","","","","","",""
"680","","image-keyboard-response","383","1181696","0.0-383.0","3X31TUMD7Y8OICRFJRU11H0974AL1G","A32BQNJMLMZYG0","3FW4EL5A3LANKRP91N782LFHPY722Q","","","img/flower7.png","75","690","2","0","3","0.8,0.8,0.2,0.2,0.8,0.8,0.8,0.2,0.8",""
"null","","html-keyboard-response","384","1181999","0.0-384.0","3X31TUMD7Y8OICRFJRU11H0974AL1G","A32BQNJMLMZYG0","3FW4EL5A3LANKRP91N782LFHPY722Q","","","<img src=""img/flower7.png"" style=""width:200px;border:14px solid red;"">","null","","","","","",""
"624","","image-keyboard-response","385","1182635","0.0-385.0","3X31TUMD7Y8OICRFJRU11H0974AL1G","A32BQNJMLMZYG0","3FW4EL5A3LANKRP91N782LFHPY722Q","","","img/flower7.png","74","636","1","1","3","0.8,0.8,0.2,0.2,0.8,0.8,0.8,0.2,0.8",""
"null","","html-keyboard-response","386","1182952","0.0-386.0","3X31TUMD7Y8OICRFJRU11H0974AL1G","A32BQNJMLMZYG0","3FW4EL5A3LANKRP91N782LFHPY722Q","","","<img src=""img/flower7.png"" style=""width:200px; border:14px solid green;"">","null","","","","","",""
"967","","image-keyboard-response","387","1183933","0.0-387.0","3X31TUMD7Y8OICRFJRU11H0974AL1G","A32BQNJMLMZYG0","3FW4EL5A3LANKRP91N782LFHPY722Q","","","img/flower7.png","74","981","1","0","3","0.8,0.8,0.2,0.2,0.8,0.8,0.8,0.2,0.8",""
"null","","html-keyboard-response","388","1184250","0.0-388.0","3X31TUMD7Y8OICRFJRU11H0974AL1G","A32BQNJMLMZYG0","3FW4EL5A3LANKRP91N782LFHPY722Q","","","<img src=""img/flower7.png"" style=""width:200px;border:14px solid red;"">","null","","","","","",""
"544","","image-keyboard-response","389","1184805","0.0-389.0","3X31TUMD7Y8OICRFJRU11H0974AL1G","A32BQNJMLMZYG0","3FW4EL5A3LANKRP91N782LFHPY722Q","","","img/flower9.png","75","555","2","0","2","0.8,0.8,0.2,0.2,0.8,0.8,0.8,0.2,0.8",""
"null","","html-keyboard-response","390","1185108","0.0-390.0","3X31TUMD7Y8OICRFJRU11H0974AL1G","A32BQNJMLMZYG0","3FW4EL5A3LANKRP91N782LFHPY722Q","","","<img src=""img/flower9.png"" style=""width:200px;border:14px solid red;"">","null","","","","","",""
"1108","","image-keyboard-response","391","1186226","0.0-391.0","3X31TUMD7Y8OICRFJRU11H0974AL1G","A32BQNJMLMZYG0","3FW4EL5A3LANKRP91N782LFHPY722Q","","","img/flower9.png","76","1118","3","1","2","0.8,0.8,0.2,0.2,0.8,0.8,0.8,0.2,0.8",""
"null","","html-keyboard-response","392","1186530","0.0-392.0","3X31TUMD7Y8OICRFJRU11H0974AL1G","A32BQNJMLMZYG0","3FW4EL5A3LANKRP91N782LFHPY722Q","","","<img src=""img/flower9.png"" style=""width:200px; border:14px solid green;"">","null","","","","","",""
"1311","","image-keyboard-response","393","1187858","0.0-393.0","3X31TUMD7Y8OICRFJRU11H0974AL1G","A32BQNJMLMZYG0","3FW4EL5A3LANKRP91N782LFHPY722Q","","","img/flower9.png","76","1327","3","1","2","0.8,0.8,0.2,0.2,0.8,0.8,0.8,0.2,0.8",""
"null","","html-keyboard-response","394","1188158","0.0-394.0","3X31TUMD7Y8OICRFJRU11H0974AL1G","A32BQNJMLMZYG0","3FW4EL5A3LANKRP91N782LFHPY722Q","","","<img src=""img/flower9.png"" style=""width:200px; border:14px solid green;"">","null","","","","","",""
"933","","image-keyboard-response","395","1189098","0.0-395.0","3X31TUMD7Y8OICRFJRU11H0974AL1G","A32BQNJMLMZYG0","3FW4EL5A3LANKRP91N782LFHPY722Q","","","img/flower3.png","75","940","2","1","1","0.8,0.8,0.2,0.2,0.8,0.8,0.8,0.2,0.8",""
"null","","html-keyboard-response","396","1189421","0.0-396.0","3X31TUMD7Y8OICRFJRU11H0974AL1G","A32BQNJMLMZYG0","3FW4EL5A3LANKRP91N782LFHPY722Q","","","<img src=""img/flower3.png"" style=""width:200px; border:14px solid green;"">","null","","","","","",""
"1110","","image-keyboard-response","397","1190546","0.0-397.0","3X31TUMD7Y8OICRFJRU11H0974AL1G","A32BQNJMLMZYG0","3FW4EL5A3LANKRP91N782LFHPY722Q","","","img/flower9.png","76","1124","3","0","2","0.8,0.8,0.2,0.2,0.8,0.8,0.8,0.2,0.8",""
"null","","html-keyboard-response","398","1190848","0.0-398.0","3X31TUMD7Y8OICRFJRU11H0974AL1G","A32BQNJMLMZYG0","3FW4EL5A3LANKRP91N782LFHPY722Q","","","<img src=""img/flower9.png"" style=""width:200px;border:14px solid red;"">","null","","","","","",""
"633","","image-keyboard-response","399","1191497","0.0-399.0","3X31TUMD7Y8OICRFJRU11H0974AL1G","A32BQNJMLMZYG0","3FW4EL5A3LANKRP91N782LFHPY722Q","","","img/flower9.png","74","649","1","0","2","0.8,0.8,0.2,0.2,0.8,0.8,0.8,0.2,0.8",""
"null","","html-keyboard-response","400","1191862","0.0-400.0","3X31TUMD7Y8OICRFJRU11H0974AL1G","A32BQNJMLMZYG0","3FW4EL5A3LANKRP91N782LFHPY722Q","","","<img src=""img/flower9.png"" style=""width:200px;border:14px solid red;"">","null","","","","","",""
"511","","image-keyboard-response","401","1192383","0.0-401.0","3X31TUMD7Y8OICRFJRU11H0974AL1G","A32BQNJMLMZYG0","3FW4EL5A3LANKRP91N782LFHPY722Q","","","img/flower9.png","75","521","2","1","2","0.8,0.8,0.2,0.2,0.8,0.8,0.8,0.2,0.8",""
"null","","html-keyboard-response","402","1192686","0.0-402.0","3X31TUMD7Y8OICRFJRU11H0974AL1G","A32BQNJMLMZYG0","3FW4EL5A3LANKRP91N782LFHPY722Q","","","<img src=""img/flower9.png"" style=""width:200px; border:14px solid green;"">","null","","","","","",""
"873","","image-keyboard-response","403","1193566","0.0-403.0","3X31TUMD7Y8OICRFJRU11H0974AL1G","A32BQNJMLMZYG0","3FW4EL5A3LANKRP91N782LFHPY722Q","","","img/flower9.png","75","878","2","1","2","0.8,0.8,0.2,0.2,0.8,0.8,0.8,0.2,0.8",""
"null","","html-keyboard-response","404","1193867","0.0-404.0","3X31TUMD7Y8OICRFJRU11H0974AL1G","A32BQNJMLMZYG0","3FW4EL5A3LANKRP91N782LFHPY722Q","","","<img src=""img/flower9.png"" style=""width:200px; border:14px solid green;"">","null","","","","","",""
"1036","","image-keyboard-response","405","1194917","0.0-405.0","3X31TUMD7Y8OICRFJRU11H0974AL1G","A32BQNJMLMZYG0","3FW4EL5A3LANKRP91N782LFHPY722Q","","","img/flower7.png","76","1050","3","1","3","0.8,0.8,0.2,0.2,0.8,0.8,0.8,0.2,0.8",""
"null","","html-keyboard-response","406","1195217","0.0-406.0","3X31TUMD7Y8OICRFJRU11H0974AL1G","A32BQNJMLMZYG0","3FW4EL5A3LANKRP91N782LFHPY722Q","","","<img src=""img/flower7.png"" style=""width:200px; border:14px solid green;"">","null","","","","","",""
"687","","image-keyboard-response","407","1195910","0.0-407.0","3X31TUMD7Y8OICRFJRU11H0974AL1G","A32BQNJMLMZYG0","3FW4EL5A3LANKRP91N782LFHPY722Q","","","img/flower7.png","76","692","3","1","3","0.8,0.8,0.2,0.2,0.8,0.8,0.8,0.2,0.8",""
"null","","html-keyboard-response","408","1196218","0.0-408.0","3X31TUMD7Y8OICRFJRU11H0974AL1G","A32BQNJMLMZYG0","3FW4EL5A3LANKRP91N782LFHPY722Q","","","<img src=""img/flower7.png"" style=""width:200px; border:14px solid green;"">","null","","","","","",""
"233","","image-keyboard-response","409","1196466","0.0-409.0","3X31TUMD7Y8OICRFJRU11H0974AL1G","A32BQNJMLMZYG0","3FW4EL5A3LANKRP91N782LFHPY722Q","","","img/flower3.png","76","248","3","0","1","0.8,0.8,0.2,0.2,0.8,0.8,0.8,0.2,0.8",""
"null","","html-keyboard-response","410","1196780","0.0-410.0","3X31TUMD7Y8OICRFJRU11H0974AL1G","A32BQNJMLMZYG0","3FW4EL5A3LANKRP91N782LFHPY722Q","","","<img src=""img/flower3.png"" style=""width:200px;border:14px solid red;"">","null","","","","","",""
"655","","image-keyboard-response","411","1197441","0.0-411.0","3X31TUMD7Y8OICRFJRU11H0974AL1G","A32BQNJMLMZYG0","3FW4EL5A3LANKRP91N782LFHPY722Q","","","img/flower9.png","74","661","1","0","2","0.8,0.8,0.2,0.2,0.8,0.8,0.8,0.2,0.8",""
"null","","html-keyboard-response","412","1197766","0.0-412.0","3X31TUMD7Y8OICRFJRU11H0974AL1G","A32BQNJMLMZYG0","3FW4EL5A3LANKRP91N782LFHPY722Q","","","<img src=""img/flower9.png"" style=""width:200px;border:14px solid red;"">","null","","","","","",""
"341","","image-keyboard-response","413","1198114","0.0-413.0","3X31TUMD7Y8OICRFJRU11H0974AL1G","A32BQNJMLMZYG0","3FW4EL5A3LANKRP91N782LFHPY722Q","","","img/flower3.png","75","348","2","1","1","0.8,0.8,0.2,0.2,0.8,0.8,0.8,0.2,0.8",""
"null","","html-keyboard-response","414","1198420","0.0-414.0","3X31TUMD7Y8OICRFJRU11H0974AL1G","A32BQNJMLMZYG0","3FW4EL5A3LANKRP91N782LFHPY722Q","","","<img src=""img/flower3.png"" style=""width:200px; border:14px solid green;"">","null","","","","","",""
"1076","","image-keyboard-response","415","1199498","0.0-415.0","3X31TUMD7Y8OICRFJRU11H0974AL1G","A32BQNJMLMZYG0","3FW4EL5A3LANKRP91N782LFHPY722Q","","","img/flower7.png","76","1088","3","1","3","0.8,0.8,0.2,0.2,0.8,0.8,0.8,0.2,0.8",""
"null","","html-keyboard-response","416","1199828","0.0-416.0","3X31TUMD7Y8OICRFJRU11H0974AL1G","A32BQNJMLMZYG0","3FW4EL5A3LANKRP91N782LFHPY722Q","","","<img src=""img/flower7.png"" style=""width:200px; border:14px solid green;"">","null","","","","","",""
