"success","trial_type","trial_index","time_elapsed","internal_node_id","assignmentID","mturkID","hitID","view_history","rt","stimulus","key_press","reactionTime","a","r","s","cond","reward_cond","reward_cond_actual","reward_matrix_idx","responses"
"true","fullscreen","0","3746","0.0-0.0","3KAKFY4PGVOI2EXOLSB7XUNESX73IJ","A32K4W6B31XWVR","3EHVO81VN57KAWAV14A1K6BEMLH1HG","","","","","","","","","","","","",""
"","instructions","1","25894","0.0-1.0","3KAKFY4PGVOI2EXOLSB7XUNESX73IJ","A32K4W6B31XWVR","3EHVO81VN57KAWAV14A1K6BEMLH1HG","[{""page_index"":0,""viewing_time"":1343.8000001907349},{""page_index"":1,""viewing_time"":1336.8999998569489},{""page_index"":2,""viewing_time"":1928},{""page_index"":3,""viewing_time"":1711.6000001430511},{""page_index"":4,""viewing_time"":6024.199999809265},{""page_index"":5,""viewing_time"":4625.300000190735},{""page_index"":6,""viewing_time"":1527.7999999523163},{""page_index"":7,""viewing_time"":3647.7000000476837}]","22145.900000095367","","","","","","","","","","",""
"","image-keyboard-response","2","27871","0.0-2.0","3KAKFY4PGVOI2EXOLSB7XUNESX73IJ","A32K4W6B31XWVR","3EHVO81VN57KAWAV14A1K6BEMLH1HG","","1973.6999998092651","img/flower2.png","74","1975.6000001430511","1","1","2","2","1,0,0,1,1,0,1,0,1","0,0,1,1,0,1,0,1,1","2",""
"","html-keyboard-response","3","28176","0.0-3.0","3KAKFY4PGVOI2EXOLSB7XUNESX73IJ","A32K4W6B31XWVR","3EHVO81VN57KAWAV14A1K6BEMLH1HG","","null","<img src=""img/flower2.png"" style=""width:200px; border:14px solid green;"">","null","","","","","","","","",""
"","image-keyboard-response","4","29426","0.0-4.0","3KAKFY4PGVOI2EXOLSB7XUNESX73IJ","A32K4W6B31XWVR","3EHVO81VN57KAWAV14A1K6BEMLH1HG","","1247.6000001430511","img/flower2.png","74","1248.9000000953674","1","1","2","2","1,0,0,1,1,0,1,0,1","0,0,1,1,0,1,0,1,1","2",""
"","html-keyboard-response","5","29728","0.0-5.0","3KAKFY4PGVOI2EXOLSB7XUNESX73IJ","A32K4W6B31XWVR","3EHVO81VN57KAWAV14A1K6BEMLH1HG","","null","<img src=""img/flower2.png"" style=""width:200px; border:14px solid green;"">","null","","","","","","","","",""
"","image-keyboard-response","6","30404","0.0-6.0","3KAKFY4PGVOI2EXOLSB7XUNESX73IJ","A32K4W6B31XWVR","3EHVO81VN57KAWAV14A1K6BEMLH1HG","","675.5","img/flower1.png","75","676.2000000476837","2","1","3","2","1,0,0,1,1,0,1,0,1","0,0,1,1,0,1,0,1,1","2",""
"","html-keyboard-response","7","30707","0.0-7.0","3KAKFY4PGVOI2EXOLSB7XUNESX73IJ","A32K4W6B31XWVR","3EHVO81VN57KAWAV14A1K6BEMLH1HG","","null","<img src=""img/flower1.png"" style=""width:200px; border:14px solid green;"">","null","","","","","","","","",""
"","image-keyboard-response","8","31230","0.0-8.0","3KAKFY4PGVOI2EXOLSB7XUNESX73IJ","A32K4W6B31XWVR","3EHVO81VN57KAWAV14A1K6BEMLH1HG","","521.5","img/flower1.png","75","522.5999999046326","2","1","3","2","1,0,0,1,1,0,1,0,1","0,0,1,1,0,1,0,1,1","2",""
"","html-keyboard-response","9","31532","0.0-9.0","3KAKFY4PGVOI2EXOLSB7XUNESX73IJ","A32K4W6B31XWVR","3EHVO81VN57KAWAV14A1K6BEMLH1HG","","null","<img src=""img/flower1.png"" style=""width:200px; border:14px solid green;"">","null","","","","","","","","",""
"","image-keyboard-response","10","32040","0.0-10.0","3KAKFY4PGVOI2EXOLSB7XUNESX73IJ","A32K4W6B31XWVR","3EHVO81VN57KAWAV14A1K6BEMLH1HG","","506.7999999523163","img/flower1.png","75","508.2999999523163","2","1","3","2","1,0,0,1,1,0,1,0,1","0,0,1,1,0,1,0,1,1","2",""
"","html-keyboard-response","11","32352","0.0-11.0","3KAKFY4PGVOI2EXOLSB7XUNESX73IJ","A32K4W6B31XWVR","3EHVO81VN57KAWAV14A1K6BEMLH1HG","","null","<img src=""img/flower1.png"" style=""width:200px; border:14px solid green;"">","null","","","","","","","","",""
"","image-keyboard-response","12","32772","0.0-12.0","3KAKFY4PGVOI2EXOLSB7XUNESX73IJ","A32K4W6B31XWVR","3EHVO81VN57KAWAV14A1K6BEMLH1HG","","418.7000000476837","img/flower2.png","76","419.5","3","1","2","2","1,0,0,1,1,0,1,0,1","0,0,1,1,0,1,0,1,1","2",""
"","html-keyboard-response","13","33074","0.0-13.0","3KAKFY4PGVOI2EXOLSB7XUNESX73IJ","A32K4W6B31XWVR","3EHVO81VN57KAWAV14A1K6BEMLH1HG","","null","<img src=""img/flower2.png"" style=""width:200px; border:14px solid green;"">","null","","","","","","","","",""
"","image-keyboard-response","14","33700","0.0-14.0","3KAKFY4PGVOI2EXOLSB7XUNESX73IJ","A32K4W6B31XWVR","3EHVO81VN57KAWAV14A1K6BEMLH1HG","","625.0999999046326","img/flower5.png","75","626.0999999046326","2","0","1","2","1,0,0,1,1,0,1,0,1","0,0,1,1,0,1,0,1,1","2",""
"","html-keyboard-response","15","34002","0.0-15.0","3KAKFY4PGVOI2EXOLSB7XUNESX73IJ","A32K4W6B31XWVR","3EHVO81VN57KAWAV14A1K6BEMLH1HG","","null","<img src=""img/flower5.png"" style=""width:200px;border:14px solid red;"">","null","","","","","","","","",""
"","image-keyboard-response","16","34390","0.0-16.0","3KAKFY4PGVOI2EXOLSB7XUNESX73IJ","A32K4W6B31XWVR","3EHVO81VN57KAWAV14A1K6BEMLH1HG","","386.09999990463257","img/flower2.png","76","387.2999999523163","3","1","2","2","1,0,0,1,1,0,1,0,1","0,0,1,1,0,1,0,1,1","2",""
"","html-keyboard-response","17","34692","0.0-17.0","3KAKFY4PGVOI2EXOLSB7XUNESX73IJ","A32K4W6B31XWVR","3EHVO81VN57KAWAV14A1K6BEMLH1HG","","null","<img src=""img/flower2.png"" style=""width:200px; border:14px solid green;"">","null","","","","","","","","",""
"","image-keyboard-response","18","35235","0.0-18.0","3KAKFY4PGVOI2EXOLSB7XUNESX73IJ","A32K4W6B31XWVR","3EHVO81VN57KAWAV14A1K6BEMLH1HG","","542.1000001430511","img/flower1.png","74","543","1","0","3","2","1,0,0,1,1,0,1,0,1","0,0,1,1,0,1,0,1,1","2",""
"","html-keyboard-response","19","35538","0.0-19.0","3KAKFY4PGVOI2EXOLSB7XUNESX73IJ","A32K4W6B31XWVR","3EHVO81VN57KAWAV14A1K6BEMLH1HG","","null","<img src=""img/flower1.png"" style=""width:200px;border:14px solid red;"">","null","","","","","","","","",""
"","image-keyboard-response","20","36370","0.0-20.0","3KAKFY4PGVOI2EXOLSB7XUNESX73IJ","A32K4W6B31XWVR","3EHVO81VN57KAWAV14A1K6BEMLH1HG","","830.1999998092651","img/flower5.png","76","831.2000000476837","3","1","1","2","1,0,0,1,1,0,1,0,1","0,0,1,1,0,1,0,1,1","2",""
"","html-keyboard-response","21","36672","0.0-21.0","3KAKFY4PGVOI2EXOLSB7XUNESX73IJ","A32K4W6B31XWVR","3EHVO81VN57KAWAV14A1K6BEMLH1HG","","null","<img src=""img/flower5.png"" style=""width:200px; border:14px solid green;"">","null","","","","","","","","",""
"","image-keyboard-response","22","37211","0.0-22.0","3KAKFY4PGVOI2EXOLSB7XUNESX73IJ","A32K4W6B31XWVR","3EHVO81VN57KAWAV14A1K6BEMLH1HG","","537.0999999046326","img/flower5.png","76","538.3000001907349","3","1","1","2","1,0,0,1,1,0,1,0,1","0,0,1,1,0,1,0,1,1","2",""
"","html-keyboard-response","23","37512","0.0-23.0","3KAKFY4PGVOI2EXOLSB7XUNESX73IJ","A32K4W6B31XWVR","3EHVO81VN57KAWAV14A1K6BEMLH1HG","","null","<img src=""img/flower5.png"" style=""width:200px; border:14px solid green;"">","null","","","","","","","","",""
"","image-keyboard-response","24","38066","0.0-24.0","3KAKFY4PGVOI2EXOLSB7XUNESX73IJ","A32K4W6B31XWVR","3EHVO81VN57KAWAV14A1K6BEMLH1HG","","552.4000000953674","img/flower2.png","75","553.5","2","0","2","2","1,0,0,1,1,0,1,0,1","0,0,1,1,0,1,0,1,1","2",""
"","html-keyboard-response","25","38367","0.0-25.0","3KAKFY4PGVOI2EXOLSB7XUNESX73IJ","A32K4W6B31XWVR","3EHVO81VN57KAWAV14A1K6BEMLH1HG","","null","<img src=""img/flower2.png"" style=""width:200px;border:14px solid red;"">","null","","","","","","","","",""
"","image-keyboard-response","26","38687","0.0-26.0","3KAKFY4PGVOI2EXOLSB7XUNESX73IJ","A32K4W6B31XWVR","3EHVO81VN57KAWAV14A1K6BEMLH1HG","","317.5","img/flower2.png","74","318.69999980926514","1","1","2","2","1,0,0,1,1,0,1,0,1","0,0,1,1,0,1,0,1,1","2",""
"","html-keyboard-response","27","38989","0.0-27.0","3KAKFY4PGVOI2EXOLSB7XUNESX73IJ","A32K4W6B31XWVR","3EHVO81VN57KAWAV14A1K6BEMLH1HG","","null","<img src=""img/flower2.png"" style=""width:200px; border:14px solid green;"">","null","","","","","","","","",""
"","image-keyboard-response","28","39393","0.0-28.0","3KAKFY4PGVOI2EXOLSB7XUNESX73IJ","A32K4W6B31XWVR","3EHVO81VN57KAWAV14A1K6BEMLH1HG","","402.2999999523163","img/flower2.png","74","403.40000009536743","1","1","2","2","1,0,0,1,1,0,1,0,1","0,0,1,1,0,1,0,1,1","2",""
"","html-keyboard-response","29","39695","0.0-29.0","3KAKFY4PGVOI2EXOLSB7XUNESX73IJ","A32K4W6B31XWVR","3EHVO81VN57KAWAV14A1K6BEMLH1HG","","null","<img src=""img/flower2.png"" style=""width:200px; border:14px solid green;"">","null","","","","","","","","",""
"","image-keyboard-response","30","40193","0.0-30.0","3KAKFY4PGVOI2EXOLSB7XUNESX73IJ","A32K4W6B31XWVR","3EHVO81VN57KAWAV14A1K6BEMLH1HG","","497.2000000476837","img/flower2.png","74","498.09999990463257","1","1","2","2","1,0,0,1,1,0,1,0,1","0,0,1,1,0,1,0,1,1","2",""
"","html-keyboard-response","31","40495","0.0-31.0","3KAKFY4PGVOI2EXOLSB7XUNESX73IJ","A32K4W6B31XWVR","3EHVO81VN57KAWAV14A1K6BEMLH1HG","","null","<img src=""img/flower2.png"" style=""width:200px; border:14px solid green;"">","null","","","","","","","","",""
"","image-keyboard-response","32","41200","0.0-32.0","3KAKFY4PGVOI2EXOLSB7XUNESX73IJ","A32K4W6B31XWVR","3EHVO81VN57KAWAV14A1K6BEMLH1HG","","703.8999998569489","img/flower5.png","76","704.9000000953674","3","1","1","2","1,0,0,1,1,0,1,0,1","0,0,1,1,0,1,0,1,1","2",""
"","html-keyboard-response","33","41501","0.0-33.0","3KAKFY4PGVOI2EXOLSB7XUNESX73IJ","A32K4W6B31XWVR","3EHVO81VN57KAWAV14A1K6BEMLH1HG","","null","<img src=""img/flower5.png"" style=""width:200px; border:14px solid green;"">","null","","","","","","","","",""
"","image-keyboard-response","34","41978","0.0-34.0","3KAKFY4PGVOI2EXOLSB7XUNESX73IJ","A32K4W6B31XWVR","3EHVO81VN57KAWAV14A1K6BEMLH1HG","","475.7000000476837","img/flower2.png","74","476.39999985694885","1","1","2","2","1,0,0,1,1,0,1,0,1","0,0,1,1,0,1,0,1,1","2",""
"","html-keyboard-response","35","42280","0.0-35.0","3KAKFY4PGVOI2EXOLSB7XUNESX73IJ","A32K4W6B31XWVR","3EHVO81VN57KAWAV14A1K6BEMLH1HG","","null","<img src=""img/flower2.png"" style=""width:200px; border:14px solid green;"">","null","","","","","","","","",""
"","image-keyboard-response","36","42748","0.0-36.0","3KAKFY4PGVOI2EXOLSB7XUNESX73IJ","A32K4W6B31XWVR","3EHVO81VN57KAWAV14A1K6BEMLH1HG","","466.69999980926514","img/flower5.png","76","467.89999985694885","3","1","1","2","1,0,0,1,1,0,1,0,1","0,0,1,1,0,1,0,1,1","2",""
"","html-keyboard-response","37","43051","0.0-37.0","3KAKFY4PGVOI2EXOLSB7XUNESX73IJ","A32K4W6B31XWVR","3EHVO81VN57KAWAV14A1K6BEMLH1HG","","null","<img src=""img/flower5.png"" style=""width:200px; border:14px solid green;"">","null","","","","","","","","",""
"","image-keyboard-response","38","43464","0.0-38.0","3KAKFY4PGVOI2EXOLSB7XUNESX73IJ","A32K4W6B31XWVR","3EHVO81VN57KAWAV14A1K6BEMLH1HG","","412.60000014305115","img/flower1.png","74","413.7000000476837","1","0","3","2","1,0,0,1,1,0,1,0,1","0,0,1,1,0,1,0,1,1","2",""
"","html-keyboard-response","39","43767","0.0-39.0","3KAKFY4PGVOI2EXOLSB7XUNESX73IJ","A32K4W6B31XWVR","3EHVO81VN57KAWAV14A1K6BEMLH1HG","","null","<img src=""img/flower1.png"" style=""width:200px;border:14px solid red;"">","null","","","","","","","","",""
"","image-keyboard-response","40","44016","0.0-40.0","3KAKFY4PGVOI2EXOLSB7XUNESX73IJ","A32K4W6B31XWVR","3EHVO81VN57KAWAV14A1K6BEMLH1HG","","248","img/flower1.png","75","249.09999990463257","2","1","3","2","1,0,0,1,1,0,1,0,1","0,0,1,1,0,1,0,1,1","2",""
"","html-keyboard-response","41","44327","0.0-41.0","3KAKFY4PGVOI2EXOLSB7XUNESX73IJ","A32K4W6B31XWVR","3EHVO81VN57KAWAV14A1K6BEMLH1HG","","null","<img src=""img/flower1.png"" style=""width:200px; border:14px solid green;"">","null","","","","","","","","",""
"","image-keyboard-response","42","44886","0.0-42.0","3KAKFY4PGVOI2EXOLSB7XUNESX73IJ","A32K4W6B31XWVR","3EHVO81VN57KAWAV14A1K6BEMLH1HG","","557.0999999046326","img/flower2.png","74","558.0999999046326","1","1","2","2","1,0,0,1,1,0,1,0,1","0,0,1,1,0,1,0,1,1","2",""
"","html-keyboard-response","43","45188","0.0-43.0","3KAKFY4PGVOI2EXOLSB7XUNESX73IJ","A32K4W6B31XWVR","3EHVO81VN57KAWAV14A1K6BEMLH1HG","","null","<img src=""img/flower2.png"" style=""width:200px; border:14px solid green;"">","null","","","","","","","","",""
"","image-keyboard-response","44","45915","0.0-44.0","3KAKFY4PGVOI2EXOLSB7XUNESX73IJ","A32K4W6B31XWVR","3EHVO81VN57KAWAV14A1K6BEMLH1HG","","726.2000000476837","img/flower5.png","76","727.1999998092651","3","1","1","2","1,0,0,1,1,0,1,0,1","0,0,1,1,0,1,0,1,1","2",""
"","html-keyboard-response","45","46217","0.0-45.0","3KAKFY4PGVOI2EXOLSB7XUNESX73IJ","A32K4W6B31XWVR","3EHVO81VN57KAWAV14A1K6BEMLH1HG","","null","<img src=""img/flower5.png"" style=""width:200px; border:14px solid green;"">","null","","","","","","","","",""
"","image-keyboard-response","46","46700","0.0-46.0","3KAKFY4PGVOI2EXOLSB7XUNESX73IJ","A32K4W6B31XWVR","3EHVO81VN57KAWAV14A1K6BEMLH1HG","","481.59999990463257","img/flower1.png","75","482.7999999523163","2","1","3","2","1,0,0,1,1,0,1,0,1","0,0,1,1,0,1,0,1,1","2",""
"","html-keyboard-response","47","47003","0.0-47.0","3KAKFY4PGVOI2EXOLSB7XUNESX73IJ","A32K4W6B31XWVR","3EHVO81VN57KAWAV14A1K6BEMLH1HG","","null","<img src=""img/flower1.png"" style=""width:200px; border:14px solid green;"">","null","","","","","","","","",""
"","image-keyboard-response","48","47541","0.0-48.0","3KAKFY4PGVOI2EXOLSB7XUNESX73IJ","A32K4W6B31XWVR","3EHVO81VN57KAWAV14A1K6BEMLH1HG","","536.6000001430511","img/flower2.png","76","537.6999998092651","3","1","2","2","1,0,0,1,1,0,1,0,1","0,0,1,1,0,1,0,1,1","2",""
"","html-keyboard-response","49","47843","0.0-49.0","3KAKFY4PGVOI2EXOLSB7XUNESX73IJ","A32K4W6B31XWVR","3EHVO81VN57KAWAV14A1K6BEMLH1HG","","null","<img src=""img/flower2.png"" style=""width:200px; border:14px solid green;"">","null","","","","","","","","",""
"","image-keyboard-response","50","48555","0.0-50.0","3KAKFY4PGVOI2EXOLSB7XUNESX73IJ","A32K4W6B31XWVR","3EHVO81VN57KAWAV14A1K6BEMLH1HG","","710.0999999046326","img/flower2.png","76","711.2999999523163","3","1","2","2","1,0,0,1,1,0,1,0,1","0,0,1,1,0,1,0,1,1","2",""
"","html-keyboard-response","51","48857","0.0-51.0","3KAKFY4PGVOI2EXOLSB7XUNESX73IJ","A32K4W6B31XWVR","3EHVO81VN57KAWAV14A1K6BEMLH1HG","","null","<img src=""img/flower2.png"" style=""width:200px; border:14px solid green;"">","null","","","","","","","","",""
"","image-keyboard-response","52","49270","0.0-52.0","3KAKFY4PGVOI2EXOLSB7XUNESX73IJ","A32K4W6B31XWVR","3EHVO81VN57KAWAV14A1K6BEMLH1HG","","412.5","img/flower2.png","76","413.30000019073486","3","1","2","2","1,0,0,1,1,0,1,0,1","0,0,1,1,0,1,0,1,1","2",""
"","html-keyboard-response","53","49572","0.0-53.0","3KAKFY4PGVOI2EXOLSB7XUNESX73IJ","A32K4W6B31XWVR","3EHVO81VN57KAWAV14A1K6BEMLH1HG","","null","<img src=""img/flower2.png"" style=""width:200px; border:14px solid green;"">","null","","","","","","","","",""
"","image-keyboard-response","54","49942","0.0-54.0","3KAKFY4PGVOI2EXOLSB7XUNESX73IJ","A32K4W6B31XWVR","3EHVO81VN57KAWAV14A1K6BEMLH1HG","","369.7999999523163","img/flower2.png","76","370.40000009536743","3","1","2","2","1,0,0,1,1,0,1,0,1","0,0,1,1,0,1,0,1,1","2",""
"","html-keyboard-response","55","50244","0.0-55.0","3KAKFY4PGVOI2EXOLSB7XUNESX73IJ","A32K4W6B31XWVR","3EHVO81VN57KAWAV14A1K6BEMLH1HG","","null","<img src=""img/flower2.png"" style=""width:200px; border:14px solid green;"">","null","","","","","","","","",""
"","image-keyboard-response","56","50901","0.0-56.0","3KAKFY4PGVOI2EXOLSB7XUNESX73IJ","A32K4W6B31XWVR","3EHVO81VN57KAWAV14A1K6BEMLH1HG","","656.0999999046326","img/flower1.png","74","657.0999999046326","1","0","3","2","1,0,0,1,1,0,1,0,1","0,0,1,1,0,1,0,1,1","2",""
"","html-keyboard-response","57","51203","0.0-57.0","3KAKFY4PGVOI2EXOLSB7XUNESX73IJ","A32K4W6B31XWVR","3EHVO81VN57KAWAV14A1K6BEMLH1HG","","null","<img src=""img/flower1.png"" style=""width:200px;border:14px solid red;"">","null","","","","","","","","",""
"","image-keyboard-response","58","51582","0.0-58.0","3KAKFY4PGVOI2EXOLSB7XUNESX73IJ","A32K4W6B31XWVR","3EHVO81VN57KAWAV14A1K6BEMLH1HG","","377.7000000476837","img/flower2.png","75","378.2999999523163","2","0","2","2","1,0,0,1,1,0,1,0,1","0,0,1,1,0,1,0,1,1","2",""
"","html-keyboard-response","59","51895","0.0-59.0","3KAKFY4PGVOI2EXOLSB7XUNESX73IJ","A32K4W6B31XWVR","3EHVO81VN57KAWAV14A1K6BEMLH1HG","","null","<img src=""img/flower2.png"" style=""width:200px;border:14px solid red;"">","null","","","","","","","","",""
"","image-keyboard-response","60","52159","0.0-60.0","3KAKFY4PGVOI2EXOLSB7XUNESX73IJ","A32K4W6B31XWVR","3EHVO81VN57KAWAV14A1K6BEMLH1HG","","262.59999990463257","img/flower5.png","76","263.7000000476837","3","1","1","2","1,0,0,1,1,0,1,0,1","0,0,1,1,0,1,0,1,1","2",""
"","html-keyboard-response","61","52461","0.0-61.0","3KAKFY4PGVOI2EXOLSB7XUNESX73IJ","A32K4W6B31XWVR","3EHVO81VN57KAWAV14A1K6BEMLH1HG","","null","<img src=""img/flower5.png"" style=""width:200px; border:14px solid green;"">","null","","","","","","","","",""
"","image-keyboard-response","62","53366","0.0-62.0","3KAKFY4PGVOI2EXOLSB7XUNESX73IJ","A32K4W6B31XWVR","3EHVO81VN57KAWAV14A1K6BEMLH1HG","","904.5","img/flower2.png","74","905.6000001430511","1","1","2","2","1,0,0,1,1,0,1,0,1","0,0,1,1,0,1,0,1,1","2",""
"","html-keyboard-response","63","53673","0.0-63.0","3KAKFY4PGVOI2EXOLSB7XUNESX73IJ","A32K4W6B31XWVR","3EHVO81VN57KAWAV14A1K6BEMLH1HG","","null","<img src=""img/flower2.png"" style=""width:200px; border:14px solid green;"">","null","","","","","","","","",""
"","image-keyboard-response","64","54162","0.0-64.0","3KAKFY4PGVOI2EXOLSB7XUNESX73IJ","A32K4W6B31XWVR","3EHVO81VN57KAWAV14A1K6BEMLH1HG","","487.7999999523163","img/flower1.png","76","488.90000009536743","3","1","3","2","1,0,0,1,1,0,1,0,1","0,0,1,1,0,1,0,1,1","2",""
"","html-keyboard-response","65","54465","0.0-65.0","3KAKFY4PGVOI2EXOLSB7XUNESX73IJ","A32K4W6B31XWVR","3EHVO81VN57KAWAV14A1K6BEMLH1HG","","null","<img src=""img/flower1.png"" style=""width:200px; border:14px solid green;"">","null","","","","","","","","",""
"","image-keyboard-response","66","55129","0.0-66.0","3KAKFY4PGVOI2EXOLSB7XUNESX73IJ","A32K4W6B31XWVR","3EHVO81VN57KAWAV14A1K6BEMLH1HG","","662.8000001907349","img/flower1.png","76","663.7999999523163","3","1","3","2","1,0,0,1,1,0,1,0,1","0,0,1,1,0,1,0,1,1","2",""
"","html-keyboard-response","67","55430","0.0-67.0","3KAKFY4PGVOI2EXOLSB7XUNESX73IJ","A32K4W6B31XWVR","3EHVO81VN57KAWAV14A1K6BEMLH1HG","","null","<img src=""img/flower1.png"" style=""width:200px; border:14px solid green;"">","null","","","","","","","","",""
"","image-keyboard-response","68","55936","0.0-68.0","3KAKFY4PGVOI2EXOLSB7XUNESX73IJ","A32K4W6B31XWVR","3EHVO81VN57KAWAV14A1K6BEMLH1HG","","504.7000000476837","img/flower1.png","76","506","3","1","3","2","1,0,0,1,1,0,1,0,1","0,0,1,1,0,1,0,1,1","2",""
"","html-keyboard-response","69","56239","0.0-69.0","3KAKFY4PGVOI2EXOLSB7XUNESX73IJ","A32K4W6B31XWVR","3EHVO81VN57KAWAV14A1K6BEMLH1HG","","null","<img src=""img/flower1.png"" style=""width:200px; border:14px solid green;"">","null","","","","","","","","",""
"","image-keyboard-response","70","56995","0.0-70.0","3KAKFY4PGVOI2EXOLSB7XUNESX73IJ","A32K4W6B31XWVR","3EHVO81VN57KAWAV14A1K6BEMLH1HG","","755.0999999046326","img/flower2.png","74","756.0999999046326","1","1","2","2","1,0,0,1,1,0,1,0,1","0,0,1,1,0,1,0,1,1","2",""
"","html-keyboard-response","71","57298","0.0-71.0","3KAKFY4PGVOI2EXOLSB7XUNESX73IJ","A32K4W6B31XWVR","3EHVO81VN57KAWAV14A1K6BEMLH1HG","","null","<img src=""img/flower2.png"" style=""width:200px; border:14px solid green;"">","null","","","","","","","","",""
"","image-keyboard-response","72","57855","0.0-72.0","3KAKFY4PGVOI2EXOLSB7XUNESX73IJ","A32K4W6B31XWVR","3EHVO81VN57KAWAV14A1K6BEMLH1HG","","556.2000000476837","img/flower5.png","75","557.0999999046326","2","0","1","2","1,0,0,1,1,0,1,0,1","0,0,1,1,0,1,0,1,1","2",""
"","html-keyboard-response","73","58157","0.0-73.0","3KAKFY4PGVOI2EXOLSB7XUNESX73IJ","A32K4W6B31XWVR","3EHVO81VN57KAWAV14A1K6BEMLH1HG","","null","<img src=""img/flower5.png"" style=""width:200px;border:14px solid red;"">","null","","","","","","","","",""
"","image-keyboard-response","74","58526","0.0-74.0","3KAKFY4PGVOI2EXOLSB7XUNESX73IJ","A32K4W6B31XWVR","3EHVO81VN57KAWAV14A1K6BEMLH1HG","","367.59999990463257","img/flower5.png","76","368.59999990463257","3","1","1","2","1,0,0,1,1,0,1,0,1","0,0,1,1,0,1,0,1,1","2",""
"","html-keyboard-response","75","58828","0.0-75.0","3KAKFY4PGVOI2EXOLSB7XUNESX73IJ","A32K4W6B31XWVR","3EHVO81VN57KAWAV14A1K6BEMLH1HG","","null","<img src=""img/flower5.png"" style=""width:200px; border:14px solid green;"">","null","","","","","","","","",""
"","image-keyboard-response","76","59525","0.0-76.0","3KAKFY4PGVOI2EXOLSB7XUNESX73IJ","A32K4W6B31XWVR","3EHVO81VN57KAWAV14A1K6BEMLH1HG","","695.5","img/flower1.png","74","696.5","1","0","3","2","1,0,0,1,1,0,1,0,1","0,0,1,1,0,1,0,1,1","2",""
"","html-keyboard-response","77","59827","0.0-77.0","3KAKFY4PGVOI2EXOLSB7XUNESX73IJ","A32K4W6B31XWVR","3EHVO81VN57KAWAV14A1K6BEMLH1HG","","null","<img src=""img/flower1.png"" style=""width:200px;border:14px solid red;"">","null","","","","","","","","",""
"","image-keyboard-response","78","60648","0.0-78.0","3KAKFY4PGVOI2EXOLSB7XUNESX73IJ","A32K4W6B31XWVR","3EHVO81VN57KAWAV14A1K6BEMLH1HG","","819.8999998569489","img/flower2.png","74","821.0999999046326","1","1","2","2","1,0,0,1,1,0,1,0,1","0,0,1,1,0,1,0,1,1","2",""
"","html-keyboard-response","79","60950","0.0-79.0","3KAKFY4PGVOI2EXOLSB7XUNESX73IJ","A32K4W6B31XWVR","3EHVO81VN57KAWAV14A1K6BEMLH1HG","","null","<img src=""img/flower2.png"" style=""width:200px; border:14px solid green;"">","null","","","","","","","","",""
"","image-keyboard-response","80","61792","0.0-80.0","3KAKFY4PGVOI2EXOLSB7XUNESX73IJ","A32K4W6B31XWVR","3EHVO81VN57KAWAV14A1K6BEMLH1HG","","840.7999999523163","img/flower1.png","76","841.6999998092651","3","1","3","2","1,0,0,1,1,0,1,0,1","0,0,1,1,0,1,0,1,1","2",""
"","html-keyboard-response","81","62094","0.0-81.0","3KAKFY4PGVOI2EXOLSB7XUNESX73IJ","A32K4W6B31XWVR","3EHVO81VN57KAWAV14A1K6BEMLH1HG","","null","<img src=""img/flower1.png"" style=""width:200px; border:14px solid green;"">","null","","","","","","","","",""
"","image-keyboard-response","82","62582","0.0-82.0","3KAKFY4PGVOI2EXOLSB7XUNESX73IJ","A32K4W6B31XWVR","3EHVO81VN57KAWAV14A1K6BEMLH1HG","","487","img/flower1.png","76","488.2999999523163","3","1","3","2","1,0,0,1,1,0,1,0,1","0,0,1,1,0,1,0,1,1","2",""
"","html-keyboard-response","83","62885","0.0-83.0","3KAKFY4PGVOI2EXOLSB7XUNESX73IJ","A32K4W6B31XWVR","3EHVO81VN57KAWAV14A1K6BEMLH1HG","","null","<img src=""img/flower1.png"" style=""width:200px; border:14px solid green;"">","null","","","","","","","","",""
"","image-keyboard-response","84","63605","0.0-84.0","3KAKFY4PGVOI2EXOLSB7XUNESX73IJ","A32K4W6B31XWVR","3EHVO81VN57KAWAV14A1K6BEMLH1HG","","719.5999999046326","img/flower5.png","75","720.7000000476837","2","0","1","2","1,0,0,1,1,0,1,0,1","0,0,1,1,0,1,0,1,1","2",""
"","html-keyboard-response","85","63907","0.0-85.0","3KAKFY4PGVOI2EXOLSB7XUNESX73IJ","A32K4W6B31XWVR","3EHVO81VN57KAWAV14A1K6BEMLH1HG","","null","<img src=""img/flower5.png"" style=""width:200px;border:14px solid red;"">","null","","","","","","","","",""
"","image-keyboard-response","86","64451","0.0-86.0","3KAKFY4PGVOI2EXOLSB7XUNESX73IJ","A32K4W6B31XWVR","3EHVO81VN57KAWAV14A1K6BEMLH1HG","","542","img/flower1.png","74","543","1","0","3","2","1,0,0,1,1,0,1,0,1","0,0,1,1,0,1,0,1,1","2",""
"","html-keyboard-response","87","64752","0.0-87.0","3KAKFY4PGVOI2EXOLSB7XUNESX73IJ","A32K4W6B31XWVR","3EHVO81VN57KAWAV14A1K6BEMLH1HG","","null","<img src=""img/flower1.png"" style=""width:200px;border:14px solid red;"">","null","","","","","","","","",""
"","image-keyboard-response","88","65051","0.0-88.0","3KAKFY4PGVOI2EXOLSB7XUNESX73IJ","A32K4W6B31XWVR","3EHVO81VN57KAWAV14A1K6BEMLH1HG","","297","img/flower5.png","76","298.59999990463257","3","1","1","2","1,0,0,1,1,0,1,0,1","0,0,1,1,0,1,0,1,1","2",""
"","html-keyboard-response","89","65353","0.0-89.0","3KAKFY4PGVOI2EXOLSB7XUNESX73IJ","A32K4W6B31XWVR","3EHVO81VN57KAWAV14A1K6BEMLH1HG","","null","<img src=""img/flower5.png"" style=""width:200px; border:14px solid green;"">","null","","","","","","","","",""
"","image-keyboard-response","90","66683","0.0-90.0","3KAKFY4PGVOI2EXOLSB7XUNESX73IJ","A32K4W6B31XWVR","3EHVO81VN57KAWAV14A1K6BEMLH1HG","","1328.5","img/flower2.png","74","1329.6999998092651","1","1","2","2","1,0,0,1,1,0,1,0,1","0,0,1,1,0,1,0,1,1","2",""
"","html-keyboard-response","91","66986","0.0-91.0","3KAKFY4PGVOI2EXOLSB7XUNESX73IJ","A32K4W6B31XWVR","3EHVO81VN57KAWAV14A1K6BEMLH1HG","","null","<img src=""img/flower2.png"" style=""width:200px; border:14px solid green;"">","null","","","","","","","","",""
"","image-keyboard-response","92","67677","0.0-92.0","3KAKFY4PGVOI2EXOLSB7XUNESX73IJ","A32K4W6B31XWVR","3EHVO81VN57KAWAV14A1K6BEMLH1HG","","689.9000000953674","img/flower5.png","75","690.8000001907349","2","0","1","2","1,0,0,1,1,0,1,0,1","0,0,1,1,0,1,0,1,1","2",""
"","html-keyboard-response","93","67979","0.0-93.0","3KAKFY4PGVOI2EXOLSB7XUNESX73IJ","A32K4W6B31XWVR","3EHVO81VN57KAWAV14A1K6BEMLH1HG","","null","<img src=""img/flower5.png"" style=""width:200px;border:14px solid red;"">","null","","","","","","","","",""
"","image-keyboard-response","94","68482","0.0-94.0","3KAKFY4PGVOI2EXOLSB7XUNESX73IJ","A32K4W6B31XWVR","3EHVO81VN57KAWAV14A1K6BEMLH1HG","","501.59999990463257","img/flower1.png","76","502.59999990463257","3","1","3","2","1,0,0,1,1,0,1,0,1","0,0,1,1,0,1,0,1,1","2",""
"","html-keyboard-response","95","68788","0.0-95.0","3KAKFY4PGVOI2EXOLSB7XUNESX73IJ","A32K4W6B31XWVR","3EHVO81VN57KAWAV14A1K6BEMLH1HG","","null","<img src=""img/flower1.png"" style=""width:200px; border:14px solid green;"">","null","","","","","","","","",""
"","image-keyboard-response","96","69176","0.0-96.0","3KAKFY4PGVOI2EXOLSB7XUNESX73IJ","A32K4W6B31XWVR","3EHVO81VN57KAWAV14A1K6BEMLH1HG","","387.2000000476837","img/flower5.png","76","388.19999980926514","3","1","1","2","1,0,0,1,1,0,1,0,1","0,0,1,1,0,1,0,1,1","2",""
"","html-keyboard-response","97","69486","0.0-97.0","3KAKFY4PGVOI2EXOLSB7XUNESX73IJ","A32K4W6B31XWVR","3EHVO81VN57KAWAV14A1K6BEMLH1HG","","null","<img src=""img/flower5.png"" style=""width:200px; border:14px solid green;"">","null","","","","","","","","",""
"","image-keyboard-response","98","70420","0.0-98.0","3KAKFY4PGVOI2EXOLSB7XUNESX73IJ","A32K4W6B31XWVR","3EHVO81VN57KAWAV14A1K6BEMLH1HG","","933","img/flower2.png","74","934.1000001430511","1","1","2","2","1,0,0,1,1,0,1,0,1","0,0,1,1,0,1,0,1,1","2",""
"","html-keyboard-response","99","70722","0.0-99.0","3KAKFY4PGVOI2EXOLSB7XUNESX73IJ","A32K4W6B31XWVR","3EHVO81VN57KAWAV14A1K6BEMLH1HG","","null","<img src=""img/flower2.png"" style=""width:200px; border:14px solid green;"">","null","","","","","","","","",""
"","image-keyboard-response","100","71096","0.0-100.0","3KAKFY4PGVOI2EXOLSB7XUNESX73IJ","A32K4W6B31XWVR","3EHVO81VN57KAWAV14A1K6BEMLH1HG","","372.7999999523163","img/flower5.png","76","373.7999999523163","3","1","1","2","1,0,0,1,1,0,1,0,1","0,0,1,1,0,1,0,1,1","2",""
"","html-keyboard-response","101","71398","0.0-101.0","3KAKFY4PGVOI2EXOLSB7XUNESX73IJ","A32K4W6B31XWVR","3EHVO81VN57KAWAV14A1K6BEMLH1HG","","null","<img src=""img/flower5.png"" style=""width:200px; border:14px solid green;"">","null","","","","","","","","",""
"","image-keyboard-response","102","71912","0.0-102.0","3KAKFY4PGVOI2EXOLSB7XUNESX73IJ","A32K4W6B31XWVR","3EHVO81VN57KAWAV14A1K6BEMLH1HG","","512.7000000476837","img/flower5.png","76","513.7999999523163","3","1","1","2","1,0,0,1,1,0,1,0,1","0,0,1,1,0,1,0,1,1","2",""
"","html-keyboard-response","103","72214","0.0-103.0","3KAKFY4PGVOI2EXOLSB7XUNESX73IJ","A32K4W6B31XWVR","3EHVO81VN57KAWAV14A1K6BEMLH1HG","","null","<img src=""img/flower5.png"" style=""width:200px; border:14px solid green;"">","null","","","","","","","","",""
"","image-keyboard-response","104","72643","0.0-104.0","3KAKFY4PGVOI2EXOLSB7XUNESX73IJ","A32K4W6B31XWVR","3EHVO81VN57KAWAV14A1K6BEMLH1HG","","428.40000009536743","img/flower5.png","76","429.2999999523163","3","1","1","2","1,0,0,1,1,0,1,0,1","0,0,1,1,0,1,0,1,1","2",""
"","html-keyboard-response","105","72945","0.0-105.0","3KAKFY4PGVOI2EXOLSB7XUNESX73IJ","A32K4W6B31XWVR","3EHVO81VN57KAWAV14A1K6BEMLH1HG","","null","<img src=""img/flower5.png"" style=""width:200px; border:14px solid green;"">","null","","","","","","","","",""
"","image-keyboard-response","106","73865","0.0-106.0","3KAKFY4PGVOI2EXOLSB7XUNESX73IJ","A32K4W6B31XWVR","3EHVO81VN57KAWAV14A1K6BEMLH1HG","","918.0999999046326","img/flower1.png","74","919.0999999046326","1","0","3","2","1,0,0,1,1,0,1,0,1","0,0,1,1,0,1,0,1,1","2",""
"","html-keyboard-response","107","74166","0.0-107.0","3KAKFY4PGVOI2EXOLSB7XUNESX73IJ","A32K4W6B31XWVR","3EHVO81VN57KAWAV14A1K6BEMLH1HG","","null","<img src=""img/flower1.png"" style=""width:200px;border:14px solid red;"">","null","","","","","","","","",""
"","image-keyboard-response","108","74506","0.0-108.0","3KAKFY4PGVOI2EXOLSB7XUNESX73IJ","A32K4W6B31XWVR","3EHVO81VN57KAWAV14A1K6BEMLH1HG","","338.5","img/flower5.png","75","339.5","2","0","1","2","1,0,0,1,1,0,1,0,1","0,0,1,1,0,1,0,1,1","2",""
"","html-keyboard-response","109","74808","0.0-109.0","3KAKFY4PGVOI2EXOLSB7XUNESX73IJ","A32K4W6B31XWVR","3EHVO81VN57KAWAV14A1K6BEMLH1HG","","null","<img src=""img/flower5.png"" style=""width:200px;border:14px solid red;"">","null","","","","","","","","",""
"","image-keyboard-response","110","75122","0.0-110.0","3KAKFY4PGVOI2EXOLSB7XUNESX73IJ","A32K4W6B31XWVR","3EHVO81VN57KAWAV14A1K6BEMLH1HG","","312.69999980926514","img/flower5.png","76","313.7000000476837","3","1","1","2","1,0,0,1,1,0,1,0,1","0,0,1,1,0,1,0,1,1","2",""
"","html-keyboard-response","111","75424","0.0-111.0","3KAKFY4PGVOI2EXOLSB7XUNESX73IJ","A32K4W6B31XWVR","3EHVO81VN57KAWAV14A1K6BEMLH1HG","","null","<img src=""img/flower5.png"" style=""width:200px; border:14px solid green;"">","null","","","","","","","","",""
"","image-keyboard-response","112","76305","0.0-112.0","3KAKFY4PGVOI2EXOLSB7XUNESX73IJ","A32K4W6B31XWVR","3EHVO81VN57KAWAV14A1K6BEMLH1HG","","880.3000001907349","img/flower1.png","74","880.8999998569489","1","0","3","2","1,0,0,1,1,0,1,0,1","0,0,1,1,0,1,0,1,1","2",""
"","html-keyboard-response","113","76607","0.0-113.0","3KAKFY4PGVOI2EXOLSB7XUNESX73IJ","A32K4W6B31XWVR","3EHVO81VN57KAWAV14A1K6BEMLH1HG","","null","<img src=""img/flower1.png"" style=""width:200px;border:14px solid red;"">","null","","","","","","","","",""
"","image-keyboard-response","114","76942","0.0-114.0","3KAKFY4PGVOI2EXOLSB7XUNESX73IJ","A32K4W6B31XWVR","3EHVO81VN57KAWAV14A1K6BEMLH1HG","","333.2999999523163","img/flower2.png","76","334.40000009536743","3","1","2","2","1,0,0,1,1,0,1,0,1","0,0,1,1,0,1,0,1,1","2",""
"","html-keyboard-response","115","77244","0.0-115.0","3KAKFY4PGVOI2EXOLSB7XUNESX73IJ","A32K4W6B31XWVR","3EHVO81VN57KAWAV14A1K6BEMLH1HG","","null","<img src=""img/flower2.png"" style=""width:200px; border:14px solid green;"">","null","","","","","","","","",""
"","image-keyboard-response","116","77802","0.0-116.0","3KAKFY4PGVOI2EXOLSB7XUNESX73IJ","A32K4W6B31XWVR","3EHVO81VN57KAWAV14A1K6BEMLH1HG","","556.2000000476837","img/flower2.png","76","557.2000000476837","3","1","2","2","1,0,0,1,1,0,1,0,1","0,0,1,1,0,1,0,1,1","2",""
"","html-keyboard-response","117","78104","0.0-117.0","3KAKFY4PGVOI2EXOLSB7XUNESX73IJ","A32K4W6B31XWVR","3EHVO81VN57KAWAV14A1K6BEMLH1HG","","null","<img src=""img/flower2.png"" style=""width:200px; border:14px solid green;"">","null","","","","","","","","",""
"","image-keyboard-response","118","78528","0.0-118.0","3KAKFY4PGVOI2EXOLSB7XUNESX73IJ","A32K4W6B31XWVR","3EHVO81VN57KAWAV14A1K6BEMLH1HG","","422.7999999523163","img/flower2.png","76","423.60000014305115","3","1","2","2","1,0,0,1,1,0,1,0,1","0,0,1,1,0,1,0,1,1","2",""
"","html-keyboard-response","119","78830","0.0-119.0","3KAKFY4PGVOI2EXOLSB7XUNESX73IJ","A32K4W6B31XWVR","3EHVO81VN57KAWAV14A1K6BEMLH1HG","","null","<img src=""img/flower2.png"" style=""width:200px; border:14px solid green;"">","null","","","","","","","","",""
"","image-keyboard-response","120","79964","0.0-120.0","3KAKFY4PGVOI2EXOLSB7XUNESX73IJ","A32K4W6B31XWVR","3EHVO81VN57KAWAV14A1K6BEMLH1HG","","1132.2999999523163","img/flower5.png","75","1133.2999999523163","2","0","1","2","1,0,0,1,1,0,1,0,1","0,0,1,1,0,1,0,1,1","2",""
"","html-keyboard-response","121","80266","0.0-121.0","3KAKFY4PGVOI2EXOLSB7XUNESX73IJ","A32K4W6B31XWVR","3EHVO81VN57KAWAV14A1K6BEMLH1HG","","null","<img src=""img/flower5.png"" style=""width:200px;border:14px solid red;"">","null","","","","","","","","",""
"","image-keyboard-response","122","80953","0.0-122.0","3KAKFY4PGVOI2EXOLSB7XUNESX73IJ","A32K4W6B31XWVR","3EHVO81VN57KAWAV14A1K6BEMLH1HG","","685.6000001430511","img/flower2.png","74","686.7000000476837","1","1","2","2","1,0,0,1,1,0,1,0,1","0,0,1,1,0,1,0,1,1","2",""
"","html-keyboard-response","123","81254","0.0-123.0","3KAKFY4PGVOI2EXOLSB7XUNESX73IJ","A32K4W6B31XWVR","3EHVO81VN57KAWAV14A1K6BEMLH1HG","","null","<img src=""img/flower2.png"" style=""width:200px; border:14px solid green;"">","null","","","","","","","","",""
"","image-keyboard-response","124","81610","0.0-124.0","3KAKFY4PGVOI2EXOLSB7XUNESX73IJ","A32K4W6B31XWVR","3EHVO81VN57KAWAV14A1K6BEMLH1HG","","355.09999990463257","img/flower2.png","74","355.7000000476837","1","1","2","2","1,0,0,1,1,0,1,0,1","0,0,1,1,0,1,0,1,1","2",""
"","html-keyboard-response","125","81912","0.0-125.0","3KAKFY4PGVOI2EXOLSB7XUNESX73IJ","A32K4W6B31XWVR","3EHVO81VN57KAWAV14A1K6BEMLH1HG","","null","<img src=""img/flower2.png"" style=""width:200px; border:14px solid green;"">","null","","","","","","","","",""
"","image-keyboard-response","126","82656","0.0-126.0","3KAKFY4PGVOI2EXOLSB7XUNESX73IJ","A32K4W6B31XWVR","3EHVO81VN57KAWAV14A1K6BEMLH1HG","","742","img/flower1.png","76","743.1999998092651","3","1","3","2","1,0,0,1,1,0,1,0,1","0,0,1,1,0,1,0,1,1","2",""
"","html-keyboard-response","127","82958","0.0-127.0","3KAKFY4PGVOI2EXOLSB7XUNESX73IJ","A32K4W6B31XWVR","3EHVO81VN57KAWAV14A1K6BEMLH1HG","","null","<img src=""img/flower1.png"" style=""width:200px; border:14px solid green;"">","null","","","","","","","","",""
"","image-keyboard-response","128","83341","0.0-128.0","3KAKFY4PGVOI2EXOLSB7XUNESX73IJ","A32K4W6B31XWVR","3EHVO81VN57KAWAV14A1K6BEMLH1HG","","381.2999999523163","img/flower1.png","76","382.40000009536743","3","1","3","2","1,0,0,1,1,0,1,0,1","0,0,1,1,0,1,0,1,1","2",""
"","html-keyboard-response","129","83643","0.0-129.0","3KAKFY4PGVOI2EXOLSB7XUNESX73IJ","A32K4W6B31XWVR","3EHVO81VN57KAWAV14A1K6BEMLH1HG","","null","<img src=""img/flower1.png"" style=""width:200px; border:14px solid green;"">","null","","","","","","","","",""
"","image-keyboard-response","130","84235","0.0-130.0","3KAKFY4PGVOI2EXOLSB7XUNESX73IJ","A32K4W6B31XWVR","3EHVO81VN57KAWAV14A1K6BEMLH1HG","","590.2999999523163","img/flower5.png","76","591.2000000476837","3","1","1","2","1,0,0,1,1,0,1,0,1","0,0,1,1,0,1,0,1,1","2",""
"","html-keyboard-response","131","84536","0.0-131.0","3KAKFY4PGVOI2EXOLSB7XUNESX73IJ","A32K4W6B31XWVR","3EHVO81VN57KAWAV14A1K6BEMLH1HG","","null","<img src=""img/flower5.png"" style=""width:200px; border:14px solid green;"">","null","","","","","","","","",""
"","image-keyboard-response","132","84890","0.0-132.0","3KAKFY4PGVOI2EXOLSB7XUNESX73IJ","A32K4W6B31XWVR","3EHVO81VN57KAWAV14A1K6BEMLH1HG","","352.90000009536743","img/flower5.png","76","353.7000000476837","3","1","1","2","1,0,0,1,1,0,1,0,1","0,0,1,1,0,1,0,1,1","2",""
"","html-keyboard-response","133","85193","0.0-133.0","3KAKFY4PGVOI2EXOLSB7XUNESX73IJ","A32K4W6B31XWVR","3EHVO81VN57KAWAV14A1K6BEMLH1HG","","null","<img src=""img/flower5.png"" style=""width:200px; border:14px solid green;"">","null","","","","","","","","",""
"","image-keyboard-response","134","85914","0.0-134.0","3KAKFY4PGVOI2EXOLSB7XUNESX73IJ","A32K4W6B31XWVR","3EHVO81VN57KAWAV14A1K6BEMLH1HG","","720.5","img/flower1.png","76","721.2000000476837","3","1","3","2","1,0,0,1,1,0,1,0,1","0,0,1,1,0,1,0,1,1","2",""
"","html-keyboard-response","135","86217","0.0-135.0","3KAKFY4PGVOI2EXOLSB7XUNESX73IJ","A32K4W6B31XWVR","3EHVO81VN57KAWAV14A1K6BEMLH1HG","","null","<img src=""img/flower1.png"" style=""width:200px; border:14px solid green;"">","null","","","","","","","","",""
"","image-keyboard-response","136","86507","0.0-136.0","3KAKFY4PGVOI2EXOLSB7XUNESX73IJ","A32K4W6B31XWVR","3EHVO81VN57KAWAV14A1K6BEMLH1HG","","288.89999985694885","img/flower1.png","76","289.90000009536743","3","1","3","2","1,0,0,1,1,0,1,0,1","0,0,1,1,0,1,0,1,1","2",""
"","html-keyboard-response","137","86809","0.0-137.0","3KAKFY4PGVOI2EXOLSB7XUNESX73IJ","A32K4W6B31XWVR","3EHVO81VN57KAWAV14A1K6BEMLH1HG","","null","<img src=""img/flower1.png"" style=""width:200px; border:14px solid green;"">","null","","","","","","","","",""
"","image-keyboard-response","138","87336","0.0-138.0","3KAKFY4PGVOI2EXOLSB7XUNESX73IJ","A32K4W6B31XWVR","3EHVO81VN57KAWAV14A1K6BEMLH1HG","","525.5999999046326","img/flower1.png","76","526.7000000476837","3","1","3","2","1,0,0,1,1,0,1,0,1","0,0,1,1,0,1,0,1,1","2",""
"","html-keyboard-response","139","87637","0.0-139.0","3KAKFY4PGVOI2EXOLSB7XUNESX73IJ","A32K4W6B31XWVR","3EHVO81VN57KAWAV14A1K6BEMLH1HG","","null","<img src=""img/flower1.png"" style=""width:200px; border:14px solid green;"">","null","","","","","","","","",""
"","image-keyboard-response","140","88207","0.0-140.0","3KAKFY4PGVOI2EXOLSB7XUNESX73IJ","A32K4W6B31XWVR","3EHVO81VN57KAWAV14A1K6BEMLH1HG","","568.2999999523163","img/flower2.png","74","569.4000000953674","1","1","2","2","1,0,0,1,1,0,1,0,1","0,0,1,1,0,1,0,1,1","2",""
"","html-keyboard-response","141","88509","0.0-141.0","3KAKFY4PGVOI2EXOLSB7XUNESX73IJ","A32K4W6B31XWVR","3EHVO81VN57KAWAV14A1K6BEMLH1HG","","null","<img src=""img/flower2.png"" style=""width:200px; border:14px solid green;"">","null","","","","","","","","",""
"","image-keyboard-response","142","88992","0.0-142.0","3KAKFY4PGVOI2EXOLSB7XUNESX73IJ","A32K4W6B31XWVR","3EHVO81VN57KAWAV14A1K6BEMLH1HG","","481.2999999523163","img/flower1.png","76","482.59999990463257","3","1","3","2","1,0,0,1,1,0,1,0,1","0,0,1,1,0,1,0,1,1","2",""
"","html-keyboard-response","143","89294","0.0-143.0","3KAKFY4PGVOI2EXOLSB7XUNESX73IJ","A32K4W6B31XWVR","3EHVO81VN57KAWAV14A1K6BEMLH1HG","","null","<img src=""img/flower1.png"" style=""width:200px; border:14px solid green;"">","null","","","","","","","","",""
"","image-keyboard-response","144","90131","0.0-144.0","3KAKFY4PGVOI2EXOLSB7XUNESX73IJ","A32K4W6B31XWVR","3EHVO81VN57KAWAV14A1K6BEMLH1HG","","836","img/flower5.png","76","837.0999999046326","3","1","1","2","1,0,0,1,1,0,1,0,1","0,0,1,1,0,1,0,1,1","2",""
"","html-keyboard-response","145","90434","0.0-145.0","3KAKFY4PGVOI2EXOLSB7XUNESX73IJ","A32K4W6B31XWVR","3EHVO81VN57KAWAV14A1K6BEMLH1HG","","null","<img src=""img/flower5.png"" style=""width:200px; border:14px solid green;"">","null","","","","","","","","",""
"","image-keyboard-response","146","91065","0.0-146.0","3KAKFY4PGVOI2EXOLSB7XUNESX73IJ","A32K4W6B31XWVR","3EHVO81VN57KAWAV14A1K6BEMLH1HG","","630.2000000476837","img/flower1.png","76","631.2999999523163","3","1","3","2","1,0,0,1,1,0,1,0,1","0,0,1,1,0,1,0,1,1","2",""
"","html-keyboard-response","147","91367","0.0-147.0","3KAKFY4PGVOI2EXOLSB7XUNESX73IJ","A32K4W6B31XWVR","3EHVO81VN57KAWAV14A1K6BEMLH1HG","","null","<img src=""img/flower1.png"" style=""width:200px; border:14px solid green;"">","null","","","","","","","","",""
"","image-keyboard-response","148","92248","0.0-148.0","3KAKFY4PGVOI2EXOLSB7XUNESX73IJ","A32K4W6B31XWVR","3EHVO81VN57KAWAV14A1K6BEMLH1HG","","879.9000000953674","img/flower5.png","76","881","3","1","1","2","1,0,0,1,1,0,1,0,1","0,0,1,1,0,1,0,1,1","2",""
"","html-keyboard-response","149","92565","0.0-149.0","3KAKFY4PGVOI2EXOLSB7XUNESX73IJ","A32K4W6B31XWVR","3EHVO81VN57KAWAV14A1K6BEMLH1HG","","null","<img src=""img/flower5.png"" style=""width:200px; border:14px solid green;"">","null","","","","","","","","",""
"","image-keyboard-response","150","93108","0.0-150.0","3KAKFY4PGVOI2EXOLSB7XUNESX73IJ","A32K4W6B31XWVR","3EHVO81VN57KAWAV14A1K6BEMLH1HG","","541.4000000953674","img/flower1.png","76","542.3999998569489","3","1","3","2","1,0,0,1,1,0,1,0,1","0,0,1,1,0,1,0,1,1","2",""
"","html-keyboard-response","151","93410","0.0-151.0","3KAKFY4PGVOI2EXOLSB7XUNESX73IJ","A32K4W6B31XWVR","3EHVO81VN57KAWAV14A1K6BEMLH1HG","","null","<img src=""img/flower1.png"" style=""width:200px; border:14px solid green;"">","null","","","","","","","","",""
"","image-keyboard-response","152","93864","0.0-152.0","3KAKFY4PGVOI2EXOLSB7XUNESX73IJ","A32K4W6B31XWVR","3EHVO81VN57KAWAV14A1K6BEMLH1HG","","452.5","img/flower5.png","76","453.59999990463257","3","1","1","2","1,0,0,1,1,0,1,0,1","0,0,1,1,0,1,0,1,1","2",""
"","html-keyboard-response","153","94166","0.0-153.0","3KAKFY4PGVOI2EXOLSB7XUNESX73IJ","A32K4W6B31XWVR","3EHVO81VN57KAWAV14A1K6BEMLH1HG","","null","<img src=""img/flower5.png"" style=""width:200px; border:14px solid green;"">","null","","","","","","","","",""
"","image-keyboard-response","154","94614","0.0-154.0","3KAKFY4PGVOI2EXOLSB7XUNESX73IJ","A32K4W6B31XWVR","3EHVO81VN57KAWAV14A1K6BEMLH1HG","","447.5","img/flower5.png","76","448.40000009536743","3","1","1","2","1,0,0,1,1,0,1,0,1","0,0,1,1,0,1,0,1,1","2",""
"","html-keyboard-response","155","94916","0.0-155.0","3KAKFY4PGVOI2EXOLSB7XUNESX73IJ","A32K4W6B31XWVR","3EHVO81VN57KAWAV14A1K6BEMLH1HG","","null","<img src=""img/flower5.png"" style=""width:200px; border:14px solid green;"">","null","","","","","","","","",""
"","image-keyboard-response","156","95385","0.0-156.0","3KAKFY4PGVOI2EXOLSB7XUNESX73IJ","A32K4W6B31XWVR","3EHVO81VN57KAWAV14A1K6BEMLH1HG","","468","img/flower2.png","74","469","1","1","2","2","1,0,0,1,1,0,1,0,1","0,0,1,1,0,1,0,1,1","2",""
"","html-keyboard-response","157","95687","0.0-157.0","3KAKFY4PGVOI2EXOLSB7XUNESX73IJ","A32K4W6B31XWVR","3EHVO81VN57KAWAV14A1K6BEMLH1HG","","null","<img src=""img/flower2.png"" style=""width:200px; border:14px solid green;"">","null","","","","","","","","",""
"","image-keyboard-response","158","96116","0.0-158.0","3KAKFY4PGVOI2EXOLSB7XUNESX73IJ","A32K4W6B31XWVR","3EHVO81VN57KAWAV14A1K6BEMLH1HG","","427.2999999523163","img/flower5.png","76","428.39999985694885","3","1","1","2","1,0,0,1,1,0,1,0,1","0,0,1,1,0,1,0,1,1","2",""
"","html-keyboard-response","159","96418","0.0-159.0","3KAKFY4PGVOI2EXOLSB7XUNESX73IJ","A32K4W6B31XWVR","3EHVO81VN57KAWAV14A1K6BEMLH1HG","","null","<img src=""img/flower5.png"" style=""width:200px; border:14px solid green;"">","null","","","","","","","","",""
"","image-keyboard-response","160","96842","0.0-160.0","3KAKFY4PGVOI2EXOLSB7XUNESX73IJ","A32K4W6B31XWVR","3EHVO81VN57KAWAV14A1K6BEMLH1HG","","422.7999999523163","img/flower5.png","76","423.59999990463257","3","1","1","2","1,0,0,1,1,0,1,0,1","0,0,1,1,0,1,0,1,1","2",""
"","html-keyboard-response","161","97143","0.0-161.0","3KAKFY4PGVOI2EXOLSB7XUNESX73IJ","A32K4W6B31XWVR","3EHVO81VN57KAWAV14A1K6BEMLH1HG","","null","<img src=""img/flower5.png"" style=""width:200px; border:14px solid green;"">","null","","","","","","","","",""
"","image-keyboard-response","162","98377","0.0-162.0","3KAKFY4PGVOI2EXOLSB7XUNESX73IJ","A32K4W6B31XWVR","3EHVO81VN57KAWAV14A1K6BEMLH1HG","","1232.5","img/flower1.png","76","1233.2999999523163","3","1","3","2","1,0,0,1,1,0,1,0,1","0,0,1,1,0,1,0,1,1","2",""
"","html-keyboard-response","163","98679","0.0-163.0","3KAKFY4PGVOI2EXOLSB7XUNESX73IJ","A32K4W6B31XWVR","3EHVO81VN57KAWAV14A1K6BEMLH1HG","","null","<img src=""img/flower1.png"" style=""width:200px; border:14px solid green;"">","null","","","","","","","","",""
"","image-keyboard-response","164","99457","0.0-164.0","3KAKFY4PGVOI2EXOLSB7XUNESX73IJ","A32K4W6B31XWVR","3EHVO81VN57KAWAV14A1K6BEMLH1HG","","777","img/flower2.png","74","778.1000001430511","1","1","2","2","1,0,0,1,1,0,1,0,1","0,0,1,1,0,1,0,1,1","2",""
"","html-keyboard-response","165","99759","0.0-165.0","3KAKFY4PGVOI2EXOLSB7XUNESX73IJ","A32K4W6B31XWVR","3EHVO81VN57KAWAV14A1K6BEMLH1HG","","null","<img src=""img/flower2.png"" style=""width:200px; border:14px solid green;"">","null","","","","","","","","",""
"","image-keyboard-response","166","100415","0.0-166.0","3KAKFY4PGVOI2EXOLSB7XUNESX73IJ","A32K4W6B31XWVR","3EHVO81VN57KAWAV14A1K6BEMLH1HG","","654.7000000476837","img/flower2.png","74","655.7999999523163","1","1","2","2","1,0,0,1,1,0,1,0,1","0,0,1,1,0,1,0,1,1","2",""
"","html-keyboard-response","167","100717","0.0-167.0","3KAKFY4PGVOI2EXOLSB7XUNESX73IJ","A32K4W6B31XWVR","3EHVO81VN57KAWAV14A1K6BEMLH1HG","","null","<img src=""img/flower2.png"" style=""width:200px; border:14px solid green;"">","null","","","","","","","","",""
"","image-keyboard-response","168","101304","0.0-168.0","3KAKFY4PGVOI2EXOLSB7XUNESX73IJ","A32K4W6B31XWVR","3EHVO81VN57KAWAV14A1K6BEMLH1HG","","586.4000000953674","img/flower1.png","76","587.5","3","1","3","2","1,0,0,1,1,0,1,0,1","0,0,1,1,0,1,0,1,1","2",""
"","html-keyboard-response","169","101607","0.0-169.0","3KAKFY4PGVOI2EXOLSB7XUNESX73IJ","A32K4W6B31XWVR","3EHVO81VN57KAWAV14A1K6BEMLH1HG","","null","<img src=""img/flower1.png"" style=""width:200px; border:14px solid green;"">","null","","","","","","","","",""
"","image-keyboard-response","170","102309","0.0-170.0","3KAKFY4PGVOI2EXOLSB7XUNESX73IJ","A32K4W6B31XWVR","3EHVO81VN57KAWAV14A1K6BEMLH1HG","","701.1000001430511","img/flower5.png","76","702.2000000476837","3","1","1","2","1,0,0,1,1,0,1,0,1","0,0,1,1,0,1,0,1,1","2",""
"","html-keyboard-response","171","102611","0.0-171.0","3KAKFY4PGVOI2EXOLSB7XUNESX73IJ","A32K4W6B31XWVR","3EHVO81VN57KAWAV14A1K6BEMLH1HG","","null","<img src=""img/flower5.png"" style=""width:200px; border:14px solid green;"">","null","","","","","","","","",""
"","image-keyboard-response","172","102975","0.0-172.0","3KAKFY4PGVOI2EXOLSB7XUNESX73IJ","A32K4W6B31XWVR","3EHVO81VN57KAWAV14A1K6BEMLH1HG","","363.89999985694885","img/flower5.png","76","364.60000014305115","3","1","1","2","1,0,0,1,1,0,1,0,1","0,0,1,1,0,1,0,1,1","2",""
"","html-keyboard-response","173","103278","0.0-173.0","3KAKFY4PGVOI2EXOLSB7XUNESX73IJ","A32K4W6B31XWVR","3EHVO81VN57KAWAV14A1K6BEMLH1HG","","null","<img src=""img/flower5.png"" style=""width:200px; border:14px solid green;"">","null","","","","","","","","",""
"","image-keyboard-response","174","103845","0.0-174.0","3KAKFY4PGVOI2EXOLSB7XUNESX73IJ","A32K4W6B31XWVR","3EHVO81VN57KAWAV14A1K6BEMLH1HG","","566","img/flower2.png","74","567","1","1","2","2","1,0,0,1,1,0,1,0,1","0,0,1,1,0,1,0,1,1","2",""
"","html-keyboard-response","175","104147","0.0-175.0","3KAKFY4PGVOI2EXOLSB7XUNESX73IJ","A32K4W6B31XWVR","3EHVO81VN57KAWAV14A1K6BEMLH1HG","","null","<img src=""img/flower2.png"" style=""width:200px; border:14px solid green;"">","null","","","","","","","","",""
"","image-keyboard-response","176","104528","0.0-176.0","3KAKFY4PGVOI2EXOLSB7XUNESX73IJ","A32K4W6B31XWVR","3EHVO81VN57KAWAV14A1K6BEMLH1HG","","380.5","img/flower1.png","76","381.39999985694885","3","1","3","2","1,0,0,1,1,0,1,0,1","0,0,1,1,0,1,0,1,1","2",""
"","html-keyboard-response","177","104830","0.0-177.0","3KAKFY4PGVOI2EXOLSB7XUNESX73IJ","A32K4W6B31XWVR","3EHVO81VN57KAWAV14A1K6BEMLH1HG","","null","<img src=""img/flower1.png"" style=""width:200px; border:14px solid green;"">","null","","","","","","","","",""
"","image-keyboard-response","178","105217","0.0-178.0","3KAKFY4PGVOI2EXOLSB7XUNESX73IJ","A32K4W6B31XWVR","3EHVO81VN57KAWAV14A1K6BEMLH1HG","","384.7999999523163","img/flower5.png","76","385.90000009536743","3","1","1","2","1,0,0,1,1,0,1,0,1","0,0,1,1,0,1,0,1,1","2",""
"","html-keyboard-response","179","105518","0.0-179.0","3KAKFY4PGVOI2EXOLSB7XUNESX73IJ","A32K4W6B31XWVR","3EHVO81VN57KAWAV14A1K6BEMLH1HG","","null","<img src=""img/flower5.png"" style=""width:200px; border:14px solid green;"">","null","","","","","","","","",""
"","image-keyboard-response","180","105957","0.0-180.0","3KAKFY4PGVOI2EXOLSB7XUNESX73IJ","A32K4W6B31XWVR","3EHVO81VN57KAWAV14A1K6BEMLH1HG","","438.80000019073486","img/flower1.png","76","439.2999999523163","3","1","3","2","1,0,0,1,1,0,1,0,1","0,0,1,1,0,1,0,1,1","2",""
"","html-keyboard-response","181","106272","0.0-181.0","3KAKFY4PGVOI2EXOLSB7XUNESX73IJ","A32K4W6B31XWVR","3EHVO81VN57KAWAV14A1K6BEMLH1HG","","null","<img src=""img/flower1.png"" style=""width:200px; border:14px solid green;"">","null","","","","","","","","",""
"","image-keyboard-response","182","107350","0.0-182.0","3KAKFY4PGVOI2EXOLSB7XUNESX73IJ","A32K4W6B31XWVR","3EHVO81VN57KAWAV14A1K6BEMLH1HG","","1076.7000000476837","img/flower6.png","75","1077.7000000476837","2","0","1","1","1,0.333,0.333,0.333,1,0.333,0.333,0.333,1","1,0.333,0.333,0.333,1,0.333,0.333,0.333,1","1",""
"","html-keyboard-response","183","107653","0.0-183.0","3KAKFY4PGVOI2EXOLSB7XUNESX73IJ","A32K4W6B31XWVR","3EHVO81VN57KAWAV14A1K6BEMLH1HG","","null","<img src=""img/flower6.png"" style=""width:200px;border:14px solid red;"">","null","","","","","","","","",""
"","image-keyboard-response","184","108000","0.0-184.0","3KAKFY4PGVOI2EXOLSB7XUNESX73IJ","A32K4W6B31XWVR","3EHVO81VN57KAWAV14A1K6BEMLH1HG","","345.7999999523163","img/flower6.png","76","347","3","1","1","1","1,0.333,0.333,0.333,1,0.333,0.333,0.333,1","1,0.333,0.333,0.333,1,0.333,0.333,0.333,1","1",""
"","html-keyboard-response","185","108302","0.0-185.0","3KAKFY4PGVOI2EXOLSB7XUNESX73IJ","A32K4W6B31XWVR","3EHVO81VN57KAWAV14A1K6BEMLH1HG","","null","<img src=""img/flower6.png"" style=""width:200px; border:14px solid green;"">","null","","","","","","","","",""
"","image-keyboard-response","186","108960","0.0-186.0","3KAKFY4PGVOI2EXOLSB7XUNESX73IJ","A32K4W6B31XWVR","3EHVO81VN57KAWAV14A1K6BEMLH1HG","","656.5","img/flower3.png","74","657.5","1","0","2","1","1,0.333,0.333,0.333,1,0.333,0.333,0.333,1","1,0.333,0.333,0.333,1,0.333,0.333,0.333,1","1",""
"","html-keyboard-response","187","109261","0.0-187.0","3KAKFY4PGVOI2EXOLSB7XUNESX73IJ","A32K4W6B31XWVR","3EHVO81VN57KAWAV14A1K6BEMLH1HG","","null","<img src=""img/flower3.png"" style=""width:200px;border:14px solid red;"">","null","","","","","","","","",""
"","image-keyboard-response","188","109636","0.0-188.0","3KAKFY4PGVOI2EXOLSB7XUNESX73IJ","A32K4W6B31XWVR","3EHVO81VN57KAWAV14A1K6BEMLH1HG","","373.09999990463257","img/flower3.png","75","374.2000000476837","2","1","2","1","1,0.333,0.333,0.333,1,0.333,0.333,0.333,1","1,0.333,0.333,0.333,1,0.333,0.333,0.333,1","1",""
"","html-keyboard-response","189","109937","0.0-189.0","3KAKFY4PGVOI2EXOLSB7XUNESX73IJ","A32K4W6B31XWVR","3EHVO81VN57KAWAV14A1K6BEMLH1HG","","null","<img src=""img/flower3.png"" style=""width:200px; border:14px solid green;"">","null","","","","","","","","",""
"","image-keyboard-response","190","110565","0.0-190.0","3KAKFY4PGVOI2EXOLSB7XUNESX73IJ","A32K4W6B31XWVR","3EHVO81VN57KAWAV14A1K6BEMLH1HG","","627.3000001907349","img/flower4.png","76","628.3999998569489","3","1","3","1","1,0.333,0.333,0.333,1,0.333,0.333,0.333,1","1,0.333,0.333,0.333,1,0.333,0.333,0.333,1","1",""
"","html-keyboard-response","191","110868","0.0-191.0","3KAKFY4PGVOI2EXOLSB7XUNESX73IJ","A32K4W6B31XWVR","3EHVO81VN57KAWAV14A1K6BEMLH1HG","","null","<img src=""img/flower4.png"" style=""width:200px; border:14px solid green;"">","null","","","","","","","","",""
"","image-keyboard-response","192","111360","0.0-192.0","3KAKFY4PGVOI2EXOLSB7XUNESX73IJ","A32K4W6B31XWVR","3EHVO81VN57KAWAV14A1K6BEMLH1HG","","491.60000014305115","img/flower3.png","75","492.59999990463257","2","1","2","1","1,0.333,0.333,0.333,1,0.333,0.333,0.333,1","1,0.333,0.333,0.333,1,0.333,0.333,0.333,1","1",""
"","html-keyboard-response","193","111662","0.0-193.0","3KAKFY4PGVOI2EXOLSB7XUNESX73IJ","A32K4W6B31XWVR","3EHVO81VN57KAWAV14A1K6BEMLH1HG","","null","<img src=""img/flower3.png"" style=""width:200px; border:14px solid green;"">","null","","","","","","","","",""
"","image-keyboard-response","194","112663","0.0-194.0","3KAKFY4PGVOI2EXOLSB7XUNESX73IJ","A32K4W6B31XWVR","3EHVO81VN57KAWAV14A1K6BEMLH1HG","","998.8000001907349","img/flower6.png","74","999.8999998569489","1","1","1","1","1,0.333,0.333,0.333,1,0.333,0.333,0.333,1","1,0.333,0.333,0.333,1,0.333,0.333,0.333,1","1",""
"","html-keyboard-response","195","112971","0.0-195.0","3KAKFY4PGVOI2EXOLSB7XUNESX73IJ","A32K4W6B31XWVR","3EHVO81VN57KAWAV14A1K6BEMLH1HG","","null","<img src=""img/flower6.png"" style=""width:200px; border:14px solid green;"">","null","","","","","","","","",""
"","image-keyboard-response","196","113781","0.0-196.0","3KAKFY4PGVOI2EXOLSB7XUNESX73IJ","A32K4W6B31XWVR","3EHVO81VN57KAWAV14A1K6BEMLH1HG","","809","img/flower4.png","76","810","3","1","3","1","1,0.333,0.333,0.333,1,0.333,0.333,0.333,1","1,0.333,0.333,0.333,1,0.333,0.333,0.333,1","1",""
"","html-keyboard-response","197","114083","0.0-197.0","3KAKFY4PGVOI2EXOLSB7XUNESX73IJ","A32K4W6B31XWVR","3EHVO81VN57KAWAV14A1K6BEMLH1HG","","null","<img src=""img/flower4.png"" style=""width:200px; border:14px solid green;"">","null","","","","","","","","",""
"","image-keyboard-response","198","114556","0.0-198.0","3KAKFY4PGVOI2EXOLSB7XUNESX73IJ","A32K4W6B31XWVR","3EHVO81VN57KAWAV14A1K6BEMLH1HG","","472.2999999523163","img/flower3.png","75","473.30000019073486","2","1","2","1","1,0.333,0.333,0.333,1,0.333,0.333,0.333,1","1,0.333,0.333,0.333,1,0.333,0.333,0.333,1","1",""
"","html-keyboard-response","199","114858","0.0-199.0","3KAKFY4PGVOI2EXOLSB7XUNESX73IJ","A32K4W6B31XWVR","3EHVO81VN57KAWAV14A1K6BEMLH1HG","","null","<img src=""img/flower3.png"" style=""width:200px; border:14px solid green;"">","null","","","","","","","","",""
"","image-keyboard-response","200","115312","0.0-200.0","3KAKFY4PGVOI2EXOLSB7XUNESX73IJ","A32K4W6B31XWVR","3EHVO81VN57KAWAV14A1K6BEMLH1HG","","454.10000014305115","img/flower6.png","74","454.7000000476837","1","1","1","1","1,0.333,0.333,0.333,1,0.333,0.333,0.333,1","1,0.333,0.333,0.333,1,0.333,0.333,0.333,1","1",""
"","html-keyboard-response","201","115614","0.0-201.0","3KAKFY4PGVOI2EXOLSB7XUNESX73IJ","A32K4W6B31XWVR","3EHVO81VN57KAWAV14A1K6BEMLH1HG","","null","<img src=""img/flower6.png"" style=""width:200px; border:14px solid green;"">","null","","","","","","","","",""
"","image-keyboard-response","202","116087","0.0-202.0","3KAKFY4PGVOI2EXOLSB7XUNESX73IJ","A32K4W6B31XWVR","3EHVO81VN57KAWAV14A1K6BEMLH1HG","","472","img/flower3.png","75","473","2","1","2","1","1,0.333,0.333,0.333,1,0.333,0.333,0.333,1","1,0.333,0.333,0.333,1,0.333,0.333,0.333,1","1",""
"","html-keyboard-response","203","116403","0.0-203.0","3KAKFY4PGVOI2EXOLSB7XUNESX73IJ","A32K4W6B31XWVR","3EHVO81VN57KAWAV14A1K6BEMLH1HG","","null","<img src=""img/flower3.png"" style=""width:200px; border:14px solid green;"">","null","","","","","","","","",""
"","image-keyboard-response","204","117032","0.0-204.0","3KAKFY4PGVOI2EXOLSB7XUNESX73IJ","A32K4W6B31XWVR","3EHVO81VN57KAWAV14A1K6BEMLH1HG","","627.8999998569489","img/flower6.png","74","628.8999998569489","1","1","1","1","1,0.333,0.333,0.333,1,0.333,0.333,0.333,1","1,0.333,0.333,0.333,1,0.333,0.333,0.333,1","1",""
"","html-keyboard-response","205","117334","0.0-205.0","3KAKFY4PGVOI2EXOLSB7XUNESX73IJ","A32K4W6B31XWVR","3EHVO81VN57KAWAV14A1K6BEMLH1HG","","null","<img src=""img/flower6.png"" style=""width:200px; border:14px solid green;"">","null","","","","","","","","",""
"","image-keyboard-response","206","117812","0.0-206.0","3KAKFY4PGVOI2EXOLSB7XUNESX73IJ","A32K4W6B31XWVR","3EHVO81VN57KAWAV14A1K6BEMLH1HG","","476.59999990463257","img/flower3.png","75","477.7000000476837","2","1","2","1","1,0.333,0.333,0.333,1,0.333,0.333,0.333,1","1,0.333,0.333,0.333,1,0.333,0.333,0.333,1","1",""
"","html-keyboard-response","207","118114","0.0-207.0","3KAKFY4PGVOI2EXOLSB7XUNESX73IJ","A32K4W6B31XWVR","3EHVO81VN57KAWAV14A1K6BEMLH1HG","","null","<img src=""img/flower3.png"" style=""width:200px; border:14px solid green;"">","null","","","","","","","","",""
"","image-keyboard-response","208","118642","0.0-208.0","3KAKFY4PGVOI2EXOLSB7XUNESX73IJ","A32K4W6B31XWVR","3EHVO81VN57KAWAV14A1K6BEMLH1HG","","527.2000000476837","img/flower3.png","75","528.2999999523163","2","1","2","1","1,0.333,0.333,0.333,1,0.333,0.333,0.333,1","1,0.333,0.333,0.333,1,0.333,0.333,0.333,1","1",""
"","html-keyboard-response","209","118944","0.0-209.0","3KAKFY4PGVOI2EXOLSB7XUNESX73IJ","A32K4W6B31XWVR","3EHVO81VN57KAWAV14A1K6BEMLH1HG","","null","<img src=""img/flower3.png"" style=""width:200px; border:14px solid green;"">","null","","","","","","","","",""
"","image-keyboard-response","210","119278","0.0-210.0","3KAKFY4PGVOI2EXOLSB7XUNESX73IJ","A32K4W6B31XWVR","3EHVO81VN57KAWAV14A1K6BEMLH1HG","","332.2000000476837","img/flower3.png","75","333.2000000476837","2","1","2","1","1,0.333,0.333,0.333,1,0.333,0.333,0.333,1","1,0.333,0.333,0.333,1,0.333,0.333,0.333,1","1",""
"","html-keyboard-response","211","119581","0.0-211.0","3KAKFY4PGVOI2EXOLSB7XUNESX73IJ","A32K4W6B31XWVR","3EHVO81VN57KAWAV14A1K6BEMLH1HG","","null","<img src=""img/flower3.png"" style=""width:200px; border:14px solid green;"">","null","","","","","","","","",""
"","image-keyboard-response","212","120243","0.0-212.0","3KAKFY4PGVOI2EXOLSB7XUNESX73IJ","A32K4W6B31XWVR","3EHVO81VN57KAWAV14A1K6BEMLH1HG","","661.1000001430511","img/flower6.png","74","662","1","1","1","1","1,0.333,0.333,0.333,1,0.333,0.333,0.333,1","1,0.333,0.333,0.333,1,0.333,0.333,0.333,1","1",""
"","html-keyboard-response","213","120545","0.0-213.0","3KAKFY4PGVOI2EXOLSB7XUNESX73IJ","A32K4W6B31XWVR","3EHVO81VN57KAWAV14A1K6BEMLH1HG","","null","<img src=""img/flower6.png"" style=""width:200px; border:14px solid green;"">","null","","","","","","","","",""
"","image-keyboard-response","214","121267","0.0-214.0","3KAKFY4PGVOI2EXOLSB7XUNESX73IJ","A32K4W6B31XWVR","3EHVO81VN57KAWAV14A1K6BEMLH1HG","","720.5","img/flower6.png","74","721.6000001430511","1","1","1","1","1,0.333,0.333,0.333,1,0.333,0.333,0.333,1","1,0.333,0.333,0.333,1,0.333,0.333,0.333,1","1",""
"","html-keyboard-response","215","121569","0.0-215.0","3KAKFY4PGVOI2EXOLSB7XUNESX73IJ","A32K4W6B31XWVR","3EHVO81VN57KAWAV14A1K6BEMLH1HG","","null","<img src=""img/flower6.png"" style=""width:200px; border:14px solid green;"">","null","","","","","","","","",""
"","image-keyboard-response","216","122107","0.0-216.0","3KAKFY4PGVOI2EXOLSB7XUNESX73IJ","A32K4W6B31XWVR","3EHVO81VN57KAWAV14A1K6BEMLH1HG","","537","img/flower3.png","75","537.9000000953674","2","1","2","1","1,0.333,0.333,0.333,1,0.333,0.333,0.333,1","1,0.333,0.333,0.333,1,0.333,0.333,0.333,1","1",""
"","html-keyboard-response","217","122409","0.0-217.0","3KAKFY4PGVOI2EXOLSB7XUNESX73IJ","A32K4W6B31XWVR","3EHVO81VN57KAWAV14A1K6BEMLH1HG","","null","<img src=""img/flower3.png"" style=""width:200px; border:14px solid green;"">","null","","","","","","","","",""
"","image-keyboard-response","218","122957","0.0-218.0","3KAKFY4PGVOI2EXOLSB7XUNESX73IJ","A32K4W6B31XWVR","3EHVO81VN57KAWAV14A1K6BEMLH1HG","","547.2000000476837","img/flower6.png","74","548.0999999046326","1","1","1","1","1,0.333,0.333,0.333,1,0.333,0.333,0.333,1","1,0.333,0.333,0.333,1,0.333,0.333,0.333,1","1",""
"","html-keyboard-response","219","123259","0.0-219.0","3KAKFY4PGVOI2EXOLSB7XUNESX73IJ","A32K4W6B31XWVR","3EHVO81VN57KAWAV14A1K6BEMLH1HG","","null","<img src=""img/flower6.png"" style=""width:200px; border:14px solid green;"">","null","","","","","","","","",""
"","image-keyboard-response","220","123708","0.0-220.0","3KAKFY4PGVOI2EXOLSB7XUNESX73IJ","A32K4W6B31XWVR","3EHVO81VN57KAWAV14A1K6BEMLH1HG","","446.7999999523163","img/flower4.png","75","448","2","0","3","1","1,0.333,0.333,0.333,1,0.333,0.333,0.333,1","1,0.333,0.333,0.333,1,0.333,0.333,0.333,1","1",""
"","html-keyboard-response","221","124009","0.0-221.0","3KAKFY4PGVOI2EXOLSB7XUNESX73IJ","A32K4W6B31XWVR","3EHVO81VN57KAWAV14A1K6BEMLH1HG","","null","<img src=""img/flower4.png"" style=""width:200px;border:14px solid red;"">","null","","","","","","","","",""
"","image-keyboard-response","222","124767","0.0-222.0","3KAKFY4PGVOI2EXOLSB7XUNESX73IJ","A32K4W6B31XWVR","3EHVO81VN57KAWAV14A1K6BEMLH1HG","","756.2999999523163","img/flower3.png","75","757.2999999523163","2","1","2","1","1,0.333,0.333,0.333,1,0.333,0.333,0.333,1","1,0.333,0.333,0.333,1,0.333,0.333,0.333,1","1",""
"","html-keyboard-response","223","125070","0.0-223.0","3KAKFY4PGVOI2EXOLSB7XUNESX73IJ","A32K4W6B31XWVR","3EHVO81VN57KAWAV14A1K6BEMLH1HG","","null","<img src=""img/flower3.png"" style=""width:200px; border:14px solid green;"">","null","","","","","","","","",""
"","image-keyboard-response","224","126033","0.0-224.0","3KAKFY4PGVOI2EXOLSB7XUNESX73IJ","A32K4W6B31XWVR","3EHVO81VN57KAWAV14A1K6BEMLH1HG","","962.5","img/flower4.png","76","963.5","3","1","3","1","1,0.333,0.333,0.333,1,0.333,0.333,0.333,1","1,0.333,0.333,0.333,1,0.333,0.333,0.333,1","1",""
"","html-keyboard-response","225","126336","0.0-225.0","3KAKFY4PGVOI2EXOLSB7XUNESX73IJ","A32K4W6B31XWVR","3EHVO81VN57KAWAV14A1K6BEMLH1HG","","null","<img src=""img/flower4.png"" style=""width:200px; border:14px solid green;"">","null","","","","","","","","",""
"","image-keyboard-response","226","127165","0.0-226.0","3KAKFY4PGVOI2EXOLSB7XUNESX73IJ","A32K4W6B31XWVR","3EHVO81VN57KAWAV14A1K6BEMLH1HG","","828.3999998569489","img/flower4.png","76","829.5999999046326","3","1","3","1","1,0.333,0.333,0.333,1,0.333,0.333,0.333,1","1,0.333,0.333,0.333,1,0.333,0.333,0.333,1","1",""
"","html-keyboard-response","227","127472","0.0-227.0","3KAKFY4PGVOI2EXOLSB7XUNESX73IJ","A32K4W6B31XWVR","3EHVO81VN57KAWAV14A1K6BEMLH1HG","","null","<img src=""img/flower4.png"" style=""width:200px; border:14px solid green;"">","null","","","","","","","","",""
"","image-keyboard-response","228","128211","0.0-228.0","3KAKFY4PGVOI2EXOLSB7XUNESX73IJ","A32K4W6B31XWVR","3EHVO81VN57KAWAV14A1K6BEMLH1HG","","737.7999999523163","img/flower3.png","75","738.8999998569489","2","1","2","1","1,0.333,0.333,0.333,1,0.333,0.333,0.333,1","1,0.333,0.333,0.333,1,0.333,0.333,0.333,1","1",""
"","html-keyboard-response","229","128513","0.0-229.0","3KAKFY4PGVOI2EXOLSB7XUNESX73IJ","A32K4W6B31XWVR","3EHVO81VN57KAWAV14A1K6BEMLH1HG","","null","<img src=""img/flower3.png"" style=""width:200px; border:14px solid green;"">","null","","","","","","","","",""
"","image-keyboard-response","230","129183","0.0-230.0","3KAKFY4PGVOI2EXOLSB7XUNESX73IJ","A32K4W6B31XWVR","3EHVO81VN57KAWAV14A1K6BEMLH1HG","","669.5999999046326","img/flower4.png","76","670.5","3","1","3","1","1,0.333,0.333,0.333,1,0.333,0.333,0.333,1","1,0.333,0.333,0.333,1,0.333,0.333,0.333,1","1",""
"","html-keyboard-response","231","129486","0.0-231.0","3KAKFY4PGVOI2EXOLSB7XUNESX73IJ","A32K4W6B31XWVR","3EHVO81VN57KAWAV14A1K6BEMLH1HG","","null","<img src=""img/flower4.png"" style=""width:200px; border:14px solid green;"">","null","","","","","","","","",""
"","image-keyboard-response","232","130005","0.0-232.0","3KAKFY4PGVOI2EXOLSB7XUNESX73IJ","A32K4W6B31XWVR","3EHVO81VN57KAWAV14A1K6BEMLH1HG","","517.3000001907349","img/flower3.png","75","518.6000001430511","2","1","2","1","1,0.333,0.333,0.333,1,0.333,0.333,0.333,1","1,0.333,0.333,0.333,1,0.333,0.333,0.333,1","1",""
"","html-keyboard-response","233","130307","0.0-233.0","3KAKFY4PGVOI2EXOLSB7XUNESX73IJ","A32K4W6B31XWVR","3EHVO81VN57KAWAV14A1K6BEMLH1HG","","null","<img src=""img/flower3.png"" style=""width:200px; border:14px solid green;"">","null","","","","","","","","",""
"","image-keyboard-response","234","130805","0.0-234.0","3KAKFY4PGVOI2EXOLSB7XUNESX73IJ","A32K4W6B31XWVR","3EHVO81VN57KAWAV14A1K6BEMLH1HG","","496.7999999523163","img/flower4.png","76","497.90000009536743","3","1","3","1","1,0.333,0.333,0.333,1,0.333,0.333,0.333,1","1,0.333,0.333,0.333,1,0.333,0.333,0.333,1","1",""
"","html-keyboard-response","235","131107","0.0-235.0","3KAKFY4PGVOI2EXOLSB7XUNESX73IJ","A32K4W6B31XWVR","3EHVO81VN57KAWAV14A1K6BEMLH1HG","","null","<img src=""img/flower4.png"" style=""width:200px; border:14px solid green;"">","null","","","","","","","","",""
"","image-keyboard-response","236","131720","0.0-236.0","3KAKFY4PGVOI2EXOLSB7XUNESX73IJ","A32K4W6B31XWVR","3EHVO81VN57KAWAV14A1K6BEMLH1HG","","611.5","img/flower4.png","76","612.5","3","1","3","1","1,0.333,0.333,0.333,1,0.333,0.333,0.333,1","1,0.333,0.333,0.333,1,0.333,0.333,0.333,1","1",""
"","html-keyboard-response","237","132023","0.0-237.0","3KAKFY4PGVOI2EXOLSB7XUNESX73IJ","A32K4W6B31XWVR","3EHVO81VN57KAWAV14A1K6BEMLH1HG","","null","<img src=""img/flower4.png"" style=""width:200px; border:14px solid green;"">","null","","","","","","","","",""
"","image-keyboard-response","238","132455","0.0-238.0","3KAKFY4PGVOI2EXOLSB7XUNESX73IJ","A32K4W6B31XWVR","3EHVO81VN57KAWAV14A1K6BEMLH1HG","","431.5","img/flower4.png","76","432.5","3","1","3","1","1,0.333,0.333,0.333,1,0.333,0.333,0.333,1","1,0.333,0.333,0.333,1,0.333,0.333,0.333,1","1",""
"","html-keyboard-response","239","132757","0.0-239.0","3KAKFY4PGVOI2EXOLSB7XUNESX73IJ","A32K4W6B31XWVR","3EHVO81VN57KAWAV14A1K6BEMLH1HG","","null","<img src=""img/flower4.png"" style=""width:200px; border:14px solid green;"">","null","","","","","","","","",""
"","image-keyboard-response","240","133420","0.0-240.0","3KAKFY4PGVOI2EXOLSB7XUNESX73IJ","A32K4W6B31XWVR","3EHVO81VN57KAWAV14A1K6BEMLH1HG","","661.0999999046326","img/flower6.png","74","662.2000000476837","1","1","1","1","1,0.333,0.333,0.333,1,0.333,0.333,0.333,1","1,0.333,0.333,0.333,1,0.333,0.333,0.333,1","1",""
"","html-keyboard-response","241","133722","0.0-241.0","3KAKFY4PGVOI2EXOLSB7XUNESX73IJ","A32K4W6B31XWVR","3EHVO81VN57KAWAV14A1K6BEMLH1HG","","null","<img src=""img/flower6.png"" style=""width:200px; border:14px solid green;"">","null","","","","","","","","",""
"","image-keyboard-response","242","134352","0.0-242.0","3KAKFY4PGVOI2EXOLSB7XUNESX73IJ","A32K4W6B31XWVR","3EHVO81VN57KAWAV14A1K6BEMLH1HG","","629","img/flower4.png","76","630.1000001430511","3","1","3","1","1,0.333,0.333,0.333,1,0.333,0.333,0.333,1","1,0.333,0.333,0.333,1,0.333,0.333,0.333,1","1",""
"","html-keyboard-response","243","134654","0.0-243.0","3KAKFY4PGVOI2EXOLSB7XUNESX73IJ","A32K4W6B31XWVR","3EHVO81VN57KAWAV14A1K6BEMLH1HG","","null","<img src=""img/flower4.png"" style=""width:200px; border:14px solid green;"">","null","","","","","","","","",""
"","image-keyboard-response","244","135046","0.0-244.0","3KAKFY4PGVOI2EXOLSB7XUNESX73IJ","A32K4W6B31XWVR","3EHVO81VN57KAWAV14A1K6BEMLH1HG","","390.39999985694885","img/flower4.png","76","391.39999985694885","3","1","3","1","1,0.333,0.333,0.333,1,0.333,0.333,0.333,1","1,0.333,0.333,0.333,1,0.333,0.333,0.333,1","1",""
"","html-keyboard-response","245","135347","0.0-245.0","3KAKFY4PGVOI2EXOLSB7XUNESX73IJ","A32K4W6B31XWVR","3EHVO81VN57KAWAV14A1K6BEMLH1HG","","null","<img src=""img/flower4.png"" style=""width:200px; border:14px solid green;"">","null","","","","","","","","",""
"","image-keyboard-response","246","136025","0.0-246.0","3KAKFY4PGVOI2EXOLSB7XUNESX73IJ","A32K4W6B31XWVR","3EHVO81VN57KAWAV14A1K6BEMLH1HG","","676.5","img/flower3.png","75","677.5","2","1","2","1","1,0.333,0.333,0.333,1,0.333,0.333,0.333,1","1,0.333,0.333,0.333,1,0.333,0.333,0.333,1","1",""
"","html-keyboard-response","247","136327","0.0-247.0","3KAKFY4PGVOI2EXOLSB7XUNESX73IJ","A32K4W6B31XWVR","3EHVO81VN57KAWAV14A1K6BEMLH1HG","","null","<img src=""img/flower3.png"" style=""width:200px; border:14px solid green;"">","null","","","","","","","","",""
"","image-keyboard-response","248","137004","0.0-248.0","3KAKFY4PGVOI2EXOLSB7XUNESX73IJ","A32K4W6B31XWVR","3EHVO81VN57KAWAV14A1K6BEMLH1HG","","676.2000000476837","img/flower6.png","74","677.2999999523163","1","1","1","1","1,0.333,0.333,0.333,1,0.333,0.333,0.333,1","1,0.333,0.333,0.333,1,0.333,0.333,0.333,1","1",""
"","html-keyboard-response","249","137306","0.0-249.0","3KAKFY4PGVOI2EXOLSB7XUNESX73IJ","A32K4W6B31XWVR","3EHVO81VN57KAWAV14A1K6BEMLH1HG","","null","<img src=""img/flower6.png"" style=""width:200px; border:14px solid green;"">","null","","","","","","","","",""
"","image-keyboard-response","250","137805","0.0-250.0","3KAKFY4PGVOI2EXOLSB7XUNESX73IJ","A32K4W6B31XWVR","3EHVO81VN57KAWAV14A1K6BEMLH1HG","","497.09999990463257","img/flower3.png","76","498.2000000476837","3","0","2","1","1,0.333,0.333,0.333,1,0.333,0.333,0.333,1","1,0.333,0.333,0.333,1,0.333,0.333,0.333,1","1",""
"","html-keyboard-response","251","138107","0.0-251.0","3KAKFY4PGVOI2EXOLSB7XUNESX73IJ","A32K4W6B31XWVR","3EHVO81VN57KAWAV14A1K6BEMLH1HG","","null","<img src=""img/flower3.png"" style=""width:200px;border:14px solid red;"">","null","","","","","","","","",""
"","image-keyboard-response","252","138660","0.0-252.0","3KAKFY4PGVOI2EXOLSB7XUNESX73IJ","A32K4W6B31XWVR","3EHVO81VN57KAWAV14A1K6BEMLH1HG","","552.0999999046326","img/flower6.png","75","552.9000000953674","2","0","1","1","1,0.333,0.333,0.333,1,0.333,0.333,0.333,1","1,0.333,0.333,0.333,1,0.333,0.333,0.333,1","1",""
"","html-keyboard-response","253","138961","0.0-253.0","3KAKFY4PGVOI2EXOLSB7XUNESX73IJ","A32K4W6B31XWVR","3EHVO81VN57KAWAV14A1K6BEMLH1HG","","null","<img src=""img/flower6.png"" style=""width:200px;border:14px solid red;"">","null","","","","","","","","",""
"","image-keyboard-response","254","139157","0.0-254.0","3KAKFY4PGVOI2EXOLSB7XUNESX73IJ","A32K4W6B31XWVR","3EHVO81VN57KAWAV14A1K6BEMLH1HG","","194.19999980926514","img/flower4.png","74","195.40000009536743","1","0","3","1","1,0.333,0.333,0.333,1,0.333,0.333,0.333,1","1,0.333,0.333,0.333,1,0.333,0.333,0.333,1","1",""
"","html-keyboard-response","255","139459","0.0-255.0","3KAKFY4PGVOI2EXOLSB7XUNESX73IJ","A32K4W6B31XWVR","3EHVO81VN57KAWAV14A1K6BEMLH1HG","","null","<img src=""img/flower4.png"" style=""width:200px;border:14px solid red;"">","null","","","","","","","","",""
"","image-keyboard-response","256","139977","0.0-256.0","3KAKFY4PGVOI2EXOLSB7XUNESX73IJ","A32K4W6B31XWVR","3EHVO81VN57KAWAV14A1K6BEMLH1HG","","517.2000000476837","img/flower6.png","74","518.3999998569489","1","1","1","1","1,0.333,0.333,0.333,1,0.333,0.333,0.333,1","1,0.333,0.333,0.333,1,0.333,0.333,0.333,1","1",""
"","html-keyboard-response","257","140279","0.0-257.0","3KAKFY4PGVOI2EXOLSB7XUNESX73IJ","A32K4W6B31XWVR","3EHVO81VN57KAWAV14A1K6BEMLH1HG","","null","<img src=""img/flower6.png"" style=""width:200px; border:14px solid green;"">","null","","","","","","","","",""
"","image-keyboard-response","258","140702","0.0-258.0","3KAKFY4PGVOI2EXOLSB7XUNESX73IJ","A32K4W6B31XWVR","3EHVO81VN57KAWAV14A1K6BEMLH1HG","","421.90000009536743","img/flower6.png","74","423.19999980926514","1","1","1","1","1,0.333,0.333,0.333,1,0.333,0.333,0.333,1","1,0.333,0.333,0.333,1,0.333,0.333,0.333,1","1",""
"","html-keyboard-response","259","141004","0.0-259.0","3KAKFY4PGVOI2EXOLSB7XUNESX73IJ","A32K4W6B31XWVR","3EHVO81VN57KAWAV14A1K6BEMLH1HG","","null","<img src=""img/flower6.png"" style=""width:200px; border:14px solid green;"">","null","","","","","","","","",""
"","image-keyboard-response","260","141612","0.0-260.0","3KAKFY4PGVOI2EXOLSB7XUNESX73IJ","A32K4W6B31XWVR","3EHVO81VN57KAWAV14A1K6BEMLH1HG","","606.6000001430511","img/flower4.png","76","607.7000000476837","3","1","3","1","1,0.333,0.333,0.333,1,0.333,0.333,0.333,1","1,0.333,0.333,0.333,1,0.333,0.333,0.333,1","1",""
"","html-keyboard-response","261","141915","0.0-261.0","3KAKFY4PGVOI2EXOLSB7XUNESX73IJ","A32K4W6B31XWVR","3EHVO81VN57KAWAV14A1K6BEMLH1HG","","null","<img src=""img/flower4.png"" style=""width:200px; border:14px solid green;"">","null","","","","","","","","",""
"","image-keyboard-response","262","142318","0.0-262.0","3KAKFY4PGVOI2EXOLSB7XUNESX73IJ","A32K4W6B31XWVR","3EHVO81VN57KAWAV14A1K6BEMLH1HG","","402","img/flower4.png","76","403","3","1","3","1","1,0.333,0.333,0.333,1,0.333,0.333,0.333,1","1,0.333,0.333,0.333,1,0.333,0.333,0.333,1","1",""
"","html-keyboard-response","263","142622","0.0-263.0","3KAKFY4PGVOI2EXOLSB7XUNESX73IJ","A32K4W6B31XWVR","3EHVO81VN57KAWAV14A1K6BEMLH1HG","","null","<img src=""img/flower4.png"" style=""width:200px; border:14px solid green;"">","null","","","","","","","","",""
"","image-keyboard-response","264","143122","0.0-264.0","3KAKFY4PGVOI2EXOLSB7XUNESX73IJ","A32K4W6B31XWVR","3EHVO81VN57KAWAV14A1K6BEMLH1HG","","499","img/flower3.png","75","500","2","1","2","1","1,0.333,0.333,0.333,1,0.333,0.333,0.333,1","1,0.333,0.333,0.333,1,0.333,0.333,0.333,1","1",""
"","html-keyboard-response","265","143424","0.0-265.0","3KAKFY4PGVOI2EXOLSB7XUNESX73IJ","A32K4W6B31XWVR","3EHVO81VN57KAWAV14A1K6BEMLH1HG","","null","<img src=""img/flower3.png"" style=""width:200px; border:14px solid green;"">","null","","","","","","","","",""
"","image-keyboard-response","266","144053","0.0-266.0","3KAKFY4PGVOI2EXOLSB7XUNESX73IJ","A32K4W6B31XWVR","3EHVO81VN57KAWAV14A1K6BEMLH1HG","","628.0999999046326","img/flower6.png","74","629","1","1","1","1","1,0.333,0.333,0.333,1,0.333,0.333,0.333,1","1,0.333,0.333,0.333,1,0.333,0.333,0.333,1","1",""
"","html-keyboard-response","267","144355","0.0-267.0","3KAKFY4PGVOI2EXOLSB7XUNESX73IJ","A32K4W6B31XWVR","3EHVO81VN57KAWAV14A1K6BEMLH1HG","","null","<img src=""img/flower6.png"" style=""width:200px; border:14px solid green;"">","null","","","","","","","","",""
"","image-keyboard-response","268","144869","0.0-268.0","3KAKFY4PGVOI2EXOLSB7XUNESX73IJ","A32K4W6B31XWVR","3EHVO81VN57KAWAV14A1K6BEMLH1HG","","512.3999998569489","img/flower6.png","74","513.4000000953674","1","1","1","1","1,0.333,0.333,0.333,1,0.333,0.333,0.333,1","1,0.333,0.333,0.333,1,0.333,0.333,0.333,1","1",""
"","html-keyboard-response","269","145177","0.0-269.0","3KAKFY4PGVOI2EXOLSB7XUNESX73IJ","A32K4W6B31XWVR","3EHVO81VN57KAWAV14A1K6BEMLH1HG","","null","<img src=""img/flower6.png"" style=""width:200px; border:14px solid green;"">","null","","","","","","","","",""
"","image-keyboard-response","270","146171","0.0-270.0","3KAKFY4PGVOI2EXOLSB7XUNESX73IJ","A32K4W6B31XWVR","3EHVO81VN57KAWAV14A1K6BEMLH1HG","","993.1000001430511","img/flower3.png","76","993.8999998569489","3","0","2","1","1,0.333,0.333,0.333,1,0.333,0.333,0.333,1","1,0.333,0.333,0.333,1,0.333,0.333,0.333,1","1",""
"","html-keyboard-response","271","146473","0.0-271.0","3KAKFY4PGVOI2EXOLSB7XUNESX73IJ","A32K4W6B31XWVR","3EHVO81VN57KAWAV14A1K6BEMLH1HG","","null","<img src=""img/flower3.png"" style=""width:200px;border:14px solid red;"">","null","","","","","","","","",""
"","image-keyboard-response","272","147239","0.0-272.0","3KAKFY4PGVOI2EXOLSB7XUNESX73IJ","A32K4W6B31XWVR","3EHVO81VN57KAWAV14A1K6BEMLH1HG","","765.2000000476837","img/flower4.png","76","766.3999998569489","3","1","3","1","1,0.333,0.333,0.333,1,0.333,0.333,0.333,1","1,0.333,0.333,0.333,1,0.333,0.333,0.333,1","1",""
"","html-keyboard-response","273","147541","0.0-273.0","3KAKFY4PGVOI2EXOLSB7XUNESX73IJ","A32K4W6B31XWVR","3EHVO81VN57KAWAV14A1K6BEMLH1HG","","null","<img src=""img/flower4.png"" style=""width:200px; border:14px solid green;"">","null","","","","","","","","",""
"","image-keyboard-response","274","147965","0.0-274.0","3KAKFY4PGVOI2EXOLSB7XUNESX73IJ","A32K4W6B31XWVR","3EHVO81VN57KAWAV14A1K6BEMLH1HG","","422.09999990463257","img/flower4.png","75","423.2000000476837","2","1","3","1","1,0.333,0.333,0.333,1,0.333,0.333,0.333,1","1,0.333,0.333,0.333,1,0.333,0.333,0.333,1","1",""
"","html-keyboard-response","275","148266","0.0-275.0","3KAKFY4PGVOI2EXOLSB7XUNESX73IJ","A32K4W6B31XWVR","3EHVO81VN57KAWAV14A1K6BEMLH1HG","","null","<img src=""img/flower4.png"" style=""width:200px; border:14px solid green;"">","null","","","","","","","","",""
"","image-keyboard-response","276","148944","0.0-276.0","3KAKFY4PGVOI2EXOLSB7XUNESX73IJ","A32K4W6B31XWVR","3EHVO81VN57KAWAV14A1K6BEMLH1HG","","676.3999998569489","img/flower6.png","74","677.3999998569489","1","1","1","1","1,0.333,0.333,0.333,1,0.333,0.333,0.333,1","1,0.333,0.333,0.333,1,0.333,0.333,0.333,1","1",""
"","html-keyboard-response","277","149246","0.0-277.0","3KAKFY4PGVOI2EXOLSB7XUNESX73IJ","A32K4W6B31XWVR","3EHVO81VN57KAWAV14A1K6BEMLH1HG","","null","<img src=""img/flower6.png"" style=""width:200px; border:14px solid green;"">","null","","","","","","","","",""
"","image-keyboard-response","278","149630","0.0-278.0","3KAKFY4PGVOI2EXOLSB7XUNESX73IJ","A32K4W6B31XWVR","3EHVO81VN57KAWAV14A1K6BEMLH1HG","","382.30000019073486","img/flower6.png","74","383.40000009536743","1","1","1","1","1,0.333,0.333,0.333,1,0.333,0.333,0.333,1","1,0.333,0.333,0.333,1,0.333,0.333,0.333,1","1",""
"","html-keyboard-response","279","149932","0.0-279.0","3KAKFY4PGVOI2EXOLSB7XUNESX73IJ","A32K4W6B31XWVR","3EHVO81VN57KAWAV14A1K6BEMLH1HG","","null","<img src=""img/flower6.png"" style=""width:200px; border:14px solid green;"">","null","","","","","","","","",""
"","image-keyboard-response","280","150688","0.0-280.0","3KAKFY4PGVOI2EXOLSB7XUNESX73IJ","A32K4W6B31XWVR","3EHVO81VN57KAWAV14A1K6BEMLH1HG","","755.2999999523163","img/flower3.png","75","756.2999999523163","2","1","2","1","1,0.333,0.333,0.333,1,0.333,0.333,0.333,1","1,0.333,0.333,0.333,1,0.333,0.333,0.333,1","1",""
"","html-keyboard-response","281","150990","0.0-281.0","3KAKFY4PGVOI2EXOLSB7XUNESX73IJ","A32K4W6B31XWVR","3EHVO81VN57KAWAV14A1K6BEMLH1HG","","null","<img src=""img/flower3.png"" style=""width:200px; border:14px solid green;"">","null","","","","","","","","",""
"","image-keyboard-response","282","151718","0.0-282.0","3KAKFY4PGVOI2EXOLSB7XUNESX73IJ","A32K4W6B31XWVR","3EHVO81VN57KAWAV14A1K6BEMLH1HG","","726.7999999523163","img/flower4.png","76","727.7000000476837","3","1","3","1","1,0.333,0.333,0.333,1,0.333,0.333,0.333,1","1,0.333,0.333,0.333,1,0.333,0.333,0.333,1","1",""
"","html-keyboard-response","283","152021","0.0-283.0","3KAKFY4PGVOI2EXOLSB7XUNESX73IJ","A32K4W6B31XWVR","3EHVO81VN57KAWAV14A1K6BEMLH1HG","","null","<img src=""img/flower4.png"" style=""width:200px; border:14px solid green;"">","null","","","","","","","","",""
"","image-keyboard-response","284","152633","0.0-284.0","3KAKFY4PGVOI2EXOLSB7XUNESX73IJ","A32K4W6B31XWVR","3EHVO81VN57KAWAV14A1K6BEMLH1HG","","610.5999999046326","img/flower6.png","74","611.8999998569489","1","1","1","1","1,0.333,0.333,0.333,1,0.333,0.333,0.333,1","1,0.333,0.333,0.333,1,0.333,0.333,0.333,1","1",""
"","html-keyboard-response","285","152934","0.0-285.0","3KAKFY4PGVOI2EXOLSB7XUNESX73IJ","A32K4W6B31XWVR","3EHVO81VN57KAWAV14A1K6BEMLH1HG","","null","<img src=""img/flower6.png"" style=""width:200px; border:14px solid green;"">","null","","","","","","","","",""
"","image-keyboard-response","286","153428","0.0-286.0","3KAKFY4PGVOI2EXOLSB7XUNESX73IJ","A32K4W6B31XWVR","3EHVO81VN57KAWAV14A1K6BEMLH1HG","","492.2000000476837","img/flower3.png","75","493.19999980926514","2","1","2","1","1,0.333,0.333,0.333,1,0.333,0.333,0.333,1","1,0.333,0.333,0.333,1,0.333,0.333,0.333,1","1",""
"","html-keyboard-response","287","153730","0.0-287.0","3KAKFY4PGVOI2EXOLSB7XUNESX73IJ","A32K4W6B31XWVR","3EHVO81VN57KAWAV14A1K6BEMLH1HG","","null","<img src=""img/flower3.png"" style=""width:200px; border:14px solid green;"">","null","","","","","","","","",""
"","image-keyboard-response","288","154219","0.0-288.0","3KAKFY4PGVOI2EXOLSB7XUNESX73IJ","A32K4W6B31XWVR","3EHVO81VN57KAWAV14A1K6BEMLH1HG","","488.2999999523163","img/flower4.png","76","489.30000019073486","3","1","3","1","1,0.333,0.333,0.333,1,0.333,0.333,0.333,1","1,0.333,0.333,0.333,1,0.333,0.333,0.333,1","1",""
"","html-keyboard-response","289","154521","0.0-289.0","3KAKFY4PGVOI2EXOLSB7XUNESX73IJ","A32K4W6B31XWVR","3EHVO81VN57KAWAV14A1K6BEMLH1HG","","null","<img src=""img/flower4.png"" style=""width:200px; border:14px solid green;"">","null","","","","","","","","",""
"","image-keyboard-response","290","154990","0.0-290.0","3KAKFY4PGVOI2EXOLSB7XUNESX73IJ","A32K4W6B31XWVR","3EHVO81VN57KAWAV14A1K6BEMLH1HG","","467.7000000476837","img/flower4.png","76","468.5","3","1","3","1","1,0.333,0.333,0.333,1,0.333,0.333,0.333,1","1,0.333,0.333,0.333,1,0.333,0.333,0.333,1","1",""
"","html-keyboard-response","291","155292","0.0-291.0","3KAKFY4PGVOI2EXOLSB7XUNESX73IJ","A32K4W6B31XWVR","3EHVO81VN57KAWAV14A1K6BEMLH1HG","","null","<img src=""img/flower4.png"" style=""width:200px; border:14px solid green;"">","null","","","","","","","","",""
"","image-keyboard-response","292","155849","0.0-292.0","3KAKFY4PGVOI2EXOLSB7XUNESX73IJ","A32K4W6B31XWVR","3EHVO81VN57KAWAV14A1K6BEMLH1HG","","556.1000001430511","img/flower3.png","75","557.2000000476837","2","1","2","1","1,0.333,0.333,0.333,1,0.333,0.333,0.333,1","1,0.333,0.333,0.333,1,0.333,0.333,0.333,1","1",""
"","html-keyboard-response","293","156151","0.0-293.0","3KAKFY4PGVOI2EXOLSB7XUNESX73IJ","A32K4W6B31XWVR","3EHVO81VN57KAWAV14A1K6BEMLH1HG","","null","<img src=""img/flower3.png"" style=""width:200px; border:14px solid green;"">","null","","","","","","","","",""
"","image-keyboard-response","294","156689","0.0-294.0","3KAKFY4PGVOI2EXOLSB7XUNESX73IJ","A32K4W6B31XWVR","3EHVO81VN57KAWAV14A1K6BEMLH1HG","","537.6000001430511","img/flower4.png","76","538.5999999046326","3","1","3","1","1,0.333,0.333,0.333,1,0.333,0.333,0.333,1","1,0.333,0.333,0.333,1,0.333,0.333,0.333,1","1",""
"","html-keyboard-response","295","156992","0.0-295.0","3KAKFY4PGVOI2EXOLSB7XUNESX73IJ","A32K4W6B31XWVR","3EHVO81VN57KAWAV14A1K6BEMLH1HG","","null","<img src=""img/flower4.png"" style=""width:200px; border:14px solid green;"">","null","","","","","","","","",""
"","image-keyboard-response","296","157400","0.0-296.0","3KAKFY4PGVOI2EXOLSB7XUNESX73IJ","A32K4W6B31XWVR","3EHVO81VN57KAWAV14A1K6BEMLH1HG","","406.59999990463257","img/flower4.png","75","407.60000014305115","2","0","3","1","1,0.333,0.333,0.333,1,0.333,0.333,0.333,1","1,0.333,0.333,0.333,1,0.333,0.333,0.333,1","1",""
"","html-keyboard-response","297","157701","0.0-297.0","3KAKFY4PGVOI2EXOLSB7XUNESX73IJ","A32K4W6B31XWVR","3EHVO81VN57KAWAV14A1K6BEMLH1HG","","null","<img src=""img/flower4.png"" style=""width:200px;border:14px solid red;"">","null","","","","","","","","",""
"","image-keyboard-response","298","158334","0.0-298.0","3KAKFY4PGVOI2EXOLSB7XUNESX73IJ","A32K4W6B31XWVR","3EHVO81VN57KAWAV14A1K6BEMLH1HG","","632.1000001430511","img/flower6.png","74","633.1999998092651","1","1","1","1","1,0.333,0.333,0.333,1,0.333,0.333,0.333,1","1,0.333,0.333,0.333,1,0.333,0.333,0.333,1","1",""
"","html-keyboard-response","299","158637","0.0-299.0","3KAKFY4PGVOI2EXOLSB7XUNESX73IJ","A32K4W6B31XWVR","3EHVO81VN57KAWAV14A1K6BEMLH1HG","","null","<img src=""img/flower6.png"" style=""width:200px; border:14px solid green;"">","null","","","","","","","","",""
"","image-keyboard-response","300","159061","0.0-300.0","3KAKFY4PGVOI2EXOLSB7XUNESX73IJ","A32K4W6B31XWVR","3EHVO81VN57KAWAV14A1K6BEMLH1HG","","422.7999999523163","img/flower6.png","74","423.89999985694885","1","1","1","1","1,0.333,0.333,0.333,1,0.333,0.333,0.333,1","1,0.333,0.333,0.333,1,0.333,0.333,0.333,1","1",""
"","html-keyboard-response","301","159364","0.0-301.0","3KAKFY4PGVOI2EXOLSB7XUNESX73IJ","A32K4W6B31XWVR","3EHVO81VN57KAWAV14A1K6BEMLH1HG","","null","<img src=""img/flower6.png"" style=""width:200px; border:14px solid green;"">","null","","","","","","","","",""
"","image-keyboard-response","302","160273","0.0-302.0","3KAKFY4PGVOI2EXOLSB7XUNESX73IJ","A32K4W6B31XWVR","3EHVO81VN57KAWAV14A1K6BEMLH1HG","","908.2999999523163","img/flower3.png","75","908.8999998569489","2","1","2","1","1,0.333,0.333,0.333,1,0.333,0.333,0.333,1","1,0.333,0.333,0.333,1,0.333,0.333,0.333,1","1",""
"","html-keyboard-response","303","160574","0.0-303.0","3KAKFY4PGVOI2EXOLSB7XUNESX73IJ","A32K4W6B31XWVR","3EHVO81VN57KAWAV14A1K6BEMLH1HG","","null","<img src=""img/flower3.png"" style=""width:200px; border:14px solid green;"">","null","","","","","","","","",""
"","image-keyboard-response","304","160954","0.0-304.0","3KAKFY4PGVOI2EXOLSB7XUNESX73IJ","A32K4W6B31XWVR","3EHVO81VN57KAWAV14A1K6BEMLH1HG","","378.5","img/flower3.png","75","380.40000009536743","2","1","2","1","1,0.333,0.333,0.333,1,0.333,0.333,0.333,1","1,0.333,0.333,0.333,1,0.333,0.333,0.333,1","1",""
"","html-keyboard-response","305","161257","0.0-305.0","3KAKFY4PGVOI2EXOLSB7XUNESX73IJ","A32K4W6B31XWVR","3EHVO81VN57KAWAV14A1K6BEMLH1HG","","null","<img src=""img/flower3.png"" style=""width:200px; border:14px solid green;"">","null","","","","","","","","",""
"","image-keyboard-response","306","161903","0.0-306.0","3KAKFY4PGVOI2EXOLSB7XUNESX73IJ","A32K4W6B31XWVR","3EHVO81VN57KAWAV14A1K6BEMLH1HG","","644.7999999523163","img/flower6.png","74","645.9000000953674","1","1","1","1","1,0.333,0.333,0.333,1,0.333,0.333,0.333,1","1,0.333,0.333,0.333,1,0.333,0.333,0.333,1","1",""
"","html-keyboard-response","307","162206","0.0-307.0","3KAKFY4PGVOI2EXOLSB7XUNESX73IJ","A32K4W6B31XWVR","3EHVO81VN57KAWAV14A1K6BEMLH1HG","","null","<img src=""img/flower6.png"" style=""width:200px; border:14px solid green;"">","null","","","","","","","","",""
"","image-keyboard-response","308","162862","0.0-308.0","3KAKFY4PGVOI2EXOLSB7XUNESX73IJ","A32K4W6B31XWVR","3EHVO81VN57KAWAV14A1K6BEMLH1HG","","654.2999999523163","img/flower4.png","76","655.4000000953674","3","1","3","1","1,0.333,0.333,0.333,1,0.333,0.333,0.333,1","1,0.333,0.333,0.333,1,0.333,0.333,0.333,1","1",""
"","html-keyboard-response","309","163163","0.0-309.0","3KAKFY4PGVOI2EXOLSB7XUNESX73IJ","A32K4W6B31XWVR","3EHVO81VN57KAWAV14A1K6BEMLH1HG","","null","<img src=""img/flower4.png"" style=""width:200px; border:14px solid green;"">","null","","","","","","","","",""
"","image-keyboard-response","310","163524","0.0-310.0","3KAKFY4PGVOI2EXOLSB7XUNESX73IJ","A32K4W6B31XWVR","3EHVO81VN57KAWAV14A1K6BEMLH1HG","","359.7000000476837","img/flower4.png","76","360.69999980926514","3","1","3","1","1,0.333,0.333,0.333,1,0.333,0.333,0.333,1","1,0.333,0.333,0.333,1,0.333,0.333,0.333,1","1",""
"","html-keyboard-response","311","163826","0.0-311.0","3KAKFY4PGVOI2EXOLSB7XUNESX73IJ","A32K4W6B31XWVR","3EHVO81VN57KAWAV14A1K6BEMLH1HG","","null","<img src=""img/flower4.png"" style=""width:200px; border:14px solid green;"">","null","","","","","","","","",""
"","image-keyboard-response","312","164489","0.0-312.0","3KAKFY4PGVOI2EXOLSB7XUNESX73IJ","A32K4W6B31XWVR","3EHVO81VN57KAWAV14A1K6BEMLH1HG","","661.2999999523163","img/flower3.png","75","662.2000000476837","2","1","2","1","1,0.333,0.333,0.333,1,0.333,0.333,0.333,1","1,0.333,0.333,0.333,1,0.333,0.333,0.333,1","1",""
"","html-keyboard-response","313","164791","0.0-313.0","3KAKFY4PGVOI2EXOLSB7XUNESX73IJ","A32K4W6B31XWVR","3EHVO81VN57KAWAV14A1K6BEMLH1HG","","null","<img src=""img/flower3.png"" style=""width:200px; border:14px solid green;"">","null","","","","","","","","",""
"","image-keyboard-response","314","165423","0.0-314.0","3KAKFY4PGVOI2EXOLSB7XUNESX73IJ","A32K4W6B31XWVR","3EHVO81VN57KAWAV14A1K6BEMLH1HG","","631.0999999046326","img/flower4.png","76","632.2999999523163","3","1","3","1","1,0.333,0.333,0.333,1,0.333,0.333,0.333,1","1,0.333,0.333,0.333,1,0.333,0.333,0.333,1","1",""
"","html-keyboard-response","315","165725","0.0-315.0","3KAKFY4PGVOI2EXOLSB7XUNESX73IJ","A32K4W6B31XWVR","3EHVO81VN57KAWAV14A1K6BEMLH1HG","","null","<img src=""img/flower4.png"" style=""width:200px; border:14px solid green;"">","null","","","","","","","","",""
"","image-keyboard-response","316","166169","0.0-316.0","3KAKFY4PGVOI2EXOLSB7XUNESX73IJ","A32K4W6B31XWVR","3EHVO81VN57KAWAV14A1K6BEMLH1HG","","442.40000009536743","img/flower4.png","76","443.59999990463257","3","1","3","1","1,0.333,0.333,0.333,1,0.333,0.333,0.333,1","1,0.333,0.333,0.333,1,0.333,0.333,0.333,1","1",""
"","html-keyboard-response","317","166472","0.0-317.0","3KAKFY4PGVOI2EXOLSB7XUNESX73IJ","A32K4W6B31XWVR","3EHVO81VN57KAWAV14A1K6BEMLH1HG","","null","<img src=""img/flower4.png"" style=""width:200px; border:14px solid green;"">","null","","","","","","","","",""
"","image-keyboard-response","318","166836","0.0-318.0","3KAKFY4PGVOI2EXOLSB7XUNESX73IJ","A32K4W6B31XWVR","3EHVO81VN57KAWAV14A1K6BEMLH1HG","","362.90000009536743","img/flower4.png","76","364","3","1","3","1","1,0.333,0.333,0.333,1,0.333,0.333,0.333,1","1,0.333,0.333,0.333,1,0.333,0.333,0.333,1","1",""
"","html-keyboard-response","319","167137","0.0-319.0","3KAKFY4PGVOI2EXOLSB7XUNESX73IJ","A32K4W6B31XWVR","3EHVO81VN57KAWAV14A1K6BEMLH1HG","","null","<img src=""img/flower4.png"" style=""width:200px; border:14px solid green;"">","null","","","","","","","","",""
"","image-keyboard-response","320","167457","0.0-320.0","3KAKFY4PGVOI2EXOLSB7XUNESX73IJ","A32K4W6B31XWVR","3EHVO81VN57KAWAV14A1K6BEMLH1HG","","318.59999990463257","img/flower4.png","76","319.2000000476837","3","1","3","1","1,0.333,0.333,0.333,1,0.333,0.333,0.333,1","1,0.333,0.333,0.333,1,0.333,0.333,0.333,1","1",""
"","html-keyboard-response","321","167758","0.0-321.0","3KAKFY4PGVOI2EXOLSB7XUNESX73IJ","A32K4W6B31XWVR","3EHVO81VN57KAWAV14A1K6BEMLH1HG","","null","<img src=""img/flower4.png"" style=""width:200px; border:14px solid green;"">","null","","","","","","","","",""
"","image-keyboard-response","322","168316","0.0-322.0","3KAKFY4PGVOI2EXOLSB7XUNESX73IJ","A32K4W6B31XWVR","3EHVO81VN57KAWAV14A1K6BEMLH1HG","","555.7999999523163","img/flower3.png","75","556.7999999523163","2","1","2","1","1,0.333,0.333,0.333,1,0.333,0.333,0.333,1","1,0.333,0.333,0.333,1,0.333,0.333,0.333,1","1",""
"","html-keyboard-response","323","168618","0.0-323.0","3KAKFY4PGVOI2EXOLSB7XUNESX73IJ","A32K4W6B31XWVR","3EHVO81VN57KAWAV14A1K6BEMLH1HG","","null","<img src=""img/flower3.png"" style=""width:200px; border:14px solid green;"">","null","","","","","","","","",""
"","image-keyboard-response","324","169219","0.0-324.0","3KAKFY4PGVOI2EXOLSB7XUNESX73IJ","A32K4W6B31XWVR","3EHVO81VN57KAWAV14A1K6BEMLH1HG","","600.2000000476837","img/flower6.png","74","601.2000000476837","1","1","1","1","1,0.333,0.333,0.333,1,0.333,0.333,0.333,1","1,0.333,0.333,0.333,1,0.333,0.333,0.333,1","1",""
"","html-keyboard-response","325","169521","0.0-325.0","3KAKFY4PGVOI2EXOLSB7XUNESX73IJ","A32K4W6B31XWVR","3EHVO81VN57KAWAV14A1K6BEMLH1HG","","null","<img src=""img/flower6.png"" style=""width:200px; border:14px solid green;"">","null","","","","","","","","",""
"","image-keyboard-response","326","170036","0.0-326.0","3KAKFY4PGVOI2EXOLSB7XUNESX73IJ","A32K4W6B31XWVR","3EHVO81VN57KAWAV14A1K6BEMLH1HG","","514.2999999523163","img/flower3.png","75","515.5","2","1","2","1","1,0.333,0.333,0.333,1,0.333,0.333,0.333,1","1,0.333,0.333,0.333,1,0.333,0.333,0.333,1","1",""
"","html-keyboard-response","327","170338","0.0-327.0","3KAKFY4PGVOI2EXOLSB7XUNESX73IJ","A32K4W6B31XWVR","3EHVO81VN57KAWAV14A1K6BEMLH1HG","","null","<img src=""img/flower3.png"" style=""width:200px; border:14px solid green;"">","null","","","","","","","","",""
"","image-keyboard-response","328","170743","0.0-328.0","3KAKFY4PGVOI2EXOLSB7XUNESX73IJ","A32K4W6B31XWVR","3EHVO81VN57KAWAV14A1K6BEMLH1HG","","403","img/flower3.png","75","404","2","1","2","1","1,0.333,0.333,0.333,1,0.333,0.333,0.333,1","1,0.333,0.333,0.333,1,0.333,0.333,0.333,1","1",""
"","html-keyboard-response","329","171052","0.0-329.0","3KAKFY4PGVOI2EXOLSB7XUNESX73IJ","A32K4W6B31XWVR","3EHVO81VN57KAWAV14A1K6BEMLH1HG","","null","<img src=""img/flower3.png"" style=""width:200px; border:14px solid green;"">","null","","","","","","","","",""
"","image-keyboard-response","330","171528","0.0-330.0","3KAKFY4PGVOI2EXOLSB7XUNESX73IJ","A32K4W6B31XWVR","3EHVO81VN57KAWAV14A1K6BEMLH1HG","","474.5","img/flower6.png","74","475.59999990463257","1","1","1","1","1,0.333,0.333,0.333,1,0.333,0.333,0.333,1","1,0.333,0.333,0.333,1,0.333,0.333,0.333,1","1",""
"","html-keyboard-response","331","171830","0.0-331.0","3KAKFY4PGVOI2EXOLSB7XUNESX73IJ","A32K4W6B31XWVR","3EHVO81VN57KAWAV14A1K6BEMLH1HG","","null","<img src=""img/flower6.png"" style=""width:200px; border:14px solid green;"">","null","","","","","","","","",""
"","image-keyboard-response","332","172413","0.0-332.0","3KAKFY4PGVOI2EXOLSB7XUNESX73IJ","A32K4W6B31XWVR","3EHVO81VN57KAWAV14A1K6BEMLH1HG","","581.5","img/flower4.png","76","582.3999998569489","3","1","3","1","1,0.333,0.333,0.333,1,0.333,0.333,0.333,1","1,0.333,0.333,0.333,1,0.333,0.333,0.333,1","1",""
"","html-keyboard-response","333","172715","0.0-333.0","3KAKFY4PGVOI2EXOLSB7XUNESX73IJ","A32K4W6B31XWVR","3EHVO81VN57KAWAV14A1K6BEMLH1HG","","null","<img src=""img/flower4.png"" style=""width:200px; border:14px solid green;"">","null","","","","","","","","",""
"","image-keyboard-response","334","173321","0.0-334.0","3KAKFY4PGVOI2EXOLSB7XUNESX73IJ","A32K4W6B31XWVR","3EHVO81VN57KAWAV14A1K6BEMLH1HG","","604","img/flower3.png","75","605","2","1","2","1","1,0.333,0.333,0.333,1,0.333,0.333,0.333,1","1,0.333,0.333,0.333,1,0.333,0.333,0.333,1","1",""
"","html-keyboard-response","335","173622","0.0-335.0","3KAKFY4PGVOI2EXOLSB7XUNESX73IJ","A32K4W6B31XWVR","3EHVO81VN57KAWAV14A1K6BEMLH1HG","","null","<img src=""img/flower3.png"" style=""width:200px; border:14px solid green;"">","null","","","","","","","","",""
"","image-keyboard-response","336","174123","0.0-336.0","3KAKFY4PGVOI2EXOLSB7XUNESX73IJ","A32K4W6B31XWVR","3EHVO81VN57KAWAV14A1K6BEMLH1HG","","499.2999999523163","img/flower6.png","76","500.39999985694885","3","0","1","1","1,0.333,0.333,0.333,1,0.333,0.333,0.333,1","1,0.333,0.333,0.333,1,0.333,0.333,0.333,1","1",""
"","html-keyboard-response","337","174425","0.0-337.0","3KAKFY4PGVOI2EXOLSB7XUNESX73IJ","A32K4W6B31XWVR","3EHVO81VN57KAWAV14A1K6BEMLH1HG","","null","<img src=""img/flower6.png"" style=""width:200px;border:14px solid red;"">","null","","","","","","","","",""
"","image-keyboard-response","338","174714","0.0-338.0","3KAKFY4PGVOI2EXOLSB7XUNESX73IJ","A32K4W6B31XWVR","3EHVO81VN57KAWAV14A1K6BEMLH1HG","","287.69999980926514","img/flower6.png","74","288.80000019073486","1","1","1","1","1,0.333,0.333,0.333,1,0.333,0.333,0.333,1","1,0.333,0.333,0.333,1,0.333,0.333,0.333,1","1",""
"","html-keyboard-response","339","175016","0.0-339.0","3KAKFY4PGVOI2EXOLSB7XUNESX73IJ","A32K4W6B31XWVR","3EHVO81VN57KAWAV14A1K6BEMLH1HG","","null","<img src=""img/flower6.png"" style=""width:200px; border:14px solid green;"">","null","","","","","","","","",""
"","image-keyboard-response","340","175465","0.0-340.0","3KAKFY4PGVOI2EXOLSB7XUNESX73IJ","A32K4W6B31XWVR","3EHVO81VN57KAWAV14A1K6BEMLH1HG","","447.7000000476837","img/flower6.png","74","448.89999985694885","1","1","1","1","1,0.333,0.333,0.333,1,0.333,0.333,0.333,1","1,0.333,0.333,0.333,1,0.333,0.333,0.333,1","1",""
"","html-keyboard-response","341","175766","0.0-341.0","3KAKFY4PGVOI2EXOLSB7XUNESX73IJ","A32K4W6B31XWVR","3EHVO81VN57KAWAV14A1K6BEMLH1HG","","null","<img src=""img/flower6.png"" style=""width:200px; border:14px solid green;"">","null","","","","","","","","",""
"","image-keyboard-response","342","176083","0.0-342.0","3KAKFY4PGVOI2EXOLSB7XUNESX73IJ","A32K4W6B31XWVR","3EHVO81VN57KAWAV14A1K6BEMLH1HG","","315.10000014305115","img/flower6.png","74","316.2000000476837","1","1","1","1","1,0.333,0.333,0.333,1,0.333,0.333,0.333,1","1,0.333,0.333,0.333,1,0.333,0.333,0.333,1","1",""
"","html-keyboard-response","343","176384","0.0-343.0","3KAKFY4PGVOI2EXOLSB7XUNESX73IJ","A32K4W6B31XWVR","3EHVO81VN57KAWAV14A1K6BEMLH1HG","","null","<img src=""img/flower6.png"" style=""width:200px; border:14px solid green;"">","null","","","","","","","","",""
"","image-keyboard-response","344","176727","0.0-344.0","3KAKFY4PGVOI2EXOLSB7XUNESX73IJ","A32K4W6B31XWVR","3EHVO81VN57KAWAV14A1K6BEMLH1HG","","342.39999985694885","img/flower6.png","74","343.2999999523163","1","1","1","1","1,0.333,0.333,0.333,1,0.333,0.333,0.333,1","1,0.333,0.333,0.333,1,0.333,0.333,0.333,1","1",""
"","html-keyboard-response","345","177029","0.0-345.0","3KAKFY4PGVOI2EXOLSB7XUNESX73IJ","A32K4W6B31XWVR","3EHVO81VN57KAWAV14A1K6BEMLH1HG","","null","<img src=""img/flower6.png"" style=""width:200px; border:14px solid green;"">","null","","","","","","","","",""
"","image-keyboard-response","346","177334","0.0-346.0","3KAKFY4PGVOI2EXOLSB7XUNESX73IJ","A32K4W6B31XWVR","3EHVO81VN57KAWAV14A1K6BEMLH1HG","","303.59999990463257","img/flower6.png","74","304.7000000476837","1","1","1","1","1,0.333,0.333,0.333,1,0.333,0.333,0.333,1","1,0.333,0.333,0.333,1,0.333,0.333,0.333,1","1",""
"","html-keyboard-response","347","177636","0.0-347.0","3KAKFY4PGVOI2EXOLSB7XUNESX73IJ","A32K4W6B31XWVR","3EHVO81VN57KAWAV14A1K6BEMLH1HG","","null","<img src=""img/flower6.png"" style=""width:200px; border:14px solid green;"">","null","","","","","","","","",""
"","image-keyboard-response","348","178411","0.0-348.0","3KAKFY4PGVOI2EXOLSB7XUNESX73IJ","A32K4W6B31XWVR","3EHVO81VN57KAWAV14A1K6BEMLH1HG","","773.3999998569489","img/flower4.png","76","774.5","3","1","3","1","1,0.333,0.333,0.333,1,0.333,0.333,0.333,1","1,0.333,0.333,0.333,1,0.333,0.333,0.333,1","1",""
"","html-keyboard-response","349","178712","0.0-349.0","3KAKFY4PGVOI2EXOLSB7XUNESX73IJ","A32K4W6B31XWVR","3EHVO81VN57KAWAV14A1K6BEMLH1HG","","null","<img src=""img/flower4.png"" style=""width:200px; border:14px solid green;"">","null","","","","","","","","",""
"","image-keyboard-response","350","179223","0.0-350.0","3KAKFY4PGVOI2EXOLSB7XUNESX73IJ","A32K4W6B31XWVR","3EHVO81VN57KAWAV14A1K6BEMLH1HG","","509.7000000476837","img/flower3.png","75","510.80000019073486","2","1","2","1","1,0.333,0.333,0.333,1,0.333,0.333,0.333,1","1,0.333,0.333,0.333,1,0.333,0.333,0.333,1","1",""
"","html-keyboard-response","351","179525","0.0-351.0","3KAKFY4PGVOI2EXOLSB7XUNESX73IJ","A32K4W6B31XWVR","3EHVO81VN57KAWAV14A1K6BEMLH1HG","","null","<img src=""img/flower3.png"" style=""width:200px; border:14px solid green;"">","null","","","","","","","","",""
"","image-keyboard-response","352","180133","0.0-352.0","3KAKFY4PGVOI2EXOLSB7XUNESX73IJ","A32K4W6B31XWVR","3EHVO81VN57KAWAV14A1K6BEMLH1HG","","606","img/flower6.png","74","607","1","1","1","1","1,0.333,0.333,0.333,1,0.333,0.333,0.333,1","1,0.333,0.333,0.333,1,0.333,0.333,0.333,1","1",""
"","html-keyboard-response","353","180434","0.0-353.0","3KAKFY4PGVOI2EXOLSB7XUNESX73IJ","A32K4W6B31XWVR","3EHVO81VN57KAWAV14A1K6BEMLH1HG","","null","<img src=""img/flower6.png"" style=""width:200px; border:14px solid green;"">","null","","","","","","","","",""
"","image-keyboard-response","354","181068","0.0-354.0","3KAKFY4PGVOI2EXOLSB7XUNESX73IJ","A32K4W6B31XWVR","3EHVO81VN57KAWAV14A1K6BEMLH1HG","","632","img/flower4.png","76","632.9000000953674","3","1","3","1","1,0.333,0.333,0.333,1,0.333,0.333,0.333,1","1,0.333,0.333,0.333,1,0.333,0.333,0.333,1","1",""
"","html-keyboard-response","355","181370","0.0-355.0","3KAKFY4PGVOI2EXOLSB7XUNESX73IJ","A32K4W6B31XWVR","3EHVO81VN57KAWAV14A1K6BEMLH1HG","","null","<img src=""img/flower4.png"" style=""width:200px; border:14px solid green;"">","null","","","","","","","","",""
"","image-keyboard-response","356","181967","0.0-356.0","3KAKFY4PGVOI2EXOLSB7XUNESX73IJ","A32K4W6B31XWVR","3EHVO81VN57KAWAV14A1K6BEMLH1HG","","595.5","img/flower3.png","75","596.5999999046326","2","1","2","1","1,0.333,0.333,0.333,1,0.333,0.333,0.333,1","1,0.333,0.333,0.333,1,0.333,0.333,0.333,1","1",""
"","html-keyboard-response","357","182269","0.0-357.0","3KAKFY4PGVOI2EXOLSB7XUNESX73IJ","A32K4W6B31XWVR","3EHVO81VN57KAWAV14A1K6BEMLH1HG","","null","<img src=""img/flower3.png"" style=""width:200px; border:14px solid green;"">","null","","","","","","","","",""
"","image-keyboard-response","358","182651","0.0-358.0","3KAKFY4PGVOI2EXOLSB7XUNESX73IJ","A32K4W6B31XWVR","3EHVO81VN57KAWAV14A1K6BEMLH1HG","","381.5","img/flower3.png","75","382.5","2","1","2","1","1,0.333,0.333,0.333,1,0.333,0.333,0.333,1","1,0.333,0.333,0.333,1,0.333,0.333,0.333,1","1",""
"","html-keyboard-response","359","182954","0.0-359.0","3KAKFY4PGVOI2EXOLSB7XUNESX73IJ","A32K4W6B31XWVR","3EHVO81VN57KAWAV14A1K6BEMLH1HG","","null","<img src=""img/flower3.png"" style=""width:200px; border:14px solid green;"">","null","","","","","","","","",""
"","image-keyboard-response","360","183308","0.0-360.0","3KAKFY4PGVOI2EXOLSB7XUNESX73IJ","A32K4W6B31XWVR","3EHVO81VN57KAWAV14A1K6BEMLH1HG","","353.5","img/flower3.png","75","354.59999990463257","2","1","2","1","1,0.333,0.333,0.333,1,0.333,0.333,0.333,1","1,0.333,0.333,0.333,1,0.333,0.333,0.333,1","1",""
"","html-keyboard-response","361","183610","0.0-361.0","3KAKFY4PGVOI2EXOLSB7XUNESX73IJ","A32K4W6B31XWVR","3EHVO81VN57KAWAV14A1K6BEMLH1HG","","null","<img src=""img/flower3.png"" style=""width:200px; border:14px solid green;"">","null","","","","","","","","",""
"","html-keyboard-response","362","187396","0.0-362.0","3KAKFY4PGVOI2EXOLSB7XUNESX73IJ","A32K4W6B31XWVR","3EHVO81VN57KAWAV14A1K6BEMLH1HG","","","","","","","","","","","","",""
"","instructions","363","191164","0.0-363.0","3KAKFY4PGVOI2EXOLSB7XUNESX73IJ","A32K4W6B31XWVR","3EHVO81VN57KAWAV14A1K6BEMLH1HG","[{""page_index"":0,""viewing_time"":3766.5}]","3767","","","","","","","","","","",""
"","survey-text","364","281197","0.0-364.0","3KAKFY4PGVOI2EXOLSB7XUNESX73IJ","A32K4W6B31XWVR","3EHVO81VN57KAWAV14A1K6BEMLH1HG","","90028.40000009537","","","","","","","","","","","{""Q0"":""A32K4W6B31XWVR""}"
