"success","trial_type","trial_index","time_elapsed","internal_node_id","assignmentID","mturkID","hitID","view_history","rt","stimulus","key_press","reactionTime","a","r","s","cond","reward_cond","reward_cond_actual","reward_matrix_idx","responses"
"true","fullscreen","0","27708","0.0-0.0","3H8DHMCCWAX7Q1P9EK2VNJO3BL7KD9","A334VWE4QGAZFR","3L1EFR8WWTRIL5MKAR1UWRHK4IC9FJ","","","","","","","","","","","","",""
"","instructions","1","39975","0.0-1.0","3H8DHMCCWAX7Q1P9EK2VNJO3BL7KD9","A334VWE4QGAZFR","3L1EFR8WWTRIL5MKAR1UWRHK4IC9FJ","[{""page_index"":0,""viewing_time"":2257},{""page_index"":1,""viewing_time"":1184},{""page_index"":2,""viewing_time"":1103},{""page_index"":3,""viewing_time"":664},{""page_index"":4,""viewing_time"":1720},{""page_index"":5,""viewing_time"":2776},{""page_index"":6,""viewing_time"":1296},{""page_index"":7,""viewing_time"":1264}]","12265","","","","","","","","","","",""
"","image-keyboard-response","2","41571","0.0-2.0","3H8DHMCCWAX7Q1P9EK2VNJO3BL7KD9","A334VWE4QGAZFR","3L1EFR8WWTRIL5MKAR1UWRHK4IC9FJ","","1594","img/flower6.png","74","1596","1","1","3","2","1,0,0,1,1,0,1,0,1","1,0,0,1,1,0,1,0,1","1",""
"","html-keyboard-response","3","41873","0.0-3.0","3H8DHMCCWAX7Q1P9EK2VNJO3BL7KD9","A334VWE4QGAZFR","3L1EFR8WWTRIL5MKAR1UWRHK4IC9FJ","","null","<img src=""img/flower6.png"" style=""width:200px; border:14px solid green;"">","null","","","","","","","","",""
"","image-keyboard-response","4","41948","0.0-4.0","3H8DHMCCWAX7Q1P9EK2VNJO3BL7KD9","A334VWE4QGAZFR","3L1EFR8WWTRIL5MKAR1UWRHK4IC9FJ","","74","img/flower2.png","74","75","1","1","2","2","1,0,0,1,1,0,1,0,1","1,0,0,1,1,0,1,0,1","1",""
"","html-keyboard-response","5","42250","0.0-5.0","3H8DHMCCWAX7Q1P9EK2VNJO3BL7KD9","A334VWE4QGAZFR","3L1EFR8WWTRIL5MKAR1UWRHK4IC9FJ","","null","<img src=""img/flower2.png"" style=""width:200px; border:14px solid green;"">","null","","","","","","","","",""
"","image-keyboard-response","6","42355","0.0-6.0","3H8DHMCCWAX7Q1P9EK2VNJO3BL7KD9","A334VWE4QGAZFR","3L1EFR8WWTRIL5MKAR1UWRHK4IC9FJ","","104","img/flower2.png","75","105","2","1","2","2","1,0,0,1,1,0,1,0,1","1,0,0,1,1,0,1,0,1","1",""
"","html-keyboard-response","7","42657","0.0-7.0","3H8DHMCCWAX7Q1P9EK2VNJO3BL7KD9","A334VWE4QGAZFR","3L1EFR8WWTRIL5MKAR1UWRHK4IC9FJ","","null","<img src=""img/flower2.png"" style=""width:200px; border:14px solid green;"">","null","","","","","","","","",""
"","image-keyboard-response","8","42671","0.0-8.0","3H8DHMCCWAX7Q1P9EK2VNJO3BL7KD9","A334VWE4QGAZFR","3L1EFR8WWTRIL5MKAR1UWRHK4IC9FJ","","12","img/flower2.png","76","14","3","0","2","2","1,0,0,1,1,0,1,0,1","1,0,0,1,1,0,1,0,1","1",""
"","html-keyboard-response","9","42973","0.0-9.0","3H8DHMCCWAX7Q1P9EK2VNJO3BL7KD9","A334VWE4QGAZFR","3L1EFR8WWTRIL5MKAR1UWRHK4IC9FJ","","null","<img src=""img/flower2.png"" style=""width:200px;border:14px solid red;"">","null","","","","","","","","",""
"","image-keyboard-response","10","42980","0.0-10.0","3H8DHMCCWAX7Q1P9EK2VNJO3BL7KD9","A334VWE4QGAZFR","3L1EFR8WWTRIL5MKAR1UWRHK4IC9FJ","","6","img/flower2.png","75","7","2","1","2","2","1,0,0,1,1,0,1,0,1","1,0,0,1,1,0,1,0,1","1",""
"","html-keyboard-response","11","43280","0.0-11.0","3H8DHMCCWAX7Q1P9EK2VNJO3BL7KD9","A334VWE4QGAZFR","3L1EFR8WWTRIL5MKAR1UWRHK4IC9FJ","","null","<img src=""img/flower2.png"" style=""width:200px; border:14px solid green;"">","null","","","","","","","","",""
"","image-keyboard-response","12","43416","0.0-12.0","3H8DHMCCWAX7Q1P9EK2VNJO3BL7KD9","A334VWE4QGAZFR","3L1EFR8WWTRIL5MKAR1UWRHK4IC9FJ","","136","img/flower6.png","74","136","1","1","3","2","1,0,0,1,1,0,1,0,1","1,0,0,1,1,0,1,0,1","1",""
"","html-keyboard-response","13","43717","0.0-13.0","3H8DHMCCWAX7Q1P9EK2VNJO3BL7KD9","A334VWE4QGAZFR","3L1EFR8WWTRIL5MKAR1UWRHK4IC9FJ","","null","<img src=""img/flower6.png"" style=""width:200px; border:14px solid green;"">","null","","","","","","","","",""
"","image-keyboard-response","14","43734","0.0-14.0","3H8DHMCCWAX7Q1P9EK2VNJO3BL7KD9","A334VWE4QGAZFR","3L1EFR8WWTRIL5MKAR1UWRHK4IC9FJ","","16","img/flower6.png","74","17","1","1","3","2","1,0,0,1,1,0,1,0,1","1,0,0,1,1,0,1,0,1","1",""
"","html-keyboard-response","15","44036","0.0-15.0","3H8DHMCCWAX7Q1P9EK2VNJO3BL7KD9","A334VWE4QGAZFR","3L1EFR8WWTRIL5MKAR1UWRHK4IC9FJ","","null","<img src=""img/flower6.png"" style=""width:200px; border:14px solid green;"">","null","","","","","","","","",""
"","image-keyboard-response","16","44189","0.0-16.0","3H8DHMCCWAX7Q1P9EK2VNJO3BL7KD9","A334VWE4QGAZFR","3L1EFR8WWTRIL5MKAR1UWRHK4IC9FJ","","153","img/flower6.png","75","153","2","0","3","2","1,0,0,1,1,0,1,0,1","1,0,0,1,1,0,1,0,1","1",""
"","html-keyboard-response","17","44538","0.0-17.0","3H8DHMCCWAX7Q1P9EK2VNJO3BL7KD9","A334VWE4QGAZFR","3L1EFR8WWTRIL5MKAR1UWRHK4IC9FJ","","null","<img src=""img/flower6.png"" style=""width:200px;border:14px solid red;"">","null","","","","","","","","",""
"","image-keyboard-response","18","44543","0.0-18.0","3H8DHMCCWAX7Q1P9EK2VNJO3BL7KD9","A334VWE4QGAZFR","3L1EFR8WWTRIL5MKAR1UWRHK4IC9FJ","","5","img/flower6.png","75","5","2","0","3","2","1,0,0,1,1,0,1,0,1","1,0,0,1,1,0,1,0,1","1",""
"","html-keyboard-response","19","44844","0.0-19.0","3H8DHMCCWAX7Q1P9EK2VNJO3BL7KD9","A334VWE4QGAZFR","3L1EFR8WWTRIL5MKAR1UWRHK4IC9FJ","","null","<img src=""img/flower6.png"" style=""width:200px;border:14px solid red;"">","null","","","","","","","","",""
"","image-keyboard-response","20","44852","0.0-20.0","3H8DHMCCWAX7Q1P9EK2VNJO3BL7KD9","A334VWE4QGAZFR","3L1EFR8WWTRIL5MKAR1UWRHK4IC9FJ","","6","img/flower1.png","75","8","2","0","1","2","1,0,0,1,1,0,1,0,1","1,0,0,1,1,0,1,0,1","1",""
"","html-keyboard-response","21","45153","0.0-21.0","3H8DHMCCWAX7Q1P9EK2VNJO3BL7KD9","A334VWE4QGAZFR","3L1EFR8WWTRIL5MKAR1UWRHK4IC9FJ","","null","<img src=""img/flower1.png"" style=""width:200px;border:14px solid red;"">","null","","","","","","","","",""
"","image-keyboard-response","22","45312","0.0-22.0","3H8DHMCCWAX7Q1P9EK2VNJO3BL7KD9","A334VWE4QGAZFR","3L1EFR8WWTRIL5MKAR1UWRHK4IC9FJ","","158","img/flower1.png","74","159","1","1","1","2","1,0,0,1,1,0,1,0,1","1,0,0,1,1,0,1,0,1","1",""
"","html-keyboard-response","23","45614","0.0-23.0","3H8DHMCCWAX7Q1P9EK2VNJO3BL7KD9","A334VWE4QGAZFR","3L1EFR8WWTRIL5MKAR1UWRHK4IC9FJ","","null","<img src=""img/flower1.png"" style=""width:200px; border:14px solid green;"">","null","","","","","","","","",""
"","image-keyboard-response","24","45778","0.0-24.0","3H8DHMCCWAX7Q1P9EK2VNJO3BL7KD9","A334VWE4QGAZFR","3L1EFR8WWTRIL5MKAR1UWRHK4IC9FJ","","163","img/flower2.png","75","164","2","1","2","2","1,0,0,1,1,0,1,0,1","1,0,0,1,1,0,1,0,1","1",""
"","html-keyboard-response","25","46079","0.0-25.0","3H8DHMCCWAX7Q1P9EK2VNJO3BL7KD9","A334VWE4QGAZFR","3L1EFR8WWTRIL5MKAR1UWRHK4IC9FJ","","null","<img src=""img/flower2.png"" style=""width:200px; border:14px solid green;"">","null","","","","","","","","",""
"","image-keyboard-response","26","46115","0.0-26.0","3H8DHMCCWAX7Q1P9EK2VNJO3BL7KD9","A334VWE4QGAZFR","3L1EFR8WWTRIL5MKAR1UWRHK4IC9FJ","","36","img/flower1.png","76","36","3","0","1","2","1,0,0,1,1,0,1,0,1","1,0,0,1,1,0,1,0,1","1",""
"","html-keyboard-response","27","46416","0.0-27.0","3H8DHMCCWAX7Q1P9EK2VNJO3BL7KD9","A334VWE4QGAZFR","3L1EFR8WWTRIL5MKAR1UWRHK4IC9FJ","","null","<img src=""img/flower1.png"" style=""width:200px;border:14px solid red;"">","null","","","","","","","","",""
"","image-keyboard-response","28","46425","0.0-28.0","3H8DHMCCWAX7Q1P9EK2VNJO3BL7KD9","A334VWE4QGAZFR","3L1EFR8WWTRIL5MKAR1UWRHK4IC9FJ","","9","img/flower6.png","76","9","3","1","3","2","1,0,0,1,1,0,1,0,1","1,0,0,1,1,0,1,0,1","1",""
"","html-keyboard-response","29","46726","0.0-29.0","3H8DHMCCWAX7Q1P9EK2VNJO3BL7KD9","A334VWE4QGAZFR","3L1EFR8WWTRIL5MKAR1UWRHK4IC9FJ","","null","<img src=""img/flower6.png"" style=""width:200px; border:14px solid green;"">","null","","","","","","","","",""
"","image-keyboard-response","30","46741","0.0-30.0","3H8DHMCCWAX7Q1P9EK2VNJO3BL7KD9","A334VWE4QGAZFR","3L1EFR8WWTRIL5MKAR1UWRHK4IC9FJ","","15","img/flower6.png","76","15","3","1","3","2","1,0,0,1,1,0,1,0,1","1,0,0,1,1,0,1,0,1","1",""
"","html-keyboard-response","31","47042","0.0-31.0","3H8DHMCCWAX7Q1P9EK2VNJO3BL7KD9","A334VWE4QGAZFR","3L1EFR8WWTRIL5MKAR1UWRHK4IC9FJ","","null","<img src=""img/flower6.png"" style=""width:200px; border:14px solid green;"">","null","","","","","","","","",""
"","image-keyboard-response","32","47180","0.0-32.0","3H8DHMCCWAX7Q1P9EK2VNJO3BL7KD9","A334VWE4QGAZFR","3L1EFR8WWTRIL5MKAR1UWRHK4IC9FJ","","138","img/flower2.png","74","138","1","1","2","2","1,0,0,1,1,0,1,0,1","1,0,0,1,1,0,1,0,1","1",""
"","html-keyboard-response","33","47482","0.0-33.0","3H8DHMCCWAX7Q1P9EK2VNJO3BL7KD9","A334VWE4QGAZFR","3L1EFR8WWTRIL5MKAR1UWRHK4IC9FJ","","null","<img src=""img/flower2.png"" style=""width:200px; border:14px solid green;"">","null","","","","","","","","",""
"","image-keyboard-response","34","47555","0.0-34.0","3H8DHMCCWAX7Q1P9EK2VNJO3BL7KD9","A334VWE4QGAZFR","3L1EFR8WWTRIL5MKAR1UWRHK4IC9FJ","","73","img/flower6.png","74","73","1","1","3","2","1,0,0,1,1,0,1,0,1","1,0,0,1,1,0,1,0,1","1",""
"","html-keyboard-response","35","47856","0.0-35.0","3H8DHMCCWAX7Q1P9EK2VNJO3BL7KD9","A334VWE4QGAZFR","3L1EFR8WWTRIL5MKAR1UWRHK4IC9FJ","","null","<img src=""img/flower6.png"" style=""width:200px; border:14px solid green;"">","null","","","","","","","","",""
"","image-keyboard-response","36","48043","0.0-36.0","3H8DHMCCWAX7Q1P9EK2VNJO3BL7KD9","A334VWE4QGAZFR","3L1EFR8WWTRIL5MKAR1UWRHK4IC9FJ","","186","img/flower1.png","75","187","2","0","1","2","1,0,0,1,1,0,1,0,1","1,0,0,1,1,0,1,0,1","1",""
"","html-keyboard-response","37","48345","0.0-37.0","3H8DHMCCWAX7Q1P9EK2VNJO3BL7KD9","A334VWE4QGAZFR","3L1EFR8WWTRIL5MKAR1UWRHK4IC9FJ","","null","<img src=""img/flower1.png"" style=""width:200px;border:14px solid red;"">","null","","","","","","","","",""
"","image-keyboard-response","38","48370","0.0-38.0","3H8DHMCCWAX7Q1P9EK2VNJO3BL7KD9","A334VWE4QGAZFR","3L1EFR8WWTRIL5MKAR1UWRHK4IC9FJ","","24","img/flower6.png","76","25","3","1","3","2","1,0,0,1,1,0,1,0,1","1,0,0,1,1,0,1,0,1","1",""
"","html-keyboard-response","39","48672","0.0-39.0","3H8DHMCCWAX7Q1P9EK2VNJO3BL7KD9","A334VWE4QGAZFR","3L1EFR8WWTRIL5MKAR1UWRHK4IC9FJ","","null","<img src=""img/flower6.png"" style=""width:200px; border:14px solid green;"">","null","","","","","","","","",""
"","image-keyboard-response","40","48697","0.0-40.0","3H8DHMCCWAX7Q1P9EK2VNJO3BL7KD9","A334VWE4QGAZFR","3L1EFR8WWTRIL5MKAR1UWRHK4IC9FJ","","25","img/flower1.png","75","25","2","0","1","2","1,0,0,1,1,0,1,0,1","1,0,0,1,1,0,1,0,1","1",""
"","html-keyboard-response","41","48999","0.0-41.0","3H8DHMCCWAX7Q1P9EK2VNJO3BL7KD9","A334VWE4QGAZFR","3L1EFR8WWTRIL5MKAR1UWRHK4IC9FJ","","null","<img src=""img/flower1.png"" style=""width:200px;border:14px solid red;"">","null","","","","","","","","",""
"","image-keyboard-response","42","49004","0.0-42.0","3H8DHMCCWAX7Q1P9EK2VNJO3BL7KD9","A334VWE4QGAZFR","3L1EFR8WWTRIL5MKAR1UWRHK4IC9FJ","","4","img/flower1.png","75","5","2","0","1","2","1,0,0,1,1,0,1,0,1","1,0,0,1,1,0,1,0,1","1",""
"","html-keyboard-response","43","49305","0.0-43.0","3H8DHMCCWAX7Q1P9EK2VNJO3BL7KD9","A334VWE4QGAZFR","3L1EFR8WWTRIL5MKAR1UWRHK4IC9FJ","","null","<img src=""img/flower1.png"" style=""width:200px;border:14px solid red;"">","null","","","","","","","","",""
"","image-keyboard-response","44","49351","0.0-44.0","3H8DHMCCWAX7Q1P9EK2VNJO3BL7KD9","A334VWE4QGAZFR","3L1EFR8WWTRIL5MKAR1UWRHK4IC9FJ","","45","img/flower1.png","75","47","2","0","1","2","1,0,0,1,1,0,1,0,1","1,0,0,1,1,0,1,0,1","1",""
"","html-keyboard-response","45","49653","0.0-45.0","3H8DHMCCWAX7Q1P9EK2VNJO3BL7KD9","A334VWE4QGAZFR","3L1EFR8WWTRIL5MKAR1UWRHK4IC9FJ","","null","<img src=""img/flower1.png"" style=""width:200px;border:14px solid red;"">","null","","","","","","","","",""
"","image-keyboard-response","46","49682","0.0-46.0","3H8DHMCCWAX7Q1P9EK2VNJO3BL7KD9","A334VWE4QGAZFR","3L1EFR8WWTRIL5MKAR1UWRHK4IC9FJ","","29","img/flower1.png","76","29","3","0","1","2","1,0,0,1,1,0,1,0,1","1,0,0,1,1,0,1,0,1","1",""
"","html-keyboard-response","47","49983","0.0-47.0","3H8DHMCCWAX7Q1P9EK2VNJO3BL7KD9","A334VWE4QGAZFR","3L1EFR8WWTRIL5MKAR1UWRHK4IC9FJ","","null","<img src=""img/flower1.png"" style=""width:200px;border:14px solid red;"">","null","","","","","","","","",""
"","image-keyboard-response","48","49990","0.0-48.0","3H8DHMCCWAX7Q1P9EK2VNJO3BL7KD9","A334VWE4QGAZFR","3L1EFR8WWTRIL5MKAR1UWRHK4IC9FJ","","6","img/flower6.png","76","7","3","1","3","2","1,0,0,1,1,0,1,0,1","1,0,0,1,1,0,1,0,1","1",""
"","html-keyboard-response","49","50290","0.0-49.0","3H8DHMCCWAX7Q1P9EK2VNJO3BL7KD9","A334VWE4QGAZFR","3L1EFR8WWTRIL5MKAR1UWRHK4IC9FJ","","null","<img src=""img/flower6.png"" style=""width:200px; border:14px solid green;"">","null","","","","","","","","",""
"","image-keyboard-response","50","50396","0.0-50.0","3H8DHMCCWAX7Q1P9EK2VNJO3BL7KD9","A334VWE4QGAZFR","3L1EFR8WWTRIL5MKAR1UWRHK4IC9FJ","","106","img/flower1.png","74","106","1","1","1","2","1,0,0,1,1,0,1,0,1","1,0,0,1,1,0,1,0,1","1",""
"","html-keyboard-response","51","50700","0.0-51.0","3H8DHMCCWAX7Q1P9EK2VNJO3BL7KD9","A334VWE4QGAZFR","3L1EFR8WWTRIL5MKAR1UWRHK4IC9FJ","","null","<img src=""img/flower1.png"" style=""width:200px; border:14px solid green;"">","null","","","","","","","","",""
"","image-keyboard-response","52","50871","0.0-52.0","3H8DHMCCWAX7Q1P9EK2VNJO3BL7KD9","A334VWE4QGAZFR","3L1EFR8WWTRIL5MKAR1UWRHK4IC9FJ","","170","img/flower2.png","75","171","2","1","2","2","1,0,0,1,1,0,1,0,1","1,0,0,1,1,0,1,0,1","1",""
"","html-keyboard-response","53","51173","0.0-53.0","3H8DHMCCWAX7Q1P9EK2VNJO3BL7KD9","A334VWE4QGAZFR","3L1EFR8WWTRIL5MKAR1UWRHK4IC9FJ","","null","<img src=""img/flower2.png"" style=""width:200px; border:14px solid green;"">","null","","","","","","","","",""
"","image-keyboard-response","54","51178","0.0-54.0","3H8DHMCCWAX7Q1P9EK2VNJO3BL7KD9","A334VWE4QGAZFR","3L1EFR8WWTRIL5MKAR1UWRHK4IC9FJ","","5","img/flower1.png","76","5","3","0","1","2","1,0,0,1,1,0,1,0,1","1,0,0,1,1,0,1,0,1","1",""
"","html-keyboard-response","55","51479","0.0-55.0","3H8DHMCCWAX7Q1P9EK2VNJO3BL7KD9","A334VWE4QGAZFR","3L1EFR8WWTRIL5MKAR1UWRHK4IC9FJ","","null","<img src=""img/flower1.png"" style=""width:200px;border:14px solid red;"">","null","","","","","","","","",""
"","image-keyboard-response","56","51487","0.0-56.0","3H8DHMCCWAX7Q1P9EK2VNJO3BL7KD9","A334VWE4QGAZFR","3L1EFR8WWTRIL5MKAR1UWRHK4IC9FJ","","7","img/flower1.png","76","8","3","0","1","2","1,0,0,1,1,0,1,0,1","1,0,0,1,1,0,1,0,1","1",""
"","html-keyboard-response","57","51788","0.0-57.0","3H8DHMCCWAX7Q1P9EK2VNJO3BL7KD9","A334VWE4QGAZFR","3L1EFR8WWTRIL5MKAR1UWRHK4IC9FJ","","null","<img src=""img/flower1.png"" style=""width:200px;border:14px solid red;"">","null","","","","","","","","",""
"","image-keyboard-response","58","51826","0.0-58.0","3H8DHMCCWAX7Q1P9EK2VNJO3BL7KD9","A334VWE4QGAZFR","3L1EFR8WWTRIL5MKAR1UWRHK4IC9FJ","","36","img/flower1.png","75","38","2","0","1","2","1,0,0,1,1,0,1,0,1","1,0,0,1,1,0,1,0,1","1",""
"","html-keyboard-response","59","52126","0.0-59.0","3H8DHMCCWAX7Q1P9EK2VNJO3BL7KD9","A334VWE4QGAZFR","3L1EFR8WWTRIL5MKAR1UWRHK4IC9FJ","","null","<img src=""img/flower1.png"" style=""width:200px;border:14px solid red;"">","null","","","","","","","","",""
"","image-keyboard-response","60","52231","0.0-60.0","3H8DHMCCWAX7Q1P9EK2VNJO3BL7KD9","A334VWE4QGAZFR","3L1EFR8WWTRIL5MKAR1UWRHK4IC9FJ","","105","img/flower1.png","74","105","1","1","1","2","1,0,0,1,1,0,1,0,1","1,0,0,1,1,0,1,0,1","1",""
"","html-keyboard-response","61","52533","0.0-61.0","3H8DHMCCWAX7Q1P9EK2VNJO3BL7KD9","A334VWE4QGAZFR","3L1EFR8WWTRIL5MKAR1UWRHK4IC9FJ","","null","<img src=""img/flower1.png"" style=""width:200px; border:14px solid green;"">","null","","","","","","","","",""
"","image-keyboard-response","62","52698","0.0-62.0","3H8DHMCCWAX7Q1P9EK2VNJO3BL7KD9","A334VWE4QGAZFR","3L1EFR8WWTRIL5MKAR1UWRHK4IC9FJ","","164","img/flower2.png","76","165","3","0","2","2","1,0,0,1,1,0,1,0,1","1,0,0,1,1,0,1,0,1","1",""
"","html-keyboard-response","63","52999","0.0-63.0","3H8DHMCCWAX7Q1P9EK2VNJO3BL7KD9","A334VWE4QGAZFR","3L1EFR8WWTRIL5MKAR1UWRHK4IC9FJ","","null","<img src=""img/flower2.png"" style=""width:200px;border:14px solid red;"">","null","","","","","","","","",""
"","image-keyboard-response","64","53084","0.0-64.0","3H8DHMCCWAX7Q1P9EK2VNJO3BL7KD9","A334VWE4QGAZFR","3L1EFR8WWTRIL5MKAR1UWRHK4IC9FJ","","85","img/flower2.png","74","86","1","1","2","2","1,0,0,1,1,0,1,0,1","1,0,0,1,1,0,1,0,1","1",""
"","html-keyboard-response","65","53386","0.0-65.0","3H8DHMCCWAX7Q1P9EK2VNJO3BL7KD9","A334VWE4QGAZFR","3L1EFR8WWTRIL5MKAR1UWRHK4IC9FJ","","null","<img src=""img/flower2.png"" style=""width:200px; border:14px solid green;"">","null","","","","","","","","",""
"","image-keyboard-response","66","53393","0.0-66.0","3H8DHMCCWAX7Q1P9EK2VNJO3BL7KD9","A334VWE4QGAZFR","3L1EFR8WWTRIL5MKAR1UWRHK4IC9FJ","","6","img/flower6.png","74","7","1","1","3","2","1,0,0,1,1,0,1,0,1","1,0,0,1,1,0,1,0,1","1",""
"","html-keyboard-response","67","53747","0.0-67.0","3H8DHMCCWAX7Q1P9EK2VNJO3BL7KD9","A334VWE4QGAZFR","3L1EFR8WWTRIL5MKAR1UWRHK4IC9FJ","","null","<img src=""img/flower6.png"" style=""width:200px; border:14px solid green;"">","null","","","","","","","","",""
"","image-keyboard-response","68","53821","0.0-68.0","3H8DHMCCWAX7Q1P9EK2VNJO3BL7KD9","A334VWE4QGAZFR","3L1EFR8WWTRIL5MKAR1UWRHK4IC9FJ","","72","img/flower2.png","74","74","1","1","2","2","1,0,0,1,1,0,1,0,1","1,0,0,1,1,0,1,0,1","1",""
"","html-keyboard-response","69","54123","0.0-69.0","3H8DHMCCWAX7Q1P9EK2VNJO3BL7KD9","A334VWE4QGAZFR","3L1EFR8WWTRIL5MKAR1UWRHK4IC9FJ","","null","<img src=""img/flower2.png"" style=""width:200px; border:14px solid green;"">","null","","","","","","","","",""
"","image-keyboard-response","70","54187","0.0-70.0","3H8DHMCCWAX7Q1P9EK2VNJO3BL7KD9","A334VWE4QGAZFR","3L1EFR8WWTRIL5MKAR1UWRHK4IC9FJ","","63","img/flower6.png","74","64","1","1","3","2","1,0,0,1,1,0,1,0,1","1,0,0,1,1,0,1,0,1","1",""
"","html-keyboard-response","71","54488","0.0-71.0","3H8DHMCCWAX7Q1P9EK2VNJO3BL7KD9","A334VWE4QGAZFR","3L1EFR8WWTRIL5MKAR1UWRHK4IC9FJ","","null","<img src=""img/flower6.png"" style=""width:200px; border:14px solid green;"">","null","","","","","","","","",""
"","image-keyboard-response","72","54493","0.0-72.0","3H8DHMCCWAX7Q1P9EK2VNJO3BL7KD9","A334VWE4QGAZFR","3L1EFR8WWTRIL5MKAR1UWRHK4IC9FJ","","4","img/flower6.png","75","5","2","0","3","2","1,0,0,1,1,0,1,0,1","1,0,0,1,1,0,1,0,1","1",""
"","html-keyboard-response","73","54795","0.0-73.0","3H8DHMCCWAX7Q1P9EK2VNJO3BL7KD9","A334VWE4QGAZFR","3L1EFR8WWTRIL5MKAR1UWRHK4IC9FJ","","null","<img src=""img/flower6.png"" style=""width:200px;border:14px solid red;"">","null","","","","","","","","",""
"","image-keyboard-response","74","54823","0.0-74.0","3H8DHMCCWAX7Q1P9EK2VNJO3BL7KD9","A334VWE4QGAZFR","3L1EFR8WWTRIL5MKAR1UWRHK4IC9FJ","","27","img/flower2.png","75","28","2","1","2","2","1,0,0,1,1,0,1,0,1","1,0,0,1,1,0,1,0,1","1",""
"","html-keyboard-response","75","55124","0.0-75.0","3H8DHMCCWAX7Q1P9EK2VNJO3BL7KD9","A334VWE4QGAZFR","3L1EFR8WWTRIL5MKAR1UWRHK4IC9FJ","","null","<img src=""img/flower2.png"" style=""width:200px; border:14px solid green;"">","null","","","","","","","","",""
"","image-keyboard-response","76","55159","0.0-76.0","3H8DHMCCWAX7Q1P9EK2VNJO3BL7KD9","A334VWE4QGAZFR","3L1EFR8WWTRIL5MKAR1UWRHK4IC9FJ","","35","img/flower2.png","75","35","2","1","2","2","1,0,0,1,1,0,1,0,1","1,0,0,1,1,0,1,0,1","1",""
"","html-keyboard-response","77","55460","0.0-77.0","3H8DHMCCWAX7Q1P9EK2VNJO3BL7KD9","A334VWE4QGAZFR","3L1EFR8WWTRIL5MKAR1UWRHK4IC9FJ","","null","<img src=""img/flower2.png"" style=""width:200px; border:14px solid green;"">","null","","","","","","","","",""
"","image-keyboard-response","78","55566","0.0-78.0","3H8DHMCCWAX7Q1P9EK2VNJO3BL7KD9","A334VWE4QGAZFR","3L1EFR8WWTRIL5MKAR1UWRHK4IC9FJ","","105","img/flower1.png","74","106","1","1","1","2","1,0,0,1,1,0,1,0,1","1,0,0,1,1,0,1,0,1","1",""
"","html-keyboard-response","79","55867","0.0-79.0","3H8DHMCCWAX7Q1P9EK2VNJO3BL7KD9","A334VWE4QGAZFR","3L1EFR8WWTRIL5MKAR1UWRHK4IC9FJ","","null","<img src=""img/flower1.png"" style=""width:200px; border:14px solid green;"">","null","","","","","","","","",""
"","image-keyboard-response","80","55963","0.0-80.0","3H8DHMCCWAX7Q1P9EK2VNJO3BL7KD9","A334VWE4QGAZFR","3L1EFR8WWTRIL5MKAR1UWRHK4IC9FJ","","95","img/flower6.png","74","96","1","1","3","2","1,0,0,1,1,0,1,0,1","1,0,0,1,1,0,1,0,1","1",""
"","html-keyboard-response","81","56264","0.0-81.0","3H8DHMCCWAX7Q1P9EK2VNJO3BL7KD9","A334VWE4QGAZFR","3L1EFR8WWTRIL5MKAR1UWRHK4IC9FJ","","null","<img src=""img/flower6.png"" style=""width:200px; border:14px solid green;"">","null","","","","","","","","",""
"","image-keyboard-response","82","56479","0.0-82.0","3H8DHMCCWAX7Q1P9EK2VNJO3BL7KD9","A334VWE4QGAZFR","3L1EFR8WWTRIL5MKAR1UWRHK4IC9FJ","","214","img/flower6.png","75","214","2","0","3","2","1,0,0,1,1,0,1,0,1","1,0,0,1,1,0,1,0,1","1",""
"","html-keyboard-response","83","56780","0.0-83.0","3H8DHMCCWAX7Q1P9EK2VNJO3BL7KD9","A334VWE4QGAZFR","3L1EFR8WWTRIL5MKAR1UWRHK4IC9FJ","","null","<img src=""img/flower6.png"" style=""width:200px;border:14px solid red;"">","null","","","","","","","","",""
"","image-keyboard-response","84","56877","0.0-84.0","3H8DHMCCWAX7Q1P9EK2VNJO3BL7KD9","A334VWE4QGAZFR","3L1EFR8WWTRIL5MKAR1UWRHK4IC9FJ","","96","img/flower2.png","74","96","1","1","2","2","1,0,0,1,1,0,1,0,1","1,0,0,1,1,0,1,0,1","1",""
"","html-keyboard-response","85","57178","0.0-85.0","3H8DHMCCWAX7Q1P9EK2VNJO3BL7KD9","A334VWE4QGAZFR","3L1EFR8WWTRIL5MKAR1UWRHK4IC9FJ","","null","<img src=""img/flower2.png"" style=""width:200px; border:14px solid green;"">","null","","","","","","","","",""
"","image-keyboard-response","86","57253","0.0-86.0","3H8DHMCCWAX7Q1P9EK2VNJO3BL7KD9","A334VWE4QGAZFR","3L1EFR8WWTRIL5MKAR1UWRHK4IC9FJ","","75","img/flower2.png","74","76","1","1","2","2","1,0,0,1,1,0,1,0,1","1,0,0,1,1,0,1,0,1","1",""
"","html-keyboard-response","87","57555","0.0-87.0","3H8DHMCCWAX7Q1P9EK2VNJO3BL7KD9","A334VWE4QGAZFR","3L1EFR8WWTRIL5MKAR1UWRHK4IC9FJ","","null","<img src=""img/flower2.png"" style=""width:200px; border:14px solid green;"">","null","","","","","","","","",""
"","image-keyboard-response","88","57591","0.0-88.0","3H8DHMCCWAX7Q1P9EK2VNJO3BL7KD9","A334VWE4QGAZFR","3L1EFR8WWTRIL5MKAR1UWRHK4IC9FJ","","35","img/flower6.png","74","36","1","1","3","2","1,0,0,1,1,0,1,0,1","1,0,0,1,1,0,1,0,1","1",""
"","html-keyboard-response","89","57893","0.0-89.0","3H8DHMCCWAX7Q1P9EK2VNJO3BL7KD9","A334VWE4QGAZFR","3L1EFR8WWTRIL5MKAR1UWRHK4IC9FJ","","null","<img src=""img/flower6.png"" style=""width:200px; border:14px solid green;"">","null","","","","","","","","",""
"","image-keyboard-response","90","57954","0.0-90.0","3H8DHMCCWAX7Q1P9EK2VNJO3BL7KD9","A334VWE4QGAZFR","3L1EFR8WWTRIL5MKAR1UWRHK4IC9FJ","","59","img/flower2.png","74","61","1","1","2","2","1,0,0,1,1,0,1,0,1","1,0,0,1,1,0,1,0,1","1",""
"","html-keyboard-response","91","58255","0.0-91.0","3H8DHMCCWAX7Q1P9EK2VNJO3BL7KD9","A334VWE4QGAZFR","3L1EFR8WWTRIL5MKAR1UWRHK4IC9FJ","","null","<img src=""img/flower2.png"" style=""width:200px; border:14px solid green;"">","null","","","","","","","","",""
"","image-keyboard-response","92","58277","0.0-92.0","3H8DHMCCWAX7Q1P9EK2VNJO3BL7KD9","A334VWE4QGAZFR","3L1EFR8WWTRIL5MKAR1UWRHK4IC9FJ","","22","img/flower6.png","74","22","1","1","3","2","1,0,0,1,1,0,1,0,1","1,0,0,1,1,0,1,0,1","1",""
"","html-keyboard-response","93","58579","0.0-93.0","3H8DHMCCWAX7Q1P9EK2VNJO3BL7KD9","A334VWE4QGAZFR","3L1EFR8WWTRIL5MKAR1UWRHK4IC9FJ","","null","<img src=""img/flower6.png"" style=""width:200px; border:14px solid green;"">","null","","","","","","","","",""
"","image-keyboard-response","94","58604","0.0-94.0","3H8DHMCCWAX7Q1P9EK2VNJO3BL7KD9","A334VWE4QGAZFR","3L1EFR8WWTRIL5MKAR1UWRHK4IC9FJ","","24","img/flower2.png","74","25","1","1","2","2","1,0,0,1,1,0,1,0,1","1,0,0,1,1,0,1,0,1","1",""
"","html-keyboard-response","95","58906","0.0-95.0","3H8DHMCCWAX7Q1P9EK2VNJO3BL7KD9","A334VWE4QGAZFR","3L1EFR8WWTRIL5MKAR1UWRHK4IC9FJ","","null","<img src=""img/flower2.png"" style=""width:200px; border:14px solid green;"">","null","","","","","","","","",""
"","image-keyboard-response","96","58951","0.0-96.0","3H8DHMCCWAX7Q1P9EK2VNJO3BL7KD9","A334VWE4QGAZFR","3L1EFR8WWTRIL5MKAR1UWRHK4IC9FJ","","44","img/flower2.png","74","45","1","1","2","2","1,0,0,1,1,0,1,0,1","1,0,0,1,1,0,1,0,1","1",""
"","html-keyboard-response","97","59253","0.0-97.0","3H8DHMCCWAX7Q1P9EK2VNJO3BL7KD9","A334VWE4QGAZFR","3L1EFR8WWTRIL5MKAR1UWRHK4IC9FJ","","null","<img src=""img/flower2.png"" style=""width:200px; border:14px solid green;"">","null","","","","","","","","",""
"","image-keyboard-response","98","59379","0.0-98.0","3H8DHMCCWAX7Q1P9EK2VNJO3BL7KD9","A334VWE4QGAZFR","3L1EFR8WWTRIL5MKAR1UWRHK4IC9FJ","","125","img/flower1.png","74","126","1","1","1","2","1,0,0,1,1,0,1,0,1","1,0,0,1,1,0,1,0,1","1",""
"","html-keyboard-response","99","59681","0.0-99.0","3H8DHMCCWAX7Q1P9EK2VNJO3BL7KD9","A334VWE4QGAZFR","3L1EFR8WWTRIL5MKAR1UWRHK4IC9FJ","","null","<img src=""img/flower1.png"" style=""width:200px; border:14px solid green;"">","null","","","","","","","","",""
"","image-keyboard-response","100","59885","0.0-100.0","3H8DHMCCWAX7Q1P9EK2VNJO3BL7KD9","A334VWE4QGAZFR","3L1EFR8WWTRIL5MKAR1UWRHK4IC9FJ","","203","img/flower6.png","74","204","1","1","3","2","1,0,0,1,1,0,1,0,1","1,0,0,1,1,0,1,0,1","1",""
"","html-keyboard-response","101","60187","0.0-101.0","3H8DHMCCWAX7Q1P9EK2VNJO3BL7KD9","A334VWE4QGAZFR","3L1EFR8WWTRIL5MKAR1UWRHK4IC9FJ","","null","<img src=""img/flower6.png"" style=""width:200px; border:14px solid green;"">","null","","","","","","","","",""
"","image-keyboard-response","102","60212","0.0-102.0","3H8DHMCCWAX7Q1P9EK2VNJO3BL7KD9","A334VWE4QGAZFR","3L1EFR8WWTRIL5MKAR1UWRHK4IC9FJ","","25","img/flower1.png","74","25","1","1","1","2","1,0,0,1,1,0,1,0,1","1,0,0,1,1,0,1,0,1","1",""
"","html-keyboard-response","103","60514","0.0-103.0","3H8DHMCCWAX7Q1P9EK2VNJO3BL7KD9","A334VWE4QGAZFR","3L1EFR8WWTRIL5MKAR1UWRHK4IC9FJ","","null","<img src=""img/flower1.png"" style=""width:200px; border:14px solid green;"">","null","","","","","","","","",""
"","image-keyboard-response","104","60722","0.0-104.0","3H8DHMCCWAX7Q1P9EK2VNJO3BL7KD9","A334VWE4QGAZFR","3L1EFR8WWTRIL5MKAR1UWRHK4IC9FJ","","208","img/flower6.png","75","208","2","0","3","2","1,0,0,1,1,0,1,0,1","1,0,0,1,1,0,1,0,1","1",""
"","html-keyboard-response","105","61024","0.0-105.0","3H8DHMCCWAX7Q1P9EK2VNJO3BL7KD9","A334VWE4QGAZFR","3L1EFR8WWTRIL5MKAR1UWRHK4IC9FJ","","null","<img src=""img/flower6.png"" style=""width:200px;border:14px solid red;"">","null","","","","","","","","",""
"","image-keyboard-response","106","61037","0.0-106.0","3H8DHMCCWAX7Q1P9EK2VNJO3BL7KD9","A334VWE4QGAZFR","3L1EFR8WWTRIL5MKAR1UWRHK4IC9FJ","","13","img/flower6.png","76","13","3","1","3","2","1,0,0,1,1,0,1,0,1","1,0,0,1,1,0,1,0,1","1",""
"","html-keyboard-response","107","61339","0.0-107.0","3H8DHMCCWAX7Q1P9EK2VNJO3BL7KD9","A334VWE4QGAZFR","3L1EFR8WWTRIL5MKAR1UWRHK4IC9FJ","","null","<img src=""img/flower6.png"" style=""width:200px; border:14px solid green;"">","null","","","","","","","","",""
"","image-keyboard-response","108","61497","0.0-108.0","3H8DHMCCWAX7Q1P9EK2VNJO3BL7KD9","A334VWE4QGAZFR","3L1EFR8WWTRIL5MKAR1UWRHK4IC9FJ","","158","img/flower1.png","75","158","2","0","1","2","1,0,0,1,1,0,1,0,1","1,0,0,1,1,0,1,0,1","1",""
"","html-keyboard-response","109","61798","0.0-109.0","3H8DHMCCWAX7Q1P9EK2VNJO3BL7KD9","A334VWE4QGAZFR","3L1EFR8WWTRIL5MKAR1UWRHK4IC9FJ","","null","<img src=""img/flower1.png"" style=""width:200px;border:14px solid red;"">","null","","","","","","","","",""
"","image-keyboard-response","110","61841","0.0-110.0","3H8DHMCCWAX7Q1P9EK2VNJO3BL7KD9","A334VWE4QGAZFR","3L1EFR8WWTRIL5MKAR1UWRHK4IC9FJ","","43","img/flower2.png","75","43","2","1","2","2","1,0,0,1,1,0,1,0,1","1,0,0,1,1,0,1,0,1","1",""
"","html-keyboard-response","111","62142","0.0-111.0","3H8DHMCCWAX7Q1P9EK2VNJO3BL7KD9","A334VWE4QGAZFR","3L1EFR8WWTRIL5MKAR1UWRHK4IC9FJ","","null","<img src=""img/flower2.png"" style=""width:200px; border:14px solid green;"">","null","","","","","","","","",""
"","image-keyboard-response","112","62316","0.0-112.0","3H8DHMCCWAX7Q1P9EK2VNJO3BL7KD9","A334VWE4QGAZFR","3L1EFR8WWTRIL5MKAR1UWRHK4IC9FJ","","173","img/flower2.png","74","174","1","1","2","2","1,0,0,1,1,0,1,0,1","1,0,0,1,1,0,1,0,1","1",""
"","html-keyboard-response","113","62618","0.0-113.0","3H8DHMCCWAX7Q1P9EK2VNJO3BL7KD9","A334VWE4QGAZFR","3L1EFR8WWTRIL5MKAR1UWRHK4IC9FJ","","null","<img src=""img/flower2.png"" style=""width:200px; border:14px solid green;"">","null","","","","","","","","",""
"","image-keyboard-response","114","62684","0.0-114.0","3H8DHMCCWAX7Q1P9EK2VNJO3BL7KD9","A334VWE4QGAZFR","3L1EFR8WWTRIL5MKAR1UWRHK4IC9FJ","","66","img/flower6.png","74","66","1","1","3","2","1,0,0,1,1,0,1,0,1","1,0,0,1,1,0,1,0,1","1",""
"","html-keyboard-response","115","62985","0.0-115.0","3H8DHMCCWAX7Q1P9EK2VNJO3BL7KD9","A334VWE4QGAZFR","3L1EFR8WWTRIL5MKAR1UWRHK4IC9FJ","","null","<img src=""img/flower6.png"" style=""width:200px; border:14px solid green;"">","null","","","","","","","","",""
"","image-keyboard-response","116","63022","0.0-116.0","3H8DHMCCWAX7Q1P9EK2VNJO3BL7KD9","A334VWE4QGAZFR","3L1EFR8WWTRIL5MKAR1UWRHK4IC9FJ","","36","img/flower1.png","74","37","1","1","1","2","1,0,0,1,1,0,1,0,1","1,0,0,1,1,0,1,0,1","1",""
"","html-keyboard-response","117","63323","0.0-117.0","3H8DHMCCWAX7Q1P9EK2VNJO3BL7KD9","A334VWE4QGAZFR","3L1EFR8WWTRIL5MKAR1UWRHK4IC9FJ","","null","<img src=""img/flower1.png"" style=""width:200px; border:14px solid green;"">","null","","","","","","","","",""
"","image-keyboard-response","118","63339","0.0-118.0","3H8DHMCCWAX7Q1P9EK2VNJO3BL7KD9","A334VWE4QGAZFR","3L1EFR8WWTRIL5MKAR1UWRHK4IC9FJ","","16","img/flower6.png","74","16","1","1","3","2","1,0,0,1,1,0,1,0,1","1,0,0,1,1,0,1,0,1","1",""
"","html-keyboard-response","119","63640","0.0-119.0","3H8DHMCCWAX7Q1P9EK2VNJO3BL7KD9","A334VWE4QGAZFR","3L1EFR8WWTRIL5MKAR1UWRHK4IC9FJ","","null","<img src=""img/flower6.png"" style=""width:200px; border:14px solid green;"">","null","","","","","","","","",""
"","image-keyboard-response","120","63656","0.0-120.0","3H8DHMCCWAX7Q1P9EK2VNJO3BL7KD9","A334VWE4QGAZFR","3L1EFR8WWTRIL5MKAR1UWRHK4IC9FJ","","15","img/flower2.png","74","16","1","1","2","2","1,0,0,1,1,0,1,0,1","1,0,0,1,1,0,1,0,1","1",""
"","html-keyboard-response","121","63957","0.0-121.0","3H8DHMCCWAX7Q1P9EK2VNJO3BL7KD9","A334VWE4QGAZFR","3L1EFR8WWTRIL5MKAR1UWRHK4IC9FJ","","null","<img src=""img/flower2.png"" style=""width:200px; border:14px solid green;"">","null","","","","","","","","",""
"","image-keyboard-response","122","64004","0.0-122.0","3H8DHMCCWAX7Q1P9EK2VNJO3BL7KD9","A334VWE4QGAZFR","3L1EFR8WWTRIL5MKAR1UWRHK4IC9FJ","","46","img/flower2.png","74","47","1","1","2","2","1,0,0,1,1,0,1,0,1","1,0,0,1,1,0,1,0,1","1",""
"","html-keyboard-response","123","64306","0.0-123.0","3H8DHMCCWAX7Q1P9EK2VNJO3BL7KD9","A334VWE4QGAZFR","3L1EFR8WWTRIL5MKAR1UWRHK4IC9FJ","","null","<img src=""img/flower2.png"" style=""width:200px; border:14px solid green;"">","null","","","","","","","","",""
"","image-keyboard-response","124","64501","0.0-124.0","3H8DHMCCWAX7Q1P9EK2VNJO3BL7KD9","A334VWE4QGAZFR","3L1EFR8WWTRIL5MKAR1UWRHK4IC9FJ","","195","img/flower2.png","75","195","2","1","2","2","1,0,0,1,1,0,1,0,1","1,0,0,1,1,0,1,0,1","1",""
"","html-keyboard-response","125","64802","0.0-125.0","3H8DHMCCWAX7Q1P9EK2VNJO3BL7KD9","A334VWE4QGAZFR","3L1EFR8WWTRIL5MKAR1UWRHK4IC9FJ","","null","<img src=""img/flower2.png"" style=""width:200px; border:14px solid green;"">","null","","","","","","","","",""
"","image-keyboard-response","126","64820","0.0-126.0","3H8DHMCCWAX7Q1P9EK2VNJO3BL7KD9","A334VWE4QGAZFR","3L1EFR8WWTRIL5MKAR1UWRHK4IC9FJ","","17","img/flower6.png","76","18","3","1","3","2","1,0,0,1,1,0,1,0,1","1,0,0,1,1,0,1,0,1","1",""
"","html-keyboard-response","127","65122","0.0-127.0","3H8DHMCCWAX7Q1P9EK2VNJO3BL7KD9","A334VWE4QGAZFR","3L1EFR8WWTRIL5MKAR1UWRHK4IC9FJ","","null","<img src=""img/flower6.png"" style=""width:200px; border:14px solid green;"">","null","","","","","","","","",""
"","image-keyboard-response","128","65126","0.0-128.0","3H8DHMCCWAX7Q1P9EK2VNJO3BL7KD9","A334VWE4QGAZFR","3L1EFR8WWTRIL5MKAR1UWRHK4IC9FJ","","3","img/flower1.png","75","6","2","0","1","2","1,0,0,1,1,0,1,0,1","1,0,0,1,1,0,1,0,1","1",""
"","html-keyboard-response","129","65430","0.0-129.0","3H8DHMCCWAX7Q1P9EK2VNJO3BL7KD9","A334VWE4QGAZFR","3L1EFR8WWTRIL5MKAR1UWRHK4IC9FJ","","null","<img src=""img/flower1.png"" style=""width:200px;border:14px solid red;"">","null","","","","","","","","",""
"","image-keyboard-response","130","65443","0.0-130.0","3H8DHMCCWAX7Q1P9EK2VNJO3BL7KD9","A334VWE4QGAZFR","3L1EFR8WWTRIL5MKAR1UWRHK4IC9FJ","","12","img/flower6.png","75","13","2","0","3","2","1,0,0,1,1,0,1,0,1","1,0,0,1,1,0,1,0,1","1",""
"","html-keyboard-response","131","65744","0.0-131.0","3H8DHMCCWAX7Q1P9EK2VNJO3BL7KD9","A334VWE4QGAZFR","3L1EFR8WWTRIL5MKAR1UWRHK4IC9FJ","","null","<img src=""img/flower6.png"" style=""width:200px;border:14px solid red;"">","null","","","","","","","","",""
"","image-keyboard-response","132","65761","0.0-132.0","3H8DHMCCWAX7Q1P9EK2VNJO3BL7KD9","A334VWE4QGAZFR","3L1EFR8WWTRIL5MKAR1UWRHK4IC9FJ","","15","img/flower2.png","75","17","2","1","2","2","1,0,0,1,1,0,1,0,1","1,0,0,1,1,0,1,0,1","1",""
"","html-keyboard-response","133","66061","0.0-133.0","3H8DHMCCWAX7Q1P9EK2VNJO3BL7KD9","A334VWE4QGAZFR","3L1EFR8WWTRIL5MKAR1UWRHK4IC9FJ","","null","<img src=""img/flower2.png"" style=""width:200px; border:14px solid green;"">","null","","","","","","","","",""
"","image-keyboard-response","134","66258","0.0-134.0","3H8DHMCCWAX7Q1P9EK2VNJO3BL7KD9","A334VWE4QGAZFR","3L1EFR8WWTRIL5MKAR1UWRHK4IC9FJ","","196","img/flower1.png","75","198","2","0","1","2","1,0,0,1,1,0,1,0,1","1,0,0,1,1,0,1,0,1","1",""
"","html-keyboard-response","135","66559","0.0-135.0","3H8DHMCCWAX7Q1P9EK2VNJO3BL7KD9","A334VWE4QGAZFR","3L1EFR8WWTRIL5MKAR1UWRHK4IC9FJ","","null","<img src=""img/flower1.png"" style=""width:200px;border:14px solid red;"">","null","","","","","","","","",""
"","image-keyboard-response","136","66568","0.0-136.0","3H8DHMCCWAX7Q1P9EK2VNJO3BL7KD9","A334VWE4QGAZFR","3L1EFR8WWTRIL5MKAR1UWRHK4IC9FJ","","6","img/flower2.png","76","9","3","0","2","2","1,0,0,1,1,0,1,0,1","1,0,0,1,1,0,1,0,1","1",""
"","html-keyboard-response","137","66870","0.0-137.0","3H8DHMCCWAX7Q1P9EK2VNJO3BL7KD9","A334VWE4QGAZFR","3L1EFR8WWTRIL5MKAR1UWRHK4IC9FJ","","null","<img src=""img/flower2.png"" style=""width:200px;border:14px solid red;"">","null","","","","","","","","",""
"","image-keyboard-response","138","66876","0.0-138.0","3H8DHMCCWAX7Q1P9EK2VNJO3BL7KD9","A334VWE4QGAZFR","3L1EFR8WWTRIL5MKAR1UWRHK4IC9FJ","","5","img/flower2.png","75","6","2","1","2","2","1,0,0,1,1,0,1,0,1","1,0,0,1,1,0,1,0,1","1",""
"","html-keyboard-response","139","67177","0.0-139.0","3H8DHMCCWAX7Q1P9EK2VNJO3BL7KD9","A334VWE4QGAZFR","3L1EFR8WWTRIL5MKAR1UWRHK4IC9FJ","","null","<img src=""img/flower2.png"" style=""width:200px; border:14px solid green;"">","null","","","","","","","","",""
"","image-keyboard-response","140","67231","0.0-140.0","3H8DHMCCWAX7Q1P9EK2VNJO3BL7KD9","A334VWE4QGAZFR","3L1EFR8WWTRIL5MKAR1UWRHK4IC9FJ","","53","img/flower1.png","75","54","2","0","1","2","1,0,0,1,1,0,1,0,1","1,0,0,1,1,0,1,0,1","1",""
"","html-keyboard-response","141","67532","0.0-141.0","3H8DHMCCWAX7Q1P9EK2VNJO3BL7KD9","A334VWE4QGAZFR","3L1EFR8WWTRIL5MKAR1UWRHK4IC9FJ","","null","<img src=""img/flower1.png"" style=""width:200px;border:14px solid red;"">","null","","","","","","","","",""
"","image-keyboard-response","142","67558","0.0-142.0","3H8DHMCCWAX7Q1P9EK2VNJO3BL7KD9","A334VWE4QGAZFR","3L1EFR8WWTRIL5MKAR1UWRHK4IC9FJ","","26","img/flower1.png","76","27","3","0","1","2","1,0,0,1,1,0,1,0,1","1,0,0,1,1,0,1,0,1","1",""
"","html-keyboard-response","143","67859","0.0-143.0","3H8DHMCCWAX7Q1P9EK2VNJO3BL7KD9","A334VWE4QGAZFR","3L1EFR8WWTRIL5MKAR1UWRHK4IC9FJ","","null","<img src=""img/flower1.png"" style=""width:200px;border:14px solid red;"">","null","","","","","","","","",""
"","image-keyboard-response","144","67898","0.0-144.0","3H8DHMCCWAX7Q1P9EK2VNJO3BL7KD9","A334VWE4QGAZFR","3L1EFR8WWTRIL5MKAR1UWRHK4IC9FJ","","37","img/flower6.png","76","39","3","1","3","2","1,0,0,1,1,0,1,0,1","1,0,0,1,1,0,1,0,1","1",""
"","html-keyboard-response","145","68199","0.0-145.0","3H8DHMCCWAX7Q1P9EK2VNJO3BL7KD9","A334VWE4QGAZFR","3L1EFR8WWTRIL5MKAR1UWRHK4IC9FJ","","null","<img src=""img/flower6.png"" style=""width:200px; border:14px solid green;"">","null","","","","","","","","",""
"","image-keyboard-response","146","68234","0.0-146.0","3H8DHMCCWAX7Q1P9EK2VNJO3BL7KD9","A334VWE4QGAZFR","3L1EFR8WWTRIL5MKAR1UWRHK4IC9FJ","","35","img/flower2.png","75","35","2","1","2","2","1,0,0,1,1,0,1,0,1","1,0,0,1,1,0,1,0,1","1",""
"","html-keyboard-response","147","68536","0.0-147.0","3H8DHMCCWAX7Q1P9EK2VNJO3BL7KD9","A334VWE4QGAZFR","3L1EFR8WWTRIL5MKAR1UWRHK4IC9FJ","","null","<img src=""img/flower2.png"" style=""width:200px; border:14px solid green;"">","null","","","","","","","","",""
"","image-keyboard-response","148","68543","0.0-148.0","3H8DHMCCWAX7Q1P9EK2VNJO3BL7KD9","A334VWE4QGAZFR","3L1EFR8WWTRIL5MKAR1UWRHK4IC9FJ","","6","img/flower2.png","76","7","3","0","2","2","1,0,0,1,1,0,1,0,1","1,0,0,1,1,0,1,0,1","1",""
"","html-keyboard-response","149","68861","0.0-149.0","3H8DHMCCWAX7Q1P9EK2VNJO3BL7KD9","A334VWE4QGAZFR","3L1EFR8WWTRIL5MKAR1UWRHK4IC9FJ","","null","<img src=""img/flower2.png"" style=""width:200px;border:14px solid red;"">","null","","","","","","","","",""
"","image-keyboard-response","150","68889","0.0-150.0","3H8DHMCCWAX7Q1P9EK2VNJO3BL7KD9","A334VWE4QGAZFR","3L1EFR8WWTRIL5MKAR1UWRHK4IC9FJ","","27","img/flower6.png","75","28","2","0","3","2","1,0,0,1,1,0,1,0,1","1,0,0,1,1,0,1,0,1","1",""
"","html-keyboard-response","151","69190","0.0-151.0","3H8DHMCCWAX7Q1P9EK2VNJO3BL7KD9","A334VWE4QGAZFR","3L1EFR8WWTRIL5MKAR1UWRHK4IC9FJ","","null","<img src=""img/flower6.png"" style=""width:200px;border:14px solid red;"">","null","","","","","","","","",""
"","image-keyboard-response","152","69296","0.0-152.0","3H8DHMCCWAX7Q1P9EK2VNJO3BL7KD9","A334VWE4QGAZFR","3L1EFR8WWTRIL5MKAR1UWRHK4IC9FJ","","106","img/flower1.png","74","106","1","1","1","2","1,0,0,1,1,0,1,0,1","1,0,0,1,1,0,1,0,1","1",""
"","html-keyboard-response","153","69597","0.0-153.0","3H8DHMCCWAX7Q1P9EK2VNJO3BL7KD9","A334VWE4QGAZFR","3L1EFR8WWTRIL5MKAR1UWRHK4IC9FJ","","null","<img src=""img/flower1.png"" style=""width:200px; border:14px solid green;"">","null","","","","","","","","",""
"","image-keyboard-response","154","69623","0.0-154.0","3H8DHMCCWAX7Q1P9EK2VNJO3BL7KD9","A334VWE4QGAZFR","3L1EFR8WWTRIL5MKAR1UWRHK4IC9FJ","","26","img/flower1.png","74","26","1","1","1","2","1,0,0,1,1,0,1,0,1","1,0,0,1,1,0,1,0,1","1",""
"","html-keyboard-response","155","69924","0.0-155.0","3H8DHMCCWAX7Q1P9EK2VNJO3BL7KD9","A334VWE4QGAZFR","3L1EFR8WWTRIL5MKAR1UWRHK4IC9FJ","","null","<img src=""img/flower1.png"" style=""width:200px; border:14px solid green;"">","null","","","","","","","","",""
"","image-keyboard-response","156","69970","0.0-156.0","3H8DHMCCWAX7Q1P9EK2VNJO3BL7KD9","A334VWE4QGAZFR","3L1EFR8WWTRIL5MKAR1UWRHK4IC9FJ","","45","img/flower2.png","74","46","1","1","2","2","1,0,0,1,1,0,1,0,1","1,0,0,1,1,0,1,0,1","1",""
"","html-keyboard-response","157","70272","0.0-157.0","3H8DHMCCWAX7Q1P9EK2VNJO3BL7KD9","A334VWE4QGAZFR","3L1EFR8WWTRIL5MKAR1UWRHK4IC9FJ","","null","<img src=""img/flower2.png"" style=""width:200px; border:14px solid green;"">","null","","","","","","","","",""
"","image-keyboard-response","158","70466","0.0-158.0","3H8DHMCCWAX7Q1P9EK2VNJO3BL7KD9","A334VWE4QGAZFR","3L1EFR8WWTRIL5MKAR1UWRHK4IC9FJ","","194","img/flower1.png","75","194","2","0","1","2","1,0,0,1,1,0,1,0,1","1,0,0,1,1,0,1,0,1","1",""
"","html-keyboard-response","159","70768","0.0-159.0","3H8DHMCCWAX7Q1P9EK2VNJO3BL7KD9","A334VWE4QGAZFR","3L1EFR8WWTRIL5MKAR1UWRHK4IC9FJ","","null","<img src=""img/flower1.png"" style=""width:200px;border:14px solid red;"">","null","","","","","","","","",""
"","image-keyboard-response","160","70864","0.0-160.0","3H8DHMCCWAX7Q1P9EK2VNJO3BL7KD9","A334VWE4QGAZFR","3L1EFR8WWTRIL5MKAR1UWRHK4IC9FJ","","95","img/flower1.png","76","96","3","0","1","2","1,0,0,1,1,0,1,0,1","1,0,0,1,1,0,1,0,1","1",""
"","html-keyboard-response","161","71165","0.0-161.0","3H8DHMCCWAX7Q1P9EK2VNJO3BL7KD9","A334VWE4QGAZFR","3L1EFR8WWTRIL5MKAR1UWRHK4IC9FJ","","null","<img src=""img/flower1.png"" style=""width:200px;border:14px solid red;"">","null","","","","","","","","",""
"","image-keyboard-response","162","71212","0.0-162.0","3H8DHMCCWAX7Q1P9EK2VNJO3BL7KD9","A334VWE4QGAZFR","3L1EFR8WWTRIL5MKAR1UWRHK4IC9FJ","","46","img/flower6.png","75","47","2","0","3","2","1,0,0,1,1,0,1,0,1","1,0,0,1,1,0,1,0,1","1",""
"","html-keyboard-response","163","71513","0.0-163.0","3H8DHMCCWAX7Q1P9EK2VNJO3BL7KD9","A334VWE4QGAZFR","3L1EFR8WWTRIL5MKAR1UWRHK4IC9FJ","","null","<img src=""img/flower6.png"" style=""width:200px;border:14px solid red;"">","null","","","","","","","","",""
"","image-keyboard-response","164","71538","0.0-164.0","3H8DHMCCWAX7Q1P9EK2VNJO3BL7KD9","A334VWE4QGAZFR","3L1EFR8WWTRIL5MKAR1UWRHK4IC9FJ","","25","img/flower1.png","75","25","2","0","1","2","1,0,0,1,1,0,1,0,1","1,0,0,1,1,0,1,0,1","1",""
"","html-keyboard-response","165","71840","0.0-165.0","3H8DHMCCWAX7Q1P9EK2VNJO3BL7KD9","A334VWE4QGAZFR","3L1EFR8WWTRIL5MKAR1UWRHK4IC9FJ","","null","<img src=""img/flower1.png"" style=""width:200px;border:14px solid red;"">","null","","","","","","","","",""
"","image-keyboard-response","166","71885","0.0-166.0","3H8DHMCCWAX7Q1P9EK2VNJO3BL7KD9","A334VWE4QGAZFR","3L1EFR8WWTRIL5MKAR1UWRHK4IC9FJ","","44","img/flower6.png","75","46","2","0","3","2","1,0,0,1,1,0,1,0,1","1,0,0,1,1,0,1,0,1","1",""
"","html-keyboard-response","167","72187","0.0-167.0","3H8DHMCCWAX7Q1P9EK2VNJO3BL7KD9","A334VWE4QGAZFR","3L1EFR8WWTRIL5MKAR1UWRHK4IC9FJ","","null","<img src=""img/flower6.png"" style=""width:200px;border:14px solid red;"">","null","","","","","","","","",""
"","image-keyboard-response","168","72224","0.0-168.0","3H8DHMCCWAX7Q1P9EK2VNJO3BL7KD9","A334VWE4QGAZFR","3L1EFR8WWTRIL5MKAR1UWRHK4IC9FJ","","35","img/flower2.png","76","37","3","0","2","2","1,0,0,1,1,0,1,0,1","1,0,0,1,1,0,1,0,1","1",""
"","html-keyboard-response","169","72525","0.0-169.0","3H8DHMCCWAX7Q1P9EK2VNJO3BL7KD9","A334VWE4QGAZFR","3L1EFR8WWTRIL5MKAR1UWRHK4IC9FJ","","null","<img src=""img/flower2.png"" style=""width:200px;border:14px solid red;"">","null","","","","","","","","",""
"","image-keyboard-response","170","72572","0.0-170.0","3H8DHMCCWAX7Q1P9EK2VNJO3BL7KD9","A334VWE4QGAZFR","3L1EFR8WWTRIL5MKAR1UWRHK4IC9FJ","","45","img/flower2.png","75","47","2","1","2","2","1,0,0,1,1,0,1,0,1","1,0,0,1,1,0,1,0,1","1",""
"","html-keyboard-response","171","72872","0.0-171.0","3H8DHMCCWAX7Q1P9EK2VNJO3BL7KD9","A334VWE4QGAZFR","3L1EFR8WWTRIL5MKAR1UWRHK4IC9FJ","","null","<img src=""img/flower2.png"" style=""width:200px; border:14px solid green;"">","null","","","","","","","","",""
"","image-keyboard-response","172","72998","0.0-172.0","3H8DHMCCWAX7Q1P9EK2VNJO3BL7KD9","A334VWE4QGAZFR","3L1EFR8WWTRIL5MKAR1UWRHK4IC9FJ","","124","img/flower6.png","74","126","1","1","3","2","1,0,0,1,1,0,1,0,1","1,0,0,1,1,0,1,0,1","1",""
"","html-keyboard-response","173","73299","0.0-173.0","3H8DHMCCWAX7Q1P9EK2VNJO3BL7KD9","A334VWE4QGAZFR","3L1EFR8WWTRIL5MKAR1UWRHK4IC9FJ","","null","<img src=""img/flower6.png"" style=""width:200px; border:14px solid green;"">","null","","","","","","","","",""
"","image-keyboard-response","174","73443","0.0-174.0","3H8DHMCCWAX7Q1P9EK2VNJO3BL7KD9","A334VWE4QGAZFR","3L1EFR8WWTRIL5MKAR1UWRHK4IC9FJ","","144","img/flower6.png","74","144","1","1","3","2","1,0,0,1,1,0,1,0,1","1,0,0,1,1,0,1,0,1","1",""
"","html-keyboard-response","175","73744","0.0-175.0","3H8DHMCCWAX7Q1P9EK2VNJO3BL7KD9","A334VWE4QGAZFR","3L1EFR8WWTRIL5MKAR1UWRHK4IC9FJ","","null","<img src=""img/flower6.png"" style=""width:200px; border:14px solid green;"">","null","","","","","","","","",""
"","image-keyboard-response","176","73904","0.0-176.0","3H8DHMCCWAX7Q1P9EK2VNJO3BL7KD9","A334VWE4QGAZFR","3L1EFR8WWTRIL5MKAR1UWRHK4IC9FJ","","159","img/flower1.png","74","160","1","1","1","2","1,0,0,1,1,0,1,0,1","1,0,0,1,1,0,1,0,1","1",""
"","html-keyboard-response","177","74205","0.0-177.0","3H8DHMCCWAX7Q1P9EK2VNJO3BL7KD9","A334VWE4QGAZFR","3L1EFR8WWTRIL5MKAR1UWRHK4IC9FJ","","null","<img src=""img/flower1.png"" style=""width:200px; border:14px solid green;"">","null","","","","","","","","",""
"","image-keyboard-response","178","74230","0.0-178.0","3H8DHMCCWAX7Q1P9EK2VNJO3BL7KD9","A334VWE4QGAZFR","3L1EFR8WWTRIL5MKAR1UWRHK4IC9FJ","","24","img/flower1.png","74","25","1","1","1","2","1,0,0,1,1,0,1,0,1","1,0,0,1,1,0,1,0,1","1",""
"","html-keyboard-response","179","74530","0.0-179.0","3H8DHMCCWAX7Q1P9EK2VNJO3BL7KD9","A334VWE4QGAZFR","3L1EFR8WWTRIL5MKAR1UWRHK4IC9FJ","","null","<img src=""img/flower1.png"" style=""width:200px; border:14px solid green;"">","null","","","","","","","","",""
"","image-keyboard-response","180","74728","0.0-180.0","3H8DHMCCWAX7Q1P9EK2VNJO3BL7KD9","A334VWE4QGAZFR","3L1EFR8WWTRIL5MKAR1UWRHK4IC9FJ","","197","img/flower1.png","74","199","1","1","1","2","1,0,0,1,1,0,1,0,1","1,0,0,1,1,0,1,0,1","1",""
"","html-keyboard-response","181","75031","0.0-181.0","3H8DHMCCWAX7Q1P9EK2VNJO3BL7KD9","A334VWE4QGAZFR","3L1EFR8WWTRIL5MKAR1UWRHK4IC9FJ","","null","<img src=""img/flower1.png"" style=""width:200px; border:14px solid green;"">","null","","","","","","","","",""
"","image-keyboard-response","182","75122","0.0-182.0","3H8DHMCCWAX7Q1P9EK2VNJO3BL7KD9","A334VWE4QGAZFR","3L1EFR8WWTRIL5MKAR1UWRHK4IC9FJ","","91","img/flower3.png","74","91","1","0","2","1","1,0.333,0.333,0.333,1,0.333,0.333,0.333,1","1,0.333,0.333,0.333,1,0.333,0.333,0.333,1","1",""
"","html-keyboard-response","183","75423","0.0-183.0","3H8DHMCCWAX7Q1P9EK2VNJO3BL7KD9","A334VWE4QGAZFR","3L1EFR8WWTRIL5MKAR1UWRHK4IC9FJ","","null","<img src=""img/flower3.png"" style=""width:200px;border:14px solid red;"">","null","","","","","","","","",""
"","image-keyboard-response","184","75457","0.0-184.0","3H8DHMCCWAX7Q1P9EK2VNJO3BL7KD9","A334VWE4QGAZFR","3L1EFR8WWTRIL5MKAR1UWRHK4IC9FJ","","33","img/flower4.png","74","34","1","1","3","1","1,0.333,0.333,0.333,1,0.333,0.333,0.333,1","1,0.333,0.333,0.333,1,0.333,0.333,0.333,1","1",""
"","html-keyboard-response","185","75759","0.0-185.0","3H8DHMCCWAX7Q1P9EK2VNJO3BL7KD9","A334VWE4QGAZFR","3L1EFR8WWTRIL5MKAR1UWRHK4IC9FJ","","null","<img src=""img/flower4.png"" style=""width:200px; border:14px solid green;"">","null","","","","","","","","",""
"","image-keyboard-response","186","75818","0.0-186.0","3H8DHMCCWAX7Q1P9EK2VNJO3BL7KD9","A334VWE4QGAZFR","3L1EFR8WWTRIL5MKAR1UWRHK4IC9FJ","","59","img/flower4.png","74","59","1","0","3","1","1,0.333,0.333,0.333,1,0.333,0.333,0.333,1","1,0.333,0.333,0.333,1,0.333,0.333,0.333,1","1",""
"","html-keyboard-response","187","76119","0.0-187.0","3H8DHMCCWAX7Q1P9EK2VNJO3BL7KD9","A334VWE4QGAZFR","3L1EFR8WWTRIL5MKAR1UWRHK4IC9FJ","","null","<img src=""img/flower4.png"" style=""width:200px;border:14px solid red;"">","null","","","","","","","","",""
"","image-keyboard-response","188","76155","0.0-188.0","3H8DHMCCWAX7Q1P9EK2VNJO3BL7KD9","A334VWE4QGAZFR","3L1EFR8WWTRIL5MKAR1UWRHK4IC9FJ","","35","img/flower5.png","74","36","1","1","1","1","1,0.333,0.333,0.333,1,0.333,0.333,0.333,1","1,0.333,0.333,0.333,1,0.333,0.333,0.333,1","1",""
"","html-keyboard-response","189","76456","0.0-189.0","3H8DHMCCWAX7Q1P9EK2VNJO3BL7KD9","A334VWE4QGAZFR","3L1EFR8WWTRIL5MKAR1UWRHK4IC9FJ","","null","<img src=""img/flower5.png"" style=""width:200px; border:14px solid green;"">","null","","","","","","","","",""
"","image-keyboard-response","190","76523","0.0-190.0","3H8DHMCCWAX7Q1P9EK2VNJO3BL7KD9","A334VWE4QGAZFR","3L1EFR8WWTRIL5MKAR1UWRHK4IC9FJ","","66","img/flower5.png","74","67","1","1","1","1","1,0.333,0.333,0.333,1,0.333,0.333,0.333,1","1,0.333,0.333,0.333,1,0.333,0.333,0.333,1","1",""
"","html-keyboard-response","191","76835","0.0-191.0","3H8DHMCCWAX7Q1P9EK2VNJO3BL7KD9","A334VWE4QGAZFR","3L1EFR8WWTRIL5MKAR1UWRHK4IC9FJ","","null","<img src=""img/flower5.png"" style=""width:200px; border:14px solid green;"">","null","","","","","","","","",""
"","image-keyboard-response","192","76890","0.0-192.0","3H8DHMCCWAX7Q1P9EK2VNJO3BL7KD9","A334VWE4QGAZFR","3L1EFR8WWTRIL5MKAR1UWRHK4IC9FJ","","55","img/flower4.png","74","55","1","1","3","1","1,0.333,0.333,0.333,1,0.333,0.333,0.333,1","1,0.333,0.333,0.333,1,0.333,0.333,0.333,1","1",""
"","html-keyboard-response","193","77192","0.0-193.0","3H8DHMCCWAX7Q1P9EK2VNJO3BL7KD9","A334VWE4QGAZFR","3L1EFR8WWTRIL5MKAR1UWRHK4IC9FJ","","null","<img src=""img/flower4.png"" style=""width:200px; border:14px solid green;"">","null","","","","","","","","",""
"","image-keyboard-response","194","77251","0.0-194.0","3H8DHMCCWAX7Q1P9EK2VNJO3BL7KD9","A334VWE4QGAZFR","3L1EFR8WWTRIL5MKAR1UWRHK4IC9FJ","","58","img/flower5.png","74","59","1","1","1","1","1,0.333,0.333,0.333,1,0.333,0.333,0.333,1","1,0.333,0.333,0.333,1,0.333,0.333,0.333,1","1",""
"","html-keyboard-response","195","77552","0.0-195.0","3H8DHMCCWAX7Q1P9EK2VNJO3BL7KD9","A334VWE4QGAZFR","3L1EFR8WWTRIL5MKAR1UWRHK4IC9FJ","","null","<img src=""img/flower5.png"" style=""width:200px; border:14px solid green;"">","null","","","","","","","","",""
"","image-keyboard-response","196","77894","0.0-196.0","3H8DHMCCWAX7Q1P9EK2VNJO3BL7KD9","A334VWE4QGAZFR","3L1EFR8WWTRIL5MKAR1UWRHK4IC9FJ","","341","img/flower4.png","76","342","3","1","3","1","1,0.333,0.333,0.333,1,0.333,0.333,0.333,1","1,0.333,0.333,0.333,1,0.333,0.333,0.333,1","1",""
"","html-keyboard-response","197","78195","0.0-197.0","3H8DHMCCWAX7Q1P9EK2VNJO3BL7KD9","A334VWE4QGAZFR","3L1EFR8WWTRIL5MKAR1UWRHK4IC9FJ","","null","<img src=""img/flower4.png"" style=""width:200px; border:14px solid green;"">","null","","","","","","","","",""
"","image-keyboard-response","198","78298","0.0-198.0","3H8DHMCCWAX7Q1P9EK2VNJO3BL7KD9","A334VWE4QGAZFR","3L1EFR8WWTRIL5MKAR1UWRHK4IC9FJ","","103","img/flower3.png","74","103","1","0","2","1","1,0.333,0.333,0.333,1,0.333,0.333,0.333,1","1,0.333,0.333,0.333,1,0.333,0.333,0.333,1","1",""
"","html-keyboard-response","199","78598","0.0-199.0","3H8DHMCCWAX7Q1P9EK2VNJO3BL7KD9","A334VWE4QGAZFR","3L1EFR8WWTRIL5MKAR1UWRHK4IC9FJ","","null","<img src=""img/flower3.png"" style=""width:200px;border:14px solid red;"">","null","","","","","","","","",""
"","image-keyboard-response","200","78607","0.0-200.0","3H8DHMCCWAX7Q1P9EK2VNJO3BL7KD9","A334VWE4QGAZFR","3L1EFR8WWTRIL5MKAR1UWRHK4IC9FJ","","8","img/flower5.png","74","9","1","1","1","1","1,0.333,0.333,0.333,1,0.333,0.333,0.333,1","1,0.333,0.333,0.333,1,0.333,0.333,0.333,1","1",""
"","html-keyboard-response","201","78908","0.0-201.0","3H8DHMCCWAX7Q1P9EK2VNJO3BL7KD9","A334VWE4QGAZFR","3L1EFR8WWTRIL5MKAR1UWRHK4IC9FJ","","null","<img src=""img/flower5.png"" style=""width:200px; border:14px solid green;"">","null","","","","","","","","",""
"","image-keyboard-response","202","78943","0.0-202.0","3H8DHMCCWAX7Q1P9EK2VNJO3BL7KD9","A334VWE4QGAZFR","3L1EFR8WWTRIL5MKAR1UWRHK4IC9FJ","","34","img/flower4.png","74","35","1","0","3","1","1,0.333,0.333,0.333,1,0.333,0.333,0.333,1","1,0.333,0.333,0.333,1,0.333,0.333,0.333,1","1",""
"","html-keyboard-response","203","79248","0.0-203.0","3H8DHMCCWAX7Q1P9EK2VNJO3BL7KD9","A334VWE4QGAZFR","3L1EFR8WWTRIL5MKAR1UWRHK4IC9FJ","","null","<img src=""img/flower4.png"" style=""width:200px;border:14px solid red;"">","null","","","","","","","","",""
"","image-keyboard-response","204","79282","0.0-204.0","3H8DHMCCWAX7Q1P9EK2VNJO3BL7KD9","A334VWE4QGAZFR","3L1EFR8WWTRIL5MKAR1UWRHK4IC9FJ","","33","img/flower4.png","74","34","1","0","3","1","1,0.333,0.333,0.333,1,0.333,0.333,0.333,1","1,0.333,0.333,0.333,1,0.333,0.333,0.333,1","1",""
"","html-keyboard-response","205","79582","0.0-205.0","3H8DHMCCWAX7Q1P9EK2VNJO3BL7KD9","A334VWE4QGAZFR","3L1EFR8WWTRIL5MKAR1UWRHK4IC9FJ","","null","<img src=""img/flower4.png"" style=""width:200px;border:14px solid red;"">","null","","","","","","","","",""
"","image-keyboard-response","206","79739","0.0-206.0","3H8DHMCCWAX7Q1P9EK2VNJO3BL7KD9","A334VWE4QGAZFR","3L1EFR8WWTRIL5MKAR1UWRHK4IC9FJ","","155","img/flower3.png","74","157","1","0","2","1","1,0.333,0.333,0.333,1,0.333,0.333,0.333,1","1,0.333,0.333,0.333,1,0.333,0.333,0.333,1","1",""
"","html-keyboard-response","207","80041","0.0-207.0","3H8DHMCCWAX7Q1P9EK2VNJO3BL7KD9","A334VWE4QGAZFR","3L1EFR8WWTRIL5MKAR1UWRHK4IC9FJ","","null","<img src=""img/flower3.png"" style=""width:200px;border:14px solid red;"">","null","","","","","","","","",""
"","image-keyboard-response","208","80098","0.0-208.0","3H8DHMCCWAX7Q1P9EK2VNJO3BL7KD9","A334VWE4QGAZFR","3L1EFR8WWTRIL5MKAR1UWRHK4IC9FJ","","56","img/flower5.png","74","57","1","1","1","1","1,0.333,0.333,0.333,1,0.333,0.333,0.333,1","1,0.333,0.333,0.333,1,0.333,0.333,0.333,1","1",""
"","html-keyboard-response","209","80399","0.0-209.0","3H8DHMCCWAX7Q1P9EK2VNJO3BL7KD9","A334VWE4QGAZFR","3L1EFR8WWTRIL5MKAR1UWRHK4IC9FJ","","null","<img src=""img/flower5.png"" style=""width:200px; border:14px solid green;"">","null","","","","","","","","",""
"","image-keyboard-response","210","80480","0.0-210.0","3H8DHMCCWAX7Q1P9EK2VNJO3BL7KD9","A334VWE4QGAZFR","3L1EFR8WWTRIL5MKAR1UWRHK4IC9FJ","","81","img/flower5.png","74","81","1","1","1","1","1,0.333,0.333,0.333,1,0.333,0.333,0.333,1","1,0.333,0.333,0.333,1,0.333,0.333,0.333,1","1",""
"","html-keyboard-response","211","80782","0.0-211.0","3H8DHMCCWAX7Q1P9EK2VNJO3BL7KD9","A334VWE4QGAZFR","3L1EFR8WWTRIL5MKAR1UWRHK4IC9FJ","","null","<img src=""img/flower5.png"" style=""width:200px; border:14px solid green;"">","null","","","","","","","","",""
"","image-keyboard-response","212","80961","0.0-212.0","3H8DHMCCWAX7Q1P9EK2VNJO3BL7KD9","A334VWE4QGAZFR","3L1EFR8WWTRIL5MKAR1UWRHK4IC9FJ","","179","img/flower4.png","76","179","3","1","3","1","1,0.333,0.333,0.333,1,0.333,0.333,0.333,1","1,0.333,0.333,0.333,1,0.333,0.333,0.333,1","1",""
"","html-keyboard-response","213","81262","0.0-213.0","3H8DHMCCWAX7Q1P9EK2VNJO3BL7KD9","A334VWE4QGAZFR","3L1EFR8WWTRIL5MKAR1UWRHK4IC9FJ","","null","<img src=""img/flower4.png"" style=""width:200px; border:14px solid green;"">","null","","","","","","","","",""
"","image-keyboard-response","214","81359","0.0-214.0","3H8DHMCCWAX7Q1P9EK2VNJO3BL7KD9","A334VWE4QGAZFR","3L1EFR8WWTRIL5MKAR1UWRHK4IC9FJ","","96","img/flower5.png","75","97","2","0","1","1","1,0.333,0.333,0.333,1,0.333,0.333,0.333,1","1,0.333,0.333,0.333,1,0.333,0.333,0.333,1","1",""
"","html-keyboard-response","215","81661","0.0-215.0","3H8DHMCCWAX7Q1P9EK2VNJO3BL7KD9","A334VWE4QGAZFR","3L1EFR8WWTRIL5MKAR1UWRHK4IC9FJ","","null","<img src=""img/flower5.png"" style=""width:200px;border:14px solid red;"">","null","","","","","","","","",""
"","image-keyboard-response","216","81826","0.0-216.0","3H8DHMCCWAX7Q1P9EK2VNJO3BL7KD9","A334VWE4QGAZFR","3L1EFR8WWTRIL5MKAR1UWRHK4IC9FJ","","164","img/flower4.png","76","165","3","1","3","1","1,0.333,0.333,0.333,1,0.333,0.333,0.333,1","1,0.333,0.333,0.333,1,0.333,0.333,0.333,1","1",""
"","html-keyboard-response","217","82128","0.0-217.0","3H8DHMCCWAX7Q1P9EK2VNJO3BL7KD9","A334VWE4QGAZFR","3L1EFR8WWTRIL5MKAR1UWRHK4IC9FJ","","null","<img src=""img/flower4.png"" style=""width:200px; border:14px solid green;"">","null","","","","","","","","",""
"","image-keyboard-response","218","82339","0.0-218.0","3H8DHMCCWAX7Q1P9EK2VNJO3BL7KD9","A334VWE4QGAZFR","3L1EFR8WWTRIL5MKAR1UWRHK4IC9FJ","","211","img/flower4.png","74","211","1","1","3","1","1,0.333,0.333,0.333,1,0.333,0.333,0.333,1","1,0.333,0.333,0.333,1,0.333,0.333,0.333,1","1",""
"","html-keyboard-response","219","82641","0.0-219.0","3H8DHMCCWAX7Q1P9EK2VNJO3BL7KD9","A334VWE4QGAZFR","3L1EFR8WWTRIL5MKAR1UWRHK4IC9FJ","","null","<img src=""img/flower4.png"" style=""width:200px; border:14px solid green;"">","null","","","","","","","","",""
"","image-keyboard-response","220","82806","0.0-220.0","3H8DHMCCWAX7Q1P9EK2VNJO3BL7KD9","A334VWE4QGAZFR","3L1EFR8WWTRIL5MKAR1UWRHK4IC9FJ","","164","img/flower4.png","74","165","1","1","3","1","1,0.333,0.333,0.333,1,0.333,0.333,0.333,1","1,0.333,0.333,0.333,1,0.333,0.333,0.333,1","1",""
"","html-keyboard-response","221","83107","0.0-221.0","3H8DHMCCWAX7Q1P9EK2VNJO3BL7KD9","A334VWE4QGAZFR","3L1EFR8WWTRIL5MKAR1UWRHK4IC9FJ","","null","<img src=""img/flower4.png"" style=""width:200px; border:14px solid green;"">","null","","","","","","","","",""
"","image-keyboard-response","222","83155","0.0-222.0","3H8DHMCCWAX7Q1P9EK2VNJO3BL7KD9","A334VWE4QGAZFR","3L1EFR8WWTRIL5MKAR1UWRHK4IC9FJ","","47","img/flower4.png","74","48","1","1","3","1","1,0.333,0.333,0.333,1,0.333,0.333,0.333,1","1,0.333,0.333,0.333,1,0.333,0.333,0.333,1","1",""
"","html-keyboard-response","223","83456","0.0-223.0","3H8DHMCCWAX7Q1P9EK2VNJO3BL7KD9","A334VWE4QGAZFR","3L1EFR8WWTRIL5MKAR1UWRHK4IC9FJ","","null","<img src=""img/flower4.png"" style=""width:200px; border:14px solid green;"">","null","","","","","","","","",""
"","image-keyboard-response","224","83530","0.0-224.0","3H8DHMCCWAX7Q1P9EK2VNJO3BL7KD9","A334VWE4QGAZFR","3L1EFR8WWTRIL5MKAR1UWRHK4IC9FJ","","72","img/flower3.png","74","74","1","1","2","1","1,0.333,0.333,0.333,1,0.333,0.333,0.333,1","1,0.333,0.333,0.333,1,0.333,0.333,0.333,1","1",""
"","html-keyboard-response","225","83831","0.0-225.0","3H8DHMCCWAX7Q1P9EK2VNJO3BL7KD9","A334VWE4QGAZFR","3L1EFR8WWTRIL5MKAR1UWRHK4IC9FJ","","null","<img src=""img/flower3.png"" style=""width:200px; border:14px solid green;"">","null","","","","","","","","",""
"","image-keyboard-response","226","84058","0.0-226.0","3H8DHMCCWAX7Q1P9EK2VNJO3BL7KD9","A334VWE4QGAZFR","3L1EFR8WWTRIL5MKAR1UWRHK4IC9FJ","","227","img/flower3.png","74","227","1","0","2","1","1,0.333,0.333,0.333,1,0.333,0.333,0.333,1","1,0.333,0.333,0.333,1,0.333,0.333,0.333,1","1",""
"","html-keyboard-response","227","84359","0.0-227.0","3H8DHMCCWAX7Q1P9EK2VNJO3BL7KD9","A334VWE4QGAZFR","3L1EFR8WWTRIL5MKAR1UWRHK4IC9FJ","","null","<img src=""img/flower3.png"" style=""width:200px;border:14px solid red;"">","null","","","","","","","","",""
"","image-keyboard-response","228","84474","0.0-228.0","3H8DHMCCWAX7Q1P9EK2VNJO3BL7KD9","A334VWE4QGAZFR","3L1EFR8WWTRIL5MKAR1UWRHK4IC9FJ","","114","img/flower3.png","74","115","1","0","2","1","1,0.333,0.333,0.333,1,0.333,0.333,0.333,1","1,0.333,0.333,0.333,1,0.333,0.333,0.333,1","1",""
"","html-keyboard-response","229","84776","0.0-229.0","3H8DHMCCWAX7Q1P9EK2VNJO3BL7KD9","A334VWE4QGAZFR","3L1EFR8WWTRIL5MKAR1UWRHK4IC9FJ","","null","<img src=""img/flower3.png"" style=""width:200px;border:14px solid red;"">","null","","","","","","","","",""
"","image-keyboard-response","230","84822","0.0-230.0","3H8DHMCCWAX7Q1P9EK2VNJO3BL7KD9","A334VWE4QGAZFR","3L1EFR8WWTRIL5MKAR1UWRHK4IC9FJ","","45","img/flower5.png","74","46","1","1","1","1","1,0.333,0.333,0.333,1,0.333,0.333,0.333,1","1,0.333,0.333,0.333,1,0.333,0.333,0.333,1","1",""
"","html-keyboard-response","231","85123","0.0-231.0","3H8DHMCCWAX7Q1P9EK2VNJO3BL7KD9","A334VWE4QGAZFR","3L1EFR8WWTRIL5MKAR1UWRHK4IC9FJ","","null","<img src=""img/flower5.png"" style=""width:200px; border:14px solid green;"">","null","","","","","","","","",""
"","image-keyboard-response","232","85248","0.0-232.0","3H8DHMCCWAX7Q1P9EK2VNJO3BL7KD9","A334VWE4QGAZFR","3L1EFR8WWTRIL5MKAR1UWRHK4IC9FJ","","124","img/flower3.png","74","125","1","0","2","1","1,0.333,0.333,0.333,1,0.333,0.333,0.333,1","1,0.333,0.333,0.333,1,0.333,0.333,0.333,1","1",""
"","html-keyboard-response","233","85549","0.0-233.0","3H8DHMCCWAX7Q1P9EK2VNJO3BL7KD9","A334VWE4QGAZFR","3L1EFR8WWTRIL5MKAR1UWRHK4IC9FJ","","null","<img src=""img/flower3.png"" style=""width:200px;border:14px solid red;"">","null","","","","","","","","",""
"","image-keyboard-response","234","85616","0.0-234.0","3H8DHMCCWAX7Q1P9EK2VNJO3BL7KD9","A334VWE4QGAZFR","3L1EFR8WWTRIL5MKAR1UWRHK4IC9FJ","","66","img/flower3.png","74","67","1","0","2","1","1,0.333,0.333,0.333,1,0.333,0.333,0.333,1","1,0.333,0.333,0.333,1,0.333,0.333,0.333,1","1",""
"","html-keyboard-response","235","85917","0.0-235.0","3H8DHMCCWAX7Q1P9EK2VNJO3BL7KD9","A334VWE4QGAZFR","3L1EFR8WWTRIL5MKAR1UWRHK4IC9FJ","","null","<img src=""img/flower3.png"" style=""width:200px;border:14px solid red;"">","null","","","","","","","","",""
"","image-keyboard-response","236","85982","0.0-236.0","3H8DHMCCWAX7Q1P9EK2VNJO3BL7KD9","A334VWE4QGAZFR","3L1EFR8WWTRIL5MKAR1UWRHK4IC9FJ","","64","img/flower3.png","74","65","1","0","2","1","1,0.333,0.333,0.333,1,0.333,0.333,0.333,1","1,0.333,0.333,0.333,1,0.333,0.333,0.333,1","1",""
"","html-keyboard-response","237","86284","0.0-237.0","3H8DHMCCWAX7Q1P9EK2VNJO3BL7KD9","A334VWE4QGAZFR","3L1EFR8WWTRIL5MKAR1UWRHK4IC9FJ","","null","<img src=""img/flower3.png"" style=""width:200px;border:14px solid red;"">","null","","","","","","","","",""
"","image-keyboard-response","238","86341","0.0-238.0","3H8DHMCCWAX7Q1P9EK2VNJO3BL7KD9","A334VWE4QGAZFR","3L1EFR8WWTRIL5MKAR1UWRHK4IC9FJ","","56","img/flower5.png","74","58","1","1","1","1","1,0.333,0.333,0.333,1,0.333,0.333,0.333,1","1,0.333,0.333,0.333,1,0.333,0.333,0.333,1","1",""
"","html-keyboard-response","239","86642","0.0-239.0","3H8DHMCCWAX7Q1P9EK2VNJO3BL7KD9","A334VWE4QGAZFR","3L1EFR8WWTRIL5MKAR1UWRHK4IC9FJ","","null","<img src=""img/flower5.png"" style=""width:200px; border:14px solid green;"">","null","","","","","","","","",""
"","image-keyboard-response","240","86669","0.0-240.0","3H8DHMCCWAX7Q1P9EK2VNJO3BL7KD9","A334VWE4QGAZFR","3L1EFR8WWTRIL5MKAR1UWRHK4IC9FJ","","26","img/flower4.png","74","27","1","1","3","1","1,0.333,0.333,0.333,1,0.333,0.333,0.333,1","1,0.333,0.333,0.333,1,0.333,0.333,0.333,1","1",""
"","html-keyboard-response","241","86969","0.0-241.0","3H8DHMCCWAX7Q1P9EK2VNJO3BL7KD9","A334VWE4QGAZFR","3L1EFR8WWTRIL5MKAR1UWRHK4IC9FJ","","null","<img src=""img/flower4.png"" style=""width:200px; border:14px solid green;"">","null","","","","","","","","",""
"","image-keyboard-response","242","87026","0.0-242.0","3H8DHMCCWAX7Q1P9EK2VNJO3BL7KD9","A334VWE4QGAZFR","3L1EFR8WWTRIL5MKAR1UWRHK4IC9FJ","","56","img/flower5.png","74","57","1","1","1","1","1,0.333,0.333,0.333,1,0.333,0.333,0.333,1","1,0.333,0.333,0.333,1,0.333,0.333,0.333,1","1",""
"","html-keyboard-response","243","87327","0.0-243.0","3H8DHMCCWAX7Q1P9EK2VNJO3BL7KD9","A334VWE4QGAZFR","3L1EFR8WWTRIL5MKAR1UWRHK4IC9FJ","","null","<img src=""img/flower5.png"" style=""width:200px; border:14px solid green;"">","null","","","","","","","","",""
"","image-keyboard-response","244","87403","0.0-244.0","3H8DHMCCWAX7Q1P9EK2VNJO3BL7KD9","A334VWE4QGAZFR","3L1EFR8WWTRIL5MKAR1UWRHK4IC9FJ","","76","img/flower4.png","74","76","1","0","3","1","1,0.333,0.333,0.333,1,0.333,0.333,0.333,1","1,0.333,0.333,0.333,1,0.333,0.333,0.333,1","1",""
"","html-keyboard-response","245","87704","0.0-245.0","3H8DHMCCWAX7Q1P9EK2VNJO3BL7KD9","A334VWE4QGAZFR","3L1EFR8WWTRIL5MKAR1UWRHK4IC9FJ","","null","<img src=""img/flower4.png"" style=""width:200px;border:14px solid red;"">","null","","","","","","","","",""
"","image-keyboard-response","246","87739","0.0-246.0","3H8DHMCCWAX7Q1P9EK2VNJO3BL7KD9","A334VWE4QGAZFR","3L1EFR8WWTRIL5MKAR1UWRHK4IC9FJ","","24","img/flower5.png","74","35","1","1","1","1","1,0.333,0.333,0.333,1,0.333,0.333,0.333,1","1,0.333,0.333,0.333,1,0.333,0.333,0.333,1","1",""
"","html-keyboard-response","247","88041","0.0-247.0","3H8DHMCCWAX7Q1P9EK2VNJO3BL7KD9","A334VWE4QGAZFR","3L1EFR8WWTRIL5MKAR1UWRHK4IC9FJ","","null","<img src=""img/flower5.png"" style=""width:200px; border:14px solid green;"">","null","","","","","","","","",""
"","image-keyboard-response","248","88236","0.0-248.0","3H8DHMCCWAX7Q1P9EK2VNJO3BL7KD9","A334VWE4QGAZFR","3L1EFR8WWTRIL5MKAR1UWRHK4IC9FJ","","195","img/flower5.png","75","195","2","0","1","1","1,0.333,0.333,0.333,1,0.333,0.333,0.333,1","1,0.333,0.333,0.333,1,0.333,0.333,0.333,1","1",""
"","html-keyboard-response","249","88538","0.0-249.0","3H8DHMCCWAX7Q1P9EK2VNJO3BL7KD9","A334VWE4QGAZFR","3L1EFR8WWTRIL5MKAR1UWRHK4IC9FJ","","null","<img src=""img/flower5.png"" style=""width:200px;border:14px solid red;"">","null","","","","","","","","",""
"","image-keyboard-response","250","88546","0.0-250.0","3H8DHMCCWAX7Q1P9EK2VNJO3BL7KD9","A334VWE4QGAZFR","3L1EFR8WWTRIL5MKAR1UWRHK4IC9FJ","","7","img/flower5.png","75","8","2","0","1","1","1,0.333,0.333,0.333,1,0.333,0.333,0.333,1","1,0.333,0.333,0.333,1,0.333,0.333,0.333,1","1",""
"","html-keyboard-response","251","88848","0.0-251.0","3H8DHMCCWAX7Q1P9EK2VNJO3BL7KD9","A334VWE4QGAZFR","3L1EFR8WWTRIL5MKAR1UWRHK4IC9FJ","","null","<img src=""img/flower5.png"" style=""width:200px;border:14px solid red;"">","null","","","","","","","","",""
"","image-keyboard-response","252","88942","0.0-252.0","3H8DHMCCWAX7Q1P9EK2VNJO3BL7KD9","A334VWE4QGAZFR","3L1EFR8WWTRIL5MKAR1UWRHK4IC9FJ","","94","img/flower5.png","75","94","2","0","1","1","1,0.333,0.333,0.333,1,0.333,0.333,0.333,1","1,0.333,0.333,0.333,1,0.333,0.333,0.333,1","1",""
"","html-keyboard-response","253","89244","0.0-253.0","3H8DHMCCWAX7Q1P9EK2VNJO3BL7KD9","A334VWE4QGAZFR","3L1EFR8WWTRIL5MKAR1UWRHK4IC9FJ","","null","<img src=""img/flower5.png"" style=""width:200px;border:14px solid red;"">","null","","","","","","","","",""
"","image-keyboard-response","254","89431","0.0-254.0","3H8DHMCCWAX7Q1P9EK2VNJO3BL7KD9","A334VWE4QGAZFR","3L1EFR8WWTRIL5MKAR1UWRHK4IC9FJ","","187","img/flower3.png","74","187","1","1","2","1","1,0.333,0.333,0.333,1,0.333,0.333,0.333,1","1,0.333,0.333,0.333,1,0.333,0.333,0.333,1","1",""
"","html-keyboard-response","255","89732","0.0-255.0","3H8DHMCCWAX7Q1P9EK2VNJO3BL7KD9","A334VWE4QGAZFR","3L1EFR8WWTRIL5MKAR1UWRHK4IC9FJ","","null","<img src=""img/flower3.png"" style=""width:200px; border:14px solid green;"">","null","","","","","","","","",""
"","image-keyboard-response","256","89959","0.0-256.0","3H8DHMCCWAX7Q1P9EK2VNJO3BL7KD9","A334VWE4QGAZFR","3L1EFR8WWTRIL5MKAR1UWRHK4IC9FJ","","226","img/flower4.png","74","227","1","1","3","1","1,0.333,0.333,0.333,1,0.333,0.333,0.333,1","1,0.333,0.333,0.333,1,0.333,0.333,0.333,1","1",""
"","html-keyboard-response","257","90261","0.0-257.0","3H8DHMCCWAX7Q1P9EK2VNJO3BL7KD9","A334VWE4QGAZFR","3L1EFR8WWTRIL5MKAR1UWRHK4IC9FJ","","null","<img src=""img/flower4.png"" style=""width:200px; border:14px solid green;"">","null","","","","","","","","",""
"","image-keyboard-response","258","90421","0.0-258.0","3H8DHMCCWAX7Q1P9EK2VNJO3BL7KD9","A334VWE4QGAZFR","3L1EFR8WWTRIL5MKAR1UWRHK4IC9FJ","","160","img/flower4.png","75","160","2","0","3","1","1,0.333,0.333,0.333,1,0.333,0.333,0.333,1","1,0.333,0.333,0.333,1,0.333,0.333,0.333,1","1",""
"","html-keyboard-response","259","90723","0.0-259.0","3H8DHMCCWAX7Q1P9EK2VNJO3BL7KD9","A334VWE4QGAZFR","3L1EFR8WWTRIL5MKAR1UWRHK4IC9FJ","","null","<img src=""img/flower4.png"" style=""width:200px;border:14px solid red;"">","null","","","","","","","","",""
"","image-keyboard-response","260","90897","0.0-260.0","3H8DHMCCWAX7Q1P9EK2VNJO3BL7KD9","A334VWE4QGAZFR","3L1EFR8WWTRIL5MKAR1UWRHK4IC9FJ","","174","img/flower5.png","74","174","1","1","1","1","1,0.333,0.333,0.333,1,0.333,0.333,0.333,1","1,0.333,0.333,0.333,1,0.333,0.333,0.333,1","1",""
"","html-keyboard-response","261","91199","0.0-261.0","3H8DHMCCWAX7Q1P9EK2VNJO3BL7KD9","A334VWE4QGAZFR","3L1EFR8WWTRIL5MKAR1UWRHK4IC9FJ","","null","<img src=""img/flower5.png"" style=""width:200px; border:14px solid green;"">","null","","","","","","","","",""
"","image-keyboard-response","262","91374","0.0-262.0","3H8DHMCCWAX7Q1P9EK2VNJO3BL7KD9","A334VWE4QGAZFR","3L1EFR8WWTRIL5MKAR1UWRHK4IC9FJ","","174","img/flower4.png","74","175","1","0","3","1","1,0.333,0.333,0.333,1,0.333,0.333,0.333,1","1,0.333,0.333,0.333,1,0.333,0.333,0.333,1","1",""
"","html-keyboard-response","263","91675","0.0-263.0","3H8DHMCCWAX7Q1P9EK2VNJO3BL7KD9","A334VWE4QGAZFR","3L1EFR8WWTRIL5MKAR1UWRHK4IC9FJ","","null","<img src=""img/flower4.png"" style=""width:200px;border:14px solid red;"">","null","","","","","","","","",""
"","image-keyboard-response","264","91692","0.0-264.0","3H8DHMCCWAX7Q1P9EK2VNJO3BL7KD9","A334VWE4QGAZFR","3L1EFR8WWTRIL5MKAR1UWRHK4IC9FJ","","15","img/flower3.png","74","17","1","0","2","1","1,0.333,0.333,0.333,1,0.333,0.333,0.333,1","1,0.333,0.333,0.333,1,0.333,0.333,0.333,1","1",""
"","html-keyboard-response","265","92009","0.0-265.0","3H8DHMCCWAX7Q1P9EK2VNJO3BL7KD9","A334VWE4QGAZFR","3L1EFR8WWTRIL5MKAR1UWRHK4IC9FJ","","null","<img src=""img/flower3.png"" style=""width:200px;border:14px solid red;"">","null","","","","","","","","",""
"","image-keyboard-response","266","92038","0.0-266.0","3H8DHMCCWAX7Q1P9EK2VNJO3BL7KD9","A334VWE4QGAZFR","3L1EFR8WWTRIL5MKAR1UWRHK4IC9FJ","","15","img/flower5.png","75","18","2","0","1","1","1,0.333,0.333,0.333,1,0.333,0.333,0.333,1","1,0.333,0.333,0.333,1,0.333,0.333,0.333,1","1",""
"","html-keyboard-response","267","92339","0.0-267.0","3H8DHMCCWAX7Q1P9EK2VNJO3BL7KD9","A334VWE4QGAZFR","3L1EFR8WWTRIL5MKAR1UWRHK4IC9FJ","","null","<img src=""img/flower5.png"" style=""width:200px;border:14px solid red;"">","null","","","","","","","","",""
"","image-keyboard-response","268","92376","0.0-268.0","3H8DHMCCWAX7Q1P9EK2VNJO3BL7KD9","A334VWE4QGAZFR","3L1EFR8WWTRIL5MKAR1UWRHK4IC9FJ","","37","img/flower5.png","75","37","2","1","1","1","1,0.333,0.333,0.333,1,0.333,0.333,0.333,1","1,0.333,0.333,0.333,1,0.333,0.333,0.333,1","1",""
"","html-keyboard-response","269","92678","0.0-269.0","3H8DHMCCWAX7Q1P9EK2VNJO3BL7KD9","A334VWE4QGAZFR","3L1EFR8WWTRIL5MKAR1UWRHK4IC9FJ","","null","<img src=""img/flower5.png"" style=""width:200px; border:14px solid green;"">","null","","","","","","","","",""
"","image-keyboard-response","270","92926","0.0-270.0","3H8DHMCCWAX7Q1P9EK2VNJO3BL7KD9","A334VWE4QGAZFR","3L1EFR8WWTRIL5MKAR1UWRHK4IC9FJ","","248","img/flower3.png","74","248","1","1","2","1","1,0.333,0.333,0.333,1,0.333,0.333,0.333,1","1,0.333,0.333,0.333,1,0.333,0.333,0.333,1","1",""
"","html-keyboard-response","271","93228","0.0-271.0","3H8DHMCCWAX7Q1P9EK2VNJO3BL7KD9","A334VWE4QGAZFR","3L1EFR8WWTRIL5MKAR1UWRHK4IC9FJ","","null","<img src=""img/flower3.png"" style=""width:200px; border:14px solid green;"">","null","","","","","","","","",""
"","image-keyboard-response","272","93255","0.0-272.0","3H8DHMCCWAX7Q1P9EK2VNJO3BL7KD9","A334VWE4QGAZFR","3L1EFR8WWTRIL5MKAR1UWRHK4IC9FJ","","27","img/flower4.png","74","27","1","0","3","1","1,0.333,0.333,0.333,1,0.333,0.333,0.333,1","1,0.333,0.333,0.333,1,0.333,0.333,0.333,1","1",""
"","html-keyboard-response","273","93557","0.0-273.0","3H8DHMCCWAX7Q1P9EK2VNJO3BL7KD9","A334VWE4QGAZFR","3L1EFR8WWTRIL5MKAR1UWRHK4IC9FJ","","null","<img src=""img/flower4.png"" style=""width:200px;border:14px solid red;"">","null","","","","","","","","",""
"","image-keyboard-response","274","93565","0.0-274.0","3H8DHMCCWAX7Q1P9EK2VNJO3BL7KD9","A334VWE4QGAZFR","3L1EFR8WWTRIL5MKAR1UWRHK4IC9FJ","","7","img/flower5.png","74","8","1","1","1","1","1,0.333,0.333,0.333,1,0.333,0.333,0.333,1","1,0.333,0.333,0.333,1,0.333,0.333,0.333,1","1",""
"","html-keyboard-response","275","93885","0.0-275.0","3H8DHMCCWAX7Q1P9EK2VNJO3BL7KD9","A334VWE4QGAZFR","3L1EFR8WWTRIL5MKAR1UWRHK4IC9FJ","","null","<img src=""img/flower5.png"" style=""width:200px; border:14px solid green;"">","null","","","","","","","","",""
"","image-keyboard-response","276","94073","0.0-276.0","3H8DHMCCWAX7Q1P9EK2VNJO3BL7KD9","A334VWE4QGAZFR","3L1EFR8WWTRIL5MKAR1UWRHK4IC9FJ","","182","img/flower5.png","75","183","2","0","1","1","1,0.333,0.333,0.333,1,0.333,0.333,0.333,1","1,0.333,0.333,0.333,1,0.333,0.333,0.333,1","1",""
"","html-keyboard-response","277","94374","0.0-277.0","3H8DHMCCWAX7Q1P9EK2VNJO3BL7KD9","A334VWE4QGAZFR","3L1EFR8WWTRIL5MKAR1UWRHK4IC9FJ","","null","<img src=""img/flower5.png"" style=""width:200px;border:14px solid red;"">","null","","","","","","","","",""
"","image-keyboard-response","278","94571","0.0-278.0","3H8DHMCCWAX7Q1P9EK2VNJO3BL7KD9","A334VWE4QGAZFR","3L1EFR8WWTRIL5MKAR1UWRHK4IC9FJ","","197","img/flower3.png","75","197","2","1","2","1","1,0.333,0.333,0.333,1,0.333,0.333,0.333,1","1,0.333,0.333,0.333,1,0.333,0.333,0.333,1","1",""
"","html-keyboard-response","279","94872","0.0-279.0","3H8DHMCCWAX7Q1P9EK2VNJO3BL7KD9","A334VWE4QGAZFR","3L1EFR8WWTRIL5MKAR1UWRHK4IC9FJ","","null","<img src=""img/flower3.png"" style=""width:200px; border:14px solid green;"">","null","","","","","","","","",""
"","image-keyboard-response","280","95007","0.0-280.0","3H8DHMCCWAX7Q1P9EK2VNJO3BL7KD9","A334VWE4QGAZFR","3L1EFR8WWTRIL5MKAR1UWRHK4IC9FJ","","135","img/flower5.png","74","135","1","1","1","1","1,0.333,0.333,0.333,1,0.333,0.333,0.333,1","1,0.333,0.333,0.333,1,0.333,0.333,0.333,1","1",""
"","html-keyboard-response","281","95308","0.0-281.0","3H8DHMCCWAX7Q1P9EK2VNJO3BL7KD9","A334VWE4QGAZFR","3L1EFR8WWTRIL5MKAR1UWRHK4IC9FJ","","null","<img src=""img/flower5.png"" style=""width:200px; border:14px solid green;"">","null","","","","","","","","",""
"","image-keyboard-response","282","95464","0.0-282.0","3H8DHMCCWAX7Q1P9EK2VNJO3BL7KD9","A334VWE4QGAZFR","3L1EFR8WWTRIL5MKAR1UWRHK4IC9FJ","","155","img/flower4.png","74","156","1","1","3","1","1,0.333,0.333,0.333,1,0.333,0.333,0.333,1","1,0.333,0.333,0.333,1,0.333,0.333,0.333,1","1",""
"","html-keyboard-response","283","95764","0.0-283.0","3H8DHMCCWAX7Q1P9EK2VNJO3BL7KD9","A334VWE4QGAZFR","3L1EFR8WWTRIL5MKAR1UWRHK4IC9FJ","","null","<img src=""img/flower4.png"" style=""width:200px; border:14px solid green;"">","null","","","","","","","","",""
"","image-keyboard-response","284","96020","0.0-284.0","3H8DHMCCWAX7Q1P9EK2VNJO3BL7KD9","A334VWE4QGAZFR","3L1EFR8WWTRIL5MKAR1UWRHK4IC9FJ","","255","img/flower3.png","75","256","2","1","2","1","1,0.333,0.333,0.333,1,0.333,0.333,0.333,1","1,0.333,0.333,0.333,1,0.333,0.333,0.333,1","1",""
"","html-keyboard-response","285","96322","0.0-285.0","3H8DHMCCWAX7Q1P9EK2VNJO3BL7KD9","A334VWE4QGAZFR","3L1EFR8WWTRIL5MKAR1UWRHK4IC9FJ","","null","<img src=""img/flower3.png"" style=""width:200px; border:14px solid green;"">","null","","","","","","","","",""
"","image-keyboard-response","286","96487","0.0-286.0","3H8DHMCCWAX7Q1P9EK2VNJO3BL7KD9","A334VWE4QGAZFR","3L1EFR8WWTRIL5MKAR1UWRHK4IC9FJ","","165","img/flower3.png","75","165","2","1","2","1","1,0.333,0.333,0.333,1,0.333,0.333,0.333,1","1,0.333,0.333,0.333,1,0.333,0.333,0.333,1","1",""
"","html-keyboard-response","287","96789","0.0-287.0","3H8DHMCCWAX7Q1P9EK2VNJO3BL7KD9","A334VWE4QGAZFR","3L1EFR8WWTRIL5MKAR1UWRHK4IC9FJ","","null","<img src=""img/flower3.png"" style=""width:200px; border:14px solid green;"">","null","","","","","","","","",""
"","image-keyboard-response","288","96955","0.0-288.0","3H8DHMCCWAX7Q1P9EK2VNJO3BL7KD9","A334VWE4QGAZFR","3L1EFR8WWTRIL5MKAR1UWRHK4IC9FJ","","166","img/flower3.png","74","166","1","0","2","1","1,0.333,0.333,0.333,1,0.333,0.333,0.333,1","1,0.333,0.333,0.333,1,0.333,0.333,0.333,1","1",""
"","html-keyboard-response","289","97257","0.0-289.0","3H8DHMCCWAX7Q1P9EK2VNJO3BL7KD9","A334VWE4QGAZFR","3L1EFR8WWTRIL5MKAR1UWRHK4IC9FJ","","null","<img src=""img/flower3.png"" style=""width:200px;border:14px solid red;"">","null","","","","","","","","",""
"","image-keyboard-response","290","97409","0.0-290.0","3H8DHMCCWAX7Q1P9EK2VNJO3BL7KD9","A334VWE4QGAZFR","3L1EFR8WWTRIL5MKAR1UWRHK4IC9FJ","","152","img/flower3.png","74","152","1","1","2","1","1,0.333,0.333,0.333,1,0.333,0.333,0.333,1","1,0.333,0.333,0.333,1,0.333,0.333,0.333,1","1",""
"","html-keyboard-response","291","97711","0.0-291.0","3H8DHMCCWAX7Q1P9EK2VNJO3BL7KD9","A334VWE4QGAZFR","3L1EFR8WWTRIL5MKAR1UWRHK4IC9FJ","","null","<img src=""img/flower3.png"" style=""width:200px; border:14px solid green;"">","null","","","","","","","","",""
"","image-keyboard-response","292","97906","0.0-292.0","3H8DHMCCWAX7Q1P9EK2VNJO3BL7KD9","A334VWE4QGAZFR","3L1EFR8WWTRIL5MKAR1UWRHK4IC9FJ","","194","img/flower4.png","75","195","2","1","3","1","1,0.333,0.333,0.333,1,0.333,0.333,0.333,1","1,0.333,0.333,0.333,1,0.333,0.333,0.333,1","1",""
"","html-keyboard-response","293","98206","0.0-293.0","3H8DHMCCWAX7Q1P9EK2VNJO3BL7KD9","A334VWE4QGAZFR","3L1EFR8WWTRIL5MKAR1UWRHK4IC9FJ","","null","<img src=""img/flower4.png"" style=""width:200px; border:14px solid green;"">","null","","","","","","","","",""
"","image-keyboard-response","294","98402","0.0-294.0","3H8DHMCCWAX7Q1P9EK2VNJO3BL7KD9","A334VWE4QGAZFR","3L1EFR8WWTRIL5MKAR1UWRHK4IC9FJ","","195","img/flower5.png","75","196","2","1","1","1","1,0.333,0.333,0.333,1,0.333,0.333,0.333,1","1,0.333,0.333,0.333,1,0.333,0.333,0.333,1","1",""
"","html-keyboard-response","295","98702","0.0-295.0","3H8DHMCCWAX7Q1P9EK2VNJO3BL7KD9","A334VWE4QGAZFR","3L1EFR8WWTRIL5MKAR1UWRHK4IC9FJ","","null","<img src=""img/flower5.png"" style=""width:200px; border:14px solid green;"">","null","","","","","","","","",""
"","image-keyboard-response","296","98849","0.0-296.0","3H8DHMCCWAX7Q1P9EK2VNJO3BL7KD9","A334VWE4QGAZFR","3L1EFR8WWTRIL5MKAR1UWRHK4IC9FJ","","146","img/flower5.png","74","147","1","1","1","1","1,0.333,0.333,0.333,1,0.333,0.333,0.333,1","1,0.333,0.333,0.333,1,0.333,0.333,0.333,1","1",""
"","html-keyboard-response","297","99150","0.0-297.0","3H8DHMCCWAX7Q1P9EK2VNJO3BL7KD9","A334VWE4QGAZFR","3L1EFR8WWTRIL5MKAR1UWRHK4IC9FJ","","null","<img src=""img/flower5.png"" style=""width:200px; border:14px solid green;"">","null","","","","","","","","",""
"","image-keyboard-response","298","99226","0.0-298.0","3H8DHMCCWAX7Q1P9EK2VNJO3BL7KD9","A334VWE4QGAZFR","3L1EFR8WWTRIL5MKAR1UWRHK4IC9FJ","","75","img/flower3.png","74","76","1","0","2","1","1,0.333,0.333,0.333,1,0.333,0.333,0.333,1","1,0.333,0.333,0.333,1,0.333,0.333,0.333,1","1",""
"","html-keyboard-response","299","99528","0.0-299.0","3H8DHMCCWAX7Q1P9EK2VNJO3BL7KD9","A334VWE4QGAZFR","3L1EFR8WWTRIL5MKAR1UWRHK4IC9FJ","","null","<img src=""img/flower3.png"" style=""width:200px;border:14px solid red;"">","null","","","","","","","","",""
"","image-keyboard-response","300","99574","0.0-300.0","3H8DHMCCWAX7Q1P9EK2VNJO3BL7KD9","A334VWE4QGAZFR","3L1EFR8WWTRIL5MKAR1UWRHK4IC9FJ","","45","img/flower3.png","74","46","1","1","2","1","1,0.333,0.333,0.333,1,0.333,0.333,0.333,1","1,0.333,0.333,0.333,1,0.333,0.333,0.333,1","1",""
"","html-keyboard-response","301","99876","0.0-301.0","3H8DHMCCWAX7Q1P9EK2VNJO3BL7KD9","A334VWE4QGAZFR","3L1EFR8WWTRIL5MKAR1UWRHK4IC9FJ","","null","<img src=""img/flower3.png"" style=""width:200px; border:14px solid green;"">","null","","","","","","","","",""
"","image-keyboard-response","302","99932","0.0-302.0","3H8DHMCCWAX7Q1P9EK2VNJO3BL7KD9","A334VWE4QGAZFR","3L1EFR8WWTRIL5MKAR1UWRHK4IC9FJ","","55","img/flower3.png","74","56","1","0","2","1","1,0.333,0.333,0.333,1,0.333,0.333,0.333,1","1,0.333,0.333,0.333,1,0.333,0.333,0.333,1","1",""
"","html-keyboard-response","303","100234","0.0-303.0","3H8DHMCCWAX7Q1P9EK2VNJO3BL7KD9","A334VWE4QGAZFR","3L1EFR8WWTRIL5MKAR1UWRHK4IC9FJ","","null","<img src=""img/flower3.png"" style=""width:200px;border:14px solid red;"">","null","","","","","","","","",""
"","image-keyboard-response","304","100298","0.0-304.0","3H8DHMCCWAX7Q1P9EK2VNJO3BL7KD9","A334VWE4QGAZFR","3L1EFR8WWTRIL5MKAR1UWRHK4IC9FJ","","63","img/flower5.png","74","64","1","1","1","1","1,0.333,0.333,0.333,1,0.333,0.333,0.333,1","1,0.333,0.333,0.333,1,0.333,0.333,0.333,1","1",""
"","html-keyboard-response","305","100599","0.0-305.0","3H8DHMCCWAX7Q1P9EK2VNJO3BL7KD9","A334VWE4QGAZFR","3L1EFR8WWTRIL5MKAR1UWRHK4IC9FJ","","null","<img src=""img/flower5.png"" style=""width:200px; border:14px solid green;"">","null","","","","","","","","",""
"","image-keyboard-response","306","100689","0.0-306.0","3H8DHMCCWAX7Q1P9EK2VNJO3BL7KD9","A334VWE4QGAZFR","3L1EFR8WWTRIL5MKAR1UWRHK4IC9FJ","","89","img/flower4.png","74","90","1","0","3","1","1,0.333,0.333,0.333,1,0.333,0.333,0.333,1","1,0.333,0.333,0.333,1,0.333,0.333,0.333,1","1",""
"","html-keyboard-response","307","100993","0.0-307.0","3H8DHMCCWAX7Q1P9EK2VNJO3BL7KD9","A334VWE4QGAZFR","3L1EFR8WWTRIL5MKAR1UWRHK4IC9FJ","","null","<img src=""img/flower4.png"" style=""width:200px;border:14px solid red;"">","null","","","","","","","","",""
"","image-keyboard-response","308","101023","0.0-308.0","3H8DHMCCWAX7Q1P9EK2VNJO3BL7KD9","A334VWE4QGAZFR","3L1EFR8WWTRIL5MKAR1UWRHK4IC9FJ","","29","img/flower4.png","74","30","1","0","3","1","1,0.333,0.333,0.333,1,0.333,0.333,0.333,1","1,0.333,0.333,0.333,1,0.333,0.333,0.333,1","1",""
"","html-keyboard-response","309","101325","0.0-309.0","3H8DHMCCWAX7Q1P9EK2VNJO3BL7KD9","A334VWE4QGAZFR","3L1EFR8WWTRIL5MKAR1UWRHK4IC9FJ","","null","<img src=""img/flower4.png"" style=""width:200px;border:14px solid red;"">","null","","","","","","","","",""
"","image-keyboard-response","310","101390","0.0-310.0","3H8DHMCCWAX7Q1P9EK2VNJO3BL7KD9","A334VWE4QGAZFR","3L1EFR8WWTRIL5MKAR1UWRHK4IC9FJ","","64","img/flower5.png","74","65","1","1","1","1","1,0.333,0.333,0.333,1,0.333,0.333,0.333,1","1,0.333,0.333,0.333,1,0.333,0.333,0.333,1","1",""
"","html-keyboard-response","311","101691","0.0-311.0","3H8DHMCCWAX7Q1P9EK2VNJO3BL7KD9","A334VWE4QGAZFR","3L1EFR8WWTRIL5MKAR1UWRHK4IC9FJ","","null","<img src=""img/flower5.png"" style=""width:200px; border:14px solid green;"">","null","","","","","","","","",""
"","image-keyboard-response","312","101728","0.0-312.0","3H8DHMCCWAX7Q1P9EK2VNJO3BL7KD9","A334VWE4QGAZFR","3L1EFR8WWTRIL5MKAR1UWRHK4IC9FJ","","37","img/flower3.png","74","37","1","1","2","1","1,0.333,0.333,0.333,1,0.333,0.333,0.333,1","1,0.333,0.333,0.333,1,0.333,0.333,0.333,1","1",""
"","html-keyboard-response","313","102035","0.0-313.0","3H8DHMCCWAX7Q1P9EK2VNJO3BL7KD9","A334VWE4QGAZFR","3L1EFR8WWTRIL5MKAR1UWRHK4IC9FJ","","null","<img src=""img/flower3.png"" style=""width:200px; border:14px solid green;"">","null","","","","","","","","",""
"","image-keyboard-response","314","102155","0.0-314.0","3H8DHMCCWAX7Q1P9EK2VNJO3BL7KD9","A334VWE4QGAZFR","3L1EFR8WWTRIL5MKAR1UWRHK4IC9FJ","","119","img/flower5.png","74","120","1","1","1","1","1,0.333,0.333,0.333,1,0.333,0.333,0.333,1","1,0.333,0.333,0.333,1,0.333,0.333,0.333,1","1",""
"","html-keyboard-response","315","102456","0.0-315.0","3H8DHMCCWAX7Q1P9EK2VNJO3BL7KD9","A334VWE4QGAZFR","3L1EFR8WWTRIL5MKAR1UWRHK4IC9FJ","","null","<img src=""img/flower5.png"" style=""width:200px; border:14px solid green;"">","null","","","","","","","","",""
"","image-keyboard-response","316","102573","0.0-316.0","3H8DHMCCWAX7Q1P9EK2VNJO3BL7KD9","A334VWE4QGAZFR","3L1EFR8WWTRIL5MKAR1UWRHK4IC9FJ","","115","img/flower3.png","74","117","1","0","2","1","1,0.333,0.333,0.333,1,0.333,0.333,0.333,1","1,0.333,0.333,0.333,1,0.333,0.333,0.333,1","1",""
"","html-keyboard-response","317","102874","0.0-317.0","3H8DHMCCWAX7Q1P9EK2VNJO3BL7KD9","A334VWE4QGAZFR","3L1EFR8WWTRIL5MKAR1UWRHK4IC9FJ","","null","<img src=""img/flower3.png"" style=""width:200px;border:14px solid red;"">","null","","","","","","","","",""
"","image-keyboard-response","318","102948","0.0-318.0","3H8DHMCCWAX7Q1P9EK2VNJO3BL7KD9","A334VWE4QGAZFR","3L1EFR8WWTRIL5MKAR1UWRHK4IC9FJ","","74","img/flower4.png","74","74","1","1","3","1","1,0.333,0.333,0.333,1,0.333,0.333,0.333,1","1,0.333,0.333,0.333,1,0.333,0.333,0.333,1","1",""
"","html-keyboard-response","319","103279","0.0-319.0","3H8DHMCCWAX7Q1P9EK2VNJO3BL7KD9","A334VWE4QGAZFR","3L1EFR8WWTRIL5MKAR1UWRHK4IC9FJ","","null","<img src=""img/flower4.png"" style=""width:200px; border:14px solid green;"">","null","","","","","","","","",""
"","image-keyboard-response","320","103296","0.0-320.0","3H8DHMCCWAX7Q1P9EK2VNJO3BL7KD9","A334VWE4QGAZFR","3L1EFR8WWTRIL5MKAR1UWRHK4IC9FJ","","17","img/flower3.png","74","17","1","1","2","1","1,0.333,0.333,0.333,1,0.333,0.333,0.333,1","1,0.333,0.333,0.333,1,0.333,0.333,0.333,1","1",""
"","html-keyboard-response","321","103599","0.0-321.0","3H8DHMCCWAX7Q1P9EK2VNJO3BL7KD9","A334VWE4QGAZFR","3L1EFR8WWTRIL5MKAR1UWRHK4IC9FJ","","null","<img src=""img/flower3.png"" style=""width:200px; border:14px solid green;"">","null","","","","","","","","",""
"","image-keyboard-response","322","103645","0.0-322.0","3H8DHMCCWAX7Q1P9EK2VNJO3BL7KD9","A334VWE4QGAZFR","3L1EFR8WWTRIL5MKAR1UWRHK4IC9FJ","","45","img/flower3.png","74","46","1","0","2","1","1,0.333,0.333,0.333,1,0.333,0.333,0.333,1","1,0.333,0.333,0.333,1,0.333,0.333,0.333,1","1",""
"","html-keyboard-response","323","103946","0.0-323.0","3H8DHMCCWAX7Q1P9EK2VNJO3BL7KD9","A334VWE4QGAZFR","3L1EFR8WWTRIL5MKAR1UWRHK4IC9FJ","","null","<img src=""img/flower3.png"" style=""width:200px;border:14px solid red;"">","null","","","","","","","","",""
"","image-keyboard-response","324","104032","0.0-324.0","3H8DHMCCWAX7Q1P9EK2VNJO3BL7KD9","A334VWE4QGAZFR","3L1EFR8WWTRIL5MKAR1UWRHK4IC9FJ","","85","img/flower4.png","74","86","1","0","3","1","1,0.333,0.333,0.333,1,0.333,0.333,0.333,1","1,0.333,0.333,0.333,1,0.333,0.333,0.333,1","1",""
"","html-keyboard-response","325","104356","0.0-325.0","3H8DHMCCWAX7Q1P9EK2VNJO3BL7KD9","A334VWE4QGAZFR","3L1EFR8WWTRIL5MKAR1UWRHK4IC9FJ","","null","<img src=""img/flower4.png"" style=""width:200px;border:14px solid red;"">","null","","","","","","","","",""
"","image-keyboard-response","326","104436","0.0-326.0","3H8DHMCCWAX7Q1P9EK2VNJO3BL7KD9","A334VWE4QGAZFR","3L1EFR8WWTRIL5MKAR1UWRHK4IC9FJ","","80","img/flower5.png","74","80","1","1","1","1","1,0.333,0.333,0.333,1,0.333,0.333,0.333,1","1,0.333,0.333,0.333,1,0.333,0.333,0.333,1","1",""
"","html-keyboard-response","327","104736","0.0-327.0","3H8DHMCCWAX7Q1P9EK2VNJO3BL7KD9","A334VWE4QGAZFR","3L1EFR8WWTRIL5MKAR1UWRHK4IC9FJ","","null","<img src=""img/flower5.png"" style=""width:200px; border:14px solid green;"">","null","","","","","","","","",""
"","image-keyboard-response","328","104786","0.0-328.0","3H8DHMCCWAX7Q1P9EK2VNJO3BL7KD9","A334VWE4QGAZFR","3L1EFR8WWTRIL5MKAR1UWRHK4IC9FJ","","49","img/flower5.png","74","50","1","1","1","1","1,0.333,0.333,0.333,1,0.333,0.333,0.333,1","1,0.333,0.333,0.333,1,0.333,0.333,0.333,1","1",""
"","html-keyboard-response","329","105088","0.0-329.0","3H8DHMCCWAX7Q1P9EK2VNJO3BL7KD9","A334VWE4QGAZFR","3L1EFR8WWTRIL5MKAR1UWRHK4IC9FJ","","null","<img src=""img/flower5.png"" style=""width:200px; border:14px solid green;"">","null","","","","","","","","",""
"","image-keyboard-response","330","105173","0.0-330.0","3H8DHMCCWAX7Q1P9EK2VNJO3BL7KD9","A334VWE4QGAZFR","3L1EFR8WWTRIL5MKAR1UWRHK4IC9FJ","","85","img/flower3.png","74","85","1","0","2","1","1,0.333,0.333,0.333,1,0.333,0.333,0.333,1","1,0.333,0.333,0.333,1,0.333,0.333,0.333,1","1",""
"","html-keyboard-response","331","105474","0.0-331.0","3H8DHMCCWAX7Q1P9EK2VNJO3BL7KD9","A334VWE4QGAZFR","3L1EFR8WWTRIL5MKAR1UWRHK4IC9FJ","","null","<img src=""img/flower3.png"" style=""width:200px;border:14px solid red;"">","null","","","","","","","","",""
"","image-keyboard-response","332","105653","0.0-332.0","3H8DHMCCWAX7Q1P9EK2VNJO3BL7KD9","A334VWE4QGAZFR","3L1EFR8WWTRIL5MKAR1UWRHK4IC9FJ","","179","img/flower5.png","74","179","1","1","1","1","1,0.333,0.333,0.333,1,0.333,0.333,0.333,1","1,0.333,0.333,0.333,1,0.333,0.333,0.333,1","1",""
"","html-keyboard-response","333","105953","0.0-333.0","3H8DHMCCWAX7Q1P9EK2VNJO3BL7KD9","A334VWE4QGAZFR","3L1EFR8WWTRIL5MKAR1UWRHK4IC9FJ","","null","<img src=""img/flower5.png"" style=""width:200px; border:14px solid green;"">","null","","","","","","","","",""
"","image-keyboard-response","334","105960","0.0-334.0","3H8DHMCCWAX7Q1P9EK2VNJO3BL7KD9","A334VWE4QGAZFR","3L1EFR8WWTRIL5MKAR1UWRHK4IC9FJ","","6","img/flower4.png","75","7","2","0","3","1","1,0.333,0.333,0.333,1,0.333,0.333,0.333,1","1,0.333,0.333,0.333,1,0.333,0.333,0.333,1","1",""
"","html-keyboard-response","335","106262","0.0-335.0","3H8DHMCCWAX7Q1P9EK2VNJO3BL7KD9","A334VWE4QGAZFR","3L1EFR8WWTRIL5MKAR1UWRHK4IC9FJ","","null","<img src=""img/flower4.png"" style=""width:200px;border:14px solid red;"">","null","","","","","","","","",""
"","image-keyboard-response","336","106276","0.0-336.0","3H8DHMCCWAX7Q1P9EK2VNJO3BL7KD9","A334VWE4QGAZFR","3L1EFR8WWTRIL5MKAR1UWRHK4IC9FJ","","14","img/flower3.png","76","14","3","0","2","1","1,0.333,0.333,0.333,1,0.333,0.333,0.333,1","1,0.333,0.333,0.333,1,0.333,0.333,0.333,1","1",""
"","html-keyboard-response","337","106577","0.0-337.0","3H8DHMCCWAX7Q1P9EK2VNJO3BL7KD9","A334VWE4QGAZFR","3L1EFR8WWTRIL5MKAR1UWRHK4IC9FJ","","null","<img src=""img/flower3.png"" style=""width:200px;border:14px solid red;"">","null","","","","","","","","",""
"","image-keyboard-response","338","106625","0.0-338.0","3H8DHMCCWAX7Q1P9EK2VNJO3BL7KD9","A334VWE4QGAZFR","3L1EFR8WWTRIL5MKAR1UWRHK4IC9FJ","","46","img/flower4.png","74","47","1","0","3","1","1,0.333,0.333,0.333,1,0.333,0.333,0.333,1","1,0.333,0.333,0.333,1,0.333,0.333,0.333,1","1",""
"","html-keyboard-response","339","106926","0.0-339.0","3H8DHMCCWAX7Q1P9EK2VNJO3BL7KD9","A334VWE4QGAZFR","3L1EFR8WWTRIL5MKAR1UWRHK4IC9FJ","","null","<img src=""img/flower4.png"" style=""width:200px;border:14px solid red;"">","null","","","","","","","","",""
"","image-keyboard-response","340","107029","0.0-340.0","3H8DHMCCWAX7Q1P9EK2VNJO3BL7KD9","A334VWE4QGAZFR","3L1EFR8WWTRIL5MKAR1UWRHK4IC9FJ","","103","img/flower3.png","74","103","1","0","2","1","1,0.333,0.333,0.333,1,0.333,0.333,0.333,1","1,0.333,0.333,0.333,1,0.333,0.333,0.333,1","1",""
"","html-keyboard-response","341","107330","0.0-341.0","3H8DHMCCWAX7Q1P9EK2VNJO3BL7KD9","A334VWE4QGAZFR","3L1EFR8WWTRIL5MKAR1UWRHK4IC9FJ","","null","<img src=""img/flower3.png"" style=""width:200px;border:14px solid red;"">","null","","","","","","","","",""
"","image-keyboard-response","342","107457","0.0-342.0","3H8DHMCCWAX7Q1P9EK2VNJO3BL7KD9","A334VWE4QGAZFR","3L1EFR8WWTRIL5MKAR1UWRHK4IC9FJ","","126","img/flower5.png","74","127","1","1","1","1","1,0.333,0.333,0.333,1,0.333,0.333,0.333,1","1,0.333,0.333,0.333,1,0.333,0.333,0.333,1","1",""
"","html-keyboard-response","343","107758","0.0-343.0","3H8DHMCCWAX7Q1P9EK2VNJO3BL7KD9","A334VWE4QGAZFR","3L1EFR8WWTRIL5MKAR1UWRHK4IC9FJ","","null","<img src=""img/flower5.png"" style=""width:200px; border:14px solid green;"">","null","","","","","","","","",""
"","image-keyboard-response","344","107924","0.0-344.0","3H8DHMCCWAX7Q1P9EK2VNJO3BL7KD9","A334VWE4QGAZFR","3L1EFR8WWTRIL5MKAR1UWRHK4IC9FJ","","165","img/flower5.png","74","166","1","1","1","1","1,0.333,0.333,0.333,1,0.333,0.333,0.333,1","1,0.333,0.333,0.333,1,0.333,0.333,0.333,1","1",""
"","html-keyboard-response","345","108226","0.0-345.0","3H8DHMCCWAX7Q1P9EK2VNJO3BL7KD9","A334VWE4QGAZFR","3L1EFR8WWTRIL5MKAR1UWRHK4IC9FJ","","null","<img src=""img/flower5.png"" style=""width:200px; border:14px solid green;"">","null","","","","","","","","",""
"","image-keyboard-response","346","108322","0.0-346.0","3H8DHMCCWAX7Q1P9EK2VNJO3BL7KD9","A334VWE4QGAZFR","3L1EFR8WWTRIL5MKAR1UWRHK4IC9FJ","","96","img/flower4.png","74","96","1","0","3","1","1,0.333,0.333,0.333,1,0.333,0.333,0.333,1","1,0.333,0.333,0.333,1,0.333,0.333,0.333,1","1",""
"","html-keyboard-response","347","108623","0.0-347.0","3H8DHMCCWAX7Q1P9EK2VNJO3BL7KD9","A334VWE4QGAZFR","3L1EFR8WWTRIL5MKAR1UWRHK4IC9FJ","","null","<img src=""img/flower4.png"" style=""width:200px;border:14px solid red;"">","null","","","","","","","","",""
"","image-keyboard-response","348","108638","0.0-348.0","3H8DHMCCWAX7Q1P9EK2VNJO3BL7KD9","A334VWE4QGAZFR","3L1EFR8WWTRIL5MKAR1UWRHK4IC9FJ","","15","img/flower3.png","74","15","1","1","2","1","1,0.333,0.333,0.333,1,0.333,0.333,0.333,1","1,0.333,0.333,0.333,1,0.333,0.333,0.333,1","1",""
"","html-keyboard-response","349","108938","0.0-349.0","3H8DHMCCWAX7Q1P9EK2VNJO3BL7KD9","A334VWE4QGAZFR","3L1EFR8WWTRIL5MKAR1UWRHK4IC9FJ","","null","<img src=""img/flower3.png"" style=""width:200px; border:14px solid green;"">","null","","","","","","","","",""
"","image-keyboard-response","350","109105","0.0-350.0","3H8DHMCCWAX7Q1P9EK2VNJO3BL7KD9","A334VWE4QGAZFR","3L1EFR8WWTRIL5MKAR1UWRHK4IC9FJ","","166","img/flower4.png","74","167","1","1","3","1","1,0.333,0.333,0.333,1,0.333,0.333,0.333,1","1,0.333,0.333,0.333,1,0.333,0.333,0.333,1","1",""
"","html-keyboard-response","351","109407","0.0-351.0","3H8DHMCCWAX7Q1P9EK2VNJO3BL7KD9","A334VWE4QGAZFR","3L1EFR8WWTRIL5MKAR1UWRHK4IC9FJ","","null","<img src=""img/flower4.png"" style=""width:200px; border:14px solid green;"">","null","","","","","","","","",""
"","image-keyboard-response","352","109593","0.0-352.0","3H8DHMCCWAX7Q1P9EK2VNJO3BL7KD9","A334VWE4QGAZFR","3L1EFR8WWTRIL5MKAR1UWRHK4IC9FJ","","185","img/flower4.png","74","186","1","1","3","1","1,0.333,0.333,0.333,1,0.333,0.333,0.333,1","1,0.333,0.333,0.333,1,0.333,0.333,0.333,1","1",""
"","html-keyboard-response","353","109894","0.0-353.0","3H8DHMCCWAX7Q1P9EK2VNJO3BL7KD9","A334VWE4QGAZFR","3L1EFR8WWTRIL5MKAR1UWRHK4IC9FJ","","null","<img src=""img/flower4.png"" style=""width:200px; border:14px solid green;"">","null","","","","","","","","",""
"","image-keyboard-response","354","110030","0.0-354.0","3H8DHMCCWAX7Q1P9EK2VNJO3BL7KD9","A334VWE4QGAZFR","3L1EFR8WWTRIL5MKAR1UWRHK4IC9FJ","","134","img/flower4.png","74","136","1","0","3","1","1,0.333,0.333,0.333,1,0.333,0.333,0.333,1","1,0.333,0.333,0.333,1,0.333,0.333,0.333,1","1",""
"","html-keyboard-response","355","110331","0.0-355.0","3H8DHMCCWAX7Q1P9EK2VNJO3BL7KD9","A334VWE4QGAZFR","3L1EFR8WWTRIL5MKAR1UWRHK4IC9FJ","","null","<img src=""img/flower4.png"" style=""width:200px;border:14px solid red;"">","null","","","","","","","","",""
"","image-keyboard-response","356","110459","0.0-356.0","3H8DHMCCWAX7Q1P9EK2VNJO3BL7KD9","A334VWE4QGAZFR","3L1EFR8WWTRIL5MKAR1UWRHK4IC9FJ","","127","img/flower4.png","74","129","1","1","3","1","1,0.333,0.333,0.333,1,0.333,0.333,0.333,1","1,0.333,0.333,0.333,1,0.333,0.333,0.333,1","1",""
"","html-keyboard-response","357","110761","0.0-357.0","3H8DHMCCWAX7Q1P9EK2VNJO3BL7KD9","A334VWE4QGAZFR","3L1EFR8WWTRIL5MKAR1UWRHK4IC9FJ","","null","<img src=""img/flower4.png"" style=""width:200px; border:14px solid green;"">","null","","","","","","","","",""
"","image-keyboard-response","358","110951","0.0-358.0","3H8DHMCCWAX7Q1P9EK2VNJO3BL7KD9","A334VWE4QGAZFR","3L1EFR8WWTRIL5MKAR1UWRHK4IC9FJ","","188","img/flower3.png","75","189","2","1","2","1","1,0.333,0.333,0.333,1,0.333,0.333,0.333,1","1,0.333,0.333,0.333,1,0.333,0.333,0.333,1","1",""
"","html-keyboard-response","359","111252","0.0-359.0","3H8DHMCCWAX7Q1P9EK2VNJO3BL7KD9","A334VWE4QGAZFR","3L1EFR8WWTRIL5MKAR1UWRHK4IC9FJ","","null","<img src=""img/flower3.png"" style=""width:200px; border:14px solid green;"">","null","","","","","","","","",""
"","image-keyboard-response","360","111367","0.0-360.0","3H8DHMCCWAX7Q1P9EK2VNJO3BL7KD9","A334VWE4QGAZFR","3L1EFR8WWTRIL5MKAR1UWRHK4IC9FJ","","114","img/flower3.png","75","115","2","1","2","1","1,0.333,0.333,0.333,1,0.333,0.333,0.333,1","1,0.333,0.333,0.333,1,0.333,0.333,0.333,1","1",""
"","html-keyboard-response","361","111669","0.0-361.0","3H8DHMCCWAX7Q1P9EK2VNJO3BL7KD9","A334VWE4QGAZFR","3L1EFR8WWTRIL5MKAR1UWRHK4IC9FJ","","null","<img src=""img/flower3.png"" style=""width:200px; border:14px solid green;"">","null","","","","","","","","",""
"","html-keyboard-response","362","114743","0.0-362.0","3H8DHMCCWAX7Q1P9EK2VNJO3BL7KD9","A334VWE4QGAZFR","3L1EFR8WWTRIL5MKAR1UWRHK4IC9FJ","","","","","","","","","","","","",""
"","instructions","363","115967","0.0-363.0","3H8DHMCCWAX7Q1P9EK2VNJO3BL7KD9","A334VWE4QGAZFR","3L1EFR8WWTRIL5MKAR1UWRHK4IC9FJ","[{""page_index"":0,""viewing_time"":1224}]","1224","","","","","","","","","","",""
"","survey-text","364","119279","0.0-364.0","3H8DHMCCWAX7Q1P9EK2VNJO3BL7KD9","A334VWE4QGAZFR","3L1EFR8WWTRIL5MKAR1UWRHK4IC9FJ","","3305","","","","","","","","","","","{""Q0"":""A334VWE4QGAZFR""}"
