"success","trial_type","trial_index","time_elapsed","internal_node_id","assignmentID","mturkID","hitID","view_history","rt","stimulus","key_press","reactionTime","a","r","s","cond","reward_cond","reward_cond_actual","reward_matrix_idx","responses"
"true","fullscreen","0","9845","0.0-0.0","3RYC5T2D74F2225U9D2NOPR6KS6PRF","A33Z6BHAJUGCHY","382GHPVPHSDM8N0F9141EAH7F0K34Z","","","","","","","","","","","","",""
"","instructions","1","29514","0.0-1.0","3RYC5T2D74F2225U9D2NOPR6KS6PRF","A33Z6BHAJUGCHY","382GHPVPHSDM8N0F9141EAH7F0K34Z","[{""page_index"":0,""viewing_time"":2221.1000000089407},{""page_index"":1,""viewing_time"":1109.5},{""page_index"":2,""viewing_time"":3496.199999988079},{""page_index"":3,""viewing_time"":3346.2000000029802},{""page_index"":4,""viewing_time"":1432.4000000059605},{""page_index"":5,""viewing_time"":1371.5999999940395},{""page_index"":6,""viewing_time"":2564.4000000059605},{""page_index"":7,""viewing_time"":4117.0999999940395}]","19663","","","","","","","","","","",""
"","image-keyboard-response","2","30615","0.0-2.0","3RYC5T2D74F2225U9D2NOPR6KS6PRF","A33Z6BHAJUGCHY","382GHPVPHSDM8N0F9141EAH7F0K34Z","","1074.7000000029802","img/flower5.png","75","1080.300000011921","2","1","3","2","1,0,0,1,1,0,1,0,1","0,0,1,1,0,1,0,1,1","2",""
"","html-keyboard-response","3","30921","0.0-3.0","3RYC5T2D74F2225U9D2NOPR6KS6PRF","A33Z6BHAJUGCHY","382GHPVPHSDM8N0F9141EAH7F0K34Z","","null","<img src=""img/flower5.png"" style=""width:200px; border:14px solid green;"">","null","","","","","","","","",""
"","image-keyboard-response","4","31267","0.0-4.0","3RYC5T2D74F2225U9D2NOPR6KS6PRF","A33Z6BHAJUGCHY","382GHPVPHSDM8N0F9141EAH7F0K34Z","","338","img/flower1.png","75","344","2","0","1","2","1,0,0,1,1,0,1,0,1","0,0,1,1,0,1,0,1,1","2",""
"","html-keyboard-response","5","31577","0.0-5.0","3RYC5T2D74F2225U9D2NOPR6KS6PRF","A33Z6BHAJUGCHY","382GHPVPHSDM8N0F9141EAH7F0K34Z","","null","<img src=""img/flower1.png"" style=""width:200px;border:14px solid red;"">","null","","","","","","","","",""
"","image-keyboard-response","6","31932","0.0-6.0","3RYC5T2D74F2225U9D2NOPR6KS6PRF","A33Z6BHAJUGCHY","382GHPVPHSDM8N0F9141EAH7F0K34Z","","349.19999998807907","img/flower1.png","74","353.3999999910593","1","0","1","2","1,0,0,1,1,0,1,0,1","0,0,1,1,0,1,0,1,1","2",""
"","html-keyboard-response","7","32238","0.0-7.0","3RYC5T2D74F2225U9D2NOPR6KS6PRF","A33Z6BHAJUGCHY","382GHPVPHSDM8N0F9141EAH7F0K34Z","","null","<img src=""img/flower1.png"" style=""width:200px;border:14px solid red;"">","null","","","","","","","","",""
"","image-keyboard-response","8","32656","0.0-8.0","3RYC5T2D74F2225U9D2NOPR6KS6PRF","A33Z6BHAJUGCHY","382GHPVPHSDM8N0F9141EAH7F0K34Z","","411","img/flower5.png","75","416.20000000298023","2","1","3","2","1,0,0,1,1,0,1,0,1","0,0,1,1,0,1,0,1,1","2",""
"","html-keyboard-response","9","32961","0.0-9.0","3RYC5T2D74F2225U9D2NOPR6KS6PRF","A33Z6BHAJUGCHY","382GHPVPHSDM8N0F9141EAH7F0K34Z","","null","<img src=""img/flower5.png"" style=""width:200px; border:14px solid green;"">","null","","","","","","","","",""
"","image-keyboard-response","10","33527","0.0-10.0","3RYC5T2D74F2225U9D2NOPR6KS6PRF","A33Z6BHAJUGCHY","382GHPVPHSDM8N0F9141EAH7F0K34Z","","560.4000000059605","img/flower1.png","76","565.2999999970198","3","1","1","2","1,0,0,1,1,0,1,0,1","0,0,1,1,0,1,0,1,1","2",""
"","html-keyboard-response","11","33836","0.0-11.0","3RYC5T2D74F2225U9D2NOPR6KS6PRF","A33Z6BHAJUGCHY","382GHPVPHSDM8N0F9141EAH7F0K34Z","","null","<img src=""img/flower1.png"" style=""width:200px; border:14px solid green;"">","null","","","","","","","","",""
"","image-keyboard-response","12","34263","0.0-12.0","3RYC5T2D74F2225U9D2NOPR6KS6PRF","A33Z6BHAJUGCHY","382GHPVPHSDM8N0F9141EAH7F0K34Z","","418.79999999701977","img/flower5.png","75","425.5","2","1","3","2","1,0,0,1,1,0,1,0,1","0,0,1,1,0,1,0,1,1","2",""
"","html-keyboard-response","13","34572","0.0-13.0","3RYC5T2D74F2225U9D2NOPR6KS6PRF","A33Z6BHAJUGCHY","382GHPVPHSDM8N0F9141EAH7F0K34Z","","null","<img src=""img/flower5.png"" style=""width:200px; border:14px solid green;"">","null","","","","","","","","",""
"","image-keyboard-response","14","35277","0.0-14.0","3RYC5T2D74F2225U9D2NOPR6KS6PRF","A33Z6BHAJUGCHY","382GHPVPHSDM8N0F9141EAH7F0K34Z","","698.7999999970198","img/flower6.png","74","703.4000000059605","1","1","2","2","1,0,0,1,1,0,1,0,1","0,0,1,1,0,1,0,1,1","2",""
"","html-keyboard-response","15","35581","0.0-15.0","3RYC5T2D74F2225U9D2NOPR6KS6PRF","A33Z6BHAJUGCHY","382GHPVPHSDM8N0F9141EAH7F0K34Z","","null","<img src=""img/flower6.png"" style=""width:200px; border:14px solid green;"">","null","","","","","","","","",""
"","image-keyboard-response","16","36446","0.0-16.0","3RYC5T2D74F2225U9D2NOPR6KS6PRF","A33Z6BHAJUGCHY","382GHPVPHSDM8N0F9141EAH7F0K34Z","","856.7999999970198","img/flower5.png","76","862.7999999970198","3","1","3","2","1,0,0,1,1,0,1,0,1","0,0,1,1,0,1,0,1,1","2",""
"","html-keyboard-response","17","36749","0.0-17.0","3RYC5T2D74F2225U9D2NOPR6KS6PRF","A33Z6BHAJUGCHY","382GHPVPHSDM8N0F9141EAH7F0K34Z","","null","<img src=""img/flower5.png"" style=""width:200px; border:14px solid green;"">","null","","","","","","","","",""
"","image-keyboard-response","18","37321","0.0-18.0","3RYC5T2D74F2225U9D2NOPR6KS6PRF","A33Z6BHAJUGCHY","382GHPVPHSDM8N0F9141EAH7F0K34Z","","567.7000000029802","img/flower6.png","75","570.6999999880791","2","0","2","2","1,0,0,1,1,0,1,0,1","0,0,1,1,0,1,0,1,1","2",""
"","html-keyboard-response","19","37626","0.0-19.0","3RYC5T2D74F2225U9D2NOPR6KS6PRF","A33Z6BHAJUGCHY","382GHPVPHSDM8N0F9141EAH7F0K34Z","","null","<img src=""img/flower6.png"" style=""width:200px;border:14px solid red;"">","null","","","","","","","","",""
"","image-keyboard-response","20","38133","0.0-20.0","3RYC5T2D74F2225U9D2NOPR6KS6PRF","A33Z6BHAJUGCHY","382GHPVPHSDM8N0F9141EAH7F0K34Z","","501.29999999701977","img/flower1.png","74","506.5","1","0","1","2","1,0,0,1,1,0,1,0,1","0,0,1,1,0,1,0,1,1","2",""
"","html-keyboard-response","21","38441","0.0-21.0","3RYC5T2D74F2225U9D2NOPR6KS6PRF","A33Z6BHAJUGCHY","382GHPVPHSDM8N0F9141EAH7F0K34Z","","null","<img src=""img/flower1.png"" style=""width:200px;border:14px solid red;"">","null","","","","","","","","",""
"","image-keyboard-response","22","39165","0.0-22.0","3RYC5T2D74F2225U9D2NOPR6KS6PRF","A33Z6BHAJUGCHY","382GHPVPHSDM8N0F9141EAH7F0K34Z","","717.7999999970198","img/flower5.png","75","722.5999999940395","2","1","3","2","1,0,0,1,1,0,1,0,1","0,0,1,1,0,1,0,1,1","2",""
"","html-keyboard-response","23","39471","0.0-23.0","3RYC5T2D74F2225U9D2NOPR6KS6PRF","A33Z6BHAJUGCHY","382GHPVPHSDM8N0F9141EAH7F0K34Z","","null","<img src=""img/flower5.png"" style=""width:200px; border:14px solid green;"">","null","","","","","","","","",""
"","image-keyboard-response","24","39797","0.0-24.0","3RYC5T2D74F2225U9D2NOPR6KS6PRF","A33Z6BHAJUGCHY","382GHPVPHSDM8N0F9141EAH7F0K34Z","","319.20000000298023","img/flower5.png","75","324.70000000298023","2","1","3","2","1,0,0,1,1,0,1,0,1","0,0,1,1,0,1,0,1,1","2",""
"","html-keyboard-response","25","40103","0.0-25.0","3RYC5T2D74F2225U9D2NOPR6KS6PRF","A33Z6BHAJUGCHY","382GHPVPHSDM8N0F9141EAH7F0K34Z","","null","<img src=""img/flower5.png"" style=""width:200px; border:14px solid green;"">","null","","","","","","","","",""
"","image-keyboard-response","26","40411","0.0-26.0","3RYC5T2D74F2225U9D2NOPR6KS6PRF","A33Z6BHAJUGCHY","382GHPVPHSDM8N0F9141EAH7F0K34Z","","302.6000000089407","img/flower5.png","75","305.70000000298023","2","1","3","2","1,0,0,1,1,0,1,0,1","0,0,1,1,0,1,0,1,1","2",""
"","html-keyboard-response","27","40715","0.0-27.0","3RYC5T2D74F2225U9D2NOPR6KS6PRF","A33Z6BHAJUGCHY","382GHPVPHSDM8N0F9141EAH7F0K34Z","","null","<img src=""img/flower5.png"" style=""width:200px; border:14px solid green;"">","null","","","","","","","","",""
"","image-keyboard-response","28","41237","0.0-28.0","3RYC5T2D74F2225U9D2NOPR6KS6PRF","A33Z6BHAJUGCHY","382GHPVPHSDM8N0F9141EAH7F0K34Z","","516.6000000089407","img/flower1.png","76","521","3","1","1","2","1,0,0,1,1,0,1,0,1","0,0,1,1,0,1,0,1,1","2",""
"","html-keyboard-response","29","41546","0.0-29.0","3RYC5T2D74F2225U9D2NOPR6KS6PRF","A33Z6BHAJUGCHY","382GHPVPHSDM8N0F9141EAH7F0K34Z","","null","<img src=""img/flower1.png"" style=""width:200px; border:14px solid green;"">","null","","","","","","","","",""
"","image-keyboard-response","30","42332","0.0-30.0","3RYC5T2D74F2225U9D2NOPR6KS6PRF","A33Z6BHAJUGCHY","382GHPVPHSDM8N0F9141EAH7F0K34Z","","779.7000000029802","img/flower6.png","74","785.1000000089407","1","1","2","2","1,0,0,1,1,0,1,0,1","0,0,1,1,0,1,0,1,1","2",""
"","html-keyboard-response","31","42638","0.0-31.0","3RYC5T2D74F2225U9D2NOPR6KS6PRF","A33Z6BHAJUGCHY","382GHPVPHSDM8N0F9141EAH7F0K34Z","","null","<img src=""img/flower6.png"" style=""width:200px; border:14px solid green;"">","null","","","","","","","","",""
"","image-keyboard-response","32","43385","0.0-32.0","3RYC5T2D74F2225U9D2NOPR6KS6PRF","A33Z6BHAJUGCHY","382GHPVPHSDM8N0F9141EAH7F0K34Z","","742.3999999910593","img/flower5.png","75","746.2999999970198","2","1","3","2","1,0,0,1,1,0,1,0,1","0,0,1,1,0,1,0,1,1","2",""
"","html-keyboard-response","33","43693","0.0-33.0","3RYC5T2D74F2225U9D2NOPR6KS6PRF","A33Z6BHAJUGCHY","382GHPVPHSDM8N0F9141EAH7F0K34Z","","null","<img src=""img/flower5.png"" style=""width:200px; border:14px solid green;"">","null","","","","","","","","",""
"","image-keyboard-response","34","43999","0.0-34.0","3RYC5T2D74F2225U9D2NOPR6KS6PRF","A33Z6BHAJUGCHY","382GHPVPHSDM8N0F9141EAH7F0K34Z","","299.40000000596046","img/flower5.png","75","305.40000000596046","2","1","3","2","1,0,0,1,1,0,1,0,1","0,0,1,1,0,1,0,1,1","2",""
"","html-keyboard-response","35","44307","0.0-35.0","3RYC5T2D74F2225U9D2NOPR6KS6PRF","A33Z6BHAJUGCHY","382GHPVPHSDM8N0F9141EAH7F0K34Z","","null","<img src=""img/flower5.png"" style=""width:200px; border:14px solid green;"">","null","","","","","","","","",""
"","image-keyboard-response","36","44779","0.0-36.0","3RYC5T2D74F2225U9D2NOPR6KS6PRF","A33Z6BHAJUGCHY","382GHPVPHSDM8N0F9141EAH7F0K34Z","","464.59999999403954","img/flower1.png","76","469.5","3","1","1","2","1,0,0,1,1,0,1,0,1","0,0,1,1,0,1,0,1,1","2",""
"","html-keyboard-response","37","45085","0.0-37.0","3RYC5T2D74F2225U9D2NOPR6KS6PRF","A33Z6BHAJUGCHY","382GHPVPHSDM8N0F9141EAH7F0K34Z","","null","<img src=""img/flower1.png"" style=""width:200px; border:14px solid green;"">","null","","","","","","","","",""
"","image-keyboard-response","38","45503","0.0-38.0","3RYC5T2D74F2225U9D2NOPR6KS6PRF","A33Z6BHAJUGCHY","382GHPVPHSDM8N0F9141EAH7F0K34Z","","412.09999999403954","img/flower5.png","75","416.09999999403954","2","1","3","2","1,0,0,1,1,0,1,0,1","0,0,1,1,0,1,0,1,1","2",""
"","html-keyboard-response","39","45808","0.0-39.0","3RYC5T2D74F2225U9D2NOPR6KS6PRF","A33Z6BHAJUGCHY","382GHPVPHSDM8N0F9141EAH7F0K34Z","","null","<img src=""img/flower5.png"" style=""width:200px; border:14px solid green;"">","null","","","","","","","","",""
"","image-keyboard-response","40","46351","0.0-40.0","3RYC5T2D74F2225U9D2NOPR6KS6PRF","A33Z6BHAJUGCHY","382GHPVPHSDM8N0F9141EAH7F0K34Z","","536.3999999910593","img/flower6.png","74","540.5","1","1","2","2","1,0,0,1,1,0,1,0,1","0,0,1,1,0,1,0,1,1","2",""
"","html-keyboard-response","41","46655","0.0-41.0","3RYC5T2D74F2225U9D2NOPR6KS6PRF","A33Z6BHAJUGCHY","382GHPVPHSDM8N0F9141EAH7F0K34Z","","null","<img src=""img/flower6.png"" style=""width:200px; border:14px solid green;"">","null","","","","","","","","",""
"","image-keyboard-response","42","47082","0.0-42.0","3RYC5T2D74F2225U9D2NOPR6KS6PRF","A33Z6BHAJUGCHY","382GHPVPHSDM8N0F9141EAH7F0K34Z","","422.20000000298023","img/flower1.png","75","426.20000000298023","2","0","1","2","1,0,0,1,1,0,1,0,1","0,0,1,1,0,1,0,1,1","2",""
"","html-keyboard-response","43","47390","0.0-43.0","3RYC5T2D74F2225U9D2NOPR6KS6PRF","A33Z6BHAJUGCHY","382GHPVPHSDM8N0F9141EAH7F0K34Z","","null","<img src=""img/flower1.png"" style=""width:200px;border:14px solid red;"">","null","","","","","","","","",""
"","image-keyboard-response","44","47591","0.0-44.0","3RYC5T2D74F2225U9D2NOPR6KS6PRF","A33Z6BHAJUGCHY","382GHPVPHSDM8N0F9141EAH7F0K34Z","","194.8999999910593","img/flower5.png","76","199.30000001192093","3","1","3","2","1,0,0,1,1,0,1,0,1","0,0,1,1,0,1,0,1,1","2",""
"","html-keyboard-response","45","47896","0.0-45.0","3RYC5T2D74F2225U9D2NOPR6KS6PRF","A33Z6BHAJUGCHY","382GHPVPHSDM8N0F9141EAH7F0K34Z","","null","<img src=""img/flower5.png"" style=""width:200px; border:14px solid green;"">","null","","","","","","","","",""
"","image-keyboard-response","46","48342","0.0-46.0","3RYC5T2D74F2225U9D2NOPR6KS6PRF","A33Z6BHAJUGCHY","382GHPVPHSDM8N0F9141EAH7F0K34Z","","440.70000000298023","img/flower5.png","76","445.20000000298023","3","1","3","2","1,0,0,1,1,0,1,0,1","0,0,1,1,0,1,0,1,1","2",""
"","html-keyboard-response","47","48649","0.0-47.0","3RYC5T2D74F2225U9D2NOPR6KS6PRF","A33Z6BHAJUGCHY","382GHPVPHSDM8N0F9141EAH7F0K34Z","","null","<img src=""img/flower5.png"" style=""width:200px; border:14px solid green;"">","null","","","","","","","","",""
"","image-keyboard-response","48","48979","0.0-48.0","3RYC5T2D74F2225U9D2NOPR6KS6PRF","A33Z6BHAJUGCHY","382GHPVPHSDM8N0F9141EAH7F0K34Z","","325.70000000298023","img/flower5.png","76","328.6000000089407","3","1","3","2","1,0,0,1,1,0,1,0,1","0,0,1,1,0,1,0,1,1","2",""
"","html-keyboard-response","49","49284","0.0-49.0","3RYC5T2D74F2225U9D2NOPR6KS6PRF","A33Z6BHAJUGCHY","382GHPVPHSDM8N0F9141EAH7F0K34Z","","null","<img src=""img/flower5.png"" style=""width:200px; border:14px solid green;"">","null","","","","","","","","",""
"","image-keyboard-response","50","49642","0.0-50.0","3RYC5T2D74F2225U9D2NOPR6KS6PRF","A33Z6BHAJUGCHY","382GHPVPHSDM8N0F9141EAH7F0K34Z","","352.3999999910593","img/flower6.png","76","356.90000000596046","3","1","2","2","1,0,0,1,1,0,1,0,1","0,0,1,1,0,1,0,1,1","2",""
"","html-keyboard-response","51","49948","0.0-51.0","3RYC5T2D74F2225U9D2NOPR6KS6PRF","A33Z6BHAJUGCHY","382GHPVPHSDM8N0F9141EAH7F0K34Z","","null","<img src=""img/flower6.png"" style=""width:200px; border:14px solid green;"">","null","","","","","","","","",""
"","image-keyboard-response","52","50137","0.0-52.0","3RYC5T2D74F2225U9D2NOPR6KS6PRF","A33Z6BHAJUGCHY","382GHPVPHSDM8N0F9141EAH7F0K34Z","","182.69999998807907","img/flower5.png","76","188","3","1","3","2","1,0,0,1,1,0,1,0,1","0,0,1,1,0,1,0,1,1","2",""
"","html-keyboard-response","53","50444","0.0-53.0","3RYC5T2D74F2225U9D2NOPR6KS6PRF","A33Z6BHAJUGCHY","382GHPVPHSDM8N0F9141EAH7F0K34Z","","null","<img src=""img/flower5.png"" style=""width:200px; border:14px solid green;"">","null","","","","","","","","",""
"","image-keyboard-response","54","50567","0.0-54.0","3RYC5T2D74F2225U9D2NOPR6KS6PRF","A33Z6BHAJUGCHY","382GHPVPHSDM8N0F9141EAH7F0K34Z","","117.8999999910593","img/flower5.png","76","121.79999999701977","3","1","3","2","1,0,0,1,1,0,1,0,1","0,0,1,1,0,1,0,1,1","2",""
"","html-keyboard-response","55","50871","0.0-55.0","3RYC5T2D74F2225U9D2NOPR6KS6PRF","A33Z6BHAJUGCHY","382GHPVPHSDM8N0F9141EAH7F0K34Z","","null","<img src=""img/flower5.png"" style=""width:200px; border:14px solid green;"">","null","","","","","","","","",""
"","image-keyboard-response","56","50985","0.0-56.0","3RYC5T2D74F2225U9D2NOPR6KS6PRF","A33Z6BHAJUGCHY","382GHPVPHSDM8N0F9141EAH7F0K34Z","","110.29999999701977","img/flower1.png","76","114","3","1","1","2","1,0,0,1,1,0,1,0,1","0,0,1,1,0,1,0,1,1","2",""
"","html-keyboard-response","57","51291","0.0-57.0","3RYC5T2D74F2225U9D2NOPR6KS6PRF","A33Z6BHAJUGCHY","382GHPVPHSDM8N0F9141EAH7F0K34Z","","null","<img src=""img/flower1.png"" style=""width:200px; border:14px solid green;"">","null","","","","","","","","",""
"","image-keyboard-response","58","51367","0.0-58.0","3RYC5T2D74F2225U9D2NOPR6KS6PRF","A33Z6BHAJUGCHY","382GHPVPHSDM8N0F9141EAH7F0K34Z","","70","img/flower1.png","76","74.90000000596046","3","1","1","2","1,0,0,1,1,0,1,0,1","0,0,1,1,0,1,0,1,1","2",""
"","html-keyboard-response","59","51673","0.0-59.0","3RYC5T2D74F2225U9D2NOPR6KS6PRF","A33Z6BHAJUGCHY","382GHPVPHSDM8N0F9141EAH7F0K34Z","","null","<img src=""img/flower1.png"" style=""width:200px; border:14px solid green;"">","null","","","","","","","","",""
"","image-keyboard-response","60","51729","0.0-60.0","3RYC5T2D74F2225U9D2NOPR6KS6PRF","A33Z6BHAJUGCHY","382GHPVPHSDM8N0F9141EAH7F0K34Z","","50","img/flower1.png","76","55.599999994039536","3","1","1","2","1,0,0,1,1,0,1,0,1","0,0,1,1,0,1,0,1,1","2",""
"","html-keyboard-response","61","52036","0.0-61.0","3RYC5T2D74F2225U9D2NOPR6KS6PRF","A33Z6BHAJUGCHY","382GHPVPHSDM8N0F9141EAH7F0K34Z","","null","<img src=""img/flower1.png"" style=""width:200px; border:14px solid green;"">","null","","","","","","","","",""
"","image-keyboard-response","62","52062","0.0-62.0","3RYC5T2D74F2225U9D2NOPR6KS6PRF","A33Z6BHAJUGCHY","382GHPVPHSDM8N0F9141EAH7F0K34Z","","19.099999994039536","img/flower6.png","76","24.099999994039536","3","1","2","2","1,0,0,1,1,0,1,0,1","0,0,1,1,0,1,0,1,1","2",""
"","html-keyboard-response","63","52367","0.0-63.0","3RYC5T2D74F2225U9D2NOPR6KS6PRF","A33Z6BHAJUGCHY","382GHPVPHSDM8N0F9141EAH7F0K34Z","","null","<img src=""img/flower6.png"" style=""width:200px; border:14px solid green;"">","null","","","","","","","","",""
"","image-keyboard-response","64","52428","0.0-64.0","3RYC5T2D74F2225U9D2NOPR6KS6PRF","A33Z6BHAJUGCHY","382GHPVPHSDM8N0F9141EAH7F0K34Z","","53.3999999910593","img/flower6.png","76","59.5","3","1","2","2","1,0,0,1,1,0,1,0,1","0,0,1,1,0,1,0,1,1","2",""
"","html-keyboard-response","65","52732","0.0-65.0","3RYC5T2D74F2225U9D2NOPR6KS6PRF","A33Z6BHAJUGCHY","382GHPVPHSDM8N0F9141EAH7F0K34Z","","null","<img src=""img/flower6.png"" style=""width:200px; border:14px solid green;"">","null","","","","","","","","",""
"","image-keyboard-response","66","52741","0.0-66.0","3RYC5T2D74F2225U9D2NOPR6KS6PRF","A33Z6BHAJUGCHY","382GHPVPHSDM8N0F9141EAH7F0K34Z","","5.0999999940395355","img/flower5.png","76","9.300000011920929","3","1","3","2","1,0,0,1,1,0,1,0,1","0,0,1,1,0,1,0,1,1","2",""
"","html-keyboard-response","67","53046","0.0-67.0","3RYC5T2D74F2225U9D2NOPR6KS6PRF","A33Z6BHAJUGCHY","382GHPVPHSDM8N0F9141EAH7F0K34Z","","null","<img src=""img/flower5.png"" style=""width:200px; border:14px solid green;"">","null","","","","","","","","",""
"","image-keyboard-response","68","53182","0.0-68.0","3RYC5T2D74F2225U9D2NOPR6KS6PRF","A33Z6BHAJUGCHY","382GHPVPHSDM8N0F9141EAH7F0K34Z","","130.29999999701977","img/flower5.png","76","136","3","1","3","2","1,0,0,1,1,0,1,0,1","0,0,1,1,0,1,0,1,1","2",""
"","html-keyboard-response","69","53492","0.0-69.0","3RYC5T2D74F2225U9D2NOPR6KS6PRF","A33Z6BHAJUGCHY","382GHPVPHSDM8N0F9141EAH7F0K34Z","","null","<img src=""img/flower5.png"" style=""width:200px; border:14px solid green;"">","null","","","","","","","","",""
"","image-keyboard-response","70","53525","0.0-70.0","3RYC5T2D74F2225U9D2NOPR6KS6PRF","A33Z6BHAJUGCHY","382GHPVPHSDM8N0F9141EAH7F0K34Z","","26.5","img/flower1.png","76","32","3","1","1","2","1,0,0,1,1,0,1,0,1","0,0,1,1,0,1,0,1,1","2",""
"","html-keyboard-response","71","53831","0.0-71.0","3RYC5T2D74F2225U9D2NOPR6KS6PRF","A33Z6BHAJUGCHY","382GHPVPHSDM8N0F9141EAH7F0K34Z","","null","<img src=""img/flower1.png"" style=""width:200px; border:14px solid green;"">","null","","","","","","","","",""
"","image-keyboard-response","72","53926","0.0-72.0","3RYC5T2D74F2225U9D2NOPR6KS6PRF","A33Z6BHAJUGCHY","382GHPVPHSDM8N0F9141EAH7F0K34Z","","89.79999999701977","img/flower6.png","76","93.5","3","1","2","2","1,0,0,1,1,0,1,0,1","0,0,1,1,0,1,0,1,1","2",""
"","html-keyboard-response","73","54232","0.0-73.0","3RYC5T2D74F2225U9D2NOPR6KS6PRF","A33Z6BHAJUGCHY","382GHPVPHSDM8N0F9141EAH7F0K34Z","","null","<img src=""img/flower6.png"" style=""width:200px; border:14px solid green;"">","null","","","","","","","","",""
"","image-keyboard-response","74","54273","0.0-74.0","3RYC5T2D74F2225U9D2NOPR6KS6PRF","A33Z6BHAJUGCHY","382GHPVPHSDM8N0F9141EAH7F0K34Z","","35.599999994039536","img/flower1.png","76","40","3","1","1","2","1,0,0,1,1,0,1,0,1","0,0,1,1,0,1,0,1,1","2",""
"","html-keyboard-response","75","54577","0.0-75.0","3RYC5T2D74F2225U9D2NOPR6KS6PRF","A33Z6BHAJUGCHY","382GHPVPHSDM8N0F9141EAH7F0K34Z","","null","<img src=""img/flower1.png"" style=""width:200px; border:14px solid green;"">","null","","","","","","","","",""
"","image-keyboard-response","76","54595","0.0-76.0","3RYC5T2D74F2225U9D2NOPR6KS6PRF","A33Z6BHAJUGCHY","382GHPVPHSDM8N0F9141EAH7F0K34Z","","14.299999997019768","img/flower6.png","76","17.200000002980232","3","1","2","2","1,0,0,1,1,0,1,0,1","0,0,1,1,0,1,0,1,1","2",""
"","html-keyboard-response","77","54899","0.0-77.0","3RYC5T2D74F2225U9D2NOPR6KS6PRF","A33Z6BHAJUGCHY","382GHPVPHSDM8N0F9141EAH7F0K34Z","","null","<img src=""img/flower6.png"" style=""width:200px; border:14px solid green;"">","null","","","","","","","","",""
"","image-keyboard-response","78","54917","0.0-78.0","3RYC5T2D74F2225U9D2NOPR6KS6PRF","A33Z6BHAJUGCHY","382GHPVPHSDM8N0F9141EAH7F0K34Z","","14.299999997019768","img/flower6.png","76","17.099999994039536","3","1","2","2","1,0,0,1,1,0,1,0,1","0,0,1,1,0,1,0,1,1","2",""
"","html-keyboard-response","79","55221","0.0-79.0","3RYC5T2D74F2225U9D2NOPR6KS6PRF","A33Z6BHAJUGCHY","382GHPVPHSDM8N0F9141EAH7F0K34Z","","null","<img src=""img/flower6.png"" style=""width:200px; border:14px solid green;"">","null","","","","","","","","",""
"","image-keyboard-response","80","55232","0.0-80.0","3RYC5T2D74F2225U9D2NOPR6KS6PRF","A33Z6BHAJUGCHY","382GHPVPHSDM8N0F9141EAH7F0K34Z","","4.899999991059303","img/flower1.png","76","9.400000005960464","3","1","1","2","1,0,0,1,1,0,1,0,1","0,0,1,1,0,1,0,1,1","2",""
"","html-keyboard-response","81","55536","0.0-81.0","3RYC5T2D74F2225U9D2NOPR6KS6PRF","A33Z6BHAJUGCHY","382GHPVPHSDM8N0F9141EAH7F0K34Z","","null","<img src=""img/flower1.png"" style=""width:200px; border:14px solid green;"">","null","","","","","","","","",""
"","image-keyboard-response","82","55865","0.0-82.0","3RYC5T2D74F2225U9D2NOPR6KS6PRF","A33Z6BHAJUGCHY","382GHPVPHSDM8N0F9141EAH7F0K34Z","","320.70000000298023","img/flower6.png","76","327.3999999910593","3","1","2","2","1,0,0,1,1,0,1,0,1","0,0,1,1,0,1,0,1,1","2",""
"","html-keyboard-response","83","56172","0.0-83.0","3RYC5T2D74F2225U9D2NOPR6KS6PRF","A33Z6BHAJUGCHY","382GHPVPHSDM8N0F9141EAH7F0K34Z","","null","<img src=""img/flower6.png"" style=""width:200px; border:14px solid green;"">","null","","","","","","","","",""
"","image-keyboard-response","84","56208","0.0-84.0","3RYC5T2D74F2225U9D2NOPR6KS6PRF","A33Z6BHAJUGCHY","382GHPVPHSDM8N0F9141EAH7F0K34Z","","29.600000008940697","img/flower6.png","76","34.599999994039536","3","1","2","2","1,0,0,1,1,0,1,0,1","0,0,1,1,0,1,0,1,1","2",""
"","html-keyboard-response","85","56512","0.0-85.0","3RYC5T2D74F2225U9D2NOPR6KS6PRF","A33Z6BHAJUGCHY","382GHPVPHSDM8N0F9141EAH7F0K34Z","","null","<img src=""img/flower6.png"" style=""width:200px; border:14px solid green;"">","null","","","","","","","","",""
"","image-keyboard-response","86","56549","0.0-86.0","3RYC5T2D74F2225U9D2NOPR6KS6PRF","A33Z6BHAJUGCHY","382GHPVPHSDM8N0F9141EAH7F0K34Z","","34.20000000298023","img/flower1.png","76","36.70000000298023","3","1","1","2","1,0,0,1,1,0,1,0,1","0,0,1,1,0,1,0,1,1","2",""
"","html-keyboard-response","87","56854","0.0-87.0","3RYC5T2D74F2225U9D2NOPR6KS6PRF","A33Z6BHAJUGCHY","382GHPVPHSDM8N0F9141EAH7F0K34Z","","null","<img src=""img/flower1.png"" style=""width:200px; border:14px solid green;"">","null","","","","","","","","",""
"","image-keyboard-response","88","56876","0.0-88.0","3RYC5T2D74F2225U9D2NOPR6KS6PRF","A33Z6BHAJUGCHY","382GHPVPHSDM8N0F9141EAH7F0K34Z","","15.700000002980232","img/flower1.png","76","21.400000005960464","3","1","1","2","1,0,0,1,1,0,1,0,1","0,0,1,1,0,1,0,1,1","2",""
"","html-keyboard-response","89","57180","0.0-89.0","3RYC5T2D74F2225U9D2NOPR6KS6PRF","A33Z6BHAJUGCHY","382GHPVPHSDM8N0F9141EAH7F0K34Z","","null","<img src=""img/flower1.png"" style=""width:200px; border:14px solid green;"">","null","","","","","","","","",""
"","image-keyboard-response","90","57207","0.0-90.0","3RYC5T2D74F2225U9D2NOPR6KS6PRF","A33Z6BHAJUGCHY","382GHPVPHSDM8N0F9141EAH7F0K34Z","","22","img/flower5.png","76","25.799999997019768","3","1","3","2","1,0,0,1,1,0,1,0,1","0,0,1,1,0,1,0,1,1","2",""
"","html-keyboard-response","91","57514","0.0-91.0","3RYC5T2D74F2225U9D2NOPR6KS6PRF","A33Z6BHAJUGCHY","382GHPVPHSDM8N0F9141EAH7F0K34Z","","null","<img src=""img/flower5.png"" style=""width:200px; border:14px solid green;"">","null","","","","","","","","",""
"","image-keyboard-response","92","57531","0.0-92.0","3RYC5T2D74F2225U9D2NOPR6KS6PRF","A33Z6BHAJUGCHY","382GHPVPHSDM8N0F9141EAH7F0K34Z","","10.599999994039536","img/flower5.png","76","16.099999994039536","3","1","3","2","1,0,0,1,1,0,1,0,1","0,0,1,1,0,1,0,1,1","2",""
"","html-keyboard-response","93","57838","0.0-93.0","3RYC5T2D74F2225U9D2NOPR6KS6PRF","A33Z6BHAJUGCHY","382GHPVPHSDM8N0F9141EAH7F0K34Z","","null","<img src=""img/flower5.png"" style=""width:200px; border:14px solid green;"">","null","","","","","","","","",""
"","image-keyboard-response","94","58163","0.0-94.0","3RYC5T2D74F2225U9D2NOPR6KS6PRF","A33Z6BHAJUGCHY","382GHPVPHSDM8N0F9141EAH7F0K34Z","","319.20000000298023","img/flower1.png","76","323.20000000298023","3","1","1","2","1,0,0,1,1,0,1,0,1","0,0,1,1,0,1,0,1,1","2",""
"","html-keyboard-response","95","58468","0.0-95.0","3RYC5T2D74F2225U9D2NOPR6KS6PRF","A33Z6BHAJUGCHY","382GHPVPHSDM8N0F9141EAH7F0K34Z","","null","<img src=""img/flower1.png"" style=""width:200px; border:14px solid green;"">","null","","","","","","","","",""
"","image-keyboard-response","96","58759","0.0-96.0","3RYC5T2D74F2225U9D2NOPR6KS6PRF","A33Z6BHAJUGCHY","382GHPVPHSDM8N0F9141EAH7F0K34Z","","286.59999999403954","img/flower5.png","76","291","3","1","3","2","1,0,0,1,1,0,1,0,1","0,0,1,1,0,1,0,1,1","2",""
"","html-keyboard-response","97","59064","0.0-97.0","3RYC5T2D74F2225U9D2NOPR6KS6PRF","A33Z6BHAJUGCHY","382GHPVPHSDM8N0F9141EAH7F0K34Z","","null","<img src=""img/flower5.png"" style=""width:200px; border:14px solid green;"">","null","","","","","","","","",""
"","image-keyboard-response","98","59219","0.0-98.0","3RYC5T2D74F2225U9D2NOPR6KS6PRF","A33Z6BHAJUGCHY","382GHPVPHSDM8N0F9141EAH7F0K34Z","","144.79999999701977","img/flower5.png","76","152.40000000596046","3","1","3","2","1,0,0,1,1,0,1,0,1","0,0,1,1,0,1,0,1,1","2",""
"","html-keyboard-response","99","59524","0.0-99.0","3RYC5T2D74F2225U9D2NOPR6KS6PRF","A33Z6BHAJUGCHY","382GHPVPHSDM8N0F9141EAH7F0K34Z","","null","<img src=""img/flower5.png"" style=""width:200px; border:14px solid green;"">","null","","","","","","","","",""
"","image-keyboard-response","100","59653","0.0-100.0","3RYC5T2D74F2225U9D2NOPR6KS6PRF","A33Z6BHAJUGCHY","382GHPVPHSDM8N0F9141EAH7F0K34Z","","124.29999999701977","img/flower1.png","76","129","3","1","1","2","1,0,0,1,1,0,1,0,1","0,0,1,1,0,1,0,1,1","2",""
"","html-keyboard-response","101","59959","0.0-101.0","3RYC5T2D74F2225U9D2NOPR6KS6PRF","A33Z6BHAJUGCHY","382GHPVPHSDM8N0F9141EAH7F0K34Z","","null","<img src=""img/flower1.png"" style=""width:200px; border:14px solid green;"">","null","","","","","","","","",""
"","image-keyboard-response","102","60087","0.0-102.0","3RYC5T2D74F2225U9D2NOPR6KS6PRF","A33Z6BHAJUGCHY","382GHPVPHSDM8N0F9141EAH7F0K34Z","","121.09999999403954","img/flower1.png","76","126.20000000298023","3","1","1","2","1,0,0,1,1,0,1,0,1","0,0,1,1,0,1,0,1,1","2",""
"","html-keyboard-response","103","60394","0.0-103.0","3RYC5T2D74F2225U9D2NOPR6KS6PRF","A33Z6BHAJUGCHY","382GHPVPHSDM8N0F9141EAH7F0K34Z","","null","<img src=""img/flower1.png"" style=""width:200px; border:14px solid green;"">","null","","","","","","","","",""
"","image-keyboard-response","104","60509","0.0-104.0","3RYC5T2D74F2225U9D2NOPR6KS6PRF","A33Z6BHAJUGCHY","382GHPVPHSDM8N0F9141EAH7F0K34Z","","108","img/flower5.png","76","113.29999999701977","3","1","3","2","1,0,0,1,1,0,1,0,1","0,0,1,1,0,1,0,1,1","2",""
"","html-keyboard-response","105","60813","0.0-105.0","3RYC5T2D74F2225U9D2NOPR6KS6PRF","A33Z6BHAJUGCHY","382GHPVPHSDM8N0F9141EAH7F0K34Z","","null","<img src=""img/flower5.png"" style=""width:200px; border:14px solid green;"">","null","","","","","","","","",""
"","image-keyboard-response","106","60936","0.0-106.0","3RYC5T2D74F2225U9D2NOPR6KS6PRF","A33Z6BHAJUGCHY","382GHPVPHSDM8N0F9141EAH7F0K34Z","","118.3999999910593","img/flower1.png","76","121.8999999910593","3","1","1","2","1,0,0,1,1,0,1,0,1","0,0,1,1,0,1,0,1,1","2",""
"","html-keyboard-response","107","61242","0.0-107.0","3RYC5T2D74F2225U9D2NOPR6KS6PRF","A33Z6BHAJUGCHY","382GHPVPHSDM8N0F9141EAH7F0K34Z","","null","<img src=""img/flower1.png"" style=""width:200px; border:14px solid green;"">","null","","","","","","","","",""
"","image-keyboard-response","108","61330","0.0-108.0","3RYC5T2D74F2225U9D2NOPR6KS6PRF","A33Z6BHAJUGCHY","382GHPVPHSDM8N0F9141EAH7F0K34Z","","82.20000000298023","img/flower1.png","76","87.20000000298023","3","1","1","2","1,0,0,1,1,0,1,0,1","0,0,1,1,0,1,0,1,1","2",""
"","html-keyboard-response","109","61636","0.0-109.0","3RYC5T2D74F2225U9D2NOPR6KS6PRF","A33Z6BHAJUGCHY","382GHPVPHSDM8N0F9141EAH7F0K34Z","","null","<img src=""img/flower1.png"" style=""width:200px; border:14px solid green;"">","null","","","","","","","","",""
"","image-keyboard-response","110","62315","0.0-110.0","3RYC5T2D74F2225U9D2NOPR6KS6PRF","A33Z6BHAJUGCHY","382GHPVPHSDM8N0F9141EAH7F0K34Z","","670.8999999910593","img/flower6.png","74","676.9000000059605","1","1","2","2","1,0,0,1,1,0,1,0,1","0,0,1,1,0,1,0,1,1","2",""
"","html-keyboard-response","111","62621","0.0-111.0","3RYC5T2D74F2225U9D2NOPR6KS6PRF","A33Z6BHAJUGCHY","382GHPVPHSDM8N0F9141EAH7F0K34Z","","null","<img src=""img/flower6.png"" style=""width:200px; border:14px solid green;"">","null","","","","","","","","",""
"","image-keyboard-response","112","63172","0.0-112.0","3RYC5T2D74F2225U9D2NOPR6KS6PRF","A33Z6BHAJUGCHY","382GHPVPHSDM8N0F9141EAH7F0K34Z","","547.5","img/flower5.png","75","550.7000000029802","2","1","3","2","1,0,0,1,1,0,1,0,1","0,0,1,1,0,1,0,1,1","2",""
"","html-keyboard-response","113","63478","0.0-113.0","3RYC5T2D74F2225U9D2NOPR6KS6PRF","A33Z6BHAJUGCHY","382GHPVPHSDM8N0F9141EAH7F0K34Z","","null","<img src=""img/flower5.png"" style=""width:200px; border:14px solid green;"">","null","","","","","","","","",""
"","image-keyboard-response","114","64172","0.0-114.0","3RYC5T2D74F2225U9D2NOPR6KS6PRF","A33Z6BHAJUGCHY","382GHPVPHSDM8N0F9141EAH7F0K34Z","","686.8000000119209","img/flower6.png","74","692.2000000029802","1","1","2","2","1,0,0,1,1,0,1,0,1","0,0,1,1,0,1,0,1,1","2",""
"","html-keyboard-response","115","64478","0.0-115.0","3RYC5T2D74F2225U9D2NOPR6KS6PRF","A33Z6BHAJUGCHY","382GHPVPHSDM8N0F9141EAH7F0K34Z","","null","<img src=""img/flower6.png"" style=""width:200px; border:14px solid green;"">","null","","","","","","","","",""
"","image-keyboard-response","116","64931","0.0-116.0","3RYC5T2D74F2225U9D2NOPR6KS6PRF","A33Z6BHAJUGCHY","382GHPVPHSDM8N0F9141EAH7F0K34Z","","447","img/flower5.png","75","451.5","2","1","3","2","1,0,0,1,1,0,1,0,1","0,0,1,1,0,1,0,1,1","2",""
"","html-keyboard-response","117","65235","0.0-117.0","3RYC5T2D74F2225U9D2NOPR6KS6PRF","A33Z6BHAJUGCHY","382GHPVPHSDM8N0F9141EAH7F0K34Z","","null","<img src=""img/flower5.png"" style=""width:200px; border:14px solid green;"">","null","","","","","","","","",""
"","image-keyboard-response","118","65715","0.0-118.0","3RYC5T2D74F2225U9D2NOPR6KS6PRF","A33Z6BHAJUGCHY","382GHPVPHSDM8N0F9141EAH7F0K34Z","","473.29999999701977","img/flower1.png","75","478.70000000298023","2","0","1","2","1,0,0,1,1,0,1,0,1","0,0,1,1,0,1,0,1,1","2",""
"","html-keyboard-response","119","66021","0.0-119.0","3RYC5T2D74F2225U9D2NOPR6KS6PRF","A33Z6BHAJUGCHY","382GHPVPHSDM8N0F9141EAH7F0K34Z","","null","<img src=""img/flower1.png"" style=""width:200px;border:14px solid red;"">","null","","","","","","","","",""
"","image-keyboard-response","120","66602","0.0-120.0","3RYC5T2D74F2225U9D2NOPR6KS6PRF","A33Z6BHAJUGCHY","382GHPVPHSDM8N0F9141EAH7F0K34Z","","574.7000000029802","img/flower6.png","74","579.4000000059605","1","1","2","2","1,0,0,1,1,0,1,0,1","0,0,1,1,0,1,0,1,1","2",""
"","html-keyboard-response","121","66905","0.0-121.0","3RYC5T2D74F2225U9D2NOPR6KS6PRF","A33Z6BHAJUGCHY","382GHPVPHSDM8N0F9141EAH7F0K34Z","","null","<img src=""img/flower6.png"" style=""width:200px; border:14px solid green;"">","null","","","","","","","","",""
"","image-keyboard-response","122","67510","0.0-122.0","3RYC5T2D74F2225U9D2NOPR6KS6PRF","A33Z6BHAJUGCHY","382GHPVPHSDM8N0F9141EAH7F0K34Z","","600.4000000059605","img/flower5.png","75","604.7999999970198","2","1","3","2","1,0,0,1,1,0,1,0,1","0,0,1,1,0,1,0,1,1","2",""
"","html-keyboard-response","123","67817","0.0-123.0","3RYC5T2D74F2225U9D2NOPR6KS6PRF","A33Z6BHAJUGCHY","382GHPVPHSDM8N0F9141EAH7F0K34Z","","null","<img src=""img/flower5.png"" style=""width:200px; border:14px solid green;"">","null","","","","","","","","",""
"","image-keyboard-response","124","68148","0.0-124.0","3RYC5T2D74F2225U9D2NOPR6KS6PRF","A33Z6BHAJUGCHY","382GHPVPHSDM8N0F9141EAH7F0K34Z","","322.79999999701977","img/flower5.png","75","328.90000000596046","2","1","3","2","1,0,0,1,1,0,1,0,1","0,0,1,1,0,1,0,1,1","2",""
"","html-keyboard-response","125","68455","0.0-125.0","3RYC5T2D74F2225U9D2NOPR6KS6PRF","A33Z6BHAJUGCHY","382GHPVPHSDM8N0F9141EAH7F0K34Z","","null","<img src=""img/flower5.png"" style=""width:200px; border:14px solid green;"">","null","","","","","","","","",""
"","image-keyboard-response","126","68702","0.0-126.0","3RYC5T2D74F2225U9D2NOPR6KS6PRF","A33Z6BHAJUGCHY","382GHPVPHSDM8N0F9141EAH7F0K34Z","","242.70000000298023","img/flower5.png","75","246.3999999910593","2","1","3","2","1,0,0,1,1,0,1,0,1","0,0,1,1,0,1,0,1,1","2",""
"","html-keyboard-response","127","69005","0.0-127.0","3RYC5T2D74F2225U9D2NOPR6KS6PRF","A33Z6BHAJUGCHY","382GHPVPHSDM8N0F9141EAH7F0K34Z","","null","<img src=""img/flower5.png"" style=""width:200px; border:14px solid green;"">","null","","","","","","","","",""
"","image-keyboard-response","128","69567","0.0-128.0","3RYC5T2D74F2225U9D2NOPR6KS6PRF","A33Z6BHAJUGCHY","382GHPVPHSDM8N0F9141EAH7F0K34Z","","557.7000000029802","img/flower6.png","76","560.8999999910593","3","1","2","2","1,0,0,1,1,0,1,0,1","0,0,1,1,0,1,0,1,1","2",""
"","html-keyboard-response","129","69872","0.0-129.0","3RYC5T2D74F2225U9D2NOPR6KS6PRF","A33Z6BHAJUGCHY","382GHPVPHSDM8N0F9141EAH7F0K34Z","","null","<img src=""img/flower6.png"" style=""width:200px; border:14px solid green;"">","null","","","","","","","","",""
"","image-keyboard-response","130","70122","0.0-130.0","3RYC5T2D74F2225U9D2NOPR6KS6PRF","A33Z6BHAJUGCHY","382GHPVPHSDM8N0F9141EAH7F0K34Z","","243.5","img/flower6.png","76","249.19999998807907","3","1","2","2","1,0,0,1,1,0,1,0,1","0,0,1,1,0,1,0,1,1","2",""
"","html-keyboard-response","131","70426","0.0-131.0","3RYC5T2D74F2225U9D2NOPR6KS6PRF","A33Z6BHAJUGCHY","382GHPVPHSDM8N0F9141EAH7F0K34Z","","null","<img src=""img/flower6.png"" style=""width:200px; border:14px solid green;"">","null","","","","","","","","",""
"","image-keyboard-response","132","70466","0.0-132.0","3RYC5T2D74F2225U9D2NOPR6KS6PRF","A33Z6BHAJUGCHY","382GHPVPHSDM8N0F9141EAH7F0K34Z","","36.30000001192093","img/flower1.png","76","39.6000000089407","3","1","1","2","1,0,0,1,1,0,1,0,1","0,0,1,1,0,1,0,1,1","2",""
"","html-keyboard-response","133","70772","0.0-133.0","3RYC5T2D74F2225U9D2NOPR6KS6PRF","A33Z6BHAJUGCHY","382GHPVPHSDM8N0F9141EAH7F0K34Z","","null","<img src=""img/flower1.png"" style=""width:200px; border:14px solid green;"">","null","","","","","","","","",""
"","image-keyboard-response","134","70850","0.0-134.0","3RYC5T2D74F2225U9D2NOPR6KS6PRF","A33Z6BHAJUGCHY","382GHPVPHSDM8N0F9141EAH7F0K34Z","","74.5","img/flower6.png","76","77.5","3","1","2","2","1,0,0,1,1,0,1,0,1","0,0,1,1,0,1,0,1,1","2",""
"","html-keyboard-response","135","71155","0.0-135.0","3RYC5T2D74F2225U9D2NOPR6KS6PRF","A33Z6BHAJUGCHY","382GHPVPHSDM8N0F9141EAH7F0K34Z","","null","<img src=""img/flower6.png"" style=""width:200px; border:14px solid green;"">","null","","","","","","","","",""
"","image-keyboard-response","136","71172","0.0-136.0","3RYC5T2D74F2225U9D2NOPR6KS6PRF","A33Z6BHAJUGCHY","382GHPVPHSDM8N0F9141EAH7F0K34Z","","10.700000002980232","img/flower1.png","76","15.099999994039536","3","1","1","2","1,0,0,1,1,0,1,0,1","0,0,1,1,0,1,0,1,1","2",""
"","html-keyboard-response","137","71476","0.0-137.0","3RYC5T2D74F2225U9D2NOPR6KS6PRF","A33Z6BHAJUGCHY","382GHPVPHSDM8N0F9141EAH7F0K34Z","","null","<img src=""img/flower1.png"" style=""width:200px; border:14px solid green;"">","null","","","","","","","","",""
"","image-keyboard-response","138","71510","0.0-138.0","3RYC5T2D74F2225U9D2NOPR6KS6PRF","A33Z6BHAJUGCHY","382GHPVPHSDM8N0F9141EAH7F0K34Z","","26.600000008940697","img/flower6.png","76","32.29999999701977","3","1","2","2","1,0,0,1,1,0,1,0,1","0,0,1,1,0,1,0,1,1","2",""
"","html-keyboard-response","139","71815","0.0-139.0","3RYC5T2D74F2225U9D2NOPR6KS6PRF","A33Z6BHAJUGCHY","382GHPVPHSDM8N0F9141EAH7F0K34Z","","null","<img src=""img/flower6.png"" style=""width:200px; border:14px solid green;"">","null","","","","","","","","",""
"","image-keyboard-response","140","71840","0.0-140.0","3RYC5T2D74F2225U9D2NOPR6KS6PRF","A33Z6BHAJUGCHY","382GHPVPHSDM8N0F9141EAH7F0K34Z","","19.69999998807907","img/flower6.png","76","24","3","1","2","2","1,0,0,1,1,0,1,0,1","0,0,1,1,0,1,0,1,1","2",""
"","html-keyboard-response","141","72145","0.0-141.0","3RYC5T2D74F2225U9D2NOPR6KS6PRF","A33Z6BHAJUGCHY","382GHPVPHSDM8N0F9141EAH7F0K34Z","","null","<img src=""img/flower6.png"" style=""width:200px; border:14px solid green;"">","null","","","","","","","","",""
"","image-keyboard-response","142","72155","0.0-142.0","3RYC5T2D74F2225U9D2NOPR6KS6PRF","A33Z6BHAJUGCHY","382GHPVPHSDM8N0F9141EAH7F0K34Z","","4.899999991059303","img/flower6.png","76","8.699999988079071","3","1","2","2","1,0,0,1,1,0,1,0,1","0,0,1,1,0,1,0,1,1","2",""
"","html-keyboard-response","143","72459","0.0-143.0","3RYC5T2D74F2225U9D2NOPR6KS6PRF","A33Z6BHAJUGCHY","382GHPVPHSDM8N0F9141EAH7F0K34Z","","null","<img src=""img/flower6.png"" style=""width:200px; border:14px solid green;"">","null","","","","","","","","",""
"","image-keyboard-response","144","72472","0.0-144.0","3RYC5T2D74F2225U9D2NOPR6KS6PRF","A33Z6BHAJUGCHY","382GHPVPHSDM8N0F9141EAH7F0K34Z","","9.299999997019768","img/flower5.png","76","12.300000011920929","3","1","3","2","1,0,0,1,1,0,1,0,1","0,0,1,1,0,1,0,1,1","2",""
"","html-keyboard-response","145","72778","0.0-145.0","3RYC5T2D74F2225U9D2NOPR6KS6PRF","A33Z6BHAJUGCHY","382GHPVPHSDM8N0F9141EAH7F0K34Z","","null","<img src=""img/flower5.png"" style=""width:200px; border:14px solid green;"">","null","","","","","","","","",""
"","image-keyboard-response","146","72822","0.0-146.0","3RYC5T2D74F2225U9D2NOPR6KS6PRF","A33Z6BHAJUGCHY","382GHPVPHSDM8N0F9141EAH7F0K34Z","","38.5","img/flower6.png","76","43.5","3","1","2","2","1,0,0,1,1,0,1,0,1","0,0,1,1,0,1,0,1,1","2",""
"","html-keyboard-response","147","73126","0.0-147.0","3RYC5T2D74F2225U9D2NOPR6KS6PRF","A33Z6BHAJUGCHY","382GHPVPHSDM8N0F9141EAH7F0K34Z","","null","<img src=""img/flower6.png"" style=""width:200px; border:14px solid green;"">","null","","","","","","","","",""
"","image-keyboard-response","148","73138","0.0-148.0","3RYC5T2D74F2225U9D2NOPR6KS6PRF","A33Z6BHAJUGCHY","382GHPVPHSDM8N0F9141EAH7F0K34Z","","6.799999997019768","img/flower6.png","76","10.799999997019768","3","1","2","2","1,0,0,1,1,0,1,0,1","0,0,1,1,0,1,0,1,1","2",""
"","html-keyboard-response","149","73442","0.0-149.0","3RYC5T2D74F2225U9D2NOPR6KS6PRF","A33Z6BHAJUGCHY","382GHPVPHSDM8N0F9141EAH7F0K34Z","","null","<img src=""img/flower6.png"" style=""width:200px; border:14px solid green;"">","null","","","","","","","","",""
"","image-keyboard-response","150","73449","0.0-150.0","3RYC5T2D74F2225U9D2NOPR6KS6PRF","A33Z6BHAJUGCHY","382GHPVPHSDM8N0F9141EAH7F0K34Z","","0.7999999970197678","img/flower1.png","76","5.699999988079071","3","1","1","2","1,0,0,1,1,0,1,0,1","0,0,1,1,0,1,0,1,1","2",""
"","html-keyboard-response","151","73753","0.0-151.0","3RYC5T2D74F2225U9D2NOPR6KS6PRF","A33Z6BHAJUGCHY","382GHPVPHSDM8N0F9141EAH7F0K34Z","","null","<img src=""img/flower1.png"" style=""width:200px; border:14px solid green;"">","null","","","","","","","","",""
"","image-keyboard-response","152","73771","0.0-152.0","3RYC5T2D74F2225U9D2NOPR6KS6PRF","A33Z6BHAJUGCHY","382GHPVPHSDM8N0F9141EAH7F0K34Z","","11.700000002980232","img/flower6.png","76","16.19999998807907","3","1","2","2","1,0,0,1,1,0,1,0,1","0,0,1,1,0,1,0,1,1","2",""
"","html-keyboard-response","153","74075","0.0-153.0","3RYC5T2D74F2225U9D2NOPR6KS6PRF","A33Z6BHAJUGCHY","382GHPVPHSDM8N0F9141EAH7F0K34Z","","null","<img src=""img/flower6.png"" style=""width:200px; border:14px solid green;"">","null","","","","","","","","",""
"","image-keyboard-response","154","74092","0.0-154.0","3RYC5T2D74F2225U9D2NOPR6KS6PRF","A33Z6BHAJUGCHY","382GHPVPHSDM8N0F9141EAH7F0K34Z","","11","img/flower6.png","76","15.699999988079071","3","1","2","2","1,0,0,1,1,0,1,0,1","0,0,1,1,0,1,0,1,1","2",""
"","html-keyboard-response","155","74399","0.0-155.0","3RYC5T2D74F2225U9D2NOPR6KS6PRF","A33Z6BHAJUGCHY","382GHPVPHSDM8N0F9141EAH7F0K34Z","","null","<img src=""img/flower6.png"" style=""width:200px; border:14px solid green;"">","null","","","","","","","","",""
"","image-keyboard-response","156","74727","0.0-156.0","3RYC5T2D74F2225U9D2NOPR6KS6PRF","A33Z6BHAJUGCHY","382GHPVPHSDM8N0F9141EAH7F0K34Z","","323.40000000596046","img/flower6.png","76","327.09999999403954","3","1","2","2","1,0,0,1,1,0,1,0,1","0,0,1,1,0,1,0,1,1","2",""
"","html-keyboard-response","157","75030","0.0-157.0","3RYC5T2D74F2225U9D2NOPR6KS6PRF","A33Z6BHAJUGCHY","382GHPVPHSDM8N0F9141EAH7F0K34Z","","null","<img src=""img/flower6.png"" style=""width:200px; border:14px solid green;"">","null","","","","","","","","",""
"","image-keyboard-response","158","75193","0.0-158.0","3RYC5T2D74F2225U9D2NOPR6KS6PRF","A33Z6BHAJUGCHY","382GHPVPHSDM8N0F9141EAH7F0K34Z","","158.29999999701977","img/flower6.png","76","162.59999999403954","3","1","2","2","1,0,0,1,1,0,1,0,1","0,0,1,1,0,1,0,1,1","2",""
"","html-keyboard-response","159","75499","0.0-159.0","3RYC5T2D74F2225U9D2NOPR6KS6PRF","A33Z6BHAJUGCHY","382GHPVPHSDM8N0F9141EAH7F0K34Z","","null","<img src=""img/flower6.png"" style=""width:200px; border:14px solid green;"">","null","","","","","","","","",""
"","image-keyboard-response","160","75589","0.0-160.0","3RYC5T2D74F2225U9D2NOPR6KS6PRF","A33Z6BHAJUGCHY","382GHPVPHSDM8N0F9141EAH7F0K34Z","","83.29999999701977","img/flower6.png","76","88.20000000298023","3","1","2","2","1,0,0,1,1,0,1,0,1","0,0,1,1,0,1,0,1,1","2",""
"","html-keyboard-response","161","75893","0.0-161.0","3RYC5T2D74F2225U9D2NOPR6KS6PRF","A33Z6BHAJUGCHY","382GHPVPHSDM8N0F9141EAH7F0K34Z","","null","<img src=""img/flower6.png"" style=""width:200px; border:14px solid green;"">","null","","","","","","","","",""
"","image-keyboard-response","162","76003","0.0-162.0","3RYC5T2D74F2225U9D2NOPR6KS6PRF","A33Z6BHAJUGCHY","382GHPVPHSDM8N0F9141EAH7F0K34Z","","102.79999999701977","img/flower5.png","76","109.59999999403954","3","1","3","2","1,0,0,1,1,0,1,0,1","0,0,1,1,0,1,0,1,1","2",""
"","html-keyboard-response","163","76310","0.0-163.0","3RYC5T2D74F2225U9D2NOPR6KS6PRF","A33Z6BHAJUGCHY","382GHPVPHSDM8N0F9141EAH7F0K34Z","","null","<img src=""img/flower5.png"" style=""width:200px; border:14px solid green;"">","null","","","","","","","","",""
"","image-keyboard-response","164","76429","0.0-164.0","3RYC5T2D74F2225U9D2NOPR6KS6PRF","A33Z6BHAJUGCHY","382GHPVPHSDM8N0F9141EAH7F0K34Z","","114.3999999910593","img/flower1.png","76","117.5","3","1","1","2","1,0,0,1,1,0,1,0,1","0,0,1,1,0,1,0,1,1","2",""
"","html-keyboard-response","165","76734","0.0-165.0","3RYC5T2D74F2225U9D2NOPR6KS6PRF","A33Z6BHAJUGCHY","382GHPVPHSDM8N0F9141EAH7F0K34Z","","null","<img src=""img/flower1.png"" style=""width:200px; border:14px solid green;"">","null","","","","","","","","",""
"","image-keyboard-response","166","76826","0.0-166.0","3RYC5T2D74F2225U9D2NOPR6KS6PRF","A33Z6BHAJUGCHY","382GHPVPHSDM8N0F9141EAH7F0K34Z","","87.30000001192093","img/flower6.png","76","91.09999999403954","3","1","2","2","1,0,0,1,1,0,1,0,1","0,0,1,1,0,1,0,1,1","2",""
"","html-keyboard-response","167","77130","0.0-167.0","3RYC5T2D74F2225U9D2NOPR6KS6PRF","A33Z6BHAJUGCHY","382GHPVPHSDM8N0F9141EAH7F0K34Z","","null","<img src=""img/flower6.png"" style=""width:200px; border:14px solid green;"">","null","","","","","","","","",""
"","image-keyboard-response","168","77196","0.0-168.0","3RYC5T2D74F2225U9D2NOPR6KS6PRF","A33Z6BHAJUGCHY","382GHPVPHSDM8N0F9141EAH7F0K34Z","","61.69999998807907","img/flower1.png","76","65.20000000298023","3","1","1","2","1,0,0,1,1,0,1,0,1","0,0,1,1,0,1,0,1,1","2",""
"","html-keyboard-response","169","77499","0.0-169.0","3RYC5T2D74F2225U9D2NOPR6KS6PRF","A33Z6BHAJUGCHY","382GHPVPHSDM8N0F9141EAH7F0K34Z","","null","<img src=""img/flower1.png"" style=""width:200px; border:14px solid green;"">","null","","","","","","","","",""
"","image-keyboard-response","170","77575","0.0-170.0","3RYC5T2D74F2225U9D2NOPR6KS6PRF","A33Z6BHAJUGCHY","382GHPVPHSDM8N0F9141EAH7F0K34Z","","70.79999999701977","img/flower1.png","76","75.29999999701977","3","1","1","2","1,0,0,1,1,0,1,0,1","0,0,1,1,0,1,0,1,1","2",""
"","html-keyboard-response","171","77880","0.0-171.0","3RYC5T2D74F2225U9D2NOPR6KS6PRF","A33Z6BHAJUGCHY","382GHPVPHSDM8N0F9141EAH7F0K34Z","","null","<img src=""img/flower1.png"" style=""width:200px; border:14px solid green;"">","null","","","","","","","","",""
"","image-keyboard-response","172","77915","0.0-172.0","3RYC5T2D74F2225U9D2NOPR6KS6PRF","A33Z6BHAJUGCHY","382GHPVPHSDM8N0F9141EAH7F0K34Z","","27.5","img/flower1.png","76","32.70000000298023","3","1","1","2","1,0,0,1,1,0,1,0,1","0,0,1,1,0,1,0,1,1","2",""
"","html-keyboard-response","173","78220","0.0-173.0","3RYC5T2D74F2225U9D2NOPR6KS6PRF","A33Z6BHAJUGCHY","382GHPVPHSDM8N0F9141EAH7F0K34Z","","null","<img src=""img/flower1.png"" style=""width:200px; border:14px solid green;"">","null","","","","","","","","",""
"","image-keyboard-response","174","78300","0.0-174.0","3RYC5T2D74F2225U9D2NOPR6KS6PRF","A33Z6BHAJUGCHY","382GHPVPHSDM8N0F9141EAH7F0K34Z","","73.70000000298023","img/flower6.png","76","79","3","1","2","2","1,0,0,1,1,0,1,0,1","0,0,1,1,0,1,0,1,1","2",""
"","html-keyboard-response","175","78606","0.0-175.0","3RYC5T2D74F2225U9D2NOPR6KS6PRF","A33Z6BHAJUGCHY","382GHPVPHSDM8N0F9141EAH7F0K34Z","","null","<img src=""img/flower6.png"" style=""width:200px; border:14px solid green;"">","null","","","","","","","","",""
"","image-keyboard-response","176","78662","0.0-176.0","3RYC5T2D74F2225U9D2NOPR6KS6PRF","A33Z6BHAJUGCHY","382GHPVPHSDM8N0F9141EAH7F0K34Z","","53","img/flower1.png","76","55.70000000298023","3","1","1","2","1,0,0,1,1,0,1,0,1","0,0,1,1,0,1,0,1,1","2",""
"","html-keyboard-response","177","78966","0.0-177.0","3RYC5T2D74F2225U9D2NOPR6KS6PRF","A33Z6BHAJUGCHY","382GHPVPHSDM8N0F9141EAH7F0K34Z","","null","<img src=""img/flower1.png"" style=""width:200px; border:14px solid green;"">","null","","","","","","","","",""
"","image-keyboard-response","178","79012","0.0-178.0","3RYC5T2D74F2225U9D2NOPR6KS6PRF","A33Z6BHAJUGCHY","382GHPVPHSDM8N0F9141EAH7F0K34Z","","41.5","img/flower5.png","76","45.5","3","1","3","2","1,0,0,1,1,0,1,0,1","0,0,1,1,0,1,0,1,1","2",""
"","html-keyboard-response","179","79318","0.0-179.0","3RYC5T2D74F2225U9D2NOPR6KS6PRF","A33Z6BHAJUGCHY","382GHPVPHSDM8N0F9141EAH7F0K34Z","","null","<img src=""img/flower5.png"" style=""width:200px; border:14px solid green;"">","null","","","","","","","","",""
"","image-keyboard-response","180","79424","0.0-180.0","3RYC5T2D74F2225U9D2NOPR6KS6PRF","A33Z6BHAJUGCHY","382GHPVPHSDM8N0F9141EAH7F0K34Z","","99.40000000596046","img/flower1.png","76","104.6000000089407","3","1","1","2","1,0,0,1,1,0,1,0,1","0,0,1,1,0,1,0,1,1","2",""
"","html-keyboard-response","181","79729","0.0-181.0","3RYC5T2D74F2225U9D2NOPR6KS6PRF","A33Z6BHAJUGCHY","382GHPVPHSDM8N0F9141EAH7F0K34Z","","null","<img src=""img/flower1.png"" style=""width:200px; border:14px solid green;"">","null","","","","","","","","",""
"","image-keyboard-response","182","79801","0.0-182.0","3RYC5T2D74F2225U9D2NOPR6KS6PRF","A33Z6BHAJUGCHY","382GHPVPHSDM8N0F9141EAH7F0K34Z","","66.6000000089407","img/flower4.png","76","71.09999999403954","3","1","3","1","1,0.333,0.333,0.333,1,0.333,0.333,0.333,1","1,0.333,0.333,0.333,1,0.333,0.333,0.333,1","1",""
"","html-keyboard-response","183","80231","0.0-183.0","3RYC5T2D74F2225U9D2NOPR6KS6PRF","A33Z6BHAJUGCHY","382GHPVPHSDM8N0F9141EAH7F0K34Z","","null","<img src=""img/flower4.png"" style=""width:200px; border:14px solid green;"">","null","","","","","","","","",""
"","image-keyboard-response","184","80458","0.0-184.0","3RYC5T2D74F2225U9D2NOPR6KS6PRF","A33Z6BHAJUGCHY","382GHPVPHSDM8N0F9141EAH7F0K34Z","","221.09999999403954","img/flower4.png","76","225.5","3","1","3","1","1,0.333,0.333,0.333,1,0.333,0.333,0.333,1","1,0.333,0.333,0.333,1,0.333,0.333,0.333,1","1",""
"","html-keyboard-response","185","80763","0.0-185.0","3RYC5T2D74F2225U9D2NOPR6KS6PRF","A33Z6BHAJUGCHY","382GHPVPHSDM8N0F9141EAH7F0K34Z","","null","<img src=""img/flower4.png"" style=""width:200px; border:14px solid green;"">","null","","","","","","","","",""
"","image-keyboard-response","186","80874","0.0-186.0","3RYC5T2D74F2225U9D2NOPR6KS6PRF","A33Z6BHAJUGCHY","382GHPVPHSDM8N0F9141EAH7F0K34Z","","107.59999999403954","img/flower2.png","76","110.09999999403954","3","1","2","1","1,0.333,0.333,0.333,1,0.333,0.333,0.333,1","1,0.333,0.333,0.333,1,0.333,0.333,0.333,1","1",""
"","html-keyboard-response","187","81178","0.0-187.0","3RYC5T2D74F2225U9D2NOPR6KS6PRF","A33Z6BHAJUGCHY","382GHPVPHSDM8N0F9141EAH7F0K34Z","","null","<img src=""img/flower2.png"" style=""width:200px; border:14px solid green;"">","null","","","","","","","","",""
"","image-keyboard-response","188","81294","0.0-188.0","3RYC5T2D74F2225U9D2NOPR6KS6PRF","A33Z6BHAJUGCHY","382GHPVPHSDM8N0F9141EAH7F0K34Z","","109","img/flower3.png","76","114.90000000596046","3","1","1","1","1,0.333,0.333,0.333,1,0.333,0.333,0.333,1","1,0.333,0.333,0.333,1,0.333,0.333,0.333,1","1",""
"","html-keyboard-response","189","81601","0.0-189.0","3RYC5T2D74F2225U9D2NOPR6KS6PRF","A33Z6BHAJUGCHY","382GHPVPHSDM8N0F9141EAH7F0K34Z","","null","<img src=""img/flower3.png"" style=""width:200px; border:14px solid green;"">","null","","","","","","","","",""
"","image-keyboard-response","190","81642","0.0-190.0","3RYC5T2D74F2225U9D2NOPR6KS6PRF","A33Z6BHAJUGCHY","382GHPVPHSDM8N0F9141EAH7F0K34Z","","35.29999999701977","img/flower4.png","76","40.20000000298023","3","1","3","1","1,0.333,0.333,0.333,1,0.333,0.333,0.333,1","1,0.333,0.333,0.333,1,0.333,0.333,0.333,1","1",""
"","html-keyboard-response","191","81948","0.0-191.0","3RYC5T2D74F2225U9D2NOPR6KS6PRF","A33Z6BHAJUGCHY","382GHPVPHSDM8N0F9141EAH7F0K34Z","","null","<img src=""img/flower4.png"" style=""width:200px; border:14px solid green;"">","null","","","","","","","","",""
"","image-keyboard-response","192","81992","0.0-192.0","3RYC5T2D74F2225U9D2NOPR6KS6PRF","A33Z6BHAJUGCHY","382GHPVPHSDM8N0F9141EAH7F0K34Z","","38","img/flower2.png","76","42.5","3","0","2","1","1,0.333,0.333,0.333,1,0.333,0.333,0.333,1","1,0.333,0.333,0.333,1,0.333,0.333,0.333,1","1",""
"","html-keyboard-response","193","82296","0.0-193.0","3RYC5T2D74F2225U9D2NOPR6KS6PRF","A33Z6BHAJUGCHY","382GHPVPHSDM8N0F9141EAH7F0K34Z","","null","<img src=""img/flower2.png"" style=""width:200px;border:14px solid red;"">","null","","","","","","","","",""
"","image-keyboard-response","194","82345","0.0-194.0","3RYC5T2D74F2225U9D2NOPR6KS6PRF","A33Z6BHAJUGCHY","382GHPVPHSDM8N0F9141EAH7F0K34Z","","42.900000005960464","img/flower3.png","76","48.3999999910593","3","1","1","1","1,0.333,0.333,0.333,1,0.333,0.333,0.333,1","1,0.333,0.333,0.333,1,0.333,0.333,0.333,1","1",""
"","html-keyboard-response","195","82652","0.0-195.0","3RYC5T2D74F2225U9D2NOPR6KS6PRF","A33Z6BHAJUGCHY","382GHPVPHSDM8N0F9141EAH7F0K34Z","","null","<img src=""img/flower3.png"" style=""width:200px; border:14px solid green;"">","null","","","","","","","","",""
"","image-keyboard-response","196","82762","0.0-196.0","3RYC5T2D74F2225U9D2NOPR6KS6PRF","A33Z6BHAJUGCHY","382GHPVPHSDM8N0F9141EAH7F0K34Z","","105.90000000596046","img/flower2.png","76","109.29999999701977","3","0","2","1","1,0.333,0.333,0.333,1,0.333,0.333,0.333,1","1,0.333,0.333,0.333,1,0.333,0.333,0.333,1","1",""
"","html-keyboard-response","197","83066","0.0-197.0","3RYC5T2D74F2225U9D2NOPR6KS6PRF","A33Z6BHAJUGCHY","382GHPVPHSDM8N0F9141EAH7F0K34Z","","null","<img src=""img/flower2.png"" style=""width:200px;border:14px solid red;"">","null","","","","","","","","",""
"","image-keyboard-response","198","83519","0.0-198.0","3RYC5T2D74F2225U9D2NOPR6KS6PRF","A33Z6BHAJUGCHY","382GHPVPHSDM8N0F9141EAH7F0K34Z","","443.20000000298023","img/flower3.png","75","445.80000001192093","2","0","1","1","1,0.333,0.333,0.333,1,0.333,0.333,0.333,1","1,0.333,0.333,0.333,1,0.333,0.333,0.333,1","1",""
"","html-keyboard-response","199","83823","0.0-199.0","3RYC5T2D74F2225U9D2NOPR6KS6PRF","A33Z6BHAJUGCHY","382GHPVPHSDM8N0F9141EAH7F0K34Z","","null","<img src=""img/flower3.png"" style=""width:200px;border:14px solid red;"">","null","","","","","","","","",""
"","image-keyboard-response","200","84271","0.0-200.0","3RYC5T2D74F2225U9D2NOPR6KS6PRF","A33Z6BHAJUGCHY","382GHPVPHSDM8N0F9141EAH7F0K34Z","","441.5","img/flower4.png","76","445.79999999701977","3","1","3","1","1,0.333,0.333,0.333,1,0.333,0.333,0.333,1","1,0.333,0.333,0.333,1,0.333,0.333,0.333,1","1",""
"","html-keyboard-response","201","84577","0.0-201.0","3RYC5T2D74F2225U9D2NOPR6KS6PRF","A33Z6BHAJUGCHY","382GHPVPHSDM8N0F9141EAH7F0K34Z","","null","<img src=""img/flower4.png"" style=""width:200px; border:14px solid green;"">","null","","","","","","","","",""
"","image-keyboard-response","202","84949","0.0-202.0","3RYC5T2D74F2225U9D2NOPR6KS6PRF","A33Z6BHAJUGCHY","382GHPVPHSDM8N0F9141EAH7F0K34Z","","367.79999999701977","img/flower2.png","76","371.70000000298023","3","0","2","1","1,0.333,0.333,0.333,1,0.333,0.333,0.333,1","1,0.333,0.333,0.333,1,0.333,0.333,0.333,1","1",""
"","html-keyboard-response","203","85255","0.0-203.0","3RYC5T2D74F2225U9D2NOPR6KS6PRF","A33Z6BHAJUGCHY","382GHPVPHSDM8N0F9141EAH7F0K34Z","","null","<img src=""img/flower2.png"" style=""width:200px;border:14px solid red;"">","null","","","","","","","","",""
"","image-keyboard-response","204","85870","0.0-204.0","3RYC5T2D74F2225U9D2NOPR6KS6PRF","A33Z6BHAJUGCHY","382GHPVPHSDM8N0F9141EAH7F0K34Z","","610","img/flower3.png","74","614.1000000089407","1","1","1","1","1,0.333,0.333,0.333,1,0.333,0.333,0.333,1","1,0.333,0.333,0.333,1,0.333,0.333,0.333,1","1",""
"","html-keyboard-response","205","86177","0.0-205.0","3RYC5T2D74F2225U9D2NOPR6KS6PRF","A33Z6BHAJUGCHY","382GHPVPHSDM8N0F9141EAH7F0K34Z","","null","<img src=""img/flower3.png"" style=""width:200px; border:14px solid green;"">","null","","","","","","","","",""
"","image-keyboard-response","206","86853","0.0-206.0","3RYC5T2D74F2225U9D2NOPR6KS6PRF","A33Z6BHAJUGCHY","382GHPVPHSDM8N0F9141EAH7F0K34Z","","669.9000000059605","img/flower2.png","75","675.0999999940395","2","1","2","1","1,0.333,0.333,0.333,1,0.333,0.333,0.333,1","1,0.333,0.333,0.333,1,0.333,0.333,0.333,1","1",""
"","html-keyboard-response","207","87158","0.0-207.0","3RYC5T2D74F2225U9D2NOPR6KS6PRF","A33Z6BHAJUGCHY","382GHPVPHSDM8N0F9141EAH7F0K34Z","","null","<img src=""img/flower2.png"" style=""width:200px; border:14px solid green;"">","null","","","","","","","","",""
"","image-keyboard-response","208","87960","0.0-208.0","3RYC5T2D74F2225U9D2NOPR6KS6PRF","A33Z6BHAJUGCHY","382GHPVPHSDM8N0F9141EAH7F0K34Z","","795.6000000089407","img/flower4.png","76","800.9000000059605","3","1","3","1","1,0.333,0.333,0.333,1,0.333,0.333,0.333,1","1,0.333,0.333,0.333,1,0.333,0.333,0.333,1","1",""
"","html-keyboard-response","209","88267","0.0-209.0","3RYC5T2D74F2225U9D2NOPR6KS6PRF","A33Z6BHAJUGCHY","382GHPVPHSDM8N0F9141EAH7F0K34Z","","null","<img src=""img/flower4.png"" style=""width:200px; border:14px solid green;"">","null","","","","","","","","",""
"","image-keyboard-response","210","88902","0.0-210.0","3RYC5T2D74F2225U9D2NOPR6KS6PRF","A33Z6BHAJUGCHY","382GHPVPHSDM8N0F9141EAH7F0K34Z","","628.2000000029802","img/flower3.png","74","633.5999999940395","1","1","1","1","1,0.333,0.333,0.333,1,0.333,0.333,0.333,1","1,0.333,0.333,0.333,1,0.333,0.333,0.333,1","1",""
"","html-keyboard-response","211","89208","0.0-211.0","3RYC5T2D74F2225U9D2NOPR6KS6PRF","A33Z6BHAJUGCHY","382GHPVPHSDM8N0F9141EAH7F0K34Z","","null","<img src=""img/flower3.png"" style=""width:200px; border:14px solid green;"">","null","","","","","","","","",""
"","image-keyboard-response","212","89716","0.0-212.0","3RYC5T2D74F2225U9D2NOPR6KS6PRF","A33Z6BHAJUGCHY","382GHPVPHSDM8N0F9141EAH7F0K34Z","","501.5","img/flower4.png","75","506.90000000596046","2","0","3","1","1,0.333,0.333,0.333,1,0.333,0.333,0.333,1","1,0.333,0.333,0.333,1,0.333,0.333,0.333,1","1",""
"","html-keyboard-response","213","90022","0.0-213.0","3RYC5T2D74F2225U9D2NOPR6KS6PRF","A33Z6BHAJUGCHY","382GHPVPHSDM8N0F9141EAH7F0K34Z","","null","<img src=""img/flower4.png"" style=""width:200px;border:14px solid red;"">","null","","","","","","","","",""
"","image-keyboard-response","214","90578","0.0-214.0","3RYC5T2D74F2225U9D2NOPR6KS6PRF","A33Z6BHAJUGCHY","382GHPVPHSDM8N0F9141EAH7F0K34Z","","549.1000000089407","img/flower3.png","74","554.6000000089407","1","1","1","1","1,0.333,0.333,0.333,1,0.333,0.333,0.333,1","1,0.333,0.333,0.333,1,0.333,0.333,0.333,1","1",""
"","html-keyboard-response","215","90884","0.0-215.0","3RYC5T2D74F2225U9D2NOPR6KS6PRF","A33Z6BHAJUGCHY","382GHPVPHSDM8N0F9141EAH7F0K34Z","","null","<img src=""img/flower3.png"" style=""width:200px; border:14px solid green;"">","null","","","","","","","","",""
"","image-keyboard-response","216","91466","0.0-216.0","3RYC5T2D74F2225U9D2NOPR6KS6PRF","A33Z6BHAJUGCHY","382GHPVPHSDM8N0F9141EAH7F0K34Z","","578.5","img/flower4.png","75","581.9000000059605","2","0","3","1","1,0.333,0.333,0.333,1,0.333,0.333,0.333,1","1,0.333,0.333,0.333,1,0.333,0.333,0.333,1","1",""
"","html-keyboard-response","217","91773","0.0-217.0","3RYC5T2D74F2225U9D2NOPR6KS6PRF","A33Z6BHAJUGCHY","382GHPVPHSDM8N0F9141EAH7F0K34Z","","null","<img src=""img/flower4.png"" style=""width:200px;border:14px solid red;"">","null","","","","","","","","",""
"","image-keyboard-response","218","92219","0.0-218.0","3RYC5T2D74F2225U9D2NOPR6KS6PRF","A33Z6BHAJUGCHY","382GHPVPHSDM8N0F9141EAH7F0K34Z","","438.80000001192093","img/flower3.png","74","445.1000000089407","1","1","1","1","1,0.333,0.333,0.333,1,0.333,0.333,0.333,1","1,0.333,0.333,0.333,1,0.333,0.333,0.333,1","1",""
"","html-keyboard-response","219","92525","0.0-219.0","3RYC5T2D74F2225U9D2NOPR6KS6PRF","A33Z6BHAJUGCHY","382GHPVPHSDM8N0F9141EAH7F0K34Z","","null","<img src=""img/flower3.png"" style=""width:200px; border:14px solid green;"">","null","","","","","","","","",""
"","image-keyboard-response","220","93097","0.0-220.0","3RYC5T2D74F2225U9D2NOPR6KS6PRF","A33Z6BHAJUGCHY","382GHPVPHSDM8N0F9141EAH7F0K34Z","","565.8999999910593","img/flower2.png","75","571.3000000119209","2","1","2","1","1,0.333,0.333,0.333,1,0.333,0.333,0.333,1","1,0.333,0.333,0.333,1,0.333,0.333,0.333,1","1",""
"","html-keyboard-response","221","93403","0.0-221.0","3RYC5T2D74F2225U9D2NOPR6KS6PRF","A33Z6BHAJUGCHY","382GHPVPHSDM8N0F9141EAH7F0K34Z","","null","<img src=""img/flower2.png"" style=""width:200px; border:14px solid green;"">","null","","","","","","","","",""
"","image-keyboard-response","222","93860","0.0-222.0","3RYC5T2D74F2225U9D2NOPR6KS6PRF","A33Z6BHAJUGCHY","382GHPVPHSDM8N0F9141EAH7F0K34Z","","449.5","img/flower4.png","76","455.09999999403954","3","1","3","1","1,0.333,0.333,0.333,1,0.333,0.333,0.333,1","1,0.333,0.333,0.333,1,0.333,0.333,0.333,1","1",""
"","html-keyboard-response","223","94167","0.0-223.0","3RYC5T2D74F2225U9D2NOPR6KS6PRF","A33Z6BHAJUGCHY","382GHPVPHSDM8N0F9141EAH7F0K34Z","","null","<img src=""img/flower4.png"" style=""width:200px; border:14px solid green;"">","null","","","","","","","","",""
"","image-keyboard-response","224","94729","0.0-224.0","3RYC5T2D74F2225U9D2NOPR6KS6PRF","A33Z6BHAJUGCHY","382GHPVPHSDM8N0F9141EAH7F0K34Z","","555.6999999880791","img/flower3.png","74","560.2000000029802","1","1","1","1","1,0.333,0.333,0.333,1,0.333,0.333,0.333,1","1,0.333,0.333,0.333,1,0.333,0.333,0.333,1","1",""
"","html-keyboard-response","225","95033","0.0-225.0","3RYC5T2D74F2225U9D2NOPR6KS6PRF","A33Z6BHAJUGCHY","382GHPVPHSDM8N0F9141EAH7F0K34Z","","null","<img src=""img/flower3.png"" style=""width:200px; border:14px solid green;"">","null","","","","","","","","",""
"","image-keyboard-response","226","95418","0.0-226.0","3RYC5T2D74F2225U9D2NOPR6KS6PRF","A33Z6BHAJUGCHY","382GHPVPHSDM8N0F9141EAH7F0K34Z","","380.1000000089407","img/flower2.png","75","383.79999999701977","2","1","2","1","1,0.333,0.333,0.333,1,0.333,0.333,0.333,1","1,0.333,0.333,0.333,1,0.333,0.333,0.333,1","1",""
"","html-keyboard-response","227","95721","0.0-227.0","3RYC5T2D74F2225U9D2NOPR6KS6PRF","A33Z6BHAJUGCHY","382GHPVPHSDM8N0F9141EAH7F0K34Z","","null","<img src=""img/flower2.png"" style=""width:200px; border:14px solid green;"">","null","","","","","","","","",""
"","image-keyboard-response","228","96128","0.0-228.0","3RYC5T2D74F2225U9D2NOPR6KS6PRF","A33Z6BHAJUGCHY","382GHPVPHSDM8N0F9141EAH7F0K34Z","","401.59999999403954","img/flower3.png","76","406.90000000596046","3","0","1","1","1,0.333,0.333,0.333,1,0.333,0.333,0.333,1","1,0.333,0.333,0.333,1,0.333,0.333,0.333,1","1",""
"","html-keyboard-response","229","96435","0.0-229.0","3RYC5T2D74F2225U9D2NOPR6KS6PRF","A33Z6BHAJUGCHY","382GHPVPHSDM8N0F9141EAH7F0K34Z","","null","<img src=""img/flower3.png"" style=""width:200px;border:14px solid red;"">","null","","","","","","","","",""
"","image-keyboard-response","230","96995","0.0-230.0","3RYC5T2D74F2225U9D2NOPR6KS6PRF","A33Z6BHAJUGCHY","382GHPVPHSDM8N0F9141EAH7F0K34Z","","555.2999999970198","img/flower4.png","76","559.2999999970198","3","1","3","1","1,0.333,0.333,0.333,1,0.333,0.333,0.333,1","1,0.333,0.333,0.333,1,0.333,0.333,0.333,1","1",""
"","html-keyboard-response","231","97300","0.0-231.0","3RYC5T2D74F2225U9D2NOPR6KS6PRF","A33Z6BHAJUGCHY","382GHPVPHSDM8N0F9141EAH7F0K34Z","","null","<img src=""img/flower4.png"" style=""width:200px; border:14px solid green;"">","null","","","","","","","","",""
"","image-keyboard-response","232","97916","0.0-232.0","3RYC5T2D74F2225U9D2NOPR6KS6PRF","A33Z6BHAJUGCHY","382GHPVPHSDM8N0F9141EAH7F0K34Z","","611","img/flower3.png","74","615.2999999970198","1","1","1","1","1,0.333,0.333,0.333,1,0.333,0.333,0.333,1","1,0.333,0.333,0.333,1,0.333,0.333,0.333,1","1",""
"","html-keyboard-response","233","98223","0.0-233.0","3RYC5T2D74F2225U9D2NOPR6KS6PRF","A33Z6BHAJUGCHY","382GHPVPHSDM8N0F9141EAH7F0K34Z","","null","<img src=""img/flower3.png"" style=""width:200px; border:14px solid green;"">","null","","","","","","","","",""
"","image-keyboard-response","234","98728","0.0-234.0","3RYC5T2D74F2225U9D2NOPR6KS6PRF","A33Z6BHAJUGCHY","382GHPVPHSDM8N0F9141EAH7F0K34Z","","499.29999999701977","img/flower2.png","75","504","2","1","2","1","1,0.333,0.333,0.333,1,0.333,0.333,0.333,1","1,0.333,0.333,0.333,1,0.333,0.333,0.333,1","1",""
"","html-keyboard-response","235","99032","0.0-235.0","3RYC5T2D74F2225U9D2NOPR6KS6PRF","A33Z6BHAJUGCHY","382GHPVPHSDM8N0F9141EAH7F0K34Z","","null","<img src=""img/flower2.png"" style=""width:200px; border:14px solid green;"">","null","","","","","","","","",""
"","image-keyboard-response","236","99522","0.0-236.0","3RYC5T2D74F2225U9D2NOPR6KS6PRF","A33Z6BHAJUGCHY","382GHPVPHSDM8N0F9141EAH7F0K34Z","","484.90000000596046","img/flower4.png","76","488.8999999910593","3","1","3","1","1,0.333,0.333,0.333,1,0.333,0.333,0.333,1","1,0.333,0.333,0.333,1,0.333,0.333,0.333,1","1",""
"","html-keyboard-response","237","99830","0.0-237.0","3RYC5T2D74F2225U9D2NOPR6KS6PRF","A33Z6BHAJUGCHY","382GHPVPHSDM8N0F9141EAH7F0K34Z","","null","<img src=""img/flower4.png"" style=""width:200px; border:14px solid green;"">","null","","","","","","","","",""
"","image-keyboard-response","238","100204","0.0-238.0","3RYC5T2D74F2225U9D2NOPR6KS6PRF","A33Z6BHAJUGCHY","382GHPVPHSDM8N0F9141EAH7F0K34Z","","367","img/flower4.png","76","372.6000000089407","3","1","3","1","1,0.333,0.333,0.333,1,0.333,0.333,0.333,1","1,0.333,0.333,0.333,1,0.333,0.333,0.333,1","1",""
"","html-keyboard-response","239","100511","0.0-239.0","3RYC5T2D74F2225U9D2NOPR6KS6PRF","A33Z6BHAJUGCHY","382GHPVPHSDM8N0F9141EAH7F0K34Z","","null","<img src=""img/flower4.png"" style=""width:200px; border:14px solid green;"">","null","","","","","","","","",""
"","image-keyboard-response","240","101078","0.0-240.0","3RYC5T2D74F2225U9D2NOPR6KS6PRF","A33Z6BHAJUGCHY","382GHPVPHSDM8N0F9141EAH7F0K34Z","","560.9000000059605","img/flower2.png","75","566.0999999940395","2","1","2","1","1,0.333,0.333,0.333,1,0.333,0.333,0.333,1","1,0.333,0.333,0.333,1,0.333,0.333,0.333,1","1",""
"","html-keyboard-response","241","101386","0.0-241.0","3RYC5T2D74F2225U9D2NOPR6KS6PRF","A33Z6BHAJUGCHY","382GHPVPHSDM8N0F9141EAH7F0K34Z","","null","<img src=""img/flower2.png"" style=""width:200px; border:14px solid green;"">","null","","","","","","","","",""
"","image-keyboard-response","242","101696","0.0-242.0","3RYC5T2D74F2225U9D2NOPR6KS6PRF","A33Z6BHAJUGCHY","382GHPVPHSDM8N0F9141EAH7F0K34Z","","302.70000000298023","img/flower2.png","75","308.79999999701977","2","1","2","1","1,0.333,0.333,0.333,1,0.333,0.333,0.333,1","1,0.333,0.333,0.333,1,0.333,0.333,0.333,1","1",""
"","html-keyboard-response","243","102004","0.0-243.0","3RYC5T2D74F2225U9D2NOPR6KS6PRF","A33Z6BHAJUGCHY","382GHPVPHSDM8N0F9141EAH7F0K34Z","","null","<img src=""img/flower2.png"" style=""width:200px; border:14px solid green;"">","null","","","","","","","","",""
"","image-keyboard-response","244","102532","0.0-244.0","3RYC5T2D74F2225U9D2NOPR6KS6PRF","A33Z6BHAJUGCHY","382GHPVPHSDM8N0F9141EAH7F0K34Z","","521","img/flower3.png","74","526.7000000029802","1","1","1","1","1,0.333,0.333,0.333,1,0.333,0.333,0.333,1","1,0.333,0.333,0.333,1,0.333,0.333,0.333,1","1",""
"","html-keyboard-response","245","102835","0.0-245.0","3RYC5T2D74F2225U9D2NOPR6KS6PRF","A33Z6BHAJUGCHY","382GHPVPHSDM8N0F9141EAH7F0K34Z","","null","<img src=""img/flower3.png"" style=""width:200px; border:14px solid green;"">","null","","","","","","","","",""
"","image-keyboard-response","246","103131","0.0-246.0","3RYC5T2D74F2225U9D2NOPR6KS6PRF","A33Z6BHAJUGCHY","382GHPVPHSDM8N0F9141EAH7F0K34Z","","291.09999999403954","img/flower3.png","74","295.59999999403954","1","1","1","1","1,0.333,0.333,0.333,1,0.333,0.333,0.333,1","1,0.333,0.333,0.333,1,0.333,0.333,0.333,1","1",""
"","html-keyboard-response","247","103438","0.0-247.0","3RYC5T2D74F2225U9D2NOPR6KS6PRF","A33Z6BHAJUGCHY","382GHPVPHSDM8N0F9141EAH7F0K34Z","","null","<img src=""img/flower3.png"" style=""width:200px; border:14px solid green;"">","null","","","","","","","","",""
"","image-keyboard-response","248","103913","0.0-248.0","3RYC5T2D74F2225U9D2NOPR6KS6PRF","A33Z6BHAJUGCHY","382GHPVPHSDM8N0F9141EAH7F0K34Z","","467.79999999701977","img/flower2.png","75","473.5","2","1","2","1","1,0.333,0.333,0.333,1,0.333,0.333,0.333,1","1,0.333,0.333,0.333,1,0.333,0.333,0.333,1","1",""
"","html-keyboard-response","249","104220","0.0-249.0","3RYC5T2D74F2225U9D2NOPR6KS6PRF","A33Z6BHAJUGCHY","382GHPVPHSDM8N0F9141EAH7F0K34Z","","null","<img src=""img/flower2.png"" style=""width:200px; border:14px solid green;"">","null","","","","","","","","",""
"","image-keyboard-response","250","104942","0.0-250.0","3RYC5T2D74F2225U9D2NOPR6KS6PRF","A33Z6BHAJUGCHY","382GHPVPHSDM8N0F9141EAH7F0K34Z","","716","img/flower4.png","76","720.7000000029802","3","1","3","1","1,0.333,0.333,0.333,1,0.333,0.333,0.333,1","1,0.333,0.333,0.333,1,0.333,0.333,0.333,1","1",""
"","html-keyboard-response","251","105247","0.0-251.0","3RYC5T2D74F2225U9D2NOPR6KS6PRF","A33Z6BHAJUGCHY","382GHPVPHSDM8N0F9141EAH7F0K34Z","","null","<img src=""img/flower4.png"" style=""width:200px; border:14px solid green;"">","null","","","","","","","","",""
"","image-keyboard-response","252","105741","0.0-252.0","3RYC5T2D74F2225U9D2NOPR6KS6PRF","A33Z6BHAJUGCHY","382GHPVPHSDM8N0F9141EAH7F0K34Z","","487.90000000596046","img/flower3.png","75","493.20000000298023","2","1","1","1","1,0.333,0.333,0.333,1,0.333,0.333,0.333,1","1,0.333,0.333,0.333,1,0.333,0.333,0.333,1","1",""
"","html-keyboard-response","253","106048","0.0-253.0","3RYC5T2D74F2225U9D2NOPR6KS6PRF","A33Z6BHAJUGCHY","382GHPVPHSDM8N0F9141EAH7F0K34Z","","null","<img src=""img/flower3.png"" style=""width:200px; border:14px solid green;"">","null","","","","","","","","",""
"","image-keyboard-response","254","106631","0.0-254.0","3RYC5T2D74F2225U9D2NOPR6KS6PRF","A33Z6BHAJUGCHY","382GHPVPHSDM8N0F9141EAH7F0K34Z","","577.0999999940395","img/flower4.png","75","581.7000000029802","2","1","3","1","1,0.333,0.333,0.333,1,0.333,0.333,0.333,1","1,0.333,0.333,0.333,1,0.333,0.333,0.333,1","1",""
"","html-keyboard-response","255","106935","0.0-255.0","3RYC5T2D74F2225U9D2NOPR6KS6PRF","A33Z6BHAJUGCHY","382GHPVPHSDM8N0F9141EAH7F0K34Z","","null","<img src=""img/flower4.png"" style=""width:200px; border:14px solid green;"">","null","","","","","","","","",""
"","image-keyboard-response","256","107189","0.0-256.0","3RYC5T2D74F2225U9D2NOPR6KS6PRF","A33Z6BHAJUGCHY","382GHPVPHSDM8N0F9141EAH7F0K34Z","","249.69999998807907","img/flower2.png","75","253.29999999701977","2","1","2","1","1,0.333,0.333,0.333,1,0.333,0.333,0.333,1","1,0.333,0.333,0.333,1,0.333,0.333,0.333,1","1",""
"","html-keyboard-response","257","107496","0.0-257.0","3RYC5T2D74F2225U9D2NOPR6KS6PRF","A33Z6BHAJUGCHY","382GHPVPHSDM8N0F9141EAH7F0K34Z","","null","<img src=""img/flower2.png"" style=""width:200px; border:14px solid green;"">","null","","","","","","","","",""
"","image-keyboard-response","258","107659","0.0-258.0","3RYC5T2D74F2225U9D2NOPR6KS6PRF","A33Z6BHAJUGCHY","382GHPVPHSDM8N0F9141EAH7F0K34Z","","156.40000000596046","img/flower4.png","75","161.20000000298023","2","1","3","1","1,0.333,0.333,0.333,1,0.333,0.333,0.333,1","1,0.333,0.333,0.333,1,0.333,0.333,0.333,1","1",""
"","html-keyboard-response","259","107966","0.0-259.0","3RYC5T2D74F2225U9D2NOPR6KS6PRF","A33Z6BHAJUGCHY","382GHPVPHSDM8N0F9141EAH7F0K34Z","","null","<img src=""img/flower4.png"" style=""width:200px; border:14px solid green;"">","null","","","","","","","","",""
"","image-keyboard-response","260","108059","0.0-260.0","3RYC5T2D74F2225U9D2NOPR6KS6PRF","A33Z6BHAJUGCHY","382GHPVPHSDM8N0F9141EAH7F0K34Z","","85.70000000298023","img/flower3.png","75","91","2","0","1","1","1,0.333,0.333,0.333,1,0.333,0.333,0.333,1","1,0.333,0.333,0.333,1,0.333,0.333,0.333,1","1",""
"","html-keyboard-response","261","108366","0.0-261.0","3RYC5T2D74F2225U9D2NOPR6KS6PRF","A33Z6BHAJUGCHY","382GHPVPHSDM8N0F9141EAH7F0K34Z","","null","<img src=""img/flower3.png"" style=""width:200px;border:14px solid red;"">","null","","","","","","","","",""
"","image-keyboard-response","262","108404","0.0-262.0","3RYC5T2D74F2225U9D2NOPR6KS6PRF","A33Z6BHAJUGCHY","382GHPVPHSDM8N0F9141EAH7F0K34Z","","32.20000000298023","img/flower2.png","75","36.70000000298023","2","1","2","1","1,0.333,0.333,0.333,1,0.333,0.333,0.333,1","1,0.333,0.333,0.333,1,0.333,0.333,0.333,1","1",""
"","html-keyboard-response","263","108711","0.0-263.0","3RYC5T2D74F2225U9D2NOPR6KS6PRF","A33Z6BHAJUGCHY","382GHPVPHSDM8N0F9141EAH7F0K34Z","","null","<img src=""img/flower2.png"" style=""width:200px; border:14px solid green;"">","null","","","","","","","","",""
"","image-keyboard-response","264","109041","0.0-264.0","3RYC5T2D74F2225U9D2NOPR6KS6PRF","A33Z6BHAJUGCHY","382GHPVPHSDM8N0F9141EAH7F0K34Z","","323.20000000298023","img/flower3.png","75","327.79999999701977","2","0","1","1","1,0.333,0.333,0.333,1,0.333,0.333,0.333,1","1,0.333,0.333,0.333,1,0.333,0.333,0.333,1","1",""
"","html-keyboard-response","265","109346","0.0-265.0","3RYC5T2D74F2225U9D2NOPR6KS6PRF","A33Z6BHAJUGCHY","382GHPVPHSDM8N0F9141EAH7F0K34Z","","null","<img src=""img/flower3.png"" style=""width:200px;border:14px solid red;"">","null","","","","","","","","",""
"","image-keyboard-response","266","109549","0.0-266.0","3RYC5T2D74F2225U9D2NOPR6KS6PRF","A33Z6BHAJUGCHY","382GHPVPHSDM8N0F9141EAH7F0K34Z","","198.79999999701977","img/flower2.png","75","203.20000000298023","2","1","2","1","1,0.333,0.333,0.333,1,0.333,0.333,0.333,1","1,0.333,0.333,0.333,1,0.333,0.333,0.333,1","1",""
"","html-keyboard-response","267","109856","0.0-267.0","3RYC5T2D74F2225U9D2NOPR6KS6PRF","A33Z6BHAJUGCHY","382GHPVPHSDM8N0F9141EAH7F0K34Z","","null","<img src=""img/flower2.png"" style=""width:200px; border:14px solid green;"">","null","","","","","","","","",""
"","image-keyboard-response","268","110344","0.0-268.0","3RYC5T2D74F2225U9D2NOPR6KS6PRF","A33Z6BHAJUGCHY","382GHPVPHSDM8N0F9141EAH7F0K34Z","","480.29999999701977","img/flower2.png","75","486","2","1","2","1","1,0.333,0.333,0.333,1,0.333,0.333,0.333,1","1,0.333,0.333,0.333,1,0.333,0.333,0.333,1","1",""
"","html-keyboard-response","269","110651","0.0-269.0","3RYC5T2D74F2225U9D2NOPR6KS6PRF","A33Z6BHAJUGCHY","382GHPVPHSDM8N0F9141EAH7F0K34Z","","null","<img src=""img/flower2.png"" style=""width:200px; border:14px solid green;"">","null","","","","","","","","",""
"","image-keyboard-response","270","111194","0.0-270.0","3RYC5T2D74F2225U9D2NOPR6KS6PRF","A33Z6BHAJUGCHY","382GHPVPHSDM8N0F9141EAH7F0K34Z","","539.7999999970198","img/flower3.png","74","543.2000000029802","1","1","1","1","1,0.333,0.333,0.333,1,0.333,0.333,0.333,1","1,0.333,0.333,0.333,1,0.333,0.333,0.333,1","1",""
"","html-keyboard-response","271","111500","0.0-271.0","3RYC5T2D74F2225U9D2NOPR6KS6PRF","A33Z6BHAJUGCHY","382GHPVPHSDM8N0F9141EAH7F0K34Z","","null","<img src=""img/flower3.png"" style=""width:200px; border:14px solid green;"">","null","","","","","","","","",""
"","image-keyboard-response","272","111974","0.0-272.0","3RYC5T2D74F2225U9D2NOPR6KS6PRF","A33Z6BHAJUGCHY","382GHPVPHSDM8N0F9141EAH7F0K34Z","","467.1000000089407","img/flower4.png","76","472.79999999701977","3","1","3","1","1,0.333,0.333,0.333,1,0.333,0.333,0.333,1","1,0.333,0.333,0.333,1,0.333,0.333,0.333,1","1",""
"","html-keyboard-response","273","112281","0.0-273.0","3RYC5T2D74F2225U9D2NOPR6KS6PRF","A33Z6BHAJUGCHY","382GHPVPHSDM8N0F9141EAH7F0K34Z","","null","<img src=""img/flower4.png"" style=""width:200px; border:14px solid green;"">","null","","","","","","","","",""
"","image-keyboard-response","274","112758","0.0-274.0","3RYC5T2D74F2225U9D2NOPR6KS6PRF","A33Z6BHAJUGCHY","382GHPVPHSDM8N0F9141EAH7F0K34Z","","471.79999999701977","img/flower2.png","75","476.70000000298023","2","1","2","1","1,0.333,0.333,0.333,1,0.333,0.333,0.333,1","1,0.333,0.333,0.333,1,0.333,0.333,0.333,1","1",""
"","html-keyboard-response","275","113065","0.0-275.0","3RYC5T2D74F2225U9D2NOPR6KS6PRF","A33Z6BHAJUGCHY","382GHPVPHSDM8N0F9141EAH7F0K34Z","","null","<img src=""img/flower2.png"" style=""width:200px; border:14px solid green;"">","null","","","","","","","","",""
"","image-keyboard-response","276","113541","0.0-276.0","3RYC5T2D74F2225U9D2NOPR6KS6PRF","A33Z6BHAJUGCHY","382GHPVPHSDM8N0F9141EAH7F0K34Z","","470.40000000596046","img/flower3.png","74","475.40000000596046","1","1","1","1","1,0.333,0.333,0.333,1,0.333,0.333,0.333,1","1,0.333,0.333,0.333,1,0.333,0.333,0.333,1","1",""
"","html-keyboard-response","277","113849","0.0-277.0","3RYC5T2D74F2225U9D2NOPR6KS6PRF","A33Z6BHAJUGCHY","382GHPVPHSDM8N0F9141EAH7F0K34Z","","null","<img src=""img/flower3.png"" style=""width:200px; border:14px solid green;"">","null","","","","","","","","",""
"","image-keyboard-response","278","114150","0.0-278.0","3RYC5T2D74F2225U9D2NOPR6KS6PRF","A33Z6BHAJUGCHY","382GHPVPHSDM8N0F9141EAH7F0K34Z","","294.90000000596046","img/flower3.png","74","299.1000000089407","1","1","1","1","1,0.333,0.333,0.333,1,0.333,0.333,0.333,1","1,0.333,0.333,0.333,1,0.333,0.333,0.333,1","1",""
"","html-keyboard-response","279","114456","0.0-279.0","3RYC5T2D74F2225U9D2NOPR6KS6PRF","A33Z6BHAJUGCHY","382GHPVPHSDM8N0F9141EAH7F0K34Z","","null","<img src=""img/flower3.png"" style=""width:200px; border:14px solid green;"">","null","","","","","","","","",""
"","image-keyboard-response","280","114897","0.0-280.0","3RYC5T2D74F2225U9D2NOPR6KS6PRF","A33Z6BHAJUGCHY","382GHPVPHSDM8N0F9141EAH7F0K34Z","","433.40000000596046","img/flower4.png","75","438.30000001192093","2","0","3","1","1,0.333,0.333,0.333,1,0.333,0.333,0.333,1","1,0.333,0.333,0.333,1,0.333,0.333,0.333,1","1",""
"","html-keyboard-response","281","115203","0.0-281.0","3RYC5T2D74F2225U9D2NOPR6KS6PRF","A33Z6BHAJUGCHY","382GHPVPHSDM8N0F9141EAH7F0K34Z","","null","<img src=""img/flower4.png"" style=""width:200px;border:14px solid red;"">","null","","","","","","","","",""
"","image-keyboard-response","282","115593","0.0-282.0","3RYC5T2D74F2225U9D2NOPR6KS6PRF","A33Z6BHAJUGCHY","382GHPVPHSDM8N0F9141EAH7F0K34Z","","382.8999999910593","img/flower4.png","76","388.59999999403954","3","1","3","1","1,0.333,0.333,0.333,1,0.333,0.333,0.333,1","1,0.333,0.333,0.333,1,0.333,0.333,0.333,1","1",""
"","html-keyboard-response","283","115900","0.0-283.0","3RYC5T2D74F2225U9D2NOPR6KS6PRF","A33Z6BHAJUGCHY","382GHPVPHSDM8N0F9141EAH7F0K34Z","","null","<img src=""img/flower4.png"" style=""width:200px; border:14px solid green;"">","null","","","","","","","","",""
"","image-keyboard-response","284","116720","0.0-284.0","3RYC5T2D74F2225U9D2NOPR6KS6PRF","A33Z6BHAJUGCHY","382GHPVPHSDM8N0F9141EAH7F0K34Z","","812.7000000029802","img/flower2.png","75","817.2999999970198","2","1","2","1","1,0.333,0.333,0.333,1,0.333,0.333,0.333,1","1,0.333,0.333,0.333,1,0.333,0.333,0.333,1","1",""
"","html-keyboard-response","285","117024","0.0-285.0","3RYC5T2D74F2225U9D2NOPR6KS6PRF","A33Z6BHAJUGCHY","382GHPVPHSDM8N0F9141EAH7F0K34Z","","null","<img src=""img/flower2.png"" style=""width:200px; border:14px solid green;"">","null","","","","","","","","",""
"","image-keyboard-response","286","117466","0.0-286.0","3RYC5T2D74F2225U9D2NOPR6KS6PRF","A33Z6BHAJUGCHY","382GHPVPHSDM8N0F9141EAH7F0K34Z","","432.59999999403954","img/flower4.png","76","440.29999999701977","3","1","3","1","1,0.333,0.333,0.333,1,0.333,0.333,0.333,1","1,0.333,0.333,0.333,1,0.333,0.333,0.333,1","1",""
"","html-keyboard-response","287","117773","0.0-287.0","3RYC5T2D74F2225U9D2NOPR6KS6PRF","A33Z6BHAJUGCHY","382GHPVPHSDM8N0F9141EAH7F0K34Z","","null","<img src=""img/flower4.png"" style=""width:200px; border:14px solid green;"">","null","","","","","","","","",""
"","image-keyboard-response","288","118245","0.0-288.0","3RYC5T2D74F2225U9D2NOPR6KS6PRF","A33Z6BHAJUGCHY","382GHPVPHSDM8N0F9141EAH7F0K34Z","","462.80000001192093","img/flower2.png","75","469.5","2","1","2","1","1,0.333,0.333,0.333,1,0.333,0.333,0.333,1","1,0.333,0.333,0.333,1,0.333,0.333,0.333,1","1",""
"","html-keyboard-response","289","118552","0.0-289.0","3RYC5T2D74F2225U9D2NOPR6KS6PRF","A33Z6BHAJUGCHY","382GHPVPHSDM8N0F9141EAH7F0K34Z","","null","<img src=""img/flower2.png"" style=""width:200px; border:14px solid green;"">","null","","","","","","","","",""
"","image-keyboard-response","290","119268","0.0-290.0","3RYC5T2D74F2225U9D2NOPR6KS6PRF","A33Z6BHAJUGCHY","382GHPVPHSDM8N0F9141EAH7F0K34Z","","708","img/flower4.png","76","714.0999999940395","3","1","3","1","1,0.333,0.333,0.333,1,0.333,0.333,0.333,1","1,0.333,0.333,0.333,1,0.333,0.333,0.333,1","1",""
"","html-keyboard-response","291","119575","0.0-291.0","3RYC5T2D74F2225U9D2NOPR6KS6PRF","A33Z6BHAJUGCHY","382GHPVPHSDM8N0F9141EAH7F0K34Z","","null","<img src=""img/flower4.png"" style=""width:200px; border:14px solid green;"">","null","","","","","","","","",""
"","image-keyboard-response","292","119873","0.0-292.0","3RYC5T2D74F2225U9D2NOPR6KS6PRF","A33Z6BHAJUGCHY","382GHPVPHSDM8N0F9141EAH7F0K34Z","","291.20000000298023","img/flower4.png","76","297.29999999701977","3","1","3","1","1,0.333,0.333,0.333,1,0.333,0.333,0.333,1","1,0.333,0.333,0.333,1,0.333,0.333,0.333,1","1",""
"","html-keyboard-response","293","120180","0.0-293.0","3RYC5T2D74F2225U9D2NOPR6KS6PRF","A33Z6BHAJUGCHY","382GHPVPHSDM8N0F9141EAH7F0K34Z","","null","<img src=""img/flower4.png"" style=""width:200px; border:14px solid green;"">","null","","","","","","","","",""
"","image-keyboard-response","294","120791","0.0-294.0","3RYC5T2D74F2225U9D2NOPR6KS6PRF","A33Z6BHAJUGCHY","382GHPVPHSDM8N0F9141EAH7F0K34Z","","604.6000000089407","img/flower3.png","74","609.3000000119209","1","1","1","1","1,0.333,0.333,0.333,1,0.333,0.333,0.333,1","1,0.333,0.333,0.333,1,0.333,0.333,0.333,1","1",""
"","html-keyboard-response","295","121097","0.0-295.0","3RYC5T2D74F2225U9D2NOPR6KS6PRF","A33Z6BHAJUGCHY","382GHPVPHSDM8N0F9141EAH7F0K34Z","","null","<img src=""img/flower3.png"" style=""width:200px; border:14px solid green;"">","null","","","","","","","","",""
"","image-keyboard-response","296","121397","0.0-296.0","3RYC5T2D74F2225U9D2NOPR6KS6PRF","A33Z6BHAJUGCHY","382GHPVPHSDM8N0F9141EAH7F0K34Z","","294.29999999701977","img/flower3.png","74","299.5","1","1","1","1","1,0.333,0.333,0.333,1,0.333,0.333,0.333,1","1,0.333,0.333,0.333,1,0.333,0.333,0.333,1","1",""
"","html-keyboard-response","297","121703","0.0-297.0","3RYC5T2D74F2225U9D2NOPR6KS6PRF","A33Z6BHAJUGCHY","382GHPVPHSDM8N0F9141EAH7F0K34Z","","null","<img src=""img/flower3.png"" style=""width:200px; border:14px solid green;"">","null","","","","","","","","",""
"","image-keyboard-response","298","122277","0.0-298.0","3RYC5T2D74F2225U9D2NOPR6KS6PRF","A33Z6BHAJUGCHY","382GHPVPHSDM8N0F9141EAH7F0K34Z","","566.8999999910593","img/flower2.png","75","573.4000000059605","2","1","2","1","1,0.333,0.333,0.333,1,0.333,0.333,0.333,1","1,0.333,0.333,0.333,1,0.333,0.333,0.333,1","1",""
"","html-keyboard-response","299","122584","0.0-299.0","3RYC5T2D74F2225U9D2NOPR6KS6PRF","A33Z6BHAJUGCHY","382GHPVPHSDM8N0F9141EAH7F0K34Z","","null","<img src=""img/flower2.png"" style=""width:200px; border:14px solid green;"">","null","","","","","","","","",""
"","image-keyboard-response","300","122840","0.0-300.0","3RYC5T2D74F2225U9D2NOPR6KS6PRF","A33Z6BHAJUGCHY","382GHPVPHSDM8N0F9141EAH7F0K34Z","","252.40000000596046","img/flower2.png","75","254.70000000298023","2","1","2","1","1,0.333,0.333,0.333,1,0.333,0.333,0.333,1","1,0.333,0.333,0.333,1,0.333,0.333,0.333,1","1",""
"","html-keyboard-response","301","123145","0.0-301.0","3RYC5T2D74F2225U9D2NOPR6KS6PRF","A33Z6BHAJUGCHY","382GHPVPHSDM8N0F9141EAH7F0K34Z","","null","<img src=""img/flower2.png"" style=""width:200px; border:14px solid green;"">","null","","","","","","","","",""
"","image-keyboard-response","302","123788","0.0-302.0","3RYC5T2D74F2225U9D2NOPR6KS6PRF","A33Z6BHAJUGCHY","382GHPVPHSDM8N0F9141EAH7F0K34Z","","635.4000000059605","img/flower3.png","74","640.8000000119209","1","1","1","1","1,0.333,0.333,0.333,1,0.333,0.333,0.333,1","1,0.333,0.333,0.333,1,0.333,0.333,0.333,1","1",""
"","html-keyboard-response","303","124097","0.0-303.0","3RYC5T2D74F2225U9D2NOPR6KS6PRF","A33Z6BHAJUGCHY","382GHPVPHSDM8N0F9141EAH7F0K34Z","","null","<img src=""img/flower3.png"" style=""width:200px; border:14px solid green;"">","null","","","","","","","","",""
"","image-keyboard-response","304","124643","0.0-304.0","3RYC5T2D74F2225U9D2NOPR6KS6PRF","A33Z6BHAJUGCHY","382GHPVPHSDM8N0F9141EAH7F0K34Z","","538.5999999940395","img/flower4.png","76","544.2999999970198","3","1","3","1","1,0.333,0.333,0.333,1,0.333,0.333,0.333,1","1,0.333,0.333,0.333,1,0.333,0.333,0.333,1","1",""
"","html-keyboard-response","305","124947","0.0-305.0","3RYC5T2D74F2225U9D2NOPR6KS6PRF","A33Z6BHAJUGCHY","382GHPVPHSDM8N0F9141EAH7F0K34Z","","null","<img src=""img/flower4.png"" style=""width:200px; border:14px solid green;"">","null","","","","","","","","",""
"","image-keyboard-response","306","125660","0.0-306.0","3RYC5T2D74F2225U9D2NOPR6KS6PRF","A33Z6BHAJUGCHY","382GHPVPHSDM8N0F9141EAH7F0K34Z","","710.2000000029802","img/flower2.png","75","713.2999999970198","2","1","2","1","1,0.333,0.333,0.333,1,0.333,0.333,0.333,1","1,0.333,0.333,0.333,1,0.333,0.333,0.333,1","1",""
"","html-keyboard-response","307","125966","0.0-307.0","3RYC5T2D74F2225U9D2NOPR6KS6PRF","A33Z6BHAJUGCHY","382GHPVPHSDM8N0F9141EAH7F0K34Z","","null","<img src=""img/flower2.png"" style=""width:200px; border:14px solid green;"">","null","","","","","","","","",""
"","image-keyboard-response","308","126488","0.0-308.0","3RYC5T2D74F2225U9D2NOPR6KS6PRF","A33Z6BHAJUGCHY","382GHPVPHSDM8N0F9141EAH7F0K34Z","","515.4000000059605","img/flower3.png","74","520.2000000029802","1","1","1","1","1,0.333,0.333,0.333,1,0.333,0.333,0.333,1","1,0.333,0.333,0.333,1,0.333,0.333,0.333,1","1",""
"","html-keyboard-response","309","126792","0.0-309.0","3RYC5T2D74F2225U9D2NOPR6KS6PRF","A33Z6BHAJUGCHY","382GHPVPHSDM8N0F9141EAH7F0K34Z","","null","<img src=""img/flower3.png"" style=""width:200px; border:14px solid green;"">","null","","","","","","","","",""
"","image-keyboard-response","310","127492","0.0-310.0","3RYC5T2D74F2225U9D2NOPR6KS6PRF","A33Z6BHAJUGCHY","382GHPVPHSDM8N0F9141EAH7F0K34Z","","696.0999999940395","img/flower4.png","76","699.3999999910593","3","1","3","1","1,0.333,0.333,0.333,1,0.333,0.333,0.333,1","1,0.333,0.333,0.333,1,0.333,0.333,0.333,1","1",""
"","html-keyboard-response","311","127798","0.0-311.0","3RYC5T2D74F2225U9D2NOPR6KS6PRF","A33Z6BHAJUGCHY","382GHPVPHSDM8N0F9141EAH7F0K34Z","","null","<img src=""img/flower4.png"" style=""width:200px; border:14px solid green;"">","null","","","","","","","","",""
"","image-keyboard-response","312","128392","0.0-312.0","3RYC5T2D74F2225U9D2NOPR6KS6PRF","A33Z6BHAJUGCHY","382GHPVPHSDM8N0F9141EAH7F0K34Z","","588.1000000089407","img/flower2.png","75","592.5","2","1","2","1","1,0.333,0.333,0.333,1,0.333,0.333,0.333,1","1,0.333,0.333,0.333,1,0.333,0.333,0.333,1","1",""
"","html-keyboard-response","313","128698","0.0-313.0","3RYC5T2D74F2225U9D2NOPR6KS6PRF","A33Z6BHAJUGCHY","382GHPVPHSDM8N0F9141EAH7F0K34Z","","null","<img src=""img/flower2.png"" style=""width:200px; border:14px solid green;"">","null","","","","","","","","",""
"","image-keyboard-response","314","128904","0.0-314.0","3RYC5T2D74F2225U9D2NOPR6KS6PRF","A33Z6BHAJUGCHY","382GHPVPHSDM8N0F9141EAH7F0K34Z","","203.20000000298023","img/flower3.png","75","205.70000000298023","2","0","1","1","1,0.333,0.333,0.333,1,0.333,0.333,0.333,1","1,0.333,0.333,0.333,1,0.333,0.333,0.333,1","1",""
"","html-keyboard-response","315","129208","0.0-315.0","3RYC5T2D74F2225U9D2NOPR6KS6PRF","A33Z6BHAJUGCHY","382GHPVPHSDM8N0F9141EAH7F0K34Z","","null","<img src=""img/flower3.png"" style=""width:200px;border:14px solid red;"">","null","","","","","","","","",""
"","image-keyboard-response","316","129929","0.0-316.0","3RYC5T2D74F2225U9D2NOPR6KS6PRF","A33Z6BHAJUGCHY","382GHPVPHSDM8N0F9141EAH7F0K34Z","","714","img/flower4.png","76","719.1000000089407","3","1","3","1","1,0.333,0.333,0.333,1,0.333,0.333,0.333,1","1,0.333,0.333,0.333,1,0.333,0.333,0.333,1","1",""
"","html-keyboard-response","317","130234","0.0-317.0","3RYC5T2D74F2225U9D2NOPR6KS6PRF","A33Z6BHAJUGCHY","382GHPVPHSDM8N0F9141EAH7F0K34Z","","null","<img src=""img/flower4.png"" style=""width:200px; border:14px solid green;"">","null","","","","","","","","",""
"","image-keyboard-response","318","130759","0.0-318.0","3RYC5T2D74F2225U9D2NOPR6KS6PRF","A33Z6BHAJUGCHY","382GHPVPHSDM8N0F9141EAH7F0K34Z","","518","img/flower2.png","74","523.0999999940395","1","1","2","1","1,0.333,0.333,0.333,1,0.333,0.333,0.333,1","1,0.333,0.333,0.333,1,0.333,0.333,0.333,1","1",""
"","html-keyboard-response","319","131064","0.0-319.0","3RYC5T2D74F2225U9D2NOPR6KS6PRF","A33Z6BHAJUGCHY","382GHPVPHSDM8N0F9141EAH7F0K34Z","","null","<img src=""img/flower2.png"" style=""width:200px; border:14px solid green;"">","null","","","","","","","","",""
"","image-keyboard-response","320","131475","0.0-320.0","3RYC5T2D74F2225U9D2NOPR6KS6PRF","A33Z6BHAJUGCHY","382GHPVPHSDM8N0F9141EAH7F0K34Z","","402.29999999701977","img/flower2.png","74","409","1","1","2","1","1,0.333,0.333,0.333,1,0.333,0.333,0.333,1","1,0.333,0.333,0.333,1,0.333,0.333,0.333,1","1",""
"","html-keyboard-response","321","131779","0.0-321.0","3RYC5T2D74F2225U9D2NOPR6KS6PRF","A33Z6BHAJUGCHY","382GHPVPHSDM8N0F9141EAH7F0K34Z","","null","<img src=""img/flower2.png"" style=""width:200px; border:14px solid green;"">","null","","","","","","","","",""
"","image-keyboard-response","322","132334","0.0-322.0","3RYC5T2D74F2225U9D2NOPR6KS6PRF","A33Z6BHAJUGCHY","382GHPVPHSDM8N0F9141EAH7F0K34Z","","547.7999999970198","img/flower3.png","74","553.5","1","1","1","1","1,0.333,0.333,0.333,1,0.333,0.333,0.333,1","1,0.333,0.333,0.333,1,0.333,0.333,0.333,1","1",""
"","html-keyboard-response","323","132640","0.0-323.0","3RYC5T2D74F2225U9D2NOPR6KS6PRF","A33Z6BHAJUGCHY","382GHPVPHSDM8N0F9141EAH7F0K34Z","","null","<img src=""img/flower3.png"" style=""width:200px; border:14px solid green;"">","null","","","","","","","","",""
"","image-keyboard-response","324","132909","0.0-324.0","3RYC5T2D74F2225U9D2NOPR6KS6PRF","A33Z6BHAJUGCHY","382GHPVPHSDM8N0F9141EAH7F0K34Z","","264.29999999701977","img/flower3.png","74","268.19999998807907","1","1","1","1","1,0.333,0.333,0.333,1,0.333,0.333,0.333,1","1,0.333,0.333,0.333,1,0.333,0.333,0.333,1","1",""
"","html-keyboard-response","325","133215","0.0-325.0","3RYC5T2D74F2225U9D2NOPR6KS6PRF","A33Z6BHAJUGCHY","382GHPVPHSDM8N0F9141EAH7F0K34Z","","null","<img src=""img/flower3.png"" style=""width:200px; border:14px solid green;"">","null","","","","","","","","",""
"","image-keyboard-response","326","133470","0.0-326.0","3RYC5T2D74F2225U9D2NOPR6KS6PRF","A33Z6BHAJUGCHY","382GHPVPHSDM8N0F9141EAH7F0K34Z","","249","img/flower3.png","74","253.70000000298023","1","1","1","1","1,0.333,0.333,0.333,1,0.333,0.333,0.333,1","1,0.333,0.333,0.333,1,0.333,0.333,0.333,1","1",""
"","html-keyboard-response","327","133775","0.0-327.0","3RYC5T2D74F2225U9D2NOPR6KS6PRF","A33Z6BHAJUGCHY","382GHPVPHSDM8N0F9141EAH7F0K34Z","","null","<img src=""img/flower3.png"" style=""width:200px; border:14px solid green;"">","null","","","","","","","","",""
"","image-keyboard-response","328","134200","0.0-328.0","3RYC5T2D74F2225U9D2NOPR6KS6PRF","A33Z6BHAJUGCHY","382GHPVPHSDM8N0F9141EAH7F0K34Z","","419.09999999403954","img/flower2.png","74","424","1","0","2","1","1,0.333,0.333,0.333,1,0.333,0.333,0.333,1","1,0.333,0.333,0.333,1,0.333,0.333,0.333,1","1",""
"","html-keyboard-response","329","134507","0.0-329.0","3RYC5T2D74F2225U9D2NOPR6KS6PRF","A33Z6BHAJUGCHY","382GHPVPHSDM8N0F9141EAH7F0K34Z","","null","<img src=""img/flower2.png"" style=""width:200px;border:14px solid red;"">","null","","","","","","","","",""
"","image-keyboard-response","330","135016","0.0-330.0","3RYC5T2D74F2225U9D2NOPR6KS6PRF","A33Z6BHAJUGCHY","382GHPVPHSDM8N0F9141EAH7F0K34Z","","502.79999999701977","img/flower4.png","74","507.5","1","0","3","1","1,0.333,0.333,0.333,1,0.333,0.333,0.333,1","1,0.333,0.333,0.333,1,0.333,0.333,0.333,1","1",""
"","html-keyboard-response","331","135321","0.0-331.0","3RYC5T2D74F2225U9D2NOPR6KS6PRF","A33Z6BHAJUGCHY","382GHPVPHSDM8N0F9141EAH7F0K34Z","","null","<img src=""img/flower4.png"" style=""width:200px;border:14px solid red;"">","null","","","","","","","","",""
"","image-keyboard-response","332","135981","0.0-332.0","3RYC5T2D74F2225U9D2NOPR6KS6PRF","A33Z6BHAJUGCHY","382GHPVPHSDM8N0F9141EAH7F0K34Z","","652.7000000029802","img/flower4.png","76","658.5999999940395","3","1","3","1","1,0.333,0.333,0.333,1,0.333,0.333,0.333,1","1,0.333,0.333,0.333,1,0.333,0.333,0.333,1","1",""
"","html-keyboard-response","333","136288","0.0-333.0","3RYC5T2D74F2225U9D2NOPR6KS6PRF","A33Z6BHAJUGCHY","382GHPVPHSDM8N0F9141EAH7F0K34Z","","null","<img src=""img/flower4.png"" style=""width:200px; border:14px solid green;"">","null","","","","","","","","",""
"","image-keyboard-response","334","136559","0.0-334.0","3RYC5T2D74F2225U9D2NOPR6KS6PRF","A33Z6BHAJUGCHY","382GHPVPHSDM8N0F9141EAH7F0K34Z","","267.3999999910593","img/flower4.png","76","270.6000000089407","3","1","3","1","1,0.333,0.333,0.333,1,0.333,0.333,0.333,1","1,0.333,0.333,0.333,1,0.333,0.333,0.333,1","1",""
"","html-keyboard-response","335","136863","0.0-335.0","3RYC5T2D74F2225U9D2NOPR6KS6PRF","A33Z6BHAJUGCHY","382GHPVPHSDM8N0F9141EAH7F0K34Z","","null","<img src=""img/flower4.png"" style=""width:200px; border:14px solid green;"">","null","","","","","","","","",""
"","image-keyboard-response","336","137582","0.0-336.0","3RYC5T2D74F2225U9D2NOPR6KS6PRF","A33Z6BHAJUGCHY","382GHPVPHSDM8N0F9141EAH7F0K34Z","","716.7999999970198","img/flower2.png","75","719","2","1","2","1","1,0.333,0.333,0.333,1,0.333,0.333,0.333,1","1,0.333,0.333,0.333,1,0.333,0.333,0.333,1","1",""
"","html-keyboard-response","337","137886","0.0-337.0","3RYC5T2D74F2225U9D2NOPR6KS6PRF","A33Z6BHAJUGCHY","382GHPVPHSDM8N0F9141EAH7F0K34Z","","null","<img src=""img/flower2.png"" style=""width:200px; border:14px solid green;"">","null","","","","","","","","",""
"","image-keyboard-response","338","138144","0.0-338.0","3RYC5T2D74F2225U9D2NOPR6KS6PRF","A33Z6BHAJUGCHY","382GHPVPHSDM8N0F9141EAH7F0K34Z","","251.09999999403954","img/flower2.png","75","257.20000000298023","2","1","2","1","1,0.333,0.333,0.333,1,0.333,0.333,0.333,1","1,0.333,0.333,0.333,1,0.333,0.333,0.333,1","1",""
"","html-keyboard-response","339","138451","0.0-339.0","3RYC5T2D74F2225U9D2NOPR6KS6PRF","A33Z6BHAJUGCHY","382GHPVPHSDM8N0F9141EAH7F0K34Z","","null","<img src=""img/flower2.png"" style=""width:200px; border:14px solid green;"">","null","","","","","","","","",""
"","image-keyboard-response","340","138758","0.0-340.0","3RYC5T2D74F2225U9D2NOPR6KS6PRF","A33Z6BHAJUGCHY","382GHPVPHSDM8N0F9141EAH7F0K34Z","","300.30000001192093","img/flower2.png","75","307","2","1","2","1","1,0.333,0.333,0.333,1,0.333,0.333,0.333,1","1,0.333,0.333,0.333,1,0.333,0.333,0.333,1","1",""
"","html-keyboard-response","341","139063","0.0-341.0","3RYC5T2D74F2225U9D2NOPR6KS6PRF","A33Z6BHAJUGCHY","382GHPVPHSDM8N0F9141EAH7F0K34Z","","null","<img src=""img/flower2.png"" style=""width:200px; border:14px solid green;"">","null","","","","","","","","",""
"","image-keyboard-response","342","139758","0.0-342.0","3RYC5T2D74F2225U9D2NOPR6KS6PRF","A33Z6BHAJUGCHY","382GHPVPHSDM8N0F9141EAH7F0K34Z","","689.5","img/flower4.png","76","695.2999999970198","3","1","3","1","1,0.333,0.333,0.333,1,0.333,0.333,0.333,1","1,0.333,0.333,0.333,1,0.333,0.333,0.333,1","1",""
"","html-keyboard-response","343","140066","0.0-343.0","3RYC5T2D74F2225U9D2NOPR6KS6PRF","A33Z6BHAJUGCHY","382GHPVPHSDM8N0F9141EAH7F0K34Z","","null","<img src=""img/flower4.png"" style=""width:200px; border:14px solid green;"">","null","","","","","","","","",""
"","image-keyboard-response","344","140367","0.0-344.0","3RYC5T2D74F2225U9D2NOPR6KS6PRF","A33Z6BHAJUGCHY","382GHPVPHSDM8N0F9141EAH7F0K34Z","","295.8999999910593","img/flower4.png","76","300","3","1","3","1","1,0.333,0.333,0.333,1,0.333,0.333,0.333,1","1,0.333,0.333,0.333,1,0.333,0.333,0.333,1","1",""
"","html-keyboard-response","345","140672","0.0-345.0","3RYC5T2D74F2225U9D2NOPR6KS6PRF","A33Z6BHAJUGCHY","382GHPVPHSDM8N0F9141EAH7F0K34Z","","null","<img src=""img/flower4.png"" style=""width:200px; border:14px solid green;"">","null","","","","","","","","",""
"","image-keyboard-response","346","140919","0.0-346.0","3RYC5T2D74F2225U9D2NOPR6KS6PRF","A33Z6BHAJUGCHY","382GHPVPHSDM8N0F9141EAH7F0K34Z","","243.29999999701977","img/flower2.png","76","246.20000000298023","3","1","2","1","1,0.333,0.333,0.333,1,0.333,0.333,0.333,1","1,0.333,0.333,0.333,1,0.333,0.333,0.333,1","1",""
"","html-keyboard-response","347","141224","0.0-347.0","3RYC5T2D74F2225U9D2NOPR6KS6PRF","A33Z6BHAJUGCHY","382GHPVPHSDM8N0F9141EAH7F0K34Z","","null","<img src=""img/flower2.png"" style=""width:200px; border:14px solid green;"">","null","","","","","","","","",""
"","image-keyboard-response","348","141545","0.0-348.0","3RYC5T2D74F2225U9D2NOPR6KS6PRF","A33Z6BHAJUGCHY","382GHPVPHSDM8N0F9141EAH7F0K34Z","","311.80000001192093","img/flower3.png","76","318.40000000596046","3","0","1","1","1,0.333,0.333,0.333,1,0.333,0.333,0.333,1","1,0.333,0.333,0.333,1,0.333,0.333,0.333,1","1",""
"","html-keyboard-response","349","141851","0.0-349.0","3RYC5T2D74F2225U9D2NOPR6KS6PRF","A33Z6BHAJUGCHY","382GHPVPHSDM8N0F9141EAH7F0K34Z","","null","<img src=""img/flower3.png"" style=""width:200px;border:14px solid red;"">","null","","","","","","","","",""
"","image-keyboard-response","350","142186","0.0-350.0","3RYC5T2D74F2225U9D2NOPR6KS6PRF","A33Z6BHAJUGCHY","382GHPVPHSDM8N0F9141EAH7F0K34Z","","328.90000000596046","img/flower3.png","74","333.8999999910593","1","1","1","1","1,0.333,0.333,0.333,1,0.333,0.333,0.333,1","1,0.333,0.333,0.333,1,0.333,0.333,0.333,1","1",""
"","html-keyboard-response","351","142492","0.0-351.0","3RYC5T2D74F2225U9D2NOPR6KS6PRF","A33Z6BHAJUGCHY","382GHPVPHSDM8N0F9141EAH7F0K34Z","","null","<img src=""img/flower3.png"" style=""width:200px; border:14px solid green;"">","null","","","","","","","","",""
"","image-keyboard-response","352","143043","0.0-352.0","3RYC5T2D74F2225U9D2NOPR6KS6PRF","A33Z6BHAJUGCHY","382GHPVPHSDM8N0F9141EAH7F0K34Z","","545.3999999910593","img/flower4.png","75","549.9000000059605","2","0","3","1","1,0.333,0.333,0.333,1,0.333,0.333,0.333,1","1,0.333,0.333,0.333,1,0.333,0.333,0.333,1","1",""
"","html-keyboard-response","353","143347","0.0-353.0","3RYC5T2D74F2225U9D2NOPR6KS6PRF","A33Z6BHAJUGCHY","382GHPVPHSDM8N0F9141EAH7F0K34Z","","null","<img src=""img/flower4.png"" style=""width:200px;border:14px solid red;"">","null","","","","","","","","",""
"","image-keyboard-response","354","143656","0.0-354.0","3RYC5T2D74F2225U9D2NOPR6KS6PRF","A33Z6BHAJUGCHY","382GHPVPHSDM8N0F9141EAH7F0K34Z","","302.5","img/flower4.png","76","307.29999999701977","3","1","3","1","1,0.333,0.333,0.333,1,0.333,0.333,0.333,1","1,0.333,0.333,0.333,1,0.333,0.333,0.333,1","1",""
"","html-keyboard-response","355","143961","0.0-355.0","3RYC5T2D74F2225U9D2NOPR6KS6PRF","A33Z6BHAJUGCHY","382GHPVPHSDM8N0F9141EAH7F0K34Z","","null","<img src=""img/flower4.png"" style=""width:200px; border:14px solid green;"">","null","","","","","","","","",""
"","image-keyboard-response","356","144723","0.0-356.0","3RYC5T2D74F2225U9D2NOPR6KS6PRF","A33Z6BHAJUGCHY","382GHPVPHSDM8N0F9141EAH7F0K34Z","","755.2999999970198","img/flower3.png","74","759.7999999970198","1","1","1","1","1,0.333,0.333,0.333,1,0.333,0.333,0.333,1","1,0.333,0.333,0.333,1,0.333,0.333,0.333,1","1",""
"","html-keyboard-response","357","145026","0.0-357.0","3RYC5T2D74F2225U9D2NOPR6KS6PRF","A33Z6BHAJUGCHY","382GHPVPHSDM8N0F9141EAH7F0K34Z","","null","<img src=""img/flower3.png"" style=""width:200px; border:14px solid green;"">","null","","","","","","","","",""
"","image-keyboard-response","358","145309","0.0-358.0","3RYC5T2D74F2225U9D2NOPR6KS6PRF","A33Z6BHAJUGCHY","382GHPVPHSDM8N0F9141EAH7F0K34Z","","277.3999999910593","img/flower3.png","74","282.20000000298023","1","1","1","1","1,0.333,0.333,0.333,1,0.333,0.333,0.333,1","1,0.333,0.333,0.333,1,0.333,0.333,0.333,1","1",""
"","html-keyboard-response","359","145616","0.0-359.0","3RYC5T2D74F2225U9D2NOPR6KS6PRF","A33Z6BHAJUGCHY","382GHPVPHSDM8N0F9141EAH7F0K34Z","","null","<img src=""img/flower3.png"" style=""width:200px; border:14px solid green;"">","null","","","","","","","","",""
"","image-keyboard-response","360","146062","0.0-360.0","3RYC5T2D74F2225U9D2NOPR6KS6PRF","A33Z6BHAJUGCHY","382GHPVPHSDM8N0F9141EAH7F0K34Z","","442.6000000089407","img/flower2.png","75","445.90000000596046","2","1","2","1","1,0.333,0.333,0.333,1,0.333,0.333,0.333,1","1,0.333,0.333,0.333,1,0.333,0.333,0.333,1","1",""
"","html-keyboard-response","361","146368","0.0-361.0","3RYC5T2D74F2225U9D2NOPR6KS6PRF","A33Z6BHAJUGCHY","382GHPVPHSDM8N0F9141EAH7F0K34Z","","null","<img src=""img/flower2.png"" style=""width:200px; border:14px solid green;"">","null","","","","","","","","",""
"","html-keyboard-response","362","148306","0.0-362.0","3RYC5T2D74F2225U9D2NOPR6KS6PRF","A33Z6BHAJUGCHY","382GHPVPHSDM8N0F9141EAH7F0K34Z","","","","","","","","","","","","",""
"","instructions","363","149701","0.0-363.0","3RYC5T2D74F2225U9D2NOPR6KS6PRF","A33Z6BHAJUGCHY","382GHPVPHSDM8N0F9141EAH7F0K34Z","[{""page_index"":0,""viewing_time"":1387.5}]","1388.7000000029802","","","","","","","","","","",""
